image;correctAns;respModal;frameColor;repSwitch;sequence;target;set;block;list;exp_version;stimulus;baseline;baseline_condition;trial_no;psychopy_trial;Column1;trialsREPSWITCH.thisRepN;trialsREPSWITCH.thisTrialN;trialsREPSWITCH.thisN;trialsREPSWITCH.thisIndex;textWelcome.started;textboxInstrMain1.started;textboxInstrMain1_2.started;textboxInstrMain1_3.started;keyInstrMain.started;keyInstrMain.keys;keyInstrMain.rt;textboxInstrMain2.started;textboxInstrMain2_2.started;textboxInstrMain2_3.started;textboxInstrMain2_4.started;textboxInstrMain2_5.started;textboxInstrMain2_6.started;textboxInstrMain2_7.started;textboxInstrMain2_8.started;textboxInstrMain2_9.started;textboxInstrMain2_10.started;textboxInstrMain2_11.started;textboxInstrMain2_12.started;keyInstrMain2.started;keyInstrMain2.keys;keyInstrMain2.rt;fixationITI.started;fixationITI.stopped;polygonColour.started;polygonWhite.started;imageObject.started;polygonType.started;textInput.started;keyResp.started;micRespv2l3.started;keyResp.keys;keyResp.corr;keyResp.rt;subjResponse;micRespv2l3.clip;textBlankLoop.started;textBlankLoop.stopped;keyPause.keys;polygonColour.stopped;polygonWhite.stopped;imageObject.stopped;polygonType.stopped;textInput.stopped;keyResp.stopped;textboxPause.started;keyPause.started;keyPause.rt;textboxGoodbye.started;textboxGoodbye.stopped;participant;session;date;expName;psychopyVersion;frameRate;Column2
;;;;;;;;;;;;;;;;;;;;;8.968722300138324;11.46666460018605;11.46666460018605;11.46666460018605;11.46666460018605;space;2.2695845998823643;;;;;;;;;;;;;;;;;;;;;;;;;;;;;;;;;;;;;;;;;;;;380203;001;2023-12-13_11h01.11.464;REPSWITCH1_version2_list3;2022.2.4;143.90787542062716;
;;;;;;;;;;;;;;;;;;;;;;;;;;;;13.751692300196737;13.751692300196737;13.751692300196737;13.751692300196737;13.751692300196737;13.751692300196737;13.751692300196737;13.751692300196737;13.751692300196737;13.751692300196737;13.751692300196737;13.751692300196737;13.751692300196737;space;0.46624179976060987;;;;;;;;;;;;;;;;;;;;;;;;;;;;;380203;001;2023-12-13_11h01.11.464;REPSWITCH1_version2_list3;2022.2.4;143.90787542062716;
REPSWITCH1/PICTURE_663.png;columna;type;gold;filler;1;F;1;2;3;2;Extra6;0;None;1;0;1;0;0;0;0;;;;;;;;;;;;;;;;;;;;;;;14.314247600268573;15.39079700037837;15.39079700037837;15.39079700037837;15.39079700037837;15.39079700037837;15.39079700037837;15.39079700037837;15.39079700037837;['c', 'o', 'l', 'u', 'm', 'n', 'a'];0;[0.9889631001278758, 1.328927000053227, 1.505398000124842, 1.7657643998973072, 1.968305999878794, 2.159753799904138, 2.249440799932927];columna;C:\2023\REPSWITCH21092023\REPSWITCH_excgange\REPSWITCH_excgange\data/380203_REPSWITCH1_version2_list3_2023-12-13_11h01.11.464_micRespv2l3_recorded\recording_micRespv2l3_2023-12-13_11h01.22.761.wav;18.412024800200015;18.912163300439715;None;;;;;;;;;;;;380203;001;2023-12-13_11h01.11.464;REPSWITCH1_version2_list3;2022.2.4;143.90787542062716;
REPSWITCH1/PICTURE_128.png;muñeca;speak;darkblue;nontarget;2;NT;1;2;3;2;Stim4_Set1;1;switch;2;1;2;0;1;1;1;;;;;;;;;;;;;;;;;;;;;;;18.912163300439715;20.044163200072944;20.044163200072944;20.044163200072944;20.044163200072944;20.044163200072944;20.044163200072944;20.044163200072944;20.044163200072944;None;0;;;C:\2023\REPSWITCH21092023\REPSWITCH_excgange\REPSWITCH_excgange\data/380203_REPSWITCH1_version2_list3_2023-12-13_11h01.11.464_micRespv2l3_recorded\recording_micRespv2l3_2023-12-13_11h01.27.418.wav;23.072334700264037;;None;23.072334700264037;23.072334700264037;23.072334700264037;23.072334700264037;23.072334700264037;23.072334700264037;;;;;;380203;001;2023-12-13_11h01.11.464;REPSWITCH1_version2_list3;2022.2.4;143.90787542062716;
REPSWITCH1/PICTURE_128.png;muñeca;speak;darkblue;repeat;2;T;1;2;3;2;Stim4_Set1;0;None;3;2;3;0;2;2;2;;;;;;;;;;;;;;;;;;;;;;;23.572427600156516;24.600396900437772;24.600396900437772;24.600396900437772;24.600396900437772;24.600396900437772;24.600396900437772;24.600396900437772;24.600396900437772;None;0;;;C:\2023\REPSWITCH21092023\REPSWITCH_excgange\REPSWITCH_excgange\data/380203_REPSWITCH1_version2_list3_2023-12-13_11h01.11.464_micRespv2l3_recorded\recording_micRespv2l3_2023-12-13_11h01.31.975.wav;27.628578200004995;;None;27.628578200004995;27.628578200004995;27.628578200004995;27.628578200004995;27.628578200004995;27.628578200004995;;;;;;380203;001;2023-12-13_11h01.11.464;REPSWITCH1_version2_list3;2022.2.4;143.90787542062716;
REPSWITCH1/PICTURE_8.png;pierna;type;gold;filler;1;F;1;2;3;2;Stim3_Set4;0;None;4;3;4;0;3;3;3;;;;;;;;;;;;;;;;;;;;;;;28.12857410032302;29.218986900057644;29.218986900057644;29.218986900057644;29.218986900057644;29.218986900057644;29.218986900057644;29.218986900057644;29.218986900057644;['p', 'i', 'e', 'r', 'n', 'a'];0;[1.2138539999723434, 1.597243799827993, 1.7824610997922719, 1.9508318998850882, 2.086525999940932, 2.2689180998131633];pierna;C:\2023\REPSWITCH21092023\REPSWITCH_excgange\REPSWITCH_excgange\data/380203_REPSWITCH1_version2_list3_2023-12-13_11h01.11.464_micRespv2l3_recorded\recording_micRespv2l3_2023-12-13_11h01.36.593.wav;32.24021250009537;32.74026680039242;None;32.24021250009537;32.24021250009537;32.24021250009537;32.24021250009537;32.24021250009537;32.24021250009537;;;;;;380203;001;2023-12-13_11h01.11.464;REPSWITCH1_version2_list3;2022.2.4;143.90787542062716;
REPSWITCH1/PICTURE_135.png;traje;speak;darkblue;nontarget;2;NT;1;2;3;2;Stim3_Set1;1;switch;5;4;5;0;4;4;4;;;;;;;;;;;;;;;;;;;;;;;32.74026680039242;33.76827810006216;33.76827810006216;33.76827810006216;33.76827810006216;33.76827810006216;33.76827810006216;33.76827810006216;33.76827810006216;None;0;;;C:\2023\REPSWITCH21092023\REPSWITCH_excgange\REPSWITCH_excgange\data/380203_REPSWITCH1_version2_list3_2023-12-13_11h01.11.464_micRespv2l3_recorded\recording_micRespv2l3_2023-12-13_11h01.41.141.wav;36.78940220037475;37.289482900407165;None;36.78940220037475;36.78940220037475;36.78940220037475;36.78940220037475;36.78940220037475;36.78940220037475;;;;;;380203;001;2023-12-13_11h01.11.464;REPSWITCH1_version2_list3;2022.2.4;143.90787542062716;
REPSWITCH1/PICTURE_135.png;traje;speak;darkblue;repeat;2;T;1;2;3;2;Stim3_Set1;0;None;6;5;6;0;5;5;5;;;;;;;;;;;;;;;;;;;;;;;37.289482900407165;38.428539799991995;38.428539799991995;38.428539799991995;38.428539799991995;38.428539799991995;38.428539799991995;38.428539799991995;38.428539799991995;None;0;;;C:\2023\REPSWITCH21092023\REPSWITCH_excgange\REPSWITCH_excgange\data/380203_REPSWITCH1_version2_list3_2023-12-13_11h01.11.464_micRespv2l3_recorded\recording_micRespv2l3_2023-12-13_11h01.45.801.wav;41.44976450037211;41.949903700035065;None;41.44976450037211;41.44976450037211;41.44976450037211;41.44976450037211;41.44976450037211;41.44976450037211;;;;;;380203;001;2023-12-13_11h01.11.464;REPSWITCH1_version2_list3;2022.2.4;143.90787542062716;
REPSWITCH1/PICTURE_673.png;tenedor;type;gold;filler;1;F;1;2;3;2;Extra5;0;None;7;6;7;0;6;6;6;;;;;;;;;;;;;;;;;;;;;;;41.949903700035065;43.05415920028463;43.05415920028463;43.05415920028463;43.05415920028463;43.05415920028463;43.05415920028463;43.05415920028463;43.05415920028463;['t', 'e', 'n', 'e', 'd', 'o', 'r'];0;[0.9477273998782039, 1.0809120000340044, 1.2247967002913356, 1.3224698002450168, 1.5039360001683235, 1.6524224998429418, 1.8045131000690162];tenedor;C:\2023\REPSWITCH21092023\REPSWITCH_excgange\REPSWITCH_excgange\data/380203_REPSWITCH1_version2_list3_2023-12-13_11h01.11.464_micRespv2l3_recorded\recording_micRespv2l3_2023-12-13_11h01.50.428.wav;46.07539270026609;46.57543530035764;None;46.07539270026609;46.07539270026609;46.07539270026609;46.07539270026609;46.07539270026609;46.07539270026609;;;;;;380203;001;2023-12-13_11h01.11.464;REPSWITCH1_version2_list3;2022.2.4;143.90787542062716;
REPSWITCH1/PICTURE_728.png;pulpo;speak;darkblue;filler;2;F;1;2;3;2;Stim8_Set4;0;None;8;7;8;0;7;7;7;;;;;;;;;;;;;;;;;;;;;;;46.57543530035764;47.610348800197244;47.610348800197244;47.610348800197244;47.610348800197244;47.610348800197244;47.610348800197244;47.610348800197244;47.610348800197244;None;0;;;C:\2023\REPSWITCH21092023\REPSWITCH_excgange\REPSWITCH_excgange\data/380203_REPSWITCH1_version2_list3_2023-12-13_11h01.11.464_micRespv2l3_recorded\recording_micRespv2l3_2023-12-13_11h01.54.984.wav;50.63153750030324;51.131590500008315;None;50.63153750030324;50.63153750030324;50.63153750030324;50.63153750030324;50.63153750030324;50.63153750030324;;;;;;380203;001;2023-12-13_11h01.11.464;REPSWITCH1_version2_list3;2022.2.4;143.90787542062716;
REPSWITCH1/PICTURE_16.png;cazador;speak;darkblue;nontarget;2;NT;1;2;3;2;Stim6_Set1;1;repeat;9;8;9;0;8;8;8;;;;;;;;;;;;;;;;;;;;;;;51.131590500008315;52.24282030016184;52.24282030016184;52.24282030016184;52.24282030016184;52.24282030016184;52.24282030016184;52.24282030016184;52.24282030016184;None;0;;;C:\2023\REPSWITCH21092023\REPSWITCH_excgange\REPSWITCH_excgange\data/380203_REPSWITCH1_version2_list3_2023-12-13_11h01.11.464_micRespv2l3_recorded\recording_micRespv2l3_2023-12-13_11h01.59.617.wav;55.27102169999853;;None;55.27102169999853;55.27102169999853;55.27102169999853;55.27102169999853;55.27102169999853;55.27102169999853;;;;;;380203;001;2023-12-13_11h01.11.464;REPSWITCH1_version2_list3;2022.2.4;143.90787542062716;
REPSWITCH1/PICTURE_16.png;cazador;type;gold;switch;1;T;1;2;3;2;Stim6_Set1;0;None;10;9;10;0;9;9;9;;;;;;;;;;;;;;;;;;;;;;;55.77107550017536;56.896226700395346;56.896226700395346;56.896226700395346;56.896226700395346;56.896226700395346;56.896226700395346;56.896226700395346;56.896226700395346;['c', 'a', 'z', 'a', 'd', 'o', 'r'];0;[0.837774199899286, 0.9814106002449989, 1.197121700271964, 1.7276416001841426, 1.9748953999951482, 2.0874197999946773, 2.2438711998984218];cazador;C:\2023\REPSWITCH21092023\REPSWITCH_excgange\REPSWITCH_excgange\data/380203_REPSWITCH1_version2_list3_2023-12-13_11h01.11.464_micRespv2l3_recorded\recording_micRespv2l3_2023-12-13_11h02.04.270.wav;59.917483700439334;60.41760040028021;None;59.917483700439334;59.917483700439334;59.917483700439334;59.917483700439334;59.917483700439334;59.917483700439334;;;;;;380203;001;2023-12-13_11h01.11.464;REPSWITCH1_version2_list3;2022.2.4;143.90787542062716;
REPSWITCH1/PICTURE_498.png;taza;type;gold;filler;1;F;1;2;3;2;Stim4_Set4;1;repeat;11;10;11;0;10;10;10;;;;;;;;;;;;;;;;;;;;;;;60.41760040028021;61.49404270015657;61.49404270015657;61.49404270015657;61.49404270015657;61.49404270015657;61.49404270015657;61.49404270015657;61.49404270015657;['t', 'a', 'z', 'a'];0;[1.0590400998480618, 1.2205269997939467, 1.4108229000121355, 1.6356674996204674];taza;C:\2023\REPSWITCH21092023\REPSWITCH_excgange\REPSWITCH_excgange\data/380203_REPSWITCH1_version2_list3_2023-12-13_11h01.11.464_micRespv2l3_recorded\recording_micRespv2l3_2023-12-13_11h02.08.868.wav;64.52220260025933;;None;64.52220260025933;64.52220260025933;64.52220260025933;64.52220260025933;64.52220260025933;64.52220260025933;;;;;;380203;001;2023-12-13_11h01.11.464;REPSWITCH1_version2_list3;2022.2.4;143.90787542062716;
REPSWITCH1/PICTURE_381.png;fresa;type;gold;nontarget;1;NT;1;2;3;2;Stim2_Set1;1;repeat;12;11;12;0;11;11;11;;;;;;;;;;;;;;;;;;;;;;;65.02225860022008;66.16131380014122;66.16131380014122;66.16131380014122;66.16131380014122;66.16131380014122;66.16131380014122;66.16131380014122;66.16131380014122;['f', 'r', 'e', 's', 'a'];0;[0.9055949002504349, 1.1589785004034638, 1.370860300026834, 1.636009800247848, 1.836081000044942];fresa;C:\2023\REPSWITCH21092023\REPSWITCH_excgange\REPSWITCH_excgange\data/380203_REPSWITCH1_version2_list3_2023-12-13_11h01.11.464_micRespv2l3_recorded\recording_micRespv2l3_2023-12-13_11h02.13.535.wav;69.18956350022927;;None;69.18956350022927;69.18956350022927;69.18956350022927;69.18956350022927;69.18956350022927;69.18956350022927;;;;;;380203;001;2023-12-13_11h01.11.464;REPSWITCH1_version2_list3;2022.2.4;143.90787542062716;
REPSWITCH1/PICTURE_381.png;fresa;speak;darkblue;switch;2;T;1;2;3;2;Stim2_Set1;0;None;13;12;13;0;12;12;12;;;;;;;;;;;;;;;;;;;;;;;69.68958070036024;70.89110210025683;70.89110210025683;70.89110210025683;70.89110210025683;70.89110210025683;70.89110210025683;70.89110210025683;70.89110210025683;None;0;;;C:\2023\REPSWITCH21092023\REPSWITCH_excgange\REPSWITCH_excgange\data/380203_REPSWITCH1_version2_list3_2023-12-13_11h01.11.464_micRespv2l3_recorded\recording_micRespv2l3_2023-12-13_11h02.18.265.wav;73.91927880002186;;None;73.91927880002186;73.91927880002186;73.91927880002186;73.91927880002186;73.91927880002186;73.91927880002186;;;;;;380203;001;2023-12-13_11h01.11.464;REPSWITCH1_version2_list3;2022.2.4;143.90787542062716;
REPSWITCH1/PICTURE_178.png;puente;speak;darkblue;nontarget;2;NT;1;2;3;2;Stim1_Set1;0;None;14;13;14;0;13;13;13;;;;;;;;;;;;;;;;;;;;;;;74.41933500021696;75.5375944999978;75.5375944999978;75.5375944999978;75.5375944999978;75.5375944999978;75.5375944999978;75.5375944999978;75.5375944999978;None;0;;;C:\2023\REPSWITCH21092023\REPSWITCH_excgange\REPSWITCH_excgange\data/380203_REPSWITCH1_version2_list3_2023-12-13_11h01.11.464_micRespv2l3_recorded\recording_micRespv2l3_2023-12-13_11h02.22.911.wav;78.56574150035158;;None;78.56574150035158;78.56574150035158;78.56574150035158;78.56574150035158;78.56574150035158;78.56574150035158;;;;;;380203;001;2023-12-13_11h01.11.464;REPSWITCH1_version2_list3;2022.2.4;143.90787542062716;
REPSWITCH1/PICTURE_178.png;puente;type;gold;switch;1;T;1;2;3;2;Stim1_Set1;0;None;15;14;15;0;14;14;14;;;;;;;;;;;;;;;;;;;;;;;79.06580310035497;80.12151230033487;80.12151230033487;80.12151230033487;80.12151230033487;80.12151230033487;80.12151230033487;80.12151230033487;80.12151230033487;['p', 'u', 'e', 'n', 't', 'e'];0;[0.9814788997173309, 1.2747903000563383, 1.4071438000537455, 1.5177607997320592, 1.7552330996841192, 2.010732799768448];puente;C:\2023\REPSWITCH21092023\REPSWITCH_excgange\REPSWITCH_excgange\data/380203_REPSWITCH1_version2_list3_2023-12-13_11h01.11.464_micRespv2l3_recorded\recording_micRespv2l3_2023-12-13_11h02.27.495.wav;83.1427164003253;83.64286140026525;None;83.1427164003253;83.1427164003253;83.1427164003253;83.1427164003253;83.1427164003253;83.1427164003253;;;;;;380203;001;2023-12-13_11h01.11.464;REPSWITCH1_version2_list3;2022.2.4;143.90787542062716;
REPSWITCH1/PICTURE_719.png;baño;speak;darkblue;filler;2;F;1;2;3;2;Stim2_Set4;0;None;16;15;16;0;15;15;15;;;;;;;;;;;;;;;;;;;;;;;83.64286140026525;84.71238070027903;84.71238070027903;84.71238070027903;84.71238070027903;84.71238070027903;84.71238070027903;84.71238070027903;84.71238070027903;None;0;;;C:\2023\REPSWITCH21092023\REPSWITCH_excgange\REPSWITCH_excgange\data/380203_REPSWITCH1_version2_list3_2023-12-13_11h01.11.464_micRespv2l3_recorded\recording_micRespv2l3_2023-12-13_11h02.32.086.wav;87.74054850032553;;None;87.74054850032553;87.74054850032553;87.74054850032553;87.74054850032553;87.74054850032553;87.74054850032553;;;;;;380203;001;2023-12-13_11h01.11.464;REPSWITCH1_version2_list3;2022.2.4;143.90787542062716;
REPSWITCH1/PICTURE_169.png;espalda;type;gold;nontarget;1;NT;1;2;3;2;Stim8_Set1;1;switch;17;16;17;0;16;16;16;;;;;;;;;;;;;;;;;;;;;;;88.24057690007612;89.37973210029304;89.37973210029304;89.37973210029304;89.37973210029304;89.37973210029304;89.37973210029304;89.37973210029304;89.37973210029304;['e', 's', 'p', 'a', 'd', 'backspace', 'l', 'd'];0;[0.8330764998681843, 1.054228600114584, 1.2575742001645267, 1.3921515000984073, 1.663498000241816, 2.1483328002505004, 2.7685610000044107, 2.9139904999174178];espald;C:\2023\REPSWITCH21092023\REPSWITCH_excgange\REPSWITCH_excgange\data/380203_REPSWITCH1_version2_list3_2023-12-13_11h01.11.464_micRespv2l3_recorded\recording_micRespv2l3_2023-12-13_11h02.36.754.wav;92.40085020009428;92.90091470023617;None;92.40085020009428;92.40085020009428;92.40085020009428;92.40085020009428;92.40085020009428;92.40085020009428;;;;;;380203;001;2023-12-13_11h01.11.464;REPSWITCH1_version2_list3;2022.2.4;143.90787542062716;
REPSWITCH1/PICTURE_169.png;espalda;type;gold;repeat;1;T;1;2;3;2;Stim8_Set1;0;None;18;17;18;0;17;17;17;;;;;;;;;;;;;;;;;;;;;;;92.90091470023617;93.93589480035007;93.93589480035007;93.93589480035007;93.93589480035007;93.93589480035007;93.93589480035007;93.93589480035007;93.93589480035007;['e', 's', 'p', 'l', 'a', 'd', 'a'];0;[1.8566474001854658, 2.0371623001992702, 2.1258658999577165, 2.379170599859208, 2.4260684000328183, 2.6622227001935244, 2.8678131997585297];esplada;C:\2023\REPSWITCH21092023\REPSWITCH_excgange\REPSWITCH_excgange\data/380203_REPSWITCH1_version2_list3_2023-12-13_11h01.11.464_micRespv2l3_recorded\recording_micRespv2l3_2023-12-13_11h02.41.310.wav;96.95699940016493;97.45707540027797;None;96.95699940016493;96.95699940016493;96.95699940016493;96.95699940016493;96.95699940016493;96.95699940016493;;;;;;380203;001;2023-12-13_11h01.11.464;REPSWITCH1_version2_list3;2022.2.4;143.90787542062716;
REPSWITCH1/PICTURE_48.png;bombero;speak;darkblue;filler;2;F;1;2;3;2;Stim7_Set4;1;switch;19;18;19;0;18;18;18;;;;;;;;;;;;;;;;;;;;;;;97.45707540027797;98.58917110040784;98.58917110040784;98.58917110040784;98.58917110040784;98.58917110040784;98.58917110040784;98.58917110040784;98.58917110040784;None;0;;;C:\2023\REPSWITCH21092023\REPSWITCH_excgange\REPSWITCH_excgange\data/380203_REPSWITCH1_version2_list3_2023-12-13_11h01.11.464_micRespv2l3_recorded\recording_micRespv2l3_2023-12-13_11h02.45.963.wav;101.6104491003789;102.11049000034109;None;101.6104491003789;101.6104491003789;101.6104491003789;101.6104491003789;101.6104491003789;101.6104491003789;;;;;;380203;001;2023-12-13_11h01.11.464;REPSWITCH1_version2_list3;2022.2.4;143.90787542062716;
REPSWITCH1/PICTURE_19.png;pavo;type;gold;nontarget;1;NT;1;2;3;2;Stim5_Set1;1;switch;20;19;20;0;19;19;19;;;;;;;;;;;;;;;;;;;;;;;102.11049000034109;103.25644600018859;103.25644600018859;103.25644600018859;103.25644600018859;103.25644600018859;103.25644600018859;103.25644600018859;103.25644600018859;['p', 'a', 'v', 'o'];0;[1.1878843000158668, 1.3035289999097586, 1.615573300048709, 1.7660170998424292];pavo;C:\2023\REPSWITCH21092023\REPSWITCH_excgange\REPSWITCH_excgange\data/380203_REPSWITCH1_version2_list3_2023-12-13_11h01.11.464_micRespv2l3_recorded\recording_micRespv2l3_2023-12-13_11h02.50.629.wav;106.27770780026913;106.77776500023901;None;106.27770780026913;106.27770780026913;106.27770780026913;106.27770780026913;106.27770780026913;106.27770780026913;;;;;;380203;001;2023-12-13_11h01.11.464;REPSWITCH1_version2_list3;2022.2.4;143.90787542062716;
REPSWITCH1/PICTURE_19.png;pavo;type;gold;repeat;1;T;1;2;3;2;Stim5_Set1;0;None;21;20;21;0;20;20;20;;;;;;;;;;;;;;;;;;;;;;;106.77776500023901;107.8612982002087;107.8612982002087;107.8612982002087;107.8612982002087;107.8612982002087;107.8612982002087;107.8612982002087;107.8612982002087;['p', 'a', 'v', 'o'];0;[0.9887814000248909, 1.1174105000682175, 1.4530857000499964, 1.6138872001320124];pavo;C:\2023\REPSWITCH21092023\REPSWITCH_excgange\REPSWITCH_excgange\data/380203_REPSWITCH1_version2_list3_2023-12-13_11h01.11.464_micRespv2l3_recorded\recording_micRespv2l3_2023-12-13_11h02.55.235.wav;110.8824713001959;111.38253800012171;None;110.8824713001959;110.8824713001959;110.8824713001959;110.8824713001959;110.8824713001959;110.8824713001959;;;;;;380203;001;2023-12-13_11h01.11.464;REPSWITCH1_version2_list3;2022.2.4;143.90787542062716;
REPSWITCH1/PICTURE_319.png;vaca;speak;darkblue;filler;2;F;1;2;3;2;Stim1_Set4;0;None;22;21;22;0;21;21;21;;;;;;;;;;;;;;;;;;;;;;;111.38253800012171;112.52163220010698;112.52163220010698;112.52163220010698;112.52163220010698;112.52163220010698;112.52163220010698;112.52163220010698;112.52163220010698;None;0;;;C:\2023\REPSWITCH21092023\REPSWITCH_excgange\REPSWITCH_excgange\data/380203_REPSWITCH1_version2_list3_2023-12-13_11h01.11.464_micRespv2l3_recorded\recording_micRespv2l3_2023-12-13_11h02.59.896.wav;115.54973309999332;;None;115.54973309999332;115.54973309999332;115.54973309999332;115.54973309999332;115.54973309999332;115.54973309999332;;;;;;380203;001;2023-12-13_11h01.11.464;REPSWITCH1_version2_list3;2022.2.4;143.90787542062716;
REPSWITCH1/PICTURE_338.png;regalo;type;gold;filler;1;F;1;2;3;2;Stim6_Set4;0;None;23;22;23;0;22;22;22;;;;;;;;;;;;;;;;;;;;;;;116.04989370005205;117.17496580025181;117.17496580025181;117.17496580025181;117.17496580025181;117.17496580025181;117.17496580025181;117.17496580025181;117.17496580025181;['r', 'e', 'g', 'a', 'l', 'o'];0;[0.82011489989236, 1.0234774998389184, 1.1733575998805463, 1.3330935998819768, 1.580977899953723, 1.799154399894178];regalo;C:\2023\REPSWITCH21092023\REPSWITCH_excgange\REPSWITCH_excgange\data/380203_REPSWITCH1_version2_list3_2023-12-13_11h01.11.464_micRespv2l3_recorded\recording_micRespv2l3_2023-12-13_11h03.04.549.wav;120.20311570027843;;None;120.20311570027843;120.20311570027843;120.20311570027843;120.20311570027843;120.20311570027843;120.20311570027843;;;;;;380203;001;2023-12-13_11h01.11.464;REPSWITCH1_version2_list3;2022.2.4;143.90787542062716;
REPSWITCH1/PICTURE_142.png;vaso;type;gold;nontarget;1;NT;1;2;3;2;Stim7_Set1;0;None;24;23;24;0;23;23;23;;;;;;;;;;;;;;;;;;;;;;;120.7032516002655;121.74501660000533;121.74501660000533;121.74501660000533;121.74501660000533;121.74501660000533;121.74501660000533;121.74501660000533;121.74501660000533;['v', 'a', 's', 'o'];0;[0.8690970996394753, 0.9886777000501752, 1.1999717997387052, 1.6824015998281538];vaso;C:\2023\REPSWITCH21092023\REPSWITCH_excgange\REPSWITCH_excgange\data/380203_REPSWITCH1_version2_list3_2023-12-13_11h01.11.464_micRespv2l3_recorded\recording_micRespv2l3_2023-12-13_11h03.09.119.wav;124.77315180003643;;None;124.77315180003643;124.77315180003643;124.77315180003643;124.77315180003643;124.77315180003643;124.77315180003643;;;;;;380203;001;2023-12-13_11h01.11.464;REPSWITCH1_version2_list3;2022.2.4;143.90787542062716;
REPSWITCH1/PICTURE_142.png;vaso;speak;darkblue;switch;2;T;1;2;3;2;Stim7_Set1;0;None;25;24;25;0;24;24;24;;;;;;;;;;;;;;;;;;;;;;;125.27321760030463;126.44013470038772;126.44013470038772;126.44013470038772;126.44013470038772;126.44013470038772;126.44013470038772;126.44013470038772;126.44013470038772;None;0;;;C:\2023\REPSWITCH21092023\REPSWITCH_excgange\REPSWITCH_excgange\data/380203_REPSWITCH1_version2_list3_2023-12-13_11h01.11.464_micRespv2l3_recorded\recording_micRespv2l3_2023-12-13_11h03.13.814.wav;129.46822520019487;;None;129.46822520019487;129.46822520019487;129.46822520019487;129.46822520019487;129.46822520019487;129.46822520019487;;;;;;380203;001;2023-12-13_11h01.11.464;REPSWITCH1_version2_list3;2022.2.4;143.90787542062716;
REPSWITCH1/PICTURE_687.png;camisa;type;gold;filler;1;F;1;2;3;2;Stim5_Set4;1;switch;26;25;26;0;25;25;25;;;;;;;;;;;;;;;;;;;;;;;129.9683450004086;131.06571660004556;131.06571660004556;131.06571660004556;131.06571660004556;131.06571660004556;131.06571660004556;131.06571660004556;131.06571660004556;['c', 'a', 'm', 'i', 's', 'a'];0;[1.0762746999971569, 1.2366631999611855, 1.5070643001236022, 1.7482583997771144, 1.9217431996949017, 2.5654913997277617];camisa;C:\2023\REPSWITCH21092023\REPSWITCH_excgange\REPSWITCH_excgange\data/380203_REPSWITCH1_version2_list3_2023-12-13_11h01.11.464_micRespv2l3_recorded\recording_micRespv2l3_2023-12-13_11h03.18.439.wav;134.09384500002488;134.59390980005264;None;134.09384500002488;134.09384500002488;134.09384500002488;134.09384500002488;134.09384500002488;134.09384500002488;;;;;;380203;001;2023-12-13_11h01.11.464;REPSWITCH1_version2_list3;2022.2.4;143.90787542062716;
REPSWITCH1/PICTURE_30.png;granja;type;gold;nontarget;1;NT;2;2;3;2;Stim5_Set2;0;None;27;26;27;0;26;26;26;;;;;;;;;;;;;;;;;;;;;;;134.59390980005264;135.71213460015133;135.71213460015133;135.71213460015133;135.71213460015133;135.71213460015133;135.71213460015133;135.71213460015133;135.71213460015133;['g', 'g', 'r', 'a', 'backspace', 'backspace', 'r'];0;[1.0268116001971066, 1.2191488998942077, 1.4244647999294102, 1.5612804000265896, 2.1896112002432346, 2.3430905998684466, 2.9755799998529255];ggr;C:\2023\REPSWITCH21092023\REPSWITCH_excgange\REPSWITCH_excgange\data/380203_REPSWITCH1_version2_list3_2023-12-13_11h01.11.464_micRespv2l3_recorded\recording_micRespv2l3_2023-12-13_11h03.23.086.wav;138.74026360036805;139.24035410024226;None;138.74026360036805;138.74026360036805;138.74026360036805;138.74026360036805;138.74026360036805;138.74026360036805;;;;;;380203;001;2023-12-13_11h01.11.464;REPSWITCH1_version2_list3;2022.2.4;143.90787542062716;
REPSWITCH1/PICTURE_30.png;granja;type;gold;repeat;1;T;2;2;3;2;Stim5_Set2;0;None;28;27;28;0;27;27;27;;;;;;;;;;;;;;;;;;;;;;;139.24035410024226;140.42799880029634;140.42799880029634;140.42799880029634;140.42799880029634;140.42799880029634;140.42799880029634;140.42799880029634;140.42799880029634;['g', 'r', 'a', 'n', 'j', 'a'];0;[0.812874199822545, 1.0281471000052989, 1.1816461998969316, 1.3152176002040505, 1.5646004998125136, 1.718982799910009];granja;C:\2023\REPSWITCH21092023\REPSWITCH_excgange\REPSWITCH_excgange\data/380203_REPSWITCH1_version2_list3_2023-12-13_11h01.11.464_micRespv2l3_recorded\recording_micRespv2l3_2023-12-13_11h03.27.802.wav;143.45616469997913;;None;143.45616469997913;143.45616469997913;143.45616469997913;143.45616469997913;143.45616469997913;143.45616469997913;;;;;;380203;001;2023-12-13_11h01.11.464;REPSWITCH1_version2_list3;2022.2.4;143.90787542062716;
REPSWITCH1/PICTURE_128.png;muñeca;speak;darkblue;filler;2;F;2;2;3;2;Stim4_Set1;0;None;29;28;29;0;28;28;28;;;;;;;;;;;;;;;;;;;;;;;143.95622360007837;145.06753060035408;145.06753060035408;145.06753060035408;145.06753060035408;145.06753060035408;145.06753060035408;145.06753060035408;145.06753060035408;None;0;;;C:\2023\REPSWITCH21092023\REPSWITCH_excgange\REPSWITCH_excgange\data/380203_REPSWITCH1_version2_list3_2023-12-13_11h01.11.464_micRespv2l3_recorded\recording_micRespv2l3_2023-12-13_11h03.32.441.wav;148.09570470033213;;None;148.09570470033213;148.09570470033213;148.09570470033213;148.09570470033213;148.09570470033213;148.09570470033213;;;;;;380203;001;2023-12-13_11h01.11.464;REPSWITCH1_version2_list3;2022.2.4;143.90787542062716;
REPSWITCH1/PICTURE_264.png;mano;type;gold;nontarget;1;NT;2;2;3;2;Stim3_Set2;1;switch;30;29;30;0;29;29;29;;;;;;;;;;;;;;;;;;;;;;;148.59574670018628;149.6792364004068;149.6792364004068;149.6792364004068;149.6792364004068;149.6792364004068;149.6792364004068;149.6792364004068;149.6792364004068;['m', 'n', 'o', 'backspace', 'backspace', 'a', 'n', 'o'];0;[0.7611727002076805, 1.1013704999350011, 1.4925048998557031, 1.9851536001078784, 2.21694379998371, 2.349902799818665, 2.555207900237292, 2.6160591999068856];mano;C:\2023\REPSWITCH21092023\REPSWITCH_excgange\REPSWITCH_excgange\data/380203_REPSWITCH1_version2_list3_2023-12-13_11h01.11.464_micRespv2l3_recorded\recording_micRespv2l3_2023-12-13_11h03.37.053.wav;152.70043090032414;153.20051690004766;None;152.70043090032414;152.70043090032414;152.70043090032414;152.70043090032414;152.70043090032414;152.70043090032414;;;;;;380203;001;2023-12-13_11h01.11.464;REPSWITCH1_version2_list3;2022.2.4;143.90787542062716;
REPSWITCH1/PICTURE_264.png;mano;type;gold;repeat;1;T;2;2;3;2;Stim3_Set2;0;None;31;30;31;0;30;30;30;;;;;;;;;;;;;;;;;;;;;;;153.20051690004766;154.2284450000152;154.2284450000152;154.2284450000152;154.2284450000152;154.2284450000152;154.2284450000152;154.2284450000152;154.2284450000152;['m', 'a', 'n', 'o'];0;[0.7041696002706885, 0.8260623002424836, 0.9605887001380324, 1.0791921000927687];mano;C:\2023\REPSWITCH21092023\REPSWITCH_excgange\REPSWITCH_excgange\data/380203_REPSWITCH1_version2_list3_2023-12-13_11h01.11.464_micRespv2l3_recorded\recording_micRespv2l3_2023-12-13_11h03.41.603.wav;157.2565846000798;;None;157.2565846000798;157.2565846000798;157.2565846000798;157.2565846000798;157.2565846000798;157.2565846000798;;;;;;380203;001;2023-12-13_11h01.11.464;REPSWITCH1_version2_list3;2022.2.4;143.90787542062716;
REPSWITCH1/PICTURE_175.png;pintor;type;gold;nontarget;1;NT;2;2;3;2;Stim1_Set2;0;None;32;31;32;0;31;31;31;;;;;;;;;;;;;;;;;;;;;;;157.75672430032864;158.826258700341;158.826258700341;158.826258700341;158.826258700341;158.826258700341;158.826258700341;158.826258700341;158.826258700341;['p', 'n', 'm', 't', 'o', 'backspace', 'backspace', 'backspace', 'backspace', 'i'];0;[0.8769630999304354, 1.452097900211811, 1.466040600091219, 1.673344099894166, 1.7690866002812982, 2.200255800038576, 2.3840135000646114, 2.5424454999156296, 2.6824692003428936, 2.970348299946636];pi;C:\2023\REPSWITCH21092023\REPSWITCH_excgange\REPSWITCH_excgange\data/380203_REPSWITCH1_version2_list3_2023-12-13_11h01.11.464_micRespv2l3_recorded\recording_micRespv2l3_2023-12-13_11h03.46.200.wav;161.84748650016263;162.34754480002448;None;161.84748650016263;161.84748650016263;161.84748650016263;161.84748650016263;161.84748650016263;161.84748650016263;;;;;;380203;001;2023-12-13_11h01.11.464;REPSWITCH1_version2_list3;2022.2.4;143.90787542062716;
REPSWITCH1/PICTURE_175.png;pintor;speak;darkblue;switch;2;T;2;2;3;2;Stim1_Set2;0;None;33;32;33;0;32;32;32;;;;;;;;;;;;;;;;;;;;;;;162.34754480002448;163.38245240040123;163.38245240040123;163.38245240040123;163.38245240040123;163.38245240040123;163.38245240040123;163.38245240040123;163.38245240040123;None;0;;;C:\2023\REPSWITCH21092023\REPSWITCH_excgange\REPSWITCH_excgange\data/380203_REPSWITCH1_version2_list3_2023-12-13_11h01.11.464_micRespv2l3_recorded\recording_micRespv2l3_2023-12-13_11h03.50.756.wav;166.4036252000369;166.90374030033126;None;166.4036252000369;166.4036252000369;166.4036252000369;166.4036252000369;166.4036252000369;166.4036252000369;;;;;;380203;001;2023-12-13_11h01.11.464;REPSWITCH1_version2_list3;2022.2.4;143.90787542062716;
REPSWITCH1/PICTURE_135.png;traje;speak;darkblue;filler;2;F;2;2;3;2;Stim3_Set1;1;repeat;34;33;34;0;33;33;33;;;;;;;;;;;;;;;;;;;;;;;166.90374030033126;167.9315942004323;167.9315942004323;167.9315942004323;167.9315942004323;167.9315942004323;167.9315942004323;167.9315942004323;167.9315942004323;None;0;;;C:\2023\REPSWITCH21092023\REPSWITCH_excgange\REPSWITCH_excgange\data/380203_REPSWITCH1_version2_list3_2023-12-13_11h01.11.464_micRespv2l3_recorded\recording_micRespv2l3_2023-12-13_11h03.55.305.wav;170.95284740021452;171.45290570007637;None;170.95284740021452;170.95284740021452;170.95284740021452;170.95284740021452;170.95284740021452;170.95284740021452;;;;;;380203;001;2023-12-13_11h01.11.464;REPSWITCH1_version2_list3;2022.2.4;143.90787542062716;
REPSWITCH1/PICTURE_446.png;cerdo;speak;darkblue;nontarget;2;NT;2;2;3;2;Stim7_Set2;1;repeat;35;34;35;0;34;34;34;;;;;;;;;;;;;;;;;;;;;;;171.45290570007637;172.5363635001704;172.5363635001704;172.5363635001704;172.5363635001704;172.5363635001704;172.5363635001704;172.5363635001704;172.5363635001704;None;0;;;C:\2023\REPSWITCH21092023\REPSWITCH_excgange\REPSWITCH_excgange\data/380203_REPSWITCH1_version2_list3_2023-12-13_11h01.11.464_micRespv2l3_recorded\recording_micRespv2l3_2023-12-13_11h03.59.910.wav;175.55765590025112;176.05766150029376;None;175.55765590025112;175.55765590025112;175.55765590025112;175.55765590025112;175.55765590025112;175.55765590025112;;;;;;380203;001;2023-12-13_11h01.11.464;REPSWITCH1_version2_list3;2022.2.4;143.90787542062716;
REPSWITCH1/PICTURE_446.png;cerdo;type;gold;switch;1;T;2;2;3;2;Stim7_Set2;0;None;36;35;36;0;35;35;35;;;;;;;;;;;;;;;;;;;;;;;176.05766150029376;177.1273175003007;177.1273175003007;177.1273175003007;177.1273175003007;177.1273175003007;177.1273175003007;177.1273175003007;177.1273175003007;['c', 'e', 'r', 'd', 'o'];0;[1.0091236997395754, 1.2135024997405708, 1.4030349999666214, 1.6102486997842789, 1.790653099771589];cerdo;C:\2023\REPSWITCH21092023\REPSWITCH_excgange\REPSWITCH_excgange\data/380203_REPSWITCH1_version2_list3_2023-12-13_11h01.11.464_micRespv2l3_recorded\recording_micRespv2l3_2023-12-13_11h04.04.502.wav;180.15540270041674;;None;180.15540270041674;180.15540270041674;180.15540270041674;180.15540270041674;180.15540270041674;180.15540270041674;;;;;;380203;001;2023-12-13_11h01.11.464;REPSWITCH1_version2_list3;2022.2.4;143.90787542062716;
REPSWITCH1/PICTURE_152.png;caracol;type;gold;nontarget;1;NT;2;2;3;2;Stim2_Set2;1;repeat;37;36;37;0;36;36;36;;;;;;;;;;;;;;;;;;;;;;;180.65558300027624;181.77367520006374;181.77367520006374;181.77367520006374;181.77367520006374;181.77367520006374;181.77367520006374;181.77367520006374;181.77367520006374;['c', 'a', 'r', 'a', 'c', 'o', 'l'];0;[0.8928694999776781, 1.1019907998852432, 1.1938069998286664, 1.3052777997218072, 1.5527250999584794, 1.7221592999994755, 1.8616573996841908];caracol;C:\2023\REPSWITCH21092023\REPSWITCH_excgange\REPSWITCH_excgange\data/380203_REPSWITCH1_version2_list3_2023-12-13_11h01.11.464_micRespv2l3_recorded\recording_micRespv2l3_2023-12-13_11h04.09.148.wav;184.79493850003928;185.29498990019783;None;184.79493850003928;184.79493850003928;184.79493850003928;184.79493850003928;184.79493850003928;184.79493850003928;;;;;;380203;001;2023-12-13_11h01.11.464;REPSWITCH1_version2_list3;2022.2.4;143.90787542062716;
REPSWITCH1/PICTURE_152.png;caracol;speak;darkblue;switch;2;T;2;2;3;2;Stim2_Set2;0;None;38;37;38;0;37;37;37;;;;;;;;;;;;;;;;;;;;;;;185.29498990019783;186.3576347003691;186.3576347003691;186.3576347003691;186.3576347003691;186.3576347003691;186.3576347003691;186.3576347003691;186.3576347003691;None;0;;;C:\2023\REPSWITCH21092023\REPSWITCH_excgange\REPSWITCH_excgange\data/380203_REPSWITCH1_version2_list3_2023-12-13_11h01.11.464_micRespv2l3_recorded\recording_micRespv2l3_2023-12-13_11h04.13.731.wav;189.3788362001069;189.8789353002794;None;189.3788362001069;189.3788362001069;189.3788362001069;189.3788362001069;189.3788362001069;189.3788362001069;;;;;;380203;001;2023-12-13_11h01.11.464;REPSWITCH1_version2_list3;2022.2.4;143.90787542062716;
REPSWITCH1/PICTURE_16.png;cazador;type;gold;filler;1;F;2;2;3;2;Stim6_Set1;0;None;39;38;39;0;38;38;38;;;;;;;;;;;;;;;;;;;;;;;189.8789353002794;191.06659940024838;191.06659940024838;191.06659940024838;191.06659940024838;191.06659940024838;191.06659940024838;191.06659940024838;191.06659940024838;['c', 'a', 'z', 'a', 'd', 'o', 'r'];0;[0.8944236999377608, 1.087782900314778, 1.2652981001883745, 1.470592400059104, 1.6802439000457525, 1.8162870001979172, 1.96304289996624];cazador;C:\2023\REPSWITCH21092023\REPSWITCH_excgange\REPSWITCH_excgange\data/380203_REPSWITCH1_version2_list3_2023-12-13_11h01.11.464_micRespv2l3_recorded\recording_micRespv2l3_2023-12-13_11h04.18.440.wav;194.08782750042155;194.5878793001175;None;194.08782750042155;194.08782750042155;194.08782750042155;194.08782750042155;194.08782750042155;194.08782750042155;;;;;;380203;001;2023-12-13_11h01.11.464;REPSWITCH1_version2_list3;2022.2.4;143.90787542062716;
REPSWITCH1/PICTURE_381.png;fresa;speak;darkblue;filler;2;F;2;2;3;2;Stim2_Set1;0;None;40;39;40;0;39;39;39;;;;;;;;;;;;;;;;;;;;;;;194.5878793001175;195.6922904001549;195.6922904001549;195.6922904001549;195.6922904001549;195.6922904001549;195.6922904001549;195.6922904001549;195.6922904001549;None;0;;;C:\2023\REPSWITCH21092023\REPSWITCH_excgange\REPSWITCH_excgange\data/380203_REPSWITCH1_version2_list3_2023-12-13_11h01.11.464_micRespv2l3_recorded\recording_micRespv2l3_2023-12-13_11h04.23.066.wav;198.71342890011147;199.2134959003888;None;198.71342890011147;198.71342890011147;198.71342890011147;198.71342890011147;198.71342890011147;198.71342890011147;;;;;;380203;001;2023-12-13_11h01.11.464;REPSWITCH1_version2_list3;2022.2.4;143.90787542062716;
REPSWITCH1/PICTURE_19.png;pavo;type;gold;filler;1;F;2;2;3;2;Stim5_Set1;0;None;41;40;41;0;40;40;40;;;;;;;;;;;;;;;;;;;;;;;199.2134959003888;200.29699150007218;200.29699150007218;200.29699150007218;200.29699150007218;200.29699150007218;200.29699150007218;200.29699150007218;200.29699150007218;['p', 'a', 'v', 'o'];0;[1.1375347999855876, 1.2322046998888254, 1.5303631001152098, 1.654580700211227];pavo;C:\2023\REPSWITCH21092023\REPSWITCH_excgange\REPSWITCH_excgange\data/380203_REPSWITCH1_version2_list3_2023-12-13_11h01.11.464_micRespv2l3_recorded\recording_micRespv2l3_2023-12-13_11h04.27.671.wav;203.31820560013875;203.81823410000652;None;203.31820560013875;203.31820560013875;203.31820560013875;203.31820560013875;203.31820560013875;203.31820560013875;;;;;;380203;001;2023-12-13_11h01.11.464;REPSWITCH1_version2_list3;2022.2.4;143.90787542062716;
REPSWITCH1/PICTURE_517.png;cuerda;speak;darkblue;nontarget;2;NT;2;2;3;2;Stim4_Set2;1;switch;42;41;42;0;41;41;41;;;;;;;;;;;;;;;;;;;;;;;203.81823410000652;204.95731420023367;204.95731420023367;204.95731420023367;204.95731420023367;204.95731420023367;204.95731420023367;204.95731420023367;204.95731420023367;None;0;;;C:\2023\REPSWITCH21092023\REPSWITCH_excgange\REPSWITCH_excgange\data/380203_REPSWITCH1_version2_list3_2023-12-13_11h01.11.464_micRespv2l3_recorded\recording_micRespv2l3_2023-12-13_11h04.32.332.wav;207.98547120019794;;None;207.98547120019794;207.98547120019794;207.98547120019794;207.98547120019794;207.98547120019794;207.98547120019794;;;;;;380203;001;2023-12-13_11h01.11.464;REPSWITCH1_version2_list3;2022.2.4;143.90787542062716;
REPSWITCH1/PICTURE_517.png;cuerda;speak;darkblue;repeat;2;T;2;2;3;2;Stim4_Set2;0;None;43;42;43;0;42;42;42;;;;;;;;;;;;;;;;;;;;;;;208.48561470024288;209.5343111003749;209.5343111003749;209.5343111003749;209.5343111003749;209.5343111003749;209.5343111003749;209.5343111003749;209.5343111003749;None;0;;;C:\2023\REPSWITCH21092023\REPSWITCH_excgange\REPSWITCH_excgange\data/380203_REPSWITCH1_version2_list3_2023-12-13_11h01.11.464_micRespv2l3_recorded\recording_micRespv2l3_2023-12-13_11h04.36.908.wav;212.55551150022075;213.05566360009834;None;212.55551150022075;212.55551150022075;212.55551150022075;212.55551150022075;212.55551150022075;212.55551150022075;;;;;;380203;001;2023-12-13_11h01.11.464;REPSWITCH1_version2_list3;2022.2.4;143.90787542062716;
REPSWITCH1/PICTURE_178.png;puente;type;gold;filler;1;F;2;2;3;2;Stim1_Set1;0;None;44;43;44;0;43;43;43;;;;;;;;;;;;;;;;;;;;;;;213.05566360009834;214.15303220041096;214.15303220041096;214.15303220041096;214.15303220041096;214.15303220041096;214.15303220041096;214.15303220041096;214.15303220041096;['p', 'u', 'e', 'n', 't', 'e'];0;[0.9908668999560177, 1.3698619999922812, 1.5103782997466624, 1.6190163996070623, 1.8164069997146726, 2.0326846996322274];puente;C:\2023\REPSWITCH21092023\REPSWITCH_excgange\REPSWITCH_excgange\data/380203_REPSWITCH1_version2_list3_2023-12-13_11h01.11.464_micRespv2l3_recorded\recording_micRespv2l3_2023-12-13_11h04.41.527.wav;217.1811753003858;;None;217.1811753003858;217.1811753003858;217.1811753003858;217.1811753003858;217.1811753003858;217.1811753003858;;;;;;380203;001;2023-12-13_11h01.11.464;REPSWITCH1_version2_list3;2022.2.4;143.90787542062716;
REPSWITCH1/PICTURE_199.png;falda;speak;darkblue;nontarget;2;NT;2;2;3;2;Stim8_Set2;1;switch;45;44;45;0;44;44;44;;;;;;;;;;;;;;;;;;;;;;;217.68123070010915;218.76463890029117;218.76463890029117;218.76463890029117;218.76463890029117;218.76463890029117;218.76463890029117;218.76463890029117;218.76463890029117;None;0;;;C:\2023\REPSWITCH21092023\REPSWITCH_excgange\REPSWITCH_excgange\data/380203_REPSWITCH1_version2_list3_2023-12-13_11h01.11.464_micRespv2l3_recorded\recording_micRespv2l3_2023-12-13_11h04.46.139.wav;221.79280320042744;;None;221.79280320042744;221.79280320042744;221.79280320042744;221.79280320042744;221.79280320042744;221.79280320042744;;;;;;380203;001;2023-12-13_11h01.11.464;REPSWITCH1_version2_list3;2022.2.4;143.90787542062716;
REPSWITCH1/PICTURE_199.png;falda;speak;darkblue;repeat;2;T;2;2;3;2;Stim8_Set2;0;None;46;45;46;0;45;45;45;;;;;;;;;;;;;;;;;;;;;;;222.29290580004454;223.34857940021902;223.34857940021902;223.34857940021902;223.34857940021902;223.34857940021902;223.34857940021902;223.34857940021902;223.34857940021902;None;0;;;C:\2023\REPSWITCH21092023\REPSWITCH_excgange\REPSWITCH_excgange\data/380203_REPSWITCH1_version2_list3_2023-12-13_11h01.11.464_micRespv2l3_recorded\recording_micRespv2l3_2023-12-13_11h04.50.722.wav;226.3698090002872;226.8698898004368;None;226.3698090002872;226.3698090002872;226.3698090002872;226.3698090002872;226.3698090002872;226.3698090002872;;;;;;380203;001;2023-12-13_11h01.11.464;REPSWITCH1_version2_list3;2022.2.4;143.90787542062716;
REPSWITCH1/PICTURE_169.png;espalda;type;gold;filler;1;F;2;2;3;2;Stim8_Set1;0;None;47;46;47;0;46;46;46;;;;;;;;;;;;;;;;;;;;;;;226.8698898004368;228.0089386003092;228.0089386003092;228.0089386003092;228.0089386003092;228.0089386003092;228.0089386003092;228.0089386003092;228.0089386003092;['e', 's', 'p', 'a', 'k', 'l', 'd', 'a'];0;[1.0084165995940566, 1.1956360996700823, 1.3327162000350654, 1.4333146000280976, 1.5739180999808013, 1.5778680997900665, 1.7114496999420226, 1.9015937997028232];espaklda;C:\2023\REPSWITCH21092023\REPSWITCH_excgange\REPSWITCH_excgange\data/380203_REPSWITCH1_version2_list3_2023-12-13_11h01.11.464_micRespv2l3_recorded\recording_micRespv2l3_2023-12-13_11h04.55.382.wav;231.03012480027974;231.5301984003745;None;231.03012480027974;231.03012480027974;231.03012480027974;231.03012480027974;231.03012480027974;231.03012480027974;;;;;;380203;001;2023-12-13_11h01.11.464;REPSWITCH1_version2_list3;2022.2.4;143.90787542062716;
REPSWITCH1/PICTURE_142.png;vaso;speak;darkblue;filler;2;F;2;2;3;2;Stim7_Set1;0;None;48;47;48;0;47;47;47;;;;;;;;;;;;;;;;;;;;;;;231.5301984003745;232.54429370025173;232.54429370025173;232.54429370025173;232.54429370025173;232.54429370025173;232.54429370025173;232.54429370025173;232.54429370025173;None;0;;;C:\2023\REPSWITCH21092023\REPSWITCH_excgange\REPSWITCH_excgange\data/380203_REPSWITCH1_version2_list3_2023-12-13_11h01.11.464_micRespv2l3_recorded\recording_micRespv2l3_2023-12-13_11h04.59.918.wav;235.5724248001352;236.07248530024663;None;235.5724248001352;235.5724248001352;235.5724248001352;235.5724248001352;235.5724248001352;235.5724248001352;;;;;;380203;001;2023-12-13_11h01.11.464;REPSWITCH1_version2_list3;2022.2.4;143.90787542062716;
REPSWITCH1/PICTURE_552.png;manzana;speak;darkblue;nontarget;2;NT;2;2;3;2;Stim6_Set2;0;None;49;48;49;0;48;48;48;;;;;;;;;;;;;;;;;;;;;;;236.07248530024663;237.30182980000973;237.30182980000973;237.30182980000973;237.30182980000973;237.30182980000973;237.30182980000973;237.30182980000973;237.30182980000973;None;0;;;C:\2023\REPSWITCH21092023\REPSWITCH_excgange\REPSWITCH_excgange\data/380203_REPSWITCH1_version2_list3_2023-12-13_11h01.11.464_micRespv2l3_recorded\recording_micRespv2l3_2023-12-13_11h05.04.676.wav;240.32307919999585;240.82314140023664;None;240.32307919999585;240.32307919999585;240.32307919999585;240.32307919999585;240.32307919999585;240.32307919999585;;;;;;380203;001;2023-12-13_11h01.11.464;REPSWITCH1_version2_list3;2022.2.4;143.90787542062716;
REPSWITCH1/PICTURE_552.png;manzana;type;gold;switch;1;T;2;2;3;2;Stim6_Set2;0;None;50;49;50;0;49;49;49;;;;;;;;;;;;;;;;;;;;;;;240.82314140023664;241.89962010039017;241.89962010039017;241.89962010039017;241.89962010039017;241.89962010039017;241.89962010039017;241.89962010039017;241.89962010039017;['m', 'a', 'n', 'a', 'n', 'a', 'backspace', 'backspace', 'z', 'a', 'n', 'b'];0;[0.4850168996490538, 0.6513934000395238, 0.7949472996406257, 1.327191499993205, 1.5046449997462332, 1.7051937999203801, 2.1743203997612, 2.3158438997343183, 2.4364403998479247, 2.6417843997478485, 2.8026453000493348, 2.8056246996857226];manazab;C:\2023\REPSWITCH21092023\REPSWITCH_excgange\REPSWITCH_excgange\data/380203_REPSWITCH1_version2_list3_2023-12-13_11h01.11.464_micRespv2l3_recorded\recording_micRespv2l3_2023-12-13_11h05.09.274.wav;244.92781200027093;;None;244.92781200027093;244.92781200027093;244.92781200027093;244.92781200027093;244.92781200027093;244.92781200027093;;;;;;380203;001;2023-12-13_11h01.11.464;REPSWITCH1_version2_list3;2022.2.4;143.90787542062716;
REPSWITCH1/PICTURE_590.png;escoba;speak;darkblue;filler;2;F;1;2;3;2;Extra3;0;None;51;50;51;0;50;50;50;;;;;;;;;;;;;;;;;;;;;;;245.42786810034886;246.54605380026624;246.54605380026624;246.54605380026624;246.54605380026624;246.54605380026624;246.54605380026624;246.54605380026624;246.54605380026624;None;0;;;C:\2023\REPSWITCH21092023\REPSWITCH_excgange\REPSWITCH_excgange\data/380203_REPSWITCH1_version2_list3_2023-12-13_11h01.11.464_micRespv2l3_recorded\recording_micRespv2l3_2023-12-13_11h05.13.920.wav;249.574328600429;;space;249.574328600429;249.574328600429;249.574328600429;249.574328600429;249.574328600429;249.574328600429;250.07433050032705;250.07433050032705;2.3044043998233974;;;380203;001;2023-12-13_11h01.11.464;REPSWITCH1_version2_list3;2022.2.4;143.90787542062716;
REPSWITCH1/PICTURE_552.png;manzana;type;gold;filler;1;F;3;2;3;2;Stim6_Set2;0;None;52;51;52;0;51;51;51;;;;;;;;;;;;;;;;;;;;;;;252.38710310030729;253.44280910026282;253.44280910026282;253.44280910026282;253.44280910026282;253.44280910026282;253.44280910026282;253.44280910026282;253.44280910026282;['m', 'a', 'n', 'z', 'a', 'n', 'a'];0;[1.0379015998914838, 1.2152664000168443, 1.3229598999023438, 1.4705389998853207, 1.65583990002051, 1.7485449998639524, 1.8878783998079598];manzana;C:\2023\REPSWITCH21092023\REPSWITCH_excgange\REPSWITCH_excgange\data/380203_REPSWITCH1_version2_list3_2023-12-13_11h01.11.464_micRespv2l3_recorded\recording_micRespv2l3_2023-12-13_11h05.20.817.wav;256.4710099003278;;None;256.4710099003278;256.4710099003278;256.4710099003278;256.4710099003278;256.4710099003278;256.4710099003278;;;;;;380203;001;2023-12-13_11h01.11.464;REPSWITCH1_version2_list3;2022.2.4;143.90787542062716;
REPSWITCH1/PICTURE_464.png;goma;type;gold;nontarget;1;NT;3;2;3;2;Stim6_Set3;1;repeat;53;52;53;0;52;52;52;;;;;;;;;;;;;;;;;;;;;;;256.97102440008894;258.0407112999819;258.0407112999819;258.0407112999819;258.0407112999819;258.0407112999819;258.0407112999819;258.0407112999819;258.0407112999819;['g', 'o', 'm', 'a'];0;[1.1514192000031471, 1.322845600079745, 1.531139800325036, 1.6816516001708806];goma;C:\2023\REPSWITCH21092023\REPSWITCH_excgange\REPSWITCH_excgange\data/380203_REPSWITCH1_version2_list3_2023-12-13_11h01.11.464_micRespv2l3_recorded\recording_micRespv2l3_2023-12-13_11h05.25.415.wav;261.0619342001155;261.5619052001275;None;261.0619342001155;261.0619342001155;261.0619342001155;261.0619342001155;261.0619342001155;261.0619342001155;;;;;;380203;001;2023-12-13_11h01.11.464;REPSWITCH1_version2_list3;2022.2.4;143.90787542062716;
REPSWITCH1/PICTURE_464.png;goma;speak;darkblue;switch;2;T;3;2;3;2;Stim6_Set3;0;None;54;53;54;0;53;53;53;;;;;;;;;;;;;;;;;;;;;;;261.5619052001275;262.638488100376;262.638488100376;262.638488100376;262.638488100376;262.638488100376;262.638488100376;262.638488100376;262.638488100376;None;0;;;C:\2023\REPSWITCH21092023\REPSWITCH_excgange\REPSWITCH_excgange\data/380203_REPSWITCH1_version2_list3_2023-12-13_11h01.11.464_micRespv2l3_recorded\recording_micRespv2l3_2023-12-13_11h05.30.012.wav;265.65970320021734;266.15984690003097;None;265.65970320021734;265.65970320021734;265.65970320021734;265.65970320021734;265.65970320021734;265.65970320021734;;;;;;380203;001;2023-12-13_11h01.11.464;REPSWITCH1_version2_list3;2022.2.4;143.90787542062716;
REPSWITCH1/PICTURE_30.png;granja;speak;darkblue;filler;2;F;3;2;3;2;Stim5_Set2;0;None;55;54;55;0;54;54;54;;;;;;;;;;;;;;;;;;;;;;;266.15984690003097;267.2849259003997;267.2849259003997;267.2849259003997;267.2849259003997;267.2849259003997;267.2849259003997;267.2849259003997;267.2849259003997;None;0;;;C:\2023\REPSWITCH21092023\REPSWITCH_excgange\REPSWITCH_excgange\data/380203_REPSWITCH1_version2_list3_2023-12-13_11h01.11.464_micRespv2l3_recorded\recording_micRespv2l3_2023-12-13_11h05.34.659.wav;270.3061033003032;270.8062519002706;None;270.3061033003032;270.3061033003032;270.3061033003032;270.3061033003032;270.3061033003032;270.3061033003032;;;;;;380203;001;2023-12-13_11h01.11.464;REPSWITCH1_version2_list3;2022.2.4;143.90787542062716;
REPSWITCH1/PICTURE_235.png;aguja;speak;darkblue;nontarget;2;NT;3;2;3;2;Stim4_Set3;1;repeat;56;55;56;0;55;55;55;;;;;;;;;;;;;;;;;;;;;;;270.8062519002706;271.9035829002969;271.9035829002969;271.9035829002969;271.9035829002969;271.9035829002969;271.9035829002969;271.9035829002969;271.9035829002969;None;0;;;C:\2023\REPSWITCH21092023\REPSWITCH_excgange\REPSWITCH_excgange\data/380203_REPSWITCH1_version2_list3_2023-12-13_11h01.11.464_micRespv2l3_recorded\recording_micRespv2l3_2023-12-13_11h05.39.277.wav;274.9317079000175;;None;274.9317079000175;274.9317079000175;274.9317079000175;274.9317079000175;274.9317079000175;274.9317079000175;;;;;;380203;001;2023-12-13_11h01.11.464;REPSWITCH1_version2_list3;2022.2.4;143.90787542062716;
REPSWITCH1/PICTURE_235.png;aguja;type;gold;switch;1;T;3;2;3;2;Stim4_Set3;0;None;57;56;57;0;56;56;56;;;;;;;;;;;;;;;;;;;;;;;275.43181880004704;276.45973020000383;276.45973020000383;276.45973020000383;276.45973020000383;276.45973020000383;276.45973020000383;276.45973020000383;276.45973020000383;['a', 'g', 'u', 'j', 'a'];0;[0.7319497996941209, 1.0927439997904003, 1.3390262997709215, 1.5823703999631107, 1.698334800079465];aguja;C:\2023\REPSWITCH21092023\REPSWITCH_excgange\REPSWITCH_excgange\data/380203_REPSWITCH1_version2_list3_2023-12-13_11h01.11.464_micRespv2l3_recorded\recording_micRespv2l3_2023-12-13_11h05.43.833.wav;279.48096520034596;279.98099750000983;None;279.48096520034596;279.48096520034596;279.48096520034596;279.48096520034596;279.48096520034596;279.48096520034596;;;;;;380203;001;2023-12-13_11h01.11.464;REPSWITCH1_version2_list3;2022.2.4;143.90787542062716;
REPSWITCH1/PICTURE_391.png;cadena;type;gold;filler;1;F;3;2;3;2;Extra2;0;None;58;57;58;0;57;57;57;;;;;;;;;;;;;;;;;;;;;;;279.98099750000983;281.10618180036545;281.10618180036545;281.10618180036545;281.10618180036545;281.10618180036545;281.10618180036545;281.10618180036545;281.10618180036545;['c', 'a', 'd', 'e', 'n', 'a'];0;[1.6765692001208663, 1.7711984999477863, 1.9965745001100004, 2.1759287999011576, 2.2636726000346243, 2.404634799808264];cadena;C:\2023\REPSWITCH21092023\REPSWITCH_excgange\REPSWITCH_excgange\data/380203_REPSWITCH1_version2_list3_2023-12-13_11h01.11.464_micRespv2l3_recorded\recording_micRespv2l3_2023-12-13_11h05.48.481.wav;284.13438370032236;;None;284.13438370032236;284.13438370032236;284.13438370032236;284.13438370032236;284.13438370032236;284.13438370032236;;;;;;380203;001;2023-12-13_11h01.11.464;REPSWITCH1_version2_list3;2022.2.4;143.90787542062716;
REPSWITCH1/PICTURE_320.png;iglesia;type;gold;nontarget;1;NT;3;2;3;2;Stim8_Set3;0;None;59;58;59;0;58;58;58;;;;;;;;;;;;;;;;;;;;;;;284.6344058001414;285.84288400039077;285.84288400039077;285.84288400039077;285.84288400039077;285.84288400039077;285.84288400039077;285.84288400039077;285.84288400039077;['i', 'l', 'e', 's', 'o', 'a', 'backspace', 'backspace', 'backspace', 'backspace'];0;[1.1025107000023127, 1.4596259002573788, 1.612109700217843, 1.8323885998688638, 1.9440130000002682, 2.062230700161308, 2.357530999928713, 2.5030207000672817, 2.7883804999291897, 2.9528290000744164];il;C:\2023\REPSWITCH21092023\REPSWITCH_excgange\REPSWITCH_excgange\data/380203_REPSWITCH1_version2_list3_2023-12-13_11h01.11.464_micRespv2l3_recorded\recording_micRespv2l3_2023-12-13_11h05.53.216.wav;288.86410940019414;289.3641697000712;None;288.86410940019414;288.86410940019414;288.86410940019414;288.86410940019414;288.86410940019414;288.86410940019414;;;;;;380203;001;2023-12-13_11h01.11.464;REPSWITCH1_version2_list3;2022.2.4;143.90787542062716;
REPSWITCH1/PICTURE_320.png;iglesia;speak;darkblue;switch;2;T;3;2;3;2;Stim8_Set3;0;None;60;59;60;0;59;59;59;;;;;;;;;;;;;;;;;;;;;;;289.3641697000712;290.55183650041;290.55183650041;290.55183650041;290.55183650041;290.55183650041;290.55183650041;290.55183650041;290.55183650041;None;0;;;C:\2023\REPSWITCH21092023\REPSWITCH_excgange\REPSWITCH_excgange\data/380203_REPSWITCH1_version2_list3_2023-12-13_11h01.11.464_micRespv2l3_recorded\recording_micRespv2l3_2023-12-13_11h05.57.925.wav;293.5730737000704;294.07312420010567;None;293.5730737000704;293.5730737000704;293.5730737000704;293.5730737000704;293.5730737000704;293.5730737000704;;;;;;380203;001;2023-12-13_11h01.11.464;REPSWITCH1_version2_list3;2022.2.4;143.90787542062716;
REPSWITCH1/PICTURE_175.png;pintor;type;gold;filler;1;F;3;2;3;2;Stim1_Set2;0;None;61;60;61;0;60;60;60;;;;;;;;;;;;;;;;;;;;;;;294.07312420010567;295.17057770024985;295.17057770024985;295.17057770024985;295.17057770024985;295.17057770024985;295.17057770024985;295.17057770024985;295.17057770024985;['p', 'u', 'i', 'n', 't', 'o', 't', 'backspace', 'r'];0;[0.8098713997751474, 1.1207826999016106, 1.1237689997069538, 1.315470099914819, 1.5397534999065101, 1.7024118998087943, 2.2379957996308804, 2.6306745000183582, 2.7513383999466896];pintor;C:\2023\REPSWITCH21092023\REPSWITCH_excgange\REPSWITCH_excgange\data/380203_REPSWITCH1_version2_list3_2023-12-13_11h01.11.464_micRespv2l3_recorded\recording_micRespv2l3_2023-12-13_11h06.02.545.wav;298.1986503000371;;None;298.1986503000371;298.1986503000371;298.1986503000371;298.1986503000371;298.1986503000371;298.1986503000371;;;;;;380203;001;2023-12-13_11h01.11.464;REPSWITCH1_version2_list3;2022.2.4;143.90787542062716;
REPSWITCH1/PICTURE_271.png;conejo;speak;darkblue;nontarget;2;NT;3;2;3;2;Stim7_Set3;1;switch;62;61;62;0;61;61;61;;;;;;;;;;;;;;;;;;;;;;;298.69882210018113;299.8169921003282;299.8169921003282;299.8169921003282;299.8169921003282;299.8169921003282;299.8169921003282;299.8169921003282;299.8169921003282;None;0;;;C:\2023\REPSWITCH21092023\REPSWITCH_excgange\REPSWITCH_excgange\data/380203_REPSWITCH1_version2_list3_2023-12-13_11h01.11.464_micRespv2l3_recorded\recording_micRespv2l3_2023-12-13_11h06.07.191.wav;302.8451786004007;;None;302.8451786004007;302.8451786004007;302.8451786004007;302.8451786004007;302.8451786004007;302.8451786004007;;;;;;380203;001;2023-12-13_11h01.11.464;REPSWITCH1_version2_list3;2022.2.4;143.90787542062716;
REPSWITCH1/PICTURE_271.png;conejo;speak;darkblue;repeat;2;T;3;2;3;2;Stim7_Set3;0;None;63;62;63;0;62;62;62;;;;;;;;;;;;;;;;;;;;;;;303.34517240012065;304.44257479999214;304.44257479999214;304.44257479999214;304.44257479999214;304.44257479999214;304.44257479999214;304.44257479999214;304.44257479999214;None;0;;;C:\2023\REPSWITCH21092023\REPSWITCH_excgange\REPSWITCH_excgange\data/380203_REPSWITCH1_version2_list3_2023-12-13_11h01.11.464_micRespv2l3_recorded\recording_micRespv2l3_2023-12-13_11h06.11.817.wav;307.47073130030185;;None;307.47073130030185;307.47073130030185;307.47073130030185;307.47073130030185;307.47073130030185;307.47073130030185;;;;;;380203;001;2023-12-13_11h01.11.464;REPSWITCH1_version2_list3;2022.2.4;143.90787542062716;
REPSWITCH1/PICTURE_446.png;cerdo;speak;darkblue;filler;2;F;3;2;3;2;Stim7_Set2;0;None;64;63;64;0;63;63;63;;;;;;;;;;;;;;;;;;;;;;;307.9707865002565;309.08204740006477;309.08204740006477;309.08204740006477;309.08204740006477;309.08204740006477;309.08204740006477;309.08204740006477;309.08204740006477;None;0;;;C:\2023\REPSWITCH21092023\REPSWITCH_excgange\REPSWITCH_excgange\data/380203_REPSWITCH1_version2_list3_2023-12-13_11h01.11.464_micRespv2l3_recorded\recording_micRespv2l3_2023-12-13_11h06.16.456.wav;312.1102082002908;;None;312.1102082002908;312.1102082002908;312.1102082002908;312.1102082002908;312.1102082002908;312.1102082002908;;;;;;380203;001;2023-12-13_11h01.11.464;REPSWITCH1_version2_list3;2022.2.4;143.90787542062716;
REPSWITCH1/PICTURE_152.png;caracol;type;gold;filler;1;F;3;2;3;2;Stim2_Set2;0;None;65;64;65;0;64;64;64;;;;;;;;;;;;;;;;;;;;;;;312.61030020006;313.7076727002859;313.7076727002859;313.7076727002859;313.7076727002859;313.7076727002859;313.7076727002859;313.7076727002859;313.7076727002859;['c', 'a', 'r', 'a', 'c', 'o', 'l'];0;[0.5909279002808034, 0.938000800088048, 1.1413573999889195, 1.2513437001034617, 1.4955021999776363, 1.692164700012654, 1.8323764000087976];caracol;C:\2023\REPSWITCH21092023\REPSWITCH_excgange\REPSWITCH_excgange\data/380203_REPSWITCH1_version2_list3_2023-12-13_11h01.11.464_micRespv2l3_recorded\recording_micRespv2l3_2023-12-13_11h06.21.082.wav;316.73583580041304;;None;316.73583580041304;316.73583580041304;316.73583580041304;316.73583580041304;316.73583580041304;316.73583580041304;;;;;;380203;001;2023-12-13_11h01.11.464;REPSWITCH1_version2_list3;2022.2.4;143.90787542062716;
REPSWITCH1/PICTURE_576.png;guante;speak;darkblue;nontarget;2;NT;3;2;3;2;Stim1_Set3;1;switch;66;65;66;0;65;65;65;;;;;;;;;;;;;;;;;;;;;;;317.2358978004195;318.2846737001091;318.2846737001091;318.2846737001091;318.2846737001091;318.2846737001091;318.2846737001091;318.2846737001091;318.2846737001091;None;0;;;C:\2023\REPSWITCH21092023\REPSWITCH_excgange\REPSWITCH_excgange\data/380203_REPSWITCH1_version2_list3_2023-12-13_11h01.11.464_micRespv2l3_recorded\recording_micRespv2l3_2023-12-13_11h06.25.659.wav;321.3128202003427;321.8128945999779;None;321.3128202003427;321.3128202003427;321.3128202003427;321.3128202003427;321.3128202003427;321.3128202003427;;;;;;380203;001;2023-12-13_11h01.11.464;REPSWITCH1_version2_list3;2022.2.4;143.90787542062716;
REPSWITCH1/PICTURE_576.png;guante;speak;darkblue;repeat;2;T;3;2;3;2;Stim1_Set3;0;None;67;66;67;0;66;66;66;;;;;;;;;;;;;;;;;;;;;;;321.8128945999779;322.854701500386;322.854701500386;322.854701500386;322.854701500386;322.854701500386;322.854701500386;322.854701500386;322.854701500386;None;0;;;C:\2023\REPSWITCH21092023\REPSWITCH_excgange\REPSWITCH_excgange\data/380203_REPSWITCH1_version2_list3_2023-12-13_11h01.11.464_micRespv2l3_recorded\recording_micRespv2l3_2023-12-13_11h06.30.228.wav;325.8759185001254;326.37596910027787;None;325.8759185001254;325.8759185001254;325.8759185001254;325.8759185001254;325.8759185001254;325.8759185001254;;;;;;380203;001;2023-12-13_11h01.11.464;REPSWITCH1_version2_list3;2022.2.4;143.90787542062716;
REPSWITCH1/PICTURE_242.png;cartero;speak;darkblue;nontarget;2;NT;3;2;3;2;Stim3_Set3;0;None;68;67;68;0;67;67;67;;;;;;;;;;;;;;;;;;;;;;;326.37596910027787;327.4177926001139;327.4177926001139;327.4177926001139;327.4177926001139;327.4177926001139;327.4177926001139;327.4177926001139;327.4177926001139;None;0;;;C:\2023\REPSWITCH21092023\REPSWITCH_excgange\REPSWITCH_excgange\data/380203_REPSWITCH1_version2_list3_2023-12-13_11h01.11.464_micRespv2l3_recorded\recording_micRespv2l3_2023-12-13_11h06.34.792.wav;330.4390021003783;330.9390547000803;None;330.4390021003783;330.4390021003783;330.4390021003783;330.4390021003783;330.4390021003783;330.4390021003783;;;;;;380203;001;2023-12-13_11h01.11.464;REPSWITCH1_version2_list3;2022.2.4;143.90787542062716;
REPSWITCH1/PICTURE_242.png;cartero;type;gold;switch;1;T;3;2;3;2;Stim3_Set3;0;None;69;68;69;0;68;68;68;;;;;;;;;;;;;;;;;;;;;;;330.9390547000803;332.1753542004153;332.1753542004153;332.1753542004153;332.1753542004153;332.1753542004153;332.1753542004153;332.1753542004153;332.1753542004153;['c', 'a', 'r', 't', 'y', 'e', 'r', 'o'];0;[0.7302782000042498, 0.9086218001320958, 1.0760999000631273, 1.2547003999352455, 1.2576643000356853, 1.4202142003923655, 1.5716479001566768, 1.7094995002262294];cartyero;C:\2023\REPSWITCH21092023\REPSWITCH_excgange\REPSWITCH_excgange\data/380203_REPSWITCH1_version2_list3_2023-12-13_11h01.11.464_micRespv2l3_recorded\recording_micRespv2l3_2023-12-13_11h06.39.549.wav;335.1965617001988;335.69664750015363;None;335.1965617001988;335.1965617001988;335.1965617001988;335.1965617001988;335.1965617001988;335.1965617001988;;;;;;380203;001;2023-12-13_11h01.11.464;REPSWITCH1_version2_list3;2022.2.4;143.90787542062716;
REPSWITCH1/PICTURE_517.png;cuerda;speak;darkblue;filler;2;F;3;2;3;2;Stim4_Set2;0;None;70;69;70;0;69;69;69;;;;;;;;;;;;;;;;;;;;;;;335.69664750015363;336.74544560024515;336.74544560024515;336.74544560024515;336.74544560024515;336.74544560024515;336.74544560024515;336.74544560024515;336.74544560024515;None;0;;;C:\2023\REPSWITCH21092023\REPSWITCH_excgange\REPSWITCH_excgange\data/380203_REPSWITCH1_version2_list3_2023-12-13_11h01.11.464_micRespv2l3_recorded\recording_micRespv2l3_2023-12-13_11h06.44.119.wav;339.7666096002795;340.2667526002042;None;339.7666096002795;339.7666096002795;339.7666096002795;339.7666096002795;339.7666096002795;339.7666096002795;;;;;;380203;001;2023-12-13_11h01.11.464;REPSWITCH1_version2_list3;2022.2.4;143.90787542062716;
REPSWITCH1/PICTURE_646.png;tronco;type;gold;filler;1;F;3;2;3;2;Extra4;0;None;71;70;71;0;70;70;70;;;;;;;;;;;;;;;;;;;;;;;340.2667526002042;341.39183670002967;341.39183670002967;341.39183670002967;341.39183670002967;341.39183670002967;341.39183670002967;341.39183670002967;341.39183670002967;['t', 'r', 'o', 'n', 'm', 'c', 'o'];0;[1.2621705001220107, 1.4485368002206087, 1.6159713002853096, 1.861243600025773, 1.8621817003004253, 2.0934310001321137, 2.2670657001435757];tronmco;C:\2023\REPSWITCH21092023\REPSWITCH_excgange\REPSWITCH_excgange\data/380203_REPSWITCH1_version2_list3_2023-12-13_11h01.11.464_micRespv2l3_recorded\recording_micRespv2l3_2023-12-13_11h06.48.765.wav;344.4130593002774;344.9131125002168;None;344.4130593002774;344.4130593002774;344.4130593002774;344.4130593002774;344.4130593002774;344.4130593002774;;;;;;380203;001;2023-12-13_11h01.11.464;REPSWITCH1_version2_list3;2022.2.4;143.90787542062716;
REPSWITCH1/PICTURE_35.png;oreja;type;gold;nontarget;1;NT;3;2;3;2;Stim5_Set3;1;repeat;72;71;72;0;71;71;71;;;;;;;;;;;;;;;;;;;;;;;344.9131125002168;346.0383203001693;346.0383203001693;346.0383203001693;346.0383203001693;346.0383203001693;346.0383203001693;346.0383203001693;346.0383203001693;['o', 'r', 'e', 'j', 'a'];0;[0.917155500035733, 1.1382908998057246, 1.322263399604708, 1.446450499817729, 1.6022381000220776];oreja;C:\2023\REPSWITCH21092023\REPSWITCH_excgange\REPSWITCH_excgange\data/380203_REPSWITCH1_version2_list3_2023-12-13_11h01.11.464_micRespv2l3_recorded\recording_micRespv2l3_2023-12-13_11h06.53.412.wav;349.0665296004154;;None;349.0665296004154;349.0665296004154;349.0665296004154;349.0665296004154;349.0665296004154;349.0665296004154;;;;;;380203;001;2023-12-13_11h01.11.464;REPSWITCH1_version2_list3;2022.2.4;143.90787542062716;
REPSWITCH1/PICTURE_35.png;oreja;type;gold;repeat;1;T;3;2;3;2;Stim5_Set3;0;None;73;72;73;0;72;72;72;;;;;;;;;;;;;;;;;;;;;;;349.5665355003439;350.62918020039797;350.62918020039797;350.62918020039797;350.62918020039797;350.62918020039797;350.62918020039797;350.62918020039797;350.62918020039797;['o', 'r', 'e', 'j', 'a'];0;[0.7908888999372721, 0.980570400133729, 1.1738779000006616, 1.2725879000499845, 1.4140858999453485];oreja;C:\2023\REPSWITCH21092023\REPSWITCH_excgange\REPSWITCH_excgange\data/380203_REPSWITCH1_version2_list3_2023-12-13_11h01.11.464_micRespv2l3_recorded\recording_micRespv2l3_2023-12-13_11h06.58.003.wav;353.6573560000397;;None;353.6573560000397;353.6573560000397;353.6573560000397;353.6573560000397;353.6573560000397;353.6573560000397;;;;;;380203;001;2023-12-13_11h01.11.464;REPSWITCH1_version2_list3;2022.2.4;143.90787542062716;
REPSWITCH1/PICTURE_199.png;falda;speak;darkblue;filler;2;F;3;2;3;2;Stim8_Set2;0;None;74;73;74;0;73;73;73;;;;;;;;;;;;;;;;;;;;;;;354.1574004003778;355.2964729000814;355.2964729000814;355.2964729000814;355.2964729000814;355.2964729000814;355.2964729000814;355.2964729000814;355.2964729000814;None;0;;;C:\2023\REPSWITCH21092023\REPSWITCH_excgange\REPSWITCH_excgange\data/380203_REPSWITCH1_version2_list3_2023-12-13_11h01.11.464_micRespv2l3_recorded\recording_micRespv2l3_2023-12-13_11h07.02.671.wav;358.32463090028614;;None;358.32463090028614;358.32463090028614;358.32463090028614;358.32463090028614;358.32463090028614;358.32463090028614;;;;;;380203;001;2023-12-13_11h01.11.464;REPSWITCH1_version2_list3;2022.2.4;143.90787542062716;
REPSWITCH1/PICTURE_610.png;miel;type;gold;nontarget;1;NT;3;2;3;2;Stim2_Set3;1;switch;75;74;75;0;74;74;74;;;;;;;;;;;;;;;;;;;;;;;358.8247645003721;359.9360289000906;359.9360289000906;359.9360289000906;359.9360289000906;359.9360289000906;359.9360289000906;359.9360289000906;359.9360289000906;['m', 'i', 'e', 'l'];0;[0.9249034002423286, 1.1845035003498197, 1.3379545002244413, 1.4516083002090454];miel;C:\2023\REPSWITCH21092023\REPSWITCH_excgange\REPSWITCH_excgange\data/380203_REPSWITCH1_version2_list3_2023-12-13_11h01.11.464_micRespv2l3_recorded\recording_micRespv2l3_2023-12-13_11h07.07.310.wav;362.9641039003618;;None;362.9641039003618;362.9641039003618;362.9641039003618;362.9641039003618;362.9641039003618;362.9641039003618;;;;;;380203;001;2023-12-13_11h01.11.464;REPSWITCH1_version2_list3;2022.2.4;143.90787542062716;
REPSWITCH1/PICTURE_610.png;miel;type;gold;repeat;1;T;3;2;3;2;Stim2_Set3;0;None;76;75;76;0;75;75;75;;;;;;;;;;;;;;;;;;;;;;;363.4641699003987;364.61016850033775;364.61016850033775;364.61016850033775;364.61016850033775;364.61016850033775;364.61016850033775;364.61016850033775;364.61016850033775;['m', 'i', 'e', 'l'];0;[0.6869867001660168, 0.949203500058502, 1.0860693003050983, 1.1872539999894798];miel;C:\2023\REPSWITCH21092023\REPSWITCH_excgange\REPSWITCH_excgange\data/380203_REPSWITCH1_version2_list3_2023-12-13_11h01.11.464_micRespv2l3_recorded\recording_micRespv2l3_2023-12-13_11h07.11.983.wav;367.631372500211;368.13147740019485;None;367.631372500211;367.631372500211;367.631372500211;367.631372500211;367.631372500211;367.631372500211;;;;;;380203;001;2023-12-13_11h01.11.464;REPSWITCH1_version2_list3;2022.2.4;143.90787542062716;
REPSWITCH1/PICTURE_264.png;mano;type;gold;filler;1;F;3;2;3;2;Stim3_Set2;1;repeat;77;76;77;0;76;76;76;;;;;;;;;;;;;;;;;;;;;;;368.13147740019485;369.21497349999845;369.21497349999845;369.21497349999845;369.21497349999845;369.21497349999845;369.21497349999845;369.21497349999845;369.21497349999845;['m', 'a', 'n', 'o'];0;[0.7144188000820577, 0.840955900028348, 0.9540013996884227, 1.2393114999867976];mano;C:\2023\REPSWITCH21092023\REPSWITCH_excgange\REPSWITCH_excgange\data/380203_REPSWITCH1_version2_list3_2023-12-13_11h01.11.464_micRespv2l3_recorded\recording_micRespv2l3_2023-12-13_11h07.16.589.wav;372.2361408001743;372.73623020015657;None;372.2361408001743;372.2361408001743;372.2361408001743;372.2361408001743;372.2361408001743;372.2361408001743;;;;;;380203;001;2023-12-13_11h01.11.464;REPSWITCH1_version2_list3;2022.2.4;143.90787542062716;
REPSWITCH1/PICTURE_464.png;goma;speak;darkblue;filler;2;F;4;2;3;2;Stim6_Set3;0;None;78;77;78;0;77;77;77;;;;;;;;;;;;;;;;;;;;;;;372.73623020015657;373.84751590015367;373.84751590015367;373.84751590015367;373.84751590015367;373.84751590015367;373.84751590015367;373.84751590015367;373.84751590015367;None;0;;;C:\2023\REPSWITCH21092023\REPSWITCH_excgange\REPSWITCH_excgange\data/380203_REPSWITCH1_version2_list3_2023-12-13_11h01.11.464_micRespv2l3_recorded\recording_micRespv2l3_2023-12-13_11h07.21.221.wav;376.868705900386;377.368778700009;None;376.868705900386;376.868705900386;376.868705900386;376.868705900386;376.868705900386;376.868705900386;;;;;;380203;001;2023-12-13_11h01.11.464;REPSWITCH1_version2_list3;2022.2.4;143.90787542062716;
REPSWITCH1/PICTURE_8.png;pierna;type;gold;nontarget;1;NT;4;2;3;2;Stim3_Set4;1;switch;79;78;79;0;78;78;78;;;;;;;;;;;;;;;;;;;;;;;377.368778700009;378.4939447999932;378.4939447999932;378.4939447999932;378.4939447999932;378.4939447999932;378.4939447999932;378.4939447999932;378.4939447999932;['p', 'i', 'e', 'r', 'n', 'a'];0;[0.8818584997206926, 1.2296505998820066, 1.4369836999103427, 1.628364000003785, 1.7818495999090374, 2.0244426000863314];pierna;C:\2023\REPSWITCH21092023\REPSWITCH_excgange\REPSWITCH_excgange\data/380203_REPSWITCH1_version2_list3_2023-12-13_11h01.11.464_micRespv2l3_recorded\recording_micRespv2l3_2023-12-13_11h07.25.867.wav;381.51515170000494;382.0153053002432;None;381.51515170000494;381.51515170000494;381.51515170000494;381.51515170000494;381.51515170000494;381.51515170000494;;;;;;380203;001;2023-12-13_11h01.11.464;REPSWITCH1_version2_list3;2022.2.4;143.90787542062716;
REPSWITCH1/PICTURE_8.png;pierna;type;gold;repeat;1;T;4;2;3;2;Stim3_Set4;0;None;80;79;80;0;79;79;79;;;;;;;;;;;;;;;;;;;;;;;382.0153053002432;383.09869630029425;383.09869630029425;383.09869630029425;383.09869630029425;383.09869630029425;383.09869630029425;383.09869630029425;383.09869630029425;['p', 'u', 'e', 'r', 'n', 'a'];0;[0.7862089001573622, 1.0760035002604127, 1.2400512001477182, 1.4134355001151562, 1.5771182999014854, 1.7648272002115846];puerna;C:\2023\REPSWITCH21092023\REPSWITCH_excgange\REPSWITCH_excgange\data/380203_REPSWITCH1_version2_list3_2023-12-13_11h01.11.464_micRespv2l3_recorded\recording_micRespv2l3_2023-12-13_11h07.30.472.wav;386.1199389002286;386.61998170008883;None;386.1199389002286;386.1199389002286;386.1199389002286;386.1199389002286;386.1199389002286;386.1199389002286;;;;;;380203;001;2023-12-13_11h01.11.464;REPSWITCH1_version2_list3;2022.2.4;143.90787542062716;
REPSWITCH1/PICTURE_728.png;pulpo;type;gold;nontarget;1;NT;4;2;3;2;Stim8_Set4;1;repeat;81;80;81;0;80;80;80;;;;;;;;;;;;;;;;;;;;;;;386.61998170008883;387.7313203001395;387.7313203001395;387.7313203001395;387.7313203001395;387.7313203001395;387.7313203001395;387.7313203001395;387.7313203001395;['p', 'u', 'p', 'o'];0;[1.1501037999987602, 1.4631763002835214, 2.0759642999619246, 2.2782771000638604];pupo;C:\2023\REPSWITCH21092023\REPSWITCH_excgange\REPSWITCH_excgange\data/380203_REPSWITCH1_version2_list3_2023-12-13_11h01.11.464_micRespv2l3_recorded\recording_micRespv2l3_2023-12-13_11h07.35.105.wav;390.7594473999925;;None;390.7594473999925;390.7594473999925;390.7594473999925;390.7594473999925;390.7594473999925;390.7594473999925;;;;;;380203;001;2023-12-13_11h01.11.464;REPSWITCH1_version2_list3;2022.2.4;143.90787542062716;
REPSWITCH1/PICTURE_728.png;pulpo;speak;darkblue;switch;2;T;4;2;3;2;Stim8_Set4;0;None;82;81;82;0;81;81;81;;;;;;;;;;;;;;;;;;;;;;;391.2594916000962;392.4402118003927;392.4402118003927;392.4402118003927;392.4402118003927;392.4402118003927;392.4402118003927;392.4402118003927;392.4402118003927;None;0;;;C:\2023\REPSWITCH21092023\REPSWITCH_excgange\REPSWITCH_excgange\data/380203_REPSWITCH1_version2_list3_2023-12-13_11h01.11.464_micRespv2l3_recorded\recording_micRespv2l3_2023-12-13_11h07.39.815.wav;395.4683801000938;;None;395.4683801000938;395.4683801000938;395.4683801000938;395.4683801000938;395.4683801000938;395.4683801000938;;;;;;380203;001;2023-12-13_11h01.11.464;REPSWITCH1_version2_list3;2022.2.4;143.90787542062716;
REPSWITCH1/PICTURE_235.png;aguja;type;gold;filler;1;F;4;2;3;2;Stim4_Set3;0;None;83;82;83;0;82;82;82;;;;;;;;;;;;;;;;;;;;;;;395.96845360007137;397.00329380016774;397.00329380016774;397.00329380016774;397.00329380016774;397.00329380016774;397.00329380016774;397.00329380016774;397.00329380016774;['a', 'g', 'u', 'j', 'a'];0;[0.7548853000625968, 1.1136998999863863, 1.2741676000878215, 1.479435000102967, 1.6798875001259148];aguja;C:\2023\REPSWITCH21092023\REPSWITCH_excgange\REPSWITCH_excgange\data/380203_REPSWITCH1_version2_list3_2023-12-13_11h01.11.464_micRespv2l3_recorded\recording_micRespv2l3_2023-12-13_11h07.44.377.wav;400.0246184002608;400.52461540000513;None;400.0246184002608;400.0246184002608;400.0246184002608;400.0246184002608;400.0246184002608;400.0246184002608;;;;;;380203;001;2023-12-13_11h01.11.464;REPSWITCH1_version2_list3;2022.2.4;143.90787542062716;
REPSWITCH1/PICTURE_498.png;taza;speak;darkblue;nontarget;2;NT;4;2;3;2;Stim4_Set4;1;switch;84;83;84;0;83;83;83;;;;;;;;;;;;;;;;;;;;;;;400.52461540000513;401.5733576002531;401.5733576002531;401.5733576002531;401.5733576002531;401.5733576002531;401.5733576002531;401.5733576002531;401.5733576002531;None;0;;;C:\2023\REPSWITCH21092023\REPSWITCH_excgange\REPSWITCH_excgange\data/380203_REPSWITCH1_version2_list3_2023-12-13_11h01.11.464_micRespv2l3_recorded\recording_micRespv2l3_2023-12-13_11h07.48.947.wav;404.59465210000053;405.09465160034597;None;404.59465210000053;404.59465210000053;404.59465210000053;404.59465210000053;404.59465210000053;404.59465210000053;;;;;;380203;001;2023-12-13_11h01.11.464;REPSWITCH1_version2_list3;2022.2.4;143.90787542062716;
REPSWITCH1/PICTURE_498.png;taza;speak;darkblue;repeat;2;T;4;2;3;2;Stim4_Set4;0;None;85;84;85;0;84;84;84;;;;;;;;;;;;;;;;;;;;;;;405.09465160034597;406.14338790019974;406.14338790019974;406.14338790019974;406.14338790019974;406.14338790019974;406.14338790019974;406.14338790019974;406.14338790019974;None;0;;;C:\2023\REPSWITCH21092023\REPSWITCH_excgange\REPSWITCH_excgange\data/380203_REPSWITCH1_version2_list3_2023-12-13_11h01.11.464_micRespv2l3_recorded\recording_micRespv2l3_2023-12-13_11h07.53.516.wav;409.16463240003213;409.66470200009644;None;409.16463240003213;409.16463240003213;409.16463240003213;409.16463240003213;409.16463240003213;409.16463240003213;;;;;;380203;001;2023-12-13_11h01.11.464;REPSWITCH1_version2_list3;2022.2.4;143.90787542062716;
REPSWITCH1/PICTURE_719.png;baño;speak;darkblue;nontarget;2;NT;4;2;3;2;Stim2_Set4;0;None;86;85;86;0;85;85;85;;;;;;;;;;;;;;;;;;;;;;;409.66470200009644;410.73433950031176;410.73433950031176;410.73433950031176;410.73433950031176;410.73433950031176;410.73433950031176;410.73433950031176;410.73433950031176;None;0;;;C:\2023\REPSWITCH21092023\REPSWITCH_excgange\REPSWITCH_excgange\data/380203_REPSWITCH1_version2_list3_2023-12-13_11h01.11.464_micRespv2l3_recorded\recording_micRespv2l3_2023-12-13_11h07.58.109.wav;413.7555621000938;414.2555755004287;None;413.7555621000938;413.7555621000938;413.7555621000938;413.7555621000938;413.7555621000938;413.7555621000938;;;;;;380203;001;2023-12-13_11h01.11.464;REPSWITCH1_version2_list3;2022.2.4;143.90787542062716;
REPSWITCH1/PICTURE_719.png;baño;type;gold;switch;1;T;4;2;3;2;Stim2_Set4;0;None;87;86;87;0;86;86;86;;;;;;;;;;;;;;;;;;;;;;;414.2555755004287;415.3946915999986;415.3946915999986;415.3946915999986;415.3946915999986;415.3946915999986;415.3946915999986;415.3946915999986;415.3946915999986;['b', 'a', 'ñ', 'o'];0;[0.6828573001548648, 0.8666404997929931, 1.108782900031656, 1.377377400174737];baño;C:\2023\REPSWITCH21092023\REPSWITCH_excgange\REPSWITCH_excgange\data/380203_REPSWITCH1_version2_list3_2023-12-13_11h01.11.464_micRespv2l3_recorded\recording_micRespv2l3_2023-12-13_11h08.02.769.wav;418.42278650030494;;None;418.42278650030494;418.42278650030494;418.42278650030494;418.42278650030494;418.42278650030494;418.42278650030494;;;;;;380203;001;2023-12-13_11h01.11.464;REPSWITCH1_version2_list3;2022.2.4;143.90787542062716;
REPSWITCH1/PICTURE_320.png;iglesia;speak;darkblue;filler;2;F;4;2;3;2;Stim8_Set3;0;None;88;87;88;0;87;87;87;;;;;;;;;;;;;;;;;;;;;;;418.92285450035706;419.99242800008506;419.99242800008506;419.99242800008506;419.99242800008506;419.99242800008506;419.99242800008506;419.99242800008506;419.99242800008506;None;0;;;C:\2023\REPSWITCH21092023\REPSWITCH_excgange\REPSWITCH_excgange\data/380203_REPSWITCH1_version2_list3_2023-12-13_11h01.11.464_micRespv2l3_recorded\recording_micRespv2l3_2023-12-13_11h08.07.367.wav;423.020600900054;;None;423.020600900054;423.020600900054;423.020600900054;423.020600900054;423.020600900054;423.020600900054;;;;;;380203;001;2023-12-13_11h01.11.464;REPSWITCH1_version2_list3;2022.2.4;143.90787542062716;
REPSWITCH1/PICTURE_48.png;bombero;type;gold;nontarget;1;NT;4;2;3;2;Stim7_Set4;1;switch;89;88;89;0;88;88;88;;;;;;;;;;;;;;;;;;;;;;;423.5206793001853;424.6528504001908;424.6528504001908;424.6528504001908;424.6528504001908;424.6528504001908;424.6528504001908;424.6528504001908;424.6528504001908;['b', 'o', 'm', 'b'];0;[1.7009161999449134, 1.8209883999079466, 2.089400500059128, 2.433215900324285];bomb;C:\2023\REPSWITCH21092023\REPSWITCH_excgange\REPSWITCH_excgange\data/380203_REPSWITCH1_version2_list3_2023-12-13_11h01.11.464_micRespv2l3_recorded\recording_micRespv2l3_2023-12-13_11h08.12.026.wav;427.67398560000584;428.174032300245;None;427.67398560000584;427.67398560000584;427.67398560000584;427.67398560000584;427.67398560000584;427.67398560000584;;;;;;380203;001;2023-12-13_11h01.11.464;REPSWITCH1_version2_list3;2022.2.4;143.90787542062716;
REPSWITCH1/PICTURE_48.png;bombero;speak;darkblue;switch;2;T;4;2;3;2;Stim7_Set4;0;None;90;89;90;0;89;89;89;;;;;;;;;;;;;;;;;;;;;;;428.174032300245;429.2645143000409;429.2645143000409;429.2645143000409;429.2645143000409;429.2645143000409;429.2645143000409;429.2645143000409;429.2645143000409;None;0;;;C:\2023\REPSWITCH21092023\REPSWITCH_excgange\REPSWITCH_excgange\data/380203_REPSWITCH1_version2_list3_2023-12-13_11h01.11.464_micRespv2l3_recorded\recording_micRespv2l3_2023-12-13_11h08.16.638.wav;432.2856831001118;432.78578650020063;None;432.2856831001118;432.2856831001118;432.2856831001118;432.2856831001118;432.2856831001118;432.2856831001118;;;;;;380203;001;2023-12-13_11h01.11.464;REPSWITCH1_version2_list3;2022.2.4;143.90787542062716;
REPSWITCH1/PICTURE_576.png;guante;type;gold;filler;1;F;4;2;3;2;Stim1_Set3;0;None;91;90;91;0;90;90;90;;;;;;;;;;;;;;;;;;;;;;;432.78578650020063;433.88313920004293;433.88313920004293;433.88313920004293;433.88313920004293;433.88313920004293;433.88313920004293;433.88313920004293;433.88313920004293;['g', 'u', 'a', 'n', 't', 'e'];0;[0.8353837002068758, 0.9698777999728918, 1.1296848002821207, 1.2094161002896726, 1.4437412000261247, 1.590146700385958];guante;C:\2023\REPSWITCH21092023\REPSWITCH_excgange\REPSWITCH_excgange\data/380203_REPSWITCH1_version2_list3_2023-12-13_11h01.11.464_micRespv2l3_recorded\recording_micRespv2l3_2023-12-13_11h08.21.256.wav;436.90436950000003;437.40444690035656;None;436.90436950000003;436.90436950000003;436.90436950000003;436.90436950000003;436.90436950000003;436.90436950000003;;;;;;380203;001;2023-12-13_11h01.11.464;REPSWITCH1_version2_list3;2022.2.4;143.90787542062716;
REPSWITCH1/PICTURE_271.png;conejo;speak;darkblue;filler;2;F;4;2;3;2;Stim7_Set3;0;None;92;91;92;0;91;91;91;;;;;;;;;;;;;;;;;;;;;;;437.40444690035656;438.45325790019706;438.45325790019706;438.45325790019706;438.45325790019706;438.45325790019706;438.45325790019706;438.45325790019706;438.45325790019706;None;0;;;C:\2023\REPSWITCH21092023\REPSWITCH_excgange\REPSWITCH_excgange\data/380203_REPSWITCH1_version2_list3_2023-12-13_11h01.11.464_micRespv2l3_recorded\recording_micRespv2l3_2023-12-13_11h08.25.827.wav;441.4814450000413;;None;441.4814450000413;441.4814450000413;441.4814450000413;441.4814450000413;441.4814450000413;441.4814450000413;;;;;;380203;001;2023-12-13_11h01.11.464;REPSWITCH1_version2_list3;2022.2.4;143.90787542062716;
REPSWITCH1/PICTURE_319.png;vaca;speak;darkblue;nontarget;2;NT;4;2;3;2;Stim1_Set4;1;repeat;93;92;93;0;92;92;92;;;;;;;;;;;;;;;;;;;;;;;441.98142430000007;443.1274533001706;443.1274533001706;443.1274533001706;443.1274533001706;443.1274533001706;443.1274533001706;443.1274533001706;443.1274533001706;None;0;;;C:\2023\REPSWITCH21092023\REPSWITCH_excgange\REPSWITCH_excgange\data/380203_REPSWITCH1_version2_list3_2023-12-13_11h01.11.464_micRespv2l3_recorded\recording_micRespv2l3_2023-12-13_11h08.30.500.wav;446.14872700022534;446.6487608002499;None;446.14872700022534;446.14872700022534;446.14872700022534;446.14872700022534;446.14872700022534;446.14872700022534;;;;;;380203;001;2023-12-13_11h01.11.464;REPSWITCH1_version2_list3;2022.2.4;143.90787542062716;
REPSWITCH1/PICTURE_319.png;vaca;speak;darkblue;repeat;2;T;4;2;3;2;Stim1_Set4;0;None;94;93;94;0;93;93;93;;;;;;;;;;;;;;;;;;;;;;;446.6487608002499;447.70439740037546;447.70439740037546;447.70439740037546;447.70439740037546;447.70439740037546;447.70439740037546;447.70439740037546;447.70439740037546;None;0;;;C:\2023\REPSWITCH21092023\REPSWITCH_excgange\REPSWITCH_excgange\data/380203_REPSWITCH1_version2_list3_2023-12-13_11h01.11.464_micRespv2l3_recorded\recording_micRespv2l3_2023-12-13_11h08.35.077.wav;450.72563430015;451.22570489998907;None;450.72563430015;450.72563430015;450.72563430015;450.72563430015;450.72563430015;450.72563430015;;;;;;380203;001;2023-12-13_11h01.11.464;REPSWITCH1_version2_list3;2022.2.4;143.90787542062716;
REPSWITCH1/PICTURE_242.png;cartero;type;gold;filler;1;F;4;2;3;2;Stim3_Set3;0;None;95;94;95;0;94;94;94;;;;;;;;;;;;;;;;;;;;;;;451.22570489998907;452.29529130039737;452.29529130039737;452.29529130039737;452.29529130039737;452.29529130039737;452.29529130039737;452.29529130039737;452.29529130039737;['c', 'a', 'r', 't', 'y', 'e', 'r', 'o'];0;[1.2136821998283267, 1.3730798996984959, 1.515662099700421, 1.711315399967134, 1.7302399999462068, 1.856816599611193, 2.0385395996272564, 2.1983133000321686];cartyero;C:\2023\REPSWITCH21092023\REPSWITCH_excgange\REPSWITCH_excgange\data/380203_REPSWITCH1_version2_list3_2023-12-13_11h01.11.464_micRespv2l3_recorded\recording_micRespv2l3_2023-12-13_11h08.39.668.wav;455.31652320036665;455.8165947999805;None;455.31652320036665;455.31652320036665;455.31652320036665;455.31652320036665;455.31652320036665;455.31652320036665;;;;;;380203;001;2023-12-13_11h01.11.464;REPSWITCH1_version2_list3;2022.2.4;143.90787542062716;
REPSWITCH1/PICTURE_35.png;oreja;speak;darkblue;filler;2;F;4;2;3;2;Stim5_Set3;1;switch;96;95;96;0;95;95;95;;;;;;;;;;;;;;;;;;;;;;;455.8165947999805;456.8861887003295;456.8861887003295;456.8861887003295;456.8861887003295;456.8861887003295;456.8861887003295;456.8861887003295;456.8861887003295;None;0;;;C:\2023\REPSWITCH21092023\REPSWITCH_excgange\REPSWITCH_excgange\data/380203_REPSWITCH1_version2_list3_2023-12-13_11h01.11.464_micRespv2l3_recorded\recording_micRespv2l3_2023-12-13_11h08.44.259.wav;459.9143486004323;;None;459.9143486004323;459.9143486004323;459.9143486004323;459.9143486004323;459.9143486004323;459.9143486004323;;;;;;380203;001;2023-12-13_11h01.11.464;REPSWITCH1_version2_list3;2022.2.4;143.90787542062716;
REPSWITCH1/PICTURE_338.png;regalo;speak;darkblue;nontarget;2;NT;4;2;3;2;Stim6_Set4;1;repeat;97;96;97;0;96;96;96;;;;;;;;;;;;;;;;;;;;;;;460.41437040036544;461.50483079999685;461.50483079999685;461.50483079999685;461.50483079999685;461.50483079999685;461.50483079999685;461.50483079999685;461.50483079999685;None;0;;;C:\2023\REPSWITCH21092023\REPSWITCH_excgange\REPSWITCH_excgange\data/380203_REPSWITCH1_version2_list3_2023-12-13_11h01.11.464_micRespv2l3_recorded\recording_micRespv2l3_2023-12-13_11h08.48.879.wav;464.53304610028863;;None;464.53304610028863;464.53304610028863;464.53304610028863;464.53304610028863;464.53304610028863;464.53304610028863;;;;;;380203;001;2023-12-13_11h01.11.464;REPSWITCH1_version2_list3;2022.2.4;143.90787542062716;
REPSWITCH1/PICTURE_338.png;regalo;type;gold;switch;1;T;4;2;3;2;Stim6_Set4;0;None;98;97;98;0;97;97;97;;;;;;;;;;;;;;;;;;;;;;;465.03311350010335;466.0749292001128;466.0749292001128;466.0749292001128;466.0749292001128;466.0749292001128;466.0749292001128;466.0749292001128;466.0749292001128;['r', 'e', 'g', 'a', 'l', 'o'];0;[0.9630943001247942, 1.1594817000441253, 1.2561160000041127, 1.4175692000426352, 1.6249307002872229, 1.8073017001152039];regalo;C:\2023\REPSWITCH21092023\REPSWITCH_excgange\REPSWITCH_excgange\data/380203_REPSWITCH1_version2_list3_2023-12-13_11h01.11.464_micRespv2l3_recorded\recording_micRespv2l3_2023-12-13_11h08.53.449.wav;469.0960816000588;469.59613550035283;None;469.0960816000588;469.0960816000588;469.0960816000588;469.0960816000588;469.0960816000588;469.0960816000588;;;;;;380203;001;2023-12-13_11h01.11.464;REPSWITCH1_version2_list3;2022.2.4;143.90787542062716;
REPSWITCH1/PICTURE_687.png;camisa;type;gold;nontarget;1;NT;4;2;3;2;Stim5_Set4;0;None;99;98;99;0;98;98;98;;;;;;;;;;;;;;;;;;;;;;;469.59613550035283;470.7074134000577;470.7074134000577;470.7074134000577;470.7074134000577;470.7074134000577;470.7074134000577;470.7074134000577;470.7074134000577;['c', 'a', 'm', 'i', 's', 'a'];0;[0.8269331003539264, 0.9998699999414384, 1.2059709001332521, 1.4052723003551364, 1.4929944002069533, 1.6664168001152575];camisa;C:\2023\REPSWITCH21092023\REPSWITCH_excgange\REPSWITCH_excgange\data/380203_REPSWITCH1_version2_list3_2023-12-13_11h01.11.464_micRespv2l3_recorded\recording_micRespv2l3_2023-12-13_11h08.58.080.wav;473.7286490001716;474.2287229001522;None;473.7286490001716;473.7286490001716;473.7286490001716;473.7286490001716;473.7286490001716;473.7286490001716;;;;;;380203;001;2023-12-13_11h01.11.464;REPSWITCH1_version2_list3;2022.2.4;143.90787542062716;
REPSWITCH1/PICTURE_687.png;camisa;type;gold;repeat;1;T;4;2;3;2;Stim5_Set4;0;None;100;99;100;0;99;99;99;;;;;;;;;;;;;;;;;;;;;;;474.2287229001522;475.32615000009537;475.32615000009537;475.32615000009537;475.32615000009537;475.32615000009537;475.32615000009537;475.32615000009537;475.32615000009537;['c', 'a', 'm', 'i', 's', 'a'];0;[0.700046599842608, 0.8477425999008119, 1.1228831000626087, 1.3752950998023152, 1.4929386000148952, 1.6494722999632359];camisa;C:\2023\REPSWITCH21092023\REPSWITCH_excgange\REPSWITCH_excgange\data/380203_REPSWITCH1_version2_list3_2023-12-13_11h01.11.464_micRespv2l3_recorded\recording_micRespv2l3_2023-12-13_11h09.02.700.wav;478.34733280027285;478.84738550009206;None;478.34733280027285;478.34733280027285;478.34733280027285;478.34733280027285;478.34733280027285;478.34733280027285;;;;;;380203;001;2023-12-13_11h01.11.464;REPSWITCH1_version2_list3;2022.2.4;143.90787542062716;
REPSWITCH1/PICTURE_340.png;espejo;speak;darkblue;filler;2;F;4;2;3;2;Extra1;0;None;101;100;101;0;100;100;100;;;;;;;;;;;;;;;;;;;;;;;478.84738550009206;480.02815190004185;480.02815190004185;480.02815190004185;480.02815190004185;480.02815190004185;480.02815190004185;480.02815190004185;480.02815190004185;None;0;;;C:\2023\REPSWITCH21092023\REPSWITCH_excgange\REPSWITCH_excgange\data/380203_REPSWITCH1_version2_list3_2023-12-13_11h01.11.464_micRespv2l3_recorded\recording_micRespv2l3_2023-12-13_11h09.07.402.wav;483.05625430028886;;None;483.05625430028886;483.05625430028886;483.05625430028886;483.05625430028886;483.05625430028886;483.05625430028886;;;;;;380203;001;2023-12-13_11h01.11.464;REPSWITCH1_version2_list3;2022.2.4;143.90787542062716;
REPSWITCH1/PICTURE_610.png;miel;type;gold;filler;1;F;4;2;3;2;Stim2_Set3;0;None;102;101;102;0;101;101;101;;;;;;;;;;;;;;;;;;;;;;;483.55634020036086;484.73011580016464;484.73011580016464;484.73011580016464;484.73011580016464;484.73011580016464;484.73011580016464;484.73011580016464;484.73011580016464;['m', 'i', 'e', 'l'];0;[0.8129958999343216, 1.0661649000830948, 1.2147451997734606, 1.3423125999979675];miel;C:\2023\REPSWITCH21092023\REPSWITCH_excgange\REPSWITCH_excgange\data/380203_REPSWITCH1_version2_list3_2023-12-13_11h01.11.464_micRespv2l3_recorded\recording_micRespv2l3_2023-12-13_11h09.12.103.wav;487.75129560008645;488.25139410002157;space;487.75129560008645;487.75129560008645;487.75129560008645;487.75129560008645;487.75129560008645;487.75129560008645;488.25139410002157;488.25139410002157;3.5260569998063147;;;380203;001;2023-12-13_11h01.11.464;REPSWITCH1_version2_list3;2022.2.4;143.90787542062716;
REPSWITCH1/PICTURE_8.png;pierna;type;gold;filler;1;F;1;4;3;2;Stim3_Set4;0;None;103;102;1;0;102;102;102;;;;;;;;;;;;;;;;;;;;;;;491.78656620020047;492.84928660001606;492.84928660001606;492.84928660001606;492.84928660001606;492.84928660001606;492.84928660001606;492.84928660001606;492.84928660001606;['p', 'i', 'e', 'r', 'n', 'a'];0;[0.9335550996474922, 1.2198486998677254, 1.3521348000504076, 1.5345405000261962, 1.6321604000404477, 1.8116015000268817];pierna;C:\2023\REPSWITCH21092023\REPSWITCH_excgange\REPSWITCH_excgange\data/380203_REPSWITCH1_version2_list3_2023-12-13_11h01.11.464_micRespv2l3_recorded\recording_micRespv2l3_2023-12-13_11h09.20.224.wav;495.877390100155;;None;495.877390100155;495.877390100155;495.877390100155;495.877390100155;495.877390100155;495.877390100155;;;;;;380203;001;2023-12-13_11h01.11.464;REPSWITCH1_version2_list3;2022.2.4;143.90787542062716;
REPSWITCH1/PICTURE_498.png;taza;speak;darkblue;filler;2;F;1;4;3;2;Stim4_Set4;0;None;104;103;2;0;103;103;103;;;;;;;;;;;;;;;;;;;;;;;496.3774828002788;497.4192772000097;497.4192772000097;497.4192772000097;497.4192772000097;497.4192772000097;497.4192772000097;497.4192772000097;497.4192772000097;None;0;;;C:\2023\REPSWITCH21092023\REPSWITCH_excgange\REPSWITCH_excgange\data/380203_REPSWITCH1_version2_list3_2023-12-13_11h01.11.464_micRespv2l3_recorded\recording_micRespv2l3_2023-12-13_11h09.24.793.wav;500.44745180010796;;None;500.44745180010796;500.44745180010796;500.44745180010796;500.44745180010796;500.44745180010796;500.44745180010796;;;;;;380203;001;2023-12-13_11h01.11.464;REPSWITCH1_version2_list3;2022.2.4;143.90787542062716;
REPSWITCH1/PICTURE_19.png;pavo;speak;darkblue;nontarget;2;NT;1;4;3;2;Stim5_Set1;1;repeat;105;104;3;0;104;104;104;;;;;;;;;;;;;;;;;;;;;;;500.94747030036524;502.1768203000538;502.1768203000538;502.1768203000538;502.1768203000538;502.1768203000538;502.1768203000538;502.1768203000538;502.1768203000538;None;0;;;C:\2023\REPSWITCH21092023\REPSWITCH_excgange\REPSWITCH_excgange\data/380203_REPSWITCH1_version2_list3_2023-12-13_11h01.11.464_micRespv2l3_recorded\recording_micRespv2l3_2023-12-13_11h09.29.551.wav;505.19804100040346;505.69818280031905;None;505.19804100040346;505.19804100040346;505.19804100040346;505.19804100040346;505.19804100040346;505.19804100040346;;;;;;380203;001;2023-12-13_11h01.11.464;REPSWITCH1_version2_list3;2022.2.4;143.90787542062716;
REPSWITCH1/PICTURE_19.png;pavo;speak;darkblue;repeat;2;T;1;4;3;2;Stim5_Set1;0;None;106;105;4;0;105;105;105;;;;;;;;;;;;;;;;;;;;;;;505.69818280031905;506.74694199999794;506.74694199999794;506.74694199999794;506.74694199999794;506.74694199999794;506.74694199999794;506.74694199999794;506.74694199999794;None;0;;;C:\2023\REPSWITCH21092023\REPSWITCH_excgange\REPSWITCH_excgange\data/380203_REPSWITCH1_version2_list3_2023-12-13_11h01.11.464_micRespv2l3_recorded\recording_micRespv2l3_2023-12-13_11h09.34.121.wav;509.7680909000337;510.2681797002442;None;509.7680909000337;509.7680909000337;509.7680909000337;509.7680909000337;509.7680909000337;509.7680909000337;;;;;;380203;001;2023-12-13_11h01.11.464;REPSWITCH1_version2_list3;2022.2.4;143.90787542062716;
REPSWITCH1/PICTURE_319.png;vaca;type;gold;filler;1;F;1;4;3;2;Stim1_Set4;1;repeat;107;106;5;0;106;106;106;;;;;;;;;;;;;;;;;;;;;;;510.2681797002442;511.3655600002967;511.3655600002967;511.3655600002967;511.3655600002967;511.3655600002967;511.3655600002967;511.3655600002967;511.3655600002967;['v', 'a', 'c', 'a'];0;[0.8563292999751866, 1.0045591997914016, 1.0853653997182846, 1.2148505998775363];vaca;C:\2023\REPSWITCH21092023\REPSWITCH_excgange\REPSWITCH_excgange\data/380203_REPSWITCH1_version2_list3_2023-12-13_11h01.11.464_micRespv2l3_recorded\recording_micRespv2l3_2023-12-13_11h09.38.739.wav;514.3867730000056;514.8869105000049;None;514.3867730000056;514.3867730000056;514.3867730000056;514.3867730000056;514.3867730000056;514.3867730000056;;;;;;380203;001;2023-12-13_11h01.11.464;REPSWITCH1_version2_list3;2022.2.4;143.90787542062716;
REPSWITCH1/PICTURE_169.png;espalda;speak;darkblue;nontarget;2;NT;1;4;3;2;Stim8_Set1;1;switch;108;107;6;0;107;107;107;;;;;;;;;;;;;;;;;;;;;;;514.8869105000049;516.0883657000959;516.0883657000959;516.0883657000959;516.0883657000959;516.0883657000959;516.0883657000959;516.0883657000959;516.0883657000959;None;0;;;C:\2023\REPSWITCH21092023\REPSWITCH_excgange\REPSWITCH_excgange\data/380203_REPSWITCH1_version2_list3_2023-12-13_11h01.11.464_micRespv2l3_recorded\recording_micRespv2l3_2023-12-13_11h09.43.461.wav;519.1096173999831;519.6097496002913;None;519.1096173999831;519.1096173999831;519.1096173999831;519.1096173999831;519.1096173999831;519.1096173999831;;;;;;380203;001;2023-12-13_11h01.11.464;REPSWITCH1_version2_list3;2022.2.4;143.90787542062716;
REPSWITCH1/PICTURE_169.png;espalda;speak;darkblue;repeat;2;T;1;4;3;2;Stim8_Set1;0;None;109;108;7;0;108;108;108;;;;;;;;;;;;;;;;;;;;;;;519.6097496002913;520.6584250000305;520.6584250000305;520.6584250000305;520.6584250000305;520.6584250000305;520.6584250000305;520.6584250000305;520.6584250000305;None;0;;;C:\2023\REPSWITCH21092023\REPSWITCH_excgange\REPSWITCH_excgange\data/380203_REPSWITCH1_version2_list3_2023-12-13_11h01.11.464_micRespv2l3_recorded\recording_micRespv2l3_2023-12-13_11h09.48.031.wav;523.6796558001079;524.1796994004399;None;523.6796558001079;523.6796558001079;523.6796558001079;523.6796558001079;523.6796558001079;523.6796558001079;;;;;;380203;001;2023-12-13_11h01.11.464;REPSWITCH1_version2_list3;2022.2.4;143.90787542062716;
REPSWITCH1/PICTURE_728.png;pulpo;type;gold;filler;1;F;1;4;3;2;Stim8_Set4;0;None;110;109;8;0;109;109;109;;;;;;;;;;;;;;;;;;;;;;;524.1796994004399;525.3187468000688;525.3187468000688;525.3187468000688;525.3187468000688;525.3187468000688;525.3187468000688;525.3187468000688;525.3187468000688;['p', 'u', 'l', 'p', 'o'];0;[0.8478578003123403, 1.249504300300032, 1.8582468000240624, 2.076997000258416, 2.2404786003753543];pulpo;C:\2023\REPSWITCH21092023\REPSWITCH_excgange\REPSWITCH_excgange\data/380203_REPSWITCH1_version2_list3_2023-12-13_11h01.11.464_micRespv2l3_recorded\recording_micRespv2l3_2023-12-13_11h09.52.692.wav;528.3399714003317;528.8400173000991;None;528.3399714003317;528.3399714003317;528.3399714003317;528.3399714003317;528.3399714003317;528.3399714003317;;;;;;380203;001;2023-12-13_11h01.11.464;REPSWITCH1_version2_list3;2022.2.4;143.90787542062716;
REPSWITCH1/PICTURE_142.png;vaso;speak;darkblue;nontarget;2;NT;1;4;3;2;Stim7_Set1;1;switch;111;110;9;0;110;110;110;;;;;;;;;;;;;;;;;;;;;;;528.8400173000991;529.9721366004087;529.9721366004087;529.9721366004087;529.9721366004087;529.9721366004087;529.9721366004087;529.9721366004087;529.9721366004087;None;0;;;C:\2023\REPSWITCH21092023\REPSWITCH_excgange\REPSWITCH_excgange\data/380203_REPSWITCH1_version2_list3_2023-12-13_11h01.11.464_micRespv2l3_recorded\recording_micRespv2l3_2023-12-13_11h09.57.346.wav;533.00038100034;;None;533.00038100034;533.00038100034;533.00038100034;533.00038100034;533.00038100034;533.00038100034;;;;;;380203;001;2023-12-13_11h01.11.464;REPSWITCH1_version2_list3;2022.2.4;143.90787542062716;
REPSWITCH1/PICTURE_142.png;vaso;type;gold;switch;1;T;1;4;3;2;Stim7_Set1;0;None;112;111;10;0;111;111;111;;;;;;;;;;;;;;;;;;;;;;;533.5003874003887;534.5839328002185;534.5839328002185;534.5839328002185;534.5839328002185;534.5839328002185;534.5839328002185;534.5839328002185;534.5839328002185;['v', 'a', 's', 'o'];0;[0.8122444003820419, 0.9557575001381338, 1.1572949001565576, 1.2449589003808796];vaso;C:\2023\REPSWITCH21092023\REPSWITCH_excgange\REPSWITCH_excgange\data/380203_REPSWITCH1_version2_list3_2023-12-13_11h01.11.464_micRespv2l3_recorded\recording_micRespv2l3_2023-12-13_11h10.01.957.wav;537.6050721001811;538.1051620002836;None;537.6050721001811;537.6050721001811;537.6050721001811;537.6050721001811;537.6050721001811;537.6050721001811;;;;;;380203;001;2023-12-13_11h01.11.464;REPSWITCH1_version2_list3;2022.2.4;143.90787542062716;
REPSWITCH1/PICTURE_338.png;regalo;type;gold;filler;1;F;1;4;3;2;Stim6_Set4;1;repeat;113;112;11;0;112;112;112;;;;;;;;;;;;;;;;;;;;;;;538.1051620002836;539.2303217002191;539.2303217002191;539.2303217002191;539.2303217002191;539.2303217002191;539.2303217002191;539.2303217002191;539.2303217002191;['r', 'e', 'g', 'a', 'l', 'o'];0;[0.8694188999943435, 1.1128980000503361, 1.1999554000794888, 1.3902580002322793, 1.5257671000435948, 1.7042065998539329];regalo;C:\2023\REPSWITCH21092023\REPSWITCH_excgange\REPSWITCH_excgange\data/380203_REPSWITCH1_version2_list3_2023-12-13_11h01.11.464_micRespv2l3_recorded\recording_micRespv2l3_2023-12-13_11h10.06.605.wav;542.2584651000798;;None;542.2584651000798;542.2584651000798;542.2584651000798;542.2584651000798;542.2584651000798;542.2584651000798;;;;;;380203;001;2023-12-13_11h01.11.464;REPSWITCH1_version2_list3;2022.2.4;143.90787542062716;
REPSWITCH1/PICTURE_135.png;traje;type;gold;nontarget;1;NT;1;4;3;2;Stim3_Set1;1;repeat;114;113;12;0;113;113;113;;;;;;;;;;;;;;;;;;;;;;;542.7585114003159;543.9253492001444;543.9253492001444;543.9253492001444;543.9253492001444;543.9253492001444;543.9253492001444;543.9253492001444;543.9253492001444;['t', 'r', 'a', 'j', 'e'];0;[0.7748270002193749, 0.9465891001746058, 1.0552072999998927, 1.301304000429809, 1.4418322001583874];traje;C:\2023\REPSWITCH21092023\REPSWITCH_excgange\REPSWITCH_excgange\data/380203_REPSWITCH1_version2_list3_2023-12-13_11h01.11.464_micRespv2l3_recorded\recording_micRespv2l3_2023-12-13_11h10.11.299.wav;546.9465948003344;547.4466554000974;None;546.9465948003344;546.9465948003344;546.9465948003344;546.9465948003344;546.9465948003344;546.9465948003344;;;;;;380203;001;2023-12-13_11h01.11.464;REPSWITCH1_version2_list3;2022.2.4;143.90787542062716;
REPSWITCH1/PICTURE_135.png;traje;speak;darkblue;switch;2;T;1;4;3;2;Stim3_Set1;0;None;115;114;13;0;114;114;114;;;;;;;;;;;;;;;;;;;;;;;547.4466554000974;548.5093575003557;548.5093575003557;548.5093575003557;548.5093575003557;548.5093575003557;548.5093575003557;548.5093575003557;548.5093575003557;None;0;;;C:\2023\REPSWITCH21092023\REPSWITCH_excgange\REPSWITCH_excgange\data/380203_REPSWITCH1_version2_list3_2023-12-13_11h01.11.464_micRespv2l3_recorded\recording_micRespv2l3_2023-12-13_11h10.15.884.wav;551.5375395002775;;None;551.5375395002775;551.5375395002775;551.5375395002775;551.5375395002775;551.5375395002775;551.5375395002775;;;;;;380203;001;2023-12-13_11h01.11.464;REPSWITCH1_version2_list3;2022.2.4;143.90787542062716;
REPSWITCH1/PICTURE_381.png;fresa;speak;darkblue;nontarget;2;NT;1;4;3;2;Stim2_Set1;1;repeat;116;115;14;0;115;115;115;;;;;;;;;;;;;;;;;;;;;;;552.0375445000827;553.086293600034;553.086293600034;553.086293600034;553.086293600034;553.086293600034;553.086293600034;553.086293600034;553.086293600034;None;0;;;C:\2023\REPSWITCH21092023\REPSWITCH_excgange\REPSWITCH_excgange\data/380203_REPSWITCH1_version2_list3_2023-12-13_11h01.11.464_micRespv2l3_recorded\recording_micRespv2l3_2023-12-13_11h10.20.459.wav;556.1075218003243;556.6076565003023;None;556.1075218003243;556.1075218003243;556.1075218003243;556.1075218003243;556.1075218003243;556.1075218003243;;;;;;380203;001;2023-12-13_11h01.11.464;REPSWITCH1_version2_list3;2022.2.4;143.90787542062716;
REPSWITCH1/PICTURE_381.png;fresa;type;gold;switch;1;T;1;4;3;2;Stim2_Set1;0;None;117;116;15;0;116;116;116;;;;;;;;;;;;;;;;;;;;;;;556.6076565003023;557.7536418000236;557.7536418000236;557.7536418000236;557.7536418000236;557.7536418000236;557.7536418000236;557.7536418000236;557.7536418000236;['f', 'r', 'e', 's', 'a'];0;[0.8995202998630702, 1.105794900096953, 1.3071468998678029, 1.540372199844569, 1.7258264999836683];fresa;C:\2023\REPSWITCH21092023\REPSWITCH_excgange\REPSWITCH_excgange\data/380203_REPSWITCH1_version2_list3_2023-12-13_11h01.11.464_micRespv2l3_recorded\recording_micRespv2l3_2023-12-13_11h10.25.127.wav;560.781806900166;;None;560.781806900166;560.781806900166;560.781806900166;560.781806900166;560.781806900166;560.781806900166;;;;;;380203;001;2023-12-13_11h01.11.464;REPSWITCH1_version2_list3;2022.2.4;143.90787542062716;
REPSWITCH1/PICTURE_48.png;bombero;type;gold;filler;1;F;1;4;3;2;Stim7_Set4;0;None;118;117;16;0;117;117;117;;;;;;;;;;;;;;;;;;;;;;;561.2818199000321;562.4486169000156;562.4486169000156;562.4486169000156;562.4486169000156;562.4486169000156;562.4486169000156;562.4486169000156;562.4486169000156;['b', 'o', 'm', 'b', 'n', 'e', 'r', 'o'];0;[1.328272399958223, 1.507656500209123, 1.7109781000763178, 1.975234200246632, 1.9792146002873778, 2.1167946001514792, 2.319365100003779, 2.427665800321847];bomnero;C:\2023\REPSWITCH21092023\REPSWITCH_excgange\REPSWITCH_excgange\data/380203_REPSWITCH1_version2_list3_2023-12-13_11h01.11.464_micRespv2l3_recorded\recording_micRespv2l3_2023-12-13_11h10.29.823.wav;565.4767951001413;;None;565.4767951001413;565.4767951001413;565.4767951001413;565.4767951001413;565.4767951001413;565.4767951001413;;;;;;380203;001;2023-12-13_11h01.11.464;REPSWITCH1_version2_list3;2022.2.4;143.90787542062716;
REPSWITCH1/PICTURE_687.png;camisa;speak;darkblue;filler;2;F;1;4;3;2;Stim5_Set4;0;None;119;118;17;0;118;118;118;;;;;;;;;;;;;;;;;;;;;;;565.9769288003445;567.1228567999788;567.1228567999788;567.1228567999788;567.1228567999788;567.1228567999788;567.1228567999788;567.1228567999788;567.1228567999788;None;0;;;C:\2023\REPSWITCH21092023\REPSWITCH_excgange\REPSWITCH_excgange\data/380203_REPSWITCH1_version2_list3_2023-12-13_11h01.11.464_micRespv2l3_recorded\recording_micRespv2l3_2023-12-13_11h10.34.497.wav;570.1440506000072;570.6441503004171;None;570.1440506000072;570.1440506000072;570.1440506000072;570.1440506000072;570.1440506000072;570.1440506000072;;;;;;380203;001;2023-12-13_11h01.11.464;REPSWITCH1_version2_list3;2022.2.4;143.90787542062716;
REPSWITCH1/PICTURE_128.png;muñeca;type;gold;nontarget;1;NT;1;4;3;2;Stim4_Set1;0;None;120;119;18;0;119;119;119;;;;;;;;;;;;;;;;;;;;;;;570.6441503004171;571.7484589000233;571.7484589000233;571.7484589000233;571.7484589000233;571.7484589000233;571.7484589000233;571.7484589000233;571.7484589000233;['m', 'u', 'ñ', 'e', 'c', 'a'];0;[0.9016650998964906, 1.2049424997530878, 1.5966551001183689, 1.7494904999621212, 1.9669798999093473, 2.086598999798298];muñeca;C:\2023\REPSWITCH21092023\REPSWITCH_excgange\REPSWITCH_excgange\data/380203_REPSWITCH1_version2_list3_2023-12-13_11h01.11.464_micRespv2l3_recorded\recording_micRespv2l3_2023-12-13_11h10.39.122.wav;574.7696977001615;575.2697608000599;None;574.7696977001615;574.7696977001615;574.7696977001615;574.7696977001615;574.7696977001615;574.7696977001615;;;;;;380203;001;2023-12-13_11h01.11.464;REPSWITCH1_version2_list3;2022.2.4;143.90787542062716;
