image;correctAns;respModal;frameColor;repSwitch;sequence;target;set;block;list;exp_version;stimulus;baseline;baseline_condition;trial_no;psychopy_trial;Column1;trialsREPSWITCH.thisRepN;trialsREPSWITCH.thisTrialN;trialsREPSWITCH.thisN;trialsREPSWITCH.thisIndex;textWelcome.started;textboxInstrMain1.started;textboxInstrMain1_2.started;textboxInstrMain1_3.started;keyInstrMain.started;keyInstrMain.keys;keyInstrMain.rt;textboxInstrMain2.started;textboxInstrMain2_2.started;textboxInstrMain2_3.started;textboxInstrMain2_4.started;textboxInstrMain2_5.started;textboxInstrMain2_6.started;textboxInstrMain2_7.started;textboxInstrMain2_8.started;textboxInstrMain2_9.started;textboxInstrMain2_10.started;textboxInstrMain2_11.started;textboxInstrMain2_12.started;keyInstrMain2.started;keyInstrMain2.keys;keyInstrMain2.rt;fixationITI.started;fixationITI.stopped;polygonColour.started;polygonWhite.started;imageObject.started;polygonType.started;textInput.started;keyResp.started;micRespv1l3.started;polygonColour.stopped;polygonWhite.stopped;imageObject.stopped;polygonType.stopped;textInput.stopped;keyResp.stopped;keyResp.keys;keyResp.corr;keyResp.rt;subjResponse;micRespv1l3.clip;textBlankLoop.started;textBlankLoop.stopped;keyPause.keys;textboxPause.started;keyPause.started;keyPause.rt;textboxGoodbye.started;textboxGoodbye.stopped;participant;session;date;expName;psychopyVersion;frameRate;Column2
;;;;;;;;;;;;;;;;;;;;;10.06660719984211;12.56246169982478;12.56246169982478;12.56246169982478;12.56246169982478;space;10.572592500131577;;;;;;;;;;;;;;;;;;;;;;;;;;;;;;;;;;;;;;;;;;;;130103;001;2023-11-27_15h19.28.558;REPSWITCH1_version1_list3;2022.2.4;143.97189690080214;
;;;;;;;;;;;;;;;;;;;;;;;;;;;;23.154087099945173;23.154087099945173;23.154087099945173;23.154087099945173;23.154087099945173;23.154087099945173;23.154087099945173;23.154087099945173;23.154087099945173;23.154087099945173;23.154087099945173;23.154087099945173;23.154087099945173;space;6.399066700134426;;;;;;;;;;;;;;;;;;;;;;;;;;;;;130103;001;2023-11-27_15h19.28.558;REPSWITCH1_version1_list3;2022.2.4;143.97189690080214;
REPSWITCH1/PICTURE_663.png;columna;type;darkblue;filler;1;F;1;2;3;1;Extra6;0;None;1;0;1;0;0;0;0;;;;;;;;;;;;;;;;;;;;;;;29.64799609989859;30.668973699910566;30.668973699910566;30.668973699910566;30.668973699910566;30.668973699910566;30.668973699910566;30.668973699910566;30.668973699910566;33.6971531000454;33.6971531000454;33.6971531000454;33.6971531000454;33.6971531000454;33.6971531000454;['c', 'o', 'l', 'u', 'm', 'n', 'a'];0;[1.4541364000178874, 1.7244567000307143, 1.8978651999495924, 2.090006100013852, 2.2834916999563575, 2.414020400028676, 2.514675899874419];columna;C:\2023\REPSWITCH21092023\REPSWITCH_excgange\REPSWITCH_excgange\data/130103_REPSWITCH1_version1_list3_2023-11-27_15h19.28.558_micRespv1l3_recorded\recording_micRespv1l3_2023-11-27_15h19.53.946.wav;33.6971531000454;34.19731600000523;None;;;;;;130103;001;2023-11-27_15h19.28.558;REPSWITCH1_version1_list3;2022.2.4;143.97189690080214;
REPSWITCH1/PICTURE_128.png;muñeca;speak;gold;nontarget;2;NT;1;2;3;1;Stim4_Set1;1;switch;2;1;2;0;1;1;1;;;;;;;;;;;;;;;;;;;;;;;34.19731600000523;35.30858469987288;35.30858469987288;35.30858469987288;35.30858469987288;35.30858469987288;35.30858469987288;35.30858469987288;35.30858469987288;38.33664929983206;38.33664929983206;38.33664929983206;38.33664929983206;38.33664929983206;38.33664929983206;None;0;;;C:\2023\REPSWITCH21092023\REPSWITCH_excgange\REPSWITCH_excgange\data/130103_REPSWITCH1_version1_list3_2023-11-27_15h19.28.558_micRespv1l3_recorded\recording_micRespv1l3_2023-11-27_15h19.58.584.wav;38.33664929983206;;None;;;;;;130103;001;2023-11-27_15h19.28.558;REPSWITCH1_version1_list3;2022.2.4;143.97189690080214;
REPSWITCH1/PICTURE_128.png;muñeca;speak;gold;repeat;2;T;1;2;3;1;Stim4_Set1;0;None;3;2;3;0;2;2;2;;;;;;;;;;;;;;;;;;;;;;;38.836738700047135;39.934161599958315;39.934161599958315;39.934161599958315;39.934161599958315;39.934161599958315;39.934161599958315;39.934161599958315;39.934161599958315;42.9622605999466;42.9622605999466;42.9622605999466;42.9622605999466;42.9622605999466;42.9622605999466;None;0;;;C:\2023\REPSWITCH21092023\REPSWITCH_excgange\REPSWITCH_excgange\data/130103_REPSWITCH1_version1_list3_2023-11-27_15h19.28.558_micRespv1l3_recorded\recording_micRespv1l3_2023-11-27_15h20.03.209.wav;42.9622605999466;;None;;;;;;130103;001;2023-11-27_15h19.28.558;REPSWITCH1_version1_list3;2022.2.4;143.97189690080214;
REPSWITCH1/PICTURE_8.png;pierna;type;darkblue;filler;1;F;1;2;3;1;Stim3_Set4;0;None;4;3;4;0;3;3;3;;;;;;;;;;;;;;;;;;;;;;;43.462346700020134;44.51109609985724;44.51109609985724;44.51109609985724;44.51109609985724;44.51109609985724;44.51109609985724;44.51109609985724;44.51109609985724;47.53239549999125;47.53239549999125;47.53239549999125;47.53239549999125;47.53239549999125;47.53239549999125;['p', 'i', 'e', 'r', 'n', 'a'];0;[1.640881799859926, 1.8340288000181317, 2.0204602999147028, 2.1818943000398576, 2.3603121999185532, 2.5098703000694513];pierna;C:\2023\REPSWITCH21092023\REPSWITCH_excgange\REPSWITCH_excgange\data/130103_REPSWITCH1_version1_list3_2023-11-27_15h19.28.558_micRespv1l3_recorded\recording_micRespv1l3_2023-11-27_15h20.07.786.wav;47.53239549999125;48.03239199984819;None;;;;;;130103;001;2023-11-27_15h19.28.558;REPSWITCH1_version1_list3;2022.2.4;143.97189690080214;
REPSWITCH1/PICTURE_135.png;traje;speak;gold;nontarget;2;NT;1;2;3;1;Stim3_Set1;1;switch;5;4;5;0;4;4;4;;;;;;;;;;;;;;;;;;;;;;;48.03239199984819;49.10198689997196;49.10198689997196;49.10198689997196;49.10198689997196;49.10198689997196;49.10198689997196;49.10198689997196;49.10198689997196;52.12322639999911;52.12322639999911;52.12322639999911;52.12322639999911;52.12322639999911;52.12322639999911;None;0;;;C:\2023\REPSWITCH21092023\REPSWITCH_excgange\REPSWITCH_excgange\data/130103_REPSWITCH1_version1_list3_2023-11-27_15h19.28.558_micRespv1l3_recorded\recording_micRespv1l3_2023-11-27_15h20.12.376.wav;52.12322639999911;52.6232713998761;None;;;;;;130103;001;2023-11-27_15h19.28.558;REPSWITCH1_version1_list3;2022.2.4;143.97189690080214;
REPSWITCH1/PICTURE_135.png;traje;speak;gold;repeat;2;T;1;2;3;1;Stim3_Set1;0;None;6;5;6;0;5;5;5;;;;;;;;;;;;;;;;;;;;;;;52.6232713998761;53.62338679982349;53.62338679982349;53.62338679982349;53.62338679982349;53.62338679982349;53.62338679982349;53.62338679982349;53.62338679982349;56.644653499824926;56.644653499824926;56.644653499824926;56.644653499824926;56.644653499824926;56.644653499824926;None;0;;;C:\2023\REPSWITCH21092023\REPSWITCH_excgange\REPSWITCH_excgange\data/130103_REPSWITCH1_version1_list3_2023-11-27_15h19.28.558_micRespv1l3_recorded\recording_micRespv1l3_2023-11-27_15h20.16.897.wav;56.644653499824926;57.14469749992713;None;;;;;;130103;001;2023-11-27_15h19.28.558;REPSWITCH1_version1_list3;2022.2.4;143.97189690080214;
REPSWITCH1/PICTURE_673.png;tenedor;type;darkblue;filler;1;F;1;2;3;1;Extra5;0;None;7;6;7;0;6;6;6;;;;;;;;;;;;;;;;;;;;;;;57.14469749992713;58.242042099824175;58.242042099824175;58.242042099824175;58.242042099824175;58.242042099824175;58.242042099824175;58.242042099824175;58.242042099824175;61.263283899985254;61.263283899985254;61.263283899985254;61.263283899985254;61.263283899985254;61.263283899985254;['t', 'e', 'n', 'e', 'r', 'backspace', 'd', 'o', 'r'];0;[1.1880353998858482, 1.3186381999403238, 1.4724741999525577, 1.5751072999555618, 1.7395917000249028, 2.3656051999423653, 2.582199699943885, 2.7256666999310255, 2.834344800096005];tenedor;C:\2023\REPSWITCH21092023\REPSWITCH_excgange\REPSWITCH_excgange\data/130103_REPSWITCH1_version1_list3_2023-11-27_15h19.28.558_micRespv1l3_recorded\recording_micRespv1l3_2023-11-27_15h20.21.517.wav;61.263283899985254;61.76335119991563;None;;;;;;130103;001;2023-11-27_15h19.28.558;REPSWITCH1_version1_list3;2022.2.4;143.97189690080214;
REPSWITCH1/PICTURE_728.png;pulpo;speak;gold;filler;2;F;1;2;3;1;Stim8_Set4;0;None;8;7;8;0;7;7;7;;;;;;;;;;;;;;;;;;;;;;;61.76335119991563;62.83993689995259;62.83993689995259;62.83993689995259;62.83993689995259;62.83993689995259;62.83993689995259;62.83993689995259;62.83993689995259;65.86107619991526;65.86107619991526;65.86107619991526;65.86107619991526;65.86107619991526;65.86107619991526;None;0;;;C:\2023\REPSWITCH21092023\REPSWITCH_excgange\REPSWITCH_excgange\data/130103_REPSWITCH1_version1_list3_2023-11-27_15h19.28.558_micRespv1l3_recorded\recording_micRespv1l3_2023-11-27_15h20.26.115.wav;65.86107619991526;66.36114059993997;None;;;;;;130103;001;2023-11-27_15h19.28.558;REPSWITCH1_version1_list3;2022.2.4;143.97189690080214;
REPSWITCH1/PICTURE_16.png;cazador;speak;gold;nontarget;2;NT;1;2;3;1;Stim6_Set1;1;repeat;9;8;9;0;8;8;8;;;;;;;;;;;;;;;;;;;;;;;66.36114059993997;67.41697509982623;67.41697509982623;67.41697509982623;67.41697509982623;67.41697509982623;67.41697509982623;67.41697509982623;67.41697509982623;70.43807409983128;70.43807409983128;70.43807409983128;70.43807409983128;70.43807409983128;70.43807409983128;None;0;;;C:\2023\REPSWITCH21092023\REPSWITCH_excgange\REPSWITCH_excgange\data/130103_REPSWITCH1_version1_list3_2023-11-27_15h19.28.558_micRespv1l3_recorded\recording_micRespv1l3_2023-11-27_15h20.30.692.wav;70.43807409983128;70.93821679987013;None;;;;;;130103;001;2023-11-27_15h19.28.558;REPSWITCH1_version1_list3;2022.2.4;143.97189690080214;
REPSWITCH1/PICTURE_16.png;cazador;type;darkblue;switch;1;T;1;2;3;1;Stim6_Set1;0;None;10;9;10;0;9;9;9;;;;;;;;;;;;;;;;;;;;;;;70.93821679987013;71.96614519995637;71.96614519995637;71.96614519995637;71.96614519995637;71.96614519995637;71.96614519995637;71.96614519995637;71.96614519995637;74.98727499996312;74.98727499996312;74.98727499996312;74.98727499996312;74.98727499996312;74.98727499996312;['c', 'a', 'z', 'a', 'd', 'o', 'r'];0;[1.0501347999088466, 1.1577016999945045, 1.5728964998852462, 1.7551233998965472, 2.19114109990187, 2.403399300063029, 2.4313354999758303];cazador;C:\2023\REPSWITCH21092023\REPSWITCH_excgange\REPSWITCH_excgange\data/130103_REPSWITCH1_version1_list3_2023-11-27_15h19.28.558_micRespv1l3_recorded\recording_micRespv1l3_2023-11-27_15h20.35.240.wav;74.98727499996312;75.4873396998737;None;;;;;;130103;001;2023-11-27_15h19.28.558;REPSWITCH1_version1_list3;2022.2.4;143.97189690080214;
REPSWITCH1/PICTURE_498.png;taza;type;darkblue;filler;1;F;1;2;3;1;Stim4_Set4;1;repeat;11;10;11;0;10;10;10;;;;;;;;;;;;;;;;;;;;;;;75.4873396998737;76.60556639987044;76.60556639987044;76.60556639987044;76.60556639987044;76.60556639987044;76.60556639987044;76.60556639987044;76.60556639987044;79.62679869984277;79.62679869984277;79.62679869984277;79.62679869984277;79.62679869984277;79.62679869984277;['t', 'a', 'z', 'a'];0;[1.1544682001695037, 1.2740516001358628, 1.4683993000071496, 1.6348491001408547];taza;C:\2023\REPSWITCH21092023\REPSWITCH_excgange\REPSWITCH_excgange\data/130103_REPSWITCH1_version1_list3_2023-11-27_15h19.28.558_micRespv1l3_recorded\recording_micRespv1l3_2023-11-27_15h20.39.880.wav;79.62679869984277;80.12686519999988;None;;;;;;130103;001;2023-11-27_15h19.28.558;REPSWITCH1_version1_list3;2022.2.4;143.97189690080214;
REPSWITCH1/PICTURE_381.png;fresa;type;darkblue;nontarget;1;NT;1;2;3;1;Stim2_Set1;1;repeat;12;11;12;0;11;11;11;;;;;;;;;;;;;;;;;;;;;;;80.12686519999988;81.23124239989556;81.23124239989556;81.23124239989556;81.23124239989556;81.23124239989556;81.23124239989556;81.23124239989556;81.23124239989556;84.25248839985579;84.25248839985579;84.25248839985579;84.25248839985579;84.25248839985579;84.25248839985579;['f', 'r', 'e', 's', 'a'];0;[0.9351379999425262, 1.1135303999762982, 1.218662800034508, 1.3801217000000179, 1.4957302999682724];fresa;C:\2023\REPSWITCH21092023\REPSWITCH_excgange\REPSWITCH_excgange\data/130103_REPSWITCH1_version1_list3_2023-11-27_15h19.28.558_micRespv1l3_recorded\recording_micRespv1l3_2023-11-27_15h20.44.506.wav;84.25248839985579;84.75247789989226;None;;;;;;130103;001;2023-11-27_15h19.28.558;REPSWITCH1_version1_list3;2022.2.4;143.97189690080214;
REPSWITCH1/PICTURE_381.png;fresa;speak;gold;switch;2;T;1;2;3;1;Stim2_Set1;0;None;13;12;13;0;12;12;12;;;;;;;;;;;;;;;;;;;;;;;84.75247789989226;85.77345959981903;85.77345959981903;85.77345959981903;85.77345959981903;85.77345959981903;85.77345959981903;85.77345959981903;85.77345959981903;88.79469159990549;88.79469159990549;88.79469159990549;88.79469159990549;88.79469159990549;88.79469159990549;None;0;;;C:\2023\REPSWITCH21092023\REPSWITCH_excgange\REPSWITCH_excgange\data/130103_REPSWITCH1_version1_list3_2023-11-27_15h19.28.558_micRespv1l3_recorded\recording_micRespv1l3_2023-11-27_15h20.49.048.wav;88.79469159990549;89.29474239982665;None;;;;;;130103;001;2023-11-27_15h19.28.558;REPSWITCH1_version1_list3;2022.2.4;143.97189690080214;
REPSWITCH1/PICTURE_178.png;puente;speak;gold;nontarget;2;NT;1;2;3;1;Stim1_Set1;0;None;14;13;14;0;13;13;13;;;;;;;;;;;;;;;;;;;;;;;89.29474239982665;90.46850019996054;90.46850019996054;90.46850019996054;90.46850019996054;90.46850019996054;90.46850019996054;90.46850019996054;90.46850019996054;93.4897396999877;93.4897396999877;93.4897396999877;93.4897396999877;93.4897396999877;93.4897396999877;None;0;;;C:\2023\REPSWITCH21092023\REPSWITCH_excgange\REPSWITCH_excgange\data/130103_REPSWITCH1_version1_list3_2023-11-27_15h19.28.558_micRespv1l3_recorded\recording_micRespv1l3_2023-11-27_15h20.53.743.wav;93.4897396999877;93.98976309993304;None;;;;;;130103;001;2023-11-27_15h19.28.558;REPSWITCH1_version1_list3;2022.2.4;143.97189690080214;
REPSWITCH1/PICTURE_178.png;puente;type;darkblue;switch;1;T;1;2;3;1;Stim1_Set1;0;None;15;14;15;0;14;14;14;;;;;;;;;;;;;;;;;;;;;;;93.98976309993304;95.01772359991446;95.01772359991446;95.01772359991446;95.01772359991446;95.01772359991446;95.01772359991446;95.01772359991446;95.01772359991446;98.03899049991742;98.03899049991742;98.03899049991742;98.03899049991742;98.03899049991742;98.03899049991742;['p', 'u', 'e', 'n', 't', 'e'];0;[1.016031799837947, 1.2130783000029624, 1.3257612998131663, 1.45229689986445, 1.561968799913302, 1.6666208999231458];puente;C:\2023\REPSWITCH21092023\REPSWITCH_excgange\REPSWITCH_excgange\data/130103_REPSWITCH1_version1_list3_2023-11-27_15h19.28.558_micRespv1l3_recorded\recording_micRespv1l3_2023-11-27_15h20.58.292.wav;98.03899049991742;98.53898549987935;None;;;;;;130103;001;2023-11-27_15h19.28.558;REPSWITCH1_version1_list3;2022.2.4;143.97189690080214;
REPSWITCH1/PICTURE_719.png;baño;speak;gold;filler;2;F;1;2;3;1;Stim2_Set4;0;None;16;15;16;0;15;15;15;;;;;;;;;;;;;;;;;;;;;;;98.53898549987935;99.58081369986758;99.58081369986758;99.58081369986758;99.58081369986758;99.58081369986758;99.58081369986758;99.58081369986758;99.58081369986758;102.60898329992779;102.60898329992779;102.60898329992779;102.60898329992779;102.60898329992779;102.60898329992779;None;0;;;C:\2023\REPSWITCH21092023\REPSWITCH_excgange\REPSWITCH_excgange\data/130103_REPSWITCH1_version1_list3_2023-11-27_15h19.28.558_micRespv1l3_recorded\recording_micRespv1l3_2023-11-27_15h21.02.857.wav;102.60898329992779;;None;;;;;;130103;001;2023-11-27_15h19.28.558;REPSWITCH1_version1_list3;2022.2.4;143.97189690080214;
REPSWITCH1/PICTURE_169.png;espalda;type;darkblue;nontarget;1;NT;1;2;3;1;Stim8_Set1;1;switch;17;16;17;0;16;16;16;;;;;;;;;;;;;;;;;;;;;;;103.10901400004514;104.16475160000846;104.16475160000846;104.16475160000846;104.16475160000846;104.16475160000846;104.16475160000846;104.16475160000846;104.16475160000846;107.19291189988144;107.19291189988144;107.19291189988144;107.19291189988144;107.19291189988144;107.19291189988144;['e', 's', 'p', 'a', 'l', 'd', 'a'];0;[1.25795209989883, 1.4350572999101132, 1.674067399930209, 1.788723399862647, 1.9073226999025792, 2.0997030998114496, 2.2073586999904364];espalda;C:\2023\REPSWITCH21092023\REPSWITCH_excgange\REPSWITCH_excgange\data/130103_REPSWITCH1_version1_list3_2023-11-27_15h19.28.558_micRespv1l3_recorded\recording_micRespv1l3_2023-11-27_15h21.07.440.wav;107.19291189988144;107.69295950001106;None;;;;;;130103;001;2023-11-27_15h19.28.558;REPSWITCH1_version1_list3;2022.2.4;143.97189690080214;
REPSWITCH1/PICTURE_169.png;espalda;type;darkblue;repeat;1;T;1;2;3;1;Stim8_Set1;0;None;18;17;18;0;17;17;17;;;;;;;;;;;;;;;;;;;;;;;107.69295950001106;108.83898300002329;108.83898300002329;108.83898300002329;108.83898300002329;108.83898300002329;108.83898300002329;108.83898300002329;108.83898300002329;111.86018179985695;111.86018179985695;111.86018179985695;111.86018179985695;111.86018179985695;111.86018179985695;['s', 'p', 'a', 'l', 'backspace', 'backspace', 'backspace', 'backspace', 'e', 'd', 's', 'p', 'o'];0;[1.0410164999775589, 1.2303468000609428, 1.3589336001314223, 1.4695679999422282, 1.9704877000767738, 2.1309406000655144, 2.271437499905005, 2.3698023001197726, 2.47240490000695, 2.641823000041768, 2.6428199000656605, 2.8504401999525726, 2.853423000080511];eso;C:\2023\REPSWITCH21092023\REPSWITCH_excgange\REPSWITCH_excgange\data/130103_REPSWITCH1_version1_list3_2023-11-27_15h19.28.558_micRespv1l3_recorded\recording_micRespv1l3_2023-11-27_15h21.12.113.wav;111.86018179985695;112.36033539986238;None;;;;;;130103;001;2023-11-27_15h19.28.558;REPSWITCH1_version1_list3;2022.2.4;143.97189690080214;
REPSWITCH1/PICTURE_48.png;bombero;speak;gold;filler;2;F;1;2;3;1;Stim7_Set4;1;switch;19;18;19;0;18;18;18;;;;;;;;;;;;;;;;;;;;;;;112.36033539986238;113.49243129999377;113.49243129999377;113.49243129999377;113.49243129999377;113.49243129999377;113.49243129999377;113.49243129999377;113.49243129999377;116.52052609995008;116.52052609995008;116.52052609995008;116.52052609995008;116.52052609995008;116.52052609995008;None;0;;;C:\2023\REPSWITCH21092023\REPSWITCH_excgange\REPSWITCH_excgange\data/130103_REPSWITCH1_version1_list3_2023-11-27_15h19.28.558_micRespv1l3_recorded\recording_micRespv1l3_2023-11-27_15h21.16.768.wav;116.52052609995008;;None;;;;;;130103;001;2023-11-27_15h19.28.558;REPSWITCH1_version1_list3;2022.2.4;143.97189690080214;
REPSWITCH1/PICTURE_19.png;pavo;type;darkblue;nontarget;1;NT;1;2;3;1;Stim5_Set1;1;switch;20;19;20;0;19;19;19;;;;;;;;;;;;;;;;;;;;;;;117.02062910003588;118.23601699993014;118.23601699993014;118.23601699993014;118.23601699993014;118.23601699993014;118.23601699993014;118.23601699993014;118.23601699993014;121.25733049982227;121.25733049982227;121.25733049982227;121.25733049982227;121.25733049982227;121.25733049982227;['p', 'a', 'v', 'o'];0;[0.8851111999247223, 1.0028194999322295, 1.1621455999556929, 1.2900152998045087];pavo;C:\2023\REPSWITCH21092023\REPSWITCH_excgange\REPSWITCH_excgange\data/130103_REPSWITCH1_version1_list3_2023-11-27_15h19.28.558_micRespv1l3_recorded\recording_micRespv1l3_2023-11-27_15h21.21.511.wav;121.25733049982227;121.75740280002356;None;;;;;;130103;001;2023-11-27_15h19.28.558;REPSWITCH1_version1_list3;2022.2.4;143.97189690080214;
REPSWITCH1/PICTURE_19.png;pavo;type;darkblue;repeat;1;T;1;2;3;1;Stim5_Set1;0;None;21;20;21;0;20;20;20;;;;;;;;;;;;;;;;;;;;;;;121.75740280002356;122.95194279984571;122.95194279984571;122.95194279984571;122.95194279984571;122.95194279984571;122.95194279984571;122.95194279984571;122.95194279984571;125.98014259990305;125.98014259990305;125.98014259990305;125.98014259990305;125.98014259990305;125.98014259990305;['p', 'a', 'v', 'o'];0;[0.7805600001011044, 0.8931603999808431, 0.9879091000184417, 1.0880009001120925];pavo;C:\2023\REPSWITCH21092023\REPSWITCH_excgange\REPSWITCH_excgange\data/130103_REPSWITCH1_version1_list3_2023-11-27_15h19.28.558_micRespv1l3_recorded\recording_micRespv1l3_2023-11-27_15h21.26.227.wav;125.98014259990305;;None;;;;;;130103;001;2023-11-27_15h19.28.558;REPSWITCH1_version1_list3;2022.2.4;143.97189690080214;
REPSWITCH1/PICTURE_319.png;vaca;speak;gold;filler;2;F;1;2;3;1;Stim1_Set4;0;None;22;21;22;0;21;21;21;;;;;;;;;;;;;;;;;;;;;;;126.48023270000704;127.5428100998979;127.5428100998979;127.5428100998979;127.5428100998979;127.5428100998979;127.5428100998979;127.5428100998979;127.5428100998979;130.5710288998671;130.5710288998671;130.5710288998671;130.5710288998671;130.5710288998671;130.5710288998671;None;0;;;C:\2023\REPSWITCH21092023\REPSWITCH_excgange\REPSWITCH_excgange\data/130103_REPSWITCH1_version1_list3_2023-11-27_15h19.28.558_micRespv1l3_recorded\recording_micRespv1l3_2023-11-27_15h21.30.817.wav;130.5710288998671;;None;;;;;;130103;001;2023-11-27_15h19.28.558;REPSWITCH1_version1_list3;2022.2.4;143.97189690080214;
REPSWITCH1/PICTURE_338.png;regalo;type;darkblue;filler;1;F;1;2;3;1;Stim6_Set4;0;None;23;22;23;0;22;22;22;;;;;;;;;;;;;;;;;;;;;;;131.0710668999236;132.25869139982387;132.25869139982387;132.25869139982387;132.25869139982387;132.25869139982387;132.25869139982387;132.25869139982387;132.25869139982387;135.27991719986312;135.27991719986312;135.27991719986312;135.27991719986312;135.27991719986312;135.27991719986312;['r', 'e', 'g', 'a', 'l', 'o'];0;[1.0304940999485552, 1.2138607997912914, 1.3643631997983903, 1.4878232998307794, 1.6676865997724235, 1.8355735999066383];regalo;C:\2023\REPSWITCH21092023\REPSWITCH_excgange\REPSWITCH_excgange\data/130103_REPSWITCH1_version1_list3_2023-11-27_15h19.28.558_micRespv1l3_recorded\recording_micRespv1l3_2023-11-27_15h21.35.532.wav;135.27991719986312;135.77998099988326;None;;;;;;130103;001;2023-11-27_15h19.28.558;REPSWITCH1_version1_list3;2022.2.4;143.97189690080214;
REPSWITCH1/PICTURE_142.png;vaso;type;darkblue;nontarget;1;NT;1;2;3;1;Stim7_Set1;0;None;24;23;24;0;23;23;23;;;;;;;;;;;;;;;;;;;;;;;135.77998099988326;136.83567829988897;136.83567829988897;136.83567829988897;136.83567829988897;136.83567829988897;136.83567829988897;136.83567829988897;136.83567829988897;139.8638732000254;139.8638732000254;139.8638732000254;139.8638732000254;139.8638732000254;139.8638732000254;['v', 'a', 's', 'o'];0;[0.8349858000874519, 0.9549796001520008, 1.094418999971822, 1.239961199928075];vaso;C:\2023\REPSWITCH21092023\REPSWITCH_excgange\REPSWITCH_excgange\data/130103_REPSWITCH1_version1_list3_2023-11-27_15h19.28.558_micRespv1l3_recorded\recording_micRespv1l3_2023-11-27_15h21.40.111.wav;139.8638732000254;;None;;;;;;130103;001;2023-11-27_15h19.28.558;REPSWITCH1_version1_list3;2022.2.4;143.97189690080214;
REPSWITCH1/PICTURE_142.png;vaso;speak;gold;switch;2;T;1;2;3;1;Stim7_Set1;0;None;25;24;25;0;24;24;24;;;;;;;;;;;;;;;;;;;;;;;140.3639846998267;141.46132629993372;141.46132629993372;141.46132629993372;141.46132629993372;141.46132629993372;141.46132629993372;141.46132629993372;141.46132629993372;144.48253679997288;144.48253679997288;144.48253679997288;144.48253679997288;144.48253679997288;144.48253679997288;None;0;;;C:\2023\REPSWITCH21092023\REPSWITCH_excgange\REPSWITCH_excgange\data/130103_REPSWITCH1_version1_list3_2023-11-27_15h19.28.558_micRespv1l3_recorded\recording_micRespv1l3_2023-11-27_15h21.44.736.wav;144.48253679997288;144.98260240000673;None;;;;;;130103;001;2023-11-27_15h19.28.558;REPSWITCH1_version1_list3;2022.2.4;143.97189690080214;
REPSWITCH1/PICTURE_687.png;camisa;type;darkblue;filler;1;F;1;2;3;1;Stim5_Set4;1;switch;26;25;26;0;25;25;25;;;;;;;;;;;;;;;;;;;;;;;144.98260240000673;146.08691870002076;146.08691870002076;146.08691870002076;146.08691870002076;146.08691870002076;146.08691870002076;146.08691870002076;146.08691870002076;149.10811739997007;149.10811739997007;149.10811739997007;149.10811739997007;149.10811739997007;149.10811739997007;['v', 'a', 'backspace', 'backspace', 'backspace', 'backspace', 'c', 'a', 'm', 'i', 's', 'a'];0;[0.9260176999960095, 1.023685900028795, 1.513641299912706, 1.5950442000757903, 1.6897632000036538, 1.7904163000639528, 1.9302598000504076, 1.9820382001344115, 2.116249799961224, 2.2159025999717414, 2.30162509996444, 2.342502099927515];camisa;C:\2023\REPSWITCH21092023\REPSWITCH_excgange\REPSWITCH_excgange\data/130103_REPSWITCH1_version1_list3_2023-11-27_15h19.28.558_micRespv1l3_recorded\recording_micRespv1l3_2023-11-27_15h21.49.361.wav;149.10811739997007;149.60819429997355;None;;;;;;130103;001;2023-11-27_15h19.28.558;REPSWITCH1_version1_list3;2022.2.4;143.97189690080214;
REPSWITCH1/PICTURE_30.png;granja;type;darkblue;nontarget;1;NT;2;2;3;1;Stim5_Set2;0;None;27;26;27;0;26;26;26;;;;;;;;;;;;;;;;;;;;;;;149.60819429997355;150.6499868000392;150.6499868000392;150.6499868000392;150.6499868000392;150.6499868000392;150.6499868000392;150.6499868000392;150.6499868000392;153.67826709989458;153.67826709989458;153.67826709989458;153.67826709989458;153.67826709989458;153.67826709989458;['g', 'r', 'n', 'j', 'backspace', 'backspace', 'a', 'n'];0;[1.1483561999630183, 1.3058954998850822, 1.5903958999551833, 1.8879134999588132, 2.4926450999919325, 2.617226499831304, 2.769721999997273, 2.900280899833888];gran;C:\2023\REPSWITCH21092023\REPSWITCH_excgange\REPSWITCH_excgange\data/130103_REPSWITCH1_version1_list3_2023-11-27_15h19.28.558_micRespv1l3_recorded\recording_micRespv1l3_2023-11-27_15h21.53.925.wav;153.67826709989458;;None;;;;;;130103;001;2023-11-27_15h19.28.558;REPSWITCH1_version1_list3;2022.2.4;143.97189690080214;
REPSWITCH1/PICTURE_30.png;granja;type;darkblue;repeat;1;T;2;2;3;1;Stim5_Set2;0;None;28;27;28;0;27;27;27;;;;;;;;;;;;;;;;;;;;;;;154.17823569988832;155.2825438999571;155.2825438999571;155.2825438999571;155.2825438999571;155.2825438999571;155.2825438999571;155.2825438999571;155.2825438999571;158.31070180004463;158.31070180004463;158.31070180004463;158.31070180004463;158.31070180004463;158.31070180004463;['g', 'r', 'a', 'n', 'j', 'a'];0;[0.9298398999962956, 0.984657300170511, 1.1670028001535684, 1.2886243001557887, 1.4154955002013594, 1.550082900095731];granja;C:\2023\REPSWITCH21092023\REPSWITCH_excgange\REPSWITCH_excgange\data/130103_REPSWITCH1_version1_list3_2023-11-27_15h19.28.558_micRespv1l3_recorded\recording_micRespv1l3_2023-11-27_15h21.58.558.wav;158.31070180004463;;None;;;;;;130103;001;2023-11-27_15h19.28.558;REPSWITCH1_version1_list3;2022.2.4;143.97189690080214;
REPSWITCH1/PICTURE_128.png;muñeca;speak;gold;filler;2;F;2;2;3;1;Stim4_Set1;0;None;29;28;29;0;28;28;28;;;;;;;;;;;;;;;;;;;;;;;158.81079129991122;159.97767749987543;159.97767749987543;159.97767749987543;159.97767749987543;159.97767749987543;159.97767749987543;159.97767749987543;159.97767749987543;162.99889459996484;162.99889459996484;162.99889459996484;162.99889459996484;162.99889459996484;162.99889459996484;None;0;;;C:\2023\REPSWITCH21092023\REPSWITCH_excgange\REPSWITCH_excgange\data/130103_REPSWITCH1_version1_list3_2023-11-27_15h19.28.558_micRespv1l3_recorded\recording_micRespv1l3_2023-11-27_15h22.03.252.wav;162.99889459996484;163.49890080001205;None;;;;;;130103;001;2023-11-27_15h19.28.558;REPSWITCH1_version1_list3;2022.2.4;143.97189690080214;
REPSWITCH1/PICTURE_264.png;mano;type;darkblue;nontarget;1;NT;2;2;3;1;Stim3_Set2;1;switch;30;29;30;0;29;29;29;;;;;;;;;;;;;;;;;;;;;;;163.49890080001205;164.54764509992674;164.54764509992674;164.54764509992674;164.54764509992674;164.54764509992674;164.54764509992674;164.54764509992674;164.54764509992674;167.5688934000209;167.5688934000209;167.5688934000209;167.5688934000209;167.5688934000209;167.5688934000209;['m', 'a', 'n', 'o'];0;[0.8317327001132071, 0.9322868001181632, 1.047002200037241, 1.186520399991423];mano;C:\2023\REPSWITCH21092023\REPSWITCH_excgange\REPSWITCH_excgange\data/130103_REPSWITCH1_version1_list3_2023-11-27_15h19.28.558_micRespv1l3_recorded\recording_micRespv1l3_2023-11-27_15h22.07.823.wav;167.5688934000209;168.06901109986939;None;;;;;;130103;001;2023-11-27_15h19.28.558;REPSWITCH1_version1_list3;2022.2.4;143.97189690080214;
REPSWITCH1/PICTURE_264.png;mano;type;darkblue;repeat;1;T;2;2;3;1;Stim3_Set2;0;None;31;30;31;0;30;30;30;;;;;;;;;;;;;;;;;;;;;;;168.06901109986939;169.20106590003707;169.20106590003707;169.20106590003707;169.20106590003707;169.20106590003707;169.20106590003707;169.20106590003707;169.20106590003707;172.2223516998347;172.2223516998347;172.2223516998347;172.2223516998347;172.2223516998347;172.2223516998347;['m', 'a', 'n', 'o'];0;[0.6286563999019563, 0.7242817999795079, 0.8498217000160366, 0.9586916000116616];mano;C:\2023\REPSWITCH21092023\REPSWITCH_excgange\REPSWITCH_excgange\data/130103_REPSWITCH1_version1_list3_2023-11-27_15h19.28.558_micRespv1l3_recorded\recording_micRespv1l3_2023-11-27_15h22.12.476.wav;172.2223516998347;172.72237430000678;None;;;;;;130103;001;2023-11-27_15h19.28.558;REPSWITCH1_version1_list3;2022.2.4;143.97189690080214;
REPSWITCH1/PICTURE_175.png;pintor;type;darkblue;nontarget;1;NT;2;2;3;1;Stim1_Set2;0;None;32;31;32;0;31;31;31;;;;;;;;;;;;;;;;;;;;;;;172.72237430000678;173.7989010999445;173.7989010999445;173.7989010999445;173.7989010999445;173.7989010999445;173.7989010999445;173.7989010999445;173.7989010999445;176.8200904999394;176.8200904999394;176.8200904999394;176.8200904999394;176.8200904999394;176.8200904999394;['p', 'i', 'n', 't', 'p', 'o', 'r', 'backspace', 'backspace', 'backspace'];0;[1.0947937001474202, 1.3618525001220405, 1.5591145001817495, 1.7066201001871377, 1.8680580002255738, 1.8691304000094533, 1.9721232000738382, 2.541940900031477, 2.6994252000004053, 2.795117700006813];pint;C:\2023\REPSWITCH21092023\REPSWITCH_excgange\REPSWITCH_excgange\data/130103_REPSWITCH1_version1_list3_2023-11-27_15h19.28.558_micRespv1l3_recorded\recording_micRespv1l3_2023-11-27_15h22.17.073.wav;176.8200904999394;177.3201806000434;None;;;;;;130103;001;2023-11-27_15h19.28.558;REPSWITCH1_version1_list3;2022.2.4;143.97189690080214;
REPSWITCH1/PICTURE_175.png;pintor;speak;gold;switch;2;T;2;2;3;1;Stim1_Set2;0;None;33;32;33;0;32;32;32;;;;;;;;;;;;;;;;;;;;;;;177.3201806000434;178.40366489998996;178.40366489998996;178.40366489998996;178.40366489998996;178.40366489998996;178.40366489998996;178.40366489998996;178.40366489998996;181.43182939989492;181.43182939989492;181.43182939989492;181.43182939989492;181.43182939989492;181.43182939989492;None;0;;;C:\2023\REPSWITCH21092023\REPSWITCH_excgange\REPSWITCH_excgange\data/130103_REPSWITCH1_version1_list3_2023-11-27_15h19.28.558_micRespv1l3_recorded\recording_micRespv1l3_2023-11-27_15h22.21.679.wav;181.43182939989492;;None;;;;;;130103;001;2023-11-27_15h19.28.558;REPSWITCH1_version1_list3;2022.2.4;143.97189690080214;
REPSWITCH1/PICTURE_135.png;traje;speak;gold;filler;2;F;2;2;3;1;Stim3_Set1;1;repeat;34;33;34;0;33;33;33;;;;;;;;;;;;;;;;;;;;;;;181.93185549997725;183.01537729986012;183.01537729986012;183.01537729986012;183.01537729986012;183.01537729986012;183.01537729986012;183.01537729986012;183.01537729986012;186.0366477998905;186.0366477998905;186.0366477998905;186.0366477998905;186.0366477998905;186.0366477998905;None;0;;;C:\2023\REPSWITCH21092023\REPSWITCH_excgange\REPSWITCH_excgange\data/130103_REPSWITCH1_version1_list3_2023-11-27_15h19.28.558_micRespv1l3_recorded\recording_micRespv1l3_2023-11-27_15h22.26.290.wav;186.0366477998905;186.53665949986316;None;;;;;;130103;001;2023-11-27_15h19.28.558;REPSWITCH1_version1_list3;2022.2.4;143.97189690080214;
REPSWITCH1/PICTURE_446.png;cerdo;speak;gold;nontarget;2;NT;2;2;3;1;Stim7_Set2;1;repeat;35;34;35;0;34;34;34;;;;;;;;;;;;;;;;;;;;;;;186.53665949986316;187.6687676999718;187.6687676999718;187.6687676999718;187.6687676999718;187.6687676999718;187.6687676999718;187.6687676999718;187.6687676999718;190.6899627998937;190.6899627998937;190.6899627998937;190.6899627998937;190.6899627998937;190.6899627998937;None;0;;;C:\2023\REPSWITCH21092023\REPSWITCH_excgange\REPSWITCH_excgange\data/130103_REPSWITCH1_version1_list3_2023-11-27_15h19.28.558_micRespv1l3_recorded\recording_micRespv1l3_2023-11-27_15h22.30.943.wav;190.6899627998937;191.19009539997205;None;;;;;;130103;001;2023-11-27_15h19.28.558;REPSWITCH1_version1_list3;2022.2.4;143.97189690080214;
REPSWITCH1/PICTURE_446.png;cerdo;type;darkblue;switch;1;T;2;2;3;1;Stim7_Set2;0;None;36;35;36;0;35;35;35;;;;;;;;;;;;;;;;;;;;;;;191.19009539997205;192.26664619985968;192.26664619985968;192.26664619985968;192.26664619985968;192.26664619985968;192.26664619985968;192.26664619985968;192.26664619985968;195.28788129985332;195.28788129985332;195.28788129985332;195.28788129985332;195.28788129985332;195.28788129985332;['c', 'e', 'r', 'd', 'o'];0;[1.0306039999704808, 1.1853387001901865, 1.3916911000851542, 1.5412657000124454, 1.6587921001482755];cerdo;C:\2023\REPSWITCH21092023\REPSWITCH_excgange\REPSWITCH_excgange\data/130103_REPSWITCH1_version1_list3_2023-11-27_15h19.28.558_micRespv1l3_recorded\recording_micRespv1l3_2023-11-27_15h22.35.541.wav;195.28788129985332;195.78793679992668;None;;;;;;130103;001;2023-11-27_15h19.28.558;REPSWITCH1_version1_list3;2022.2.4;143.97189690080214;
REPSWITCH1/PICTURE_152.png;caracol;type;darkblue;nontarget;1;NT;2;2;3;1;Stim2_Set2;1;repeat;37;36;37;0;36;36;36;;;;;;;;;;;;;;;;;;;;;;;195.78793679992668;196.80187399988063;196.80187399988063;196.80187399988063;196.80187399988063;196.80187399988063;196.80187399988063;196.80187399988063;196.80187399988063;199.83011860004626;199.83011860004626;199.83011860004626;199.83011860004626;199.83011860004626;199.83011860004626;['c', 'a', 'r', 'a', 'c', 'i', 'backspace', 'o', 'l'];0;[1.1251075000036508, 1.2168395000044256, 1.3802810001652688, 1.4870931000914425, 1.6330506999511272, 1.8761999001726508, 2.5161391000729054, 2.809196999995038, 2.977794000180438];caracol;C:\2023\REPSWITCH21092023\REPSWITCH_excgange\REPSWITCH_excgange\data/130103_REPSWITCH1_version1_list3_2023-11-27_15h19.28.558_micRespv1l3_recorded\recording_micRespv1l3_2023-11-27_15h22.40.077.wav;199.83011860004626;;None;;;;;;130103;001;2023-11-27_15h19.28.558;REPSWITCH1_version1_list3;2022.2.4;143.97189690080214;
REPSWITCH1/PICTURE_152.png;caracol;speak;gold;switch;2;T;2;2;3;1;Stim2_Set2;0;None;38;37;38;0;37;37;37;;;;;;;;;;;;;;;;;;;;;;;200.3301106998697;201.37195810000412;201.37195810000412;201.37195810000412;201.37195810000412;201.37195810000412;201.37195810000412;201.37195810000412;201.37195810000412;204.40009549981914;204.40009549981914;204.40009549981914;204.40009549981914;204.40009549981914;204.40009549981914;None;0;;;C:\2023\REPSWITCH21092023\REPSWITCH_excgange\REPSWITCH_excgange\data/130103_REPSWITCH1_version1_list3_2023-11-27_15h19.28.558_micRespv1l3_recorded\recording_micRespv1l3_2023-11-27_15h22.44.647.wav;204.40009549981914;;None;;;;;;130103;001;2023-11-27_15h19.28.558;REPSWITCH1_version1_list3;2022.2.4;143.97189690080214;
REPSWITCH1/PICTURE_16.png;cazador;type;darkblue;filler;1;F;2;2;3;1;Stim6_Set1;0;None;39;38;39;0;38;38;38;;;;;;;;;;;;;;;;;;;;;;;204.90017699985765;206.06004150002263;206.06004150002263;206.06004150002263;206.06004150002263;206.06004150002263;206.06004150002263;206.06004150002263;206.06004150002263;209.08125289995223;209.08125289995223;209.08125289995223;209.08125289995223;209.08125289995223;209.08125289995223;['c', 'a', 'z', 'a', 'd', 'o', 'r'];0;[0.8398693001363426, 0.9634837000630796, 1.3113853000104427, 1.4778754999861121, 1.6727223000489175, 1.854115700116381, 1.916995800100267];cazador;C:\2023\REPSWITCH21092023\REPSWITCH_excgange\REPSWITCH_excgange\data/130103_REPSWITCH1_version1_list3_2023-11-27_15h19.28.558_micRespv1l3_recorded\recording_micRespv1l3_2023-11-27_15h22.49.334.wav;209.08125289995223;209.58134639984928;None;;;;;;130103;001;2023-11-27_15h19.28.558;REPSWITCH1_version1_list3;2022.2.4;143.97189690080214;
REPSWITCH1/PICTURE_381.png;fresa;speak;gold;filler;2;F;2;2;3;1;Stim2_Set1;0;None;40;39;40;0;39;39;39;;;;;;;;;;;;;;;;;;;;;;;209.58134639984928;210.657894999953;210.657894999953;210.657894999953;210.657894999953;210.657894999953;210.657894999953;210.657894999953;210.657894999953;213.68603979982436;213.68603979982436;213.68603979982436;213.68603979982436;213.68603979982436;213.68603979982436;None;0;;;C:\2023\REPSWITCH21092023\REPSWITCH_excgange\REPSWITCH_excgange\data/130103_REPSWITCH1_version1_list3_2023-11-27_15h19.28.558_micRespv1l3_recorded\recording_micRespv1l3_2023-11-27_15h22.53.933.wav;213.68603979982436;;None;;;;;;130103;001;2023-11-27_15h19.28.558;REPSWITCH1_version1_list3;2022.2.4;143.97189690080214;
REPSWITCH1/PICTURE_19.png;pavo;type;darkblue;filler;1;F;2;2;3;1;Stim5_Set1;0;None;41;40;41;0;40;40;40;;;;;;;;;;;;;;;;;;;;;;;214.1860994999297;215.31133769988082;215.31133769988082;215.31133769988082;215.31133769988082;215.31133769988082;215.31133769988082;215.31133769988082;215.31133769988082;218.33944249991328;218.33944249991328;218.33944249991328;218.33944249991328;218.33944249991328;218.33944249991328;['p', 'a', 'v', 'o'];0;[1.026667300146073, 1.1203749000560492, 1.5128663999494165, 1.6583972999360412];pavo;C:\2023\REPSWITCH21092023\REPSWITCH_excgange\REPSWITCH_excgange\data/130103_REPSWITCH1_version1_list3_2023-11-27_15h19.28.558_micRespv1l3_recorded\recording_micRespv1l3_2023-11-27_15h22.58.586.wav;218.33944249991328;;None;;;;;;130103;001;2023-11-27_15h19.28.558;REPSWITCH1_version1_list3;2022.2.4;143.97189690080214;
REPSWITCH1/PICTURE_517.png;cuerda;speak;gold;nontarget;2;NT;2;2;3;1;Stim4_Set2;1;switch;42;41;42;0;41;41;41;;;;;;;;;;;;;;;;;;;;;;;218.8395104999654;219.95076339994557;219.95076339994557;219.95076339994557;219.95076339994557;219.95076339994557;219.95076339994557;219.95076339994557;219.95076339994557;222.97891830001026;222.97891830001026;222.97891830001026;222.97891830001026;222.97891830001026;222.97891830001026;None;0;;;C:\2023\REPSWITCH21092023\REPSWITCH_excgange\REPSWITCH_excgange\data/130103_REPSWITCH1_version1_list3_2023-11-27_15h19.28.558_micRespv1l3_recorded\recording_micRespv1l3_2023-11-27_15h23.03.226.wav;222.97891830001026;;None;;;;;;130103;001;2023-11-27_15h19.28.558;REPSWITCH1_version1_list3;2022.2.4;143.97189690080214;
REPSWITCH1/PICTURE_517.png;cuerda;speak;gold;repeat;2;T;2;2;3;1;Stim4_Set2;0;None;43;42;43;0;42;42;42;;;;;;;;;;;;;;;;;;;;;;;223.47898070001975;224.63889179984108;224.63889179984108;224.63889179984108;224.63889179984108;224.63889179984108;224.63889179984108;224.63889179984108;224.63889179984108;227.6601284998469;227.6601284998469;227.6601284998469;227.6601284998469;227.6601284998469;227.6601284998469;None;0;;;C:\2023\REPSWITCH21092023\REPSWITCH_excgange\REPSWITCH_excgange\data/130103_REPSWITCH1_version1_list3_2023-11-27_15h19.28.558_micRespv1l3_recorded\recording_micRespv1l3_2023-11-27_15h23.07.914.wav;227.6601284998469;228.1602547999937;None;;;;;;130103;001;2023-11-27_15h19.28.558;REPSWITCH1_version1_list3;2022.2.4;143.97189690080214;
REPSWITCH1/PICTURE_178.png;puente;type;darkblue;filler;1;F;2;2;3;1;Stim1_Set1;0;None;44;43;44;0;43;43;43;;;;;;;;;;;;;;;;;;;;;;;228.1602547999937;229.24364959984086;229.24364959984086;229.24364959984086;229.24364959984086;229.24364959984086;229.24364959984086;229.24364959984086;229.24364959984086;232.26486989995465;232.26486989995465;232.26486989995465;232.26486989995465;232.26486989995465;232.26486989995465;['p', 'u', 'u', 'n', 'e', 't', 'backspace', 'backspace', 'backspace', 'backspace'];0;[1.1309221000410616, 1.389035299886018, 1.674072900088504, 1.8514944000635296, 1.933253200026229, 2.1554624000564218, 2.555457100039348, 2.697136400034651, 2.7669128000270575, 2.885827000020072];pu;C:\2023\REPSWITCH21092023\REPSWITCH_excgange\REPSWITCH_excgange\data/130103_REPSWITCH1_version1_list3_2023-11-27_15h19.28.558_micRespv1l3_recorded\recording_micRespv1l3_2023-11-27_15h23.12.518.wav;232.26486989995465;232.76492680003867;None;;;;;;130103;001;2023-11-27_15h19.28.558;REPSWITCH1_version1_list3;2022.2.4;143.97189690080214;
REPSWITCH1/PICTURE_199.png;falda;speak;gold;nontarget;2;NT;2;2;3;1;Stim8_Set2;1;switch;45;44;45;0;44;44;44;;;;;;;;;;;;;;;;;;;;;;;232.76492680003867;233.91093869996257;233.91093869996257;233.91093869996257;233.91093869996257;233.91093869996257;233.91093869996257;233.91093869996257;233.91093869996257;236.93910129996948;236.93910129996948;236.93910129996948;236.93910129996948;236.93910129996948;236.93910129996948;None;0;;;C:\2023\REPSWITCH21092023\REPSWITCH_excgange\REPSWITCH_excgange\data/130103_REPSWITCH1_version1_list3_2023-11-27_15h19.28.558_micRespv1l3_recorded\recording_micRespv1l3_2023-11-27_15h23.17.185.wav;236.93910129996948;;None;;;;;;130103;001;2023-11-27_15h19.28.558;REPSWITCH1_version1_list3;2022.2.4;143.97189690080214;
REPSWITCH1/PICTURE_199.png;falda;speak;gold;repeat;2;T;2;2;3;1;Stim8_Set2;0;None;46;45;46;0;45;45;45;;;;;;;;;;;;;;;;;;;;;;;237.43917639995925;238.5295777998399;238.5295777998399;238.5295777998399;238.5295777998399;238.5295777998399;238.5295777998399;238.5295777998399;238.5295777998399;241.55082020000555;241.55082020000555;241.55082020000555;241.55082020000555;241.55082020000555;241.55082020000555;None;0;;;C:\2023\REPSWITCH21092023\REPSWITCH_excgange\REPSWITCH_excgange\data/130103_REPSWITCH1_version1_list3_2023-11-27_15h19.28.558_micRespv1l3_recorded\recording_micRespv1l3_2023-11-27_15h23.21.804.wav;241.55082020000555;242.05086670001037;None;;;;;;130103;001;2023-11-27_15h19.28.558;REPSWITCH1_version1_list3;2022.2.4;143.97189690080214;
REPSWITCH1/PICTURE_169.png;espalda;type;darkblue;filler;1;F;2;2;3;1;Stim8_Set1;0;None;47;46;47;0;46;46;46;;;;;;;;;;;;;;;;;;;;;;;242.05086670001037;243.1690809999127;243.1690809999127;243.1690809999127;243.1690809999127;243.1690809999127;243.1690809999127;243.1690809999127;243.1690809999127;246.1903275998775;246.1903275998775;246.1903275998775;246.1903275998775;246.1903275998775;246.1903275998775;['e', 's', 'p', 'a', 'l', 'd', 'a'];0;[0.8151235999539495, 0.9745714999735355, 1.1738758999854326, 1.2924819998443127, 1.361286300001666, 1.5174670999404043, 1.6241078998427838];espalda;C:\2023\REPSWITCH21092023\REPSWITCH_excgange\REPSWITCH_excgange\data/130103_REPSWITCH1_version1_list3_2023-11-27_15h19.28.558_micRespv1l3_recorded\recording_micRespv1l3_2023-11-27_15h23.26.442.wav;246.1903275998775;246.69038689997979;None;;;;;;130103;001;2023-11-27_15h19.28.558;REPSWITCH1_version1_list3;2022.2.4;143.97189690080214;
REPSWITCH1/PICTURE_142.png;vaso;speak;gold;filler;2;F;2;2;3;1;Stim7_Set1;0;None;48;47;48;0;47;47;47;;;;;;;;;;;;;;;;;;;;;;;246.69038689997979;247.89888449991122;247.89888449991122;247.89888449991122;247.89888449991122;247.89888449991122;247.89888449991122;247.89888449991122;247.89888449991122;250.9270335000474;250.9270335000474;250.9270335000474;250.9270335000474;250.9270335000474;250.9270335000474;None;0;;;C:\2023\REPSWITCH21092023\REPSWITCH_excgange\REPSWITCH_excgange\data/130103_REPSWITCH1_version1_list3_2023-11-27_15h19.28.558_micRespv1l3_recorded\recording_micRespv1l3_2023-11-27_15h23.31.174.wav;250.9270335000474;251.42710199998692;None;;;;;;130103;001;2023-11-27_15h19.28.558;REPSWITCH1_version1_list3;2022.2.4;143.97189690080214;
REPSWITCH1/PICTURE_552.png;manzana;speak;gold;nontarget;2;NT;2;2;3;1;Stim6_Set2;0;None;49;48;49;0;48;48;48;;;;;;;;;;;;;;;;;;;;;;;251.42710199998692;252.44814949994907;252.44814949994907;252.44814949994907;252.44814949994907;252.44814949994907;252.44814949994907;252.44814949994907;252.44814949994907;255.4762695999816;255.4762695999816;255.4762695999816;255.4762695999816;255.4762695999816;255.4762695999816;None;0;;;C:\2023\REPSWITCH21092023\REPSWITCH_excgange\REPSWITCH_excgange\data/130103_REPSWITCH1_version1_list3_2023-11-27_15h19.28.558_micRespv1l3_recorded\recording_micRespv1l3_2023-11-27_15h23.35.723.wav;255.4762695999816;;None;;;;;;130103;001;2023-11-27_15h19.28.558;REPSWITCH1_version1_list3;2022.2.4;143.97189690080214;
REPSWITCH1/PICTURE_552.png;manzana;type;darkblue;switch;1;T;2;2;3;1;Stim6_Set2;0;None;50;49;50;0;49;49;49;;;;;;;;;;;;;;;;;;;;;;;255.97631499986164;257.00431340001523;257.00431340001523;257.00431340001523;257.00431340001523;257.00431340001523;257.00431340001523;257.00431340001523;257.00431340001523;260.0324140000157;260.0324140000157;260.0324140000157;260.0324140000157;260.0324140000157;260.0324140000157;['m', 'a', 'n', 'z', 'a', 'n', 'a'];0;[0.7897279998287559, 0.9342249999754131, 0.9790808998513967, 1.2257431999314576, 1.4329570999834687, 1.5964803998358548, 1.6963824999984354];manzana;C:\2023\REPSWITCH21092023\REPSWITCH_excgange\REPSWITCH_excgange\data/130103_REPSWITCH1_version1_list3_2023-11-27_15h19.28.558_micRespv1l3_recorded\recording_micRespv1l3_2023-11-27_15h23.40.280.wav;260.0324140000157;260.53244309988804;None;;;;;;130103;001;2023-11-27_15h19.28.558;REPSWITCH1_version1_list3;2022.2.4;143.97189690080214;
REPSWITCH1/PICTURE_590.png;escoba;speak;gold;filler;2;F;1;2;3;1;Extra3;0;None;51;50;51;0;50;50;50;;;;;;;;;;;;;;;;;;;;;;;260.53244309988804;261.5604099999182;261.5604099999182;261.5604099999182;261.5604099999182;261.5604099999182;261.5604099999182;261.5604099999182;261.5604099999182;264.58857789984904;264.58857789984904;264.58857789984904;264.58857789984904;264.58857789984904;264.58857789984904;None;0;;;C:\2023\REPSWITCH21092023\REPSWITCH_excgange\REPSWITCH_excgange\data/130103_REPSWITCH1_version1_list3_2023-11-27_15h19.28.558_micRespv1l3_recorded\recording_micRespv1l3_2023-11-27_15h23.44.835.wav;264.58857789984904;265.088642799994;space;265.088642799994;265.088642799994;14.651803199900314;;;130103;001;2023-11-27_15h19.28.558;REPSWITCH1_version1_list3;2022.2.4;143.97189690080214;
REPSWITCH1/PICTURE_552.png;manzana;type;darkblue;filler;1;F;3;2;3;1;Stim6_Set2;0;None;52;51;52;0;51;51;51;;;;;;;;;;;;;;;;;;;;;;;279.7502937000245;280.85466469987296;280.85466469987296;280.85466469987296;280.85466469987296;280.85466469987296;280.85466469987296;280.85466469987296;280.85466469987296;283.88278650003485;283.88278650003485;283.88278650003485;283.88278650003485;283.88278650003485;283.88278650003485;['m', 'a', 'n', 'z', 'a', 'n', 'a'];0;[0.8453741001430899, 0.9380596000701189, 1.137701400090009, 1.3111050000879914, 1.498486900003627, 1.9214618001133204, 2.0413663000799716];manzana;C:\2023\REPSWITCH21092023\REPSWITCH_excgange\REPSWITCH_excgange\data/130103_REPSWITCH1_version1_list3_2023-11-27_15h19.28.558_micRespv1l3_recorded\recording_micRespv1l3_2023-11-27_15h24.04.129.wav;283.88278650003485;;None;;;;;;130103;001;2023-11-27_15h19.28.558;REPSWITCH1_version1_list3;2022.2.4;143.97189690080214;
REPSWITCH1/PICTURE_464.png;goma;type;darkblue;nontarget;1;NT;3;2;3;1;Stim6_Set3;1;repeat;53;52;53;0;52;52;52;;;;;;;;;;;;;;;;;;;;;;;284.3829021998681;285.4385498999618;285.4385498999618;285.4385498999618;285.4385498999618;285.4385498999618;285.4385498999618;285.4385498999618;285.4385498999618;288.45976189989597;288.45976189989597;288.45976189989597;288.45976189989597;288.45976189989597;288.45976189989597;['g', 'o', 'm', 'a'];0;[0.9935794998891652, 1.1351339998655021, 1.2039051000028849, 1.2896129000000656];goma;C:\2023\REPSWITCH21092023\REPSWITCH_excgange\REPSWITCH_excgange\data/130103_REPSWITCH1_version1_list3_2023-11-27_15h19.28.558_micRespv1l3_recorded\recording_micRespv1l3_2023-11-27_15h24.08.712.wav;288.45976189989597;288.95982119999826;None;;;;;;130103;001;2023-11-27_15h19.28.558;REPSWITCH1_version1_list3;2022.2.4;143.97189690080214;
REPSWITCH1/PICTURE_464.png;goma;speak;gold;switch;2;T;3;2;3;1;Stim6_Set3;0;None;54;53;54;0;53;53;53;;;;;;;;;;;;;;;;;;;;;;;288.95982119999826;290.001634699991;290.001634699991;290.001634699991;290.001634699991;290.001634699991;290.001634699991;290.001634699991;290.001634699991;293.0228452999145;293.0228452999145;293.0228452999145;293.0228452999145;293.0228452999145;293.0228452999145;None;0;;;C:\2023\REPSWITCH21092023\REPSWITCH_excgange\REPSWITCH_excgange\data/130103_REPSWITCH1_version1_list3_2023-11-27_15h19.28.558_micRespv1l3_recorded\recording_micRespv1l3_2023-11-27_15h24.13.276.wav;293.0228452999145;293.5228979999665;None;;;;;;130103;001;2023-11-27_15h19.28.558;REPSWITCH1_version1_list3;2022.2.4;143.97189690080214;
REPSWITCH1/PICTURE_30.png;granja;speak;gold;filler;2;F;3;2;3;1;Stim5_Set2;0;None;55;54;55;0;54;54;54;;;;;;;;;;;;;;;;;;;;;;;293.5228979999665;294.61336519988254;294.61336519988254;294.61336519988254;294.61336519988254;294.61336519988254;294.61336519988254;294.61336519988254;294.61336519988254;297.63458489999175;297.63458489999175;297.63458489999175;297.63458489999175;297.63458489999175;297.63458489999175;None;0;;;C:\2023\REPSWITCH21092023\REPSWITCH_excgange\REPSWITCH_excgange\data/130103_REPSWITCH1_version1_list3_2023-11-27_15h19.28.558_micRespv1l3_recorded\recording_micRespv1l3_2023-11-27_15h24.17.888.wav;297.63458489999175;298.13464199984446;None;;;;;;130103;001;2023-11-27_15h19.28.558;REPSWITCH1_version1_list3;2022.2.4;143.97189690080214;
REPSWITCH1/PICTURE_235.png;aguja;speak;gold;nontarget;2;NT;3;2;3;1;Stim4_Set3;1;repeat;56;55;56;0;55;55;55;;;;;;;;;;;;;;;;;;;;;;;298.13464199984446;299.2389525999315;299.2389525999315;299.2389525999315;299.2389525999315;299.2389525999315;299.2389525999315;299.2389525999315;299.2389525999315;302.26024360000156;302.26024360000156;302.26024360000156;302.26024360000156;302.26024360000156;302.26024360000156;None;0;;;C:\2023\REPSWITCH21092023\REPSWITCH_excgange\REPSWITCH_excgange\data/130103_REPSWITCH1_version1_list3_2023-11-27_15h19.28.558_micRespv1l3_recorded\recording_micRespv1l3_2023-11-27_15h24.22.513.wav;302.26024360000156;302.76025259983726;None;;;;;;130103;001;2023-11-27_15h19.28.558;REPSWITCH1_version1_list3;2022.2.4;143.97189690080214;
REPSWITCH1/PICTURE_235.png;aguja;type;darkblue;switch;1;T;3;2;3;1;Stim4_Set3;0;None;57;56;57;0;56;56;56;;;;;;;;;;;;;;;;;;;;;;;302.76025259983726;303.8576022000052;303.8576022000052;303.8576022000052;303.8576022000052;303.8576022000052;303.8576022000052;303.8576022000052;303.8576022000052;306.8788570999168;306.8788570999168;306.8788570999168;306.8788570999168;306.8788570999168;306.8788570999168;['a', 'g', 'u', 'j', 'a'];0;[0.821916300104931, 1.1969492000062019, 1.2796757000032812, 1.4372348999604583, 1.5398027000483125];aguja;C:\2023\REPSWITCH21092023\REPSWITCH_excgange\REPSWITCH_excgange\data/130103_REPSWITCH1_version1_list3_2023-11-27_15h19.28.558_micRespv1l3_recorded\recording_micRespv1l3_2023-11-27_15h24.27.132.wav;306.8788570999168;307.3788838000037;None;;;;;;130103;001;2023-11-27_15h19.28.558;REPSWITCH1_version1_list3;2022.2.4;143.97189690080214;
REPSWITCH1/PICTURE_391.png;cadena;type;darkblue;filler;1;F;3;2;3;1;Extra2;0;None;58;57;58;0;57;57;57;;;;;;;;;;;;;;;;;;;;;;;307.3788838000037;308.44154429994524;308.44154429994524;308.44154429994524;308.44154429994524;308.44154429994524;308.44154429994524;308.44154429994524;308.44154429994524;311.46980369999073;311.46980369999073;311.46980369999073;311.46980369999073;311.46980369999073;311.46980369999073;['c', 'a', 'd', 'e', 'n', 'a'];0;[0.8068611999042332, 0.8786142999306321, 1.105950400000438, 1.2576435001101345, 1.3716253000311553, 1.4719605999998748];cadena;C:\2023\REPSWITCH21092023\REPSWITCH_excgange\REPSWITCH_excgange\data/130103_REPSWITCH1_version1_list3_2023-11-27_15h19.28.558_micRespv1l3_recorded\recording_micRespv1l3_2023-11-27_15h24.31.716.wav;311.46980369999073;;None;;;;;;130103;001;2023-11-27_15h19.28.558;REPSWITCH1_version1_list3;2022.2.4;143.97189690080214;
REPSWITCH1/PICTURE_320.png;iglesia;type;darkblue;nontarget;1;NT;3;2;3;1;Stim8_Set3;0;None;59;58;59;0;58;58;58;;;;;;;;;;;;;;;;;;;;;;;311.96979200001806;313.1157631999813;313.1157631999813;313.1157631999813;313.1157631999813;313.1157631999813;313.1157631999813;313.1157631999813;313.1157631999813;316.1369701998774;316.1369701998774;316.1369701998774;316.1369701998774;316.1369701998774;316.1369701998774;['i', 'g', 'l', 'e', 's', 'a', 'backspace'];0;[1.026031200075522, 1.1954562000464648, 1.3180432000663131, 1.4416438001208007, 1.655924600083381, 2.065550200175494, 2.787220200058073];igles;C:\2023\REPSWITCH21092023\REPSWITCH_excgange\REPSWITCH_excgange\data/130103_REPSWITCH1_version1_list3_2023-11-27_15h19.28.558_micRespv1l3_recorded\recording_micRespv1l3_2023-11-27_15h24.36.391.wav;316.1369701998774;316.63711779983714;None;;;;;;130103;001;2023-11-27_15h19.28.558;REPSWITCH1_version1_list3;2022.2.4;143.97189690080214;
REPSWITCH1/PICTURE_320.png;iglesia;speak;gold;switch;2;T;3;2;3;1;Stim8_Set3;0;None;60;59;60;0;59;59;59;;;;;;;;;;;;;;;;;;;;;;;316.63711779983714;317.81084029981866;317.81084029981866;317.81084029981866;317.81084029981866;317.81084029981866;317.81084029981866;317.81084029981866;317.81084029981866;320.83898799982853;320.83898799982853;320.83898799982853;320.83898799982853;320.83898799982853;320.83898799982853;None;0;;;C:\2023\REPSWITCH21092023\REPSWITCH_excgange\REPSWITCH_excgange\data/130103_REPSWITCH1_version1_list3_2023-11-27_15h19.28.558_micRespv1l3_recorded\recording_micRespv1l3_2023-11-27_15h24.41.085.wav;320.83898799982853;;None;;;;;;130103;001;2023-11-27_15h19.28.558;REPSWITCH1_version1_list3;2022.2.4;143.97189690080214;
REPSWITCH1/PICTURE_175.png;pintor;type;darkblue;filler;1;F;3;2;3;1;Stim1_Set2;0;None;61;60;61;0;60;60;60;;;;;;;;;;;;;;;;;;;;;;;321.33912509982474;322.49201379995793;322.49201379995793;322.49201379995793;322.49201379995793;322.49201379995793;322.49201379995793;322.49201379995793;322.49201379995793;325.5201852999162;325.5201852999162;325.5201852999162;325.5201852999162;325.5201852999162;325.5201852999162;['p', 'i', 'n', 'm', 't', 'r', 'backspace', 'backspace', 'backspace', 't', 'o'];0;[0.8987472001463175, 1.1539331001695246, 1.323522899998352, 1.327488300157711, 1.494031400186941, 1.7401876000221819, 1.9936128000263125, 2.146180300042033, 2.2736728000454605, 2.833865800173953, 2.904736900003627];pinto;C:\2023\REPSWITCH21092023\REPSWITCH_excgange\REPSWITCH_excgange\data/130103_REPSWITCH1_version1_list3_2023-11-27_15h19.28.558_micRespv1l3_recorded\recording_micRespv1l3_2023-11-27_15h24.45.767.wav;325.5201852999162;326.0202454000246;None;;;;;;130103;001;2023-11-27_15h19.28.558;REPSWITCH1_version1_list3;2022.2.4;143.97189690080214;
REPSWITCH1/PICTURE_271.png;conejo;speak;gold;nontarget;2;NT;3;2;3;1;Stim7_Set3;1;switch;62;61;62;0;61;61;61;;;;;;;;;;;;;;;;;;;;;;;326.0202454000246;327.1106465999037;327.1106465999037;327.1106465999037;327.1106465999037;327.1106465999037;327.1106465999037;327.1106465999037;327.1106465999037;330.13887639995664;330.13887639995664;330.13887639995664;330.13887639995664;330.13887639995664;330.13887639995664;None;0;;;C:\2023\REPSWITCH21092023\REPSWITCH_excgange\REPSWITCH_excgange\data/130103_REPSWITCH1_version1_list3_2023-11-27_15h19.28.558_micRespv1l3_recorded\recording_micRespv1l3_2023-11-27_15h24.50.386.wav;330.13887639995664;;None;;;;;;130103;001;2023-11-27_15h19.28.558;REPSWITCH1_version1_list3;2022.2.4;143.97189690080214;
REPSWITCH1/PICTURE_271.png;conejo;speak;gold;repeat;2;T;3;2;3;1;Stim7_Set3;0;None;63;62;63;0;62;62;62;;;;;;;;;;;;;;;;;;;;;;;330.6389569998719;331.7641312999185;331.7641312999185;331.7641312999185;331.7641312999185;331.7641312999185;331.7641312999185;331.7641312999185;331.7641312999185;334.7852862;334.7852862;334.7852862;334.7852862;334.7852862;334.7852862;None;0;;;C:\2023\REPSWITCH21092023\REPSWITCH_excgange\REPSWITCH_excgange\data/130103_REPSWITCH1_version1_list3_2023-11-27_15h19.28.558_micRespv1l3_recorded\recording_micRespv1l3_2023-11-27_15h24.55.038.wav;334.7852862;335.28534309985116;None;;;;;;130103;001;2023-11-27_15h19.28.558;REPSWITCH1_version1_list3;2022.2.4;143.97189690080214;
REPSWITCH1/PICTURE_446.png;cerdo;speak;gold;filler;2;F;3;2;3;1;Stim7_Set2;0;None;64;63;64;0;63;63;63;;;;;;;;;;;;;;;;;;;;;;;335.28534309985116;336.34111209982075;336.34111209982075;336.34111209982075;336.34111209982075;336.34111209982075;336.34111209982075;336.34111209982075;336.34111209982075;339.3692248999141;339.3692248999141;339.3692248999141;339.3692248999141;339.3692248999141;339.3692248999141;None;0;;;C:\2023\REPSWITCH21092023\REPSWITCH_excgange\REPSWITCH_excgange\data/130103_REPSWITCH1_version1_list3_2023-11-27_15h19.28.558_micRespv1l3_recorded\recording_micRespv1l3_2023-11-27_15h24.59.616.wav;339.3692248999141;;None;;;;;;130103;001;2023-11-27_15h19.28.558;REPSWITCH1_version1_list3;2022.2.4;143.97189690080214;
REPSWITCH1/PICTURE_152.png;caracol;type;darkblue;filler;1;F;3;2;3;1;Stim2_Set2;0;None;65;64;65;0;64;64;64;;;;;;;;;;;;;;;;;;;;;;;339.8693176000379;341.04304279992357;341.04304279992357;341.04304279992357;341.04304279992357;341.04304279992357;341.04304279992357;341.04304279992357;341.04304279992357;344.07123270002194;344.07123270002194;344.07123270002194;344.07123270002194;344.07123270002194;344.07123270002194;['c', 'a', 'r', 'a', 'c', 'o', 'l'];0;[0.847188499988988, 0.9292403999716043, 1.1318757000844926, 1.2953280999790877, 1.5056173000484705, 1.6222208999097347, 1.7630648000631481];caracol;C:\2023\REPSWITCH21092023\REPSWITCH_excgange\REPSWITCH_excgange\data/130103_REPSWITCH1_version1_list3_2023-11-27_15h19.28.558_micRespv1l3_recorded\recording_micRespv1l3_2023-11-27_15h25.04.318.wav;344.07123270002194;;None;;;;;;130103;001;2023-11-27_15h19.28.558;REPSWITCH1_version1_list3;2022.2.4;143.97189690080214;
REPSWITCH1/PICTURE_576.png;guante;speak;gold;nontarget;2;NT;3;2;3;1;Stim1_Set3;1;switch;66;65;66;0;65;65;65;;;;;;;;;;;;;;;;;;;;;;;344.5712808999233;345.6825588999782;345.6825588999782;345.6825588999782;345.6825588999782;345.6825588999782;345.6825588999782;345.6825588999782;345.6825588999782;348.7037855000235;348.7037855000235;348.7037855000235;348.7037855000235;348.7037855000235;348.7037855000235;None;0;;;C:\2023\REPSWITCH21092023\REPSWITCH_excgange\REPSWITCH_excgange\data/130103_REPSWITCH1_version1_list3_2023-11-27_15h19.28.558_micRespv1l3_recorded\recording_micRespv1l3_2023-11-27_15h25.08.957.wav;348.7037855000235;349.2038253999781;None;;;;;;130103;001;2023-11-27_15h19.28.558;REPSWITCH1_version1_list3;2022.2.4;143.97189690080214;
REPSWITCH1/PICTURE_576.png;guante;speak;gold;repeat;2;T;3;2;3;1;Stim1_Set3;0;None;67;66;67;0;66;66;66;;;;;;;;;;;;;;;;;;;;;;;349.2038253999781;350.2664888999425;350.2664888999425;350.2664888999425;350.2664888999425;350.2664888999425;350.2664888999425;350.2664888999425;350.2664888999425;353.2946676998399;353.2946676998399;353.2946676998399;353.2946676998399;353.2946676998399;353.2946676998399;None;0;;;C:\2023\REPSWITCH21092023\REPSWITCH_excgange\REPSWITCH_excgange\data/130103_REPSWITCH1_version1_list3_2023-11-27_15h19.28.558_micRespv1l3_recorded\recording_micRespv1l3_2023-11-27_15h25.13.541.wav;353.2946676998399;;None;;;;;;130103;001;2023-11-27_15h19.28.558;REPSWITCH1_version1_list3;2022.2.4;143.97189690080214;
REPSWITCH1/PICTURE_242.png;cartero;speak;gold;nontarget;2;NT;3;2;3;1;Stim3_Set3;0;None;68;67;68;0;67;67;67;;;;;;;;;;;;;;;;;;;;;;;353.79472899995744;354.8920980000403;354.8920980000403;354.8920980000403;354.8920980000403;354.8920980000403;354.8920980000403;354.8920980000403;354.8920980000403;357.9133871998638;357.9133871998638;357.9133871998638;357.9133871998638;357.9133871998638;357.9133871998638;None;0;;;C:\2023\REPSWITCH21092023\REPSWITCH_excgange\REPSWITCH_excgange\data/130103_REPSWITCH1_version1_list3_2023-11-27_15h19.28.558_micRespv1l3_recorded\recording_micRespv1l3_2023-11-27_15h25.18.166.wav;357.9133871998638;358.4133873998653;None;;;;;;130103;001;2023-11-27_15h19.28.558;REPSWITCH1_version1_list3;2022.2.4;143.97189690080214;
REPSWITCH1/PICTURE_242.png;cartero;type;darkblue;switch;1;T;3;2;3;1;Stim3_Set3;0;None;69;68;69;0;68;68;68;;;;;;;;;;;;;;;;;;;;;;;358.4133873998653;359.5594353999477;359.5594353999477;359.5594353999477;359.5594353999477;359.5594353999477;359.5594353999477;359.5594353999477;359.5594353999477;362.58755850000307;362.58755850000307;362.58755850000307;362.58755850000307;362.58755850000307;362.58755850000307;['c', 'a', 'r', 't', 'e', 'r', 't', 'p', 'backspace', 'backspace', 'r', 'o'];0;[0.700298799900338, 0.7682705000042915, 1.454731300007552, 1.6719996000174433, 1.8418276000302285, 1.9822468999773264, 1.9862192999571562, 2.2114601999055594, 2.588501200079918, 2.7257636000867933, 2.8201744998805225, 2.9125039000064135];cartero;C:\2023\REPSWITCH21092023\REPSWITCH_excgange\REPSWITCH_excgange\data/130103_REPSWITCH1_version1_list3_2023-11-27_15h19.28.558_micRespv1l3_recorded\recording_micRespv1l3_2023-11-27_15h25.22.834.wav;362.58755850000307;;None;;;;;;130103;001;2023-11-27_15h19.28.558;REPSWITCH1_version1_list3;2022.2.4;143.97189690080214;
REPSWITCH1/PICTURE_517.png;cuerda;speak;gold;filler;2;F;3;2;3;1;Stim4_Set2;0;None;70;69;70;0;69;69;69;;;;;;;;;;;;;;;;;;;;;;;363.0876233999152;364.1710826999042;364.1710826999042;364.1710826999042;364.1710826999042;364.1710826999042;364.1710826999042;364.1710826999042;364.1710826999042;367.1992799998261;367.1992799998261;367.1992799998261;367.1992799998261;367.1992799998261;367.1992799998261;None;0;;;C:\2023\REPSWITCH21092023\REPSWITCH_excgange\REPSWITCH_excgange\data/130103_REPSWITCH1_version1_list3_2023-11-27_15h19.28.558_micRespv1l3_recorded\recording_micRespv1l3_2023-11-27_15h25.27.446.wav;367.1992799998261;;None;;;;;;130103;001;2023-11-27_15h19.28.558;REPSWITCH1_version1_list3;2022.2.4;143.97189690080214;
REPSWITCH1/PICTURE_646.png;tronco;type;darkblue;filler;1;F;3;2;3;1;Extra4;0;None;71;70;71;0;70;70;70;;;;;;;;;;;;;;;;;;;;;;;367.6993324998766;368.92177090002224;368.92177090002224;368.92177090002224;368.92177090002224;368.92177090002224;368.92177090002224;368.92177090002224;368.92177090002224;371.94992829998955;371.94992829998955;371.94992829998955;371.94992829998955;371.94992829998955;371.94992829998955;['t', 'r', 'r', 'backspace', 'backspace', 't', 'r', 'o', 'n', 'o', 'backspace'];0;[0.9920767999719828, 0.9942866000346839, 1.1627022998873144, 1.522578899981454, 1.719053499866277, 2.1623725998215377, 2.325782199855894, 2.4334584998432547, 2.5413390998728573, 2.6898546000011265, 2.9782145000062883];ttron;C:\2023\REPSWITCH21092023\REPSWITCH_excgange\REPSWITCH_excgange\data/130103_REPSWITCH1_version1_list3_2023-11-27_15h19.28.558_micRespv1l3_recorded\recording_micRespv1l3_2023-11-27_15h25.32.196.wav;371.94992829998955;;None;;;;;;130103;001;2023-11-27_15h19.28.558;REPSWITCH1_version1_list3;2022.2.4;143.97189690080214;
REPSWITCH1/PICTURE_35.png;oreja;type;darkblue;nontarget;1;NT;3;2;3;1;Stim5_Set3;1;repeat;72;71;72;0;71;71;71;;;;;;;;;;;;;;;;;;;;;;;372.4499186000321;373.55429150001146;373.55429150001146;373.55429150001146;373.55429150001146;373.55429150001146;373.55429150001146;373.55429150001146;373.55429150001146;376.58244679984637;376.58244679984637;376.58244679984637;376.58244679984637;376.58244679984637;376.58244679984637;['o', 'i', 'r', 'backspace', 'backspace', 'r', 'e', 'j'];0;[1.562102199997753, 1.744448799872771, 1.8381629998330027, 2.1485293000005186, 2.4517005998641253, 2.6012219998519868, 2.714841000037268, 2.909561099950224];orej;C:\2023\REPSWITCH21092023\REPSWITCH_excgange\REPSWITCH_excgange\data/130103_REPSWITCH1_version1_list3_2023-11-27_15h19.28.558_micRespv1l3_recorded\recording_micRespv1l3_2023-11-27_15h25.36.829.wav;376.58244679984637;377.0824978000019;None;;;;;;130103;001;2023-11-27_15h19.28.558;REPSWITCH1_version1_list3;2022.2.4;143.97189690080214;
REPSWITCH1/PICTURE_35.png;oreja;type;darkblue;repeat;1;T;3;2;3;1;Stim5_Set3;0;None;73;72;73;0;72;72;72;;;;;;;;;;;;;;;;;;;;;;;377.0824978000019;378.1382569000125;378.1382569000125;378.1382569000125;378.1382569000125;378.1382569000125;378.1382569000125;378.1382569000125;378.1382569000125;381.1663669999689;381.1663669999689;381.1663669999689;381.1663669999689;381.1663669999689;381.1663669999689;['o', 'r', 'e', 'j', 'a'];0;[0.7851825999096036, 0.9804918000008911, 1.1830884998198599, 1.307704099919647, 1.4032331998459995];oreja;C:\2023\REPSWITCH21092023\REPSWITCH_excgange\REPSWITCH_excgange\data/130103_REPSWITCH1_version1_list3_2023-11-27_15h19.28.558_micRespv1l3_recorded\recording_micRespv1l3_2023-11-27_15h25.41.413.wav;381.1663669999689;;None;;;;;;130103;001;2023-11-27_15h19.28.558;REPSWITCH1_version1_list3;2022.2.4;143.97189690080214;
REPSWITCH1/PICTURE_199.png;falda;speak;gold;filler;2;F;3;2;3;1;Stim8_Set2;0;None;74;73;74;0;73;73;73;;;;;;;;;;;;;;;;;;;;;;;381.6664439998567;382.81937129981816;382.81937129981816;382.81937129981816;382.81937129981816;382.81937129981816;382.81937129981816;382.81937129981816;382.81937129981816;385.84755619987845;385.84755619987845;385.84755619987845;385.84755619987845;385.84755619987845;385.84755619987845;None;0;;;C:\2023\REPSWITCH21092023\REPSWITCH_excgange\REPSWITCH_excgange\data/130103_REPSWITCH1_version1_list3_2023-11-27_15h19.28.558_micRespv1l3_recorded\recording_micRespv1l3_2023-11-27_15h25.46.094.wav;385.84755619987845;386.34761830000207;None;;;;;;130103;001;2023-11-27_15h19.28.558;REPSWITCH1_version1_list3;2022.2.4;143.97189690080214;
REPSWITCH1/PICTURE_610.png;miel;type;darkblue;nontarget;1;NT;3;2;3;1;Stim2_Set3;1;switch;75;74;75;0;74;74;74;;;;;;;;;;;;;;;;;;;;;;;386.34761830000207;387.4658204000443;387.4658204000443;387.4658204000443;387.4658204000443;387.4658204000443;387.4658204000443;387.4658204000443;387.4658204000443;390.4870221000165;390.4870221000165;390.4870221000165;390.4870221000165;390.4870221000165;390.4870221000165;['m', 'i', 'e', 'l'];0;[0.9441688999067992, 1.0591168999671936, 1.156599999871105, 1.2861359999515116];miel;C:\2023\REPSWITCH21092023\REPSWITCH_excgange\REPSWITCH_excgange\data/130103_REPSWITCH1_version1_list3_2023-11-27_15h19.28.558_micRespv1l3_recorded\recording_micRespv1l3_2023-11-27_15h25.50.740.wav;390.4870221000165;390.9871135998983;None;;;;;;130103;001;2023-11-27_15h19.28.558;REPSWITCH1_version1_list3;2022.2.4;143.97189690080214;
REPSWITCH1/PICTURE_610.png;miel;type;darkblue;repeat;1;T;3;2;3;1;Stim2_Set3;0;None;76;75;76;0;75;75;75;;;;;;;;;;;;;;;;;;;;;;;390.9871135998983;392.09843329992145;392.09843329992145;392.09843329992145;392.09843329992145;392.09843329992145;392.09843329992145;392.09843329992145;392.09843329992145;395.12654959992506;395.12654959992506;395.12654959992506;395.12654959992506;395.12654959992506;395.12654959992506;['m', 'i', 'e', 'l'];0;[0.7394958999939263, 0.8802457998972386, 0.9449843000620604, 1.099499899893999];miel;C:\2023\REPSWITCH21092023\REPSWITCH_excgange\REPSWITCH_excgange\data/130103_REPSWITCH1_version1_list3_2023-11-27_15h19.28.558_micRespv1l3_recorded\recording_micRespv1l3_2023-11-27_15h25.55.374.wav;395.12654959992506;;None;;;;;;130103;001;2023-11-27_15h19.28.558;REPSWITCH1_version1_list3;2022.2.4;143.97189690080214;
REPSWITCH1/PICTURE_264.png;mano;type;darkblue;filler;1;F;3;2;3;1;Stim3_Set2;1;repeat;77;76;77;0;76;76;76;;;;;;;;;;;;;;;;;;;;;;;395.62660059984773;396.6684749999549;396.6684749999549;396.6684749999549;396.6684749999549;396.6684749999549;396.6684749999549;396.6684749999549;396.6684749999549;399.6965912999585;399.6965912999585;399.6965912999585;399.6965912999585;399.6965912999585;399.6965912999585;['m', 'a', 'n', 'o'];0;[0.7010305000003427, 0.8126058999914676, 0.9059796999208629, 0.991696499986574];mano;C:\2023\REPSWITCH21092023\REPSWITCH_excgange\REPSWITCH_excgange\data/130103_REPSWITCH1_version1_list3_2023-11-27_15h19.28.558_micRespv1l3_recorded\recording_micRespv1l3_2023-11-27_15h25.59.943.wav;399.6965912999585;;None;;;;;;130103;001;2023-11-27_15h19.28.558;REPSWITCH1_version1_list3;2022.2.4;143.97189690080214;
REPSWITCH1/PICTURE_464.png;goma;speak;gold;filler;2;F;4;2;3;1;Stim6_Set3;0;None;78;77;78;0;77;77;77;;;;;;;;;;;;;;;;;;;;;;;400.1966988998465;401.21067840000615;401.21067840000615;401.21067840000615;401.21067840000615;401.21067840000615;401.21067840000615;401.21067840000615;401.21067840000615;404.23197229998186;404.23197229998186;404.23197229998186;404.23197229998186;404.23197229998186;404.23197229998186;None;0;;;C:\2023\REPSWITCH21092023\REPSWITCH_excgange\REPSWITCH_excgange\data/130103_REPSWITCH1_version1_list3_2023-11-27_15h19.28.558_micRespv1l3_recorded\recording_micRespv1l3_2023-11-27_15h26.04.485.wav;404.23197229998186;404.7319348999299;None;;;;;;130103;001;2023-11-27_15h19.28.558;REPSWITCH1_version1_list3;2022.2.4;143.97189690080214;
REPSWITCH1/PICTURE_8.png;pierna;type;darkblue;nontarget;1;NT;4;2;3;1;Stim3_Set4;1;switch;79;78;79;0;78;78;78;;;;;;;;;;;;;;;;;;;;;;;404.7319348999299;405.89882469992153;405.89882469992153;405.89882469992153;405.89882469992153;405.89882469992153;405.89882469992153;405.89882469992153;405.89882469992153;408.9269436998293;408.9269436998293;408.9269436998293;408.9269436998293;408.9269436998293;408.9269436998293;['p', 'i', 'e', 'r', 'n', 'a'];0;[1.3432275000959635, 1.5256061002146453, 1.617356900125742, 1.762212600093335, 1.9048005000222474, 1.989841700065881];pierna;C:\2023\REPSWITCH21092023\REPSWITCH_excgange\REPSWITCH_excgange\data/130103_REPSWITCH1_version1_list3_2023-11-27_15h19.28.558_micRespv1l3_recorded\recording_micRespv1l3_2023-11-27_15h26.09.173.wav;408.9269436998293;;None;;;;;;130103;001;2023-11-27_15h19.28.558;REPSWITCH1_version1_list3;2022.2.4;143.97189690080214;
REPSWITCH1/PICTURE_8.png;pierna;type;darkblue;repeat;1;T;4;2;3;1;Stim3_Set4;0;None;80;79;80;0;79;79;79;;;;;;;;;;;;;;;;;;;;;;;409.4270108998753;410.5174721998628;410.5174721998628;410.5174721998628;410.5174721998628;410.5174721998628;410.5174721998628;410.5174721998628;410.5174721998628;413.5386830000207;413.5386830000207;413.5386830000207;413.5386830000207;413.5386830000207;413.5386830000207;['p', 'i', 'e', 'r', 'n', 'a'];0;[0.8176989001221955, 1.103857500012964, 1.2025252000894397, 1.365993200102821, 1.4516555999871343, 1.5772707001306117];pierna;C:\2023\REPSWITCH21092023\REPSWITCH_excgange\REPSWITCH_excgange\data/130103_REPSWITCH1_version1_list3_2023-11-27_15h19.28.558_micRespv1l3_recorded\recording_micRespv1l3_2023-11-27_15h26.13.792.wav;413.5386830000207;414.0387516999617;None;;;;;;130103;001;2023-11-27_15h19.28.558;REPSWITCH1_version1_list3;2022.2.4;143.97189690080214;
REPSWITCH1/PICTURE_728.png;pulpo;type;darkblue;nontarget;1;NT;4;2;3;1;Stim8_Set4;1;repeat;81;80;81;0;80;80;80;;;;;;;;;;;;;;;;;;;;;;;414.0387516999617;415.13616849994287;415.13616849994287;415.13616849994287;415.13616849994287;415.13616849994287;415.13616849994287;415.13616849994287;415.13616849994287;418.15738829993643;418.15738829993643;418.15738829993643;418.15738829993643;418.15738829993643;418.15738829993643;['p', 'u', 'l', 'p', 'o'];0;[0.740621600067243, 0.9782189000397921, 1.1556186000816524, 1.3270455000456423, 1.4729041999671608];pulpo;C:\2023\REPSWITCH21092023\REPSWITCH_excgange\REPSWITCH_excgange\data/130103_REPSWITCH1_version1_list3_2023-11-27_15h19.28.558_micRespv1l3_recorded\recording_micRespv1l3_2023-11-27_15h26.18.411.wav;418.15738829993643;418.6574172000401;None;;;;;;130103;001;2023-11-27_15h19.28.558;REPSWITCH1_version1_list3;2022.2.4;143.97189690080214;
REPSWITCH1/PICTURE_728.png;pulpo;speak;gold;switch;2;T;4;2;3;1;Stim8_Set4;0;None;82;81;82;0;81;81;81;;;;;;;;;;;;;;;;;;;;;;;418.6574172000401;419.69920349982567;419.69920349982567;419.69920349982567;419.69920349982567;419.69920349982567;419.69920349982567;419.69920349982567;419.69920349982567;422.7274215000216;422.7274215000216;422.7274215000216;422.7274215000216;422.7274215000216;422.7274215000216;None;0;;;C:\2023\REPSWITCH21092023\REPSWITCH_excgange\REPSWITCH_excgange\data/130103_REPSWITCH1_version1_list3_2023-11-27_15h19.28.558_micRespv1l3_recorded\recording_micRespv1l3_2023-11-27_15h26.22.974.wav;422.7274215000216;;None;;;;;;130103;001;2023-11-27_15h19.28.558;REPSWITCH1_version1_list3;2022.2.4;143.97189690080214;
REPSWITCH1/PICTURE_235.png;aguja;type;darkblue;filler;1;F;4;2;3;1;Stim4_Set3;0;None;83;82;83;0;82;82;82;;;;;;;;;;;;;;;;;;;;;;;423.22752459999174;424.26927079982124;424.26927079982124;424.26927079982124;424.26927079982124;424.26927079982124;424.26927079982124;424.26927079982124;424.26927079982124;427.2905291998759;427.2905291998759;427.2905291998759;427.2905291998759;427.2905291998759;427.2905291998759;['a', 'j', 'u', 'backspace', 'backspace', 'g', 'u', 'j', 'a'];0;[1.1139764999970794, 1.2235859998036176, 1.369716899935156, 2.022496399935335, 2.1510067000053823, 2.278547399910167, 2.380244999891147, 2.589954499853775, 2.6568467998877168];aguja;C:\2023\REPSWITCH21092023\REPSWITCH_excgange\REPSWITCH_excgange\data/130103_REPSWITCH1_version1_list3_2023-11-27_15h19.28.558_micRespv1l3_recorded\recording_micRespv1l3_2023-11-27_15h26.27.543.wav;427.2905291998759;427.7905674998183;None;;;;;;130103;001;2023-11-27_15h19.28.558;REPSWITCH1_version1_list3;2022.2.4;143.97189690080214;
REPSWITCH1/PICTURE_498.png;taza;speak;gold;nontarget;2;NT;4;2;3;1;Stim4_Set4;1;switch;84;83;84;0;83;83;83;;;;;;;;;;;;;;;;;;;;;;;427.7905674998183;428.92960449983366;428.92960449983366;428.92960449983366;428.92960449983366;428.92960449983366;428.92960449983366;428.92960449983366;428.92960449983366;431.95776429981925;431.95776429981925;431.95776429981925;431.95776429981925;431.95776429981925;431.95776429981925;None;0;;;C:\2023\REPSWITCH21092023\REPSWITCH_excgange\REPSWITCH_excgange\data/130103_REPSWITCH1_version1_list3_2023-11-27_15h19.28.558_micRespv1l3_recorded\recording_micRespv1l3_2023-11-27_15h26.32.205.wav;431.95776429981925;;None;;;;;;130103;001;2023-11-27_15h19.28.558;REPSWITCH1_version1_list3;2022.2.4;143.97189690080214;
REPSWITCH1/PICTURE_498.png;taza;speak;gold;repeat;2;T;4;2;3;1;Stim4_Set4;0;None;85;84;85;0;84;84;84;;;;;;;;;;;;;;;;;;;;;;;432.4578129998408;433.534355300013;433.534355300013;433.534355300013;433.534355300013;433.534355300013;433.534355300013;433.534355300013;433.534355300013;436.5555983998347;436.5555983998347;436.5555983998347;436.5555983998347;436.5555983998347;436.5555983998347;None;0;;;C:\2023\REPSWITCH21092023\REPSWITCH_excgange\REPSWITCH_excgange\data/130103_REPSWITCH1_version1_list3_2023-11-27_15h19.28.558_micRespv1l3_recorded\recording_micRespv1l3_2023-11-27_15h26.36.809.wav;436.5555983998347;437.05574560002424;None;;;;;;130103;001;2023-11-27_15h19.28.558;REPSWITCH1_version1_list3;2022.2.4;143.97189690080214;
REPSWITCH1/PICTURE_719.png;baño;speak;gold;nontarget;2;NT;4;2;3;1;Stim2_Set4;0;None;86;85;86;0;85;85;85;;;;;;;;;;;;;;;;;;;;;;;437.05574560002424;438.1530991999898;438.1530991999898;438.1530991999898;438.1530991999898;438.1530991999898;438.1530991999898;438.1530991999898;438.1530991999898;441.18119210004807;441.18119210004807;441.18119210004807;441.18119210004807;441.18119210004807;441.18119210004807;None;0;;;C:\2023\REPSWITCH21092023\REPSWITCH_excgange\REPSWITCH_excgange\data/130103_REPSWITCH1_version1_list3_2023-11-27_15h19.28.558_micRespv1l3_recorded\recording_micRespv1l3_2023-11-27_15h26.41.428.wav;441.18119210004807;;None;;;;;;130103;001;2023-11-27_15h19.28.558;REPSWITCH1_version1_list3;2022.2.4;143.97189690080214;
REPSWITCH1/PICTURE_719.png;baño;type;darkblue;switch;1;T;4;2;3;1;Stim2_Set4;0;None;87;86;87;0;86;86;86;;;;;;;;;;;;;;;;;;;;;;;441.6813433000352;442.7508582000155;442.7508582000155;442.7508582000155;442.7508582000155;442.7508582000155;442.7508582000155;442.7508582000155;442.7508582000155;445.7790208000224;445.7790208000224;445.7790208000224;445.7790208000224;445.7790208000224;445.7790208000224;['b', 'a', 'ñ', 'o'];0;[0.8121058999095112, 0.9332132998388261, 1.153783599846065, 1.2753901998512447];baño;C:\2023\REPSWITCH21092023\REPSWITCH_excgange\REPSWITCH_excgange\data/130103_REPSWITCH1_version1_list3_2023-11-27_15h19.28.558_micRespv1l3_recorded\recording_micRespv1l3_2023-11-27_15h26.46.026.wav;445.7790208000224;;None;;;;;;130103;001;2023-11-27_15h19.28.558;REPSWITCH1_version1_list3;2022.2.4;143.97189690080214;
REPSWITCH1/PICTURE_320.png;iglesia;speak;gold;filler;2;F;4;2;3;1;Stim8_Set3;0;None;88;87;88;0;87;87;87;;;;;;;;;;;;;;;;;;;;;;;446.27910479996353;447.4181288999971;447.4181288999971;447.4181288999971;447.4181288999971;447.4181288999971;447.4181288999971;447.4181288999971;447.4181288999971;450.44631409994327;450.44631409994327;450.44631409994327;450.44631409994327;450.44631409994327;450.44631409994327;None;0;;;C:\2023\REPSWITCH21092023\REPSWITCH_excgange\REPSWITCH_excgange\data/130103_REPSWITCH1_version1_list3_2023-11-27_15h19.28.558_micRespv1l3_recorded\recording_micRespv1l3_2023-11-27_15h26.50.693.wav;450.44631409994327;;None;;;;;;130103;001;2023-11-27_15h19.28.558;REPSWITCH1_version1_list3;2022.2.4;143.97189690080214;
REPSWITCH1/PICTURE_48.png;bombero;type;darkblue;nontarget;1;NT;4;2;3;1;Stim7_Set4;1;switch;89;88;89;0;88;88;88;;;;;;;;;;;;;;;;;;;;;;;450.94637909997255;452.00906199985184;452.00906199985184;452.00906199985184;452.00906199985184;452.00906199985184;452.00906199985184;452.00906199985184;452.00906199985184;455.0371995999012;455.0371995999012;455.0371995999012;455.0371995999012;455.0371995999012;455.0371995999012;['b', 'o', 'm', 'b', 'e', 'r', 'o'];0;[1.2222861000336707, 1.433223000029102, 1.9106434001587331, 2.1251125000417233, 2.2416811999864876, 2.3957790001295507, 2.7012811000458896];bombero;C:\2023\REPSWITCH21092023\REPSWITCH_excgange\REPSWITCH_excgange\data/130103_REPSWITCH1_version1_list3_2023-11-27_15h19.28.558_micRespv1l3_recorded\recording_micRespv1l3_2023-11-27_15h26.55.284.wav;455.0371995999012;;None;;;;;;130103;001;2023-11-27_15h19.28.558;REPSWITCH1_version1_list3;2022.2.4;143.97189690080214;
REPSWITCH1/PICTURE_48.png;bombero;speak;gold;switch;2;T;4;2;3;1;Stim7_Set4;0;None;90;89;90;0;89;89;89;;;;;;;;;;;;;;;;;;;;;;;455.5373354998883;456.662391099846;456.662391099846;456.662391099846;456.662391099846;456.662391099846;456.662391099846;456.662391099846;456.662391099846;459.6905886998866;459.6905886998866;459.6905886998866;459.6905886998866;459.6905886998866;459.6905886998866;None;0;;;C:\2023\REPSWITCH21092023\REPSWITCH_excgange\REPSWITCH_excgange\data/130103_REPSWITCH1_version1_list3_2023-11-27_15h19.28.558_micRespv1l3_recorded\recording_micRespv1l3_2023-11-27_15h26.59.937.wav;459.6905886998866;;None;;;;;;130103;001;2023-11-27_15h19.28.558;REPSWITCH1_version1_list3;2022.2.4;143.97189690080214;
REPSWITCH1/PICTURE_576.png;guante;type;darkblue;filler;1;F;4;2;3;1;Stim1_Set3;0;None;91;90;91;0;90;90;90;;;;;;;;;;;;;;;;;;;;;;;460.19065089989454;461.3436129000038;461.3436129000038;461.3436129000038;461.3436129000038;461.3436129000038;461.3436129000038;461.3436129000038;461.3436129000038;464.3717538998462;464.3717538998462;464.3717538998462;464.3717538998462;464.3717538998462;464.3717538998462;['u', 'backspace', 'backspace', 'g', 'u', 'a', 'n', 't', 'e'];0;[1.083364199846983, 1.5564019999001175, 1.6839679998811334, 1.8105377999600023, 1.9730865999590605, 2.003965900046751, 2.1525466998573393, 2.2466392999049276, 2.3478401999454945];guante;C:\2023\REPSWITCH21092023\REPSWITCH_excgange\REPSWITCH_excgange\data/130103_REPSWITCH1_version1_list3_2023-11-27_15h19.28.558_micRespv1l3_recorded\recording_micRespv1l3_2023-11-27_15h27.04.618.wav;464.3717538998462;;None;;;;;;130103;001;2023-11-27_15h19.28.558;REPSWITCH1_version1_list3;2022.2.4;143.97189690080214;
REPSWITCH1/PICTURE_271.png;conejo;speak;gold;filler;2;F;4;2;3;1;Stim7_Set3;0;None;92;91;92;0;91;91;91;;;;;;;;;;;;;;;;;;;;;;;464.87179709994234;465.9552746999543;465.9552746999543;465.9552746999543;465.9552746999543;465.9552746999543;465.9552746999543;465.9552746999543;465.9552746999543;468.98346389993094;468.98346389993094;468.98346389993094;468.98346389993094;468.98346389993094;468.98346389993094;None;0;;;C:\2023\REPSWITCH21092023\REPSWITCH_excgange\REPSWITCH_excgange\data/130103_REPSWITCH1_version1_list3_2023-11-27_15h19.28.558_micRespv1l3_recorded\recording_micRespv1l3_2023-11-27_15h27.09.231.wav;468.98346389993094;469.48360699997284;None;;;;;;130103;001;2023-11-27_15h19.28.558;REPSWITCH1_version1_list3;2022.2.4;143.97189690080214;
REPSWITCH1/PICTURE_319.png;vaca;speak;gold;nontarget;2;NT;4;2;3;1;Stim1_Set4;1;repeat;93;92;93;0;92;92;92;;;;;;;;;;;;;;;;;;;;;;;469.48360699997284;470.58789389999583;470.58789389999583;470.58789389999583;470.58789389999583;470.58789389999583;470.58789389999583;470.58789389999583;470.58789389999583;473.6159983999096;473.6159983999096;473.6159983999096;473.6159983999096;473.6159983999096;473.6159983999096;None;0;;;C:\2023\REPSWITCH21092023\REPSWITCH_excgange\REPSWITCH_excgange\data/130103_REPSWITCH1_version1_list3_2023-11-27_15h19.28.558_micRespv1l3_recorded\recording_micRespv1l3_2023-11-27_15h27.13.862.wav;473.6159983999096;;None;;;;;;130103;001;2023-11-27_15h19.28.558;REPSWITCH1_version1_list3;2022.2.4;143.97189690080214;
REPSWITCH1/PICTURE_319.png;vaca;speak;gold;repeat;2;T;4;2;3;1;Stim1_Set4;0;None;94;93;94;0;93;93;93;;;;;;;;;;;;;;;;;;;;;;;474.1160873998888;475.2065036999993;475.2065036999993;475.2065036999993;475.2065036999993;475.2065036999993;475.2065036999993;475.2065036999993;475.2065036999993;478.23468939983286;478.23468939983286;478.23468939983286;478.23468939983286;478.23468939983286;478.23468939983286;None;0;;;C:\2023\REPSWITCH21092023\REPSWITCH_excgange\REPSWITCH_excgange\data/130103_REPSWITCH1_version1_list3_2023-11-27_15h19.28.558_micRespv1l3_recorded\recording_micRespv1l3_2023-11-27_15h27.18.480.wav;478.23468939983286;;None;;;;;;130103;001;2023-11-27_15h19.28.558;REPSWITCH1_version1_list3;2022.2.4;143.97189690080214;
REPSWITCH1/PICTURE_242.png;cartero;type;darkblue;filler;1;F;4;2;3;1;Stim3_Set3;0;None;95;94;95;0;94;94;94;;;;;;;;;;;;;;;;;;;;;;;478.7347343999427;479.7974068999756;479.7974068999756;479.7974068999756;479.7974068999756;479.7974068999756;479.7974068999756;479.7974068999756;479.7974068999756;482.825559000019;482.825559000019;482.825559000019;482.825559000019;482.825559000019;482.825559000019;['c', 'a', 'r', 't', 'e', 'r', 'o', 'p'];0;[1.1905808001756668, 1.2603387001436204, 1.769677500007674, 1.9693666000384837, 2.125866899965331, 2.2417795001529157, 2.4969762000255287, 2.5029528001323342];carterop;C:\2023\REPSWITCH21092023\REPSWITCH_excgange\REPSWITCH_excgange\data/130103_REPSWITCH1_version1_list3_2023-11-27_15h19.28.558_micRespv1l3_recorded\recording_micRespv1l3_2023-11-27_15h27.23.072.wav;482.825559000019;;None;;;;;;130103;001;2023-11-27_15h19.28.558;REPSWITCH1_version1_list3;2022.2.4;143.97189690080214;
REPSWITCH1/PICTURE_35.png;oreja;speak;gold;filler;2;F;4;2;3;1;Stim5_Set3;1;switch;96;95;96;0;95;95;95;;;;;;;;;;;;;;;;;;;;;;;483.32563119987026;484.5619258999359;484.5619258999359;484.5619258999359;484.5619258999359;484.5619258999359;484.5619258999359;484.5619258999359;484.5619258999359;487.5900854000356;487.5900854000356;487.5900854000356;487.5900854000356;487.5900854000356;487.5900854000356;None;0;;;C:\2023\REPSWITCH21092023\REPSWITCH_excgange\REPSWITCH_excgange\data/130103_REPSWITCH1_version1_list3_2023-11-27_15h19.28.558_micRespv1l3_recorded\recording_micRespv1l3_2023-11-27_15h27.27.837.wav;487.5900854000356;;None;;;;;;130103;001;2023-11-27_15h19.28.558;REPSWITCH1_version1_list3;2022.2.4;143.97189690080214;
REPSWITCH1/PICTURE_338.png;regalo;speak;gold;nontarget;2;NT;4;2;3;1;Stim6_Set4;1;repeat;97;96;97;0;96;96;96;;;;;;;;;;;;;;;;;;;;;;;488.0901368998457;489.19445129996166;489.19445129996166;489.19445129996166;489.19445129996166;489.19445129996166;489.19445129996166;489.19445129996166;489.19445129996166;492.2226398999337;492.2226398999337;492.2226398999337;492.2226398999337;492.2226398999337;492.2226398999337;None;0;;;C:\2023\REPSWITCH21092023\REPSWITCH_excgange\REPSWITCH_excgange\data/130103_REPSWITCH1_version1_list3_2023-11-27_15h19.28.558_micRespv1l3_recorded\recording_micRespv1l3_2023-11-27_15h27.32.469.wav;492.2226398999337;;None;;;;;;130103;001;2023-11-27_15h19.28.558;REPSWITCH1_version1_list3;2022.2.4;143.97189690080214;
REPSWITCH1/PICTURE_338.png;regalo;type;darkblue;switch;1;T;4;2;3;1;Stim6_Set4;0;None;98;97;98;0;97;97;97;;;;;;;;;;;;;;;;;;;;;;;492.7227679998614;493.8339452999644;493.8339452999644;493.8339452999644;493.8339452999644;493.8339452999644;493.8339452999644;493.8339452999644;493.8339452999644;496.8551541999914;496.8551541999914;496.8551541999914;496.8551541999914;496.8551541999914;496.8551541999914;['r', 'e', 'g', 'a', 'l', 'o', 'p', 'backspace', 'o'];0;[0.814057799987495, 0.9927083000075072, 1.0494753001257777, 1.25806919997558, 1.3807014001067728, 1.5196907999925315, 1.520683899987489, 2.0043586001265794, 2.181745700072497];regalo;C:\2023\REPSWITCH21092023\REPSWITCH_excgange\REPSWITCH_excgange\data/130103_REPSWITCH1_version1_list3_2023-11-27_15h19.28.558_micRespv1l3_recorded\recording_micRespv1l3_2023-11-27_15h27.37.107.wav;496.8551541999914;497.3553157998249;None;;;;;;130103;001;2023-11-27_15h19.28.558;REPSWITCH1_version1_list3;2022.2.4;143.97189690080214;
REPSWITCH1/PICTURE_687.png;camisa;type;darkblue;nontarget;1;NT;4;2;3;1;Stim5_Set4;0;None;99;98;99;0;98;98;98;;;;;;;;;;;;;;;;;;;;;;;497.3553157998249;498.39010609989055;498.39010609989055;498.39010609989055;498.39010609989055;498.39010609989055;498.39010609989055;498.39010609989055;498.39010609989055;501.41828089999035;501.41828089999035;501.41828089999035;501.41828089999035;501.41828089999035;501.41828089999035;['c', 'a', 'm', 'i', 's', 'a'];0;[0.9720999000128359, 1.0598160999361426, 1.2114272001199424, 1.301319400081411, 1.39897850016132, 1.4967662000562996];camisa;C:\2023\REPSWITCH21092023\REPSWITCH_excgange\REPSWITCH_excgange\data/130103_REPSWITCH1_version1_list3_2023-11-27_15h19.28.558_micRespv1l3_recorded\recording_micRespv1l3_2023-11-27_15h27.41.665.wav;501.41828089999035;;None;;;;;;130103;001;2023-11-27_15h19.28.558;REPSWITCH1_version1_list3;2022.2.4;143.97189690080214;
REPSWITCH1/PICTURE_687.png;camisa;type;darkblue;repeat;1;T;4;2;3;1;Stim5_Set4;0;None;100;99;100;0;99;99;99;;;;;;;;;;;;;;;;;;;;;;;501.91835099994205;502.94627119996585;502.94627119996585;502.94627119996585;502.94627119996585;502.94627119996585;502.94627119996585;502.94627119996585;502.94627119996585;505.9744503998663;505.9744503998663;505.9744503998663;505.9744503998663;505.9744503998663;505.9744503998663;['c', 'a', 'm', 'i', 's', 'a'];0;[0.6905282000079751, 0.7762427001725882, 0.901461600093171, 0.99454680015333, 1.081195600097999, 1.1798690999858081];camisa;C:\2023\REPSWITCH21092023\REPSWITCH_excgange\REPSWITCH_excgange\data/130103_REPSWITCH1_version1_list3_2023-11-27_15h19.28.558_micRespv1l3_recorded\recording_micRespv1l3_2023-11-27_15h27.46.221.wav;505.9744503998663;;None;;;;;;130103;001;2023-11-27_15h19.28.558;REPSWITCH1_version1_list3;2022.2.4;143.97189690080214;
REPSWITCH1/PICTURE_340.png;espejo;speak;gold;filler;2;F;4;2;3;1;Extra1;0;None;101;100;101;0;100;100;100;;;;;;;;;;;;;;;;;;;;;;;506.47450649994425;507.5163356999401;507.5163356999401;507.5163356999401;507.5163356999401;507.5163356999401;507.5163356999401;507.5163356999401;507.5163356999401;510.54448319994844;510.54448319994844;510.54448319994844;510.54448319994844;510.54448319994844;510.54448319994844;None;0;;;C:\2023\REPSWITCH21092023\REPSWITCH_excgange\REPSWITCH_excgange\data/130103_REPSWITCH1_version1_list3_2023-11-27_15h19.28.558_micRespv1l3_recorded\recording_micRespv1l3_2023-11-27_15h27.50.791.wav;510.54448319994844;;None;;;;;;130103;001;2023-11-27_15h19.28.558;REPSWITCH1_version1_list3;2022.2.4;143.97189690080214;
REPSWITCH1/PICTURE_610.png;miel;type;darkblue;filler;1;F;4;2;3;1;Stim2_Set3;0;None;102;101;102;0;101;101;101;;;;;;;;;;;;;;;;;;;;;;;511.0445385999046;512.1906012999825;512.1906012999825;512.1906012999825;512.1906012999825;512.1906012999825;512.1906012999825;512.1906012999825;512.1906012999825;515.2187873998191;515.2187873998191;515.2187873998191;515.2187873998191;515.2187873998191;515.2187873998191;['m', 'i', 'e', 'l'];0;[0.8281004000455141, 0.9340242999605834, 1.0759225001093, 1.188881800044328];miel;C:\2023\REPSWITCH21092023\REPSWITCH_excgange\REPSWITCH_excgange\data/130103_REPSWITCH1_version1_list3_2023-11-27_15h19.28.558_micRespv1l3_recorded\recording_micRespv1l3_2023-11-27_15h27.55.465.wav;515.2187873998191;;space;515.7187550999224;515.7187550999224;9.627141800010577;;;130103;001;2023-11-27_15h19.28.558;REPSWITCH1_version1_list3;2022.2.4;143.97189690080214;
REPSWITCH1/PICTURE_8.png;pierna;type;darkblue;filler;1;F;1;4;3;1;Stim3_Set4;0;None;103;102;1;0;102;102;102;;;;;;;;;;;;;;;;;;;;;;;525.3588938999455;526.4355230999645;526.4355230999645;526.4355230999645;526.4355230999645;526.4355230999645;526.4355230999645;526.4355230999645;526.4355230999645;529.4636468999088;529.4636468999088;529.4636468999088;529.4636468999088;529.4636468999088;529.4636468999088;['p', 'i', 'r', 'backspace', 'e', 'r', 'n', 'a'];0;[0.8901374000124633, 1.4193186999764293, 1.7246421000454575, 2.03659849986434, 2.1412672998849303, 2.207050200086087, 2.327605699887499, 2.458194399951026];pierna;C:\2023\REPSWITCH21092023\REPSWITCH_excgange\REPSWITCH_excgange\data/130103_REPSWITCH1_version1_list3_2023-11-27_15h19.28.558_micRespv1l3_recorded\recording_micRespv1l3_2023-11-27_15h28.09.711.wav;529.4636468999088;;None;;;;;;130103;001;2023-11-27_15h19.28.558;REPSWITCH1_version1_list3;2022.2.4;143.97189690080214;
REPSWITCH1/PICTURE_498.png;taza;speak;gold;filler;2;F;1;4;3;1;Stim4_Set4;0;None;104;103;2;0;103;103;103;;;;;;;;;;;;;;;;;;;;;;;529.963692799909;531.1027513998561;531.1027513998561;531.1027513998561;531.1027513998561;531.1027513998561;531.1027513998561;531.1027513998561;531.1027513998561;534.1239574998617;534.1239574998617;534.1239574998617;534.1239574998617;534.1239574998617;534.1239574998617;None;0;;;C:\2023\REPSWITCH21092023\REPSWITCH_excgange\REPSWITCH_excgange\data/130103_REPSWITCH1_version1_list3_2023-11-27_15h19.28.558_micRespv1l3_recorded\recording_micRespv1l3_2023-11-27_15h28.14.378.wav;534.1239574998617;534.6240846000146;None;;;;;;130103;001;2023-11-27_15h19.28.558;REPSWITCH1_version1_list3;2022.2.4;143.97189690080214;
REPSWITCH1/PICTURE_19.png;pavo;speak;gold;nontarget;2;NT;1;4;3;1;Stim5_Set1;1;repeat;105;104;3;0;104;104;104;;;;;;;;;;;;;;;;;;;;;;;534.6240846000146;535.7769541000016;535.7769541000016;535.7769541000016;535.7769541000016;535.7769541000016;535.7769541000016;535.7769541000016;535.7769541000016;538.7982487999834;538.7982487999834;538.7982487999834;538.7982487999834;538.7982487999834;538.7982487999834;None;0;;;C:\2023\REPSWITCH21092023\REPSWITCH_excgange\REPSWITCH_excgange\data/130103_REPSWITCH1_version1_list3_2023-11-27_15h19.28.558_micRespv1l3_recorded\recording_micRespv1l3_2023-11-27_15h28.19.052.wav;538.7982487999834;539.2982725999318;None;;;;;;130103;001;2023-11-27_15h19.28.558;REPSWITCH1_version1_list3;2022.2.4;143.97189690080214;
REPSWITCH1/PICTURE_19.png;pavo;speak;gold;repeat;2;T;1;4;3;1;Stim5_Set1;0;None;106;105;4;0;105;105;105;;;;;;;;;;;;;;;;;;;;;;;539.2982725999318;540.3331410998944;540.3331410998944;540.3331410998944;540.3331410998944;540.3331410998944;540.3331410998944;540.3331410998944;540.3331410998944;543.361343999859;543.361343999859;543.361343999859;543.361343999859;543.361343999859;543.361343999859;None;0;;;C:\2023\REPSWITCH21092023\REPSWITCH_excgange\REPSWITCH_excgange\data/130103_REPSWITCH1_version1_list3_2023-11-27_15h19.28.558_micRespv1l3_recorded\recording_micRespv1l3_2023-11-27_15h28.23.609.wav;543.361343999859;;None;;;;;;130103;001;2023-11-27_15h19.28.558;REPSWITCH1_version1_list3;2022.2.4;143.97189690080214;
REPSWITCH1/PICTURE_319.png;vaca;type;darkblue;filler;1;F;1;4;3;1;Stim1_Set4;1;repeat;107;106;5;0;106;106;106;;;;;;;;;;;;;;;;;;;;;;;543.8613634000067;545.0073563000187;545.0073563000187;545.0073563000187;545.0073563000187;545.0073563000187;545.0073563000187;545.0073563000187;545.0073563000187;548.0285574998707;548.0285574998707;548.0285574998707;548.0285574998707;548.0285574998707;548.0285574998707;['v', 'a', 'c', 'a'];0;[0.8370781999547035, 0.9251433999743313, 1.1547247001435608, 1.2464733000379056];vaca;C:\2023\REPSWITCH21092023\REPSWITCH_excgange\REPSWITCH_excgange\data/130103_REPSWITCH1_version1_list3_2023-11-27_15h19.28.558_micRespv1l3_recorded\recording_micRespv1l3_2023-11-27_15h28.28.282.wav;548.0285574998707;548.5286454998422;None;;;;;;130103;001;2023-11-27_15h19.28.558;REPSWITCH1_version1_list3;2022.2.4;143.97189690080214;
REPSWITCH1/PICTURE_169.png;espalda;speak;gold;nontarget;2;NT;1;4;3;1;Stim8_Set1;1;switch;108;107;6;0;107;107;107;;;;;;;;;;;;;;;;;;;;;;;548.5286454998422;549.5634846000466;549.5634846000466;549.5634846000466;549.5634846000466;549.5634846000466;549.5634846000466;549.5634846000466;549.5634846000466;552.5846971999854;552.5846971999854;552.5846971999854;552.5846971999854;552.5846971999854;552.5846971999854;None;0;;;C:\2023\REPSWITCH21092023\REPSWITCH_excgange\REPSWITCH_excgange\data/130103_REPSWITCH1_version1_list3_2023-11-27_15h19.28.558_micRespv1l3_recorded\recording_micRespv1l3_2023-11-27_15h28.32.837.wav;552.5846971999854;553.0847593999933;None;;;;;;130103;001;2023-11-27_15h19.28.558;REPSWITCH1_version1_list3;2022.2.4;143.97189690080214;
REPSWITCH1/PICTURE_169.png;espalda;speak;gold;repeat;2;T;1;4;3;1;Stim8_Set1;0;None;109;108;7;0;108;108;108;;;;;;;;;;;;;;;;;;;;;;;553.0847593999933;554.1752490999643;554.1752490999643;554.1752490999643;554.1752490999643;554.1752490999643;554.1752490999643;554.1752490999643;554.1752490999643;557.196450300049;557.196450300049;557.196450300049;557.196450300049;557.196450300049;557.196450300049;None;0;;;C:\2023\REPSWITCH21092023\REPSWITCH_excgange\REPSWITCH_excgange\data/130103_REPSWITCH1_version1_list3_2023-11-27_15h19.28.558_micRespv1l3_recorded\recording_micRespv1l3_2023-11-27_15h28.37.449.wav;557.196450300049;557.6965399999171;None;;;;;;130103;001;2023-11-27_15h19.28.558;REPSWITCH1_version1_list3;2022.2.4;143.97189690080214;
REPSWITCH1/PICTURE_728.png;pulpo;type;darkblue;filler;1;F;1;4;3;1;Stim8_Set4;0;None;110;109;8;0;109;109;109;;;;;;;;;;;;;;;;;;;;;;;557.6965399999171;558.7869547000155;558.7869547000155;558.7869547000155;558.7869547000155;558.7869547000155;558.7869547000155;558.7869547000155;558.7869547000155;561.8081680999603;561.8081680999603;561.8081680999603;561.8081680999603;561.8081680999603;561.8081680999603;['p', 'u', 'l', 'p', 'o'];0;[1.0208980001043528, 1.4624675000086427, 1.67371920007281, 1.8989947999361902, 2.0524675000924617];pulpo;C:\2023\REPSWITCH21092023\REPSWITCH_excgange\REPSWITCH_excgange\data/130103_REPSWITCH1_version1_list3_2023-11-27_15h19.28.558_micRespv1l3_recorded\recording_micRespv1l3_2023-11-27_15h28.42.062.wav;561.8081680999603;562.3082182998769;None;;;;;;130103;001;2023-11-27_15h19.28.558;REPSWITCH1_version1_list3;2022.2.4;143.97189690080214;
REPSWITCH1/PICTURE_142.png;vaso;speak;gold;nontarget;2;NT;1;4;3;1;Stim7_Set1;1;switch;111;110;9;0;110;110;110;;;;;;;;;;;;;;;;;;;;;;;562.3082182998769;563.482027699938;563.482027699938;563.482027699938;563.482027699938;563.482027699938;563.482027699938;563.482027699938;563.482027699938;566.5032311000396;566.5032311000396;566.5032311000396;566.5032311000396;566.5032311000396;566.5032311000396;None;0;;;C:\2023\REPSWITCH21092023\REPSWITCH_excgange\REPSWITCH_excgange\data/130103_REPSWITCH1_version1_list3_2023-11-27_15h19.28.558_micRespv1l3_recorded\recording_micRespv1l3_2023-11-27_15h28.46.757.wav;566.5032311000396;567.0032936998177;None;;;;;;130103;001;2023-11-27_15h19.28.558;REPSWITCH1_version1_list3;2022.2.4;143.97189690080214;
REPSWITCH1/PICTURE_142.png;vaso;type;darkblue;switch;1;T;1;4;3;1;Stim7_Set1;0;None;112;111;10;0;111;111;111;;;;;;;;;;;;;;;;;;;;;;;567.0032936998177;568.1006912000012;568.1006912000012;568.1006912000012;568.1006912000012;568.1006912000012;568.1006912000012;568.1006912000012;568.1006912000012;571.1288811999839;571.1288811999839;571.1288811999839;571.1288811999839;571.1288811999839;571.1288811999839;['v', 'a', 's', 'o'];0;[0.7614368998911232, 0.8730248999781907, 0.9660493999253958, 1.1164940998423845];vaso;C:\2023\REPSWITCH21092023\REPSWITCH_excgange\REPSWITCH_excgange\data/130103_REPSWITCH1_version1_list3_2023-11-27_15h19.28.558_micRespv1l3_recorded\recording_micRespv1l3_2023-11-27_15h28.51.376.wav;571.1288811999839;;None;;;;;;130103;001;2023-11-27_15h19.28.558;REPSWITCH1_version1_list3;2022.2.4;143.97189690080214;
REPSWITCH1/PICTURE_338.png;regalo;type;darkblue;filler;1;F;1;4;3;1;Stim6_Set4;1;repeat;113;112;11;0;112;112;112;;;;;;;;;;;;;;;;;;;;;;;571.6288614999503;572.7124479999766;572.7124479999766;572.7124479999766;572.7124479999766;572.7124479999766;572.7124479999766;572.7124479999766;572.7124479999766;575.740558099933;575.740558099933;575.740558099933;575.740558099933;575.740558099933;575.740558099933;['r', 'e', 'g', 'a', 'l', 'o'];0;[0.8355803999584168, 1.033451900118962, 1.1326046001631767, 1.3269436999689788, 1.416462300112471, 1.8813974999357015];regalo;C:\2023\REPSWITCH21092023\REPSWITCH_excgange\REPSWITCH_excgange\data/130103_REPSWITCH1_version1_list3_2023-11-27_15h19.28.558_micRespv1l3_recorded\recording_micRespv1l3_2023-11-27_15h28.55.988.wav;575.740558099933;;None;;;;;;130103;001;2023-11-27_15h19.28.558;REPSWITCH1_version1_list3;2022.2.4;143.97189690080214;
REPSWITCH1/PICTURE_135.png;traje;type;darkblue;nontarget;1;NT;1;4;3;1;Stim3_Set1;1;repeat;114;113;12;0;113;113;113;;;;;;;;;;;;;;;;;;;;;;;576.2406208999455;577.4282797998749;577.4282797998749;577.4282797998749;577.4282797998749;577.4282797998749;577.4282797998749;577.4282797998749;577.4282797998749;580.4495077000465;580.4495077000465;580.4495077000465;580.4495077000465;580.4495077000465;580.4495077000465;['t', 'r', 'a', 'j', 'e'];0;[0.8587825000286102, 1.1069543999619782, 1.2867675998713821, 1.4113542998675257, 1.6976954999845475];traje;C:\2023\REPSWITCH21092023\REPSWITCH_excgange\REPSWITCH_excgange\data/130103_REPSWITCH1_version1_list3_2023-11-27_15h19.28.558_micRespv1l3_recorded\recording_micRespv1l3_2023-11-27_15h29.00.702.wav;580.4495077000465;580.9495754998643;None;;;;;;130103;001;2023-11-27_15h19.28.558;REPSWITCH1_version1_list3;2022.2.4;143.97189690080214;
REPSWITCH1/PICTURE_135.png;traje;speak;gold;switch;2;T;1;4;3;1;Stim3_Set1;0;None;115;114;13;0;114;114;114;;;;;;;;;;;;;;;;;;;;;;;580.9495754998643;582.0191824999638;582.0191824999638;582.0191824999638;582.0191824999638;582.0191824999638;582.0191824999638;582.0191824999638;582.0191824999638;585.0403924998827;585.0403924998827;585.0403924998827;585.0403924998827;585.0403924998827;585.0403924998827;None;0;;;C:\2023\REPSWITCH21092023\REPSWITCH_excgange\REPSWITCH_excgange\data/130103_REPSWITCH1_version1_list3_2023-11-27_15h19.28.558_micRespv1l3_recorded\recording_micRespv1l3_2023-11-27_15h29.05.293.wav;585.0403924998827;585.5404478998389;None;;;;;;130103;001;2023-11-27_15h19.28.558;REPSWITCH1_version1_list3;2022.2.4;143.97189690080214;
REPSWITCH1/PICTURE_381.png;fresa;speak;gold;nontarget;2;NT;1;4;3;1;Stim2_Set1;1;repeat;116;115;14;0;115;115;115;;;;;;;;;;;;;;;;;;;;;;;585.5404478998389;586.6308926998172;586.6308926998172;586.6308926998172;586.6308926998172;586.6308926998172;586.6308926998172;586.6308926998172;586.6308926998172;589.6521138998214;589.6521138998214;589.6521138998214;589.6521138998214;589.6521138998214;589.6521138998214;None;0;;;C:\2023\REPSWITCH21092023\REPSWITCH_excgange\REPSWITCH_excgange\data/130103_REPSWITCH1_version1_list3_2023-11-27_15h19.28.558_micRespv1l3_recorded\recording_micRespv1l3_2023-11-27_15h29.09.905.wav;589.6521138998214;590.1521560000256;None;;;;;;130103;001;2023-11-27_15h19.28.558;REPSWITCH1_version1_list3;2022.2.4;143.97189690080214;
REPSWITCH1/PICTURE_381.png;fresa;type;darkblue;switch;1;T;1;4;3;1;Stim2_Set1;0;None;117;116;15;0;116;116;116;;;;;;;;;;;;;;;;;;;;;;;590.1521560000256;591.2217337999027;591.2217337999027;591.2217337999027;591.2217337999027;591.2217337999027;591.2217337999027;591.2217337999027;591.2217337999027;594.242989399936;594.242989399936;594.242989399936;594.242989399936;594.242989399936;594.242989399936;['f', 'r', 'e', 's', 'a'];0;[0.9524586999323219, 1.1229304000735283, 1.2756688999943435, 1.5049674999900162, 1.6603443000931293];fresa;C:\2023\REPSWITCH21092023\REPSWITCH_excgange\REPSWITCH_excgange\data/130103_REPSWITCH1_version1_list3_2023-11-27_15h19.28.558_micRespv1l3_recorded\recording_micRespv1l3_2023-11-27_15h29.14.496.wav;594.242989399936;594.7431266999338;None;;;;;;130103;001;2023-11-27_15h19.28.558;REPSWITCH1_version1_list3;2022.2.4;143.97189690080214;
REPSWITCH1/PICTURE_48.png;bombero;type;darkblue;filler;1;F;1;4;3;1;Stim7_Set4;0;None;118;117;16;0;117;117;117;;;;;;;;;;;;;;;;;;;;;;;594.7431266999338;595.8335426000413;595.8335426000413;595.8335426000413;595.8335426000413;595.8335426000413;595.8335426000413;595.8335426000413;595.8335426000413;598.8546922998503;598.8546922998503;598.8546922998503;598.8546922998503;598.8546922998503;598.8546922998503;['b', 'o', 'm', 'b', 'e', 'r', 'o'];0;[1.103554300032556, 1.2098892000503838, 1.327425800031051, 1.4570400000084192, 1.6108675000723451, 1.7922175000421703, 1.9068992000538856];bombero;C:\2023\REPSWITCH21092023\REPSWITCH_excgange\REPSWITCH_excgange\data/130103_REPSWITCH1_version1_list3_2023-11-27_15h19.28.558_micRespv1l3_recorded\recording_micRespv1l3_2023-11-27_15h29.19.108.wav;598.8546922998503;599.3547427998856;None;;;;;;130103;001;2023-11-27_15h19.28.558;REPSWITCH1_version1_list3;2022.2.4;143.97189690080214;
REPSWITCH1/PICTURE_687.png;camisa;speak;gold;filler;2;F;1;4;3;1;Stim5_Set4;0;None;119;118;17;0;118;118;118;;;;;;;;;;;;;;;;;;;;;;;599.3547427998856;600.3896043999121;600.3896043999121;600.3896043999121;600.3896043999121;600.3896043999121;600.3896043999121;600.3896043999121;600.3896043999121;603.4108197998721;603.4108197998721;603.4108197998721;603.4108197998721;603.4108197998721;603.4108197998721;None;0;;;C:\2023\REPSWITCH21092023\REPSWITCH_excgange\REPSWITCH_excgange\data/130103_REPSWITCH1_version1_list3_2023-11-27_15h19.28.558_micRespv1l3_recorded\recording_micRespv1l3_2023-11-27_15h29.23.664.wav;603.4108197998721;603.910958699882;None;;;;;;130103;001;2023-11-27_15h19.28.558;REPSWITCH1_version1_list3;2022.2.4;143.97189690080214;
