image;correctAns;respModal;frameColor;repSwitch;sequence;target;set;block;list;exp_version;stimulus;baseline;baseline_condition;trial_no;psychopy_trial;Column1;trialsREPSWITCH.thisRepN;trialsREPSWITCH.thisTrialN;trialsREPSWITCH.thisN;trialsREPSWITCH.thisIndex;textWelcome.started;textboxInstrMain1.started;textboxInstrMain1_2.started;textboxInstrMain1_3.started;keyInstrMain.started;keyInstrMain.keys;keyInstrMain.rt;textboxInstrMain2.started;textboxInstrMain2_2.started;textboxInstrMain2_3.started;textboxInstrMain2_4.started;textboxInstrMain2_5.started;textboxInstrMain2_6.started;textboxInstrMain2_7.started;textboxInstrMain2_8.started;textboxInstrMain2_9.started;textboxInstrMain2_10.started;textboxInstrMain2_11.started;textboxInstrMain2_12.started;keyInstrMain2.started;keyInstrMain2.keys;keyInstrMain2.rt;fixationITI.started;fixationITI.stopped;polygonColour.started;polygonWhite.started;imageObject.started;polygonType.started;textInput.started;keyResp.started;micRespv1l1.started;keyResp.keys;keyResp.corr;keyResp.rt;subjResponse;micRespv1l1.clip;textBlankLoop.started;textBlankLoop.stopped;keyPause.keys;polygonColour.stopped;polygonWhite.stopped;imageObject.stopped;polygonType.stopped;textInput.stopped;keyResp.stopped;textboxPause.started;keyPause.started;keyPause.rt;textboxGoodbye.started;textboxGoodbye.stopped;participant;session;date;expName;psychopyVersion;frameRate;Column2
;;;;;;;;;;;;;;;;;;;;;9.6050079;12.1007923;12.1007923;12.1007923;12.1007923;space;10.8781547;;;;;;;;;;;;;;;;;;;;;;;;;;;;;;;;;;;;;;;;;;;;250101;1;2023-12-04_12h08.49.815;REPSWITCH1_version1_list1;2022.2.4;144.0502912;
;;;;;;;;;;;;;;;;;;;;;;;;;;;;22.9980806;22.9980806;22.9980806;22.9980806;22.9980806;22.9980806;22.9980806;22.9980806;22.9980806;22.9980806;22.9980806;22.9980806;22.9980806;space;4.1456247;;;;;;;;;;;;;;;;;;;;;;;;;;;;;250101;1;2023-12-04_12h08.49.815;REPSWITCH1_version1_list1;2022.2.4;144.0502912;
REPSWITCH1/PICTURE_340.png;espejo;type;darkblue;filler;1;F;1;1;1;1;Extra1;0;None;1;0;1;0;0;0;0;;;;;;;;;;;;;;;;;;;;;;;27.248618;28.3321814;28.3321814;28.3321814;28.3321814;28.3321814;28.3321814;28.3321814;28.3321814;['e', 's', 'p', 'e', 'j', 'o'];0;[1.1132623003795743, 1.2856932003051043, 1.9602357004769146, 2.1097245002165437, 2.268194100353867, 2.4695213004015386];espejo;C:\2023\REPSWITCH21092023\REPSWITCH_excgange\REPSWITCH_excgange\data/250101_REPSWITCH1_version1_list1_2023-12-04_12h08.49.815_micRespv1l1_recorded\recording_micRespv1l1_2023-12-04_12h09.13.418.wav;31.3534211;31.8534963;None;;;;;;;;;;;;250101;1;2023-12-04_12h08.49.815;REPSWITCH1_version1_list1;2022.2.4;144.0502912;
REPSWITCH1/PICTURE_391.png;cadena;speak;gold;filler;2;F;1;1;1;1;Extra2;0;None;2;1;2;0;1;1;1;;;;;;;;;;;;;;;;;;;;;;;31.8534963;32.9230206;32.9230206;32.9230206;32.9230206;32.9230206;32.9230206;32.9230206;32.9230206;None;0;;;C:\2023\REPSWITCH21092023\REPSWITCH_excgange\REPSWITCH_excgange\data/250101_REPSWITCH1_version1_list1_2023-12-04_12h08.49.815_micRespv1l1_recorded\recording_micRespv1l1_2023-12-04_12h09.18.014.wav;35.9511888;36.4513249;None;35.9511888;35.9511888;35.9511888;35.9511888;35.9511888;35.9511888;;;;;;250101;1;2023-12-04_12h08.49.815;REPSWITCH1_version1_list1;2022.2.4;144.0502912;
REPSWITCH1/PICTURE_178.png;puente;speak;gold;nontarget;2;NT;1;1;1;1;Stim1_Set1;1;repeat;3;2;3;0;2;2;2;;;;;;;;;;;;;;;;;;;;;;;36.4513249;37.5069969;37.5069969;37.5069969;37.5069969;37.5069969;37.5069969;37.5069969;37.5069969;None;0;;;C:\2023\REPSWITCH21092023\REPSWITCH_excgange\REPSWITCH_excgange\data/250101_REPSWITCH1_version1_list1_2023-12-04_12h08.49.815_micRespv1l1_recorded\recording_micRespv1l1_2023-12-04_12h09.22.597.wav;40.5281516;41.0282416;None;40.5281516;40.5281516;40.5281516;40.5281516;40.5281516;40.5281516;;;;;;250101;1;2023-12-04_12h08.49.815;REPSWITCH1_version1_list1;2022.2.4;144.0502912;
REPSWITCH1/PICTURE_178.png;puente;speak;gold;repeat;2;T;1;1;1;1;Stim1_Set1;0;None;4;3;4;0;3;3;3;;;;;;;;;;;;;;;;;;;;;;;41.0282416;42.1533842;42.1533842;42.1533842;42.1533842;42.1533842;42.1533842;42.1533842;42.1533842;None;0;;;C:\2023\REPSWITCH21092023\REPSWITCH_excgange\REPSWITCH_excgange\data/250101_REPSWITCH1_version1_list1_2023-12-04_12h08.49.815_micRespv1l1_recorded\recording_micRespv1l1_2023-12-04_12h09.27.243.wav;45.1745799;45.6746685;None;45.1745799;45.1745799;45.1745799;45.1745799;45.1745799;45.1745799;;;;;;250101;1;2023-12-04_12h08.49.815;REPSWITCH1_version1_list1;2022.2.4;144.0502912;
REPSWITCH1/PICTURE_319.png;vaca;type;darkblue;filler;1;F;1;1;1;1;Stim1_Set4;0;None;5;4;5;0;4;4;4;;;;;;;;;;;;;;;;;;;;;;;45.6746685;46.7859464;46.7859464;46.7859464;46.7859464;46.7859464;46.7859464;46.7859464;46.7859464;['v', 'a', 'c', 'a'];0;[1.4442202001810074, 1.5367693002335727, 1.6962359002791345, 1.852721800096333];vaca;C:\2023\REPSWITCH21092023\REPSWITCH_excgange\REPSWITCH_excgange\data/250101_REPSWITCH1_version1_list1_2023-12-04_12h08.49.815_micRespv1l1_recorded\recording_micRespv1l1_2023-12-04_12h09.31.876.wav;49.8140791;;None;49.8140791;49.8140791;49.8140791;49.8140791;49.8140791;49.8140791;;;;;;250101;1;2023-12-04_12h08.49.815;REPSWITCH1_version1_list1;2022.2.4;144.0502912;
REPSWITCH1/PICTURE_381.png;fresa;speak;gold;nontarget;2;NT;1;1;1;1;Stim2_Set1;1;switch;6;5;6;0;5;5;5;;;;;;;;;;;;;;;;;;;;;;;50.314181;51.4254318;51.4254318;51.4254318;51.4254318;51.4254318;51.4254318;51.4254318;51.4254318;None;0;;;C:\2023\REPSWITCH21092023\REPSWITCH_excgange\REPSWITCH_excgange\data/250101_REPSWITCH1_version1_list1_2023-12-04_12h08.49.815_micRespv1l1_recorded\recording_micRespv1l1_2023-12-04_12h09.36.516.wav;54.4535901;54.9536533;None;54.4535901;54.4535901;54.4535901;54.4535901;54.4535901;54.4535901;;;;;;250101;1;2023-12-04_12h08.49.815;REPSWITCH1_version1_list1;2022.2.4;144.0502912;
REPSWITCH1/PICTURE_381.png;fresa;speak;gold;repeat;2;T;1;1;1;1;Stim2_Set1;0;None;7;6;7;0;6;6;6;;;;;;;;;;;;;;;;;;;;;;;54.9536533;56.0093628;56.0093628;56.0093628;56.0093628;56.0093628;56.0093628;56.0093628;56.0093628;None;0;;;C:\2023\REPSWITCH21092023\REPSWITCH_excgange\REPSWITCH_excgange\data/250101_REPSWITCH1_version1_list1_2023-12-04_12h08.49.815_micRespv1l1_recorded\recording_micRespv1l1_2023-12-04_12h09.41.100.wav;59.0376077;;None;59.0376077;59.0376077;59.0376077;59.0376077;59.0376077;59.0376077;;;;;;250101;1;2023-12-04_12h08.49.815;REPSWITCH1_version1_list1;2022.2.4;144.0502912;
REPSWITCH1/PICTURE_719.png;baño;type;darkblue;filler;1;F;1;1;1;1;Stim2_Set4;1;switch;8;7;8;0;7;7;7;;;;;;;;;;;;;;;;;;;;;;;59.5375945;60.6836318;60.6836318;60.6836318;60.6836318;60.6836318;60.6836318;60.6836318;60.6836318;['b', 'a', 'ñ', 'o'];0;[1.1683519002981484, 1.704035900067538, 1.8654948002658784, 2.0682482002303004];baño;C:\2023\REPSWITCH21092023\REPSWITCH_excgange\REPSWITCH_excgange\data/250101_REPSWITCH1_version1_list1_2023-12-04_12h08.49.815_micRespv1l1_recorded\recording_micRespv1l1_2023-12-04_12h09.45.774.wav;63.7117467;64.2118209;None;63.7117467;63.7117467;63.7117467;63.7117467;63.7117467;63.7117467;;;;;;250101;1;2023-12-04_12h08.49.815;REPSWITCH1_version1_list1;2022.2.4;144.0502912;
REPSWITCH1/PICTURE_135.png;traje;speak;gold;nontarget;2;NT;1;1;1;1;Stim3_Set1;0;None;9;8;9;0;8;8;8;;;;;;;;;;;;;;;;;;;;;;;64.2118209;65.4481351;65.4481351;65.4481351;65.4481351;65.4481351;65.4481351;65.4481351;65.4481351;None;0;;;C:\2023\REPSWITCH21092023\REPSWITCH_excgange\REPSWITCH_excgange\data/250101_REPSWITCH1_version1_list1_2023-12-04_12h08.49.815_micRespv1l1_recorded\recording_micRespv1l1_2023-12-04_12h09.50.539.wav;68.4763001;;None;68.4763001;68.4763001;68.4763001;68.4763001;68.4763001;68.4763001;;;;;;250101;1;2023-12-04_12h08.49.815;REPSWITCH1_version1_list1;2022.2.4;144.0502912;
REPSWITCH1/PICTURE_135.png;traje;type;darkblue;switch;1;T;1;1;1;1;Stim3_Set1;0;None;10;9;10;0;9;9;9;;;;;;;;;;;;;;;;;;;;;;;68.9763651;70.1570555;70.1570555;70.1570555;70.1570555;70.1570555;70.1570555;70.1570555;70.1570555;['t', 'r', 'a', 'j', 'e'];0;[0.9713733000680804, 1.1445818999782205, 1.4167045000940561, 1.5691835000179708, 1.652904000133276];traje;C:\2023\REPSWITCH21092023\REPSWITCH_excgange\REPSWITCH_excgange\data/250101_REPSWITCH1_version1_list1_2023-12-04_12h08.49.815_micRespv1l1_recorded\recording_micRespv1l1_2023-12-04_12h09.55.246.wav;73.1783053;73.678367;None;73.1783053;73.1783053;73.1783053;73.1783053;73.1783053;73.1783053;;;;;;250101;1;2023-12-04_12h08.49.815;REPSWITCH1_version1_list1;2022.2.4;144.0502912;
REPSWITCH1/PICTURE_687.png;camisa;speak;gold;filler;2;F;1;1;1;1;Stim5_Set4;0;None;11;10;11;0;10;10;10;;;;;;;;;;;;;;;;;;;;;;;73.678367;74.7965507;74.7965507;74.7965507;74.7965507;74.7965507;74.7965507;74.7965507;74.7965507;None;0;;;C:\2023\REPSWITCH21092023\REPSWITCH_excgange\REPSWITCH_excgange\data/250101_REPSWITCH1_version1_list1_2023-12-04_12h08.49.815_micRespv1l1_recorded\recording_micRespv1l1_2023-12-04_12h09.59.886.wav;77.8247314;;None;77.8247314;77.8247314;77.8247314;77.8247314;77.8247314;77.8247314;;;;;;250101;1;2023-12-04_12h08.49.815;REPSWITCH1_version1_list1;2022.2.4;144.0502912;
REPSWITCH1/PICTURE_128.png;muñeca;type;darkblue;nontarget;1;NT;1;1;1;1;Stim4_Set1;1;switch;12;11;12;0;11;11;11;;;;;;;;;;;;;;;;;;;;;;;78.3247942;79.3805057;79.3805057;79.3805057;79.3805057;79.3805057;79.3805057;79.3805057;79.3805057;['m', 'u', 'ñ', 'e', 'c', 'a'];0;[1.227629099972546, 1.4935119999572635, 1.9791470002382994, 2.111999799963087, 2.363146800082177, 2.559530499856919];muñeca;C:\2023\REPSWITCH21092023\REPSWITCH_excgange\REPSWITCH_excgange\data/250101_REPSWITCH1_version1_list1_2023-12-04_12h08.49.815_micRespv1l1_recorded\recording_micRespv1l1_2023-12-04_12h10.04.471.wav;82.4086547;;None;82.4086547;82.4086547;82.4086547;82.4086547;82.4086547;82.4086547;;;;;;250101;1;2023-12-04_12h08.49.815;REPSWITCH1_version1_list1;2022.2.4;144.0502912;
REPSWITCH1/PICTURE_128.png;muñeca;speak;gold;switch;2;T;1;1;1;1;Stim4_Set1;0;None;13;12;13;0;12;12;12;;;;;;;;;;;;;;;;;;;;;;;82.908706;84.0061325;84.0061325;84.0061325;84.0061325;84.0061325;84.0061325;84.0061325;84.0061325;None;0;;;C:\2023\REPSWITCH21092023\REPSWITCH_excgange\REPSWITCH_excgange\data/250101_REPSWITCH1_version1_list1_2023-12-04_12h08.49.815_micRespv1l1_recorded\recording_micRespv1l1_2023-12-04_12h10.09.096.wav;87.0273459;87.5274113;None;87.0273459;87.0273459;87.0273459;87.0273459;87.0273459;87.0273459;;;;;;250101;1;2023-12-04_12h08.49.815;REPSWITCH1_version1_list1;2022.2.4;144.0502912;
REPSWITCH1/PICTURE_8.png;pierna;speak;gold;filler;2;F;1;1;1;1;Stim3_Set4;0;None;14;13;14;0;13;13;13;;;;;;;;;;;;;;;;;;;;;;;87.5274113;88.6317201;88.6317201;88.6317201;88.6317201;88.6317201;88.6317201;88.6317201;88.6317201;None;0;;;C:\2023\REPSWITCH21092023\REPSWITCH_excgange\REPSWITCH_excgange\data/250101_REPSWITCH1_version1_list1_2023-12-04_12h08.49.815_micRespv1l1_recorded\recording_micRespv1l1_2023-12-04_12h10.13.722.wav;91.6599481;92.1600327;None;91.6599481;91.6599481;91.6599481;91.6599481;91.6599481;91.6599481;;;;;;250101;1;2023-12-04_12h08.49.815;REPSWITCH1_version1_list1;2022.2.4;144.0502912;
REPSWITCH1/PICTURE_19.png;pavo;speak;gold;nontarget;2;NT;1;1;1;1;Stim5_Set1;0;None;15;14;15;0;14;14;14;;;;;;;;;;;;;;;;;;;;;;;92.1600327;93.2018204;93.2018204;93.2018204;93.2018204;93.2018204;93.2018204;93.2018204;93.2018204;None;0;;;C:\2023\REPSWITCH21092023\REPSWITCH_excgange\REPSWITCH_excgange\data/250101_REPSWITCH1_version1_list1_2023-12-04_12h08.49.815_micRespv1l1_recorded\recording_micRespv1l1_2023-12-04_12h10.18.292.wav;96.2299177;;None;96.2299177;96.2299177;96.2299177;96.2299177;96.2299177;96.2299177;;;;;;250101;1;2023-12-04_12h08.49.815;REPSWITCH1_version1_list1;2022.2.4;144.0502912;
REPSWITCH1/PICTURE_19.png;pavo;type;darkblue;switch;1;T;1;1;1;1;Stim5_Set1;0;None;16;15;16;0;15;15;15;;;;;;;;;;;;;;;;;;;;;;;96.7300093;97.7995804;97.7995804;97.7995804;97.7995804;97.7995804;97.7995804;97.7995804;97.7995804;['p', 'a', 'v', 'o'];0;[0.9609008999541402, 1.122350700199604, 1.3994297999888659, 1.5064913001842797];pavo;C:\2023\REPSWITCH21092023\REPSWITCH_excgange\REPSWITCH_excgange\data/250101_REPSWITCH1_version1_list1_2023-12-04_12h08.49.815_micRespv1l1_recorded\recording_micRespv1l1_2023-12-04_12h10.22.890.wav;100.8277218;;None;100.8277218;100.8277218;100.8277218;100.8277218;100.8277218;100.8277218;;;;;;250101;1;2023-12-04_12h08.49.815;REPSWITCH1_version1_list1;2022.2.4;144.0502912;
REPSWITCH1/PICTURE_16.png;cazador;type;darkblue;nontarget;1;NT;1;1;1;1;Stim6_Set1;1;switch;17;16;17;0;16;16;16;;;;;;;;;;;;;;;;;;;;;;;101.3278293;102.3418582;102.3418582;102.3418582;102.3418582;102.3418582;102.3418582;102.3418582;102.3418582;['c', 'a', 'z', 'a', 'd', 'o', 'r'];0;[1.0891440999694169, 1.2347313002683222, 1.7252759002149105, 1.8950634002685547, 2.0036957999691367, 2.1740137999877334, 2.2787580001167953];cazador;C:\2023\REPSWITCH21092023\REPSWITCH_excgange\REPSWITCH_excgange\data/250101_REPSWITCH1_version1_list1_2023-12-04_12h08.49.815_micRespv1l1_recorded\recording_micRespv1l1_2023-12-04_12h10.27.432.wav;105.3700278;;None;105.3700278;105.3700278;105.3700278;105.3700278;105.3700278;105.3700278;;;;;;250101;1;2023-12-04_12h08.49.815;REPSWITCH1_version1_list1;2022.2.4;144.0502912;
REPSWITCH1/PICTURE_16.png;cazador;type;darkblue;repeat;1;T;1;1;1;1;Stim6_Set1;0;None;18;17;18;0;17;17;17;;;;;;;;;;;;;;;;;;;;;;;105.8701695;106.9257991;106.9257991;106.9257991;106.9257991;106.9257991;106.9257991;106.9257991;106.9257991;['c', 'a', 'z', 'a', 'd', 'o', 'r'];0;[0.8223521998152137, 0.9618836999870837, 1.2060314998961985, 1.3898494997993112, 1.5772711001336575, 1.7233370002359152, 2.0654911999590695];cazador;C:\2023\REPSWITCH21092023\REPSWITCH_excgange\REPSWITCH_excgange\data/250101_REPSWITCH1_version1_list1_2023-12-04_12h08.49.815_micRespv1l1_recorded\recording_micRespv1l1_2023-12-04_12h10.32.017.wav;109.9539681;;None;109.9539681;109.9539681;109.9539681;109.9539681;109.9539681;109.9539681;;;;;;250101;1;2023-12-04_12h08.49.815;REPSWITCH1_version1_list1;2022.2.4;144.0502912;
REPSWITCH1/PICTURE_498.png;taza;speak;gold;filler;2;F;1;1;1;1;Stim4_Set4;0;None;19;18;19;0;18;18;18;;;;;;;;;;;;;;;;;;;;;;;110.4540312;111.5722398;111.5722398;111.5722398;111.5722398;111.5722398;111.5722398;111.5722398;111.5722398;None;0;;;C:\2023\REPSWITCH21092023\REPSWITCH_excgange\REPSWITCH_excgange\data/250101_REPSWITCH1_version1_list1_2023-12-04_12h08.49.815_micRespv1l1_recorded\recording_micRespv1l1_2023-12-04_12h10.36.662.wav;114.6003841;;None;114.6003841;114.6003841;114.6003841;114.6003841;114.6003841;114.6003841;;;;;;250101;1;2023-12-04_12h08.49.815;REPSWITCH1_version1_list1;2022.2.4;144.0502912;
REPSWITCH1/PICTURE_48.png;bombero;type;darkblue;filler;1;F;1;1;1;1;Stim7_Set4;0;None;20;19;20;0;19;19;19;;;;;;;;;;;;;;;;;;;;;;;115.1004762;116.1354105;116.1354105;116.1354105;116.1354105;116.1354105;116.1354105;116.1354105;116.1354105;['b', 'o', 'm', 'b', 'e', 'r', 'o'];0;[1.0714098000898957, 1.2039744001813233, 1.5082447999157012, 1.8216995000839233, 2.0312222000211477, 2.181580999866128, 2.329161399975419];bombero;C:\2023\REPSWITCH21092023\REPSWITCH_excgange\REPSWITCH_excgange\data/250101_REPSWITCH1_version1_list1_2023-12-04_12h08.49.815_micRespv1l1_recorded\recording_micRespv1l1_2023-12-04_12h10.41.226.wav;119.1565287;119.6566058;None;119.1565287;119.1565287;119.1565287;119.1565287;119.1565287;119.1565287;;;;;;250101;1;2023-12-04_12h08.49.815;REPSWITCH1_version1_list1;2022.2.4;144.0502912;
REPSWITCH1/PICTURE_142.png;vaso;type;darkblue;nontarget;1;NT;1;1;1;1;Stim7_Set1;1;repeat;21;20;21;0;20;20;20;;;;;;;;;;;;;;;;;;;;;;;119.6566058;120.6914693;120.6914693;120.6914693;120.6914693;120.6914693;120.6914693;120.6914693;120.6914693;['v', 'a', 's', 'o'];0;[1.0546891000121832, 1.2912286999635398, 1.4538444001227617, 1.615207599941641];vaso;C:\2023\REPSWITCH21092023\REPSWITCH_excgange\REPSWITCH_excgange\data/250101_REPSWITCH1_version1_list1_2023-12-04_12h08.49.815_micRespv1l1_recorded\recording_micRespv1l1_2023-12-04_12h10.45.782.wav;123.7127291;124.2127625;None;123.7127291;123.7127291;123.7127291;123.7127291;123.7127291;123.7127291;;;;;;250101;1;2023-12-04_12h08.49.815;REPSWITCH1_version1_list1;2022.2.4;144.0502912;
REPSWITCH1/PICTURE_142.png;vaso;type;darkblue;repeat;1;T;1;1;1;1;Stim7_Set1;0;None;22;21;22;0;21;21;21;;;;;;;;;;;;;;;;;;;;;;;124.2127625;125.2546498;125.2546498;125.2546498;125.2546498;125.2546498;125.2546498;125.2546498;125.2546498;['v', 'a', 's', 'o'];0;[0.7704584999009967, 0.9817500002682209, 1.1417753999121487, 1.3387032998725772];vaso;C:\2023\REPSWITCH21092023\REPSWITCH_excgange\REPSWITCH_excgange\data/250101_REPSWITCH1_version1_list1_2023-12-04_12h08.49.815_micRespv1l1_recorded\recording_micRespv1l1_2023-12-04_12h10.50.345.wav;128.2757825;128.7758892;None;128.2757825;128.2757825;128.2757825;128.2757825;128.2757825;128.2757825;;;;;;250101;1;2023-12-04_12h08.49.815;REPSWITCH1_version1_list1;2022.2.4;144.0502912;
REPSWITCH1/PICTURE_338.png;regalo;speak;gold;filler;2;F;1;1;1;1;Stim6_Set4;1;switch;23;22;23;0;22;22;22;;;;;;;;;;;;;;;;;;;;;;;128.7758892;129.9705502;129.9705502;129.9705502;129.9705502;129.9705502;129.9705502;129.9705502;129.9705502;None;0;;;C:\2023\REPSWITCH21092023\REPSWITCH_excgange\REPSWITCH_excgange\data/250101_REPSWITCH1_version1_list1_2023-12-04_12h08.49.815_micRespv1l1_recorded\recording_micRespv1l1_2023-12-04_12h10.55.060.wav;132.998622;;None;132.998622;132.998622;132.998622;132.998622;132.998622;132.998622;;;;;;250101;1;2023-12-04_12h08.49.815;REPSWITCH1_version1_list1;2022.2.4;144.0502912;
REPSWITCH1/PICTURE_728.png;pulpo;type;darkblue;filler;1;F;1;1;1;1;Stim8_Set4;1;switch;24;23;24;0;23;23;23;;;;;;;;;;;;;;;;;;;;;;;133.4987021;134.6864248;134.6864248;134.6864248;134.6864248;134.6864248;134.6864248;134.6864248;134.6864248;['p'];0;[2.685159900225699];p;C:\2023\REPSWITCH21092023\REPSWITCH_excgange\REPSWITCH_excgange\data/250101_REPSWITCH1_version1_list1_2023-12-04_12h08.49.815_micRespv1l1_recorded\recording_micRespv1l1_2023-12-04_12h10.59.776.wav;137.7075889;138.2076546;None;137.7075889;137.7075889;137.7075889;137.7075889;137.7075889;137.7075889;;;;;;250101;1;2023-12-04_12h08.49.815;REPSWITCH1_version1_list1;2022.2.4;144.0502912;
REPSWITCH1/PICTURE_169.png;espalda;type;darkblue;nontarget;1;NT;1;1;1;1;Stim8_Set1;1;repeat;25;24;25;0;24;24;24;;;;;;;;;;;;;;;;;;;;;;;138.2076546;139.2494924;139.2494924;139.2494924;139.2494924;139.2494924;139.2494924;139.2494924;139.2494924;['e', 's', 'p', 'a', 'l', 'd', 'a'];0;[0.8828277997672558, 1.0745161999948323, 1.269437300041318, 1.3830071999691427, 1.4897503997199237, 1.6050939001142979, 1.6728868996724486];espalda;C:\2023\REPSWITCH21092023\REPSWITCH_excgange\REPSWITCH_excgange\data/250101_REPSWITCH1_version1_list1_2023-12-04_12h08.49.815_micRespv1l1_recorded\recording_micRespv1l1_2023-12-04_12h11.04.340.wav;142.2776338;;None;142.2776338;142.2776338;142.2776338;142.2776338;142.2776338;142.2776338;;;;;;250101;1;2023-12-04_12h08.49.815;REPSWITCH1_version1_list1;2022.2.4;144.0502912;
REPSWITCH1/PICTURE_169.png;espalda;speak;gold;switch;2;T;1;1;1;1;Stim8_Set1;0;None;26;25;26;0;25;25;25;;;;;;;;;;;;;;;;;;;;;;;142.777771;143.847333;143.847333;143.847333;143.847333;143.847333;143.847333;143.847333;143.847333;None;0;;;C:\2023\REPSWITCH21092023\REPSWITCH_excgange\REPSWITCH_excgange\data/250101_REPSWITCH1_version1_list1_2023-12-04_12h08.49.815_micRespv1l1_recorded\recording_micRespv1l1_2023-12-04_12h11.08.937.wav;146.8685252;147.3685812;None;146.8685252;146.8685252;146.8685252;146.8685252;146.8685252;146.8685252;;;;;;250101;1;2023-12-04_12h08.49.815;REPSWITCH1_version1_list1;2022.2.4;144.0502912;
REPSWITCH1/PICTURE_178.png;puente;speak;gold;filler;2;F;2;1;1;1;Stim1_Set1;0;None;27;26;27;0;26;26;26;;;;;;;;;;;;;;;;;;;;;;;147.3685812;148.4382182;148.4382182;148.4382182;148.4382182;148.4382182;148.4382182;148.4382182;148.4382182;None;0;;;C:\2023\REPSWITCH21092023\REPSWITCH_excgange\REPSWITCH_excgange\data/250101_REPSWITCH1_version1_list1_2023-12-04_12h08.49.815_micRespv1l1_recorded\recording_micRespv1l1_2023-12-04_12h11.13.528.wav;151.4663556;;None;151.4663556;151.4663556;151.4663556;151.4663556;151.4663556;151.4663556;;;;;;250101;1;2023-12-04_12h08.49.815;REPSWITCH1_version1_list1;2022.2.4;144.0502912;
REPSWITCH1/PICTURE_175.png;pintor;type;darkblue;nontarget;1;NT;2;1;1;1;Stim1_Set2;1;switch;28;27;28;0;27;27;27;;;;;;;;;;;;;;;;;;;;;;;151.966506;153.1472066;153.1472066;153.1472066;153.1472066;153.1472066;153.1472066;153.1472066;153.1472066;['p', 'i', 'n', 't', 'o', 'r'];0;[1.0988135999068618, 1.3224539998918772, 1.5597044001333416, 1.649396900087595, 2.1377694997936487, 2.2120778001844883];pintor;C:\2023\REPSWITCH21092023\REPSWITCH_excgange\REPSWITCH_excgange\data/250101_REPSWITCH1_version1_list1_2023-12-04_12h08.49.815_micRespv1l1_recorded\recording_micRespv1l1_2023-12-04_12h11.18.237.wav;156.168389;156.668442;None;156.168389;156.168389;156.168389;156.168389;156.168389;156.168389;;;;;;250101;1;2023-12-04_12h08.49.815;REPSWITCH1_version1_list1;2022.2.4;144.0502912;
REPSWITCH1/PICTURE_175.png;pintor;type;darkblue;repeat;1;T;2;1;1;1;Stim1_Set2;0;None;29;28;29;0;28;28;28;;;;;;;;;;;;;;;;;;;;;;;156.668442;157.8352503;157.8352503;157.8352503;157.8352503;157.8352503;157.8352503;157.8352503;157.8352503;['p', 'i', 'n', 't', 'o', 'r'];0;[0.8865437000058591, 1.127726100385189, 1.3791571003384888, 1.6056533004157245, 1.842222400009632, 2.0704508000053465];pintor;C:\2023\REPSWITCH21092023\REPSWITCH_excgange\REPSWITCH_excgange\data/250101_REPSWITCH1_version1_list1_2023-12-04_12h08.49.815_micRespv1l1_recorded\recording_micRespv1l1_2023-12-04_12h11.22.926.wav;160.8634556;;None;160.8634556;160.8634556;160.8634556;160.8634556;160.8634556;160.8634556;;;;;;250101;1;2023-12-04_12h08.49.815;REPSWITCH1_version1_list1;2022.2.4;144.0502912;
REPSWITCH1/PICTURE_381.png;fresa;speak;gold;filler;2;F;2;1;1;1;Stim2_Set1;0;None;30;29;30;0;29;29;29;;;;;;;;;;;;;;;;;;;;;;;161.3635111;162.4747483;162.4747483;162.4747483;162.4747483;162.4747483;162.4747483;162.4747483;162.4747483;None;0;;;C:\2023\REPSWITCH21092023\REPSWITCH_excgange\REPSWITCH_excgange\data/250101_REPSWITCH1_version1_list1_2023-12-04_12h08.49.815_micRespv1l1_recorded\recording_micRespv1l1_2023-12-04_12h11.27.566.wav;165.5029468;;None;165.5029468;165.5029468;165.5029468;165.5029468;165.5029468;165.5029468;;;;;;250101;1;2023-12-04_12h08.49.815;REPSWITCH1_version1_list1;2022.2.4;144.0502912;
REPSWITCH1/PICTURE_152.png;caracol;type;darkblue;nontarget;1;NT;2;1;1;1;Stim2_Set2;1;switch;31;30;31;0;30;30;30;;;;;;;;;;;;;;;;;;;;;;;166.0030025;167.1003572;167.1003572;167.1003572;167.1003572;167.1003572;167.1003572;167.1003572;167.1003572;['c', 'a', 'r', 'a', 'c', 'o', 'l'];0;[0.9127645003609359, 1.0941889001987875, 1.2666716002859175, 1.4250990003347397, 1.6074831001460552, 1.7378665003925562, 1.9137011002749205];caracol;C:\2023\REPSWITCH21092023\REPSWITCH_excgange\REPSWITCH_excgange\data/250101_REPSWITCH1_version1_list1_2023-12-04_12h08.49.815_micRespv1l1_recorded\recording_micRespv1l1_2023-12-04_12h11.32.191.wav;170.1285985;;None;170.1285985;170.1285985;170.1285985;170.1285985;170.1285985;170.1285985;;;;;;250101;1;2023-12-04_12h08.49.815;REPSWITCH1_version1_list1;2022.2.4;144.0502912;
REPSWITCH1/PICTURE_152.png;caracol;type;darkblue;repeat;1;T;2;1;1;1;Stim2_Set2;0;None;32;31;32;0;31;31;31;;;;;;;;;;;;;;;;;;;;;;;170.6285903;171.6565004;171.6565004;171.6565004;171.6565004;171.6565004;171.6565004;171.6565004;171.6565004;['c', 'a', 'r', 'a', 'c', 'o', 'l'];0;[1.0576356002129614, 1.2100194999948144, 1.4116814001463354, 1.5585242002271116, 1.7621404002420604, 1.8707910003140569, 2.1073937001638114];caracol;C:\2023\REPSWITCH21092023\REPSWITCH_excgange\REPSWITCH_excgange\data/250101_REPSWITCH1_version1_list1_2023-12-04_12h08.49.815_micRespv1l1_recorded\recording_micRespv1l1_2023-12-04_12h11.36.747.wav;174.6777624;175.1778223;None;174.6777624;174.6777624;174.6777624;174.6777624;174.6777624;174.6777624;;;;;;250101;1;2023-12-04_12h08.49.815;REPSWITCH1_version1_list1;2022.2.4;144.0502912;
REPSWITCH1/PICTURE_128.png;muñeca;speak;gold;filler;2;F;2;1;1;1;Stim4_Set1;0;None;33;32;33;0;32;32;32;;;;;;;;;;;;;;;;;;;;;;;175.1778223;176.2473866;176.2473866;176.2473866;176.2473866;176.2473866;176.2473866;176.2473866;176.2473866;None;0;;;C:\2023\REPSWITCH21092023\REPSWITCH_excgange\REPSWITCH_excgange\data/250101_REPSWITCH1_version1_list1_2023-12-04_12h08.49.815_micRespv1l1_recorded\recording_micRespv1l1_2023-12-04_12h11.41.338.wav;179.2755586;;None;179.2755586;179.2755586;179.2755586;179.2755586;179.2755586;179.2755586;;;;;;250101;1;2023-12-04_12h08.49.815;REPSWITCH1_version1_list1;2022.2.4;144.0502912;
REPSWITCH1/PICTURE_264.png;mano;type;darkblue;nontarget;1;NT;2;1;1;1;Stim3_Set2;0;None;34;33;34;0;33;33;33;;;;;;;;;;;;;;;;;;;;;;;179.7756218;180.8938445;180.8938445;180.8938445;180.8938445;180.8938445;180.8938445;180.8938445;180.8938445;['m', 'a', 'n', 'o'];0;[0.9635781003162265, 1.097115300130099, 1.2107337000779808, 1.4379370003007352];mano;C:\2023\REPSWITCH21092023\REPSWITCH_excgange\REPSWITCH_excgange\data/250101_REPSWITCH1_version1_list1_2023-12-04_12h08.49.815_micRespv1l1_recorded\recording_micRespv1l1_2023-12-04_12h11.45.983.wav;183.9151103;184.4151329;None;183.9151103;183.9151103;183.9151103;183.9151103;183.9151103;183.9151103;;;;;;250101;1;2023-12-04_12h08.49.815;REPSWITCH1_version1_list1;2022.2.4;144.0502912;
REPSWITCH1/PICTURE_264.png;mano;speak;gold;switch;2;T;2;1;1;1;Stim3_Set2;0;None;35;34;35;0;34;34;34;;;;;;;;;;;;;;;;;;;;;;;184.4151329;185.4638774;185.4638774;185.4638774;185.4638774;185.4638774;185.4638774;185.4638774;185.4638774;None;0;;;C:\2023\REPSWITCH21092023\REPSWITCH_excgange\REPSWITCH_excgange\data/250101_REPSWITCH1_version1_list1_2023-12-04_12h08.49.815_micRespv1l1_recorded\recording_micRespv1l1_2023-12-04_12h11.50.554.wav;188.485144;188.9851934;None;188.485144;188.485144;188.485144;188.485144;188.485144;188.485144;;;;;;250101;1;2023-12-04_12h08.49.815;REPSWITCH1_version1_list1;2022.2.4;144.0502912;
REPSWITCH1/PICTURE_517.png;cuerda;speak;gold;nontarget;2;NT;2;1;1;1;Stim4_Set2;1;repeat;36;35;36;0;35;35;35;;;;;;;;;;;;;;;;;;;;;;;188.9851934;190.0894878;190.0894878;190.0894878;190.0894878;190.0894878;190.0894878;190.0894878;190.0894878;None;0;;;C:\2023\REPSWITCH21092023\REPSWITCH_excgange\REPSWITCH_excgange\data/250101_REPSWITCH1_version1_list1_2023-12-04_12h08.49.815_micRespv1l1_recorded\recording_micRespv1l1_2023-12-04_12h11.55.180.wav;193.1177275;;None;193.1177275;193.1177275;193.1177275;193.1177275;193.1177275;193.1177275;;;;;;250101;1;2023-12-04_12h08.49.815;REPSWITCH1_version1_list1;2022.2.4;144.0502912;
REPSWITCH1/PICTURE_517.png;cuerda;type;darkblue;switch;1;T;2;1;1;1;Stim4_Set2;0;None;37;36;37;0;36;36;36;;;;;;;;;;;;;;;;;;;;;;;193.6177081;194.701236;194.701236;194.701236;194.701236;194.701236;194.701236;194.701236;194.701236;['c', 'u', 'e', 'r', 'd', 'a'];0;[0.8531487002037466, 1.0325458003208041, 1.15910889999941, 1.2847017999738455, 1.4740675003267825, 1.6504657003097236];cuerda;C:\2023\REPSWITCH21092023\REPSWITCH_excgange\REPSWITCH_excgange\data/250101_REPSWITCH1_version1_list1_2023-12-04_12h08.49.815_micRespv1l1_recorded\recording_micRespv1l1_2023-12-04_12h11.59.792.wav;197.7224262;198.2225051;None;197.7224262;197.7224262;197.7224262;197.7224262;197.7224262;197.7224262;;;;;;250101;1;2023-12-04_12h08.49.815;REPSWITCH1_version1_list1;2022.2.4;144.0502912;
REPSWITCH1/PICTURE_135.png;traje;type;darkblue;filler;1;F;2;1;1;1;Stim3_Set1;0;None;38;37;38;0;37;37;37;;;;;;;;;;;;;;;;;;;;;;;198.2225051;199.3198859;199.3198859;199.3198859;199.3198859;199.3198859;199.3198859;199.3198859;199.3198859;['t', 'r', 'a', 'j', 'e'];0;[0.8735271003097296, 1.0379588003270328, 1.2341991001740098, 1.398469400126487, 1.4781314004212618];traje;C:\2023\REPSWITCH21092023\REPSWITCH_excgange\REPSWITCH_excgange\data/250101_REPSWITCH1_version1_list1_2023-12-04_12h08.49.815_micRespv1l1_recorded\recording_micRespv1l1_2023-12-04_12h12.04.411.wav;202.3411836;202.8411827;None;202.3411836;202.3411836;202.3411836;202.3411836;202.3411836;202.3411836;;;;;;250101;1;2023-12-04_12h08.49.815;REPSWITCH1_version1_list1;2022.2.4;144.0502912;
REPSWITCH1/PICTURE_30.png;granja;type;darkblue;nontarget;1;NT;2;1;1;1;Stim5_Set2;1;repeat;39;38;39;0;38;38;38;;;;;;;;;;;;;;;;;;;;;;;202.8411827;203.9454724;203.9454724;203.9454724;203.9454724;203.9454724;203.9454724;203.9454724;203.9454724;None;0;;;C:\2023\REPSWITCH21092023\REPSWITCH_excgange\REPSWITCH_excgange\data/250101_REPSWITCH1_version1_list1_2023-12-04_12h08.49.815_micRespv1l1_recorded\recording_micRespv1l1_2023-12-04_12h12.09.036.wav;206.973646;;None;206.973646;206.973646;206.973646;206.973646;206.973646;206.973646;;;;;;250101;1;2023-12-04_12h08.49.815;REPSWITCH1_version1_list1;2022.2.4;144.0502912;
REPSWITCH1/PICTURE_30.png;granja;speak;gold;switch;2;T;2;1;1;1;Stim5_Set2;0;None;40;39;40;0;39;39;39;;;;;;;;;;;;;;;;;;;;;;;207.4737396;208.5434202;208.5434202;208.5434202;208.5434202;208.5434202;208.5434202;208.5434202;208.5434202;None;0;;;C:\2023\REPSWITCH21092023\REPSWITCH_excgange\REPSWITCH_excgange\data/250101_REPSWITCH1_version1_list1_2023-12-04_12h08.49.815_micRespv1l1_recorded\recording_micRespv1l1_2023-12-04_12h12.13.633.wav;211.5645177;212.0645872;None;211.5645177;211.5645177;211.5645177;211.5645177;211.5645177;211.5645177;;;;;;250101;1;2023-12-04_12h08.49.815;REPSWITCH1_version1_list1;2022.2.4;144.0502912;
REPSWITCH1/PICTURE_142.png;vaso;type;darkblue;filler;1;F;2;1;1;1;Stim7_Set1;0;None;41;40;41;0;40;40;40;;;;;;;;;;;;;;;;;;;;;;;212.0645872;213.1689467;213.1689467;213.1689467;213.1689467;213.1689467;213.1689467;213.1689467;213.1689467;['v', 'a', 's', 'o'];0;[0.9300119001418352, 1.1852001999504864, 1.372882700059563, 1.5462985001504421];vaso;C:\2023\REPSWITCH21092023\REPSWITCH_excgange\REPSWITCH_excgange\data/250101_REPSWITCH1_version1_list1_2023-12-04_12h08.49.815_micRespv1l1_recorded\recording_micRespv1l1_2023-12-04_12h12.18.259.wav;216.190168;216.6902262;None;216.190168;216.190168;216.190168;216.190168;216.190168;216.190168;;;;;;250101;1;2023-12-04_12h08.49.815;REPSWITCH1_version1_list1;2022.2.4;144.0502912;
REPSWITCH1/PICTURE_19.png;pavo;speak;gold;filler;2;F;2;1;1;1;Stim5_Set1;1;switch;42;41;42;0;41;41;41;;;;;;;;;;;;;;;;;;;;;;;216.6902262;217.7528778;217.7528778;217.7528778;217.7528778;217.7528778;217.7528778;217.7528778;217.7528778;None;0;;;C:\2023\REPSWITCH21092023\REPSWITCH_excgange\REPSWITCH_excgange\data/250101_REPSWITCH1_version1_list1_2023-12-04_12h08.49.815_micRespv1l1_recorded\recording_micRespv1l1_2023-12-04_12h12.22.844.wav;220.7810432;;None;220.7810432;220.7810432;220.7810432;220.7810432;220.7810432;220.7810432;;;;;;250101;1;2023-12-04_12h08.49.815;REPSWITCH1_version1_list1;2022.2.4;144.0502912;
REPSWITCH1/PICTURE_552.png;manzana;speak;gold;nontarget;2;NT;2;1;1;1;Stim6_Set2;1;repeat;43;42;43;0;42;42;42;;;;;;;;;;;;;;;;;;;;;;;221.2811408;222.371579;222.371579;222.371579;222.371579;222.371579;222.371579;222.371579;222.371579;None;0;;;C:\2023\REPSWITCH21092023\REPSWITCH_excgange\REPSWITCH_excgange\data/250101_REPSWITCH1_version1_list1_2023-12-04_12h08.49.815_micRespv1l1_recorded\recording_micRespv1l1_2023-12-04_12h12.27.462.wav;225.3928093;225.8928221;None;225.3928093;225.3928093;225.3928093;225.3928093;225.3928093;225.3928093;;;;;;250101;1;2023-12-04_12h08.49.815;REPSWITCH1_version1_list1;2022.2.4;144.0502912;
REPSWITCH1/PICTURE_552.png;manzana;speak;gold;repeat;2;T;2;1;1;1;Stim6_Set2;0;None;44;43;44;0;43;43;43;;;;;;;;;;;;;;;;;;;;;;;225.8928221;226.941556;226.941556;226.941556;226.941556;226.941556;226.941556;226.941556;226.941556;None;0;;;C:\2023\REPSWITCH21092023\REPSWITCH_excgange\REPSWITCH_excgange\data/250101_REPSWITCH1_version1_list1_2023-12-04_12h08.49.815_micRespv1l1_recorded\recording_micRespv1l1_2023-12-04_12h12.32.032.wav;229.962767;230.4628312;None;229.962767;229.962767;229.962767;229.962767;229.962767;229.962767;;;;;;250101;1;2023-12-04_12h08.49.815;REPSWITCH1_version1_list1;2022.2.4;144.0502912;
REPSWITCH1/PICTURE_16.png;cazador;type;darkblue;filler;1;F;2;1;1;1;Stim6_Set1;0;None;45;44;45;0;44;44;44;;;;;;;;;;;;;;;;;;;;;;;230.4628312;231.5464297;231.5464297;231.5464297;231.5464297;231.5464297;231.5464297;231.5464297;231.5464297;['c', 'a', 'z', 'a', 'd', 'o', 'r'];0;[0.9851926998235285, 1.143686099909246, 1.599781900178641, 1.8759572999551892, 2.0456783999688923, 2.194128599949181, 2.315758000127971];cazador;C:\2023\REPSWITCH21092023\REPSWITCH_excgange\REPSWITCH_excgange\data/250101_REPSWITCH1_version1_list1_2023-12-04_12h08.49.815_micRespv1l1_recorded\recording_micRespv1l1_2023-12-04_12h12.36.637.wav;234.5744999;;None;234.5744999;234.5744999;234.5744999;234.5744999;234.5744999;234.5744999;;;;;;250101;1;2023-12-04_12h08.49.815;REPSWITCH1_version1_list1;2022.2.4;144.0502912;
REPSWITCH1/PICTURE_446.png;cerdo;speak;gold;nontarget;2;NT;2;1;1;1;Stim7_Set2;1;switch;46;45;46;0;45;45;45;;;;;;;;;;;;;;;;;;;;;;;235.0745585;236.1649948;236.1649948;236.1649948;236.1649948;236.1649948;236.1649948;236.1649948;236.1649948;None;0;;;C:\2023\REPSWITCH21092023\REPSWITCH_excgange\REPSWITCH_excgange\data/250101_REPSWITCH1_version1_list1_2023-12-04_12h08.49.815_micRespv1l1_recorded\recording_micRespv1l1_2023-12-04_12h12.41.256.wav;239.193195;;None;239.193195;239.193195;239.193195;239.193195;239.193195;239.193195;;;;;;250101;1;2023-12-04_12h08.49.815;REPSWITCH1_version1_list1;2022.2.4;144.0502912;
REPSWITCH1/PICTURE_446.png;cerdo;speak;gold;repeat;2;T;2;1;1;1;Stim7_Set2;0;None;47;46;47;0;46;46;46;;;;;;;;;;;;;;;;;;;;;;;239.6932311;240.8601305;240.8601305;240.8601305;240.8601305;240.8601305;240.8601305;240.8601305;240.8601305;None;0;;;C:\2023\REPSWITCH21092023\REPSWITCH_excgange\REPSWITCH_excgange\data/250101_REPSWITCH1_version1_list1_2023-12-04_12h08.49.815_micRespv1l1_recorded\recording_micRespv1l1_2023-12-04_12h12.45.951.wav;243.8812727;244.3813664;None;243.8812727;243.8812727;243.8812727;243.8812727;243.8812727;243.8812727;;;;;;250101;1;2023-12-04_12h08.49.815;REPSWITCH1_version1_list1;2022.2.4;144.0502912;
REPSWITCH1/PICTURE_590.png;escoba;type;darkblue;filler;1;F;2;1;1;1;Extra3;0;None;48;47;48;0;47;47;47;;;;;;;;;;;;;;;;;;;;;;;244.3813664;245.4232286;245.4232286;245.4232286;245.4232286;245.4232286;245.4232286;245.4232286;245.4232286;['e', 's', 'c', 'o', 'b', 'a'];0;[0.9211732000112534, 1.1184356003068388, 1.3445244003087282, 1.460137499962002, 1.6445317002944648, 1.9215617999434471];escoba;C:\2023\REPSWITCH21092023\REPSWITCH_excgange\REPSWITCH_excgange\data/250101_REPSWITCH1_version1_list1_2023-12-04_12h08.49.815_micRespv1l1_recorded\recording_micRespv1l1_2023-12-04_12h12.50.513.wav;248.4443743;248.9444643;None;248.4443743;248.4443743;248.4443743;248.4443743;248.4443743;248.4443743;;;;;;250101;1;2023-12-04_12h08.49.815;REPSWITCH1_version1_list1;2022.2.4;144.0502912;
REPSWITCH1/PICTURE_169.png;espalda;speak;gold;filler;2;F;2;1;1;1;Stim8_Set1;0;None;49;48;49;0;48;48;48;;;;;;;;;;;;;;;;;;;;;;;248.9444643;250.0140287;250.0140287;250.0140287;250.0140287;250.0140287;250.0140287;250.0140287;250.0140287;None;0;;;C:\2023\REPSWITCH21092023\REPSWITCH_excgange\REPSWITCH_excgange\data/250101_REPSWITCH1_version1_list1_2023-12-04_12h08.49.815_micRespv1l1_recorded\recording_micRespv1l1_2023-12-04_12h12.55.104.wav;253.042232;;None;253.042232;253.042232;253.042232;253.042232;253.042232;253.042232;;;;;;250101;1;2023-12-04_12h08.49.815;REPSWITCH1_version1_list1;2022.2.4;144.0502912;
REPSWITCH1/PICTURE_199.png;falda;speak;gold;nontarget;2;NT;2;1;1;1;Stim8_Set2;1;repeat;50;49;50;0;49;49;49;;;;;;;;;;;;;;;;;;;;;;;253.5423634;254.7577443;254.7577443;254.7577443;254.7577443;254.7577443;254.7577443;254.7577443;254.7577443;None;0;;;C:\2023\REPSWITCH21092023\REPSWITCH_excgange\REPSWITCH_excgange\data/250101_REPSWITCH1_version1_list1_2023-12-04_12h08.49.815_micRespv1l1_recorded\recording_micRespv1l1_2023-12-04_12h12.59.848.wav;257.7858988;;None;257.7858988;257.7858988;257.7858988;257.7858988;257.7858988;257.7858988;;;;;;250101;1;2023-12-04_12h08.49.815;REPSWITCH1_version1_list1;2022.2.4;144.0502912;
REPSWITCH1/PICTURE_199.png;falda;type;darkblue;switch;1;T;2;1;1;1;Stim8_Set2;0;None;51;50;51;0;50;50;50;;;;;;;;;;;;;;;;;;;;;;;258.2859579;259.3764475;259.3764475;259.3764475;259.3764475;259.3764475;259.3764475;259.3764475;259.3764475;['f', 'a', 'l', 'd', 'a'];0;[1.0198164004832506, 1.2281039003282785, 1.40539660025388, 1.5622684000991285, 1.6131161004304886];falda;C:\2023\REPSWITCH21092023\REPSWITCH_excgange\REPSWITCH_excgange\data/250101_REPSWITCH1_version1_list1_2023-12-04_12h08.49.815_micRespv1l1_recorded\recording_micRespv1l1_2023-12-04_12h13.04.467.wav;262.3976028;262.8976657;space;262.3976028;262.3976028;262.3976028;262.3976028;262.3976028;262.3976028;262.8976657;262.8976657;17.3117827;;;250101;1;2023-12-04_12h08.49.815;REPSWITCH1_version1_list1;2022.2.4;144.0502912;
REPSWITCH1/PICTURE_576.png;guante;type;darkblue;nontarget;1;NT;3;1;1;1;Stim1_Set3;0;None;52;51;52;0;51;51;51;;;;;;;;;;;;;;;;;;;;;;;280.2194156;281.3167721;281.3167721;281.3167721;281.3167721;281.3167721;281.3167721;281.3167721;281.3167721;['g', 'u', 'a', 'n', 't', 'e'];0;[1.2699692002497613, 1.414475700352341, 1.5639782003127038, 1.7345231003127992, 1.8590323999524117, 2.06433380022645];guante;C:\2023\REPSWITCH21092023\REPSWITCH_excgange\REPSWITCH_excgange\data/250101_REPSWITCH1_version1_list1_2023-12-04_12h08.49.815_micRespv1l1_recorded\recording_micRespv1l1_2023-12-04_12h13.26.408.wav;284.3449557;;None;284.3449557;284.3449557;284.3449557;284.3449557;284.3449557;284.3449557;;;;;;250101;1;2023-12-04_12h08.49.815;REPSWITCH1_version1_list1;2022.2.4;144.0502912;
REPSWITCH1/PICTURE_576.png;guante;speak;gold;switch;2;T;3;1;1;1;Stim1_Set3;0;None;53;52;53;0;52;52;52;;;;;;;;;;;;;;;;;;;;;;;284.8450864;286.0327493;286.0327493;286.0327493;286.0327493;286.0327493;286.0327493;286.0327493;286.0327493;None;0;;;C:\2023\REPSWITCH21092023\REPSWITCH_excgange\REPSWITCH_excgange\data/250101_REPSWITCH1_version1_list1_2023-12-04_12h08.49.815_micRespv1l1_recorded\recording_micRespv1l1_2023-12-04_12h13.31.123.wav;289.0538731;289.5539724;None;289.0538731;289.0538731;289.0538731;289.0538731;289.0538731;289.0538731;;;;;;250101;1;2023-12-04_12h08.49.815;REPSWITCH1_version1_list1;2022.2.4;144.0502912;
REPSWITCH1/PICTURE_646.png;tronco;speak;gold;filler;2;F;3;1;1;1;Extra4;0;None;54;53;54;0;53;53;53;;;;;;;;;;;;;;;;;;;;;;;289.5539724;290.6930349;290.6930349;290.6930349;290.6930349;290.6930349;290.6930349;290.6930349;290.6930349;None;0;;;C:\2023\REPSWITCH21092023\REPSWITCH_excgange\REPSWITCH_excgange\data/250101_REPSWITCH1_version1_list1_2023-12-04_12h08.49.815_micRespv1l1_recorded\recording_micRespv1l1_2023-12-04_12h13.35.783.wav;293.7142783;294.2142916;None;293.7142783;293.7142783;293.7142783;293.7142783;293.7142783;293.7142783;;;;;;250101;1;2023-12-04_12h08.49.815;REPSWITCH1_version1_list1;2022.2.4;144.0502912;
REPSWITCH1/PICTURE_610.png;miel;speak;gold;nontarget;2;NT;3;1;1;1;Stim2_Set3;1;repeat;55;54;55;0;54;54;54;;;;;;;;;;;;;;;;;;;;;;;294.2142916;295.3394471;295.3394471;295.3394471;295.3394471;295.3394471;295.3394471;295.3394471;295.3394471;None;0;;;C:\2023\REPSWITCH21092023\REPSWITCH_excgange\REPSWITCH_excgange\data/250101_REPSWITCH1_version1_list1_2023-12-04_12h08.49.815_micRespv1l1_recorded\recording_micRespv1l1_2023-12-04_12h13.40.430.wav;298.3676106;;None;298.3676106;298.3676106;298.3676106;298.3676106;298.3676106;298.3676106;;;;;;250101;1;2023-12-04_12h08.49.815;REPSWITCH1_version1_list1;2022.2.4;144.0502912;
REPSWITCH1/PICTURE_610.png;miel;type;darkblue;switch;1;T;3;1;1;1;Stim2_Set3;0;None;56;55;56;0;55;55;55;;;;;;;;;;;;;;;;;;;;;;;298.8676748;300.0067528;300.0067528;300.0067528;300.0067528;300.0067528;300.0067528;300.0067528;300.0067528;['m', 'i', 'e', 'l'];0;[0.997547899838537, 1.1798479999415576, 1.3393497997894883, 1.5076127997599542];miel;C:\2023\REPSWITCH21092023\REPSWITCH_excgange\REPSWITCH_excgange\data/250101_REPSWITCH1_version1_list1_2023-12-04_12h08.49.815_micRespv1l1_recorded\recording_micRespv1l1_2023-12-04_12h13.45.096.wav;303.0279709;303.528034;None;303.0279709;303.0279709;303.0279709;303.0279709;303.0279709;303.0279709;;;;;;250101;1;2023-12-04_12h08.49.815;REPSWITCH1_version1_list1;2022.2.4;144.0502912;
REPSWITCH1/PICTURE_175.png;pintor;type;darkblue;filler;1;F;3;1;1;1;Stim1_Set2;1;repeat;57;56;57;0;56;56;56;;;;;;;;;;;;;;;;;;;;;;;303.528034;304.6392728;304.6392728;304.6392728;304.6392728;304.6392728;304.6392728;304.6392728;304.6392728;['p', 'i', 'n', 't', 'o', 'r'];0;[0.9608751004561782, 1.1980205001309514, 1.7457044003531337, 2.192358700092882, 2.365047300234437, 2.4637120002880692];pintor;C:\2023\REPSWITCH21092023\REPSWITCH_excgange\REPSWITCH_excgange\data/250101_REPSWITCH1_version1_list1_2023-12-04_12h08.49.815_micRespv1l1_recorded\recording_micRespv1l1_2023-12-04_12h13.49.729.wav;307.6605645;308.1605663;None;307.6605645;307.6605645;307.6605645;307.6605645;307.6605645;307.6605645;;;;;;250101;1;2023-12-04_12h08.49.815;REPSWITCH1_version1_list1;2022.2.4;144.0502912;
REPSWITCH1/PICTURE_242.png;cartero;type;darkblue;nontarget;1;NT;3;1;1;1;Stim3_Set3;1;repeat;58;57;58;0;57;57;57;;;;;;;;;;;;;;;;;;;;;;;308.1605663;309.2509916;309.2509916;309.2509916;309.2509916;309.2509916;309.2509916;309.2509916;309.2509916;['c', 'a', 'r', 't', 'e', 'r', 'o'];0;[1.0141515000723302, 1.1792656001634896, 1.4618898001499474, 1.6385829001665115, 1.8067658003419638, 1.9442986003123224, 2.0990207004360855];cartero;C:\2023\REPSWITCH21092023\REPSWITCH_excgange\REPSWITCH_excgange\data/250101_REPSWITCH1_version1_list1_2023-12-04_12h08.49.815_micRespv1l1_recorded\recording_micRespv1l1_2023-12-04_12h13.54.342.wav;312.2792454;;None;312.2792454;312.2792454;312.2792454;312.2792454;312.2792454;312.2792454;;;;;;250101;1;2023-12-04_12h08.49.815;REPSWITCH1_version1_list1;2022.2.4;144.0502912;
REPSWITCH1/PICTURE_242.png;cartero;speak;gold;switch;2;T;3;1;1;1;Stim3_Set3;0;None;59;58;59;0;58;58;58;;;;;;;;;;;;;;;;;;;;;;;312.7792584;313.8071405;313.8071405;313.8071405;313.8071405;313.8071405;313.8071405;313.8071405;313.8071405;None;0;;;C:\2023\REPSWITCH21092023\REPSWITCH_excgange\REPSWITCH_excgange\data/250101_REPSWITCH1_version1_list1_2023-12-04_12h08.49.815_micRespv1l1_recorded\recording_micRespv1l1_2023-12-04_12h13.58.898.wav;316.8283589;317.3284475;None;316.8283589;316.8283589;316.8283589;316.8283589;316.8283589;316.8283589;;;;;;250101;1;2023-12-04_12h08.49.815;REPSWITCH1_version1_list1;2022.2.4;144.0502912;
REPSWITCH1/PICTURE_152.png;caracol;speak;gold;filler;2;F;3;1;1;1;Stim2_Set2;0;None;60;59;60;0;59;59;59;;;;;;;;;;;;;;;;;;;;;;;317.3284475;318.3842091;318.3842091;318.3842091;318.3842091;318.3842091;318.3842091;318.3842091;318.3842091;None;0;;;C:\2023\REPSWITCH21092023\REPSWITCH_excgange\REPSWITCH_excgange\data/250101_REPSWITCH1_version1_list1_2023-12-04_12h08.49.815_micRespv1l1_recorded\recording_micRespv1l1_2023-12-04_12h14.03.475.wav;321.4124022;;None;321.4124022;321.4124022;321.4124022;321.4124022;321.4124022;321.4124022;;;;;;250101;1;2023-12-04_12h08.49.815;REPSWITCH1_version1_list1;2022.2.4;144.0502912;
REPSWITCH1/PICTURE_517.png;cuerda;type;darkblue;filler;1;F;3;1;1;1;Stim4_Set2;0;None;61;60;61;0;60;60;60;;;;;;;;;;;;;;;;;;;;;;;321.912398;323.072281;323.072281;323.072281;323.072281;323.072281;323.072281;323.072281;323.072281;['c', 'u', 'e', 'r', 'd', 'a'];0;[0.8680934002622962, 1.1301422002725303, 1.2487220000475645, 1.377293800469488, 1.547779300250113, 1.7412865003570914];cuerda;C:\2023\REPSWITCH21092023\REPSWITCH_excgange\REPSWITCH_excgange\data/250101_REPSWITCH1_version1_list1_2023-12-04_12h08.49.815_micRespv1l1_recorded\recording_micRespv1l1_2023-12-04_12h14.08.163.wav;326.1004389;;None;326.1004389;326.1004389;326.1004389;326.1004389;326.1004389;326.1004389;;;;;;250101;1;2023-12-04_12h08.49.815;REPSWITCH1_version1_list1;2022.2.4;144.0502912;
REPSWITCH1/PICTURE_235.png;aguja;speak;gold;nontarget;2;NT;3;1;1;1;Stim4_Set3;1;switch;62;61;62;0;61;61;61;;;;;;;;;;;;;;;;;;;;;;;326.6004889;327.656215;327.656215;327.656215;327.656215;327.656215;327.656215;327.656215;327.656215;None;0;;;C:\2023\REPSWITCH21092023\REPSWITCH_excgange\REPSWITCH_excgange\data/250101_REPSWITCH1_version1_list1_2023-12-04_12h08.49.815_micRespv1l1_recorded\recording_micRespv1l1_2023-12-04_12h14.12.747.wav;330.68439;;None;330.68439;330.68439;330.68439;330.68439;330.68439;330.68439;;;;;;250101;1;2023-12-04_12h08.49.815;REPSWITCH1_version1_list1;2022.2.4;144.0502912;
REPSWITCH1/PICTURE_235.png;aguja;speak;gold;repeat;2;T;3;1;1;1;Stim4_Set3;0;None;63;62;63;0;62;62;62;;;;;;;;;;;;;;;;;;;;;;;331.1844291;332.3374166;332.3374166;332.3374166;332.3374166;332.3374166;332.3374166;332.3374166;332.3374166;None;0;;;C:\2023\REPSWITCH21092023\REPSWITCH_excgange\REPSWITCH_excgange\data/250101_REPSWITCH1_version1_list1_2023-12-04_12h08.49.815_micRespv1l1_recorded\recording_micRespv1l1_2023-12-04_12h14.17.426.wav;335.3585763;335.8586488;None;335.3585763;335.3585763;335.3585763;335.3585763;335.3585763;335.3585763;;;;;;250101;1;2023-12-04_12h08.49.815;REPSWITCH1_version1_list1;2022.2.4;144.0502912;
REPSWITCH1/PICTURE_30.png;granja;type;darkblue;filler;1;F;3;1;1;1;Stim5_Set2;0;None;64;63;64;0;63;63;63;;;;;;;;;;;;;;;;;;;;;;;335.8586488;336.9421474;336.9421474;336.9421474;336.9421474;336.9421474;336.9421474;336.9421474;336.9421474;['g', 'r', 'a', 'n', 'j', 'a'];0;[1.3377628000453115, 2.0463426001369953, 2.25217550015077, 2.3907429999671876, 2.561180999968201, 2.636921899858862];granja;C:\2023\REPSWITCH21092023\REPSWITCH_excgange\REPSWITCH_excgange\data/250101_REPSWITCH1_version1_list1_2023-12-04_12h08.49.815_micRespv1l1_recorded\recording_micRespv1l1_2023-12-04_12h14.22.033.wav;339.9703339;;None;339.9703339;339.9703339;339.9703339;339.9703339;339.9703339;339.9703339;;;;;;250101;1;2023-12-04_12h08.49.815;REPSWITCH1_version1_list1;2022.2.4;144.0502912;
REPSWITCH1/PICTURE_552.png;manzana;speak;gold;filler;2;F;3;1;1;1;Stim6_Set2;1;switch;65;64;65;0;64;64;64;;;;;;;;;;;;;;;;;;;;;;;340.4703802;341.5816781;341.5816781;341.5816781;341.5816781;341.5816781;341.5816781;341.5816781;341.5816781;None;0;;;C:\2023\REPSWITCH21092023\REPSWITCH_excgange\REPSWITCH_excgange\data/250101_REPSWITCH1_version1_list1_2023-12-04_12h08.49.815_micRespv1l1_recorded\recording_micRespv1l1_2023-12-04_12h14.26.673.wav;344.6098079;;None;344.6098079;344.6098079;344.6098079;344.6098079;344.6098079;344.6098079;;;;;;250101;1;2023-12-04_12h08.49.815;REPSWITCH1_version1_list1;2022.2.4;144.0502912;
REPSWITCH1/PICTURE_35.png;oreja;speak;gold;nontarget;2;NT;3;1;1;1;Stim5_Set3;1;repeat;66;65;66;0;65;65;65;;;;;;;;;;;;;;;;;;;;;;;345.109892;346.1239791;346.1239791;346.1239791;346.1239791;346.1239791;346.1239791;346.1239791;346.1239791;None;0;;;C:\2023\REPSWITCH21092023\REPSWITCH_excgange\REPSWITCH_excgange\data/250101_REPSWITCH1_version1_list1_2023-12-04_12h08.49.815_micRespv1l1_recorded\recording_micRespv1l1_2023-12-04_12h14.31.214.wav;349.1451246;349.6451968;None;349.1451246;349.1451246;349.1451246;349.1451246;349.1451246;349.1451246;;;;;;250101;1;2023-12-04_12h08.49.815;REPSWITCH1_version1_list1;2022.2.4;144.0502912;
REPSWITCH1/PICTURE_35.png;oreja;speak;gold;repeat;2;T;3;1;1;1;Stim5_Set3;0;None;67;66;67;0;66;66;66;;;;;;;;;;;;;;;;;;;;;;;349.6451968;350.7704283;350.7704283;350.7704283;350.7704283;350.7704283;350.7704283;350.7704283;350.7704283;None;0;;;C:\2023\REPSWITCH21092023\REPSWITCH_excgange\REPSWITCH_excgange\data/250101_REPSWITCH1_version1_list1_2023-12-04_12h08.49.815_micRespv1l1_recorded\recording_micRespv1l1_2023-12-04_12h14.35.860.wav;353.791591;354.2916307;None;353.791591;353.791591;353.791591;353.791591;353.791591;353.791591;;;;;;250101;1;2023-12-04_12h08.49.815;REPSWITCH1_version1_list1;2022.2.4;144.0502912;
REPSWITCH1/PICTURE_673.png;tenedor;type;darkblue;filler;1;F;3;1;1;1;Extra5;0;None;68;67;68;0;67;67;67;;;;;;;;;;;;;;;;;;;;;;;354.2916307;355.312635;355.312635;355.312635;355.312635;355.312635;355.312635;355.312635;355.312635;['t', 'e', 'n', 'e', 'd', 'o', 'r'];0;[0.9332544002681971, 1.1475332002155483, 1.290310200303793, 1.3764315005391836, 1.5570950005203485, 1.701606200542301, 1.8581186002120376];tenedor;C:\2023\REPSWITCH21092023\REPSWITCH_excgange\REPSWITCH_excgange\data/250101_REPSWITCH1_version1_list1_2023-12-04_12h08.49.815_micRespv1l1_recorded\recording_micRespv1l1_2023-12-04_12h14.40.403.wav;358.3338552;358.8339974;None;358.3338552;358.3338552;358.3338552;358.3338552;358.3338552;358.3338552;;;;;;250101;1;2023-12-04_12h08.49.815;REPSWITCH1_version1_list1;2022.2.4;144.0502912;
REPSWITCH1/PICTURE_464.png;goma;speak;gold;nontarget;2;NT;3;1;1;1;Stim6_Set3;0;None;69;68;69;0;68;68;68;;;;;;;;;;;;;;;;;;;;;;;358.8339974;360.0354879;360.0354879;360.0354879;360.0354879;360.0354879;360.0354879;360.0354879;360.0354879;None;0;;;C:\2023\REPSWITCH21092023\REPSWITCH_excgange\REPSWITCH_excgange\data/250101_REPSWITCH1_version1_list1_2023-12-04_12h08.49.815_micRespv1l1_recorded\recording_micRespv1l1_2023-12-04_12h14.45.127.wav;363.0636964;;None;363.0636964;363.0636964;363.0636964;363.0636964;363.0636964;363.0636964;;;;;;250101;1;2023-12-04_12h08.49.815;REPSWITCH1_version1_list1;2022.2.4;144.0502912;
REPSWITCH1/PICTURE_464.png;goma;type;darkblue;switch;1;T;3;1;1;1;Stim6_Set3;0;None;70;69;70;0;69;69;69;;;;;;;;;;;;;;;;;;;;;;;363.5637015;364.6472079;364.6472079;364.6472079;364.6472079;364.6472079;364.6472079;364.6472079;364.6472079;['g', 'o', 'm', 'a'];0;[0.9026123001240194, 1.0433574002236128, 1.2686265003867447, 1.4480611002072692];goma;C:\2023\REPSWITCH21092023\REPSWITCH_excgange\REPSWITCH_excgange\data/250101_REPSWITCH1_version1_list1_2023-12-04_12h08.49.815_micRespv1l1_recorded\recording_micRespv1l1_2023-12-04_12h14.49.737.wav;367.6684236;368.168456;None;367.6684236;367.6684236;367.6684236;367.6684236;367.6684236;367.6684236;;;;;;250101;1;2023-12-04_12h08.49.815;REPSWITCH1_version1_list1;2022.2.4;144.0502912;
REPSWITCH1/PICTURE_264.png;mano;speak;gold;filler;2;F;3;1;1;1;Stim3_Set2;0;None;71;70;71;0;70;70;70;;;;;;;;;;;;;;;;;;;;;;;368.168456;369.2172102;369.2172102;369.2172102;369.2172102;369.2172102;369.2172102;369.2172102;369.2172102;None;0;;;C:\2023\REPSWITCH21092023\REPSWITCH_excgange\REPSWITCH_excgange\data/250101_REPSWITCH1_version1_list1_2023-12-04_12h08.49.815_micRespv1l1_recorded\recording_micRespv1l1_2023-12-04_12h14.54.308.wav;372.2454305;;None;372.2454305;372.2454305;372.2454305;372.2454305;372.2454305;372.2454305;;;;;;250101;1;2023-12-04_12h08.49.815;REPSWITCH1_version1_list1;2022.2.4;144.0502912;
REPSWITCH1/PICTURE_271.png;conejo;type;darkblue;nontarget;1;NT;3;1;1;1;Stim7_Set3;1;switch;72;71;72;0;71;71;71;;;;;;;;;;;;;;;;;;;;;;;372.7454568;373.8498051;373.8498051;373.8498051;373.8498051;373.8498051;373.8498051;373.8498051;373.8498051;['c', 'o', 'n', 'e', 'j', 'o'];0;[0.864423600025475, 1.0206915000453591, 1.2787890997715294, 1.39841330004856, 1.5276084998622537, 1.7269782000221312];conejo;C:\2023\REPSWITCH21092023\REPSWITCH_excgange\REPSWITCH_excgange\data/250101_REPSWITCH1_version1_list1_2023-12-04_12h08.49.815_micRespv1l1_recorded\recording_micRespv1l1_2023-12-04_12h14.58.940.wav;376.8779623;;None;376.8779623;376.8779623;376.8779623;376.8779623;376.8779623;376.8779623;;;;;;250101;1;2023-12-04_12h08.49.815;REPSWITCH1_version1_list1;2022.2.4;144.0502912;
REPSWITCH1/PICTURE_271.png;conejo;type;darkblue;repeat;1;T;3;1;1;1;Stim7_Set3;0;None;73;72;73;0;72;72;72;;;;;;;;;;;;;;;;;;;;;;;377.3780266;378.4337929;378.4337929;378.4337929;378.4337929;378.4337929;378.4337929;378.4337929;378.4337929;['c', 'o', 'n', 'e', 'j', 'o'];0;[0.995647800154984, 1.0790424002334476, 1.3271652003750205, 1.4786416999995708, 1.5848171999678016, 1.761177200358361];conejo;C:\2023\REPSWITCH21092023\REPSWITCH_excgange\REPSWITCH_excgange\data/250101_REPSWITCH1_version1_list1_2023-12-04_12h08.49.815_micRespv1l1_recorded\recording_micRespv1l1_2023-12-04_12h15.03.525.wav;381.4619589;;None;381.4619589;381.4619589;381.4619589;381.4619589;381.4619589;381.4619589;;;;;;250101;1;2023-12-04_12h08.49.815;REPSWITCH1_version1_list1;2022.2.4;144.0502912;
REPSWITCH1/PICTURE_446.png;cerdo;speak;gold;filler;2;F;3;1;1;1;Stim7_Set2;0;None;74;73;74;0;73;73;73;;;;;;;;;;;;;;;;;;;;;;;381.9619725;383.1427511;383.1427511;383.1427511;383.1427511;383.1427511;383.1427511;383.1427511;383.1427511;None;0;;;C:\2023\REPSWITCH21092023\REPSWITCH_excgange\REPSWITCH_excgange\data/250101_REPSWITCH1_version1_list1_2023-12-04_12h08.49.815_micRespv1l1_recorded\recording_micRespv1l1_2023-12-04_12h15.08.233.wav;386.1638971;386.6639717;None;386.1638971;386.1638971;386.1638971;386.1638971;386.1638971;386.1638971;;;;;;250101;1;2023-12-04_12h08.49.815;REPSWITCH1_version1_list1;2022.2.4;144.0502912;
REPSWITCH1/PICTURE_199.png;falda;type;darkblue;filler;1;F;3;1;1;1;Stim8_Set2;1;switch;75;74;75;0;74;74;74;;;;;;;;;;;;;;;;;;;;;;;386.6639717;387.7127286;387.7127286;387.7127286;387.7127286;387.7127286;387.7127286;387.7127286;387.7127286;['f', 'a', 'l', 'd', 'a'];0;[0.8168917000293732, 1.0254263002425432, 1.1563587002456188, 1.268978700041771, 1.3490297999233007];falda;C:\2023\REPSWITCH21092023\REPSWITCH_excgange\REPSWITCH_excgange\data/250101_REPSWITCH1_version1_list1_2023-12-04_12h08.49.815_micRespv1l1_recorded\recording_micRespv1l1_2023-12-04_12h15.12.803.wav;390.7339593;391.2340211;None;390.7339593;390.7339593;390.7339593;390.7339593;390.7339593;390.7339593;;;;;;250101;1;2023-12-04_12h08.49.815;REPSWITCH1_version1_list1;2022.2.4;144.0502912;
REPSWITCH1/PICTURE_320.png;iglesia;type;darkblue;nontarget;1;NT;3;1;1;1;Stim8_Set3;1;repeat;76;75;76;0;75;75;75;;;;;;;;;;;;;;;;;;;;;;;391.2340211;392.3452807;392.3452807;392.3452807;392.3452807;392.3452807;392.3452807;392.3452807;392.3452807;['i', 'g', 'l', 'e', 's', 'i', 'a'];0;[1.2312835999764502, 1.4276864998973906, 1.5693675000220537, 1.6841659001074731, 1.875855399761349, 1.987492499873042, 2.1001154999248683];iglesia;C:\2023\REPSWITCH21092023\REPSWITCH_excgange\REPSWITCH_excgange\data/250101_REPSWITCH1_version1_list1_2023-12-04_12h08.49.815_micRespv1l1_recorded\recording_micRespv1l1_2023-12-04_12h15.17.436.wav;395.3734916;;None;395.3734916;395.3734916;395.3734916;395.3734916;395.3734916;395.3734916;;;;;;250101;1;2023-12-04_12h08.49.815;REPSWITCH1_version1_list1;2022.2.4;144.0502912;
REPSWITCH1/PICTURE_320.png;iglesia;type;darkblue;repeat;1;T;3;1;1;1;Stim8_Set3;0;None;77;76;77;0;76;76;76;;;;;;;;;;;;;;;;;;;;;;;395.8734849;397.0056586;397.0056586;397.0056586;397.0056586;397.0056586;397.0056586;397.0056586;397.0056586;['i', 'g', 'l', 'e', 's', 'backspace'];0;[0.983398400247097, 1.1348761999979615, 1.2976094000041485, 1.399607100058347, 1.5978981000371277, 2.3311776001937687];igle;C:\2023\REPSWITCH21092023\REPSWITCH_excgange\REPSWITCH_excgange\data/250101_REPSWITCH1_version1_list1_2023-12-04_12h08.49.815_micRespv1l1_recorded\recording_micRespv1l1_2023-12-04_12h15.22.096.wav;400.03385;;None;400.03385;400.03385;400.03385;400.03385;400.03385;400.03385;;;;;;250101;1;2023-12-04_12h08.49.815;REPSWITCH1_version1_list1;2022.2.4;144.0502912;
REPSWITCH1/PICTURE_576.png;guante;speak;gold;filler;2;F;4;1;1;1;Stim1_Set3;0;None;78;77;78;0;77;77;77;;;;;;;;;;;;;;;;;;;;;;;400.5338529;401.596547;401.596547;401.596547;401.596547;401.596547;401.596547;401.596547;401.596547;None;0;;;C:\2023\REPSWITCH21092023\REPSWITCH_excgange\REPSWITCH_excgange\data/250101_REPSWITCH1_version1_list1_2023-12-04_12h08.49.815_micRespv1l1_recorded\recording_micRespv1l1_2023-12-04_12h15.26.687.wav;404.6246445;;None;404.6246445;404.6246445;404.6246445;404.6246445;404.6246445;404.6246445;;;;;;250101;1;2023-12-04_12h08.49.815;REPSWITCH1_version1_list1;2022.2.4;144.0502912;
REPSWITCH1/PICTURE_319.png;vaca;type;darkblue;nontarget;1;NT;4;1;1;1;Stim1_Set4;1;switch;79;78;79;0;78;78;78;;;;;;;;;;;;;;;;;;;;;;;405.124738;406.270742;406.270742;406.270742;406.270742;406.270742;406.270742;406.270742;406.270742;['v', 'a', 'c', 'a'];0;[0.8101030001416802, 1.0135740004479885, 1.1949271000921726, 1.3305079001002014];vaca;C:\2023\REPSWITCH21092023\REPSWITCH_excgange\REPSWITCH_excgange\data/250101_REPSWITCH1_version1_list1_2023-12-04_12h08.49.815_micRespv1l1_recorded\recording_micRespv1l1_2023-12-04_12h15.31.360.wav;409.291951;409.7919787;None;409.291951;409.291951;409.291951;409.291951;409.291951;409.291951;;;;;;250101;1;2023-12-04_12h08.49.815;REPSWITCH1_version1_list1;2022.2.4;144.0502912;
REPSWITCH1/PICTURE_319.png;vaca;type;darkblue;repeat;1;T;4;1;1;1;Stim1_Set4;0;None;80;79;80;0;79;79;79;;;;;;;;;;;;;;;;;;;;;;;409.7919787;410.9311134;410.9311134;410.9311134;410.9311134;410.9311134;410.9311134;410.9311134;410.9311134;['v', 'a', 'c', 'a'];0;[0.9100960004143417, 1.118614200502634, 1.296029000543058, 1.4285717001184821];vaca;C:\2023\REPSWITCH21092023\REPSWITCH_excgange\REPSWITCH_excgange\data/250101_REPSWITCH1_version1_list1_2023-12-04_12h08.49.815_micRespv1l1_recorded\recording_micRespv1l1_2023-12-04_12h15.36.022.wav;413.9592293;;None;413.9592293;413.9592293;413.9592293;413.9592293;413.9592293;413.9592293;;;;;;250101;1;2023-12-04_12h08.49.815;REPSWITCH1_version1_list1;2022.2.4;144.0502912;
REPSWITCH1/PICTURE_719.png;baño;type;darkblue;nontarget;1;NT;4;1;1;1;Stim2_Set4;0;None;81;80;81;0;80;80;80;;;;;;;;;;;;;;;;;;;;;;;414.4593014;415.5219164;415.5219164;415.5219164;415.5219164;415.5219164;415.5219164;415.5219164;415.5219164;['b', 'a', 'ñ', 'o'];0;[1.2696978002786636, 1.5099138002842665, 1.661363699939102, 1.8477471000514925];baño;C:\2023\REPSWITCH21092023\REPSWITCH_excgange\REPSWITCH_excgange\data/250101_REPSWITCH1_version1_list1_2023-12-04_12h08.49.815_micRespv1l1_recorded\recording_micRespv1l1_2023-12-04_12h15.40.612.wav;418.5501115;;None;418.5501115;418.5501115;418.5501115;418.5501115;418.5501115;418.5501115;;;;;;250101;1;2023-12-04_12h08.49.815;REPSWITCH1_version1_list1;2022.2.4;144.0502912;
REPSWITCH1/PICTURE_719.png;baño;speak;gold;switch;2;T;4;1;1;1;Stim2_Set4;0;None;82;81;82;0;81;81;81;;;;;;;;;;;;;;;;;;;;;;;419.0501602;420.2030969;420.2030969;420.2030969;420.2030969;420.2030969;420.2030969;420.2030969;420.2030969;None;0;;;C:\2023\REPSWITCH21092023\REPSWITCH_excgange\REPSWITCH_excgange\data/250101_REPSWITCH1_version1_list1_2023-12-04_12h08.49.815_micRespv1l1_recorded\recording_micRespv1l1_2023-12-04_12h15.45.294.wav;423.2312813;;None;423.2312813;423.2312813;423.2312813;423.2312813;423.2312813;423.2312813;;;;;;250101;1;2023-12-04_12h08.49.815;REPSWITCH1_version1_list1;2022.2.4;144.0502912;
REPSWITCH1/PICTURE_242.png;cartero;speak;gold;filler;2;F;4;1;1;1;Stim3_Set3;1;repeat;83;82;83;0;82;82;82;;;;;;;;;;;;;;;;;;;;;;;423.7313482;424.8009179;424.8009179;424.8009179;424.8009179;424.8009179;424.8009179;424.8009179;424.8009179;None;0;;;C:\2023\REPSWITCH21092023\REPSWITCH_excgange\REPSWITCH_excgange\data/250101_REPSWITCH1_version1_list1_2023-12-04_12h08.49.815_micRespv1l1_recorded\recording_micRespv1l1_2023-12-04_12h15.49.891.wav;427.8291858;;None;427.8291858;427.8291858;427.8291858;427.8291858;427.8291858;427.8291858;;;;;;250101;1;2023-12-04_12h08.49.815;REPSWITCH1_version1_list1;2022.2.4;144.0502912;
REPSWITCH1/PICTURE_610.png;miel;type;darkblue;filler;1;F;4;1;1;1;Stim2_Set3;0;None;84;83;84;0;83;83;83;;;;;;;;;;;;;;;;;;;;;;;428.3291617;429.4891071;429.4891071;429.4891071;429.4891071;429.4891071;429.4891071;429.4891071;429.4891071;['m', 'i', 'e', 'l'];0;[0.9557042997330427, 1.1490591000765562, 1.292541999835521, 1.4652734999544919];miel;C:\2023\REPSWITCH21092023\REPSWITCH_excgange\REPSWITCH_excgange\data/250101_REPSWITCH1_version1_list1_2023-12-04_12h08.49.815_micRespv1l1_recorded\recording_micRespv1l1_2023-12-04_12h15.54.579.wav;432.510249;433.0103482;None;432.510249;432.510249;432.510249;432.510249;432.510249;432.510249;;;;;;250101;1;2023-12-04_12h08.49.815;REPSWITCH1_version1_list1;2022.2.4;144.0502912;
REPSWITCH1/PICTURE_8.png;pierna;speak;gold;nontarget;2;NT;4;1;1;1;Stim3_Set4;1;switch;85;84;85;0;84;84;84;;;;;;;;;;;;;;;;;;;;;;;433.0103482;434.1493996;434.1493996;434.1493996;434.1493996;434.1493996;434.1493996;434.1493996;434.1493996;None;0;;;C:\2023\REPSWITCH21092023\REPSWITCH_excgange\REPSWITCH_excgange\data/250101_REPSWITCH1_version1_list1_2023-12-04_12h08.49.815_micRespv1l1_recorded\recording_micRespv1l1_2023-12-04_12h15.59.240.wav;437.1776043;;None;437.1776043;437.1776043;437.1776043;437.1776043;437.1776043;437.1776043;;;;;;250101;1;2023-12-04_12h08.49.815;REPSWITCH1_version1_list1;2022.2.4;144.0502912;
REPSWITCH1/PICTURE_8.png;pierna;speak;gold;repeat;2;T;4;1;1;1;Stim3_Set4;0;None;86;85;86;0;85;85;85;;;;;;;;;;;;;;;;;;;;;;;437.6776029;438.7125058;438.7125058;438.7125058;438.7125058;438.7125058;438.7125058;438.7125058;438.7125058;None;0;;;C:\2023\REPSWITCH21092023\REPSWITCH_excgange\REPSWITCH_excgange\data/250101_REPSWITCH1_version1_list1_2023-12-04_12h08.49.815_micRespv1l1_recorded\recording_micRespv1l1_2023-12-04_12h16.03.802.wav;441.7337909;442.2338574;None;441.7337909;441.7337909;441.7337909;441.7337909;441.7337909;441.7337909;;;;;;250101;1;2023-12-04_12h08.49.815;REPSWITCH1_version1_list1;2022.2.4;144.0502912;
REPSWITCH1/PICTURE_498.png;taza;speak;gold;nontarget;2;NT;4;1;1;1;Stim4_Set4;1;repeat;87;86;87;0;86;86;86;;;;;;;;;;;;;;;;;;;;;;;442.2338574;443.2964344;443.2964344;443.2964344;443.2964344;443.2964344;443.2964344;443.2964344;443.2964344;None;0;;;C:\2023\REPSWITCH21092023\REPSWITCH_excgange\REPSWITCH_excgange\data/250101_REPSWITCH1_version1_list1_2023-12-04_12h08.49.815_micRespv1l1_recorded\recording_micRespv1l1_2023-12-04_12h16.08.387.wav;446.3176354;446.8177106;None;446.3176354;446.3176354;446.3176354;446.3176354;446.3176354;446.3176354;;;;;;250101;1;2023-12-04_12h08.49.815;REPSWITCH1_version1_list1;2022.2.4;144.0502912;
REPSWITCH1/PICTURE_498.png;taza;type;darkblue;switch;1;T;4;1;1;1;Stim4_Set4;0;None;88;87;88;0;87;87;87;;;;;;;;;;;;;;;;;;;;;;;446.8177106;447.901215;447.901215;447.901215;447.901215;447.901215;447.901215;447.901215;447.901215;['t', 'a', 'z', 'a'];0;[1.0259370999410748, 1.2751023001037538, 1.489344300236553, 1.6498437002301216];taza;C:\2023\REPSWITCH21092023\REPSWITCH_excgange\REPSWITCH_excgange\data/250101_REPSWITCH1_version1_list1_2023-12-04_12h08.49.815_micRespv1l1_recorded\recording_micRespv1l1_2023-12-04_12h16.12.991.wav;450.922407;451.422454;None;450.922407;450.922407;450.922407;450.922407;450.922407;450.922407;;;;;;250101;1;2023-12-04_12h08.49.815;REPSWITCH1_version1_list1;2022.2.4;144.0502912;
REPSWITCH1/PICTURE_235.png;aguja;speak;gold;filler;2;F;4;1;1;1;Stim4_Set3;0;None;89;88;89;0;88;88;88;;;;;;;;;;;;;;;;;;;;;;;451.422454;452.5407016;452.5407016;452.5407016;452.5407016;452.5407016;452.5407016;452.5407016;452.5407016;None;0;;;C:\2023\REPSWITCH21092023\REPSWITCH_excgange\REPSWITCH_excgange\data/250101_REPSWITCH1_version1_list1_2023-12-04_12h08.49.815_micRespv1l1_recorded\recording_micRespv1l1_2023-12-04_12h16.17.631.wav;455.5618924;456.061998;None;455.5618924;455.5618924;455.5618924;455.5618924;455.5618924;455.5618924;;;;;;250101;1;2023-12-04_12h08.49.815;REPSWITCH1_version1_list1;2022.2.4;144.0502912;
REPSWITCH1/PICTURE_35.png;oreja;type;darkblue;filler;1;F;4;1;1;1;Stim5_Set3;0;None;90;89;90;0;89;89;89;;;;;;;;;;;;;;;;;;;;;;;456.061998;457.0830601;457.0830601;457.0830601;457.0830601;457.0830601;457.0830601;457.0830601;457.0830601;['o', 'r', 'e', 'j', 'a'];0;[0.9448638004250824, 1.0175873003900051, 1.1182161001488566, 1.2883310001343489, 1.4168704003095627];oreja;C:\2023\REPSWITCH21092023\REPSWITCH_excgange\REPSWITCH_excgange\data/250101_REPSWITCH1_version1_list1_2023-12-04_12h08.49.815_micRespv1l1_recorded\recording_micRespv1l1_2023-12-04_12h16.22.173.wav;460.1041901;460.6042643;None;460.1041901;460.1041901;460.1041901;460.1041901;460.1041901;460.1041901;;;;;;250101;1;2023-12-04_12h08.49.815;REPSWITCH1_version1_list1;2022.2.4;144.0502912;
REPSWITCH1/PICTURE_687.png;camisa;type;darkblue;nontarget;1;NT;4;1;1;1;Stim5_Set4;1;repeat;91;90;91;0;90;90;90;;;;;;;;;;;;;;;;;;;;;;;460.6042643;461.729406;461.729406;461.729406;461.729406;461.729406;461.729406;461.729406;461.729406;['c', 'a', 'm', 'i', 's', 'a'];0;[0.9528736001811922, 1.1068811998702586, 1.2516911998391151, 1.4183098999783397, 1.4910598997958004, 1.614711499772966];camisa;C:\2023\REPSWITCH21092023\REPSWITCH_excgange\REPSWITCH_excgange\data/250101_REPSWITCH1_version1_list1_2023-12-04_12h08.49.815_micRespv1l1_recorded\recording_micRespv1l1_2023-12-04_12h16.26.820.wav;464.7506135;465.2506989;None;464.7506135;464.7506135;464.7506135;464.7506135;464.7506135;464.7506135;;;;;;250101;1;2023-12-04_12h08.49.815;REPSWITCH1_version1_list1;2022.2.4;144.0502912;
REPSWITCH1/PICTURE_687.png;camisa;speak;gold;switch;2;T;4;1;1;1;Stim5_Set4;0;None;92;91;92;0;91;91;91;;;;;;;;;;;;;;;;;;;;;;;465.2506989;466.3133277;466.3133277;466.3133277;466.3133277;466.3133277;466.3133277;466.3133277;466.3133277;None;0;;;C:\2023\REPSWITCH21092023\REPSWITCH_excgange\REPSWITCH_excgange\data/250101_REPSWITCH1_version1_list1_2023-12-04_12h08.49.815_micRespv1l1_recorded\recording_micRespv1l1_2023-12-04_12h16.31.404.wav;469.3345541;469.8346141;None;469.3345541;469.3345541;469.3345541;469.3345541;469.3345541;469.3345541;;;;;;250101;1;2023-12-04_12h08.49.815;REPSWITCH1_version1_list1;2022.2.4;144.0502912;
REPSWITCH1/PICTURE_338.png;regalo;speak;gold;nontarget;2;NT;4;1;1;1;Stim6_Set4;0;None;93;92;93;0;92;92;92;;;;;;;;;;;;;;;;;;;;;;;469.8346141;470.9320261;470.9320261;470.9320261;470.9320261;470.9320261;470.9320261;470.9320261;470.9320261;None;0;;;C:\2023\REPSWITCH21092023\REPSWITCH_excgange\REPSWITCH_excgange\data/250101_REPSWITCH1_version1_list1_2023-12-04_12h08.49.815_micRespv1l1_recorded\recording_micRespv1l1_2023-12-04_12h16.36.022.wav;473.9532324;474.4533701;None;473.9532324;473.9532324;473.9532324;473.9532324;473.9532324;473.9532324;;;;;;250101;1;2023-12-04_12h08.49.815;REPSWITCH1_version1_list1;2022.2.4;144.0502912;
REPSWITCH1/PICTURE_338.png;regalo;speak;gold;repeat;2;T;4;1;1;1;Stim6_Set4;0;None;94;93;94;0;93;93;93;;;;;;;;;;;;;;;;;;;;;;;474.4533701;475.5714934;475.5714934;475.5714934;475.5714934;475.5714934;475.5714934;475.5714934;475.5714934;None;0;;;C:\2023\REPSWITCH21092023\REPSWITCH_excgange\REPSWITCH_excgange\data/250101_REPSWITCH1_version1_list1_2023-12-04_12h08.49.815_micRespv1l1_recorded\recording_micRespv1l1_2023-12-04_12h16.40.661.wav;478.5927008;479.0927873;None;478.5927008;478.5927008;478.5927008;478.5927008;478.5927008;478.5927008;;;;;;250101;1;2023-12-04_12h08.49.815;REPSWITCH1_version1_list1;2022.2.4;144.0502912;
REPSWITCH1/PICTURE_663.png;columna;type;darkblue;filler;1;F;4;1;1;1;Extra6;0;None;95;94;95;0;94;94;94;;;;;;;;;;;;;;;;;;;;;;;479.0927873;480.1762985;480.1762985;480.1762985;480.1762985;480.1762985;480.1762985;480.1762985;480.1762985;['c', 'o', 'l', 'u', 'm', 'n', 'a'];0;[1.0506393001414835, 1.2323357998393476, 1.4226890001446009, 1.6778560997918248, 1.8972394997254014, 2.079631899949163, 2.1344516999088228];columna;C:\2023\REPSWITCH21092023\REPSWITCH_excgange\REPSWITCH_excgange\data/250101_REPSWITCH1_version1_list1_2023-12-04_12h08.49.815_micRespv1l1_recorded\recording_micRespv1l1_2023-12-04_12h16.45.267.wav;483.1975407;483.6975688;None;483.1975407;483.1975407;483.1975407;483.1975407;483.1975407;483.1975407;;;;;;250101;1;2023-12-04_12h08.49.815;REPSWITCH1_version1_list1;2022.2.4;144.0502912;
REPSWITCH1/PICTURE_271.png;conejo;speak;gold;filler;2;F;4;1;1;1;Stim7_Set3;0;None;96;95;96;0;95;95;95;;;;;;;;;;;;;;;;;;;;;;;483.6975688;484.8504853;484.8504853;484.8504853;484.8504853;484.8504853;484.8504853;484.8504853;484.8504853;None;0;;;C:\2023\REPSWITCH21092023\REPSWITCH_excgange\REPSWITCH_excgange\data/250101_REPSWITCH1_version1_list1_2023-12-04_12h08.49.815_micRespv1l1_recorded\recording_micRespv1l1_2023-12-04_12h16.49.941.wav;487.8717195;488.3717981;None;487.8717195;487.8717195;487.8717195;487.8717195;487.8717195;487.8717195;;;;;;250101;1;2023-12-04_12h08.49.815;REPSWITCH1_version1_list1;2022.2.4;144.0502912;
REPSWITCH1/PICTURE_48.png;bombero;speak;gold;nontarget;2;NT;4;1;1;1;Stim7_Set4;0;None;97;96;97;0;96;96;96;;;;;;;;;;;;;;;;;;;;;;;488.3717981;489.4692669;489.4692669;489.4692669;489.4692669;489.4692669;489.4692669;489.4692669;489.4692669;None;0;;;C:\2023\REPSWITCH21092023\REPSWITCH_excgange\REPSWITCH_excgange\data/250101_REPSWITCH1_version1_list1_2023-12-04_12h08.49.815_micRespv1l1_recorded\recording_micRespv1l1_2023-12-04_12h16.54.559.wav;492.4903788;492.9905032;None;492.4903788;492.4903788;492.4903788;492.4903788;492.4903788;492.4903788;;;;;;250101;1;2023-12-04_12h08.49.815;REPSWITCH1_version1_list1;2022.2.4;144.0502912;
REPSWITCH1/PICTURE_48.png;bombero;type;darkblue;switch;1;T;4;1;1;1;Stim7_Set4;0;None;98;97;98;0;97;97;97;;;;;;;;;;;;;;;;;;;;;;;492.9905032;494.0531069;494.0531069;494.0531069;494.0531069;494.0531069;494.0531069;494.0531069;494.0531069;['b', 'o', 'm', 'b', 'e', 'r', 'o'];0;[1.1214958997443318, 1.2595355999656022, 1.5020248000510037, 1.6624805997125804, 1.9019630998373032, 2.074244999792427, 2.2080735000781715];bombero;C:\2023\REPSWITCH21092023\REPSWITCH_excgange\REPSWITCH_excgange\data/250101_REPSWITCH1_version1_list1_2023-12-04_12h08.49.815_micRespv1l1_recorded\recording_micRespv1l1_2023-12-04_12h16.59.142.wav;497.0743425;497.574385;None;497.0743425;497.0743425;497.0743425;497.0743425;497.0743425;497.0743425;;;;;;250101;1;2023-12-04_12h08.49.815;REPSWITCH1_version1_list1;2022.2.4;144.0502912;
REPSWITCH1/PICTURE_728.png;pulpo;type;darkblue;nontarget;1;NT;4;1;1;1;Stim8_Set4;0;None;99;98;99;0;98;98;98;;;;;;;;;;;;;;;;;;;;;;;497.574385;498.6578967;498.6578967;498.6578967;498.6578967;498.6578967;498.6578967;498.6578967;498.6578967;['p', 'u', 'l', 'p', 'o'];0;[0.9295462002046406, 1.188720699865371, 1.4587250999175012, 1.6361716999672353, 1.7685735002160072];pulpo;C:\2023\REPSWITCH21092023\REPSWITCH_excgange\REPSWITCH_excgange\data/250101_REPSWITCH1_version1_list1_2023-12-04_12h08.49.815_micRespv1l1_recorded\recording_micRespv1l1_2023-12-04_12h17.03.748.wav;501.679148;502.1791768;None;501.679148;501.679148;501.679148;501.679148;501.679148;501.679148;;;;;;250101;1;2023-12-04_12h08.49.815;REPSWITCH1_version1_list1;2022.2.4;144.0502912;
REPSWITCH1/PICTURE_728.png;pulpo;type;darkblue;repeat;1;T;4;1;1;1;Stim8_Set4;0;None;100;99;100;0;99;99;99;;;;;;;;;;;;;;;;;;;;;;;502.1791768;503.3252107;503.3252107;503.3252107;503.3252107;503.3252107;503.3252107;503.3252107;503.3252107;['p', 'i', 'l', 'p', 'o'];0;[0.7830905001610518, 0.999709399882704, 1.207268999889493, 1.3985573002137244, 1.5473874998278916];pilpo;C:\2023\REPSWITCH21092023\REPSWITCH_excgange\REPSWITCH_excgange\data/250101_REPSWITCH1_version1_list1_2023-12-04_12h08.49.815_micRespv1l1_recorded\recording_micRespv1l1_2023-12-04_12h17.08.415.wav;506.3463709;506.8464275;None;506.3463709;506.3463709;506.3463709;506.3463709;506.3463709;506.3463709;;;;;;250101;1;2023-12-04_12h08.49.815;REPSWITCH1_version1_list1;2022.2.4;144.0502912;
REPSWITCH1/PICTURE_320.png;iglesia;speak;gold;filler;1;F;4;1;1;1;Stim8_Set3;0;None;101;100;101;0;100;100;100;;;;;;;;;;;;;;;;;;;;;;;506.8464275;507.9438315;507.9438315;507.9438315;507.9438315;507.9438315;507.9438315;507.9438315;507.9438315;None;0;;;C:\2023\REPSWITCH21092023\REPSWITCH_excgange\REPSWITCH_excgange\data/250101_REPSWITCH1_version1_list1_2023-12-04_12h08.49.815_micRespv1l1_recorded\recording_micRespv1l1_2023-12-04_12h17.13.034.wav;510.9650496;511.465116;None;510.9650496;510.9650496;510.9650496;510.9650496;510.9650496;510.9650496;;;;;;250101;1;2023-12-04_12h08.49.815;REPSWITCH1_version1_list1;2022.2.4;144.0502912;
REPSWITCH1/PICTURE_464.png;goma;type;darkblue;filler;1;F;4;1;1;1;Stim6_Set3;0;None;102;101;102;0;101;101;101;;;;;;;;;;;;;;;;;;;;;;;511.465116;512.5764309;512.5764309;512.5764309;512.5764309;512.5764309;512.5764309;512.5764309;512.5764309;['g', 'o', 'm', 'a'];0;[1.2053129002451897, 1.3029848001897335, 1.5400720001198351, 1.6796053000725806];goma;C:\2023\REPSWITCH21092023\REPSWITCH_excgange\REPSWITCH_excgange\data/250101_REPSWITCH1_version1_list1_2023-12-04_12h08.49.815_micRespv1l1_recorded\recording_micRespv1l1_2023-12-04_12h17.17.666.wav;515.5975811;516.0977547;space;515.5975811;515.5975811;515.5975811;515.5975811;515.5975811;515.5975811;516.0977547;516.0977547;19.5401049;;;250101;1;2023-12-04_12h08.49.815;REPSWITCH1_version1_list1;2022.2.4;144.0502912;
REPSWITCH1/PICTURE_663.png;columna;type;darkblue;filler;1;F;1;2;1;1;Extra6;0;None;103;102;1;0;102;102;102;;;;;;;;;;;;;;;;;;;;;;;535.6488599;536.7185005;536.7185005;536.7185005;536.7185005;536.7185005;536.7185005;536.7185005;536.7185005;['c', 'o', 'l', 'u', 'm', 'n', 'a'];0;[0.9746856996789575, 1.135448900051415, 1.2884792000986636, 1.4848759998567402, 1.6675247997045517, 1.8278614999726415, 1.9026708998717368];columna;C:\2023\REPSWITCH21092023\REPSWITCH_excgange\REPSWITCH_excgange\data/250101_REPSWITCH1_version1_list1_2023-12-04_12h08.49.815_micRespv1l1_recorded\recording_micRespv1l1_2023-12-04_12h17.41.809.wav;539.7465908;;None;539.7465908;539.7465908;539.7465908;539.7465908;539.7465908;539.7465908;;;;;;250101;1;2023-12-04_12h08.49.815;REPSWITCH1_version1_list1;2022.2.4;144.0502912;
REPSWITCH1/PICTURE_128.png;muñeca;speak;gold;nontarget;2;NT;1;2;1;1;Stim4_Set1;1;switch;104;103;2;0;103;103;103;;;;;;;;;;;;;;;;;;;;;;;540.2466825;541.3163227;541.3163227;541.3163227;541.3163227;541.3163227;541.3163227;541.3163227;541.3163227;None;0;;;C:\2023\REPSWITCH21092023\REPSWITCH_excgange\REPSWITCH_excgange\data/250101_REPSWITCH1_version1_list1_2023-12-04_12h08.49.815_micRespv1l1_recorded\recording_micRespv1l1_2023-12-04_12h17.46.407.wav;544.344418;;None;544.344418;544.344418;544.344418;544.344418;544.344418;544.344418;;;;;;250101;1;2023-12-04_12h08.49.815;REPSWITCH1_version1_list1;2022.2.4;144.0502912;
REPSWITCH1/PICTURE_128.png;muñeca;speak;gold;repeat;2;T;1;2;1;1;Stim4_Set1;0;None;105;104;3;0;104;104;104;;;;;;;;;;;;;;;;;;;;;;;544.8444881;545.9279713;545.9279713;545.9279713;545.9279713;545.9279713;545.9279713;545.9279713;545.9279713;None;0;;;C:\2023\REPSWITCH21092023\REPSWITCH_excgange\REPSWITCH_excgange\data/250101_REPSWITCH1_version1_list1_2023-12-04_12h08.49.815_micRespv1l1_recorded\recording_micRespv1l1_2023-12-04_12h17.51.018.wav;548.9492261;549.4492871;None;548.9492261;548.9492261;548.9492261;548.9492261;548.9492261;548.9492261;;;;;;250101;1;2023-12-04_12h08.49.815;REPSWITCH1_version1_list1;2022.2.4;144.0502912;
REPSWITCH1/PICTURE_8.png;pierna;type;darkblue;filler;1;F;1;2;1;1;Stim3_Set4;0;None;106;105;4;0;105;105;105;;;;;;;;;;;;;;;;;;;;;;;549.4492871;550.491101;550.491101;550.491101;550.491101;550.491101;550.491101;550.491101;550.491101;['p', 'i', 'e', 'r', 'n', 'a'];0;[0.9776733005419374, 1.2180688004009426, 1.3595841005444527, 1.5110760005190969, 1.647977700456977, 1.8084049001336098];pierna;C:\2023\REPSWITCH21092023\REPSWITCH_excgange\REPSWITCH_excgange\data/250101_REPSWITCH1_version1_list1_2023-12-04_12h08.49.815_micRespv1l1_recorded\recording_micRespv1l1_2023-12-04_12h17.55.581.wav;553.5122865;554.0124369;None;553.5122865;553.5122865;553.5122865;553.5122865;553.5122865;553.5122865;;;;;;250101;1;2023-12-04_12h08.49.815;REPSWITCH1_version1_list1;2022.2.4;144.0502912;
REPSWITCH1/PICTURE_135.png;traje;speak;gold;nontarget;2;NT;1;2;1;1;Stim3_Set1;1;switch;107;106;5;0;106;106;106;;;;;;;;;;;;;;;;;;;;;;;554.0124369;555.0889878;555.0889878;555.0889878;555.0889878;555.0889878;555.0889878;555.0889878;555.0889878;None;0;;;C:\2023\REPSWITCH21092023\REPSWITCH_excgange\REPSWITCH_excgange\data/250101_REPSWITCH1_version1_list1_2023-12-04_12h08.49.815_micRespv1l1_recorded\recording_micRespv1l1_2023-12-04_12h18.00.179.wav;558.1101107;558.610209;None;558.1101107;558.1101107;558.1101107;558.1101107;558.1101107;558.1101107;;;;;;250101;1;2023-12-04_12h08.49.815;REPSWITCH1_version1_list1;2022.2.4;144.0502912;
REPSWITCH1/PICTURE_135.png;traje;speak;gold;repeat;2;T;1;2;1;1;Stim3_Set1;0;None;108;107;6;0;107;107;107;;;;;;;;;;;;;;;;;;;;;;;558.610209;559.6312163;559.6312163;559.6312163;559.6312163;559.6312163;559.6312163;559.6312163;559.6312163;None;0;;;C:\2023\REPSWITCH21092023\REPSWITCH_excgange\REPSWITCH_excgange\data/250101_REPSWITCH1_version1_list1_2023-12-04_12h08.49.815_micRespv1l1_recorded\recording_micRespv1l1_2023-12-04_12h18.04.722.wav;562.6523684;563.1524404;None;562.6523684;562.6523684;562.6523684;562.6523684;562.6523684;562.6523684;;;;;;250101;1;2023-12-04_12h08.49.815;REPSWITCH1_version1_list1;2022.2.4;144.0502912;
REPSWITCH1/PICTURE_673.png;tenedor;type;darkblue;filler;1;F;1;2;1;1;Extra5;0;None;109;108;7;0;108;108;108;;;;;;;;;;;;;;;;;;;;;;;563.1524404;564.2081958;564.2081958;564.2081958;564.2081958;564.2081958;564.2081958;564.2081958;564.2081958;['t', 'e', 'n', 'e', 'd', 'o', 'r'];0;[0.9492826000787318, 1.1087735001929104, 1.2605964001268148, 1.3037650003097951, 1.4651843002066016, 1.583123900461942, 1.6807924001477659];tenedor;C:\2023\REPSWITCH21092023\REPSWITCH_excgange\REPSWITCH_excgange\data/250101_REPSWITCH1_version1_list1_2023-12-04_12h08.49.815_micRespv1l1_recorded\recording_micRespv1l1_2023-12-04_12h18.09.299.wav;567.2293637;567.7294292;None;567.2293637;567.2293637;567.2293637;567.2293637;567.2293637;567.2293637;;;;;;250101;1;2023-12-04_12h08.49.815;REPSWITCH1_version1_list1;2022.2.4;144.0502912;
REPSWITCH1/PICTURE_728.png;pulpo;speak;gold;filler;2;F;1;2;1;1;Stim8_Set4;0;None;110;109;8;0;109;109;109;;;;;;;;;;;;;;;;;;;;;;;567.7294292;568.8337694;568.8337694;568.8337694;568.8337694;568.8337694;568.8337694;568.8337694;568.8337694;None;0;;;C:\2023\REPSWITCH21092023\REPSWITCH_excgange\REPSWITCH_excgange\data/250101_REPSWITCH1_version1_list1_2023-12-04_12h08.49.815_micRespv1l1_recorded\recording_micRespv1l1_2023-12-04_12h18.13.925.wav;571.8619647;;None;571.8619647;571.8619647;571.8619647;571.8619647;571.8619647;571.8619647;;;;;;250101;1;2023-12-04_12h08.49.815;REPSWITCH1_version1_list1;2022.2.4;144.0502912;
REPSWITCH1/PICTURE_16.png;cazador;speak;gold;nontarget;2;NT;1;2;1;1;Stim6_Set1;1;repeat;111;110;9;0;110;110;110;;;;;;;;;;;;;;;;;;;;;;;572.3620184;573.4802861;573.4802861;573.4802861;573.4802861;573.4802861;573.4802861;573.4802861;573.4802861;None;0;;;C:\2023\REPSWITCH21092023\REPSWITCH_excgange\REPSWITCH_excgange\data/250101_REPSWITCH1_version1_list1_2023-12-04_12h08.49.815_micRespv1l1_recorded\recording_micRespv1l1_2023-12-04_12h18.18.570.wav;576.5014698;577.0015657;None;576.5014698;576.5014698;576.5014698;576.5014698;576.5014698;576.5014698;;;;;;250101;1;2023-12-04_12h08.49.815;REPSWITCH1_version1_list1;2022.2.4;144.0502912;
REPSWITCH1/PICTURE_16.png;cazador;type;darkblue;switch;1;T;1;2;1;1;Stim6_Set1;0;None;112;111;10;0;111;111;111;;;;;;;;;;;;;;;;;;;;;;;577.0015657;578.0502942;578.0502942;578.0502942;578.0502942;578.0502942;578.0502942;578.0502942;578.0502942;['c', 'a', 'z', 'a', 'd', 'o', 'r'];0;[1.2122481004334986, 1.3757035001181066, 1.5641482002101839, 1.7544972002506256, 1.9153773002326488, 2.0227345004677773, 2.1347478004172444];cazador;C:\2023\REPSWITCH21092023\REPSWITCH_excgange\REPSWITCH_excgange\data/250101_REPSWITCH1_version1_list1_2023-12-04_12h08.49.815_micRespv1l1_recorded\recording_micRespv1l1_2023-12-04_12h18.23.141.wav;581.0714638;581.571563;None;581.0714638;581.0714638;581.0714638;581.0714638;581.0714638;581.0714638;;;;;;250101;1;2023-12-04_12h08.49.815;REPSWITCH1_version1_list1;2022.2.4;144.0502912;
REPSWITCH1/PICTURE_498.png;taza;type;darkblue;filler;1;F;1;2;1;1;Stim4_Set4;1;repeat;113;112;11;0;112;112;112;;;;;;;;;;;;;;;;;;;;;;;581.571563;582.724509;582.724509;582.724509;582.724509;582.724509;582.724509;582.724509;582.724509;['t', 'a', 'z', 'a'];0;[0.9887176002375782, 1.2298487001098692, 1.4285079999826849, 1.5959157003089786];taza;C:\2023\REPSWITCH21092023\REPSWITCH_excgange\REPSWITCH_excgange\data/250101_REPSWITCH1_version1_list1_2023-12-04_12h08.49.815_micRespv1l1_recorded\recording_micRespv1l1_2023-12-04_12h18.27.815.wav;585.7456915;586.2457821;None;585.7456915;585.7456915;585.7456915;585.7456915;585.7456915;585.7456915;;;;;;250101;1;2023-12-04_12h08.49.815;REPSWITCH1_version1_list1;2022.2.4;144.0502912;
REPSWITCH1/PICTURE_381.png;fresa;type;darkblue;nontarget;1;NT;1;2;1;1;Stim2_Set1;1;repeat;114;113;12;0;113;113;113;;;;;;;;;;;;;;;;;;;;;;;586.2457821;587.3918397;587.3918397;587.3918397;587.3918397;587.3918397;587.3918397;587.3918397;587.3918397;['f', 'r', 'e', 's', 'a'];0;[0.8950396999716759, 1.0584710999391973, 1.2030241000466049, 1.3807347998954356, 1.552194899879396];fresa;C:\2023\REPSWITCH21092023\REPSWITCH_excgange\REPSWITCH_excgange\data/250101_REPSWITCH1_version1_list1_2023-12-04_12h08.49.815_micRespv1l1_recorded\recording_micRespv1l1_2023-12-04_12h18.32.481.wav;590.4130482;590.9130364;None;590.4130482;590.4130482;590.4130482;590.4130482;590.4130482;590.4130482;;;;;;250101;1;2023-12-04_12h08.49.815;REPSWITCH1_version1_list1;2022.2.4;144.0502912;
REPSWITCH1/PICTURE_381.png;fresa;speak;gold;switch;2;T;1;2;1;1;Stim2_Set1;0;None;115;114;13;0;114;114;114;;;;;;;;;;;;;;;;;;;;;;;590.9130364;592.0382725;592.0382725;592.0382725;592.0382725;592.0382725;592.0382725;592.0382725;592.0382725;None;0;;;C:\2023\REPSWITCH21092023\REPSWITCH_excgange\REPSWITCH_excgange\data/250101_REPSWITCH1_version1_list1_2023-12-04_12h08.49.815_micRespv1l1_recorded\recording_micRespv1l1_2023-12-04_12h18.37.129.wav;595.0664404;;None;595.0664404;595.0664404;595.0664404;595.0664404;595.0664404;595.0664404;;;;;;250101;1;2023-12-04_12h08.49.815;REPSWITCH1_version1_list1;2022.2.4;144.0502912;
REPSWITCH1/PICTURE_178.png;puente;speak;gold;nontarget;2;NT;1;2;1;1;Stim1_Set1;0;None;116;115;14;0;115;115;115;;;;;;;;;;;;;;;;;;;;;;;595.5664284;596.6985674;596.6985674;596.6985674;596.6985674;596.6985674;596.6985674;596.6985674;596.6985674;None;0;;;C:\2023\REPSWITCH21092023\REPSWITCH_excgange\REPSWITCH_excgange\data/250101_REPSWITCH1_version1_list1_2023-12-04_12h08.49.815_micRespv1l1_recorded\recording_micRespv1l1_2023-12-04_12h18.41.789.wav;599.7197945;600.2198549;None;599.7197945;599.7197945;599.7197945;599.7197945;599.7197945;599.7197945;;;;;;250101;1;2023-12-04_12h08.49.815;REPSWITCH1_version1_list1;2022.2.4;144.0502912;
REPSWITCH1/PICTURE_178.png;puente;type;darkblue;switch;1;T;1;2;1;1;Stim1_Set1;0;None;117;116;15;0;116;116;116;;;;;;;;;;;;;;;;;;;;;;;600.2198549;601.2477838;601.2477838;601.2477838;601.2477838;601.2477838;601.2477838;601.2477838;601.2477838;['p', 'u', 'e', 'n', 't', 'e'];0;[0.9997466001659632, 1.3210233999416232, 1.5234254002571106, 1.6961759002879262, 1.8100797003135085, 1.9729045000858605];puente;C:\2023\REPSWITCH21092023\REPSWITCH_excgange\REPSWITCH_excgange\data/250101_REPSWITCH1_version1_list1_2023-12-04_12h08.49.815_micRespv1l1_recorded\recording_micRespv1l1_2023-12-04_12h18.46.338.wav;604.2689879;604.7691321;None;604.2689879;604.2689879;604.2689879;604.2689879;604.2689879;604.2689879;;;;;;250101;1;2023-12-04_12h08.49.815;REPSWITCH1_version1_list1;2022.2.4;144.0502912;
REPSWITCH1/PICTURE_719.png;baño;speak;gold;filler;2;F;1;2;1;1;Stim2_Set4;0;None;118;117;16;0;117;117;117;;;;;;;;;;;;;;;;;;;;;;;604.7691321;605.8526149;605.8526149;605.8526149;605.8526149;605.8526149;605.8526149;605.8526149;605.8526149;None;0;;;C:\2023\REPSWITCH21092023\REPSWITCH_excgange\REPSWITCH_excgange\data/250101_REPSWITCH1_version1_list1_2023-12-04_12h08.49.815_micRespv1l1_recorded\recording_micRespv1l1_2023-12-04_12h18.50.943.wav;608.880713;;None;608.880713;608.880713;608.880713;608.880713;608.880713;608.880713;;;;;;250101;1;2023-12-04_12h08.49.815;REPSWITCH1_version1_list1;2022.2.4;144.0502912;
REPSWITCH1/PICTURE_169.png;espalda;type;darkblue;nontarget;1;NT;1;2;1;1;Stim8_Set1;1;switch;119;118;17;0;118;118;118;;;;;;;;;;;;;;;;;;;;;;;609.3807806;610.4851636;610.4851636;610.4851636;610.4851636;610.4851636;610.4851636;610.4851636;610.4851636;['e', 's', 'p', 'a', 'l', 'd', 'a'];0;[0.7995929000899196, 0.9849348999559879, 1.1111103002913296, 1.1949865999631584, 1.3217961001209915, 1.4264354999177158, 1.5100954002700746];espalda;C:\2023\REPSWITCH21092023\REPSWITCH_excgange\REPSWITCH_excgange\data/250101_REPSWITCH1_version1_list1_2023-12-04_12h08.49.815_micRespv1l1_recorded\recording_micRespv1l1_2023-12-04_12h18.55.575.wav;613.5063816;614.0063801;None;613.5063816;613.5063816;613.5063816;613.5063816;613.5063816;613.5063816;;;;;;250101;1;2023-12-04_12h08.49.815;REPSWITCH1_version1_list1;2022.2.4;144.0502912;
REPSWITCH1/PICTURE_169.png;espalda;type;darkblue;repeat;1;T;1;2;1;1;Stim8_Set1;0;None;120;119;18;0;119;119;119;;;;;;;;;;;;;;;;;;;;;;;614.0063801;615.0343629;615.0343629;615.0343629;615.0343629;615.0343629;615.0343629;615.0343629;615.0343629;['e', 's', 'p', 'a', 'l', 'd', 'a'];0;[0.6847923002205789, 0.8761424999684095, 1.034615300130099, 1.1333177001215518, 1.2887869998812675, 1.4183449000120163, 1.4532375000417233];espalda;C:\2023\REPSWITCH21092023\REPSWITCH_excgange\REPSWITCH_excgange\data/250101_REPSWITCH1_version1_list1_2023-12-04_12h08.49.815_micRespv1l1_recorded\recording_micRespv1l1_2023-12-04_12h19.00.124.wav;618.055516;618.5555773;None;618.055516;618.055516;618.055516;618.055516;618.055516;618.055516;;;;;;250101;1;2023-12-04_12h08.49.815;REPSWITCH1_version1_list1;2022.2.4;144.0502912;
REPSWITCH1/PICTURE_48.png;bombero;speak;gold;filler;2;F;1;2;1;1;Stim7_Set4;1;switch;121;120;19;0;120;120;120;;;;;;;;;;;;;;;;;;;;;;;618.5555773;619.6807487;619.6807487;619.6807487;619.6807487;619.6807487;619.6807487;619.6807487;619.6807487;None;0;;;C:\2023\REPSWITCH21092023\REPSWITCH_excgange\REPSWITCH_excgange\data/250101_REPSWITCH1_version1_list1_2023-12-04_12h08.49.815_micRespv1l1_recorded\recording_micRespv1l1_2023-12-04_12h19.04.771.wav;622.708929;623.2090573;None;622.708929;622.708929;622.708929;622.708929;622.708929;622.708929;;;;;;250101;1;2023-12-04_12h08.49.815;REPSWITCH1_version1_list1;2022.2.4;144.0502912;
REPSWITCH1/PICTURE_19.png;pavo;type;darkblue;nontarget;1;NT;1;2;1;1;Stim5_Set1;1;switch;122;121;20;0;121;121;121;;;;;;;;;;;;;;;;;;;;;;;623.2090573;624.3271807;624.3271807;624.3271807;624.3271807;624.3271807;624.3271807;624.3271807;624.3271807;['p', 'a', 'v', 'o'];0;[0.9798632999882102, 1.0241920999251306, 1.2883427999913692, 1.4010101999156177];pavo;C:\2023\REPSWITCH21092023\REPSWITCH_excgange\REPSWITCH_excgange\data/250101_REPSWITCH1_version1_list1_2023-12-04_12h08.49.815_micRespv1l1_recorded\recording_micRespv1l1_2023-12-04_12h19.09.418.wav;627.3484046;627.8484823;None;627.3484046;627.3484046;627.3484046;627.3484046;627.3484046;627.3484046;;;;;;250101;1;2023-12-04_12h08.49.815;REPSWITCH1_version1_list1;2022.2.4;144.0502912;
REPSWITCH1/PICTURE_19.png;pavo;type;darkblue;repeat;1;T;1;2;1;1;Stim5_Set1;0;None;123;122;21;0;122;122;122;;;;;;;;;;;;;;;;;;;;;;;627.8484823;629.0083499;629.0083499;629.0083499;629.0083499;629.0083499;629.0083499;629.0083499;629.0083499;['p', 'a', 'v', 'o'];0;[0.958754800260067, 1.0355977001599967, 1.3221515002660453, 1.4577272003516555];pavo;C:\2023\REPSWITCH21092023\REPSWITCH_excgange\REPSWITCH_excgange\data/250101_REPSWITCH1_version1_list1_2023-12-04_12h08.49.815_micRespv1l1_recorded\recording_micRespv1l1_2023-12-04_12h19.14.098.wav;632.036517;;None;632.036517;632.036517;632.036517;632.036517;632.036517;632.036517;;;;;;250101;1;2023-12-04_12h08.49.815;REPSWITCH1_version1_list1;2022.2.4;144.0502912;
REPSWITCH1/PICTURE_319.png;vaca;speak;gold;filler;2;F;1;2;1;1;Stim1_Set4;0;None;124;123;22;0;123;123;123;;;;;;;;;;;;;;;;;;;;;;;632.5366721;633.6270411;633.6270411;633.6270411;633.6270411;633.6270411;633.6270411;633.6270411;633.6270411;None;0;;;C:\2023\REPSWITCH21092023\REPSWITCH_excgange\REPSWITCH_excgange\data/250101_REPSWITCH1_version1_list1_2023-12-04_12h08.49.815_micRespv1l1_recorded\recording_micRespv1l1_2023-12-04_12h19.18.718.wav;636.6552383;;None;636.6552383;636.6552383;636.6552383;636.6552383;636.6552383;636.6552383;;;;;;250101;1;2023-12-04_12h08.49.815;REPSWITCH1_version1_list1;2022.2.4;144.0502912;
REPSWITCH1/PICTURE_338.png;regalo;type;darkblue;filler;1;F;1;2;1;1;Stim6_Set4;0;None;125;124;23;0;124;124;124;;;;;;;;;;;;;;;;;;;;;;;637.1552719;638.1832586;638.1832586;638.1832586;638.1832586;638.1832586;638.1832586;638.1832586;638.1832586;['r', 'e', 'g', 'a', 'l', 'o'];0;[0.7536377003416419, 0.8343627001158893, 1.0466558001935482, 1.2549733999185264, 1.3658580998890102, 1.537644499912858];regalo;C:\2023\REPSWITCH21092023\REPSWITCH_excgange\REPSWITCH_excgange\data/250101_REPSWITCH1_version1_list1_2023-12-04_12h08.49.815_micRespv1l1_recorded\recording_micRespv1l1_2023-12-04_12h19.23.274.wav;641.211378;;None;641.211378;641.211378;641.211378;641.211378;641.211378;641.211378;;;;;;250101;1;2023-12-04_12h08.49.815;REPSWITCH1_version1_list1;2022.2.4;144.0502912;
REPSWITCH1/PICTURE_142.png;vaso;type;darkblue;nontarget;1;NT;1;2;1;1;Stim7_Set1;0;None;126;125;24;0;125;125;125;;;;;;;;;;;;;;;;;;;;;;;641.7114768;642.8643388;642.8643388;642.8643388;642.8643388;642.8643388;642.8643388;642.8643388;642.8643388;['v', 'a', 's', 'o'];0;[0.8083693999797106, 1.0016985000111163, 1.155141499824822, 1.2717515002004802];vaso;C:\2023\REPSWITCH21092023\REPSWITCH_excgange\REPSWITCH_excgange\data/250101_REPSWITCH1_version1_list1_2023-12-04_12h08.49.815_micRespv1l1_recorded\recording_micRespv1l1_2023-12-04_12h19.27.955.wav;645.8925056;;None;645.8925056;645.8925056;645.8925056;645.8925056;645.8925056;645.8925056;;;;;;250101;1;2023-12-04_12h08.49.815;REPSWITCH1_version1_list1;2022.2.4;144.0502912;
REPSWITCH1/PICTURE_142.png;vaso;speak;gold;switch;2;T;1;2;1;1;Stim7_Set1;0;None;127;126;25;0;126;126;126;;;;;;;;;;;;;;;;;;;;;;;646.392596;647.489976;647.489976;647.489976;647.489976;647.489976;647.489976;647.489976;647.489976;None;0;;;C:\2023\REPSWITCH21092023\REPSWITCH_excgange\REPSWITCH_excgange\data/250101_REPSWITCH1_version1_list1_2023-12-04_12h08.49.815_micRespv1l1_recorded\recording_micRespv1l1_2023-12-04_12h19.32.580.wav;650.5111633;651.0112479;None;650.5111633;650.5111633;650.5111633;650.5111633;650.5111633;650.5111633;;;;;;250101;1;2023-12-04_12h08.49.815;REPSWITCH1_version1_list1;2022.2.4;144.0502912;
REPSWITCH1/PICTURE_687.png;camisa;type;darkblue;filler;1;F;1;2;1;1;Stim5_Set4;1;switch;128;127;26;0;127;127;127;;;;;;;;;;;;;;;;;;;;;;;651.0112479;652.0252933;652.0252933;652.0252933;652.0252933;652.0252933;652.0252933;652.0252933;652.0252933;['c', 'a', 'm', 'i', 's', 'a'];0;[1.2753651002421975, 1.429332199972123, 1.8418081998825073, 2.0654422999359667, 2.2029487998224795, 2.2876996998675168];camisa;C:\2023\REPSWITCH21092023\REPSWITCH_excgange\REPSWITCH_excgange\data/250101_REPSWITCH1_version1_list1_2023-12-04_12h08.49.815_micRespv1l1_recorded\recording_micRespv1l1_2023-12-04_12h19.37.115.wav;655.0465581;655.5465729;None;655.0465581;655.0465581;655.0465581;655.0465581;655.0465581;655.0465581;;;;;;250101;1;2023-12-04_12h08.49.815;REPSWITCH1_version1_list1;2022.2.4;144.0502912;
REPSWITCH1/PICTURE_30.png;granja;type;darkblue;nontarget;1;NT;2;2;1;1;Stim5_Set2;0;None;129;128;27;0;128;128;128;;;;;;;;;;;;;;;;;;;;;;;655.5465729;656.6231462;656.6231462;656.6231462;656.6231462;656.6231462;656.6231462;656.6231462;656.6231462;['f', 'backspace', 'g', 'r', 'a', 'n', 'j', 'a'];0;[0.994584399741143, 1.541822100058198, 1.7078400999307632, 1.9119798000901937, 2.211090600118041, 2.365559999831021, 2.5310233999043703, 2.5658915997482836];granja;C:\2023\REPSWITCH21092023\REPSWITCH_excgange\REPSWITCH_excgange\data/250101_REPSWITCH1_version1_list1_2023-12-04_12h08.49.815_micRespv1l1_recorded\recording_micRespv1l1_2023-12-04_12h19.41.714.wav;659.6512955;;None;659.6512955;659.6512955;659.6512955;659.6512955;659.6512955;659.6512955;;;;;;250101;1;2023-12-04_12h08.49.815;REPSWITCH1_version1_list1;2022.2.4;144.0502912;
REPSWITCH1/PICTURE_30.png;granja;type;darkblue;repeat;1;T;2;2;1;1;Stim5_Set2;0;None;130;129;28;0;129;129;129;;;;;;;;;;;;;;;;;;;;;;;660.1513277;661.3251731;661.3251731;661.3251731;661.3251731;661.3251731;661.3251731;661.3251731;661.3251731;['g', 'r', 'a', 'n', 'j', 'a'];0;[0.9263397003524005, 1.1287008002400398, 1.4032870004884899, 1.5757472002878785, 1.7491577002219856, 1.8282065005041659];granja;C:\2023\REPSWITCH21092023\REPSWITCH_excgange\REPSWITCH_excgange\data/250101_REPSWITCH1_version1_list1_2023-12-04_12h08.49.815_micRespv1l1_recorded\recording_micRespv1l1_2023-12-04_12h19.46.416.wav;664.3533265;;None;664.3533265;664.3533265;664.3533265;664.3533265;664.3533265;664.3533265;;;;;;250101;1;2023-12-04_12h08.49.815;REPSWITCH1_version1_list1;2022.2.4;144.0502912;
REPSWITCH1/PICTURE_128.png;muñeca;speak;gold;filler;2;F;2;2;1;1;Stim4_Set1;0;None;131;130;29;0;130;130;130;;;;;;;;;;;;;;;;;;;;;;;664.8533335;665.936907;665.936907;665.936907;665.936907;665.936907;665.936907;665.936907;665.936907;None;0;;;C:\2023\REPSWITCH21092023\REPSWITCH_excgange\REPSWITCH_excgange\data/250101_REPSWITCH1_version1_list1_2023-12-04_12h08.49.815_micRespv1l1_recorded\recording_micRespv1l1_2023-12-04_12h19.51.028.wav;668.9650146;;None;668.9650146;668.9650146;668.9650146;668.9650146;668.9650146;668.9650146;;;;;;250101;1;2023-12-04_12h08.49.815;REPSWITCH1_version1_list1;2022.2.4;144.0502912;
REPSWITCH1/PICTURE_264.png;mano;type;darkblue;nontarget;1;NT;2;2;1;1;Stim3_Set2;1;switch;132;131;30;0;131;131;131;;;;;;;;;;;;;;;;;;;;;;;669.4650635;670.5763872;670.5763872;670.5763872;670.5763872;670.5763872;670.5763872;670.5763872;670.5763872;['m', 'a', 'n', 'o'];0;[0.9559852001257241, 1.065134400036186, 1.1558312997221947, 1.3173016998916864];mano;C:\2023\REPSWITCH21092023\REPSWITCH_excgange\REPSWITCH_excgange\data/250101_REPSWITCH1_version1_list1_2023-12-04_12h08.49.815_micRespv1l1_recorded\recording_micRespv1l1_2023-12-04_12h19.55.667.wav;673.5975424;674.0976339;None;673.5975424;673.5975424;673.5975424;673.5975424;673.5975424;673.5975424;;;;;;250101;1;2023-12-04_12h08.49.815;REPSWITCH1_version1_list1;2022.2.4;144.0502912;
REPSWITCH1/PICTURE_264.png;mano;type;darkblue;repeat;1;T;2;2;1;1;Stim3_Set2;0;None;133;132;31;0;132;132;132;;;;;;;;;;;;;;;;;;;;;;;674.0976339;675.1880755;675.1880755;675.1880755;675.1880755;675.1880755;675.1880755;675.1880755;675.1880755;['m', 'a', 'n', 'o'];0;[0.9587854002602398, 1.1033970001153648, 1.2601121002808213, 1.473393500316888];mano;C:\2023\REPSWITCH21092023\REPSWITCH_excgange\REPSWITCH_excgange\data/250101_REPSWITCH1_version1_list1_2023-12-04_12h08.49.815_micRespv1l1_recorded\recording_micRespv1l1_2023-12-04_12h20.00.279.wav;678.2162497;;None;678.2162497;678.2162497;678.2162497;678.2162497;678.2162497;678.2162497;;;;;;250101;1;2023-12-04_12h08.49.815;REPSWITCH1_version1_list1;2022.2.4;144.0502912;
REPSWITCH1/PICTURE_175.png;pintor;type;darkblue;nontarget;1;NT;2;2;1;1;Stim1_Set2;0;None;134;133;32;0;133;133;133;;;;;;;;;;;;;;;;;;;;;;;678.7162673;679.7511454;679.7511454;679.7511454;679.7511454;679.7511454;679.7511454;679.7511454;679.7511454;['p', 'i', 'n', 't', 'o', 'r'];0;[1.2904555001296103, 1.4986267001368105, 1.7267947997897863, 2.5029222001321614, 2.649950200226158, 2.768845099955797];pintor;C:\2023\REPSWITCH21092023\REPSWITCH_excgange\REPSWITCH_excgange\data/250101_REPSWITCH1_version1_list1_2023-12-04_12h08.49.815_micRespv1l1_recorded\recording_micRespv1l1_2023-12-04_12h20.04.841.wav;682.7793062;;None;682.7793062;682.7793062;682.7793062;682.7793062;682.7793062;682.7793062;;;;;;250101;1;2023-12-04_12h08.49.815;REPSWITCH1_version1_list1;2022.2.4;144.0502912;
REPSWITCH1/PICTURE_175.png;pintor;speak;gold;switch;2;T;2;2;1;1;Stim1_Set2;0;None;135;134;33;0;134;134;134;;;;;;;;;;;;;;;;;;;;;;;683.2793696;684.3142536;684.3142536;684.3142536;684.3142536;684.3142536;684.3142536;684.3142536;684.3142536;None;0;;;C:\2023\REPSWITCH21092023\REPSWITCH_excgange\REPSWITCH_excgange\data/250101_REPSWITCH1_version1_list1_2023-12-04_12h08.49.815_micRespv1l1_recorded\recording_micRespv1l1_2023-12-04_12h20.09.405.wav;687.3424115;;None;687.3424115;687.3424115;687.3424115;687.3424115;687.3424115;687.3424115;;;;;;250101;1;2023-12-04_12h08.49.815;REPSWITCH1_version1_list1;2022.2.4;144.0502912;
REPSWITCH1/PICTURE_135.png;traje;speak;gold;filler;2;F;2;2;1;1;Stim3_Set1;1;repeat;136;135;34;0;135;135;135;;;;;;;;;;;;;;;;;;;;;;;687.8424594;688.9260392;688.9260392;688.9260392;688.9260392;688.9260392;688.9260392;688.9260392;688.9260392;None;0;;;C:\2023\REPSWITCH21092023\REPSWITCH_excgange\REPSWITCH_excgange\data/250101_REPSWITCH1_version1_list1_2023-12-04_12h08.49.815_micRespv1l1_recorded\recording_micRespv1l1_2023-12-04_12h20.14.015.wav;691.9472666;692.4472676;None;691.9472666;691.9472666;691.9472666;691.9472666;691.9472666;691.9472666;;;;;;250101;1;2023-12-04_12h08.49.815;REPSWITCH1_version1_list1;2022.2.4;144.0502912;
REPSWITCH1/PICTURE_446.png;cerdo;speak;gold;nontarget;2;NT;2;2;1;1;Stim7_Set2;1;repeat;137;136;35;0;136;136;136;;;;;;;;;;;;;;;;;;;;;;;692.4472676;693.5168687;693.5168687;693.5168687;693.5168687;693.5168687;693.5168687;693.5168687;693.5168687;None;0;;;C:\2023\REPSWITCH21092023\REPSWITCH_excgange\REPSWITCH_excgange\data/250101_REPSWITCH1_version1_list1_2023-12-04_12h08.49.815_micRespv1l1_recorded\recording_micRespv1l1_2023-12-04_12h20.18.607.wav;696.5380833;697.0381576;None;696.5380833;696.5380833;696.5380833;696.5380833;696.5380833;696.5380833;;;;;;250101;1;2023-12-04_12h08.49.815;REPSWITCH1_version1_list1;2022.2.4;144.0502912;
REPSWITCH1/PICTURE_446.png;cerdo;type;darkblue;switch;1;T;2;2;1;1;Stim7_Set2;0;None;138;137;36;0;137;137;137;;;;;;;;;;;;;;;;;;;;;;;697.0381576;698.135569;698.135569;698.135569;698.135569;698.135569;698.135569;698.135569;698.135569;['c', 'e', 'r', 'd', 'o'];0;[0.7813659999519587, 1.0078425998799503, 1.7512663998641074, 1.9406298999674618, 2.082153100054711];cerdo;C:\2023\REPSWITCH21092023\REPSWITCH_excgange\REPSWITCH_excgange\data/250101_REPSWITCH1_version1_list1_2023-12-04_12h08.49.815_micRespv1l1_recorded\recording_micRespv1l1_2023-12-04_12h20.23.226.wav;701.1567137;701.6568203;None;701.1567137;701.1567137;701.1567137;701.1567137;701.1567137;701.1567137;;;;;;250101;1;2023-12-04_12h08.49.815;REPSWITCH1_version1_list1;2022.2.4;144.0502912;
REPSWITCH1/PICTURE_152.png;caracol;type;darkblue;nontarget;1;NT;2;2;1;1;Stim2_Set2;1;repeat;139;138;37;0;138;138;138;;;;;;;;;;;;;;;;;;;;;;;701.6568203;702.9694706;702.9694706;702.9694706;702.9694706;702.9694706;702.9694706;702.9694706;702.9694706;['c', 'a', 'r', 'a', 'c', 'o', 'l'];0;[0.8579370002262294, 1.0186958000995219, 1.2060225000604987, 1.3566338000819087, 1.5729777002707124, 1.6217590998858213, 1.8101164000108838];caracol;C:\2023\REPSWITCH21092023\REPSWITCH_excgange\REPSWITCH_excgange\data/250101_REPSWITCH1_version1_list1_2023-12-04_12h08.49.815_micRespv1l1_recorded\recording_micRespv1l1_2023-12-04_12h20.28.059.wav;705.9907117;706.4907894;None;705.9907117;705.9907117;705.9907117;705.9907117;705.9907117;705.9907117;;;;;;250101;1;2023-12-04_12h08.49.815;REPSWITCH1_version1_list1;2022.2.4;144.0502912;
REPSWITCH1/PICTURE_152.png;caracol;speak;gold;switch;2;T;2;2;1;1;Stim2_Set2;0;None;140;139;38;0;139;139;139;;;;;;;;;;;;;;;;;;;;;;;706.4907894;707.6229007;707.6229007;707.6229007;707.6229007;707.6229007;707.6229007;707.6229007;707.6229007;None;0;;;C:\2023\REPSWITCH21092023\REPSWITCH_excgange\REPSWITCH_excgange\data/250101_REPSWITCH1_version1_list1_2023-12-04_12h08.49.815_micRespv1l1_recorded\recording_micRespv1l1_2023-12-04_12h20.32.713.wav;710.6440901;711.1441775;None;710.6440901;710.6440901;710.6440901;710.6440901;710.6440901;710.6440901;;;;;;250101;1;2023-12-04_12h08.49.815;REPSWITCH1_version1_list1;2022.2.4;144.0502912;
REPSWITCH1/PICTURE_16.png;cazador;type;darkblue;filler;1;F;2;2;1;1;Stim6_Set1;0;None;141;140;39;0;140;140;140;;;;;;;;;;;;;;;;;;;;;;;711.1441775;712.3179476;712.3179476;712.3179476;712.3179476;712.3179476;712.3179476;712.3179476;712.3179476;['c', 'a', 'z', 'a', 'd', 'o', 'r'];0;[0.8895283001475036, 1.038026800379157, 1.2735107000917196, 1.4384201001375914, 1.6038554003462195, 1.7255085003562272, 1.8471794002689421];cazador;C:\2023\REPSWITCH21092023\REPSWITCH_excgange\REPSWITCH_excgange\data/250101_REPSWITCH1_version1_list1_2023-12-04_12h08.49.815_micRespv1l1_recorded\recording_micRespv1l1_2023-12-04_12h20.37.408.wav;715.3391588;715.8392421;None;715.3391588;715.3391588;715.3391588;715.3391588;715.3391588;715.3391588;;;;;;250101;1;2023-12-04_12h08.49.815;REPSWITCH1_version1_list1;2022.2.4;144.0502912;
REPSWITCH1/PICTURE_381.png;fresa;speak;gold;filler;2;F;2;2;1;1;Stim2_Set1;0;None;142;141;40;0;141;141;141;;;;;;;;;;;;;;;;;;;;;;;715.8392421;716.8810556;716.8810556;716.8810556;716.8810556;716.8810556;716.8810556;716.8810556;716.8810556;None;0;;;C:\2023\REPSWITCH21092023\REPSWITCH_excgange\REPSWITCH_excgange\data/250101_REPSWITCH1_version1_list1_2023-12-04_12h08.49.815_micRespv1l1_recorded\recording_micRespv1l1_2023-12-04_12h20.41.971.wav;719.902269;720.4023217;None;719.902269;719.902269;719.902269;719.902269;719.902269;719.902269;;;;;;250101;1;2023-12-04_12h08.49.815;REPSWITCH1_version1_list1;2022.2.4;144.0502912;
