image;correctAns;respModal;frameColor;repSwitch;sequence;target;set;block;list;exp_version;stimulus;baseline;baseline_condition;trial_no;psychopy_trial;Column1;trialsREPSWITCH.thisRepN;trialsREPSWITCH.thisTrialN;trialsREPSWITCH.thisN;trialsREPSWITCH.thisIndex;textWelcome.started;textboxInstrMain1.started;textboxInstrMain1_2.started;textboxInstrMain1_3.started;keyInstrMain.started;keyInstrMain.keys;keyInstrMain.rt;textboxInstrMain2.started;textboxInstrMain2_2.started;textboxInstrMain2_3.started;textboxInstrMain2_4.started;textboxInstrMain2_5.started;textboxInstrMain2_6.started;textboxInstrMain2_7.started;textboxInstrMain2_8.started;textboxInstrMain2_9.started;textboxInstrMain2_10.started;textboxInstrMain2_11.started;textboxInstrMain2_12.started;keyInstrMain2.started;keyInstrMain2.keys;keyInstrMain2.rt;fixationITI.started;fixationITI.stopped;polygonColour.started;polygonWhite.started;imageObject.started;polygonType.started;textInput.started;keyResp.started;micRespv2l3.started;polygonColour.stopped;polygonWhite.stopped;imageObject.stopped;polygonType.stopped;textInput.stopped;keyResp.stopped;keyResp.keys;keyResp.corr;keyResp.rt;subjResponse;micRespv2l3.clip;textBlankLoop.started;textBlankLoop.stopped;keyPause.keys;textboxPause.started;keyPause.started;keyPause.rt;textboxGoodbye.started;textboxGoodbye.stopped;participant;session;date;expName;psychopyVersion;frameRate;Column2
;;;;;;;;;;;;;;;;;;;;;15.6707204;18.163706;18.163706;18.163706;18.163706;space;8.1895111;;;;;;;;;;;;;;;;;;;;;;;;;;;;;;;;;;;;;;;;;;;;220203;1;2023-12-01_13h12.50.376;REPSWITCH1_version2_list3;2022.2.4;143.9196811;
;;;;;;;;;;;;;;;;;;;;;;;;;;;;26.3730882;26.3730882;26.3730882;26.3730882;26.3730882;26.3730882;26.3730882;26.3730882;26.3730882;26.3730882;26.3730882;26.3730882;26.3730882;space;4.5558174;;;;;;;;;;;;;;;;;;;;;;;;;;;;;220203;1;2023-12-01_13h12.50.376;REPSWITCH1_version2_list3;2022.2.4;143.9196811;
REPSWITCH1/PICTURE_663.png;columna;type;gold;filler;1;F;1;2;3;2;Extra6;0;None;1;0;1;0;0;0;0;;;;;;;;;;;;;;;;;;;;;;;31.0195638;32.3113669;32.3113669;32.3113669;32.3113669;32.3113669;32.3113669;32.3113669;32.3113669;35.3395733;35.3395733;35.3395733;35.3395733;35.3395733;35.3395733;['c', 'o', 'l', 'u', 'm', 'n', 'a'];0;[0.9469775001052767, 1.098481300054118, 1.2659168001264334, 1.470147700048983, 1.6438922001980245, 1.7873052000068128, 1.8619656001683325];columna;C:\2023\REPSWITCH21092023\REPSWITCH_excgange\REPSWITCH_excgange\data/220203_REPSWITCH1_version2_list3_2023-12-01_13h12.50.376_micRespv2l3_recorded\recording_micRespv2l3_2023-12-01_13h13.11.912.wav;35.3395733;35.8396312;None;;;;;;220203;1;2023-12-01_13h12.50.376;REPSWITCH1_version2_list3;2022.2.4;143.9196811;
REPSWITCH1/PICTURE_128.png;muñeca;speak;darkblue;nontarget;2;NT;1;2;3;2;Stim4_Set1;1;switch;2;1;2;0;1;1;1;;;;;;;;;;;;;;;;;;;;;;;35.8396312;36.9231178;36.9231178;36.9231178;36.9231178;36.9231178;36.9231178;36.9231178;36.9231178;39.9512541;39.9512541;39.9512541;39.9512541;39.9512541;39.9512541;None;0;;;C:\2023\REPSWITCH21092023\REPSWITCH_excgange\REPSWITCH_excgange\data/220203_REPSWITCH1_version2_list3_2023-12-01_13h12.50.376_micRespv2l3_recorded\recording_micRespv2l3_2023-12-01_13h13.16.521.wav;39.9512541;;None;;;;;;220203;1;2023-12-01_13h12.50.376;REPSWITCH1_version2_list3;2022.2.4;143.9196811;
REPSWITCH1/PICTURE_128.png;muñeca;speak;darkblue;repeat;2;T;1;2;3;2;Stim4_Set1;0;None;3;2;3;0;2;2;2;;;;;;;;;;;;;;;;;;;;;;;40.4513225;41.6112576;41.6112576;41.6112576;41.6112576;41.6112576;41.6112576;41.6112576;41.6112576;44.6324546;44.6324546;44.6324546;44.6324546;44.6324546;44.6324546;None;0;;;C:\2023\REPSWITCH21092023\REPSWITCH_excgange\REPSWITCH_excgange\data/220203_REPSWITCH1_version2_list3_2023-12-01_13h12.50.376_micRespv2l3_recorded\recording_micRespv2l3_2023-12-01_13h13.21.209.wav;44.6324546;45.1325934;None;;;;;;220203;1;2023-12-01_13h12.50.376;REPSWITCH1_version2_list3;2022.2.4;143.9196811;
REPSWITCH1/PICTURE_8.png;pierna;type;gold;filler;1;F;1;2;3;2;Stim3_Set4;0;None;4;3;4;0;3;3;3;;;;;;;;;;;;;;;;;;;;;;;45.1325934;46.2646223;46.2646223;46.2646223;46.2646223;46.2646223;46.2646223;46.2646223;46.2646223;49.2858477;49.2858477;49.2858477;49.2858477;49.2858477;49.2858477;['p', 'i', 'e', 'r', 'n', 'a'];0;[1.1841653001029044, 1.3057190999388695, 1.4103258999530226, 1.4747069000732154, 1.580353300087154, 1.71589559991844];pierna;C:\2023\REPSWITCH21092023\REPSWITCH_excgange\REPSWITCH_excgange\data/220203_REPSWITCH1_version2_list3_2023-12-01_13h12.50.376_micRespv2l3_recorded\recording_micRespv2l3_2023-12-01_13h13.25.862.wav;49.2858477;49.7858923;None;;;;;;220203;1;2023-12-01_13h12.50.376;REPSWITCH1_version2_list3;2022.2.4;143.9196811;
REPSWITCH1/PICTURE_135.png;traje;speak;darkblue;nontarget;2;NT;1;2;3;2;Stim3_Set1;1;switch;5;4;5;0;4;4;4;;;;;;;;;;;;;;;;;;;;;;;49.7858923;50.8763261;50.8763261;50.8763261;50.8763261;50.8763261;50.8763261;50.8763261;50.8763261;53.897554;53.897554;53.897554;53.897554;53.897554;53.897554;None;0;;;C:\2023\REPSWITCH21092023\REPSWITCH_excgange\REPSWITCH_excgange\data/220203_REPSWITCH1_version2_list3_2023-12-01_13h12.50.376_micRespv2l3_recorded\recording_micRespv2l3_2023-12-01_13h13.30.475.wav;53.897554;54.3977026;None;;;;;;220203;1;2023-12-01_13h12.50.376;REPSWITCH1_version2_list3;2022.2.4;143.9196811;
REPSWITCH1/PICTURE_135.png;traje;speak;darkblue;repeat;2;T;1;2;3;2;Stim3_Set1;0;None;6;5;6;0;5;5;5;;;;;;;;;;;;;;;;;;;;;;;54.3977026;55.5297317;55.5297317;55.5297317;55.5297317;55.5297317;55.5297317;55.5297317;55.5297317;58.551023;58.551023;58.551023;58.551023;58.551023;58.551023;None;0;;;C:\2023\REPSWITCH21092023\REPSWITCH_excgange\REPSWITCH_excgange\data/220203_REPSWITCH1_version2_list3_2023-12-01_13h12.50.376_micRespv2l3_recorded\recording_micRespv2l3_2023-12-01_13h13.35.127.wav;58.551023;59.0510141;None;;;;;;220203;1;2023-12-01_13h12.50.376;REPSWITCH1_version2_list3;2022.2.4;143.9196811;
REPSWITCH1/PICTURE_673.png;tenedor;type;gold;filler;1;F;1;2;3;2;Extra5;0;None;7;6;7;0;6;6;6;;;;;;;;;;;;;;;;;;;;;;;59.0510141;60.2108742;60.2108742;60.2108742;60.2108742;60.2108742;60.2108742;60.2108742;60.2108742;63.2321727;63.2321727;63.2321727;63.2321727;63.2321727;63.2321727;['t', 'e', 'n', 'e', 'd', 'o', 'r'];0;[0.9555683999788016, 1.024312699912116, 1.172820399980992, 1.2156352999154478, 1.4058906000573188, 1.5045596999116242, 1.6111929998733103];tenedor;C:\2023\REPSWITCH21092023\REPSWITCH_excgange\REPSWITCH_excgange\data/220203_REPSWITCH1_version2_list3_2023-12-01_13h12.50.376_micRespv2l3_recorded\recording_micRespv2l3_2023-12-01_13h13.39.808.wav;63.2321727;63.732161;None;;;;;;220203;1;2023-12-01_13h12.50.376;REPSWITCH1_version2_list3;2022.2.4;143.9196811;
REPSWITCH1/PICTURE_728.png;pulpo;speak;darkblue;filler;2;F;1;2;3;2;Stim8_Set4;0;None;8;7;8;0;7;7;7;;;;;;;;;;;;;;;;;;;;;;;63.732161;64.8156635;64.8156635;64.8156635;64.8156635;64.8156635;64.8156635;64.8156635;64.8156635;67.8438182;67.8438182;67.8438182;67.8438182;67.8438182;67.8438182;None;0;;;C:\2023\REPSWITCH21092023\REPSWITCH_excgange\REPSWITCH_excgange\data/220203_REPSWITCH1_version2_list3_2023-12-01_13h12.50.376_micRespv2l3_recorded\recording_micRespv2l3_2023-12-01_13h13.44.414.wav;67.8438182;;None;;;;;;220203;1;2023-12-01_13h12.50.376;REPSWITCH1_version2_list3;2022.2.4;143.9196811;
REPSWITCH1/PICTURE_16.png;cazador;speak;darkblue;nontarget;2;NT;1;2;3;2;Stim6_Set1;1;repeat;9;8;9;0;8;8;8;;;;;;;;;;;;;;;;;;;;;;;68.3439654;69.4412567;69.4412567;69.4412567;69.4412567;69.4412567;69.4412567;69.4412567;69.4412567;72.4694317;72.4694317;72.4694317;72.4694317;72.4694317;72.4694317;None;0;;;C:\2023\REPSWITCH21092023\REPSWITCH_excgange\REPSWITCH_excgange\data/220203_REPSWITCH1_version2_list3_2023-12-01_13h12.50.376_micRespv2l3_recorded\recording_micRespv2l3_2023-12-01_13h13.49.039.wav;72.4694317;;None;;;;;;220203;1;2023-12-01_13h12.50.376;REPSWITCH1_version2_list3;2022.2.4;143.9196811;
REPSWITCH1/PICTURE_16.png;cazador;type;gold;switch;1;T;1;2;3;2;Stim6_Set1;0;None;10;9;10;0;9;9;9;;;;;;;;;;;;;;;;;;;;;;;72.969502;74.0390718;74.0390718;74.0390718;74.0390718;74.0390718;74.0390718;74.0390718;74.0390718;77.0673108;77.0673108;77.0673108;77.0673108;77.0673108;77.0673108;['c', 'a', 'z', 'a', 'd', 'o', 'r'];0;[1.164721499895677, 1.2225116998888552, 1.4570258997846395, 1.5696998999919742, 1.7061520998831838, 1.833917299984023, 1.9306326999794692];cazador;C:\2023\REPSWITCH21092023\REPSWITCH_excgange\REPSWITCH_excgange\data/220203_REPSWITCH1_version2_list3_2023-12-01_13h12.50.376_micRespv2l3_recorded\recording_micRespv2l3_2023-12-01_13h13.53.638.wav;77.0673108;77.5673744;None;;;;;;220203;1;2023-12-01_13h12.50.376;REPSWITCH1_version2_list3;2022.2.4;143.9196811;
REPSWITCH1/PICTURE_498.png;taza;type;gold;filler;1;F;1;2;3;2;Stim4_Set4;1;repeat;11;10;11;0;10;10;10;;;;;;;;;;;;;;;;;;;;;;;77.5673744;78.8314108;78.8314108;78.8314108;78.8314108;78.8314108;78.8314108;78.8314108;78.8314108;81.8595457;81.8595457;81.8595457;81.8595457;81.8595457;81.8595457;['t', 'a', 'z', 'a'];0;[1.2707779000047594, 1.356776800006628, 1.6918613000307232, 1.8573276998940855];taza;C:\2023\REPSWITCH21092023\REPSWITCH_excgange\REPSWITCH_excgange\data/220203_REPSWITCH1_version2_list3_2023-12-01_13h12.50.376_micRespv2l3_recorded\recording_micRespv2l3_2023-12-01_13h13.58.430.wav;81.8595457;;None;;;;;;220203;1;2023-12-01_13h12.50.376;REPSWITCH1_version2_list3;2022.2.4;143.9196811;
REPSWITCH1/PICTURE_381.png;fresa;type;gold;nontarget;1;NT;1;2;3;2;Stim2_Set1;1;repeat;12;11;12;0;11;11;11;;;;;;;;;;;;;;;;;;;;;;;82.3596239;83.380564;83.380564;83.380564;83.380564;83.380564;83.380564;83.380564;83.380564;86.4017785;86.4017785;86.4017785;86.4017785;86.4017785;86.4017785;['f', 'r', 'e', 's', 'a'];0;[1.1813147000502795, 1.3878337000496686, 1.439652199856937, 1.6517133999150246, 1.7264032999519259];fresa;C:\2023\REPSWITCH21092023\REPSWITCH_excgange\REPSWITCH_excgange\data/220203_REPSWITCH1_version2_list3_2023-12-01_13h12.50.376_micRespv2l3_recorded\recording_micRespv2l3_2023-12-01_13h14.02.979.wav;86.4017785;86.9018845;None;;;;;;220203;1;2023-12-01_13h12.50.376;REPSWITCH1_version2_list3;2022.2.4;143.9196811;
REPSWITCH1/PICTURE_381.png;fresa;speak;darkblue;switch;2;T;1;2;3;2;Stim2_Set1;0;None;13;12;13;0;12;12;12;;;;;;;;;;;;;;;;;;;;;;;86.9018845;87.9576252;87.9576252;87.9576252;87.9576252;87.9576252;87.9576252;87.9576252;87.9576252;90.9857438;90.9857438;90.9857438;90.9857438;90.9857438;90.9857438;None;0;;;C:\2023\REPSWITCH21092023\REPSWITCH_excgange\REPSWITCH_excgange\data/220203_REPSWITCH1_version2_list3_2023-12-01_13h12.50.376_micRespv2l3_recorded\recording_micRespv2l3_2023-12-01_13h14.07.556.wav;90.9857438;;None;;;;;;220203;1;2023-12-01_13h12.50.376;REPSWITCH1_version2_list3;2022.2.4;143.9196811;
REPSWITCH1/PICTURE_178.png;puente;speak;darkblue;nontarget;2;NT;1;2;3;2;Stim1_Set1;0;None;14;13;14;0;13;13;13;;;;;;;;;;;;;;;;;;;;;;;91.4858155;92.7012509;92.7012509;92.7012509;92.7012509;92.7012509;92.7012509;92.7012509;92.7012509;95.7224946;95.7224946;95.7224946;95.7224946;95.7224946;95.7224946;None;0;;;C:\2023\REPSWITCH21092023\REPSWITCH_excgange\REPSWITCH_excgange\data/220203_REPSWITCH1_version2_list3_2023-12-01_13h12.50.376_micRespv2l3_recorded\recording_micRespv2l3_2023-12-01_13h14.12.300.wav;95.7224946;96.2225511;None;;;;;;220203;1;2023-12-01_13h12.50.376;REPSWITCH1_version2_list3;2022.2.4;143.9196811;
REPSWITCH1/PICTURE_178.png;puente;type;gold;switch;1;T;1;2;3;2;Stim1_Set1;0;None;15;14;15;0;14;14;14;;;;;;;;;;;;;;;;;;;;;;;96.2225511;97.361678;97.361678;97.361678;97.361678;97.361678;97.361678;97.361678;97.361678;100.3828952;100.3828952;100.3828952;100.3828952;100.3828952;100.3828952;['p', 'u', 'e', 'n', 't', 'e'];0;[1.0897142000030726, 1.2263334000017494, 1.3121149998623878, 1.4566313999239355, 1.5313870999962091, 1.5871977999340743];puente;C:\2023\REPSWITCH21092023\REPSWITCH_excgange\REPSWITCH_excgange\data/220203_REPSWITCH1_version2_list3_2023-12-01_13h12.50.376_micRespv2l3_recorded\recording_micRespv2l3_2023-12-01_13h14.16.959.wav;100.3828952;100.8828831;None;;;;;;220203;1;2023-12-01_13h12.50.376;REPSWITCH1_version2_list3;2022.2.4;143.9196811;
REPSWITCH1/PICTURE_719.png;baño;speak;darkblue;filler;2;F;1;2;3;2;Stim2_Set4;0;None;16;15;16;0;15;15;15;;;;;;;;;;;;;;;;;;;;;;;100.8828831;101.931669;101.931669;101.931669;101.931669;101.931669;101.931669;101.931669;101.931669;104.9598804;104.9598804;104.9598804;104.9598804;104.9598804;104.9598804;None;0;;;C:\2023\REPSWITCH21092023\REPSWITCH_excgange\REPSWITCH_excgange\data/220203_REPSWITCH1_version2_list3_2023-12-01_13h12.50.376_micRespv2l3_recorded\recording_micRespv2l3_2023-12-01_13h14.21.530.wav;104.9598804;;None;;;;;;220203;1;2023-12-01_13h12.50.376;REPSWITCH1_version2_list3;2022.2.4;143.9196811;
REPSWITCH1/PICTURE_169.png;espalda;type;gold;nontarget;1;NT;1;2;3;2;Stim8_Set1;1;switch;17;16;17;0;16;16;16;;;;;;;;;;;;;;;;;;;;;;;105.459872;106.6198121;106.6198121;106.6198121;106.6198121;106.6198121;106.6198121;106.6198121;106.6198121;109.6409771;109.6409771;109.6409771;109.6409771;109.6409771;109.6409771;['e', 's', 'p', 'a', 'l', 'd', 'a'];0;[0.9142231000587344, 1.1115914001129568, 1.2351440000347793, 1.3816417001653463, 1.5025264001451433, 1.6091557000763714, 1.6515156000386924];espalda;C:\2023\REPSWITCH21092023\REPSWITCH_excgange\REPSWITCH_excgange\data/220203_REPSWITCH1_version2_list3_2023-12-01_13h12.50.376_micRespv2l3_recorded\recording_micRespv2l3_2023-12-01_13h14.26.217.wav;109.6409771;110.1410489;None;;;;;;220203;1;2023-12-01_13h12.50.376;REPSWITCH1_version2_list3;2022.2.4;143.9196811;
REPSWITCH1/PICTURE_169.png;espalda;type;gold;repeat;1;T;1;2;3;2;Stim8_Set1;0;None;18;17;18;0;17;17;17;;;;;;;;;;;;;;;;;;;;;;;110.1410489;111.2036695;111.2036695;111.2036695;111.2036695;111.2036695;111.2036695;111.2036695;111.2036695;114.2249185;114.2249185;114.2249185;114.2249185;114.2249185;114.2249185;['e', 's', 'p', 'a', 'l', 'd', 'a'];0;[0.9154413000214845, 1.088951899902895, 1.2114534000866115, 1.3081582998856902, 1.4166635000146925, 1.5209194999188185, 1.5517893999349326];espalda;C:\2023\REPSWITCH21092023\REPSWITCH_excgange\REPSWITCH_excgange\data/220203_REPSWITCH1_version2_list3_2023-12-01_13h12.50.376_micRespv2l3_recorded\recording_micRespv2l3_2023-12-01_13h14.30.801.wav;114.2249185;114.7249809;None;;;;;;220203;1;2023-12-01_13h12.50.376;REPSWITCH1_version2_list3;2022.2.4;143.9196811;
REPSWITCH1/PICTURE_48.png;bombero;speak;darkblue;filler;2;F;1;2;3;2;Stim7_Set4;1;switch;19;18;19;0;18;18;18;;;;;;;;;;;;;;;;;;;;;;;114.7249809;115.8015643;115.8015643;115.8015643;115.8015643;115.8015643;115.8015643;115.8015643;115.8015643;118.8227478;118.8227478;118.8227478;118.8227478;118.8227478;118.8227478;None;0;;;C:\2023\REPSWITCH21092023\REPSWITCH_excgange\REPSWITCH_excgange\data/220203_REPSWITCH1_version2_list3_2023-12-01_13h12.50.376_micRespv2l3_recorded\recording_micRespv2l3_2023-12-01_13h14.35.399.wav;118.8227478;119.322804;None;;;;;;220203;1;2023-12-01_13h12.50.376;REPSWITCH1_version2_list3;2022.2.4;143.9196811;
REPSWITCH1/PICTURE_19.png;pavo;type;gold;nontarget;1;NT;1;2;3;2;Stim5_Set1;1;switch;20;19;20;0;19;19;19;;;;;;;;;;;;;;;;;;;;;;;119.322804;120.3368803;120.3368803;120.3368803;120.3368803;120.3368803;120.3368803;120.3368803;120.3368803;123.3580559;123.3580559;123.3580559;123.3580559;123.3580559;123.3580559;['p', 'a', 'v', 'o'];0;[1.2365438998676836, 1.2913844999857247, 1.5286838999018073, 1.6133147000800818];pavo;C:\2023\REPSWITCH21092023\REPSWITCH_excgange\REPSWITCH_excgange\data/220203_REPSWITCH1_version2_list3_2023-12-01_13h12.50.376_micRespv2l3_recorded\recording_micRespv2l3_2023-12-01_13h14.39.934.wav;123.3580559;123.858178;None;;;;;;220203;1;2023-12-01_13h12.50.376;REPSWITCH1_version2_list3;2022.2.4;143.9196811;
REPSWITCH1/PICTURE_19.png;pavo;type;gold;repeat;1;T;1;2;3;2;Stim5_Set1;0;None;21;20;21;0;20;20;20;;;;;;;;;;;;;;;;;;;;;;;123.858178;124.9971399;124.9971399;124.9971399;124.9971399;124.9971399;124.9971399;124.9971399;124.9971399;128.025311;128.025311;128.025311;128.025311;128.025311;128.025311;['p', 'a', 'v', 'o'];0;[0.8304910999722779, 0.8932781999465078, 1.150425500003621, 1.2420717999339104];pavo;C:\2023\REPSWITCH21092023\REPSWITCH_excgange\REPSWITCH_excgange\data/220203_REPSWITCH1_version2_list3_2023-12-01_13h12.50.376_micRespv2l3_recorded\recording_micRespv2l3_2023-12-01_13h14.44.596.wav;128.025311;;None;;;;;;220203;1;2023-12-01_13h12.50.376;REPSWITCH1_version2_list3;2022.2.4;143.9196811;
REPSWITCH1/PICTURE_319.png;vaca;speak;darkblue;filler;2;F;1;2;3;2;Stim1_Set4;0;None;22;21;22;0;21;21;21;;;;;;;;;;;;;;;;;;;;;;;128.5253801;129.6852996;129.6852996;129.6852996;129.6852996;129.6852996;129.6852996;129.6852996;129.6852996;132.7134503;132.7134503;132.7134503;132.7134503;132.7134503;132.7134503;None;0;;;C:\2023\REPSWITCH21092023\REPSWITCH_excgange\REPSWITCH_excgange\data/220203_REPSWITCH1_version2_list3_2023-12-01_13h12.50.376_micRespv2l3_recorded\recording_micRespv2l3_2023-12-01_13h14.49.284.wav;132.7134503;;None;;;;;;220203;1;2023-12-01_13h12.50.376;REPSWITCH1_version2_list3;2022.2.4;143.9196811;
REPSWITCH1/PICTURE_338.png;regalo;type;gold;filler;1;F;1;2;3;2;Stim6_Set4;0;None;23;22;23;0;22;22;22;;;;;;;;;;;;;;;;;;;;;;;133.2135115;134.2483606;134.2483606;134.2483606;134.2483606;134.2483606;134.2483606;134.2483606;134.2483606;137.2696061;137.2696061;137.2696061;137.2696061;137.2696061;137.2696061;['r', 'e', 'g', 'a', 'l', 'o'];0;[1.0410821998957545, 1.0998479998670518, 1.302426900016144, 1.4788079999852926, 1.539634499931708, 1.713058799970895];regalo;C:\2023\REPSWITCH21092023\REPSWITCH_excgange\REPSWITCH_excgange\data/220203_REPSWITCH1_version2_list3_2023-12-01_13h12.50.376_micRespv2l3_recorded\recording_micRespv2l3_2023-12-01_13h14.53.846.wav;137.2696061;137.7696697;None;;;;;;220203;1;2023-12-01_13h12.50.376;REPSWITCH1_version2_list3;2022.2.4;143.9196811;
REPSWITCH1/PICTURE_142.png;vaso;type;gold;nontarget;1;NT;1;2;3;2;Stim7_Set1;0;None;24;23;24;0;23;23;23;;;;;;;;;;;;;;;;;;;;;;;137.7696697;138.7976035;138.7976035;138.7976035;138.7976035;138.7976035;138.7976035;138.7976035;138.7976035;141.8257536;141.8257536;141.8257536;141.8257536;141.8257536;141.8257536;['v', 'a', 's', 'o'];0;[1.0551730999723077, 1.2395556000992656, 1.3123006999958307, 1.4253006000071764];vaso;C:\2023\REPSWITCH21092023\REPSWITCH_excgange\REPSWITCH_excgange\data/220203_REPSWITCH1_version2_list3_2023-12-01_13h12.50.376_micRespv2l3_recorded\recording_micRespv2l3_2023-12-01_13h14.58.395.wav;141.8257536;;None;;;;;;220203;1;2023-12-01_13h12.50.376;REPSWITCH1_version2_list3;2022.2.4;143.9196811;
REPSWITCH1/PICTURE_142.png;vaso;speak;darkblue;switch;2;T;1;2;3;2;Stim7_Set1;0;None;25;24;25;0;24;24;24;;;;;;;;;;;;;;;;;;;;;;;142.3258362;143.3953981;143.3953981;143.3953981;143.3953981;143.3953981;143.3953981;143.3953981;143.3953981;146.4166379;146.4166379;146.4166379;146.4166379;146.4166379;146.4166379;None;0;;;C:\2023\REPSWITCH21092023\REPSWITCH_excgange\REPSWITCH_excgange\data/220203_REPSWITCH1_version2_list3_2023-12-01_13h12.50.376_micRespv2l3_recorded\recording_micRespv2l3_2023-12-01_13h15.02.993.wav;146.4166379;146.9167159;None;;;;;;220203;1;2023-12-01_13h12.50.376;REPSWITCH1_version2_list3;2022.2.4;143.9196811;
REPSWITCH1/PICTURE_687.png;camisa;type;gold;filler;1;F;1;2;3;2;Stim5_Set4;1;switch;26;25;26;0;25;25;25;;;;;;;;;;;;;;;;;;;;;;;146.9167159;148.0488422;148.0488422;148.0488422;148.0488422;148.0488422;148.0488422;148.0488422;148.0488422;151.0700194;151.0700194;151.0700194;151.0700194;151.0700194;151.0700194;['c', 'a', 'm', 'i', 's', 'a'];0;[1.531324400100857, 1.5582367999013513, 1.806364299962297, 1.8612230001017451, 1.9940353999845684, 2.044238399947062];camisa;C:\2023\REPSWITCH21092023\REPSWITCH_excgange\REPSWITCH_excgange\data/220203_REPSWITCH1_version2_list3_2023-12-01_13h12.50.376_micRespv2l3_recorded\recording_micRespv2l3_2023-12-01_13h15.07.646.wav;151.0700194;151.5700739;None;;;;;;220203;1;2023-12-01_13h12.50.376;REPSWITCH1_version2_list3;2022.2.4;143.9196811;
REPSWITCH1/PICTURE_30.png;granja;type;gold;nontarget;1;NT;2;2;3;2;Stim5_Set2;0;None;27;26;27;0;26;26;26;;;;;;;;;;;;;;;;;;;;;;;151.5700739;152.6049266;152.6049266;152.6049266;152.6049266;152.6049266;152.6049266;152.6049266;152.6049266;155.6331146;155.6331146;155.6331146;155.6331146;155.6331146;155.6331146;['g', 'r', 'a', 'j', 'a'];0;[1.7166218000929803, 1.8102564001455903, 2.023580600041896, 2.3139315999578685, 2.4993082999717444];graja;C:\2023\REPSWITCH21092023\REPSWITCH_excgange\REPSWITCH_excgange\data/220203_REPSWITCH1_version2_list3_2023-12-01_13h12.50.376_micRespv2l3_recorded\recording_micRespv2l3_2023-12-01_13h15.12.205.wav;155.6331146;156.1331498;None;;;;;;220203;1;2023-12-01_13h12.50.376;REPSWITCH1_version2_list3;2022.2.4;143.9196811;
REPSWITCH1/PICTURE_30.png;granja;type;gold;repeat;1;T;2;2;3;2;Stim5_Set2;0;None;28;27;28;0;27;27;27;;;;;;;;;;;;;;;;;;;;;;;156.1331498;157.20974;157.20974;157.20974;157.20974;157.20974;157.20974;157.20974;157.20974;160.2379054;160.2379054;160.2379054;160.2379054;160.2379054;160.2379054;['g', 'r', 'a', 'n', 'j', 'a'];0;[1.080775500042364, 1.118607999989763, 1.328939100028947, 1.46747100003995, 1.6090989999938756, 1.6778645000886172];granja;C:\2023\REPSWITCH21092023\REPSWITCH_excgange\REPSWITCH_excgange\data/220203_REPSWITCH1_version2_list3_2023-12-01_13h12.50.376_micRespv2l3_recorded\recording_micRespv2l3_2023-12-01_13h15.16.808.wav;160.2379054;;None;;;;;;220203;1;2023-12-01_13h12.50.376;REPSWITCH1_version2_list3;2022.2.4;143.9196811;
REPSWITCH1/PICTURE_128.png;muñeca;speak;darkblue;filler;2;F;2;2;3;2;Stim4_Set1;0;None;29;28;29;0;28;28;28;;;;;;;;;;;;;;;;;;;;;;;160.7379498;161.8631016;161.8631016;161.8631016;161.8631016;161.8631016;161.8631016;161.8631016;161.8631016;164.8912521;164.8912521;164.8912521;164.8912521;164.8912521;164.8912521;None;0;;;C:\2023\REPSWITCH21092023\REPSWITCH_excgange\REPSWITCH_excgange\data/220203_REPSWITCH1_version2_list3_2023-12-01_13h12.50.376_micRespv2l3_recorded\recording_micRespv2l3_2023-12-01_13h15.21.461.wav;164.8912521;;None;;;;;;220203;1;2023-12-01_13h12.50.376;REPSWITCH1_version2_list3;2022.2.4;143.9196811;
REPSWITCH1/PICTURE_264.png;mano;type;gold;nontarget;1;NT;2;2;3;2;Stim3_Set2;1;switch;30;29;30;0;29;29;29;;;;;;;;;;;;;;;;;;;;;;;165.3913259;166.447049;166.447049;166.447049;166.447049;166.447049;166.447049;166.447049;166.447049;169.4683165;169.4683165;169.4683165;169.4683165;169.4683165;169.4683165;['m', 'a', 'n', 'o'];0;[0.9817351000383496, 1.1063052001409233, 1.2338822002056986, 1.3306266001891345];mano;C:\2023\REPSWITCH21092023\REPSWITCH_excgange\REPSWITCH_excgange\data/220203_REPSWITCH1_version2_list3_2023-12-01_13h12.50.376_micRespv2l3_recorded\recording_micRespv2l3_2023-12-01_13h15.26.045.wav;169.4683165;169.9683182;None;;;;;;220203;1;2023-12-01_13h12.50.376;REPSWITCH1_version2_list3;2022.2.4;143.9196811;
REPSWITCH1/PICTURE_264.png;mano;type;gold;repeat;1;T;2;2;3;2;Stim3_Set2;0;None;31;30;31;0;30;30;30;;;;;;;;;;;;;;;;;;;;;;;169.9683182;170.9823433;170.9823433;170.9823433;170.9823433;170.9823433;170.9823433;170.9823433;170.9823433;174.0035919;174.0035919;174.0035919;174.0035919;174.0035919;174.0035919;['m', 'a', 'n', 'o'];0;[0.8157920001540333, 0.8874379000626504, 1.058908100007102, 1.1366541001480073];mano;C:\2023\REPSWITCH21092023\REPSWITCH_excgange\REPSWITCH_excgange\data/220203_REPSWITCH1_version2_list3_2023-12-01_13h12.50.376_micRespv2l3_recorded\recording_micRespv2l3_2023-12-01_13h15.30.580.wav;174.0035919;174.5036511;None;;;;;;220203;1;2023-12-01_13h12.50.376;REPSWITCH1_version2_list3;2022.2.4;143.9196811;
REPSWITCH1/PICTURE_175.png;pintor;type;gold;nontarget;1;NT;2;2;3;2;Stim1_Set2;0;None;32;31;32;0;31;31;31;;;;;;;;;;;;;;;;;;;;;;;174.5036511;175.5732607;175.5732607;175.5732607;175.5732607;175.5732607;175.5732607;175.5732607;175.5732607;178.6014134;178.6014134;178.6014134;178.6014134;178.6014134;178.6014134;['p', 'i', 'n', 't', 'o', 'r'];0;[1.0768408000003546, 1.1695490998681635, 1.3559435999486595, 1.4625692998524755, 1.565233799861744, 1.6639057998545468];pintor;C:\2023\REPSWITCH21092023\REPSWITCH_excgange\REPSWITCH_excgange\data/220203_REPSWITCH1_version2_list3_2023-12-01_13h12.50.376_micRespv2l3_recorded\recording_micRespv2l3_2023-12-01_13h15.35.172.wav;178.6014134;;None;;;;;;220203;1;2023-12-01_13h12.50.376;REPSWITCH1_version2_list3;2022.2.4;143.9196811;
REPSWITCH1/PICTURE_175.png;pintor;speak;darkblue;switch;2;T;2;2;3;2;Stim1_Set2;0;None;33;32;33;0;32;32;32;;;;;;;;;;;;;;;;;;;;;;;179.1014759;180.3308267;180.3308267;180.3308267;180.3308267;180.3308267;180.3308267;180.3308267;180.3308267;183.3520125;183.3520125;183.3520125;183.3520125;183.3520125;183.3520125;None;0;;;C:\2023\REPSWITCH21092023\REPSWITCH_excgange\REPSWITCH_excgange\data/220203_REPSWITCH1_version2_list3_2023-12-01_13h12.50.376_micRespv2l3_recorded\recording_micRespv2l3_2023-12-01_13h15.39.929.wav;183.3520125;183.8520843;None;;;;;;220203;1;2023-12-01_13h12.50.376;REPSWITCH1_version2_list3;2022.2.4;143.9196811;
REPSWITCH1/PICTURE_135.png;traje;speak;darkblue;filler;2;F;2;2;3;2;Stim3_Set1;1;repeat;34;33;34;0;33;33;33;;;;;;;;;;;;;;;;;;;;;;;183.8520843;184.9494626;184.9494626;184.9494626;184.9494626;184.9494626;184.9494626;184.9494626;184.9494626;187.9707226;187.9707226;187.9707226;187.9707226;187.9707226;187.9707226;None;0;;;C:\2023\REPSWITCH21092023\REPSWITCH_excgange\REPSWITCH_excgange\data/220203_REPSWITCH1_version2_list3_2023-12-01_13h12.50.376_micRespv2l3_recorded\recording_micRespv2l3_2023-12-01_13h15.44.547.wav;187.9707226;188.4707498;None;;;;;;220203;1;2023-12-01_13h12.50.376;REPSWITCH1_version2_list3;2022.2.4;143.9196811;
REPSWITCH1/PICTURE_446.png;cerdo;speak;darkblue;nontarget;2;NT;2;2;3;2;Stim7_Set2;1;repeat;35;34;35;0;34;34;34;;;;;;;;;;;;;;;;;;;;;;;188.4707498;189.5542202;189.5542202;189.5542202;189.5542202;189.5542202;189.5542202;189.5542202;189.5542202;192.5754771;192.5754771;192.5754771;192.5754771;192.5754771;192.5754771;None;0;;;C:\2023\REPSWITCH21092023\REPSWITCH_excgange\REPSWITCH_excgange\data/220203_REPSWITCH1_version2_list3_2023-12-01_13h12.50.376_micRespv2l3_recorded\recording_micRespv2l3_2023-12-01_13h15.49.152.wav;192.5754771;193.0755395;None;;;;;;220203;1;2023-12-01_13h12.50.376;REPSWITCH1_version2_list3;2022.2.4;143.9196811;
REPSWITCH1/PICTURE_446.png;cerdo;type;gold;switch;1;T;2;2;3;2;Stim7_Set2;0;None;36;35;36;0;35;35;35;;;;;;;;;;;;;;;;;;;;;;;193.0755395;194.1937453;194.1937453;194.1937453;194.1937453;194.1937453;194.1937453;194.1937453;194.1937453;197.2149527;197.2149527;197.2149527;197.2149527;197.2149527;197.2149527;['c', 'e', 'r', 'd', 'o'];0;[1.4114051999058574, 1.6047964000608772, 1.6486887999344617, 1.8501599000301212, 1.9310320999938995];cerdo;C:\2023\REPSWITCH21092023\REPSWITCH_excgange\REPSWITCH_excgange\data/220203_REPSWITCH1_version2_list3_2023-12-01_13h12.50.376_micRespv2l3_recorded\recording_micRespv2l3_2023-12-01_13h15.53.793.wav;197.2149527;197.7150301;None;;;;;;220203;1;2023-12-01_13h12.50.376;REPSWITCH1_version2_list3;2022.2.4;143.9196811;
REPSWITCH1/PICTURE_152.png;caracol;type;gold;nontarget;1;NT;2;2;3;2;Stim2_Set2;1;repeat;37;36;37;0;36;36;36;;;;;;;;;;;;;;;;;;;;;;;197.7150301;198.840158;198.840158;198.840158;198.840158;198.840158;198.840158;198.840158;198.840158;201.8613745;201.8613745;201.8613745;201.8613745;201.8613745;201.8613745;['c', 'a', 'r', 'a', 'c', 'o', 'l'];0;[0.8140638000331819, 0.9217188998591155, 1.093483799835667, 1.167200499912724, 1.3665738999843597, 1.4492964998353273, 1.6260613999329507];caracol;C:\2023\REPSWITCH21092023\REPSWITCH_excgange\REPSWITCH_excgange\data/220203_REPSWITCH1_version2_list3_2023-12-01_13h12.50.376_micRespv2l3_recorded\recording_micRespv2l3_2023-12-01_13h15.58.438.wav;201.8613745;202.361484;None;;;;;;220203;1;2023-12-01_13h12.50.376;REPSWITCH1_version2_list3;2022.2.4;143.9196811;
REPSWITCH1/PICTURE_152.png;caracol;speak;darkblue;switch;2;T;2;2;3;2;Stim2_Set2;0;None;38;37;38;0;37;37;37;;;;;;;;;;;;;;;;;;;;;;;202.361484;203.4658554;203.4658554;203.4658554;203.4658554;203.4658554;203.4658554;203.4658554;203.4658554;206.4939661;206.4939661;206.4939661;206.4939661;206.4939661;206.4939661;None;0;;;C:\2023\REPSWITCH21092023\REPSWITCH_excgange\REPSWITCH_excgange\data/220203_REPSWITCH1_version2_list3_2023-12-01_13h12.50.376_micRespv2l3_recorded\recording_micRespv2l3_2023-12-01_13h16.03.064.wav;206.4939661;;None;;;;;;220203;1;2023-12-01_13h12.50.376;REPSWITCH1_version2_list3;2022.2.4;143.9196811;
REPSWITCH1/PICTURE_16.png;cazador;type;gold;filler;1;F;2;2;3;2;Stim6_Set1;0;None;39;38;39;0;38;38;38;;;;;;;;;;;;;;;;;;;;;;;206.9940957;208.0566754;208.0566754;208.0566754;208.0566754;208.0566754;208.0566754;208.0566754;208.0566754;211.077899;211.077899;211.077899;211.077899;211.077899;211.077899;['c', 'a', 'z', 'a', 'd', 'r', 'backspace'];0;[1.176226699957624, 1.299743500072509, 1.540937599958852, 1.6007473000790924, 1.7313071000389755, 1.960498800035566, 2.6772908000275493];cazad;C:\2023\REPSWITCH21092023\REPSWITCH_excgange\REPSWITCH_excgange\data/220203_REPSWITCH1_version2_list3_2023-12-01_13h12.50.376_micRespv2l3_recorded\recording_micRespv2l3_2023-12-01_13h16.07.654.wav;211.077899;211.5779599;None;;;;;;220203;1;2023-12-01_13h12.50.376;REPSWITCH1_version2_list3;2022.2.4;143.9196811;
REPSWITCH1/PICTURE_381.png;fresa;speak;darkblue;filler;2;F;2;2;3;2;Stim2_Set1;0;None;40;39;40;0;39;39;39;;;;;;;;;;;;;;;;;;;;;;;211.5779599;212.6822515;212.6822515;212.6822515;212.6822515;212.6822515;212.6822515;212.6822515;212.6822515;215.7034693;215.7034693;215.7034693;215.7034693;215.7034693;215.7034693;None;0;;;C:\2023\REPSWITCH21092023\REPSWITCH_excgange\REPSWITCH_excgange\data/220203_REPSWITCH1_version2_list3_2023-12-01_13h12.50.376_micRespv2l3_recorded\recording_micRespv2l3_2023-12-01_13h16.12.281.wav;215.7034693;216.2035764;None;;;;;;220203;1;2023-12-01_13h12.50.376;REPSWITCH1_version2_list3;2022.2.4;143.9196811;
REPSWITCH1/PICTURE_19.png;pavo;type;gold;filler;1;F;2;2;3;2;Stim5_Set1;0;None;41;40;41;0;40;40;40;;;;;;;;;;;;;;;;;;;;;;;216.2035764;217.3634341;217.3634341;217.3634341;217.3634341;217.3634341;217.3634341;217.3634341;217.3634341;220.3846548;220.3846548;220.3846548;220.3846548;220.3846548;220.3846548;['p', 'a', 'v', 'o'];0;[1.0371854999102652, 1.0860160000156611, 1.3003004000056535, 1.3690879999194294];pavo;C:\2023\REPSWITCH21092023\REPSWITCH_excgange\REPSWITCH_excgange\data/220203_REPSWITCH1_version2_list3_2023-12-01_13h12.50.376_micRespv2l3_recorded\recording_micRespv2l3_2023-12-01_13h16.16.961.wav;220.3846548;220.8847278;None;;;;;;220203;1;2023-12-01_13h12.50.376;REPSWITCH1_version2_list3;2022.2.4;143.9196811;
REPSWITCH1/PICTURE_517.png;cuerda;speak;darkblue;nontarget;2;NT;2;2;3;2;Stim4_Set2;1;switch;42;41;42;0;41;41;41;;;;;;;;;;;;;;;;;;;;;;;220.8847278;221.8987412;221.8987412;221.8987412;221.8987412;221.8987412;221.8987412;221.8987412;221.8987412;224.9199801;224.9199801;224.9199801;224.9199801;224.9199801;224.9199801;None;0;;;C:\2023\REPSWITCH21092023\REPSWITCH_excgange\REPSWITCH_excgange\data/220203_REPSWITCH1_version2_list3_2023-12-01_13h12.50.376_micRespv2l3_recorded\recording_micRespv2l3_2023-12-01_13h16.21.497.wav;224.9199801;225.4200661;None;;;;;;220203;1;2023-12-01_13h12.50.376;REPSWITCH1_version2_list3;2022.2.4;143.9196811;
REPSWITCH1/PICTURE_517.png;cuerda;speak;darkblue;repeat;2;T;2;2;3;2;Stim4_Set2;0;None;43;42;43;0;42;42;42;;;;;;;;;;;;;;;;;;;;;;;225.4200661;226.496572;226.496572;226.496572;226.496572;226.496572;226.496572;226.496572;226.496572;229.517816;229.517816;229.517816;229.517816;229.517816;229.517816;None;0;;;C:\2023\REPSWITCH21092023\REPSWITCH_excgange\REPSWITCH_excgange\data/220203_REPSWITCH1_version2_list3_2023-12-01_13h12.50.376_micRespv2l3_recorded\recording_micRespv2l3_2023-12-01_13h16.26.094.wav;229.517816;230.0178935;None;;;;;;220203;1;2023-12-01_13h12.50.376;REPSWITCH1_version2_list3;2022.2.4;143.9196811;
REPSWITCH1/PICTURE_178.png;puente;type;gold;filler;1;F;2;2;3;2;Stim1_Set1;0;None;44;43;44;0;43;43;43;;;;;;;;;;;;;;;;;;;;;;;230.0178935;231.170807;231.170807;231.170807;231.170807;231.170807;231.170807;231.170807;231.170807;234.192021;234.192021;234.192021;234.192021;234.192021;234.192021;['p', 'u', 'e', 'n', 't', 'e'];0;[1.0467760998290032, 1.1902740998193622, 1.251072800019756, 1.3827497998718172, 1.4742250998970121, 1.5203998000361025];puente;C:\2023\REPSWITCH21092023\REPSWITCH_excgange\REPSWITCH_excgange\data/220203_REPSWITCH1_version2_list3_2023-12-01_13h12.50.376_micRespv2l3_recorded\recording_micRespv2l3_2023-12-01_13h16.30.769.wav;234.192021;234.6920855;None;;;;;;220203;1;2023-12-01_13h12.50.376;REPSWITCH1_version2_list3;2022.2.4;143.9196811;
REPSWITCH1/PICTURE_199.png;falda;speak;darkblue;nontarget;2;NT;2;2;3;2;Stim8_Set2;1;switch;45;44;45;0;44;44;44;;;;;;;;;;;;;;;;;;;;;;;234.6920855;235.7686131;235.7686131;235.7686131;235.7686131;235.7686131;235.7686131;235.7686131;235.7686131;238.796812;238.796812;238.796812;238.796812;238.796812;238.796812;None;0;;;C:\2023\REPSWITCH21092023\REPSWITCH_excgange\REPSWITCH_excgange\data/220203_REPSWITCH1_version2_list3_2023-12-01_13h12.50.376_micRespv2l3_recorded\recording_micRespv2l3_2023-12-01_13h16.35.367.wav;238.796812;;None;;;;;;220203;1;2023-12-01_13h12.50.376;REPSWITCH1_version2_list3;2022.2.4;143.9196811;
REPSWITCH1/PICTURE_199.png;falda;speak;darkblue;repeat;2;T;2;2;3;2;Stim8_Set2;0;None;46;45;46;0;45;45;45;;;;;;;;;;;;;;;;;;;;;;;239.2968788;240.4359713;240.4359713;240.4359713;240.4359713;240.4359713;240.4359713;240.4359713;240.4359713;243.4571315;243.4571315;243.4571315;243.4571315;243.4571315;243.4571315;None;0;;;C:\2023\REPSWITCH21092023\REPSWITCH_excgange\REPSWITCH_excgange\data/220203_REPSWITCH1_version2_list3_2023-12-01_13h12.50.376_micRespv2l3_recorded\recording_micRespv2l3_2023-12-01_13h16.40.034.wav;243.4571315;243.9571914;None;;;;;;220203;1;2023-12-01_13h12.50.376;REPSWITCH1_version2_list3;2022.2.4;143.9196811;
REPSWITCH1/PICTURE_169.png;espalda;type;gold;filler;1;F;2;2;3;2;Stim8_Set1;0;None;47;46;47;0;46;46;46;;;;;;;;;;;;;;;;;;;;;;;243.9571914;244.9851577;244.9851577;244.9851577;244.9851577;244.9851577;244.9851577;244.9851577;244.9851577;248.0063624;248.0063624;248.0063624;248.0063624;248.0063624;248.0063624;['e', 's', 'p', 'a', 'l', 'd', 'a'];0;[1.0015661001671106, 1.2438203999772668, 1.3765042000450194, 1.4808267999906093, 1.593448500148952, 1.722301100147888, 1.7591812999453396];espalda;C:\2023\REPSWITCH21092023\REPSWITCH_excgange\REPSWITCH_excgange\data/220203_REPSWITCH1_version2_list3_2023-12-01_13h12.50.376_micRespv2l3_recorded\recording_micRespv2l3_2023-12-01_13h16.44.583.wav;248.0063624;248.5064246;None;;;;;;220203;1;2023-12-01_13h12.50.376;REPSWITCH1_version2_list3;2022.2.4;143.9196811;
REPSWITCH1/PICTURE_142.png;vaso;speak;darkblue;filler;2;F;2;2;3;2;Stim7_Set1;0;None;48;47;48;0;47;47;47;;;;;;;;;;;;;;;;;;;;;;;248.5064246;249.6037915;249.6037915;249.6037915;249.6037915;249.6037915;249.6037915;249.6037915;249.6037915;252.6319207;252.6319207;252.6319207;252.6319207;252.6319207;252.6319207;None;0;;;C:\2023\REPSWITCH21092023\REPSWITCH_excgange\REPSWITCH_excgange\data/220203_REPSWITCH1_version2_list3_2023-12-01_13h12.50.376_micRespv2l3_recorded\recording_micRespv2l3_2023-12-01_13h16.49.203.wav;252.6319207;;None;;;;;;220203;1;2023-12-01_13h12.50.376;REPSWITCH1_version2_list3;2022.2.4;143.9196811;
REPSWITCH1/PICTURE_552.png;manzana;speak;darkblue;nontarget;2;NT;2;2;3;2;Stim6_Set2;0;None;49;48;49;0;48;48;48;;;;;;;;;;;;;;;;;;;;;;;253.1320257;254.2780152;254.2780152;254.2780152;254.2780152;254.2780152;254.2780152;254.2780152;254.2780152;257.3061597;257.3061597;257.3061597;257.3061597;257.3061597;257.3061597;None;0;;;C:\2023\REPSWITCH21092023\REPSWITCH_excgange\REPSWITCH_excgange\data/220203_REPSWITCH1_version2_list3_2023-12-01_13h12.50.376_micRespv2l3_recorded\recording_micRespv2l3_2023-12-01_13h16.53.876.wav;257.3061597;;None;;;;;;220203;1;2023-12-01_13h12.50.376;REPSWITCH1_version2_list3;2022.2.4;143.9196811;
REPSWITCH1/PICTURE_552.png;manzana;type;gold;switch;1;T;2;2;3;2;Stim6_Set2;0;None;50;49;50;0;49;49;49;;;;;;;;;;;;;;;;;;;;;;;257.8062572;258.9870299;258.9870299;258.9870299;258.9870299;258.9870299;258.9870299;258.9870299;258.9870299;262.0081595;262.0081595;262.0081595;262.0081595;262.0081595;262.0081595;['m', 'a', 'n', 'z', 'a', 'n', 'a'];0;[0.9363039000891149, 1.0030439000111073, 1.6094607000704855, 1.7479906000662595, 1.883593900129199, 2.0778894000686705, 2.3649079999886453];manzana;C:\2023\REPSWITCH21092023\REPSWITCH_excgange\REPSWITCH_excgange\data/220203_REPSWITCH1_version2_list3_2023-12-01_13h12.50.376_micRespv2l3_recorded\recording_micRespv2l3_2023-12-01_13h16.58.586.wav;262.0081595;262.508303;None;;;;;;220203;1;2023-12-01_13h12.50.376;REPSWITCH1_version2_list3;2022.2.4;143.9196811;
REPSWITCH1/PICTURE_590.png;escoba;speak;darkblue;filler;2;F;1;2;3;2;Extra3;0;None;51;50;51;0;50;50;50;;;;;;;;;;;;;;;;;;;;;;;262.508303;263.6334697;263.6334697;263.6334697;263.6334697;263.6334697;263.6334697;263.6334697;263.6334697;266.6546126;266.6546126;266.6546126;266.6546126;266.6546126;266.6546126;None;0;;;C:\2023\REPSWITCH21092023\REPSWITCH_excgange\REPSWITCH_excgange\data/220203_REPSWITCH1_version2_list3_2023-12-01_13h12.50.376_micRespv2l3_recorded\recording_micRespv2l3_2023-12-01_13h17.03.231.wav;266.6546126;267.1546953;space;267.1546953;267.1546953;13.0745163;;;220203;1;2023-12-01_13h12.50.376;REPSWITCH1_version2_list3;2022.2.4;143.9196811;
REPSWITCH1/PICTURE_552.png;manzana;type;gold;filler;1;F;3;2;3;2;Stim6_Set2;0;None;52;51;52;0;51;51;51;;;;;;;;;;;;;;;;;;;;;;;280.2397534;281.2954415;281.2954415;281.2954415;281.2954415;281.2954415;281.2954415;281.2954415;281.2954415;284.316641;284.316641;284.316641;284.316641;284.316641;284.316641;['m', 'a', 'm', 'z', 'a', 'backspace', 'backspace', 'backspace', 'm'];0;[1.0708300999831408, 1.495252599939704, 1.6943999999202788, 1.850940499920398, 1.9356554998084903, 2.417403799947351, 2.552398899802938, 2.7008167000021785, 2.9071299999486655];mam;C:\2023\REPSWITCH21092023\REPSWITCH_excgange\REPSWITCH_excgange\data/220203_REPSWITCH1_version2_list3_2023-12-01_13h12.50.376_micRespv2l3_recorded\recording_micRespv2l3_2023-12-01_13h17.20.894.wav;284.316641;284.8167311;None;;;;;;220203;1;2023-12-01_13h12.50.376;REPSWITCH1_version2_list3;2022.2.4;143.9196811;
REPSWITCH1/PICTURE_464.png;goma;type;gold;nontarget;1;NT;3;2;3;2;Stim6_Set3;1;repeat;53;52;53;0;52;52;52;;;;;;;;;;;;;;;;;;;;;;;284.8167311;285.8932896;285.8932896;285.8932896;285.8932896;285.8932896;285.8932896;285.8932896;285.8932896;288.9145079;288.9145079;288.9145079;288.9145079;288.9145079;288.9145079;['g', 'p', 'o', 'm', 'backspace', 'backspace', 'o', 'm', 'a'];0;[1.4680695999413729, 1.6000324999913573, 1.6374987999442965, 1.773849100107327, 2.1091114999726415, 2.254919500090182, 2.485498500056565, 2.5891529999207705, 2.6768602000083774];gpoma;C:\2023\REPSWITCH21092023\REPSWITCH_excgange\REPSWITCH_excgange\data/220203_REPSWITCH1_version2_list3_2023-12-01_13h12.50.376_micRespv2l3_recorded\recording_micRespv2l3_2023-12-01_13h17.25.491.wav;288.9145079;289.4145777;None;;;;;;220203;1;2023-12-01_13h12.50.376;REPSWITCH1_version2_list3;2022.2.4;143.9196811;
REPSWITCH1/PICTURE_464.png;goma;speak;darkblue;switch;2;T;3;2;3;2;Stim6_Set3;0;None;54;53;54;0;53;53;53;;;;;;;;;;;;;;;;;;;;;;;289.4145777;290.5814056;290.5814056;290.5814056;290.5814056;290.5814056;290.5814056;290.5814056;290.5814056;293.6095501;293.6095501;293.6095501;293.6095501;293.6095501;293.6095501;None;0;;;C:\2023\REPSWITCH21092023\REPSWITCH_excgange\REPSWITCH_excgange\data/220203_REPSWITCH1_version2_list3_2023-12-01_13h12.50.376_micRespv2l3_recorded\recording_micRespv2l3_2023-12-01_13h17.30.180.wav;293.6095501;;None;;;;;;220203;1;2023-12-01_13h12.50.376;REPSWITCH1_version2_list3;2022.2.4;143.9196811;
REPSWITCH1/PICTURE_30.png;granja;speak;darkblue;filler;2;F;3;2;3;2;Stim5_Set2;0;None;55;54;55;0;54;54;54;;;;;;;;;;;;;;;;;;;;;;;294.1096305;295.3042132;295.3042132;295.3042132;295.3042132;295.3042132;295.3042132;295.3042132;295.3042132;298.3324347;298.3324347;298.3324347;298.3324347;298.3324347;298.3324347;None;0;;;C:\2023\REPSWITCH21092023\REPSWITCH_excgange\REPSWITCH_excgange\data/220203_REPSWITCH1_version2_list3_2023-12-01_13h12.50.376_micRespv2l3_recorded\recording_micRespv2l3_2023-12-01_13h17.34.903.wav;298.3324347;;None;;;;;;220203;1;2023-12-01_13h12.50.376;REPSWITCH1_version2_list3;2022.2.4;143.9196811;
REPSWITCH1/PICTURE_235.png;aguja;speak;darkblue;nontarget;2;NT;3;2;3;2;Stim4_Set3;1;repeat;56;55;56;0;55;55;55;;;;;;;;;;;;;;;;;;;;;;;298.8325493;299.8812097;299.8812097;299.8812097;299.8812097;299.8812097;299.8812097;299.8812097;299.8812097;302.9025296;302.9025296;302.9025296;302.9025296;302.9025296;302.9025296;None;0;;;C:\2023\REPSWITCH21092023\REPSWITCH_excgange\REPSWITCH_excgange\data/220203_REPSWITCH1_version2_list3_2023-12-01_13h12.50.376_micRespv2l3_recorded\recording_micRespv2l3_2023-12-01_13h17.39.479.wav;302.9025296;303.4025221;None;;;;;;220203;1;2023-12-01_13h12.50.376;REPSWITCH1_version2_list3;2022.2.4;143.9196811;
REPSWITCH1/PICTURE_235.png;aguja;type;gold;switch;1;T;3;2;3;2;Stim4_Set3;0;None;57;56;57;0;56;56;56;;;;;;;;;;;;;;;;;;;;;;;303.4025221;304.5693436;304.5693436;304.5693436;304.5693436;304.5693436;304.5693436;304.5693436;304.5693436;307.5905728;307.5905728;307.5905728;307.5905728;307.5905728;307.5905728;['a', 'g', 'u', 'j', 'a'];0;[0.861116599990055, 1.139160400023684, 1.3106060998979956, 1.498020499944687, 1.6007409999147058];aguja;C:\2023\REPSWITCH21092023\REPSWITCH_excgange\REPSWITCH_excgange\data/220203_REPSWITCH1_version2_list3_2023-12-01_13h12.50.376_micRespv2l3_recorded\recording_micRespv2l3_2023-12-01_13h17.44.168.wav;307.5905728;308.0906663;None;;;;;;220203;1;2023-12-01_13h12.50.376;REPSWITCH1_version2_list3;2022.2.4;143.9196811;
REPSWITCH1/PICTURE_391.png;cadena;type;gold;filler;1;F;3;2;3;2;Extra2;0;None;58;57;58;0;57;57;57;;;;;;;;;;;;;;;;;;;;;;;308.0906663;309.3060832;309.3060832;309.3060832;309.3060832;309.3060832;309.3060832;309.3060832;309.3060832;312.3272741;312.3272741;312.3272741;312.3272741;312.3272741;312.3272741;['c', 'a', 'd', 'e', 'n', 'a'];0;[0.9158128998242319, 0.9726253999397159, 1.1670037999283522, 1.2427438998129219, 1.304538699798286, 1.4065166998188943];cadena;C:\2023\REPSWITCH21092023\REPSWITCH_excgange\REPSWITCH_excgange\data/220203_REPSWITCH1_version2_list3_2023-12-01_13h12.50.376_micRespv2l3_recorded\recording_micRespv2l3_2023-12-01_13h17.48.904.wav;312.3272741;312.827441;None;;;;;;220203;1;2023-12-01_13h12.50.376;REPSWITCH1_version2_list3;2022.2.4;143.9196811;
REPSWITCH1/PICTURE_320.png;iglesia;type;gold;nontarget;1;NT;3;2;3;2;Stim8_Set3;0;None;59;58;59;0;58;58;58;;;;;;;;;;;;;;;;;;;;;;;312.827441;313.8483112;313.8483112;313.8483112;313.8483112;313.8483112;313.8483112;313.8483112;313.8483112;316.8695298;316.8695298;316.8695298;316.8695298;316.8695298;316.8695298;['i', 'g', 'l', 'e', 's', 'i', 'a'];0;[0.9126492999494076, 1.3938078000210226, 1.4610077000688761, 1.5427550999447703, 1.7084218000527471, 1.7771920999512076, 1.9017406001221389];iglesia;C:\2023\REPSWITCH21092023\REPSWITCH_excgange\REPSWITCH_excgange\data/220203_REPSWITCH1_version2_list3_2023-12-01_13h12.50.376_micRespv2l3_recorded\recording_micRespv2l3_2023-12-01_13h17.53.446.wav;316.8695298;317.3696302;None;;;;;;220203;1;2023-12-01_13h12.50.376;REPSWITCH1_version2_list3;2022.2.4;143.9196811;
REPSWITCH1/PICTURE_320.png;iglesia;speak;darkblue;switch;2;T;3;2;3;2;Stim8_Set3;0;None;60;59;60;0;59;59;59;;;;;;;;;;;;;;;;;;;;;;;317.3696302;318.4878119;318.4878119;318.4878119;318.4878119;318.4878119;318.4878119;318.4878119;318.4878119;321.5159983;321.5159983;321.5159983;321.5159983;321.5159983;321.5159983;None;0;;;C:\2023\REPSWITCH21092023\REPSWITCH_excgange\REPSWITCH_excgange\data/220203_REPSWITCH1_version2_list3_2023-12-01_13h12.50.376_micRespv2l3_recorded\recording_micRespv2l3_2023-12-01_13h17.58.087.wav;321.5159983;;None;;;;;;220203;1;2023-12-01_13h12.50.376;REPSWITCH1_version2_list3;2022.2.4;143.9196811;
REPSWITCH1/PICTURE_175.png;pintor;type;gold;filler;1;F;3;2;3;2;Stim1_Set2;0;None;61;60;61;0;60;60;60;;;;;;;;;;;;;;;;;;;;;;;322.0160591;323.1967979;323.1967979;323.1967979;323.1967979;323.1967979;323.1967979;323.1967979;323.1967979;326.2180047;326.2180047;326.2180047;326.2180047;326.2180047;326.2180047;['p', 'i', 'n', 't', 'o', 'r'];0;[1.2605008999817073, 1.3511845998000354, 1.5445552999153733, 1.6375576998107135, 1.7551688000094146, 1.8598263999447227];pintor;C:\2023\REPSWITCH21092023\REPSWITCH_excgange\REPSWITCH_excgange\data/220203_REPSWITCH1_version2_list3_2023-12-01_13h12.50.376_micRespv2l3_recorded\recording_micRespv2l3_2023-12-01_13h18.02.795.wav;326.2180047;326.7180543;None;;;;;;220203;1;2023-12-01_13h12.50.376;REPSWITCH1_version2_list3;2022.2.4;143.9196811;
REPSWITCH1/PICTURE_271.png;conejo;speak;darkblue;nontarget;2;NT;3;2;3;2;Stim7_Set3;1;switch;62;61;62;0;61;61;61;;;;;;;;;;;;;;;;;;;;;;;326.7180543;327.7529856;327.7529856;327.7529856;327.7529856;327.7529856;327.7529856;327.7529856;327.7529856;330.7810909;330.7810909;330.7810909;330.7810909;330.7810909;330.7810909;None;0;;;C:\2023\REPSWITCH21092023\REPSWITCH_excgange\REPSWITCH_excgange\data/220203_REPSWITCH1_version2_list3_2023-12-01_13h12.50.376_micRespv2l3_recorded\recording_micRespv2l3_2023-12-01_13h18.07.351.wav;330.7810909;;None;;;;;;220203;1;2023-12-01_13h12.50.376;REPSWITCH1_version2_list3;2022.2.4;143.9196811;
REPSWITCH1/PICTURE_271.png;conejo;speak;darkblue;repeat;2;T;3;2;3;2;Stim7_Set3;0;None;63;62;63;0;62;62;62;;;;;;;;;;;;;;;;;;;;;;;331.2811547;332.3577733;332.3577733;332.3577733;332.3577733;332.3577733;332.3577733;332.3577733;332.3577733;335.3789179;335.3789179;335.3789179;335.3789179;335.3789179;335.3789179;None;0;;;C:\2023\REPSWITCH21092023\REPSWITCH_excgange\REPSWITCH_excgange\data/220203_REPSWITCH1_version2_list3_2023-12-01_13h12.50.376_micRespv2l3_recorded\recording_micRespv2l3_2023-12-01_13h18.11.955.wav;335.3789179;335.8790739;None;;;;;;220203;1;2023-12-01_13h12.50.376;REPSWITCH1_version2_list3;2022.2.4;143.9196811;
REPSWITCH1/PICTURE_446.png;cerdo;speak;darkblue;filler;2;F;3;2;3;2;Stim7_Set2;0;None;64;63;64;0;63;63;63;;;;;;;;;;;;;;;;;;;;;;;335.8790739;337.0528294;337.0528294;337.0528294;337.0528294;337.0528294;337.0528294;337.0528294;337.0528294;340.0739692;340.0739692;340.0739692;340.0739692;340.0739692;340.0739692;None;0;;;C:\2023\REPSWITCH21092023\REPSWITCH_excgange\REPSWITCH_excgange\data/220203_REPSWITCH1_version2_list3_2023-12-01_13h12.50.376_micRespv2l3_recorded\recording_micRespv2l3_2023-12-01_13h18.16.650.wav;340.0739692;340.574056;None;;;;;;220203;1;2023-12-01_13h12.50.376;REPSWITCH1_version2_list3;2022.2.4;143.9196811;
REPSWITCH1/PICTURE_152.png;caracol;type;gold;filler;1;F;3;2;3;2;Stim2_Set2;0;None;65;64;65;0;64;64;64;;;;;;;;;;;;;;;;;;;;;;;340.574056;341.6783863;341.6783863;341.6783863;341.6783863;341.6783863;341.6783863;341.6783863;341.6783863;344.7066238;344.7066238;344.7066238;344.7066238;344.7066238;344.7066238;['c', 'a', 'r', 'a', 'c', 'o', 'l'];0;[0.8547667001839727, 0.9683829999994487, 1.158708200091496, 1.2637229000683874, 1.4982549999840558, 1.5960028001572937, 1.7684617000631988];caracol;C:\2023\REPSWITCH21092023\REPSWITCH_excgange\REPSWITCH_excgange\data/220203_REPSWITCH1_version2_list3_2023-12-01_13h12.50.376_micRespv2l3_recorded\recording_micRespv2l3_2023-12-01_13h18.21.278.wav;344.7066238;;None;;;;;;220203;1;2023-12-01_13h12.50.376;REPSWITCH1_version2_list3;2022.2.4;143.9196811;
REPSWITCH1/PICTURE_576.png;guante;speak;darkblue;nontarget;2;NT;3;2;3;2;Stim1_Set3;1;switch;66;65;66;0;65;65;65;;;;;;;;;;;;;;;;;;;;;;;345.2066189;346.3040404;346.3040404;346.3040404;346.3040404;346.3040404;346.3040404;346.3040404;346.3040404;349.3251782;349.3251782;349.3251782;349.3251782;349.3251782;349.3251782;None;0;;;C:\2023\REPSWITCH21092023\REPSWITCH_excgange\REPSWITCH_excgange\data/220203_REPSWITCH1_version2_list3_2023-12-01_13h12.50.376_micRespv2l3_recorded\recording_micRespv2l3_2023-12-01_13h18.25.902.wav;349.3251782;349.8252514;None;;;;;;220203;1;2023-12-01_13h12.50.376;REPSWITCH1_version2_list3;2022.2.4;143.9196811;
REPSWITCH1/PICTURE_576.png;guante;speak;darkblue;repeat;2;T;3;2;3;2;Stim1_Set3;0;None;67;66;67;0;66;66;66;;;;;;;;;;;;;;;;;;;;;;;349.8252514;350.8879138;350.8879138;350.8879138;350.8879138;350.8879138;350.8879138;350.8879138;350.8879138;353.9091152;353.9091152;353.9091152;353.9091152;353.9091152;353.9091152;None;0;;;C:\2023\REPSWITCH21092023\REPSWITCH_excgange\REPSWITCH_excgange\data/220203_REPSWITCH1_version2_list3_2023-12-01_13h12.50.376_micRespv2l3_recorded\recording_micRespv2l3_2023-12-01_13h18.30.487.wav;353.9091152;354.4091889;None;;;;;;220203;1;2023-12-01_13h12.50.376;REPSWITCH1_version2_list3;2022.2.4;143.9196811;
REPSWITCH1/PICTURE_242.png;cartero;speak;darkblue;nontarget;2;NT;3;2;3;2;Stim3_Set3;0;None;68;67;68;0;67;67;67;;;;;;;;;;;;;;;;;;;;;;;354.4091889;355.4649742;355.4649742;355.4649742;355.4649742;355.4649742;355.4649742;355.4649742;355.4649742;358.4930573;358.4930573;358.4930573;358.4930573;358.4930573;358.4930573;None;0;;;C:\2023\REPSWITCH21092023\REPSWITCH_excgange\REPSWITCH_excgange\data/220203_REPSWITCH1_version2_list3_2023-12-01_13h12.50.376_micRespv2l3_recorded\recording_micRespv2l3_2023-12-01_13h18.35.063.wav;358.4930573;;None;;;;;;220203;1;2023-12-01_13h12.50.376;REPSWITCH1_version2_list3;2022.2.4;143.9196811;
REPSWITCH1/PICTURE_242.png;cartero;type;gold;switch;1;T;3;2;3;2;Stim3_Set3;0;None;69;68;69;0;68;68;68;;;;;;;;;;;;;;;;;;;;;;;358.993129;360.1252478;360.1252478;360.1252478;360.1252478;360.1252478;360.1252478;360.1252478;360.1252478;363.1464416;363.1464416;363.1464416;363.1464416;363.1464416;363.1464416;['c', 'a', 'r', 't', 'e', 'r', 'o'];0;[0.8636900000274181, 0.9315222001168877, 1.1522344001568854, 1.4025282999500632, 1.5151478999760002, 1.6546819999348372, 1.7516668001189828];cartero;C:\2023\REPSWITCH21092023\REPSWITCH_excgange\REPSWITCH_excgange\data/220203_REPSWITCH1_version2_list3_2023-12-01_13h12.50.376_micRespv2l3_recorded\recording_micRespv2l3_2023-12-01_13h18.39.723.wav;363.1464416;363.6465381;None;;;;;;220203;1;2023-12-01_13h12.50.376;REPSWITCH1_version2_list3;2022.2.4;143.9196811;
REPSWITCH1/PICTURE_517.png;cuerda;speak;darkblue;filler;2;F;3;2;3;2;Stim4_Set2;0;None;70;69;70;0;69;69;69;;;;;;;;;;;;;;;;;;;;;;;363.6465381;364.8064673;364.8064673;364.8064673;364.8064673;364.8064673;364.8064673;364.8064673;364.8064673;367.8345715;367.8345715;367.8345715;367.8345715;367.8345715;367.8345715;None;0;;;C:\2023\REPSWITCH21092023\REPSWITCH_excgange\REPSWITCH_excgange\data/220203_REPSWITCH1_version2_list3_2023-12-01_13h12.50.376_micRespv2l3_recorded\recording_micRespv2l3_2023-12-01_13h18.44.404.wav;367.8345715;;None;;;;;;220203;1;2023-12-01_13h12.50.376;REPSWITCH1_version2_list3;2022.2.4;143.9196811;
REPSWITCH1/PICTURE_646.png;tronco;type;gold;filler;1;F;3;2;3;2;Extra4;0;None;71;70;71;0;70;70;70;;;;;;;;;;;;;;;;;;;;;;;368.3347294;369.3556031;369.3556031;369.3556031;369.3556031;369.3556031;369.3556031;369.3556031;369.3556031;372.3838032;372.3838032;372.3838032;372.3838032;372.3838032;372.3838032;['t', 'r', 'o', 'n', 'c', 'o'];0;[1.1023001000285149, 1.128212499897927, 1.2647573999129236, 1.396669500041753, 1.4773947999347001, 1.5928992999251932];tronco;C:\2023\REPSWITCH21092023\REPSWITCH_excgange\REPSWITCH_excgange\data/220203_REPSWITCH1_version2_list3_2023-12-01_13h12.50.376_micRespv2l3_recorded\recording_micRespv2l3_2023-12-01_13h18.48.954.wav;372.3838032;;None;;;;;;220203;1;2023-12-01_13h12.50.376;REPSWITCH1_version2_list3;2022.2.4;143.9196811;
REPSWITCH1/PICTURE_35.png;oreja;type;gold;nontarget;1;NT;3;2;3;2;Stim5_Set3;1;repeat;72;71;72;0;71;71;71;;;;;;;;;;;;;;;;;;;;;;;372.8838624;374.0090632;374.0090632;374.0090632;374.0090632;374.0090632;374.0090632;374.0090632;374.0090632;377.0371663;377.0371663;377.0371663;377.0371663;377.0371663;377.0371663;['o', 'e', 'r', 'backspace', 'backspace', 'r', 'e', 'j', 'a'];0;[0.8954488001763821, 1.129957500146702, 1.189788600197062, 1.893772300099954, 2.0442797001451254, 2.134016799973324, 2.177808100124821, 2.250000400003046, 2.363548699999228];oreja;C:\2023\REPSWITCH21092023\REPSWITCH_excgange\REPSWITCH_excgange\data/220203_REPSWITCH1_version2_list3_2023-12-01_13h12.50.376_micRespv2l3_recorded\recording_micRespv2l3_2023-12-01_13h18.53.608.wav;377.0371663;377.5372285;None;;;;;;220203;1;2023-12-01_13h12.50.376;REPSWITCH1_version2_list3;2022.2.4;143.9196811;
REPSWITCH1/PICTURE_35.png;oreja;type;gold;repeat;1;T;3;2;3;2;Stim5_Set3;0;None;73;72;73;0;72;72;72;;;;;;;;;;;;;;;;;;;;;;;377.5372285;378.6068585;378.6068585;378.6068585;378.6068585;378.6068585;378.6068585;378.6068585;378.6068585;381.635083;381.635083;381.635083;381.635083;381.635083;381.635083;['o', 'r', 'e', 'j', 'a'];0;[1.034233900019899, 1.183741700137034, 1.2375501999631524, 1.3890426000580192, 1.4607969000935555];oreja;C:\2023\REPSWITCH21092023\REPSWITCH_excgange\REPSWITCH_excgange\data/220203_REPSWITCH1_version2_list3_2023-12-01_13h12.50.376_micRespv2l3_recorded\recording_micRespv2l3_2023-12-01_13h18.58.205.wav;381.635083;;None;;;;;;220203;1;2023-12-01_13h12.50.376;REPSWITCH1_version2_list3;2022.2.4;143.9196811;
REPSWITCH1/PICTURE_199.png;falda;speak;darkblue;filler;2;F;3;2;3;2;Stim8_Set2;0;None;74;73;74;0;73;73;73;;;;;;;;;;;;;;;;;;;;;;;382.135041;383.3644387;383.3644387;383.3644387;383.3644387;383.3644387;383.3644387;383.3644387;383.3644387;386.3856033;386.3856033;386.3856033;386.3856033;386.3856033;386.3856033;None;0;;;C:\2023\REPSWITCH21092023\REPSWITCH_excgange\REPSWITCH_excgange\data/220203_REPSWITCH1_version2_list3_2023-12-01_13h12.50.376_micRespv2l3_recorded\recording_micRespv2l3_2023-12-01_13h19.02.962.wav;386.3856033;386.8856889;None;;;;;;220203;1;2023-12-01_13h12.50.376;REPSWITCH1_version2_list3;2022.2.4;143.9196811;
REPSWITCH1/PICTURE_610.png;miel;type;gold;nontarget;1;NT;3;2;3;2;Stim2_Set3;1;switch;75;74;75;0;74;74;74;;;;;;;;;;;;;;;;;;;;;;;386.8856889;388.1219941;388.1219941;388.1219941;388.1219941;388.1219941;388.1219941;388.1219941;388.1219941;391.1432549;391.1432549;391.1432549;391.1432549;391.1432549;391.1432549;['m', 'i', 'e', 'l'];0;[1.0387631999328732, 1.128460800042376, 1.2380874000955373, 1.3726353999227285];miel;C:\2023\REPSWITCH21092023\REPSWITCH_excgange\REPSWITCH_excgange\data/220203_REPSWITCH1_version2_list3_2023-12-01_13h12.50.376_micRespv2l3_recorded\recording_micRespv2l3_2023-12-01_13h19.07.720.wav;391.1432549;391.6432323;None;;;;;;220203;1;2023-12-01_13h12.50.376;REPSWITCH1_version2_list3;2022.2.4;143.9196811;
REPSWITCH1/PICTURE_610.png;miel;type;gold;repeat;1;T;3;2;3;2;Stim2_Set3;0;None;76;75;76;0;75;75;75;;;;;;;;;;;;;;;;;;;;;;;391.6432323;392.7268096;392.7268096;392.7268096;392.7268096;392.7268096;392.7268096;392.7268096;392.7268096;395.7549879;395.7549879;395.7549879;395.7549879;395.7549879;395.7549879;['m', 'i', 'e', 'l'];0;[0.8677175999619067, 1.0052239999640733, 1.078013899968937, 1.2374827000312507];miel;C:\2023\REPSWITCH21092023\REPSWITCH_excgange\REPSWITCH_excgange\data/220203_REPSWITCH1_version2_list3_2023-12-01_13h12.50.376_micRespv2l3_recorded\recording_micRespv2l3_2023-12-01_13h19.12.325.wav;395.7549879;;None;;;;;;220203;1;2023-12-01_13h12.50.376;REPSWITCH1_version2_list3;2022.2.4;143.9196811;
REPSWITCH1/PICTURE_264.png;mano;type;gold;filler;1;F;3;2;3;2;Stim3_Set2;1;repeat;77;76;77;0;76;76;76;;;;;;;;;;;;;;;;;;;;;;;396.2550529;397.3314984;397.3314984;397.3314984;397.3314984;397.3314984;397.3314984;397.3314984;397.3314984;400.3597003;400.3597003;400.3597003;400.3597003;400.3597003;400.3597003;['m', 'a', 'n', 'o'];0;[0.7674773000180721, 0.8973063000012189, 1.0525379001628608, 1.1441434000153095];mano;C:\2023\REPSWITCH21092023\REPSWITCH_excgange\REPSWITCH_excgange\data/220203_REPSWITCH1_version2_list3_2023-12-01_13h12.50.376_micRespv2l3_recorded\recording_micRespv2l3_2023-12-01_13h19.16.930.wav;400.3597003;;None;;;;;;220203;1;2023-12-01_13h12.50.376;REPSWITCH1_version2_list3;2022.2.4;143.9196811;
REPSWITCH1/PICTURE_464.png;goma;speak;darkblue;filler;2;F;4;2;3;2;Stim6_Set3;0;None;78;77;78;0;77;77;77;;;;;;;;;;;;;;;;;;;;;;;400.8598204;401.9432339;401.9432339;401.9432339;401.9432339;401.9432339;401.9432339;401.9432339;401.9432339;404.964432;404.964432;404.964432;404.964432;404.964432;404.964432;None;0;;;C:\2023\REPSWITCH21092023\REPSWITCH_excgange\REPSWITCH_excgange\data/220203_REPSWITCH1_version2_list3_2023-12-01_13h12.50.376_micRespv2l3_recorded\recording_micRespv2l3_2023-12-01_13h19.21.541.wav;404.964432;405.4645612;None;;;;;;220203;1;2023-12-01_13h12.50.376;REPSWITCH1_version2_list3;2022.2.4;143.9196811;
REPSWITCH1/PICTURE_8.png;pierna;type;gold;nontarget;1;NT;4;2;3;2;Stim3_Set4;1;switch;79;78;79;0;78;78;78;;;;;;;;;;;;;;;;;;;;;;;405.4645612;406.6452799;406.6452799;406.6452799;406.6452799;406.6452799;406.6452799;406.6452799;406.6452799;409.6664737;409.6664737;409.6664737;409.6664737;409.6664737;409.6664737;['p', 'i', 'e', 'r', 'n', 'a'];0;[1.0353423999622464, 1.096174999838695, 1.2320471999701113, 1.291210699826479, 1.3967942998278886, 1.510759999975562];pierna;C:\2023\REPSWITCH21092023\REPSWITCH_excgange\REPSWITCH_excgange\data/220203_REPSWITCH1_version2_list3_2023-12-01_13h12.50.376_micRespv2l3_recorded\recording_micRespv2l3_2023-12-01_13h19.26.243.wav;409.6664737;410.1665389;None;;;;;;220203;1;2023-12-01_13h12.50.376;REPSWITCH1_version2_list3;2022.2.4;143.9196811;
REPSWITCH1/PICTURE_8.png;pierna;type;gold;repeat;1;T;4;2;3;2;Stim3_Set4;0;None;80;79;80;0;79;79;79;;;;;;;;;;;;;;;;;;;;;;;410.1665389;411.2778191;411.2778191;411.2778191;411.2778191;411.2778191;411.2778191;411.2778191;411.2778191;414.3060416;414.3060416;414.3060416;414.3060416;414.3060416;414.3060416;['p', 'r', 'i', 'backspace', 'backspace', 'e', 'r', 'n', 'a'];0;[0.8834654001984745, 1.0719613002147526, 1.2056506001390517, 1.528738300083205, 1.8852356001734734, 2.1825626001227647, 2.2527525001205504, 2.873989000217989, 2.9719706000760198];perna;C:\2023\REPSWITCH21092023\REPSWITCH_excgange\REPSWITCH_excgange\data/220203_REPSWITCH1_version2_list3_2023-12-01_13h12.50.376_micRespv2l3_recorded\recording_micRespv2l3_2023-12-01_13h19.30.877.wav;414.3060416;414.806076;None;;;;;;220203;1;2023-12-01_13h12.50.376;REPSWITCH1_version2_list3;2022.2.4;143.9196811;
REPSWITCH1/PICTURE_728.png;pulpo;type;gold;nontarget;1;NT;4;2;3;2;Stim8_Set4;1;repeat;81;80;81;0;80;80;80;;;;;;;;;;;;;;;;;;;;;;;414.806076;415.903384;415.903384;415.903384;415.903384;415.903384;415.903384;415.903384;415.903384;418.9246641;418.9246641;418.9246641;418.9246641;418.9246641;418.9246641;['p', 'u', 'l', 'p', 'o'];0;[1.0917869000695646, 1.2074804999865592, 1.4614315000362694, 1.5571043000090867, 1.7585694000590593];pulpo;C:\2023\REPSWITCH21092023\REPSWITCH_excgange\REPSWITCH_excgange\data/220203_REPSWITCH1_version2_list3_2023-12-01_13h12.50.376_micRespv2l3_recorded\recording_micRespv2l3_2023-12-01_13h19.35.501.wav;418.9246641;419.424699;None;;;;;;220203;1;2023-12-01_13h12.50.376;REPSWITCH1_version2_list3;2022.2.4;143.9196811;
REPSWITCH1/PICTURE_728.png;pulpo;speak;darkblue;switch;2;T;4;2;3;2;Stim8_Set4;0;None;82;81;82;0;81;81;81;;;;;;;;;;;;;;;;;;;;;;;419.424699;420.5567943;420.5567943;420.5567943;420.5567943;420.5567943;420.5567943;420.5567943;420.5567943;423.585037;423.585037;423.585037;423.585037;423.585037;423.585037;None;0;;;C:\2023\REPSWITCH21092023\REPSWITCH_excgange\REPSWITCH_excgange\data/220203_REPSWITCH1_version2_list3_2023-12-01_13h12.50.376_micRespv2l3_recorded\recording_micRespv2l3_2023-12-01_13h19.40.155.wav;423.585037;424.0850181;None;;;;;;220203;1;2023-12-01_13h12.50.376;REPSWITCH1_version2_list3;2022.2.4;143.9196811;
REPSWITCH1/PICTURE_235.png;aguja;type;gold;filler;1;F;4;2;3;2;Stim4_Set3;0;None;83;82;83;0;82;82;82;;;;;;;;;;;;;;;;;;;;;;;424.0850181;425.2657338;425.2657338;425.2657338;425.2657338;425.2657338;425.2657338;425.2657338;425.2657338;428.2870026;428.2870026;428.2870026;428.2870026;428.2870026;428.2870026;['a', 'g', 'u', 'j', 'a'];0;[0.91745620011352, 1.2655971001368016, 1.331371400039643, 1.547650600085035, 1.6323241000063717];aguja;C:\2023\REPSWITCH21092023\REPSWITCH_excgange\REPSWITCH_excgange\data/220203_REPSWITCH1_version2_list3_2023-12-01_13h12.50.376_micRespv2l3_recorded\recording_micRespv2l3_2023-12-01_13h19.44.863.wav;428.2870026;428.7870126;None;;;;;;220203;1;2023-12-01_13h12.50.376;REPSWITCH1_version2_list3;2022.2.4;143.9196811;
REPSWITCH1/PICTURE_498.png;taza;speak;darkblue;nontarget;2;NT;4;2;3;2;Stim4_Set4;1;switch;84;83;84;0;83;83;83;;;;;;;;;;;;;;;;;;;;;;;428.7870126;429.8427788;429.8427788;429.8427788;429.8427788;429.8427788;429.8427788;429.8427788;429.8427788;432.8639527;432.8639527;432.8639527;432.8639527;432.8639527;432.8639527;None;0;;;C:\2023\REPSWITCH21092023\REPSWITCH_excgange\REPSWITCH_excgange\data/220203_REPSWITCH1_version2_list3_2023-12-01_13h12.50.376_micRespv2l3_recorded\recording_micRespv2l3_2023-12-01_13h19.49.441.wav;432.8639527;433.3640058;None;;;;;;220203;1;2023-12-01_13h12.50.376;REPSWITCH1_version2_list3;2022.2.4;143.9196811;
REPSWITCH1/PICTURE_498.png;taza;speak;darkblue;repeat;2;T;4;2;3;2;Stim4_Set4;0;None;85;84;85;0;84;84;84;;;;;;;;;;;;;;;;;;;;;;;433.3640058;434.5030551;434.5030551;434.5030551;434.5030551;434.5030551;434.5030551;434.5030551;434.5030551;437.5242849;437.5242849;437.5242849;437.5242849;437.5242849;437.5242849;None;0;;;C:\2023\REPSWITCH21092023\REPSWITCH_excgange\REPSWITCH_excgange\data/220203_REPSWITCH1_version2_list3_2023-12-01_13h12.50.376_micRespv2l3_recorded\recording_micRespv2l3_2023-12-01_13h19.54.101.wav;437.5242849;438.0243706;None;;;;;;220203;1;2023-12-01_13h12.50.376;REPSWITCH1_version2_list3;2022.2.4;143.9196811;
REPSWITCH1/PICTURE_719.png;baño;speak;darkblue;nontarget;2;NT;4;2;3;2;Stim2_Set4;0;None;86;85;86;0;85;85;85;;;;;;;;;;;;;;;;;;;;;;;438.0243706;439.128665;439.128665;439.128665;439.128665;439.128665;439.128665;439.128665;439.128665;442.1498706;442.1498706;442.1498706;442.1498706;442.1498706;442.1498706;None;0;;;C:\2023\REPSWITCH21092023\REPSWITCH_excgange\REPSWITCH_excgange\data/220203_REPSWITCH1_version2_list3_2023-12-01_13h12.50.376_micRespv2l3_recorded\recording_micRespv2l3_2023-12-01_13h19.58.727.wav;442.1498706;442.6499709;None;;;;;;220203;1;2023-12-01_13h12.50.376;REPSWITCH1_version2_list3;2022.2.4;143.9196811;
REPSWITCH1/PICTURE_719.png;baño;type;gold;switch;1;T;4;2;3;2;Stim2_Set4;0;None;87;86;87;0;86;86;86;;;;;;;;;;;;;;;;;;;;;;;442.6499709;443.7542918;443.7542918;443.7542918;443.7542918;443.7542918;443.7542918;443.7542918;443.7542918;446.7755174;446.7755174;446.7755174;446.7755174;446.7755174;446.7755174;['b', 'a', 'ñ', 'o'];0;[1.0571047998964787, 1.1707168000284582, 1.4194622999057174, 1.498676500050351];baño;C:\2023\REPSWITCH21092023\REPSWITCH_excgange\REPSWITCH_excgange\data/220203_REPSWITCH1_version2_list3_2023-12-01_13h12.50.376_micRespv2l3_recorded\recording_micRespv2l3_2023-12-01_13h20.03.352.wav;446.7755174;447.275578;None;;;;;;220203;1;2023-12-01_13h12.50.376;REPSWITCH1_version2_list3;2022.2.4;143.9196811;
REPSWITCH1/PICTURE_320.png;iglesia;speak;darkblue;filler;2;F;4;2;3;2;Stim8_Set3;0;None;88;87;88;0;87;87;87;;;;;;;;;;;;;;;;;;;;;;;447.275578;448.3798666;448.3798666;448.3798666;448.3798666;448.3798666;448.3798666;448.3798666;448.3798666;451.4010966;451.4010966;451.4010966;451.4010966;451.4010966;451.4010966;None;0;;;C:\2023\REPSWITCH21092023\REPSWITCH_excgange\REPSWITCH_excgange\data/220203_REPSWITCH1_version2_list3_2023-12-01_13h12.50.376_micRespv2l3_recorded\recording_micRespv2l3_2023-12-01_13h20.07.978.wav;451.4010966;451.9012241;None;;;;;;220203;1;2023-12-01_13h12.50.376;REPSWITCH1_version2_list3;2022.2.4;143.9196811;
REPSWITCH1/PICTURE_48.png;bombero;type;gold;nontarget;1;NT;4;2;3;2;Stim7_Set4;1;switch;89;88;89;0;88;88;88;;;;;;;;;;;;;;;;;;;;;;;451.9012241;452.9986119;452.9986119;452.9986119;452.9986119;452.9986119;452.9986119;452.9986119;452.9986119;456.019844;456.019844;456.019844;456.019844;456.019844;456.019844;['c', 'o', 'm', 'b', 'e', 'r', 'o'];0;[1.6812404999509454, 2.1711023999378085, 2.2757439000997692, 2.5567668001167476, 2.790973300114274, 2.8758696999866515, 2.9556046000216156];combero;C:\2023\REPSWITCH21092023\REPSWITCH_excgange\REPSWITCH_excgange\data/220203_REPSWITCH1_version2_list3_2023-12-01_13h12.50.376_micRespv2l3_recorded\recording_micRespv2l3_2023-12-01_13h20.12.596.wav;456.019844;456.5198588;None;;;;;;220203;1;2023-12-01_13h12.50.376;REPSWITCH1_version2_list3;2022.2.4;143.9196811;
REPSWITCH1/PICTURE_48.png;bombero;speak;darkblue;switch;2;T;4;2;3;2;Stim7_Set4;0;None;90;89;90;0;89;89;89;;;;;;;;;;;;;;;;;;;;;;;456.5198588;457.6450578;457.6450578;457.6450578;457.6450578;457.6450578;457.6450578;457.6450578;457.6450578;460.673212;460.673212;460.673212;460.673212;460.673212;460.673212;None;0;;;C:\2023\REPSWITCH21092023\REPSWITCH_excgange\REPSWITCH_excgange\data/220203_REPSWITCH1_version2_list3_2023-12-01_13h12.50.376_micRespv2l3_recorded\recording_micRespv2l3_2023-12-01_13h20.17.244.wav;460.673212;;None;;;;;;220203;1;2023-12-01_13h12.50.376;REPSWITCH1_version2_list3;2022.2.4;143.9196811;
REPSWITCH1/PICTURE_576.png;guante;type;gold;filler;1;F;4;2;3;2;Stim1_Set3;0;None;91;90;91;0;90;90;90;;;;;;;;;;;;;;;;;;;;;;;461.1731991;462.3747973;462.3747973;462.3747973;462.3747973;462.3747973;462.3747973;462.3747973;462.3747973;465.3960646;465.3960646;465.3960646;465.3960646;465.3960646;465.3960646;['g', 'u', 'a', 'n', 't', 'e'];0;[1.3321586002130061, 1.4391409000381827, 1.5248543000780046, 1.6135590001940727, 1.7530889001209289, 1.8012514000292867];guante;C:\2023\REPSWITCH21092023\REPSWITCH_excgange\REPSWITCH_excgange\data/220203_REPSWITCH1_version2_list3_2023-12-01_13h12.50.376_micRespv2l3_recorded\recording_micRespv2l3_2023-12-01_13h20.21.972.wav;465.3960646;465.8960663;None;;;;;;220203;1;2023-12-01_13h12.50.376;REPSWITCH1_version2_list3;2022.2.4;143.9196811;
REPSWITCH1/PICTURE_271.png;conejo;speak;darkblue;filler;2;F;4;2;3;2;Stim7_Set3;0;None;92;91;92;0;91;91;91;;;;;;;;;;;;;;;;;;;;;;;465.8960663;466.9795783;466.9795783;466.9795783;466.9795783;466.9795783;466.9795783;466.9795783;466.9795783;470.0077611;470.0077611;470.0077611;470.0077611;470.0077611;470.0077611;None;0;;;C:\2023\REPSWITCH21092023\REPSWITCH_excgange\REPSWITCH_excgange\data/220203_REPSWITCH1_version2_list3_2023-12-01_13h12.50.376_micRespv2l3_recorded\recording_micRespv2l3_2023-12-01_13h20.26.578.wav;470.0077611;;None;;;;;;220203;1;2023-12-01_13h12.50.376;REPSWITCH1_version2_list3;2022.2.4;143.9196811;
REPSWITCH1/PICTURE_319.png;vaca;speak;darkblue;nontarget;2;NT;4;2;3;2;Stim1_Set4;1;repeat;93;92;93;0;92;92;92;;;;;;;;;;;;;;;;;;;;;;;470.507799;471.5635104;471.5635104;471.5635104;471.5635104;471.5635104;471.5635104;471.5635104;471.5635104;474.5847269;474.5847269;474.5847269;474.5847269;474.5847269;474.5847269;None;0;;;C:\2023\REPSWITCH21092023\REPSWITCH_excgange\REPSWITCH_excgange\data/220203_REPSWITCH1_version2_list3_2023-12-01_13h12.50.376_micRespv2l3_recorded\recording_micRespv2l3_2023-12-01_13h20.31.161.wav;474.5847269;475.0847903;None;;;;;;220203;1;2023-12-01_13h12.50.376;REPSWITCH1_version2_list3;2022.2.4;143.9196811;
REPSWITCH1/PICTURE_319.png;vaca;speak;darkblue;repeat;2;T;4;2;3;2;Stim1_Set4;0;None;94;93;94;0;93;93;93;;;;;;;;;;;;;;;;;;;;;;;475.0847903;476.2029722;476.2029722;476.2029722;476.2029722;476.2029722;476.2029722;476.2029722;476.2029722;479.231166;479.231166;479.231166;479.231166;479.231166;479.231166;None;0;;;C:\2023\REPSWITCH21092023\REPSWITCH_excgange\REPSWITCH_excgange\data/220203_REPSWITCH1_version2_list3_2023-12-01_13h12.50.376_micRespv2l3_recorded\recording_micRespv2l3_2023-12-01_13h20.35.800.wav;479.231166;;None;;;;;;220203;1;2023-12-01_13h12.50.376;REPSWITCH1_version2_list3;2022.2.4;143.9196811;
REPSWITCH1/PICTURE_242.png;cartero;type;gold;filler;1;F;4;2;3;2;Stim3_Set3;0;None;95;94;95;0;94;94;94;;;;;;;;;;;;;;;;;;;;;;;479.7312709;480.8286187;480.8286187;480.8286187;480.8286187;480.8286187;480.8286187;480.8286187;480.8286187;483.849805;483.849805;483.849805;483.849805;483.849805;483.849805;['c', 'a', 'r', 't', 'e', 'r', 'o'];0;[1.0546726998873055, 1.2320729999337345, 1.4124694999773055, 1.630372399929911, 1.72804189985618, 1.8805471998639405, 2.119998399866745];cartero;C:\2023\REPSWITCH21092023\REPSWITCH_excgange\REPSWITCH_excgange\data/220203_REPSWITCH1_version2_list3_2023-12-01_13h12.50.376_micRespv2l3_recorded\recording_micRespv2l3_2023-12-01_13h20.40.426.wav;483.849805;484.3498942;None;;;;;;220203;1;2023-12-01_13h12.50.376;REPSWITCH1_version2_list3;2022.2.4;143.9196811;
REPSWITCH1/PICTURE_35.png;oreja;speak;darkblue;filler;2;F;4;2;3;2;Stim5_Set3;1;switch;96;95;96;0;95;95;95;;;;;;;;;;;;;;;;;;;;;;;484.3498942;485.4056163;485.4056163;485.4056163;485.4056163;485.4056163;485.4056163;485.4056163;485.4056163;488.4267833;488.4267833;488.4267833;488.4267833;488.4267833;488.4267833;None;0;;;C:\2023\REPSWITCH21092023\REPSWITCH_excgange\REPSWITCH_excgange\data/220203_REPSWITCH1_version2_list3_2023-12-01_13h12.50.376_micRespv2l3_recorded\recording_micRespv2l3_2023-12-01_13h20.45.004.wav;488.4267833;488.9268937;None;;;;;;220203;1;2023-12-01_13h12.50.376;REPSWITCH1_version2_list3;2022.2.4;143.9196811;
REPSWITCH1/PICTURE_338.png;regalo;speak;darkblue;nontarget;2;NT;4;2;3;2;Stim6_Set4;1;repeat;97;96;97;0;96;96;96;;;;;;;;;;;;;;;;;;;;;;;488.9268937;489.954843;489.954843;489.954843;489.954843;489.954843;489.954843;489.954843;489.954843;492.9760036;492.9760036;492.9760036;492.9760036;492.9760036;492.9760036;None;0;;;C:\2023\REPSWITCH21092023\REPSWITCH_excgange\REPSWITCH_excgange\data/220203_REPSWITCH1_version2_list3_2023-12-01_13h12.50.376_micRespv2l3_recorded\recording_micRespv2l3_2023-12-01_13h20.49.553.wav;492.9760036;493.4761404;None;;;;;;220203;1;2023-12-01_13h12.50.376;REPSWITCH1_version2_list3;2022.2.4;143.9196811;
REPSWITCH1/PICTURE_338.png;regalo;type;gold;switch;1;T;4;2;3;2;Stim6_Set4;0;None;98;97;98;0;97;97;97;;;;;;;;;;;;;;;;;;;;;;;493.4761404;494.5456831;494.5456831;494.5456831;494.5456831;494.5456831;494.5456831;494.5456831;494.5456831;497.5668744;497.5668744;497.5668744;497.5668744;497.5668744;497.5668744;['r', 'e', 'g', 'a', 'l', 'o'];0;[0.9547802999150008, 1.0354746000375599, 1.423317200038582, 1.5376951999496669, 1.6715460999403149, 1.8359457000624388];regalo;C:\2023\REPSWITCH21092023\REPSWITCH_excgange\REPSWITCH_excgange\data/220203_REPSWITCH1_version2_list3_2023-12-01_13h12.50.376_micRespv2l3_recorded\recording_micRespv2l3_2023-12-01_13h20.54.144.wav;497.5668744;498.066962;None;;;;;;220203;1;2023-12-01_13h12.50.376;REPSWITCH1_version2_list3;2022.2.4;143.9196811;
REPSWITCH1/PICTURE_687.png;camisa;type;gold;nontarget;1;NT;4;2;3;2;Stim5_Set4;0;None;99;98;99;0;98;98;98;;;;;;;;;;;;;;;;;;;;;;;498.066962;499.1782098;499.1782098;499.1782098;499.1782098;499.1782098;499.1782098;499.1782098;499.1782098;502.1994645;502.1994645;502.1994645;502.1994645;502.1994645;502.1994645;['c', 'a', 'm', 'i', 's', 'a'];0;[0.9041636998299509, 0.9774666999001056, 1.0731461998075247, 1.1678253000136465, 1.2525400999002159, 1.3171025000046939];camisa;C:\2023\REPSWITCH21092023\REPSWITCH_excgange\REPSWITCH_excgange\data/220203_REPSWITCH1_version2_list3_2023-12-01_13h12.50.376_micRespv2l3_recorded\recording_micRespv2l3_2023-12-01_13h20.58.776.wav;502.1994645;502.6995302;None;;;;;;220203;1;2023-12-01_13h12.50.376;REPSWITCH1_version2_list3;2022.2.4;143.9196811;
REPSWITCH1/PICTURE_687.png;camisa;type;gold;repeat;1;T;4;2;3;2;Stim5_Set4;0;None;100;99;100;0;99;99;99;;;;;;;;;;;;;;;;;;;;;;;502.6995302;503.8316299;503.8316299;503.8316299;503.8316299;503.8316299;503.8316299;503.8316299;503.8316299;506.8597972;506.8597972;506.8597972;506.8597972;506.8597972;506.8597972;['c', 'a', 'm', 'i', 's', 'a'];0;[0.8617852998431772, 0.955444399965927, 1.0979629999492317, 1.1657449000049382, 1.2635252999607474, 1.33301019994542];camisa;C:\2023\REPSWITCH21092023\REPSWITCH_excgange\REPSWITCH_excgange\data/220203_REPSWITCH1_version2_list3_2023-12-01_13h12.50.376_micRespv2l3_recorded\recording_micRespv2l3_2023-12-01_13h21.03.430.wav;506.8597972;;None;;;;;;220203;1;2023-12-01_13h12.50.376;REPSWITCH1_version2_list3;2022.2.4;143.9196811;
REPSWITCH1/PICTURE_340.png;espejo;speak;darkblue;filler;2;F;4;2;3;2;Extra1;0;None;101;100;101;0;100;100;100;;;;;;;;;;;;;;;;;;;;;;;507.3598592;508.4294245;508.4294245;508.4294245;508.4294245;508.4294245;508.4294245;508.4294245;508.4294245;511.4576272;511.4576272;511.4576272;511.4576272;511.4576272;511.4576272;None;0;;;C:\2023\REPSWITCH21092023\REPSWITCH_excgange\REPSWITCH_excgange\data/220203_REPSWITCH1_version2_list3_2023-12-01_13h12.50.376_micRespv2l3_recorded\recording_micRespv2l3_2023-12-01_13h21.08.028.wav;511.4576272;511.9576754;None;;;;;;220203;1;2023-12-01_13h12.50.376;REPSWITCH1_version2_list3;2022.2.4;143.9196811;
REPSWITCH1/PICTURE_610.png;miel;type;gold;filler;1;F;4;2;3;2;Stim2_Set3;0;None;102;101;102;0;101;101;101;;;;;;;;;;;;;;;;;;;;;;;511.9576754;513.0689623;513.0689623;513.0689623;513.0689623;513.0689623;513.0689623;513.0689623;513.0689623;516.0901526;516.0901526;516.0901526;516.0901526;516.0901526;516.0901526;['m', 'i', 'e', 'l'];0;[0.994165200041607, 1.0948170002084225, 1.1874982002191246, 1.3230066001415253];miel;C:\2023\REPSWITCH21092023\REPSWITCH_excgange\REPSWITCH_excgange\data/220203_REPSWITCH1_version2_list3_2023-12-01_13h12.50.376_micRespv2l3_recorded\recording_micRespv2l3_2023-12-01_13h21.12.667.wav;516.0901526;516.5902382;space;516.5902382;516.5902382;8.5270225;;;220203;1;2023-12-01_13h12.50.376;REPSWITCH1_version2_list3;2022.2.4;143.9196811;
REPSWITCH1/PICTURE_8.png;pierna;type;gold;filler;1;F;1;4;3;2;Stim3_Set4;0;None;103;102;1;0;102;102;102;;;;;;;;;;;;;;;;;;;;;;;525.1260625;526.18178;526.18178;526.18178;526.18178;526.18178;526.18178;526.18178;526.18178;529.2030117;529.2030117;529.2030117;529.2030117;529.2030117;529.2030117;['p', 'i', 'e', 'r', 'n', 'a'];0;[1.1732600999530405, 1.2679391999263316, 1.34065099991858, 1.409462400013581, 1.4941421998664737, 1.6417447000276297];pierna;C:\2023\REPSWITCH21092023\REPSWITCH_excgange\REPSWITCH_excgange\data/220203_REPSWITCH1_version2_list3_2023-12-01_13h12.50.376_micRespv2l3_recorded\recording_micRespv2l3_2023-12-01_13h21.25.779.wav;529.2030117;529.7031144;None;;;;;;220203;1;2023-12-01_13h12.50.376;REPSWITCH1_version2_list3;2022.2.4;143.9196811;
REPSWITCH1/PICTURE_498.png;taza;speak;darkblue;filler;2;F;1;4;3;2;Stim4_Set4;0;None;104;103;2;0;103;103;103;;;;;;;;;;;;;;;;;;;;;;;529.7031144;530.7518744;530.7518744;530.7518744;530.7518744;530.7518744;530.7518744;530.7518744;530.7518744;533.7730279;533.7730279;533.7730279;533.7730279;533.7730279;533.7730279;None;0;;;C:\2023\REPSWITCH21092023\REPSWITCH_excgange\REPSWITCH_excgange\data/220203_REPSWITCH1_version2_list3_2023-12-01_13h12.50.376_micRespv2l3_recorded\recording_micRespv2l3_2023-12-01_13h21.30.350.wav;533.7730279;534.2730923;None;;;;;;220203;1;2023-12-01_13h12.50.376;REPSWITCH1_version2_list3;2022.2.4;143.9196811;
REPSWITCH1/PICTURE_19.png;pavo;speak;darkblue;nontarget;2;NT;1;4;3;2;Stim5_Set1;1;repeat;105;104;3;0;104;104;104;;;;;;;;;;;;;;;;;;;;;;;534.2730923;535.3426854;535.3426854;535.3426854;535.3426854;535.3426854;535.3426854;535.3426854;535.3426854;538.3639146;538.3639146;538.3639146;538.3639146;538.3639146;538.3639146;None;0;;;C:\2023\REPSWITCH21092023\REPSWITCH_excgange\REPSWITCH_excgange\data/220203_REPSWITCH1_version2_list3_2023-12-01_13h12.50.376_micRespv2l3_recorded\recording_micRespv2l3_2023-12-01_13h21.34.941.wav;538.3639146;538.8640466;None;;;;;;220203;1;2023-12-01_13h12.50.376;REPSWITCH1_version2_list3;2022.2.4;143.9196811;
REPSWITCH1/PICTURE_19.png;pavo;speak;darkblue;repeat;2;T;1;4;3;2;Stim5_Set1;0;None;106;105;4;0;105;105;105;;;;;;;;;;;;;;;;;;;;;;;538.8640466;539.9613816;539.9613816;539.9613816;539.9613816;539.9613816;539.9613816;539.9613816;539.9613816;542.9825605;542.9825605;542.9825605;542.9825605;542.9825605;542.9825605;None;0;;;C:\2023\REPSWITCH21092023\REPSWITCH_excgange\REPSWITCH_excgange\data/220203_REPSWITCH1_version2_list3_2023-12-01_13h12.50.376_micRespv2l3_recorded\recording_micRespv2l3_2023-12-01_13h21.39.560.wav;542.9825605;543.4826666;None;;;;;;220203;1;2023-12-01_13h12.50.376;REPSWITCH1_version2_list3;2022.2.4;143.9196811;
REPSWITCH1/PICTURE_319.png;vaca;type;gold;filler;1;F;1;4;3;2;Stim1_Set4;1;repeat;107;106;5;0;106;106;106;;;;;;;;;;;;;;;;;;;;;;;543.4826666;544.5661349;544.5661349;544.5661349;544.5661349;544.5661349;544.5661349;544.5661349;544.5661349;547.5873601;547.5873601;547.5873601;547.5873601;547.5873601;547.5873601;['v', 'a', 'c', 'a'];0;[1.0563286000397056, 1.1761274000164121, 1.3647938000503927, 1.428860800107941];vaca;C:\2023\REPSWITCH21092023\REPSWITCH_excgange\REPSWITCH_excgange\data/220203_REPSWITCH1_version2_list3_2023-12-01_13h12.50.376_micRespv2l3_recorded\recording_micRespv2l3_2023-12-01_13h21.44.164.wav;547.5873601;548.0874239;None;;;;;;220203;1;2023-12-01_13h12.50.376;REPSWITCH1_version2_list3;2022.2.4;143.9196811;
REPSWITCH1/PICTURE_169.png;espalda;speak;darkblue;nontarget;2;NT;1;4;3;2;Stim8_Set1;1;switch;108;107;6;0;107;107;107;;;;;;;;;;;;;;;;;;;;;;;548.0874239;549.2542367;549.2542367;549.2542367;549.2542367;549.2542367;549.2542367;549.2542367;549.2542367;552.2824996;552.2824996;552.2824996;552.2824996;552.2824996;552.2824996;None;0;;;C:\2023\REPSWITCH21092023\REPSWITCH_excgange\REPSWITCH_excgange\data/220203_REPSWITCH1_version2_list3_2023-12-01_13h12.50.376_micRespv2l3_recorded\recording_micRespv2l3_2023-12-01_13h21.48.852.wav;552.2824996;;None;;;;;;220203;1;2023-12-01_13h12.50.376;REPSWITCH1_version2_list3;2022.2.4;143.9196811;
REPSWITCH1/PICTURE_169.png;espalda;speak;darkblue;repeat;2;T;1;4;3;2;Stim8_Set1;0;None;109;108;7;0;108;108;108;;;;;;;;;;;;;;;;;;;;;;;552.7824789;553.9284694;553.9284694;553.9284694;553.9284694;553.9284694;553.9284694;553.9284694;553.9284694;556.9497726;556.9497726;556.9497726;556.9497726;556.9497726;556.9497726;None;0;;;C:\2023\REPSWITCH21092023\REPSWITCH_excgange\REPSWITCH_excgange\data/220203_REPSWITCH1_version2_list3_2023-12-01_13h12.50.376_micRespv2l3_recorded\recording_micRespv2l3_2023-12-01_13h21.53.526.wav;556.9497726;557.449775;None;;;;;;220203;1;2023-12-01_13h12.50.376;REPSWITCH1_version2_list3;2022.2.4;143.9196811;
REPSWITCH1/PICTURE_728.png;pulpo;type;gold;filler;1;F;1;4;3;2;Stim8_Set4;0;None;110;109;8;0;109;109;109;;;;;;;;;;;;;;;;;;;;;;;557.449775;558.5540694;558.5540694;558.5540694;558.5540694;558.5540694;558.5540694;558.5540694;558.5540694;561.5752915;561.5752915;561.5752915;561.5752915;561.5752915;561.5752915;['p', 'u', 'l', 'p', 'o'];0;[0.9447454998735338, 1.0713153998367488, 1.3607443999499083, 1.4887301998678595, 1.6093325999099761];pulpo;C:\2023\REPSWITCH21092023\REPSWITCH_excgange\REPSWITCH_excgange\data/220203_REPSWITCH1_version2_list3_2023-12-01_13h12.50.376_micRespv2l3_recorded\recording_micRespv2l3_2023-12-01_13h21.58.153.wav;561.5752915;562.0753867;None;;;;;;220203;1;2023-12-01_13h12.50.376;REPSWITCH1_version2_list3;2022.2.4;143.9196811;
REPSWITCH1/PICTURE_142.png;vaso;speak;darkblue;nontarget;2;NT;1;4;3;2;Stim7_Set1;1;switch;111;110;9;0;110;110;110;;;;;;;;;;;;;;;;;;;;;;;562.0753867;563.2282867;563.2282867;563.2282867;563.2282867;563.2282867;563.2282867;563.2282867;563.2282867;566.2495336;566.2495336;566.2495336;566.2495336;566.2495336;566.2495336;None;0;;;C:\2023\REPSWITCH21092023\REPSWITCH_excgange\REPSWITCH_excgange\data/220203_REPSWITCH1_version2_list3_2023-12-01_13h12.50.376_micRespv2l3_recorded\recording_micRespv2l3_2023-12-01_13h22.02.826.wav;566.2495336;566.749606;None;;;;;;220203;1;2023-12-01_13h12.50.376;REPSWITCH1_version2_list3;2022.2.4;143.9196811;
REPSWITCH1/PICTURE_142.png;vaso;type;gold;switch;1;T;1;4;3;2;Stim7_Set1;0;None;112;111;10;0;111;111;111;;;;;;;;;;;;;;;;;;;;;;;566.749606;567.791436;567.791436;567.791436;567.791436;567.791436;567.791436;567.791436;567.791436;570.812656;570.812656;570.812656;570.812656;570.812656;570.812656;['v', 'a', 's', 'o'];0;[1.0110317999497056, 1.1974019999615848, 1.2824589000083506, 1.4868156998418272];vaso;C:\2023\REPSWITCH21092023\REPSWITCH_excgange\REPSWITCH_excgange\data/220203_REPSWITCH1_version2_list3_2023-12-01_13h12.50.376_micRespv2l3_recorded\recording_micRespv2l3_2023-12-01_13h22.07.389.wav;570.812656;571.3126993;None;;;;;;220203;1;2023-12-01_13h12.50.376;REPSWITCH1_version2_list3;2022.2.4;143.9196811;
REPSWITCH1/PICTURE_338.png;regalo;type;gold;filler;1;F;1;4;3;2;Stim6_Set4;1;repeat;113;112;11;0;112;112;112;;;;;;;;;;;;;;;;;;;;;;;571.3126993;572.4031459;572.4031459;572.4031459;572.4031459;572.4031459;572.4031459;572.4031459;572.4031459;575.4243209;575.4243209;575.4243209;575.4243209;575.4243209;575.4243209;['r', 'e', 'g', 'a', 'l', 'o'];0;[1.0740717998705804, 1.1687491999473423, 1.3532006999012083, 1.4747897000052035, 1.5754492999985814, 1.7033199998550117];regalo;C:\2023\REPSWITCH21092023\REPSWITCH_excgange\REPSWITCH_excgange\data/220203_REPSWITCH1_version2_list3_2023-12-01_13h12.50.376_micRespv2l3_recorded\recording_micRespv2l3_2023-12-01_13h22.12.001.wav;575.4243209;575.9244212;None;;;;;;220203;1;2023-12-01_13h12.50.376;REPSWITCH1_version2_list3;2022.2.4;143.9196811;
REPSWITCH1/PICTURE_135.png;traje;type;gold;nontarget;1;NT;1;4;3;2;Stim3_Set1;1;repeat;114;113;12;0;113;113;113;;;;;;;;;;;;;;;;;;;;;;;575.9244212;577.0217725;577.0217725;577.0217725;577.0217725;577.0217725;577.0217725;577.0217725;577.0217725;580.043008;580.043008;580.043008;580.043008;580.043008;580.043008;['t', 'r', 'a', 'j', 'e'];0;[1.073848000029102, 1.113662299932912, 1.3149965000338852, 1.5289257999975234, 1.6026830000337213];traje;C:\2023\REPSWITCH21092023\REPSWITCH_excgange\REPSWITCH_excgange\data/220203_REPSWITCH1_version2_list3_2023-12-01_13h12.50.376_micRespv2l3_recorded\recording_micRespv2l3_2023-12-01_13h22.16.619.wav;580.043008;580.543063;None;;;;;;220203;1;2023-12-01_13h12.50.376;REPSWITCH1_version2_list3;2022.2.4;143.9196811;
REPSWITCH1/PICTURE_135.png;traje;speak;darkblue;switch;2;T;1;4;3;2;Stim3_Set1;0;None;115;114;13;0;114;114;114;;;;;;;;;;;;;;;;;;;;;;;580.543063;581.5710043;581.5710043;581.5710043;581.5710043;581.5710043;581.5710043;581.5710043;581.5710043;584.5922339;584.5922339;584.5922339;584.5922339;584.5922339;584.5922339;None;0;;;C:\2023\REPSWITCH21092023\REPSWITCH_excgange\REPSWITCH_excgange\data/220203_REPSWITCH1_version2_list3_2023-12-01_13h12.50.376_micRespv2l3_recorded\recording_micRespv2l3_2023-12-01_13h22.21.168.wav;584.5922339;585.0922928;None;;;;;;220203;1;2023-12-01_13h12.50.376;REPSWITCH1_version2_list3;2022.2.4;143.9196811;
REPSWITCH1/PICTURE_381.png;fresa;speak;darkblue;nontarget;2;NT;1;4;3;2;Stim2_Set1;1;repeat;116;115;14;0;115;115;115;;;;;;;;;;;;;;;;;;;;;;;585.0922928;586.1549564;586.1549564;586.1549564;586.1549564;586.1549564;586.1549564;586.1549564;586.1549564;589.1762158;589.1762158;589.1762158;589.1762158;589.1762158;589.1762158;None;0;;;C:\2023\REPSWITCH21092023\REPSWITCH_excgange\REPSWITCH_excgange\data/220203_REPSWITCH1_version2_list3_2023-12-01_13h12.50.376_micRespv2l3_recorded\recording_micRespv2l3_2023-12-01_13h22.25.753.wav;589.1762158;589.6762329;None;;;;;;220203;1;2023-12-01_13h12.50.376;REPSWITCH1_version2_list3;2022.2.4;143.9196811;
REPSWITCH1/PICTURE_381.png;fresa;type;gold;switch;1;T;1;4;3;2;Stim2_Set1;0;None;117;116;15;0;116;116;116;;;;;;;;;;;;;;;;;;;;;;;589.6762329;590.6972264;590.6972264;590.6972264;590.6972264;590.6972264;590.6972264;590.6972264;590.6972264;593.7184291;593.7184291;593.7184291;593.7184291;593.7184291;593.7184291;['f', 'r', 'e', 's', 'a'];0;[1.1406829999759793, 1.3569519000593573, 1.4429963999427855, 1.6742292998824269, 1.743032099911943];fresa;C:\2023\REPSWITCH21092023\REPSWITCH_excgange\REPSWITCH_excgange\data/220203_REPSWITCH1_version2_list3_2023-12-01_13h12.50.376_micRespv2l3_recorded\recording_micRespv2l3_2023-12-01_13h22.30.294.wav;593.7184291;594.2184927;None;;;;;;220203;1;2023-12-01_13h12.50.376;REPSWITCH1_version2_list3;2022.2.4;143.9196811;
REPSWITCH1/PICTURE_48.png;bombero;type;gold;filler;1;F;1;4;3;2;Stim7_Set4;0;None;118;117;16;0;117;117;117;;;;;;;;;;;;;;;;;;;;;;;594.2184927;595.3714927;595.3714927;595.3714927;595.3714927;595.3714927;595.3714927;595.3714927;595.3714927;598.3996636;598.3996636;598.3996636;598.3996636;598.3996636;598.3996636;['b', 'o', 'm', 'b', 'e', 'r', 'o'];0;[1.3772798001300544, 1.469943700125441, 1.544949100119993, 1.5718551001045853, 1.7680938001722097, 1.8697524000890553, 1.9195540000218898];bombero;C:\2023\REPSWITCH21092023\REPSWITCH_excgange\REPSWITCH_excgange\data/220203_REPSWITCH1_version2_list3_2023-12-01_13h12.50.376_micRespv2l3_recorded\recording_micRespv2l3_2023-12-01_13h22.34.970.wav;598.3996636;;None;;;;;;220203;1;2023-12-01_13h12.50.376;REPSWITCH1_version2_list3;2022.2.4;143.9196811;
REPSWITCH1/PICTURE_687.png;camisa;speak;darkblue;filler;2;F;1;4;3;2;Stim5_Set4;0;None;119;118;17;0;118;118;118;;;;;;;;;;;;;;;;;;;;;;;598.8996638;599.9970392;599.9970392;599.9970392;599.9970392;599.9970392;599.9970392;599.9970392;599.9970392;603.0183002;603.0183002;603.0183002;603.0183002;603.0183002;603.0183002;None;0;;;C:\2023\REPSWITCH21092023\REPSWITCH_excgange\REPSWITCH_excgange\data/220203_REPSWITCH1_version2_list3_2023-12-01_13h12.50.376_micRespv2l3_recorded\recording_micRespv2l3_2023-12-01_13h22.39.596.wav;603.0183002;603.518325;None;;;;;;220203;1;2023-12-01_13h12.50.376;REPSWITCH1_version2_list3;2022.2.4;143.9196811;
REPSWITCH1/PICTURE_128.png;muñeca;type;gold;nontarget;1;NT;1;4;3;2;Stim4_Set1;0;None;120;119;18;0;119;119;119;;;;;;;;;;;;;;;;;;;;;;;603.518325;604.6643006;604.6643006;604.6643006;604.6643006;604.6643006;604.6643006;604.6643006;604.6643006;607.6856018;607.6856018;607.6856018;607.6856018;607.6856018;607.6856018;['m', 'u', 'ñ', 'r', 'c', 's', 'backspace', 'backspace'];0;[0.8717352000530809, 1.076056499965489, 1.5117190000601113, 1.6133677000179887, 2.180113600101322, 2.2368222000077367, 2.676634999923408, 2.8560269000008702];muñr;C:\2023\REPSWITCH21092023\REPSWITCH_excgange\REPSWITCH_excgange\data/220203_REPSWITCH1_version2_list3_2023-12-01_13h12.50.376_micRespv2l3_recorded\recording_micRespv2l3_2023-12-01_13h22.44.262.wav;607.6856018;608.1856047;None;;;;;;220203;1;2023-12-01_13h12.50.376;REPSWITCH1_version2_list3;2022.2.4;143.9196811;
REPSWITCH1/PICTURE_128.png;muñeca;type;gold;repeat;1;T;1;4;3;2;Stim4_Set1;0;None;121;120;19;0;120;120;120;;;;;;;;;;;;;;;;;;;;;;;608.1856047;609.2552408;609.2552408;609.2552408;609.2552408;609.2552408;609.2552408;609.2552408;609.2552408;612.276425;612.276425;612.276425;612.276425;612.276425;612.276425;['m', 'u', 'ñ', 'e', 'c', 'a'];0;[1.4831725000403821, 1.814899600110948, 2.1626914001535624, 2.2942935000173748, 2.801277100108564, 2.853099000174552];muñeca;C:\2023\REPSWITCH21092023\REPSWITCH_excgange\REPSWITCH_excgange\data/220203_REPSWITCH1_version2_list3_2023-12-01_13h12.50.376_micRespv2l3_recorded\recording_micRespv2l3_2023-12-01_13h22.48.853.wav;612.276425;612.7764917;None;;;;;;220203;1;2023-12-01_13h12.50.376;REPSWITCH1_version2_list3;2022.2.4;143.9196811;
REPSWITCH1/PICTURE_719.png;baño;speak;darkblue;filler;2;F;1;4;3;2;Stim2_Set4;1;switch;122;121;20;0;121;121;121;;;;;;;;;;;;;;;;;;;;;;;612.7764917;613.8114053;613.8114053;613.8114053;613.8114053;613.8114053;613.8114053;613.8114053;613.8114053;616.8395154;616.8395154;616.8395154;616.8395154;616.8395154;616.8395154;None;0;;;C:\2023\REPSWITCH21092023\REPSWITCH_excgange\REPSWITCH_excgange\data/220203_REPSWITCH1_version2_list3_2023-12-01_13h12.50.376_micRespv2l3_recorded\recording_micRespv2l3_2023-12-01_13h22.53.410.wav;616.8395154;;None;;;;;;220203;1;2023-12-01_13h12.50.376;REPSWITCH1_version2_list3;2022.2.4;143.9196811;
REPSWITCH1/PICTURE_178.png;puente;type;gold;nontarget;1;NT;1;4;3;2;Stim1_Set1;1;switch;123;122;21;0;122;122;122;;;;;;;;;;;;;;;;;;;;;;;617.3395914;618.3605766;618.3605766;618.3605766;618.3605766;618.3605766;618.3605766;618.3605766;618.3605766;621.3817929;621.3817929;621.3817929;621.3817929;621.3817929;621.3817929;['p', 'u', 'e', 'n', 't', 'e'];0;[0.9283429000061005, 1.0242014001123607, 1.1363186999224126, 1.2445642999373376, 1.3302732000593096, 1.3671516999602318];puente;C:\2023\REPSWITCH21092023\REPSWITCH_excgange\REPSWITCH_excgange\data/220203_REPSWITCH1_version2_list3_2023-12-01_13h12.50.376_micRespv2l3_recorded\recording_micRespv2l3_2023-12-01_13h22.57.958.wav;621.3817929;621.8818635;None;;;;;;220203;1;2023-12-01_13h12.50.376;REPSWITCH1_version2_list3;2022.2.4;143.9196811;
REPSWITCH1/PICTURE_178.png;puente;type;gold;repeat;1;T;1;4;3;2;Stim1_Set1;0;None;124;123;22;0;123;123;123;;;;;;;;;;;;;;;;;;;;;;;621.8818635;623.0140014;623.0140014;623.0140014;623.0140014;623.0140014;623.0140014;623.0140014;623.0140014;626.035137;626.035137;626.035137;626.035137;626.035137;626.035137;['p', 'u', 'e', 'n', 't', 'e'];0;[0.836228699889034, 0.9489322998560965, 1.0642281000036746, 1.2017363999038935, 1.2765156000386924, 1.3349073000717908];puente;C:\2023\REPSWITCH21092023\REPSWITCH_excgange\REPSWITCH_excgange\data/220203_REPSWITCH1_version2_list3_2023-12-01_13h12.50.376_micRespv2l3_recorded\recording_micRespv2l3_2023-12-01_13h23.02.612.wav;626.035137;626.5352416;None;;;;;;220203;1;2023-12-01_13h12.50.376;REPSWITCH1_version2_list3;2022.2.4;143.9196811;
REPSWITCH1/PICTURE_16.png;cazador;type;gold;nontarget;1;NT;1;4;3;2;Stim6_Set1;1;repeat;125;124;23;0;124;124;124;;;;;;;;;;;;;;;;;;;;;;;626.5352416;627.6812765;627.6812765;627.6812765;627.6812765;627.6812765;627.6812765;627.6812765;627.6812765;630.7024432;630.7024432;630.7024432;630.7024432;630.7024432;630.7024432;['c', 'a', 'z', 'a', 'd', 'o', 'r'];0;[1.09069349989295, 1.1491840998642147, 1.3777937998529524, 1.5212113000452518, 1.637865399941802, 1.7684229998849332, 1.8481258999090642];cazador;C:\2023\REPSWITCH21092023\REPSWITCH_excgange\REPSWITCH_excgange\data/220203_REPSWITCH1_version2_list3_2023-12-01_13h12.50.376_micRespv2l3_recorded\recording_micRespv2l3_2023-12-01_13h23.07.279.wav;630.7024432;631.2025849;None;;;;;;220203;1;2023-12-01_13h12.50.376;REPSWITCH1_version2_list3;2022.2.4;143.9196811;
REPSWITCH1/PICTURE_16.png;cazador;speak;darkblue;switch;2;T;1;4;3;2;Stim6_Set1;0;None;126;125;24;0;125;125;125;;;;;;;;;;;;;;;;;;;;;;;631.2025849;632.2651445;632.2651445;632.2651445;632.2651445;632.2651445;632.2651445;632.2651445;632.2651445;635.2933391;635.2933391;635.2933391;635.2933391;635.2933391;635.2933391;None;0;;;C:\2023\REPSWITCH21092023\REPSWITCH_excgange\REPSWITCH_excgange\data/220203_REPSWITCH1_version2_list3_2023-12-01_13h12.50.376_micRespv2l3_recorded\recording_micRespv2l3_2023-12-01_13h23.11.864.wav;635.2933391;;None;;;;;;220203;1;2023-12-01_13h12.50.376;REPSWITCH1_version2_list3;2022.2.4;143.9196811;
REPSWITCH1/PICTURE_19.png;pavo;type;gold;filler;1;F;2;4;3;2;Stim5_Set1;0;None;127;126;25;0;126;126;126;;;;;;;;;;;;;;;;;;;;;;;635.7933787;636.953252;636.953252;636.953252;636.953252;636.953252;636.953252;636.953252;636.953252;639.9814355;639.9814355;639.9814355;639.9814355;639.9814355;639.9814355;['p', 'a', 'v', 'o'];0;[1.0090558999218047, 1.0817680000327528, 1.3013568001333624, 1.378705499926582];pavo;C:\2023\REPSWITCH21092023\REPSWITCH_excgange\REPSWITCH_excgange\data/220203_REPSWITCH1_version2_list3_2023-12-01_13h12.50.376_micRespv2l3_recorded\recording_micRespv2l3_2023-12-01_13h23.16.552.wav;639.9814355;;None;;;;;;220203;1;2023-12-01_13h12.50.376;REPSWITCH1_version2_list3;2022.2.4;143.9196811;
REPSWITCH1/PICTURE_199.png;falda;type;gold;nontarget;1;NT;2;4;3;2;Stim8_Set2;1;repeat;128;127;26;0;127;127;127;;;;;;;;;;;;;;;;;;;;;;;640.4815122;641.6831215;641.6831215;641.6831215;641.6831215;641.6831215;641.6831215;641.6831215;641.6831215;644.7113134;644.7113134;644.7113134;644.7113134;644.7113134;644.7113134;['f', 'a', 'l', 'd', 'a'];0;[1.416554099880159, 1.4823322999291122, 1.724512199871242, 1.9328334999736398, 1.982645499985665];falda;C:\2023\REPSWITCH21092023\REPSWITCH_excgange\REPSWITCH_excgange\data/220203_REPSWITCH1_version2_list3_2023-12-01_13h12.50.376_micRespv2l3_recorded\recording_micRespv2l3_2023-12-01_13h23.21.281.wav;644.7113134;;None;;;;;;220203;1;2023-12-01_13h12.50.376;REPSWITCH1_version2_list3;2022.2.4;143.9196811;
REPSWITCH1/PICTURE_199.png;falda;type;gold;repeat;1;T;2;4;3;2;Stim8_Set2;0;None;129;128;27;0;128;128;128;;;;;;;;;;;;;;;;;;;;;;;645.2113038;646.3434192;646.3434192;646.3434192;646.3434192;646.3434192;646.3434192;646.3434192;646.3434192;649.3715696;649.3715696;649.3715696;649.3715696;649.3715696;649.3715696;['f', 'a', 'l', 'd', 'a'];0;[1.06452800007537, 1.1425389000214636, 1.724831399973482, 1.8096135999076068, 1.826460000127554];falda;C:\2023\REPSWITCH21092023\REPSWITCH_excgange\REPSWITCH_excgange\data/220203_REPSWITCH1_version2_list3_2023-12-01_13h12.50.376_micRespv2l3_recorded\recording_micRespv2l3_2023-12-01_13h23.25.942.wav;649.3715696;;None;;;;;;220203;1;2023-12-01_13h12.50.376;REPSWITCH1_version2_list3;2022.2.4;143.9196811;
REPSWITCH1/PICTURE_178.png;puente;speak;darkblue;filler;2;F;2;4;3;2;Stim1_Set1;1;switch;130;129;28;0;129;129;129;;;;;;;;;;;;;;;;;;;;;;;649.8716401;650.9134463;650.9134463;650.9134463;650.9134463;650.9134463;650.9134463;650.9134463;650.9134463;653.9416127;653.9416127;653.9416127;653.9416127;653.9416127;653.9416127;None;0;;;C:\2023\REPSWITCH21092023\REPSWITCH_excgange\REPSWITCH_excgange\data/220203_REPSWITCH1_version2_list3_2023-12-01_13h12.50.376_micRespv2l3_recorded\recording_micRespv2l3_2023-12-01_13h23.30.512.wav;653.9416127;;None;;;;;;220203;1;2023-12-01_13h12.50.376;REPSWITCH1_version2_list3;2022.2.4;143.9196811;
REPSWITCH1/PICTURE_517.png;cuerda;type;gold;nontarget;1;NT;2;4;3;2;Stim4_Set2;1;switch;131;130;29;0;130;130;130;;;;;;;;;;;;;;;;;;;;;;;654.4416904;655.5112907;655.5112907;655.5112907;655.5112907;655.5112907;655.5112907;655.5112907;655.5112907;658.5325718;658.5325718;658.5325718;658.5325718;658.5325718;658.5325718;['c', 'u', 'e', 'r', 'd', 'a'];0;[1.0991338000167161, 1.2508777999319136, 1.3395612000022084, 1.4152609000448138, 1.6178144000004977, 1.712495099985972];cuerda;C:\2023\REPSWITCH21092023\REPSWITCH_excgange\REPSWITCH_excgange\data/220203_REPSWITCH1_version2_list3_2023-12-01_13h12.50.376_micRespv2l3_recorded\recording_micRespv2l3_2023-12-01_13h23.35.109.wav;658.5325718;659.0325635;None;;;;;;220203;1;2023-12-01_13h12.50.376;REPSWITCH1_version2_list3;2022.2.4;143.9196811;
REPSWITCH1/PICTURE_517.png;cuerda;type;gold;repeat;1;T;2;4;3;2;Stim4_Set2;0;None;132;131;30;0;131;131;131;;;;;;;;;;;;;;;;;;;;;;;659.0325635;660.1090843;660.1090843;660.1090843;660.1090843;660.1090843;660.1090843;660.1090843;660.1090843;663.1303159;663.1303159;663.1303159;663.1303159;663.1303159;663.1303159;['c', 'u', 'e', 'r', 'd', 'a'];0;[0.9432245001662523, 1.1375594001729041, 1.2521782000549138, 1.2989954999648035, 1.5323360001202673, 1.617951299995184];cuerda;C:\2023\REPSWITCH21092023\REPSWITCH_excgange\REPSWITCH_excgange\data/220203_REPSWITCH1_version2_list3_2023-12-01_13h12.50.376_micRespv2l3_recorded\recording_micRespv2l3_2023-12-01_13h23.39.707.wav;663.1303159;663.6303905;None;;;;;;220203;1;2023-12-01_13h12.50.376;REPSWITCH1_version2_list3;2022.2.4;143.9196811;
REPSWITCH1/PICTURE_169.png;espalda;type;gold;filler;1;F;2;4;3;2;Stim8_Set1;0;None;133;132;31;0;132;132;132;;;;;;;;;;;;;;;;;;;;;;;663.6303905;664.7486362;664.7486362;664.7486362;664.7486362;664.7486362;664.7486362;664.7486362;664.7486362;667.7698276;667.7698276;667.7698276;667.7698276;667.7698276;667.7698276;['e', 's', 'p', 'a', 'l', 'd', 'a'];0;[0.985793000087142, 1.1831435000058264, 1.2912777001038194, 1.400883900001645, 1.5264341000001878, 1.6231509000062943, 1.689918200019747];espalda;C:\2023\REPSWITCH21092023\REPSWITCH_excgange\REPSWITCH_excgange\data/220203_REPSWITCH1_version2_list3_2023-12-01_13h12.50.376_micRespv2l3_recorded\recording_micRespv2l3_2023-12-01_13h23.44.346.wav;667.7698276;668.2698826;None;;;;;;220203;1;2023-12-01_13h12.50.376;REPSWITCH1_version2_list3;2022.2.4;143.9196811;
REPSWITCH1/PICTURE_673.png;tenedor;speak;darkblue;filler;2;F;2;4;3;2;Extra5;0;None;134;133;32;0;133;133;133;;;;;;;;;;;;;;;;;;;;;;;668.2698826;669.3603637;669.3603637;669.3603637;669.3603637;669.3603637;669.3603637;669.3603637;669.3603637;672.388489;672.388489;672.388489;672.388489;672.388489;672.388489;None;0;;;C:\2023\REPSWITCH21092023\REPSWITCH_excgange\REPSWITCH_excgange\data/220203_REPSWITCH1_version2_list3_2023-12-01_13h12.50.376_micRespv2l3_recorded\recording_micRespv2l3_2023-12-01_13h23.48.959.wav;672.388489;;None;;;;;;220203;1;2023-12-01_13h12.50.376;REPSWITCH1_version2_list3;2022.2.4;143.9196811;
REPSWITCH1/PICTURE_142.png;vaso;type;gold;filler;1;F;2;4;3;2;Stim7_Set1;1;switch;135;134;33;0;134;134;134;;;;;;;;;;;;;;;;;;;;;;;672.8885409;673.9581487;673.9581487;673.9581487;673.9581487;673.9581487;673.9581487;673.9581487;673.9581487;676.979343;676.979343;676.979343;676.979343;676.979343;676.979343;['v', 'a', 's', 'o'];0;[0.941130599938333, 1.1734088999219239, 1.205236699897796, 1.3800355999264866];vaso;C:\2023\REPSWITCH21092023\REPSWITCH_excgange\REPSWITCH_excgange\data/220203_REPSWITCH1_version2_list3_2023-12-01_13h12.50.376_micRespv2l3_recorded\recording_micRespv2l3_2023-12-01_13h23.53.556.wav;676.979343;677.479439;None;;;;;;220203;1;2023-12-01_13h12.50.376;REPSWITCH1_version2_list3;2022.2.4;143.9196811;
REPSWITCH1/PICTURE_552.png;manzana;type;gold;nontarget;1;NT;2;4;3;2;Stim6_Set2;1;repeat;136;135;34;0;135;135;135;;;;;;;;;;;;;;;;;;;;;;;677.479439;678.6115933;678.6115933;678.6115933;678.6115933;678.6115933;678.6115933;678.6115933;678.6115933;681.6397166;681.6397166;681.6397166;681.6397166;681.6397166;681.6397166;['m', 'a', 'n', 'z', 'a', 'n', 'a'];0;[1.0004023001529276, 1.115051600150764, 1.2485889000818133, 1.336256500100717, 1.4688438000157475, 1.5356427000369877, 2.212234100094065];manzana;C:\2023\REPSWITCH21092023\REPSWITCH_excgange\REPSWITCH_excgange\data/220203_REPSWITCH1_version2_list3_2023-12-01_13h12.50.376_micRespv2l3_recorded\recording_micRespv2l3_2023-12-01_13h23.58.211.wav;681.6397166;;None;;;;;;220203;1;2023-12-01_13h12.50.376;REPSWITCH1_version2_list3;2022.2.4;143.9196811;
REPSWITCH1/PICTURE_552.png;manzana;speak;darkblue;switch;1;T;2;4;3;2;Stim6_Set2;0;None;137;136;35;0;136;136;136;;;;;;;;;;;;;;;;;;;;;;;682.1397683;683.2440533;683.2440533;683.2440533;683.2440533;683.2440533;683.2440533;683.2440533;683.2440533;686.2722499;686.2722499;686.2722499;686.2722499;686.2722499;686.2722499;None;0;;;C:\2023\REPSWITCH21092023\REPSWITCH_excgange\REPSWITCH_excgange\data/220203_REPSWITCH1_version2_list3_2023-12-01_13h12.50.376_micRespv2l3_recorded\recording_micRespv2l3_2023-12-01_13h24.02.842.wav;686.2722499;;None;;;;;;220203;1;2023-12-01_13h12.50.376;REPSWITCH1_version2_list3;2022.2.4;143.9196811;
REPSWITCH1/PICTURE_135.png;traje;speak;darkblue;filler;2;F;2;4;3;2;Stim3_Set1;0;None;138;137;36;0;137;137;137;;;;;;;;;;;;;;;;;;;;;;;686.7723214;687.8905815;687.8905815;687.8905815;687.8905815;687.8905815;687.8905815;687.8905815;687.8905815;690.9186973;690.9186973;690.9186973;690.9186973;690.9186973;690.9186973;None;0;;;C:\2023\REPSWITCH21092023\REPSWITCH_excgange\REPSWITCH_excgange\data/220203_REPSWITCH1_version2_list3_2023-12-01_13h12.50.376_micRespv2l3_recorded\recording_micRespv2l3_2023-12-01_13h24.07.489.wav;690.9186973;;None;;;;;;220203;1;2023-12-01_13h12.50.376;REPSWITCH1_version2_list3;2022.2.4;143.9196811;
REPSWITCH1/PICTURE_152.png;caracol;speak;darkblue;nontarget;2;NT;2;4;3;2;Stim2_Set2;1;repeat;139;138;37;0;138;138;138;;;;;;;;;;;;;;;;;;;;;;;691.4187607;692.5230851;692.5230851;692.5230851;692.5230851;692.5230851;692.5230851;692.5230851;692.5230851;695.5442968;695.5442968;695.5442968;695.5442968;695.5442968;695.5442968;None;0;;;C:\2023\REPSWITCH21092023\REPSWITCH_excgange\REPSWITCH_excgange\data/220203_REPSWITCH1_version2_list3_2023-12-01_13h12.50.376_micRespv2l3_recorded\recording_micRespv2l3_2023-12-01_13h24.12.121.wav;695.5442968;696.0443737;None;;;;;;220203;1;2023-12-01_13h12.50.376;REPSWITCH1_version2_list3;2022.2.4;143.9196811;
REPSWITCH1/PICTURE_152.png;caracol;type;gold;switch;1;T;2;4;3;2;Stim2_Set2;0;None;140;139;38;0;139;139;139;;;;;;;;;;;;;;;;;;;;;;;696.0443737;697.1834171;697.1834171;697.1834171;697.1834171;697.1834171;697.1834171;697.1834171;697.1834171;700.2115929;700.2115929;700.2115929;700.2115929;700.2115929;700.2115929;['c', 'a', 'r', 'a', 'c', 'o', 'l'];0;[1.0437871001195163, 1.1424200001638383, 1.396591000026092, 1.4637533000204712, 1.6819007000885904, 1.8513381001539528, 2.0098051000386477];caracol;C:\2023\REPSWITCH21092023\REPSWITCH_excgange\REPSWITCH_excgange\data/220203_REPSWITCH1_version2_list3_2023-12-01_13h12.50.376_micRespv2l3_recorded\recording_micRespv2l3_2023-12-01_13h24.16.781.wav;700.2115929;;None;;;;;;220203;1;2023-12-01_13h12.50.376;REPSWITCH1_version2_list3;2022.2.4;143.9196811;
