image;correctAns;respModal;frameColor;repSwitch;sequence;target;set;block;list;exp_version;stimulus;baseline;baseline_condition;trial_no;psychopy_trial;Column1;trialsREPSWITCH.thisRepN;trialsREPSWITCH.thisTrialN;trialsREPSWITCH.thisN;trialsREPSWITCH.thisIndex;textWelcome.started;textboxInstrMain1.started;textboxInstrMain1_2.started;textboxInstrMain1_3.started;keyInstrMain.started;keyInstrMain.keys;keyInstrMain.rt;textboxInstrMain2.started;textboxInstrMain2_2.started;textboxInstrMain2_3.started;textboxInstrMain2_4.started;textboxInstrMain2_5.started;textboxInstrMain2_6.started;textboxInstrMain2_7.started;textboxInstrMain2_8.started;textboxInstrMain2_9.started;textboxInstrMain2_10.started;textboxInstrMain2_11.started;textboxInstrMain2_12.started;keyInstrMain2.started;keyInstrMain2.keys;keyInstrMain2.rt;fixationITI.started;fixationITI.stopped;polygonColour.started;polygonWhite.started;imageObject.started;polygonType.started;textInput.started;keyResp.started;micRespv2l4.started;keyResp.keys;keyResp.corr;keyResp.rt;subjResponse;micRespv2l4.clip;textBlankLoop.started;textBlankLoop.stopped;keyPause.keys;polygonColour.stopped;polygonWhite.stopped;imageObject.stopped;polygonType.stopped;textInput.stopped;keyResp.stopped;textboxPause.started;keyPause.started;keyPause.rt;textboxGoodbye.started;textboxGoodbye.stopped;participant;session;date;expName;psychopyVersion;frameRate;Column2
;;;;;;;;;;;;;;;;;;;;;8.950391700025648;11.449164499994367;11.449164499994367;11.449164499994367;11.449164499994367;space;4.56900960020721;;;;;;;;;;;;;;;;;;;;;;;;;;;;;;;;;;;;;;;;;;;;400204;001;2023-12-13_17h42.06.165;REPSWITCH1_version2_list4;2022.2.4;144.04053926586067;
;;;;;;;;;;;;;;;;;;;;;;;;;;;;16.033121099695563;16.033121099695563;16.033121099695563;16.033121099695563;16.033121099695563;16.033121099695563;16.033121099695563;16.033121099695563;16.033121099695563;16.033121099695563;16.033121099695563;16.033121099695563;16.033121099695563;space;3.6123657999560237;;;;;;;;;;;;;;;;;;;;;;;;;;;;;400204;001;2023-12-13_17h42.06.165;REPSWITCH1_version2_list4;2022.2.4;144.04053926586067;
REPSWITCH1/PICTURE_8.png;pierna;type;gold;filler;1;F;1;4;4;2;Stim3_Set4;0;None;1;0;1;0;0;0;0;;;;;;;;;;;;;;;;;;;;;;;19.748911699745804;20.797661900054663;20.797661900054663;20.797661900054663;20.797661900054663;20.797661900054663;20.797661900054663;20.797661900054663;20.797661900054663;['p', 'i', 'e', 'r', 'n', 'a'];0;[0.6652551000006497, 0.7599682998843491, 0.8818967998959124, 0.9509490001946688, 1.2384466999210417, 1.3680102000944316];pierna;C:\2023\REPSWITCH21092023\REPSWITCH_excgange\REPSWITCH_excgange\data/400204_REPSWITCH1_version2_list4_2023-12-13_17h42.06.165_micRespv2l4_recorded\recording_micRespv2l4_2023-12-13_17h42.22.794.wav;23.8188831997104;24.31893840013072;None;;;;;;;;;;;;400204;001;2023-12-13_17h42.06.165;REPSWITCH1_version2_list4;2022.2.4;144.04053926586067;
REPSWITCH1/PICTURE_498.png;taza;speak;darkblue;filler;2;F;1;4;4;2;Stim4_Set4;0;None;2;1;2;0;1;1;1;;;;;;;;;;;;;;;;;;;;;;;24.31893840013072;25.44409399991855;25.44409399991855;25.44409399991855;25.44409399991855;25.44409399991855;25.44409399991855;25.44409399991855;25.44409399991855;None;0;;;C:\2023\REPSWITCH21092023\REPSWITCH_excgange\REPSWITCH_excgange\data/400204_REPSWITCH1_version2_list4_2023-12-13_17h42.06.165_micRespv2l4_recorded\recording_micRespv2l4_2023-12-13_17h42.27.443.wav;28.47227149968967;;None;28.47227149968967;28.47227149968967;28.47227149968967;28.47227149968967;28.47227149968967;28.47227149968967;;;;;;400204;001;2023-12-13_17h42.06.165;REPSWITCH1_version2_list4;2022.2.4;144.04053926586067;
REPSWITCH1/PICTURE_19.png;pavo;speak;darkblue;nontarget;2;NT;1;4;4;2;Stim5_Set1;1;repeat;3;2;3;0;2;2;2;;;;;;;;;;;;;;;;;;;;;;;28.97240229975432;30.055785299744457;30.055785299744457;30.055785299744457;30.055785299744457;30.055785299744457;30.055785299744457;30.055785299744457;30.055785299744457;None;0;;;C:\2023\REPSWITCH21092023\REPSWITCH_excgange\REPSWITCH_excgange\data/400204_REPSWITCH1_version2_list4_2023-12-13_17h42.06.165_micRespv2l4_recorded\recording_micRespv2l4_2023-12-13_17h42.32.056.wav;33.08396290009841;;None;33.08396290009841;33.08396290009841;33.08396290009841;33.08396290009841;33.08396290009841;33.08396290009841;;;;;;400204;001;2023-12-13_17h42.06.165;REPSWITCH1_version2_list4;2022.2.4;144.04053926586067;
REPSWITCH1/PICTURE_19.png;pavo;speak;darkblue;repeat;2;T;1;4;4;2;Stim5_Set1;0;None;4;3;4;0;3;3;3;;;;;;;;;;;;;;;;;;;;;;;33.58402459975332;34.72306860005483;34.72306860005483;34.72306860005483;34.72306860005483;34.72306860005483;34.72306860005483;34.72306860005483;34.72306860005483;None;0;;;C:\2023\REPSWITCH21092023\REPSWITCH_excgange\REPSWITCH_excgange\data/400204_REPSWITCH1_version2_list4_2023-12-13_17h42.06.165_micRespv2l4_recorded\recording_micRespv2l4_2023-12-13_17h42.36.722.wav;37.75132759986445;;None;37.75132759986445;37.75132759986445;37.75132759986445;37.75132759986445;37.75132759986445;37.75132759986445;;;;;;400204;001;2023-12-13_17h42.06.165;REPSWITCH1_version2_list4;2022.2.4;144.04053926586067;
REPSWITCH1/PICTURE_319.png;vaca;type;gold;filler;1;F;1;4;4;2;Stim1_Set4;1;repeat;5;4;5;0;4;4;4;;;;;;;;;;;;;;;;;;;;;;;38.25133279990405;39.2931960998103;39.2931960998103;39.2931960998103;39.2931960998103;39.2931960998103;39.2931960998103;39.2931960998103;39.2931960998103;['v', 'a', 'c', 'a'];0;[0.8540032999590039, 0.9599091000854969, 1.1735149002633989, 1.2517126998864114];vaca;C:\2023\REPSWITCH21092023\REPSWITCH_excgange\REPSWITCH_excgange\data/400204_REPSWITCH1_version2_list4_2023-12-13_17h42.06.165_micRespv2l4_recorded\recording_micRespv2l4_2023-12-13_17h42.41.292.wav;42.321312400046736;;None;42.321312400046736;42.321312400046736;42.321312400046736;42.321312400046736;42.321312400046736;42.321312400046736;;;;;;400204;001;2023-12-13_17h42.06.165;REPSWITCH1_version2_list4;2022.2.4;144.04053926586067;
REPSWITCH1/PICTURE_169.png;espalda;speak;darkblue;nontarget;2;NT;1;4;4;2;Stim8_Set1;1;switch;6;5;6;0;5;5;5;;;;;;;;;;;;;;;;;;;;;;;42.82136949989945;43.842361100018024;43.842361100018024;43.842361100018024;43.842361100018024;43.842361100018024;43.842361100018024;43.842361100018024;43.842361100018024;None;0;;;C:\2023\REPSWITCH21092023\REPSWITCH_excgange\REPSWITCH_excgange\data/400204_REPSWITCH1_version2_list4_2023-12-13_17h42.06.165_micRespv2l4_recorded\recording_micRespv2l4_2023-12-13_17h42.45.841.wav;46.86361509980634;47.363624500110745;None;46.86361509980634;46.86361509980634;46.86361509980634;46.86361509980634;46.86361509980634;46.86361509980634;;;;;;400204;001;2023-12-13_17h42.06.165;REPSWITCH1_version2_list4;2022.2.4;144.04053926586067;
REPSWITCH1/PICTURE_169.png;espalda;speak;darkblue;repeat;2;T;1;4;4;2;Stim8_Set1;0;None;7;6;7;0;6;6;6;;;;;;;;;;;;;;;;;;;;;;;47.363624500110745;48.44709290005267;48.44709290005267;48.44709290005267;48.44709290005267;48.44709290005267;48.44709290005267;48.44709290005267;48.44709290005267;None;0;;;C:\2023\REPSWITCH21092023\REPSWITCH_excgange\REPSWITCH_excgange\data/400204_REPSWITCH1_version2_list4_2023-12-13_17h42.06.165_micRespv2l4_recorded\recording_micRespv2l4_2023-12-13_17h42.50.445.wav;51.46833929978311;51.96847310010344;None;51.46833929978311;51.46833929978311;51.46833929978311;51.46833929978311;51.46833929978311;51.46833929978311;;;;;;400204;001;2023-12-13_17h42.06.165;REPSWITCH1_version2_list4;2022.2.4;144.04053926586067;
REPSWITCH1/PICTURE_728.png;pulpo;type;gold;filler;1;F;1;4;4;2;Stim8_Set4;0;None;8;7;8;0;7;7;7;;;;;;;;;;;;;;;;;;;;;;;51.96847310010344;53.02412459999323;53.02412459999323;53.02412459999323;53.02412459999323;53.02412459999323;53.02412459999323;53.02412459999323;53.02412459999323;['p', 'u', 'l', 'p', 'o'];0;[0.6153780999593437, 0.724014800041914, 0.9104573000222445, 1.0618678000755608, 1.137557900045067];pulpo;C:\2023\REPSWITCH21092023\REPSWITCH_excgange\REPSWITCH_excgange\data/400204_REPSWITCH1_version2_list4_2023-12-13_17h42.06.165_micRespv2l4_recorded\recording_micRespv2l4_2023-12-13_17h42.55.022.wav;56.05227069975808;;None;56.05227069975808;56.05227069975808;56.05227069975808;56.05227069975808;56.05227069975808;56.05227069975808;;;;;;400204;001;2023-12-13_17h42.06.165;REPSWITCH1_version2_list4;2022.2.4;144.04053926586067;
REPSWITCH1/PICTURE_142.png;vaso;speak;darkblue;nontarget;2;NT;1;4;4;2;Stim7_Set1;1;switch;9;8;9;0;8;8;8;;;;;;;;;;;;;;;;;;;;;;;56.552321299910545;57.587244200054556;57.587244200054556;57.587244200054556;57.587244200054556;57.587244200054556;57.587244200054556;57.587244200054556;57.587244200054556;None;0;;;C:\2023\REPSWITCH21092023\REPSWITCH_excgange\REPSWITCH_excgange\data/400204_REPSWITCH1_version2_list4_2023-12-13_17h42.06.165_micRespv2l4_recorded\recording_micRespv2l4_2023-12-13_17h42.59.587.wav;60.61539189983159;61.115434899926186;None;60.61539189983159;60.61539189983159;60.61539189983159;60.61539189983159;60.61539189983159;60.61539189983159;;;;;;400204;001;2023-12-13_17h42.06.165;REPSWITCH1_version2_list4;2022.2.4;144.04053926586067;
REPSWITCH1/PICTURE_142.png;vaso;type;gold;switch;1;T;1;4;4;2;Stim7_Set1;0;None;10;9;10;0;9;9;9;;;;;;;;;;;;;;;;;;;;;;;61.115434899926186;62.12251449981704;62.12251449981704;62.12251449981704;62.12251449981704;62.12251449981704;62.12251449981704;62.12251449981704;62.12251449981704;['v', 'a', 'w', 'o', 'backspace', 'backspace', 's', 'o'];0;[0.8170277997851372, 0.9370637000538409, 1.0630042999982834, 1.12968929996714, 1.8041205001063645, 1.9826453998684883, 2.074339299928397, 2.2905884999781847];vaso;C:\2023\REPSWITCH21092023\REPSWITCH_excgange\REPSWITCH_excgange\data/400204_REPSWITCH1_version2_list4_2023-12-13_17h42.06.165_micRespv2l4_recorded\recording_micRespv2l4_2023-12-13_17h43.04.122.wav;65.15074309986085;;None;65.15074309986085;65.15074309986085;65.15074309986085;65.15074309986085;65.15074309986085;65.15074309986085;;;;;;400204;001;2023-12-13_17h42.06.165;REPSWITCH1_version2_list4;2022.2.4;144.04053926586067;
REPSWITCH1/PICTURE_338.png;regalo;type;gold;filler;1;F;1;4;4;2;Stim6_Set4;1;repeat;11;10;11;0;10;10;10;;;;;;;;;;;;;;;;;;;;;;;65.65071799978614;66.78977319970727;66.78977319970727;66.78977319970727;66.78977319970727;66.78977319970727;66.78977319970727;66.78977319970727;66.78977319970727;['r', 'e', 'g', 'a', 'l', 'o'];0;[1.0108862998895347, 1.1006934000179172, 1.2552159000188112, 1.3166633998043835, 1.4973081997595727, 1.6750754998065531];regalo;C:\2023\REPSWITCH21092023\REPSWITCH_excgange\REPSWITCH_excgange\data/400204_REPSWITCH1_version2_list4_2023-12-13_17h42.06.165_micRespv2l4_recorded\recording_micRespv2l4_2023-12-13_17h43.08.789.wav;69.81099699996412;70.3110616998747;None;69.81099699996412;69.81099699996412;69.81099699996412;69.81099699996412;69.81099699996412;69.81099699996412;;;;;;400204;001;2023-12-13_17h42.06.165;REPSWITCH1_version2_list4;2022.2.4;144.04053926586067;
REPSWITCH1/PICTURE_135.png;traje;type;gold;nontarget;1;NT;1;4;4;2;Stim3_Set1;1;repeat;12;11;12;0;11;11;11;;;;;;;;;;;;;;;;;;;;;;;70.3110616998747;71.38066119980067;71.38066119980067;71.38066119980067;71.38066119980067;71.38066119980067;71.38066119980067;71.38066119980067;71.38066119980067;['t', 'r', 'a', 'j', 'e'];0;[0.7648424999788404, 0.9054379998706281, 0.9921516999602318, 1.1488258996978402, 1.2405169000849128];traje;C:\2023\REPSWITCH21092023\REPSWITCH_excgange\REPSWITCH_excgange\data/400204_REPSWITCH1_version2_list4_2023-12-13_17h42.06.165_micRespv2l4_recorded\recording_micRespv2l4_2023-12-13_17h43.13.380.wav;74.40883969981223;;None;74.40883969981223;74.40883969981223;74.40883969981223;74.40883969981223;74.40883969981223;74.40883969981223;;;;;;400204;001;2023-12-13_17h42.06.165;REPSWITCH1_version2_list4;2022.2.4;144.04053926586067;
REPSWITCH1/PICTURE_135.png;traje;speak;darkblue;switch;2;T;1;4;4;2;Stim3_Set1;0;None;13;12;13;0;12;12;12;;;;;;;;;;;;;;;;;;;;;;;74.90889280010015;76.0340392999351;76.0340392999351;76.0340392999351;76.0340392999351;76.0340392999351;76.0340392999351;76.0340392999351;76.0340392999351;None;0;;;C:\2023\REPSWITCH21092023\REPSWITCH_excgange\REPSWITCH_excgange\data/400204_REPSWITCH1_version2_list4_2023-12-13_17h42.06.165_micRespv2l4_recorded\recording_micRespv2l4_2023-12-13_17h43.18.034.wav;79.06222239974886;;None;79.06222239974886;79.06222239974886;79.06222239974886;79.06222239974886;79.06222239974886;79.06222239974886;;;;;;400204;001;2023-12-13_17h42.06.165;REPSWITCH1_version2_list4;2022.2.4;144.04053926586067;
REPSWITCH1/PICTURE_381.png;fresa;speak;darkblue;nontarget;2;NT;1;4;4;2;Stim2_Set1;1;repeat;14;13;14;0;13;13;13;;;;;;;;;;;;;;;;;;;;;;;79.56228350009769;80.75688980007544;80.75688980007544;80.75688980007544;80.75688980007544;80.75688980007544;80.75688980007544;80.75688980007544;80.75688980007544;None;0;;;C:\2023\REPSWITCH21092023\REPSWITCH_excgange\REPSWITCH_excgange\data/400204_REPSWITCH1_version2_list4_2023-12-13_17h42.06.165_micRespv2l4_recorded\recording_micRespv2l4_2023-12-13_17h43.22.756.wav;83.78504649968818;;None;83.78504649968818;83.78504649968818;83.78504649968818;83.78504649968818;83.78504649968818;83.78504649968818;;;;;;400204;001;2023-12-13_17h42.06.165;REPSWITCH1_version2_list4;2022.2.4;144.04053926586067;
REPSWITCH1/PICTURE_381.png;fresa;type;gold;switch;1;T;1;4;4;2;Stim2_Set1;0;None;15;14;15;0;14;14;14;;;;;;;;;;;;;;;;;;;;;;;84.2851121998392;85.34081499977037;85.34081499977037;85.34081499977037;85.34081499977037;85.34081499977037;85.34081499977037;85.34081499977037;85.34081499977037;['f', 'r', 'e', 's', 'a'];0;[0.639805399812758, 0.8152030995115638, 0.9504189998842776, 1.1865626997314394, 1.3431436996906996];fresa;C:\2023\REPSWITCH21092023\REPSWITCH_excgange\REPSWITCH_excgange\data/400204_REPSWITCH1_version2_list4_2023-12-13_17h42.06.165_micRespv2l4_recorded\recording_micRespv2l4_2023-12-13_17h43.27.340.wav;88.36203760001808;88.8621013998054;None;88.36203760001808;88.36203760001808;88.36203760001808;88.36203760001808;88.36203760001808;88.36203760001808;;;;;;400204;001;2023-12-13_17h42.06.165;REPSWITCH1_version2_list4;2022.2.4;144.04053926586067;
REPSWITCH1/PICTURE_48.png;bombero;type;gold;filler;1;F;1;4;4;2;Stim7_Set4;0;None;16;15;16;0;15;15;15;;;;;;;;;;;;;;;;;;;;;;;88.8621013998054;89.96646089991555;89.96646089991555;89.96646089991555;89.96646089991555;89.96646089991555;89.96646089991555;89.96646089991555;89.96646089991555;['b', 'o', 'm', 'b', 'e', 'r', 'o'];0;[1.0626836000010371, 1.2120277001522481, 1.363481900189072, 1.4612028999254107, 1.6147015001624823, 1.679445100016892, 1.8239842001348734];bombero;C:\2023\REPSWITCH21092023\REPSWITCH_excgange\REPSWITCH_excgange\data/400204_REPSWITCH1_version2_list4_2023-12-13_17h42.06.165_micRespv2l4_recorded\recording_micRespv2l4_2023-12-13_17h43.31.966.wav;92.98766560014337;93.48773550009355;None;92.98766560014337;92.98766560014337;92.98766560014337;92.98766560014337;92.98766560014337;92.98766560014337;;;;;;400204;001;2023-12-13_17h42.06.165;REPSWITCH1_version2_list4;2022.2.4;144.04053926586067;
REPSWITCH1/PICTURE_687.png;camisa;speak;darkblue;filler;2;F;1;4;4;2;Stim5_Set4;0;None;17;16;17;0;16;16;16;;;;;;;;;;;;;;;;;;;;;;;93.48773550009355;94.54343910003081;94.54343910003081;94.54343910003081;94.54343910003081;94.54343910003081;94.54343910003081;94.54343910003081;94.54343910003081;None;0;;;C:\2023\REPSWITCH21092023\REPSWITCH_excgange\REPSWITCH_excgange\data/400204_REPSWITCH1_version2_list4_2023-12-13_17h42.06.165_micRespv2l4_recorded\recording_micRespv2l4_2023-12-13_17h43.36.542.wav;97.56462319986895;98.06471859989688;None;97.56462319986895;97.56462319986895;97.56462319986895;97.56462319986895;97.56462319986895;97.56462319986895;;;;;;400204;001;2023-12-13_17h42.06.165;REPSWITCH1_version2_list4;2022.2.4;144.04053926586067;
REPSWITCH1/PICTURE_128.png;muñeca;type;gold;nontarget;1;NT;1;4;4;2;Stim4_Set1;0;None;18;17;18;0;17;17;17;;;;;;;;;;;;;;;;;;;;;;;98.06471859989688;99.16207419987768;99.16207419987768;99.16207419987768;99.16207419987768;99.16207419987768;99.16207419987768;99.16207419987768;99.16207419987768;['m', 'u', 'ñ', 'e', 'c', 'a'];0;[1.4010711000300944, 1.5784660996869206, 1.7777964998967946, 1.8324612998403609, 2.0009173997677863, 2.0995578998699784];muñeca;C:\2023\REPSWITCH21092023\REPSWITCH_excgange\REPSWITCH_excgange\data/400204_REPSWITCH1_version2_list4_2023-12-13_17h42.06.165_micRespv2l4_recorded\recording_micRespv2l4_2023-12-13_17h43.41.161.wav;102.18330590007827;102.68345559993759;None;102.18330590007827;102.18330590007827;102.18330590007827;102.18330590007827;102.18330590007827;102.18330590007827;;;;;;400204;001;2023-12-13_17h42.06.165;REPSWITCH1_version2_list4;2022.2.4;144.04053926586067;
REPSWITCH1/PICTURE_128.png;muñeca;type;gold;repeat;1;T;1;4;4;2;Stim4_Set1;0;None;19;18;19;0;18;18;18;;;;;;;;;;;;;;;;;;;;;;;102.68345559993759;103.7738580997102;103.7738580997102;103.7738580997102;103.7738580997102;103.7738580997102;103.7738580997102;103.7738580997102;103.7738580997102;['m', 'u', 'ñ', 'e', 'c', 'a'];0;[0.7065941002219915, 0.863507800269872, 1.0094016999937594, 1.1010305001400411, 1.2554717999882996, 1.3571792002767324];muñeca;C:\2023\REPSWITCH21092023\REPSWITCH_excgange\REPSWITCH_excgange\data/400204_REPSWITCH1_version2_list4_2023-12-13_17h42.06.165_micRespv2l4_recorded\recording_micRespv2l4_2023-12-13_17h43.45.773.wav;106.79499829979613;107.29509479971603;None;106.79499829979613;106.79499829979613;106.79499829979613;106.79499829979613;106.79499829979613;106.79499829979613;;;;;;400204;001;2023-12-13_17h42.06.165;REPSWITCH1_version2_list4;2022.2.4;144.04053926586067;
REPSWITCH1/PICTURE_719.png;baño;speak;darkblue;filler;2;F;1;4;4;2;Stim2_Set4;1;switch;20;19;20;0;19;19;19;;;;;;;;;;;;;;;;;;;;;;;107.29509479971603;108.3577868998982;108.3577868998982;108.3577868998982;108.3577868998982;108.3577868998982;108.3577868998982;108.3577868998982;108.3577868998982;None;0;;;C:\2023\REPSWITCH21092023\REPSWITCH_excgange\REPSWITCH_excgange\data/400204_REPSWITCH1_version2_list4_2023-12-13_17h42.06.165_micRespv2l4_recorded\recording_micRespv2l4_2023-12-13_17h43.50.357.wav;111.37892640009522;111.87907879985869;None;111.37892640009522;111.37892640009522;111.37892640009522;111.37892640009522;111.37892640009522;111.37892640009522;;;;;;400204;001;2023-12-13_17h42.06.165;REPSWITCH1_version2_list4;2022.2.4;144.04053926586067;
REPSWITCH1/PICTURE_178.png;puente;type;gold;nontarget;1;NT;1;4;4;2;Stim1_Set1;1;switch;21;20;21;0;20;20;20;;;;;;;;;;;;;;;;;;;;;;;111.87907879985869;112.99031180003658;112.99031180003658;112.99031180003658;112.99031180003658;112.99031180003658;112.99031180003658;112.99031180003658;112.99031180003658;['p', 'u', 'e', 'n', 't', 'e'];0;[0.7886564997024834, 0.905218799598515, 1.0478298999369144, 1.3268159995786846, 1.4415176999755204, 1.5529467999003828];puente;C:\2023\REPSWITCH21092023\REPSWITCH_excgange\REPSWITCH_excgange\data/400204_REPSWITCH1_version2_list4_2023-12-13_17h42.06.165_micRespv2l4_recorded\recording_micRespv2l4_2023-12-13_17h43.54.988.wav;116.01151699991897;116.51158279972151;None;116.01151699991897;116.01151699991897;116.01151699991897;116.01151699991897;116.01151699991897;116.01151699991897;;;;;;400204;001;2023-12-13_17h42.06.165;REPSWITCH1_version2_list4;2022.2.4;144.04053926586067;
REPSWITCH1/PICTURE_178.png;puente;type;gold;repeat;1;T;1;4;4;2;Stim1_Set1;0;None;22;21;22;0;21;21;21;;;;;;;;;;;;;;;;;;;;;;;116.51158279972151;117.57420129980892;117.57420129980892;117.57420129980892;117.57420129980892;117.57420129980892;117.57420129980892;117.57420129980892;117.57420129980892;['p', 'u', 'e', 'n', 't', 'e'];0;[0.588644300121814, 0.6823403998278081, 0.7730413000099361, 0.9778460999950767, 1.07666390016675, 1.1692373999394476];puente;C:\2023\REPSWITCH21092023\REPSWITCH_excgange\REPSWITCH_excgange\data/400204_REPSWITCH1_version2_list4_2023-12-13_17h42.06.165_micRespv2l4_recorded\recording_micRespv2l4_2023-12-13_17h43.59.574.wav;120.60240139998496;;None;120.60240139998496;120.60240139998496;120.60240139998496;120.60240139998496;120.60240139998496;120.60240139998496;;;;;;400204;001;2023-12-13_17h42.06.165;REPSWITCH1_version2_list4;2022.2.4;144.04053926586067;
REPSWITCH1/PICTURE_16.png;cazador;type;gold;nontarget;1;NT;1;4;4;2;Stim6_Set1;1;repeat;23;22;23;0;22;22;22;;;;;;;;;;;;;;;;;;;;;;;121.10253229970112;122.16508609987795;122.16508609987795;122.16508609987795;122.16508609987795;122.16508609987795;122.16508609987795;122.16508609987795;122.16508609987795;['c', 'a', 'z', 'a', 'd', 'o', 'r'];0;[0.7138926996849477, 0.8855597996152937, 1.1187819000333548, 1.2792953997850418, 1.4118557996116579, 1.495531799737364, 1.5802955999970436];cazador;C:\2023\REPSWITCH21092023\REPSWITCH_excgange\REPSWITCH_excgange\data/400204_REPSWITCH1_version2_list4_2023-12-13_17h42.06.165_micRespv2l4_recorded\recording_micRespv2l4_2023-12-13_17h44.04.164.wav;125.18631620006636;125.68639490008354;None;125.18631620006636;125.18631620006636;125.18631620006636;125.18631620006636;125.18631620006636;125.18631620006636;;;;;;400204;001;2023-12-13_17h42.06.165;REPSWITCH1_version2_list4;2022.2.4;144.04053926586067;
REPSWITCH1/PICTURE_16.png;cazador;speak;darkblue;switch;2;T;1;4;4;2;Stim6_Set1;0;None;24;23;24;0;23;23;23;;;;;;;;;;;;;;;;;;;;;;;125.68639490008354;126.72123309969902;126.72123309969902;126.72123309969902;126.72123309969902;126.72123309969902;126.72123309969902;126.72123309969902;126.72123309969902;None;0;;;C:\2023\REPSWITCH21092023\REPSWITCH_excgange\REPSWITCH_excgange\data/400204_REPSWITCH1_version2_list4_2023-12-13_17h42.06.165_micRespv2l4_recorded\recording_micRespv2l4_2023-12-13_17h44.08.720.wav;129.74247570009902;130.2425625999458;None;129.74247570009902;129.74247570009902;129.74247570009902;129.74247570009902;129.74247570009902;129.74247570009902;;;;;;400204;001;2023-12-13_17h42.06.165;REPSWITCH1_version2_list4;2022.2.4;144.04053926586067;
REPSWITCH1/PICTURE_19.png;pavo;type;gold;filler;1;F;2;4;4;2;Stim5_Set1;0;None;25;24;25;0;24;24;24;;;;;;;;;;;;;;;;;;;;;;;130.2425625999458;131.32608409971;131.32608409971;131.32608409971;131.32608409971;131.32608409971;131.32608409971;131.32608409971;131.32608409971;['p', 'a', 'v', 'o'];0;[0.5906641995534301, 0.6764078997075558, 0.8378627998754382, 0.9315159996040165];pavo;C:\2023\REPSWITCH21092023\REPSWITCH_excgange\REPSWITCH_excgange\data/400204_REPSWITCH1_version2_list4_2023-12-13_17h42.06.165_micRespv2l4_recorded\recording_micRespv2l4_2023-12-13_17h44.13.325.wav;134.35419519990683;;None;134.35419519990683;134.35419519990683;134.35419519990683;134.35419519990683;134.35419519990683;134.35419519990683;;;;;;400204;001;2023-12-13_17h42.06.165;REPSWITCH1_version2_list4;2022.2.4;144.04053926586067;
REPSWITCH1/PICTURE_199.png;falda;type;gold;nontarget;1;NT;2;4;4;2;Stim8_Set2;1;repeat;26;25;26;0;25;25;25;;;;;;;;;;;;;;;;;;;;;;;134.85426170006394;135.90999080007896;135.90999080007896;135.90999080007896;135.90999080007896;135.90999080007896;135.90999080007896;135.90999080007896;135.90999080007896;['f', 'a', 'l', 'd', 'a'];0;[0.8362765000201762, 0.962898500263691, 1.0844895001500845, 1.2259833002462983, 1.327995200175792];falda;C:\2023\REPSWITCH21092023\REPSWITCH_excgange\REPSWITCH_excgange\data/400204_REPSWITCH1_version2_list4_2023-12-13_17h42.06.165_micRespv2l4_recorded\recording_micRespv2l4_2023-12-13_17h44.17.909.wav;138.93816690007225;;None;138.93816690007225;138.93816690007225;138.93816690007225;138.93816690007225;138.93816690007225;138.93816690007225;;;;;;400204;001;2023-12-13_17h42.06.165;REPSWITCH1_version2_list4;2022.2.4;144.04053926586067;
REPSWITCH1/PICTURE_199.png;falda;type;gold;repeat;1;T;2;4;4;2;Stim8_Set2;0;None;27;26;27;0;26;26;26;;;;;;;;;;;;;;;;;;;;;;;139.43819449981675;140.52168389968574;140.52168389968574;140.52168389968574;140.52168389968574;140.52168389968574;140.52168389968574;140.52168389968574;140.52168389968574;['f', 'a', 'l', 'd', 'a'];0;[0.5519723994657397, 0.6367417997680604, 0.7733617997728288, 0.9138905997388065, 1.024194499477744];falda;C:\2023\REPSWITCH21092023\REPSWITCH_excgange\REPSWITCH_excgange\data/400204_REPSWITCH1_version2_list4_2023-12-13_17h42.06.165_micRespv2l4_recorded\recording_micRespv2l4_2023-12-13_17h44.22.521.wav;143.54985379986465;;None;143.54985379986465;143.54985379986465;143.54985379986465;143.54985379986465;143.54985379986465;143.54985379986465;;;;;;400204;001;2023-12-13_17h42.06.165;REPSWITCH1_version2_list4;2022.2.4;144.04053926586067;
REPSWITCH1/PICTURE_178.png;puente;speak;darkblue;filler;2;F;2;4;4;2;Stim1_Set1;1;switch;28;27;28;0;27;27;27;;;;;;;;;;;;;;;;;;;;;;;144.0498823998496;145.16813240014017;145.16813240014017;145.16813240014017;145.16813240014017;145.16813240014017;145.16813240014017;145.16813240014017;145.16813240014017;None;0;;;C:\2023\REPSWITCH21092023\REPSWITCH_excgange\REPSWITCH_excgange\data/400204_REPSWITCH1_version2_list4_2023-12-13_17h42.06.165_micRespv2l4_recorded\recording_micRespv2l4_2023-12-13_17h44.27.168.wav;148.18935150001198;148.68940609972924;None;148.18935150001198;148.18935150001198;148.18935150001198;148.18935150001198;148.18935150001198;148.18935150001198;;;;;;400204;001;2023-12-13_17h42.06.165;REPSWITCH1_version2_list4;2022.2.4;144.04053926586067;
REPSWITCH1/PICTURE_517.png;cuerda;type;gold;nontarget;1;NT;2;4;4;2;Stim4_Set2;1;switch;29;28;29;0;28;28;28;;;;;;;;;;;;;;;;;;;;;;;148.68940609972924;149.84234499977902;149.84234499977902;149.84234499977902;149.84234499977902;149.84234499977902;149.84234499977902;149.84234499977902;149.84234499977902;['c', 'u', 'e', 'r', 'd', 'a'];0;[0.7166377999819815, 0.7993728998117149, 0.9000014001503587, 0.9818061999976635, 1.1677258997224271, 1.2823453000746667];cuerda;C:\2023\REPSWITCH21092023\REPSWITCH_excgange\REPSWITCH_excgange\data/400204_REPSWITCH1_version2_list4_2023-12-13_17h42.06.165_micRespv2l4_recorded\recording_micRespv2l4_2023-12-13_17h44.31.842.wav;152.8704802999273;153.37058490002528;None;152.8704802999273;152.8704802999273;152.8704802999273;152.8704802999273;152.8704802999273;152.8704802999273;;;;;;400204;001;2023-12-13_17h42.06.165;REPSWITCH1_version2_list4;2022.2.4;144.04053926586067;
REPSWITCH1/PICTURE_517.png;cuerda;type;gold;repeat;1;T;2;4;4;2;Stim4_Set2;0;None;30;29;30;0;29;29;29;;;;;;;;;;;;;;;;;;;;;;;153.37058490002528;154.3916013999842;154.3916013999842;154.3916013999842;154.3916013999842;154.3916013999842;154.3916013999842;154.3916013999842;154.3916013999842;['c', 'u', 'e', 'r', 'd', 'a'];0;[0.6637933999300003, 0.7863431996665895, 0.8671123995445669, 0.9219222995452583, 1.1600882997736335, 1.2644734997302294];cuerda;C:\2023\REPSWITCH21092023\REPSWITCH_excgange\REPSWITCH_excgange\data/400204_REPSWITCH1_version2_list4_2023-12-13_17h42.06.165_micRespv2l4_recorded\recording_micRespv2l4_2023-12-13_17h44.36.391.wav;157.4127392997034;157.9128473997116;None;157.4127392997034;157.4127392997034;157.4127392997034;157.4127392997034;157.4127392997034;157.4127392997034;;;;;;400204;001;2023-12-13_17h42.06.165;REPSWITCH1_version2_list4;2022.2.4;144.04053926586067;
REPSWITCH1/PICTURE_169.png;espalda;type;gold;filler;1;F;2;4;4;2;Stim8_Set1;0;None;31;30;31;0;30;30;30;;;;;;;;;;;;;;;;;;;;;;;157.9128473997116;159.08661030000076;159.08661030000076;159.08661030000076;159.08661030000076;159.08661030000076;159.08661030000076;159.08661030000076;159.08661030000076;['e', 's', 'p', 'a', 'l', 'd', 'a'];0;[0.6519384998828173, 0.7614698996767402, 0.8780778995715082, 1.0154665997251868, 1.1350531997159123, 1.2584082996472716, 1.3809352996759117];espalda;C:\2023\REPSWITCH21092023\REPSWITCH_excgange\REPSWITCH_excgange\data/400204_REPSWITCH1_version2_list4_2023-12-13_17h42.06.165_micRespv2l4_recorded\recording_micRespv2l4_2023-12-13_17h44.41.086.wav;162.10783590003848;162.60788449971005;None;162.10783590003848;162.10783590003848;162.10783590003848;162.10783590003848;162.10783590003848;162.10783590003848;;;;;;400204;001;2023-12-13_17h42.06.165;REPSWITCH1_version2_list4;2022.2.4;144.04053926586067;
REPSWITCH1/PICTURE_673.png;tenedor;speak;darkblue;filler;2;F;2;4;4;2;Extra5;0;None;32;31;32;0;31;31;31;;;;;;;;;;;;;;;;;;;;;;;162.60788449971005;163.7470038998872;163.7470038998872;163.7470038998872;163.7470038998872;163.7470038998872;163.7470038998872;163.7470038998872;163.7470038998872;None;0;;;C:\2023\REPSWITCH21092023\REPSWITCH_excgange\REPSWITCH_excgange\data/400204_REPSWITCH1_version2_list4_2023-12-13_17h42.06.165_micRespv2l4_recorded\recording_micRespv2l4_2023-12-13_17h44.45.746.wav;166.76813279977068;167.26819809991866;None;166.76813279977068;166.76813279977068;166.76813279977068;166.76813279977068;166.76813279977068;166.76813279977068;;;;;;400204;001;2023-12-13_17h42.06.165;REPSWITCH1_version2_list4;2022.2.4;144.04053926586067;
REPSWITCH1/PICTURE_142.png;vaso;type;gold;filler;1;F;2;4;4;2;Stim7_Set1;1;switch;33;32;33;0;32;32;32;;;;;;;;;;;;;;;;;;;;;;;167.26819809991866;168.42810910008848;168.42810910008848;168.42810910008848;168.42810910008848;168.42810910008848;168.42810910008848;168.42810910008848;168.42810910008848;['v', 'a', 's', 'o'];0;[0.5660919002257288, 0.6607655002735555, 0.7413868000730872, 0.8460253998637199];vaso;C:\2023\REPSWITCH21092023\REPSWITCH_excgange\REPSWITCH_excgange\data/400204_REPSWITCH1_version2_list4_2023-12-13_17h42.06.165_micRespv2l4_recorded\recording_micRespv2l4_2023-12-13_17h44.50.427.wav;171.44930480001494;171.94947629980743;None;171.44930480001494;171.44930480001494;171.44930480001494;171.44930480001494;171.44930480001494;171.44930480001494;;;;;;400204;001;2023-12-13_17h42.06.165;REPSWITCH1_version2_list4;2022.2.4;144.04053926586067;
REPSWITCH1/PICTURE_552.png;manzana;type;gold;nontarget;1;NT;2;4;4;2;Stim6_Set2;1;repeat;34;33;34;0;33;33;33;;;;;;;;;;;;;;;;;;;;;;;171.94947629980743;173.10239289980382;173.10239289980382;173.10239289980382;173.10239289980382;173.10239289980382;173.10239289980382;173.10239289980382;173.10239289980382;['m', 'a', 'n', 'z', 'a', 'n', 'a'];0;[0.7941212998703122, 0.8588967998512089, 1.000495399814099, 1.0692719998769462, 1.2188588995486498, 1.3388441996648908, 1.7706438996829093];manzana;C:\2023\REPSWITCH21092023\REPSWITCH_excgange\REPSWITCH_excgange\data/400204_REPSWITCH1_version2_list4_2023-12-13_17h42.06.165_micRespv2l4_recorded\recording_micRespv2l4_2023-12-13_17h44.55.103.wav;176.13057659985498;;None;176.13057659985498;176.13057659985498;176.13057659985498;176.13057659985498;176.13057659985498;176.13057659985498;;;;;;400204;001;2023-12-13_17h42.06.165;REPSWITCH1_version2_list4;2022.2.4;144.04053926586067;
REPSWITCH1/PICTURE_552.png;manzana;speak;darkblue;switch;1;T;2;4;4;2;Stim6_Set2;0;None;35;34;35;0;34;34;34;;;;;;;;;;;;;;;;;;;;;;;176.63057200005278;177.71402669977397;177.71402669977397;177.71402669977397;177.71402669977397;177.71402669977397;177.71402669977397;177.71402669977397;177.71402669977397;None;0;;;C:\2023\REPSWITCH21092023\REPSWITCH_excgange\REPSWITCH_excgange\data/400204_REPSWITCH1_version2_list4_2023-12-13_17h42.06.165_micRespv2l4_recorded\recording_micRespv2l4_2023-12-13_17h44.59.713.wav;180.73524949979037;181.2353440998122;None;180.73524949979037;180.73524949979037;180.73524949979037;180.73524949979037;180.73524949979037;180.73524949979037;;;;;;400204;001;2023-12-13_17h42.06.165;REPSWITCH1_version2_list4;2022.2.4;144.04053926586067;
REPSWITCH1/PICTURE_135.png;traje;speak;darkblue;filler;2;F;2;4;4;2;Stim3_Set1;0;None;36;35;36;0;35;35;35;;;;;;;;;;;;;;;;;;;;;;;181.2353440998122;182.478587300051;182.478587300051;182.478587300051;182.478587300051;182.478587300051;182.478587300051;182.478587300051;182.478587300051;None;0;;;C:\2023\REPSWITCH21092023\REPSWITCH_excgange\REPSWITCH_excgange\data/400204_REPSWITCH1_version2_list4_2023-12-13_17h42.06.165_micRespv2l4_recorded\recording_micRespv2l4_2023-12-13_17h45.04.477.wav;185.49979509972036;185.99992780014873;None;185.49979509972036;185.49979509972036;185.49979509972036;185.49979509972036;185.49979509972036;185.49979509972036;;;;;;400204;001;2023-12-13_17h42.06.165;REPSWITCH1_version2_list4;2022.2.4;144.04053926586067;
REPSWITCH1/PICTURE_152.png;caracol;speak;darkblue;nontarget;2;NT;2;4;4;2;Stim2_Set2;1;repeat;37;36;37;0;36;36;36;;;;;;;;;;;;;;;;;;;;;;;185.99992780014873;187.16673519974574;187.16673519974574;187.16673519974574;187.16673519974574;187.16673519974574;187.16673519974574;187.16673519974574;187.16673519974574;None;0;;;C:\2023\REPSWITCH21092023\REPSWITCH_excgange\REPSWITCH_excgange\data/400204_REPSWITCH1_version2_list4_2023-12-13_17h42.06.165_micRespv2l4_recorded\recording_micRespv2l4_2023-12-13_17h45.09.165.wav;190.1879545999691;190.68793369969353;None;190.1879545999691;190.1879545999691;190.1879545999691;190.1879545999691;190.1879545999691;190.1879545999691;;;;;;400204;001;2023-12-13_17h42.06.165;REPSWITCH1_version2_list4;2022.2.4;144.04053926586067;
REPSWITCH1/PICTURE_152.png;caracol;type;gold;switch;1;T;2;4;4;2;Stim2_Set2;0;None;38;37;38;0;37;37;37;;;;;;;;;;;;;;;;;;;;;;;190.68793369969353;191.78539829980582;191.78539829980582;191.78539829980582;191.78539829980582;191.78539829980582;191.78539829980582;191.78539829980582;191.78539829980582;['c', 'a', 'r', 'a', 'c', 'o', 'l'];0;[0.6280696000903845, 0.7576272999867797, 0.8852057997137308, 1.0117633999325335, 1.245980499777943, 1.5260950000956655, 1.7059400998987257];caracol;C:\2023\REPSWITCH21092023\REPSWITCH_excgange\REPSWITCH_excgange\data/400204_REPSWITCH1_version2_list4_2023-12-13_17h42.06.165_micRespv2l4_recorded\recording_micRespv2l4_2023-12-13_17h45.13.784.wav;194.81352229975164;;None;194.81352229975164;194.81352229975164;194.81352229975164;194.81352229975164;194.81352229975164;194.81352229975164;;;;;;400204;001;2023-12-13_17h42.06.165;REPSWITCH1_version2_list4;2022.2.4;144.04053926586067;
REPSWITCH1/PICTURE_381.png;fresa;type;gold;filler;1;F;2;4;4;2;Stim2_Set1;0;None;39;38;39;0;38;38;38;;;;;;;;;;;;;;;;;;;;;;;195.3135759998113;196.46648479998112;196.46648479998112;196.46648479998112;196.46648479998112;196.46648479998112;196.46648479998112;196.46648479998112;196.46648479998112;['f', 'r', 'e', 's', 'a'];0;[0.5232131998054683, 0.7275120997801423, 0.8271812996827066, 0.9746948997490108, 1.1082413997501135];fresa;C:\2023\REPSWITCH21092023\REPSWITCH_excgange\REPSWITCH_excgange\data/400204_REPSWITCH1_version2_list4_2023-12-13_17h42.06.165_micRespv2l4_recorded\recording_micRespv2l4_2023-12-13_17h45.18.465.wav;199.48771419981495;199.98780959984288;None;199.48771419981495;199.48771419981495;199.48771419981495;199.48771419981495;199.48771419981495;199.48771419981495;;;;;;400204;001;2023-12-13_17h42.06.165;REPSWITCH1_version2_list4;2022.2.4;144.04053926586067;
REPSWITCH1/PICTURE_446.png;cerdo;type;gold;nontarget;1;NT;2;4;4;2;Stim7_Set2;1;repeat;40;39;40;0;39;39;39;;;;;;;;;;;;;;;;;;;;;;;199.98780959984288;201.04356950009242;201.04356950009242;201.04356950009242;201.04356950009242;201.04356950009242;201.04356950009242;201.04356950009242;201.04356950009242;['c', 'e', 'r', 'd', 'o'];0;[0.8251434001140296, 0.945095700211823, 1.0411911001428962, 1.199955299962312, 1.3275299002416432];cerdo;C:\2023\REPSWITCH21092023\REPSWITCH_excgange\REPSWITCH_excgange\data/400204_REPSWITCH1_version2_list4_2023-12-13_17h42.06.165_micRespv2l4_recorded\recording_micRespv2l4_2023-12-13_17h45.23.043.wav;204.06470469990745;204.56479369988665;None;204.06470469990745;204.06470469990745;204.06470469990745;204.06470469990745;204.06470469990745;204.06470469990745;;;;;;400204;001;2023-12-13_17h42.06.165;REPSWITCH1_version2_list4;2022.2.4;144.04053926586067;
REPSWITCH1/PICTURE_446.png;cerdo;speak;darkblue;switch;2;T;2;4;4;2;Stim7_Set2;0;None;41;40;41;0;40;40;40;;;;;;;;;;;;;;;;;;;;;;;204.56479369988665;205.59267969988286;205.59267969988286;205.59267969988286;205.59267969988286;205.59267969988286;205.59267969988286;205.59267969988286;205.59267969988286;None;0;;;C:\2023\REPSWITCH21092023\REPSWITCH_excgange\REPSWITCH_excgange\data/400204_REPSWITCH1_version2_list4_2023-12-13_17h42.06.165_micRespv2l4_recorded\recording_micRespv2l4_2023-12-13_17h45.27.591.wav;208.61392939975485;209.11397589975968;None;208.61392939975485;208.61392939975485;208.61392939975485;208.61392939975485;208.61392939975485;208.61392939975485;;;;;;400204;001;2023-12-13_17h42.06.165;REPSWITCH1_version2_list4;2022.2.4;144.04053926586067;
REPSWITCH1/PICTURE_264.png;mano;speak;darkblue;nontarget;2;NT;2;4;4;2;Stim3_Set2;0;None;42;41;42;0;41;41;41;;;;;;;;;;;;;;;;;;;;;;;209.11397589975968;210.35032989969477;210.35032989969477;210.35032989969477;210.35032989969477;210.35032989969477;210.35032989969477;210.35032989969477;210.35032989969477;None;0;;;C:\2023\REPSWITCH21092023\REPSWITCH_excgange\REPSWITCH_excgange\data/400204_REPSWITCH1_version2_list4_2023-12-13_17h42.06.165_micRespv2l4_recorded\recording_micRespv2l4_2023-12-13_17h45.32.349.wav;213.37158339982852;213.87156319990754;None;213.37158339982852;213.37158339982852;213.37158339982852;213.37158339982852;213.37158339982852;213.37158339982852;;;;;;400204;001;2023-12-13_17h42.06.165;REPSWITCH1_version2_list4;2022.2.4;144.04053926586067;
REPSWITCH1/PICTURE_264.png;mano;speak;darkblue;repeat;2;T;2;4;4;2;Stim3_Set2;0;None;43;42;43;0;42;42;42;;;;;;;;;;;;;;;;;;;;;;;213.87156319990754;215.059230200015;215.059230200015;215.059230200015;215.059230200015;215.059230200015;215.059230200015;215.059230200015;215.059230200015;None;0;;;C:\2023\REPSWITCH21092023\REPSWITCH_excgange\REPSWITCH_excgange\data/400204_REPSWITCH1_version2_list4_2023-12-13_17h42.06.165_micRespv2l4_recorded\recording_micRespv2l4_2023-12-13_17h45.37.059.wav;218.08046380011365;218.58051940007135;None;218.08046380011365;218.08046380011365;218.08046380011365;218.08046380011365;218.08046380011365;218.08046380011365;;;;;;400204;001;2023-12-13_17h42.06.165;REPSWITCH1_version2_list4;2022.2.4;144.04053926586067;
REPSWITCH1/PICTURE_128.png;muñeca;type;gold;filler;1;F;2;4;4;2;Stim4_Set1;0;None;44;43;44;0;43;43;43;;;;;;;;;;;;;;;;;;;;;;;218.58051940007135;219.712598499842;219.712598499842;219.712598499842;219.712598499842;219.712598499842;219.712598499842;219.712598499842;219.712598499842;['m', 'u', 'ñ', 'e', 'c', 'a'];0;[0.6440379000268877, 0.791523199994117, 0.9076319998130202, 1.0062380000017583, 1.166771899908781, 1.2514836001209915];muñeca;C:\2023\REPSWITCH21092023\REPSWITCH_excgange\REPSWITCH_excgange\data/400204_REPSWITCH1_version2_list4_2023-12-13_17h42.06.165_micRespv2l4_recorded\recording_micRespv2l4_2023-12-13_17h45.41.712.wav;222.74081020010635;;None;222.74081020010635;222.74081020010635;222.74081020010635;222.74081020010635;222.74081020010635;222.74081020010635;;;;;;400204;001;2023-12-13_17h42.06.165;REPSWITCH1_version2_list4;2022.2.4;144.04053926586067;
REPSWITCH1/PICTURE_30.png;granja;speak;darkblue;nontarget;2;NT;2;4;4;2;Stim5_Set2;1;switch;45;44;45;0;44;44;44;;;;;;;;;;;;;;;;;;;;;;;223.24084419989958;224.37988819973543;224.37988819973543;224.37988819973543;224.37988819973543;224.37988819973543;224.37988819973543;224.37988819973543;224.37988819973543;None;0;;;C:\2023\REPSWITCH21092023\REPSWITCH_excgange\REPSWITCH_excgange\data/400204_REPSWITCH1_version2_list4_2023-12-13_17h42.06.165_micRespv2l4_recorded\recording_micRespv2l4_2023-12-13_17h45.46.380.wav;227.40809880010784;227.90812100004405;None;227.40809880010784;227.40809880010784;227.40809880010784;227.40809880010784;227.40809880010784;227.40809880010784;;;;;;400204;001;2023-12-13_17h42.06.165;REPSWITCH1_version2_list4;2022.2.4;144.04053926586067;
REPSWITCH1/PICTURE_30.png;granja;speak;darkblue;repeat;2;T;2;4;4;2;Stim5_Set2;0;None;46;45;46;0;45;45;45;;;;;;;;;;;;;;;;;;;;;;;227.90812100004405;229.08190280012786;229.08190280012786;229.08190280012786;229.08190280012786;229.08190280012786;229.08190280012786;229.08190280012786;229.08190280012786;None;0;;;C:\2023\REPSWITCH21092023\REPSWITCH_excgange\REPSWITCH_excgange\data/400204_REPSWITCH1_version2_list4_2023-12-13_17h42.06.165_micRespv2l4_recorded\recording_micRespv2l4_2023-12-13_17h45.51.081.wav;232.11010729987174;;None;232.11010729987174;232.11010729987174;232.11010729987174;232.11010729987174;232.11010729987174;232.11010729987174;;;;;;400204;001;2023-12-13_17h42.06.165;REPSWITCH1_version2_list4;2022.2.4;144.04053926586067;
REPSWITCH1/PICTURE_646.png;tronco;type;gold;filler;1;F;2;4;4;2;Extra4;0;None;47;46;47;0;46;46;46;;;;;;;;;;;;;;;;;;;;;;;232.61012140009552;233.7491807998158;233.7491807998158;233.7491807998158;233.7491807998158;233.7491807998158;233.7491807998158;233.7491807998158;233.7491807998158;['t', 'r', 'o', 'n', 'c', 'o'];0;[0.6360670998692513, 0.8014935995452106, 1.182658499572426, 1.3472201996482909, 1.4867177996784449, 1.600370700005442];tronco;C:\2023\REPSWITCH21092023\REPSWITCH_excgange\REPSWITCH_excgange\data/400204_REPSWITCH1_version2_list4_2023-12-13_17h42.06.165_micRespv2l4_recorded\recording_micRespv2l4_2023-12-13_17h45.55.748.wav;236.7704666000791;237.27047500014305;None;236.7704666000791;236.7704666000791;236.7704666000791;236.7704666000791;236.7704666000791;236.7704666000791;;;;;;400204;001;2023-12-13_17h42.06.165;REPSWITCH1_version2_list4;2022.2.4;144.04053926586067;
REPSWITCH1/PICTURE_16.png;cazador;speak;darkblue;filler;2;F;2;4;4;2;Stim6_Set1;0;None;48;47;48;0;47;47;47;;;;;;;;;;;;;;;;;;;;;;;237.27047500014305;238.45118329999968;238.45118329999968;238.45118329999968;238.45118329999968;238.45118329999968;238.45118329999968;238.45118329999968;238.45118329999968;None;0;;;C:\2023\REPSWITCH21092023\REPSWITCH_excgange\REPSWITCH_excgange\data/400204_REPSWITCH1_version2_list4_2023-12-13_17h42.06.165_micRespv2l4_recorded\recording_micRespv2l4_2023-12-13_17h46.00.450.wav;241.4793909001164;;None;241.4793909001164;241.4793909001164;241.4793909001164;241.4793909001164;241.4793909001164;241.4793909001164;;;;;;400204;001;2023-12-13_17h42.06.165;REPSWITCH1_version2_list4;2022.2.4;144.04053926586067;
REPSWITCH1/PICTURE_175.png;pintor;speak;darkblue;nontarget;2;NT;2;4;4;2;Stim1_Set2;1;repeat;49;48;49;0;48;48;48;;;;;;;;;;;;;;;;;;;;;;;241.97941950010136;242.99345330009237;242.99345330009237;242.99345330009237;242.99345330009237;242.99345330009237;242.99345330009237;242.99345330009237;242.99345330009237;None;0;;;C:\2023\REPSWITCH21092023\REPSWITCH_excgange\REPSWITCH_excgange\data/400204_REPSWITCH1_version2_list4_2023-12-13_17h42.06.165_micRespv2l4_recorded\recording_micRespv2l4_2023-12-13_17h46.04.992.wav;246.0146761997603;246.51474080001935;None;246.0146761997603;246.0146761997603;246.0146761997603;246.0146761997603;246.0146761997603;246.0146761997603;;;;;;400204;001;2023-12-13_17h42.06.165;REPSWITCH1_version2_list4;2022.2.4;144.04053926586067;
REPSWITCH1/PICTURE_175.png;pintor;type;gold;switch;1;T;2;4;4;2;Stim1_Set2;0;None;50;49;50;0;49;49;49;;;;;;;;;;;;;;;;;;;;;;;246.51474080001935;247.63994190003723;247.63994190003723;247.63994190003723;247.63994190003723;247.63994190003723;247.63994190003723;247.63994190003723;247.63994190003723;['p', 'o', 'backspace', 'i', 'n', 't', 'o', 'r'];0;[0.923335799947381, 1.0090351998806, 1.4236699999310076, 1.658143199980259, 1.8085769000463188, 1.898330600000918, 2.022941299714148, 2.095603199675679];pintor;C:\2023\REPSWITCH21092023\REPSWITCH_excgange\REPSWITCH_excgange\data/400204_REPSWITCH1_version2_list4_2023-12-13_17h42.06.165_micRespv2l4_recorded\recording_micRespv2l4_2023-12-13_17h46.09.638.wav;250.66111340001225;251.16117849992588;None;250.66111340001225;250.66111340001225;250.66111340001225;250.66111340001225;250.66111340001225;250.66111340001225;;;;;;400204;001;2023-12-13_17h42.06.165;REPSWITCH1_version2_list4;2022.2.4;144.04053926586067;
REPSWITCH1/PICTURE_663.png;columna;speak;darkblue;filler;2;F;4;4;4;2;Extra6;0;None;51;50;51;0;50;50;50;;;;;;;;;;;;;;;;;;;;;;;251.16117849992588;252.20999220013618;252.20999220013618;252.20999220013618;252.20999220013618;252.20999220013618;252.20999220013618;252.20999220013618;252.20999220013618;None;0;;;C:\2023\REPSWITCH21092023\REPSWITCH_excgange\REPSWITCH_excgange\data/400204_REPSWITCH1_version2_list4_2023-12-13_17h42.06.165_micRespv2l4_recorded\recording_micRespv2l4_2023-12-13_17h46.14.209.wav;255.23112799972296;255.7312276000157;space;255.23112799972296;255.23112799972296;255.23112799972296;255.23112799972296;255.23112799972296;255.23112799972296;255.7312276000157;255.7312276000157;4.942405899986625;;;400204;001;2023-12-13_17h42.06.165;REPSWITCH1_version2_list4;2022.2.4;144.04053926586067;
REPSWITCH1/PICTURE_35.png;oreja;type;gold;nontarget;1;NT;3;4;4;2;Stim5_Set3;0;None;52;51;52;0;51;51;51;;;;;;;;;;;;;;;;;;;;;;;260.6832671999;261.8014838998206;261.8014838998206;261.8014838998206;261.8014838998206;261.8014838998206;261.8014838998206;261.8014838998206;261.8014838998206;['o', 'r', 'e', 'j', 'a'];0;[0.6850425000302494, 0.7988640000112355, 0.903613599948585, 1.038175499998033, 1.1099588996730745];oreja;C:\2023\REPSWITCH21092023\REPSWITCH_excgange\REPSWITCH_excgange\data/400204_REPSWITCH1_version2_list4_2023-12-13_17h42.06.165_micRespv2l4_recorded\recording_micRespv2l4_2023-12-13_17h46.23.801.wav;264.8296962999739;;None;264.8296962999739;264.8296962999739;264.8296962999739;264.8296962999739;264.8296962999739;264.8296962999739;;;;;;400204;001;2023-12-13_17h42.06.165;REPSWITCH1_version2_list4;2022.2.4;144.04053926586067;
REPSWITCH1/PICTURE_35.png;oreja;speak;darkblue;switch;2;T;3;4;4;2;Stim5_Set3;0;None;53;52;53;0;52;52;52;;;;;;;;;;;;;;;;;;;;;;;265.3297064998187;266.37846959987655;266.37846959987655;266.37846959987655;266.37846959987655;266.37846959987655;266.37846959987655;266.37846959987655;266.37846959987655;None;0;;;C:\2023\REPSWITCH21092023\REPSWITCH_excgange\REPSWITCH_excgange\data/400204_REPSWITCH1_version2_list4_2023-12-13_17h42.06.165_micRespv2l4_recorded\recording_micRespv2l4_2023-12-13_17h46.28.378.wav;269.4066312997602;;None;269.4066312997602;269.4066312997602;269.4066312997602;269.4066312997602;269.4066312997602;269.4066312997602;;;;;;400204;001;2023-12-13_17h42.06.165;REPSWITCH1_version2_list4;2022.2.4;144.04053926586067;
REPSWITCH1/PICTURE_199.png;falda;speak;darkblue;filler;2;F;3;4;4;2;Stim8_Set2;0;None;54;53;54;0;53;53;53;;;;;;;;;;;;;;;;;;;;;;;269.906693500001;270.96245939983055;270.96245939983055;270.96245939983055;270.96245939983055;270.96245939983055;270.96245939983055;270.96245939983055;270.96245939983055;None;0;;;C:\2023\REPSWITCH21092023\REPSWITCH_excgange\REPSWITCH_excgange\data/400204_REPSWITCH1_version2_list4_2023-12-13_17h42.06.165_micRespv2l4_recorded\recording_micRespv2l4_2023-12-13_17h46.32.962.wav;273.9906371999532;;None;273.9906371999532;273.9906371999532;273.9906371999532;273.9906371999532;273.9906371999532;273.9906371999532;;;;;;400204;001;2023-12-13_17h42.06.165;REPSWITCH1_version2_list4;2022.2.4;144.04053926586067;
REPSWITCH1/PICTURE_576.png;guante;speak;darkblue;nontarget;2;NT;3;4;4;2;Stim1_Set3;1;repeat;55;54;55;0;54;54;54;;;;;;;;;;;;;;;;;;;;;;;274.49065749999136;275.53243239969015;275.53243239969015;275.53243239969015;275.53243239969015;275.53243239969015;275.53243239969015;275.53243239969015;275.53243239969015;None;0;;;C:\2023\REPSWITCH21092023\REPSWITCH_excgange\REPSWITCH_excgange\data/400204_REPSWITCH1_version2_list4_2023-12-13_17h42.06.165_micRespv2l4_recorded\recording_micRespv2l4_2023-12-13_17h46.37.531.wav;278.5536659997888;279.0537103000097;None;278.5536659997888;278.5536659997888;278.5536659997888;278.5536659997888;278.5536659997888;278.5536659997888;;;;;;400204;001;2023-12-13_17h42.06.165;REPSWITCH1_version2_list4;2022.2.4;144.04053926586067;
REPSWITCH1/PICTURE_576.png;guante;type;gold;switch;1;T;3;4;4;2;Stim1_Set3;0;None;56;55;56;0;55;55;55;;;;;;;;;;;;;;;;;;;;;;;279.0537103000097;280.21360020013526;280.21360020013526;280.21360020013526;280.21360020013526;280.21360020013526;280.21360020013526;280.21360020013526;280.21360020013526;['g', 'u', 'a', 'n', 't', 'e'];0;[0.6302939001470804, 0.7315842998214066, 0.8242868999950588, 0.9398869001306593, 1.0594740002416074, 1.1292524999007583];guante;C:\2023\REPSWITCH21092023\REPSWITCH_excgange\REPSWITCH_excgange\data/400204_REPSWITCH1_version2_list4_2023-12-13_17h42.06.165_micRespv2l4_recorded\recording_micRespv2l4_2023-12-13_17h46.42.212.wav;283.23483760003;283.7349518998526;None;283.23483760003;283.23483760003;283.23483760003;283.23483760003;283.23483760003;283.23483760003;;;;;;400204;001;2023-12-13_17h42.06.165;REPSWITCH1_version2_list4;2022.2.4;144.04053926586067;
REPSWITCH1/PICTURE_517.png;cuerda;type;gold;filler;1;F;3;4;4;2;Stim4_Set2;1;repeat;57;56;57;0;56;56;56;;;;;;;;;;;;;;;;;;;;;;;283.7349518998526;284.7906447998248;284.7906447998248;284.7906447998248;284.7906447998248;284.7906447998248;284.7906447998248;284.7906447998248;284.7906447998248;['c', 'u', 'e', 'r', 'd', 'a'];0;[0.6947281998582184, 0.8103622999042273, 0.8841212997213006, 0.971836700104177, 1.155569899827242, 1.2661898001097143];cuerda;C:\2023\REPSWITCH21092023\REPSWITCH_excgange\REPSWITCH_excgange\data/400204_REPSWITCH1_version2_list4_2023-12-13_17h42.06.165_micRespv2l4_recorded\recording_micRespv2l4_2023-12-13_17h46.46.790.wav;287.81884460011497;;None;287.81884460011497;287.81884460011497;287.81884460011497;287.81884460011497;287.81884460011497;287.81884460011497;;;;;;400204;001;2023-12-13_17h42.06.165;REPSWITCH1_version2_list4;2022.2.4;144.04053926586067;
REPSWITCH1/PICTURE_271.png;conejo;type;gold;nontarget;1;NT;3;4;4;2;Stim7_Set3;1;repeat;58;57;58;0;57;57;57;;;;;;;;;;;;;;;;;;;;;;;288.31882049981505;289.5412706998177;289.5412706998177;289.5412706998177;289.5412706998177;289.5412706998177;289.5412706998177;289.5412706998177;289.5412706998177;['c', 'o', 'n', 'e', 'j', 'o'];0;[0.6736670001409948, 0.7713192002847791, 0.9029212002642453, 0.9579535000957549, 1.098479500040412, 1.2569466000422835];conejo;C:\2023\REPSWITCH21092023\REPSWITCH_excgange\REPSWITCH_excgange\data/400204_REPSWITCH1_version2_list4_2023-12-13_17h42.06.165_micRespv2l4_recorded\recording_micRespv2l4_2023-12-13_17h46.51.540.wav;292.56945650000125;;None;292.56945650000125;292.56945650000125;292.56945650000125;292.56945650000125;292.56945650000125;292.56945650000125;;;;;;400204;001;2023-12-13_17h42.06.165;REPSWITCH1_version2_list4;2022.2.4;144.04053926586067;
REPSWITCH1/PICTURE_271.png;conejo;speak;darkblue;switch;2;T;3;4;4;2;Stim7_Set3;0;None;59;58;59;0;58;58;58;;;;;;;;;;;;;;;;;;;;;;;293.069471700117;294.16681509977207;294.16681509977207;294.16681509977207;294.16681509977207;294.16681509977207;294.16681509977207;294.16681509977207;294.16681509977207;None;0;;;C:\2023\REPSWITCH21092023\REPSWITCH_excgange\REPSWITCH_excgange\data/400204_REPSWITCH1_version2_list4_2023-12-13_17h42.06.165_micRespv2l4_recorded\recording_micRespv2l4_2023-12-13_17h46.56.167.wav;297.1950595998205;;None;297.1950595998205;297.1950595998205;297.1950595998205;297.1950595998205;297.1950595998205;297.1950595998205;;;;;;400204;001;2023-12-13_17h42.06.165;REPSWITCH1_version2_list4;2022.2.4;144.04053926586067;
REPSWITCH1/PICTURE_552.png;manzana;type;gold;filler;1;F;3;4;4;2;Stim6_Set2;0;None;60;59;60;0;59;59;59;;;;;;;;;;;;;;;;;;;;;;;297.69503790000454;298.7924428000115;298.7924428000115;298.7924428000115;298.7924428000115;298.7924428000115;298.7924428000115;298.7924428000115;298.7924428000115;['m', 'a', 'n', 'z', 'a', 'n', 'a'];0;[0.5574500998482108, 0.6401292998343706, 0.7418193998746574, 0.841800699941814, 1.0227251998148859, 1.1164009999483824, 1.2330022999085486];manzana;C:\2023\REPSWITCH21092023\REPSWITCH_excgange\REPSWITCH_excgange\data/400204_REPSWITCH1_version2_list4_2023-12-13_17h42.06.165_micRespv2l4_recorded\recording_micRespv2l4_2023-12-13_17h47.00.791.wav;301.81363399978727;302.31372979981825;None;301.81363399978727;301.81363399978727;301.81363399978727;301.81363399978727;301.81363399978727;301.81363399978727;;;;;;400204;001;2023-12-13_17h42.06.165;REPSWITCH1_version2_list4;2022.2.4;144.04053926586067;
REPSWITCH1/PICTURE_242.png;cartero;speak;darkblue;nontarget;2;NT;3;4;4;2;Stim3_Set3;1;switch;61;60;61;0;60;60;60;;;;;;;;;;;;;;;;;;;;;;;302.31372979981825;303.3555462998338;303.3555462998338;303.3555462998338;303.3555462998338;303.3555462998338;303.3555462998338;303.3555462998338;303.3555462998338;None;0;;;C:\2023\REPSWITCH21092023\REPSWITCH_excgange\REPSWITCH_excgange\data/400204_REPSWITCH1_version2_list4_2023-12-13_17h42.06.165_micRespv2l4_recorded\recording_micRespv2l4_2023-12-13_17h47.05.354.wav;306.3768321000971;306.8768120999448;None;306.3768321000971;306.3768321000971;306.3768321000971;306.3768321000971;306.3768321000971;306.3768321000971;;;;;;400204;001;2023-12-13_17h42.06.165;REPSWITCH1_version2_list4;2022.2.4;144.04053926586067;
REPSWITCH1/PICTURE_242.png;cartero;speak;darkblue;repeat;2;T;3;4;4;2;Stim3_Set3;0;None;62;61;62;0;61;61;61;;;;;;;;;;;;;;;;;;;;;;;306.8768120999448;307.9464173000306;307.9464173000306;307.9464173000306;307.9464173000306;307.9464173000306;307.9464173000306;307.9464173000306;307.9464173000306;None;0;;;C:\2023\REPSWITCH21092023\REPSWITCH_excgange\REPSWITCH_excgange\data/400204_REPSWITCH1_version2_list4_2023-12-13_17h42.06.165_micRespv2l4_recorded\recording_micRespv2l4_2023-12-13_17h47.09.946.wav;310.9745867997408;;None;310.9745867997408;310.9745867997408;310.9745867997408;310.9745867997408;310.9745867997408;310.9745867997408;;;;;;400204;001;2023-12-13_17h42.06.165;REPSWITCH1_version2_list4;2022.2.4;144.04053926586067;
REPSWITCH1/PICTURE_152.png;caracol;speak;darkblue;filler;2;F;3;4;4;2;Stim2_Set2;0;None;63;62;63;0;62;62;62;;;;;;;;;;;;;;;;;;;;;;;311.47465319978073;312.55811240011826;312.55811240011826;312.55811240011826;312.55811240011826;312.55811240011826;312.55811240011826;312.55811240011826;312.55811240011826;None;0;;;C:\2023\REPSWITCH21092023\REPSWITCH_excgange\REPSWITCH_excgange\data/400204_REPSWITCH1_version2_list4_2023-12-13_17h42.06.165_micRespv2l4_recorded\recording_micRespv2l4_2023-12-13_17h47.14.558.wav;315.58629600005224;;None;315.58629600005224;315.58629600005224;315.58629600005224;315.58629600005224;315.58629600005224;315.58629600005224;;;;;;400204;001;2023-12-13_17h42.06.165;REPSWITCH1_version2_list4;2022.2.4;144.04053926586067;
REPSWITCH1/PICTURE_446.png;cerdo;type;gold;filler;1;F;3;4;4;2;Stim7_Set2;1;switch;64;63;64;0;63;63;63;;;;;;;;;;;;;;;;;;;;;;;316.08639529999346;317.1767760999501;317.1767760999501;317.1767760999501;317.1767760999501;317.1767760999501;317.1767760999501;317.1767760999501;317.1767760999501;['c', 'e', 'r', 'd', 'o'];0;[0.49630949972197413, 0.6256424998864532, 0.7325355000793934, 0.9008301999419928, 1.0097731999121606];cerdo;C:\2023\REPSWITCH21092023\REPSWITCH_excgange\REPSWITCH_excgange\data/400204_REPSWITCH1_version2_list4_2023-12-13_17h42.06.165_micRespv2l4_recorded\recording_micRespv2l4_2023-12-13_17h47.19.176.wav;320.2049843999557;;None;320.2049843999557;320.2049843999557;320.2049843999557;320.2049843999557;320.2049843999557;320.2049843999557;;;;;;400204;001;2023-12-13_17h42.06.165;REPSWITCH1_version2_list4;2022.2.4;144.04053926586067;
REPSWITCH1/PICTURE_610.png;miel;speak;darkblue;nontarget;2;NT;3;4;4;2;Stim2_Set3;1;switch;65;64;65;0;64;64;64;;;;;;;;;;;;;;;;;;;;;;;320.7050614999607;321.7884940998629;321.7884940998629;321.7884940998629;321.7884940998629;321.7884940998629;321.7884940998629;321.7884940998629;321.7884940998629;None;0;;;C:\2023\REPSWITCH21092023\REPSWITCH_excgange\REPSWITCH_excgange\data/400204_REPSWITCH1_version2_list4_2023-12-13_17h42.06.165_micRespv2l4_recorded\recording_micRespv2l4_2023-12-13_17h47.23.788.wav;324.8166736001149;;None;324.8166736001149;324.8166736001149;324.8166736001149;324.8166736001149;324.8166736001149;324.8166736001149;;;;;;400204;001;2023-12-13_17h42.06.165;REPSWITCH1_version2_list4;2022.2.4;144.04053926586067;
REPSWITCH1/PICTURE_610.png;miel;speak;darkblue;repeat;2;T;3;4;4;2;Stim2_Set3;0;None;66;65;66;0;65;65;65;;;;;;;;;;;;;;;;;;;;;;;325.3168204999529;326.4142002998851;326.4142002998851;326.4142002998851;326.4142002998851;326.4142002998851;326.4142002998851;326.4142002998851;326.4142002998851;None;0;;;C:\2023\REPSWITCH21092023\REPSWITCH_excgange\REPSWITCH_excgange\data/400204_REPSWITCH1_version2_list4_2023-12-13_17h42.06.165_micRespv2l4_recorded\recording_micRespv2l4_2023-12-13_17h47.28.413.wav;329.4353875997476;329.93541319994256;None;329.4353875997476;329.4353875997476;329.4353875997476;329.4353875997476;329.4353875997476;329.4353875997476;;;;;;400204;001;2023-12-13_17h42.06.165;REPSWITCH1_version2_list4;2022.2.4;144.04053926586067;
REPSWITCH1/PICTURE_320.png;iglesia;speak;darkblue;nontarget;2;NT;3;4;4;2;Stim8_Set3;1;repeat;67;66;67;0;66;66;66;;;;;;;;;;;;;;;;;;;;;;;329.93541319994256;331.0536131998524;331.0536131998524;331.0536131998524;331.0536131998524;331.0536131998524;331.0536131998524;331.0536131998524;331.0536131998524;None;0;;;C:\2023\REPSWITCH21092023\REPSWITCH_excgange\REPSWITCH_excgange\data/400204_REPSWITCH1_version2_list4_2023-12-13_17h42.06.165_micRespv2l4_recorded\recording_micRespv2l4_2023-12-13_17h47.33.053.wav;334.081809299998;;None;334.081809299998;334.081809299998;334.081809299998;334.081809299998;334.081809299998;334.081809299998;;;;;;400204;001;2023-12-13_17h42.06.165;REPSWITCH1_version2_list4;2022.2.4;144.04053926586067;
REPSWITCH1/PICTURE_320.png;iglesia;type;gold;switch;1;T;3;4;4;2;Stim8_Set3;0;None;68;67;68;0;67;67;67;;;;;;;;;;;;;;;;;;;;;;;334.58182720001787;335.64446379989386;335.64446379989386;335.64446379989386;335.64446379989386;335.64446379989386;335.64446379989386;335.64446379989386;335.64446379989386;['i', 'n', 'backspace', 'g', 'l', 'e', 's', 'a', 'backspace', 'i', 'a'];0;[0.5047031994909048, 0.6493616998195648, 1.0087689994834363, 1.1455996995791793, 1.285409199539572, 1.3963617999106646, 1.485735499765724, 1.763778599910438, 2.0568727995269, 2.2412354997359216, 2.2980528995394707];iglesia;C:\2023\REPSWITCH21092023\REPSWITCH_excgange\REPSWITCH_excgange\data/400204_REPSWITCH1_version2_list4_2023-12-13_17h42.06.165_micRespv2l4_recorded\recording_micRespv2l4_2023-12-13_17h47.37.643.wav;338.6657447000034;339.165856000036;None;338.6657447000034;338.6657447000034;338.6657447000034;338.6657447000034;338.6657447000034;338.6657447000034;;;;;;400204;001;2023-12-13_17h42.06.165;REPSWITCH1_version2_list4;2022.2.4;144.04053926586067;
REPSWITCH1/PICTURE_30.png;granja;speak;darkblue;filler;2;F;3;4;4;2;Stim5_Set2;0;None;69;68;69;0;68;68;68;;;;;;;;;;;;;;;;;;;;;;;339.165856000036;340.2909510000609;340.2909510000609;340.2909510000609;340.2909510000609;340.2909510000609;340.2909510000609;340.2909510000609;340.2909510000609;None;0;;;C:\2023\REPSWITCH21092023\REPSWITCH_excgange\REPSWITCH_excgange\data/400204_REPSWITCH1_version2_list4_2023-12-13_17h42.06.165_micRespv2l4_recorded\recording_micRespv2l4_2023-12-13_17h47.42.290.wav;343.31910969968885;;None;343.31910969968885;343.31910969968885;343.31910969968885;343.31910969968885;343.31910969968885;343.31910969968885;;;;;;400204;001;2023-12-13_17h42.06.165;REPSWITCH1_version2_list4;2022.2.4;144.04053926586067;
REPSWITCH1/PICTURE_264.png;mano;type;gold;filler;1;F;3;4;4;2;Stim3_Set2;0;None;70;69;70;0;69;69;69;;;;;;;;;;;;;;;;;;;;;;;343.81923579983413;345.03460839996114;345.03460839996114;345.03460839996114;345.03460839996114;345.03460839996114;345.03460839996114;345.03460839996114;345.03460839996114;['a', 'backspace', 'm', 'a', 'n', 'o'];0;[0.6346848998218775, 0.9755735998041928, 1.2067959997802973, 1.3312369999475777, 1.4093593996949494, 1.5059745996259153];mano;C:\2023\REPSWITCH21092023\REPSWITCH_excgange\REPSWITCH_excgange\data/400204_REPSWITCH1_version2_list4_2023-12-13_17h42.06.165_micRespv2l4_recorded\recording_micRespv2l4_2023-12-13_17h47.47.033.wav;348.05580009985715;348.5559450997971;None;348.05580009985715;348.05580009985715;348.05580009985715;348.05580009985715;348.05580009985715;348.05580009985715;;;;;;400204;001;2023-12-13_17h42.06.165;REPSWITCH1_version2_list4;2022.2.4;144.04053926586067;
REPSWITCH1/PICTURE_464.png;goma;type;gold;nontarget;1;NT;3;4;4;2;Stim6_Set3;0;None;71;70;71;0;70;70;70;;;;;;;;;;;;;;;;;;;;;;;348.5559450997971;349.60462659969926;349.60462659969926;349.60462659969926;349.60462659969926;349.60462659969926;349.60462659969926;349.60462659969926;349.60462659969926;['g', 'o', 'm', 'a'];0;[0.70981469983235, 0.7914734994992614, 0.9260230995714664, 0.9718718994408846];goma;C:\2023\REPSWITCH21092023\REPSWITCH_excgange\REPSWITCH_excgange\data/400204_REPSWITCH1_version2_list4_2023-12-13_17h42.06.165_micRespv2l4_recorded\recording_micRespv2l4_2023-12-13_17h47.51.604.wav;352.62585680000484;353.12592480005696;None;352.62585680000484;352.62585680000484;352.62585680000484;352.62585680000484;352.62585680000484;352.62585680000484;;;;;;400204;001;2023-12-13_17h42.06.165;REPSWITCH1_version2_list4;2022.2.4;144.04053926586067;
REPSWITCH1/PICTURE_464.png;goma;type;gold;repeat;1;T;3;4;4;2;Stim6_Set3;0;None;72;71;72;0;71;71;71;;;;;;;;;;;;;;;;;;;;;;;353.12592480005696;354.16779979970306;354.16779979970306;354.16779979970306;354.16779979970306;354.16779979970306;354.16779979970306;354.16779979970306;354.16779979970306;['g', 'o', 'm', 'a'];0;[0.6455986998043954, 0.7243881998583674, 0.8548772996291518, 0.9654959999024868];goma;C:\2023\REPSWITCH21092023\REPSWITCH_excgange\REPSWITCH_excgange\data/400204_REPSWITCH1_version2_list4_2023-12-13_17h42.06.165_micRespv2l4_recorded\recording_micRespv2l4_2023-12-13_17h47.56.167.wav;357.18895500013605;357.6890060999431;None;357.18895500013605;357.18895500013605;357.18895500013605;357.18895500013605;357.18895500013605;357.18895500013605;;;;;;400204;001;2023-12-13_17h42.06.165;REPSWITCH1_version2_list4;2022.2.4;144.04053926586067;
REPSWITCH1/PICTURE_175.png;pintor;speak;darkblue;filler;2;F;3;4;4;2;Stim1_Set2;0;None;73;72;73;0;72;72;72;;;;;;;;;;;;;;;;;;;;;;;357.6890060999431;358.7864717999473;358.7864717999473;358.7864717999473;358.7864717999473;358.7864717999473;358.7864717999473;358.7864717999473;358.7864717999473;None;0;;;C:\2023\REPSWITCH21092023\REPSWITCH_excgange\REPSWITCH_excgange\data/400204_REPSWITCH1_version2_list4_2023-12-13_17h42.06.165_micRespv2l4_recorded\recording_micRespv2l4_2023-12-13_17h48.00.786.wav;361.8145900997333;;None;361.8145900997333;361.8145900997333;361.8145900997333;361.8145900997333;361.8145900997333;361.8145900997333;;;;;;400204;001;2023-12-13_17h42.06.165;REPSWITCH1_version2_list4;2022.2.4;144.04053926586067;
REPSWITCH1/PICTURE_235.png;aguja;type;gold;nontarget;1;NT;3;4;4;2;Stim4_Set3;1;switch;74;73;74;0;73;73;73;;;;;;;;;;;;;;;;;;;;;;;362.3146369997412;363.41200849972665;363.41200849972665;363.41200849972665;363.41200849972665;363.41200849972665;363.41200849972665;363.41200849972665;363.41200849972665;['a', 'g', 'u', 'j', 'a'];0;[0.725823299959302, 0.880307000130415, 1.2563330000266433, 1.4271225999109447, 1.5134669002145529];aguja;C:\2023\REPSWITCH21092023\REPSWITCH_excgange\REPSWITCH_excgange\data/400204_REPSWITCH1_version2_list4_2023-12-13_17h42.06.165_micRespv2l4_recorded\recording_micRespv2l4_2023-12-13_17h48.05.411.wav;366.43332089995965;366.93331589968875;None;366.43332089995965;366.43332089995965;366.43332089995965;366.43332089995965;366.43332089995965;366.43332089995965;;;;;;400204;001;2023-12-13_17h42.06.165;REPSWITCH1_version2_list4;2022.2.4;144.04053926586067;
REPSWITCH1/PICTURE_235.png;aguja;type;gold;repeat;1;T;3;4;4;2;Stim4_Set3;0;None;75;74;75;0;74;74;74;;;;;;;;;;;;;;;;;;;;;;;366.93331589968875;368.02383079985157;368.02383079985157;368.02383079985157;368.02383079985157;368.02383079985157;368.02383079985157;368.02383079985157;368.02383079985157;['a', 'g', 'u', 'j', 'a'];0;[0.5668034995906055, 0.7187336995266378, 0.8256792998872697, 1.0016136998310685, 1.0751918996684253];aguja;C:\2023\REPSWITCH21092023\REPSWITCH_excgange\REPSWITCH_excgange\data/400204_REPSWITCH1_version2_list4_2023-12-13_17h42.06.165_micRespv2l4_recorded\recording_micRespv2l4_2023-12-13_17h48.10.023.wav;371.0449308999814;371.54499140009284;None;371.0449308999814;371.0449308999814;371.0449308999814;371.0449308999814;371.0449308999814;371.0449308999814;;;;;;400204;001;2023-12-13_17h42.06.165;REPSWITCH1_version2_list4;2022.2.4;144.04053926586067;
REPSWITCH1/PICTURE_576.png;guante;type;gold;filler;1;F;4;4;4;2;Stim1_Set3;1;repeat;76;75;76;0;75;75;75;;;;;;;;;;;;;;;;;;;;;;;371.54499140009284;372.69102140003815;372.69102140003815;372.69102140003815;372.69102140003815;372.69102140003815;372.69102140003815;372.69102140003815;372.69102140003815;['g', 'u', 'a', 'n', 't', 'e'];0;[0.599083200097084, 0.7086521000601351, 0.7904198998585343, 0.9195488002151251, 1.0034497999586165, 1.081177200190723];guante;C:\2023\REPSWITCH21092023\REPSWITCH_excgange\REPSWITCH_excgange\data/400204_REPSWITCH1_version2_list4_2023-12-13_17h42.06.165_micRespv2l4_recorded\recording_micRespv2l4_2023-12-13_17h48.14.691.wav;375.71920199971646;;None;375.71920199971646;375.71920199971646;375.71920199971646;375.71920199971646;375.71920199971646;375.71920199971646;;;;;;400204;001;2023-12-13_17h42.06.165;REPSWITCH1_version2_list4;2022.2.4;144.04053926586067;
REPSWITCH1/PICTURE_340.png;espejo;speak;darkblue;filler;2;F;4;4;4;2;Extra1;0;None;77;76;77;0;76;76;76;;;;;;;;;;;;;;;;;;;;;;;376.2192572001368;377.26806839974597;377.26806839974597;377.26806839974597;377.26806839974597;377.26806839974597;377.26806839974597;377.26806839974597;377.26806839974597;None;0;;;C:\2023\REPSWITCH21092023\REPSWITCH_excgange\REPSWITCH_excgange\data/400204_REPSWITCH1_version2_list4_2023-12-13_17h42.06.165_micRespv2l4_recorded\recording_micRespv2l4_2023-12-13_17h48.19.267.wav;380.2892122999765;380.7893726998009;None;380.2892122999765;380.2892122999765;380.2892122999765;380.2892122999765;380.2892122999765;380.2892122999765;;;;;;400204;001;2023-12-13_17h42.06.165;REPSWITCH1_version2_list4;2022.2.4;144.04053926586067;
REPSWITCH1/PICTURE_464.png;goma;speak;darkblue;filler;2;F;4;4;4;2;Stim6_Set3;1;repeat;78;77;78;0;77;77;77;;;;;;;;;;;;;;;;;;;;;;;380.7893726998009;381.83108749985695;381.83108749985695;381.83108749985695;381.83108749985695;381.83108749985695;381.83108749985695;381.83108749985695;381.83108749985695;None;0;;;C:\2023\REPSWITCH21092023\REPSWITCH_excgange\REPSWITCH_excgange\data/400204_REPSWITCH1_version2_list4_2023-12-13_17h42.06.165_micRespv2l4_recorded\recording_micRespv2l4_2023-12-13_17h48.23.830.wav;384.852365499828;385.35239559970796;None;384.852365499828;384.852365499828;384.852365499828;384.852365499828;384.852365499828;384.852365499828;;;;;;400204;001;2023-12-13_17h42.06.165;REPSWITCH1_version2_list4;2022.2.4;144.04053926586067;
REPSWITCH1/PICTURE_338.png;regalo;type;gold;nontarget;1;NT;4;4;4;2;Stim6_Set4;0;None;79;78;79;0;78;78;78;;;;;;;;;;;;;;;;;;;;;;;385.35239559970796;386.43585689971223;386.43585689971223;386.43585689971223;386.43585689971223;386.43585689971223;386.43585689971223;386.43585689971223;386.43585689971223;['r', 'e', 'g', 'a', 'l', 'o'];0;[0.682131000328809, 0.7817909000441432, 0.9512541000731289, 1.031939399894327, 1.1864757998846471, 1.3560804002918303];regalo;C:\2023\REPSWITCH21092023\REPSWITCH_excgange\REPSWITCH_excgange\data/400204_REPSWITCH1_version2_list4_2023-12-13_17h42.06.165_micRespv2l4_recorded\recording_micRespv2l4_2023-12-13_17h48.28.435.wav;389.4571420000866;389.9571747998707;None;389.4571420000866;389.4571420000866;389.4571420000866;389.4571420000866;389.4571420000866;389.4571420000866;;;;;;400204;001;2023-12-13_17h42.06.165;REPSWITCH1_version2_list4;2022.2.4;144.04053926586067;
REPSWITCH1/PICTURE_338.png;regalo;type;gold;repeat;1;T;4;4;4;2;Stim6_Set4;0;None;80;79;80;0;79;79;79;;;;;;;;;;;;;;;;;;;;;;;389.9571747998707;391.0545898997225;391.0545898997225;391.0545898997225;391.0545898997225;391.0545898997225;391.0545898997225;391.0545898997225;391.0545898997225;['r', 'e', 'g', 'a', 'l', 'o'];0;[0.5606582001782954, 0.6286531998775899, 0.7852676999755204, 0.886487599927932, 1.013944000005722, 1.1853201002813876];regalo;C:\2023\REPSWITCH21092023\REPSWITCH_excgange\REPSWITCH_excgange\data/400204_REPSWITCH1_version2_list4_2023-12-13_17h42.06.165_micRespv2l4_recorded\recording_micRespv2l4_2023-12-13_17h48.33.053.wav;394.07574399979785;394.575876200106;None;394.07574399979785;394.07574399979785;394.07574399979785;394.07574399979785;394.07574399979785;394.07574399979785;;;;;;400204;001;2023-12-13_17h42.06.165;REPSWITCH1_version2_list4;2022.2.4;144.04053926586067;
REPSWITCH1/PICTURE_8.png;pierna;type;gold;nontarget;1;NT;4;4;4;2;Stim3_Set4;1;repeat;81;80;81;0;80;80;80;;;;;;;;;;;;;;;;;;;;;;;394.575876200106;395.666298400145;395.666298400145;395.666298400145;395.666298400145;395.666298400145;395.666298400145;395.666298400145;395.666298400145;['p', 'i', 'e', 'r', 'n', 'a'];0;[0.6595750995911658, 0.7293364997021854, 1.1140466998331249, 1.185158799868077, 1.3522017998620868, 1.471815999597311];pierna;C:\2023\REPSWITCH21092023\REPSWITCH_excgange\REPSWITCH_excgange\data/400204_REPSWITCH1_version2_list4_2023-12-13_17h42.06.165_micRespv2l4_recorded\recording_micRespv2l4_2023-12-13_17h48.37.665.wav;398.6874778000638;399.1875489000231;None;398.6874778000638;398.6874778000638;398.6874778000638;398.6874778000638;398.6874778000638;398.6874778000638;;;;;;400204;001;2023-12-13_17h42.06.165;REPSWITCH1_version2_list4;2022.2.4;144.04053926586067;
REPSWITCH1/PICTURE_8.png;pierna;speak;darkblue;switch;2;T;4;4;4;2;Stim3_Set4;0;None;82;81;82;0;81;81;81;;;;;;;;;;;;;;;;;;;;;;;399.1875489000231;400.2919127997011;400.2919127997011;400.2919127997011;400.2919127997011;400.2919127997011;400.2919127997011;400.2919127997011;400.2919127997011;None;0;;;C:\2023\REPSWITCH21092023\REPSWITCH_excgange\REPSWITCH_excgange\data/400204_REPSWITCH1_version2_list4_2023-12-13_17h42.06.165_micRespv2l4_recorded\recording_micRespv2l4_2023-12-13_17h48.42.290.wav;403.3130827997811;403.8132150997408;None;403.3130827997811;403.3130827997811;403.3130827997811;403.3130827997811;403.3130827997811;403.3130827997811;;;;;;400204;001;2023-12-13_17h42.06.165;REPSWITCH1_version2_list4;2022.2.4;144.04053926586067;
REPSWITCH1/PICTURE_271.png;conejo;type;gold;filler;1;F;4;4;4;2;Stim7_Set3;0;None;83;82;83;0;82;82;82;;;;;;;;;;;;;;;;;;;;;;;403.8132150997408;404.88969419989735;404.88969419989735;404.88969419989735;404.88969419989735;404.88969419989735;404.88969419989735;404.88969419989735;404.88969419989735;['c', 'o', 'n', 'e', 'j', 'o'];0;[0.5872050998732448, 0.6530361999757588, 0.7856184998527169, 0.8524080999195576, 0.9788349000737071, 1.0894538001157343];conejo;C:\2023\REPSWITCH21092023\REPSWITCH_excgange\REPSWITCH_excgange\data/400204_REPSWITCH1_version2_list4_2023-12-13_17h42.06.165_micRespv2l4_recorded\recording_micRespv2l4_2023-12-13_17h48.46.889.wav;407.9108921000734;408.4110234999098;None;407.9108921000734;407.9108921000734;407.9108921000734;407.9108921000734;407.9108921000734;407.9108921000734;;;;;;400204;001;2023-12-13_17h42.06.165;REPSWITCH1_version2_list4;2022.2.4;144.04053926586067;
REPSWITCH1/PICTURE_687.png;camisa;speak;darkblue;nontarget;2;NT;4;4;4;2;Stim5_Set4;1;switch;84;83;84;0;83;83;83;;;;;;;;;;;;;;;;;;;;;;;408.4110234999098;409.4875245997682;409.4875245997682;409.4875245997682;409.4875245997682;409.4875245997682;409.4875245997682;409.4875245997682;409.4875245997682;None;0;;;C:\2023\REPSWITCH21092023\REPSWITCH_excgange\REPSWITCH_excgange\data/400204_REPSWITCH1_version2_list4_2023-12-13_17h42.06.165_micRespv2l4_recorded\recording_micRespv2l4_2023-12-13_17h48.51.486.wav;412.50874279998243;413.0087866000831;None;412.50874279998243;412.50874279998243;412.50874279998243;412.50874279998243;412.50874279998243;412.50874279998243;;;;;;400204;001;2023-12-13_17h42.06.165;REPSWITCH1_version2_list4;2022.2.4;144.04053926586067;
REPSWITCH1/PICTURE_687.png;camisa;speak;darkblue;repeat;2;T;4;4;4;2;Stim5_Set4;0;None;85;84;85;0;84;84;84;;;;;;;;;;;;;;;;;;;;;;;413.0087866000831;414.12699119979516;414.12699119979516;414.12699119979516;414.12699119979516;414.12699119979516;414.12699119979516;414.12699119979516;414.12699119979516;None;0;;;C:\2023\REPSWITCH21092023\REPSWITCH_excgange\REPSWITCH_excgange\data/400204_REPSWITCH1_version2_list4_2023-12-13_17h42.06.165_micRespv2l4_recorded\recording_micRespv2l4_2023-12-13_17h48.56.125.wav;417.14823839999735;417.6483016000129;None;417.14823839999735;417.14823839999735;417.14823839999735;417.14823839999735;417.14823839999735;417.14823839999735;;;;;;400204;001;2023-12-13_17h42.06.165;REPSWITCH1_version2_list4;2022.2.4;144.04053926586067;
REPSWITCH1/PICTURE_319.png;vaca;speak;darkblue;nontarget;2;NT;4;4;4;2;Stim1_Set4;0;None;86;85;86;0;85;85;85;;;;;;;;;;;;;;;;;;;;;;;417.6483016000129;418.69013240002096;418.69013240002096;418.69013240002096;418.69013240002096;418.69013240002096;418.69013240002096;418.69013240002096;418.69013240002096;None;0;;;C:\2023\REPSWITCH21092023\REPSWITCH_excgange\REPSWITCH_excgange\data/400204_REPSWITCH1_version2_list4_2023-12-13_17h42.06.165_micRespv2l4_recorded\recording_micRespv2l4_2023-12-13_17h49.00.689.wav;421.7182816998102;;None;421.7182816998102;421.7182816998102;421.7182816998102;421.7182816998102;421.7182816998102;421.7182816998102;;;;;;400204;001;2023-12-13_17h42.06.165;REPSWITCH1_version2_list4;2022.2.4;144.04053926586067;
REPSWITCH1/PICTURE_319.png;vaca;type;gold;switch;1;T;4;4;4;2;Stim1_Set4;0;None;87;86;87;0;86;86;86;;;;;;;;;;;;;;;;;;;;;;;422.2183431000449;423.26708830008283;423.26708830008283;423.26708830008283;423.26708830008283;423.26708830008283;423.26708830008283;423.26708830008283;423.26708830008283;['v', 'a', 'c', 'a'];0;[0.5186839997768402, 0.606411799788475, 0.7310060998424888, 0.8525878000073135];vaca;C:\2023\REPSWITCH21092023\REPSWITCH_excgange\REPSWITCH_excgange\data/400204_REPSWITCH1_version2_list4_2023-12-13_17h42.06.165_micRespv2l4_recorded\recording_micRespv2l4_2023-12-13_17h49.05.266.wav;426.2883151001297;426.78839659970254;None;426.2883151001297;426.2883151001297;426.2883151001297;426.2883151001297;426.2883151001297;426.2883151001297;;;;;;400204;001;2023-12-13_17h42.06.165;REPSWITCH1_version2_list4;2022.2.4;144.04053926586067;
REPSWITCH1/PICTURE_242.png;cartero;speak;darkblue;filler;2;F;4;4;4;2;Stim3_Set3;0;None;88;87;88;0;87;87;87;;;;;;;;;;;;;;;;;;;;;;;426.78839659970254;427.85797569993883;427.85797569993883;427.85797569993883;427.85797569993883;427.85797569993883;427.85797569993883;427.85797569993883;427.85797569993883;None;0;;;C:\2023\REPSWITCH21092023\REPSWITCH_excgange\REPSWITCH_excgange\data/400204_REPSWITCH1_version2_list4_2023-12-13_17h42.06.165_micRespv2l4_recorded\recording_micRespv2l4_2023-12-13_17h49.09.857.wav;430.87917029997334;431.37925199978054;None;430.87917029997334;430.87917029997334;430.87917029997334;430.87917029997334;430.87917029997334;430.87917029997334;;;;;;400204;001;2023-12-13_17h42.06.165;REPSWITCH1_version2_list4;2022.2.4;144.04053926586067;
REPSWITCH1/PICTURE_498.png;taza;type;gold;nontarget;1;NT;4;4;4;2;Stim4_Set4;1;switch;89;88;89;0;88;88;88;;;;;;;;;;;;;;;;;;;;;;;431.37925199978054;432.47667780006304;432.47667780006304;432.47667780006304;432.47667780006304;432.47667780006304;432.47667780006304;432.47667780006304;432.47667780006304;['t', 'a', 'z', 'a'];0;[0.6089314999990165, 0.7395561002194881, 0.9709232002496719, 1.1511214999482036];taza;C:\2023\REPSWITCH21092023\REPSWITCH_excgange\REPSWITCH_excgange\data/400204_REPSWITCH1_version2_list4_2023-12-13_17h42.06.165_micRespv2l4_recorded\recording_micRespv2l4_2023-12-13_17h49.14.475.wav;435.4978423998691;435.99790749978274;None;435.4978423998691;435.4978423998691;435.4978423998691;435.4978423998691;435.4978423998691;435.4978423998691;;;;;;400204;001;2023-12-13_17h42.06.165;REPSWITCH1_version2_list4;2022.2.4;144.04053926586067;
REPSWITCH1/PICTURE_498.png;taza;speak;darkblue;switch;2;T;4;4;4;2;Stim4_Set4;0;None;90;89;90;0;89;89;89;;;;;;;;;;;;;;;;;;;;;;;435.99790749978274;437.05360969994217;437.05360969994217;437.05360969994217;437.05360969994217;437.05360969994217;437.05360969994217;437.05360969994217;437.05360969994217;None;0;;;C:\2023\REPSWITCH21092023\REPSWITCH_excgange\REPSWITCH_excgange\data/400204_REPSWITCH1_version2_list4_2023-12-13_17h42.06.165_micRespv2l4_recorded\recording_micRespv2l4_2023-12-13_17h49.19.054.wav;440.0818476998247;;None;440.0818476998247;440.0818476998247;440.0818476998247;440.0818476998247;440.0818476998247;440.0818476998247;;;;;;400204;001;2023-12-13_17h42.06.165;REPSWITCH1_version2_list4;2022.2.4;144.04053926586067;
REPSWITCH1/PICTURE_391.png;cadena;type;gold;filler;1;F;4;4;4;2;Extra2;0;None;91;90;91;0;90;90;90;;;;;;;;;;;;;;;;;;;;;;;440.581840199884;441.6375504997559;441.6375504997559;441.6375504997559;441.6375504997559;441.6375504997559;441.6375504997559;441.6375504997559;441.6375504997559;['c', 'a', 'd', 'e', 'n', 'a'];0;[0.6242420002818108, 0.7186306999064982, 0.8262370000593364, 0.994712000247091, 1.083415400236845, 1.1631515002809465];cadena;C:\2023\REPSWITCH21092023\REPSWITCH_excgange\REPSWITCH_excgange\data/400204_REPSWITCH1_version2_list4_2023-12-13_17h42.06.165_micRespv2l4_recorded\recording_micRespv2l4_2023-12-13_17h49.23.636.wav;444.65876249969006;445.15886460011825;None;444.65876249969006;444.65876249969006;444.65876249969006;444.65876249969006;444.65876249969006;444.65876249969006;;;;;;400204;001;2023-12-13_17h42.06.165;REPSWITCH1_version2_list4;2022.2.4;144.04053926586067;
REPSWITCH1/PICTURE_610.png;miel;speak;darkblue;filler;2;F;4;4;4;2;Stim2_Set3;0;None;92;91;92;0;91;91;91;;;;;;;;;;;;;;;;;;;;;;;445.15886460011825;446.22850869968534;446.22850869968534;446.22850869968534;446.22850869968534;446.22850869968534;446.22850869968534;446.22850869968534;446.22850869968534;None;0;;;C:\2023\REPSWITCH21092023\REPSWITCH_excgange\REPSWITCH_excgange\data/400204_REPSWITCH1_version2_list4_2023-12-13_17h42.06.165_micRespv2l4_recorded\recording_micRespv2l4_2023-12-13_17h49.28.227.wav;449.2496381998062;449.74980629980564;None;449.2496381998062;449.2496381998062;449.2496381998062;449.2496381998062;449.2496381998062;449.2496381998062;;;;;;400204;001;2023-12-13_17h42.06.165;REPSWITCH1_version2_list4;2022.2.4;144.04053926586067;
REPSWITCH1/PICTURE_48.png;bombero;speak;darkblue;nontarget;2;NT;4;4;4;2;Stim7_Set4;1;repeat;93;92;93;0;92;92;92;;;;;;;;;;;;;;;;;;;;;;;449.74980629980564;450.8401719001122;450.8401719001122;450.8401719001122;450.8401719001122;450.8401719001122;450.8401719001122;450.8401719001122;450.8401719001122;None;0;;;C:\2023\REPSWITCH21092023\REPSWITCH_excgange\REPSWITCH_excgange\data/400204_REPSWITCH1_version2_list4_2023-12-13_17h42.06.165_micRespv2l4_recorded\recording_micRespv2l4_2023-12-13_17h49.32.840.wav;453.8683307999745;;None;453.8683307999745;453.8683307999745;453.8683307999745;453.8683307999745;453.8683307999745;453.8683307999745;;;;;;400204;001;2023-12-13_17h42.06.165;REPSWITCH1_version2_list4;2022.2.4;144.04053926586067;
REPSWITCH1/PICTURE_48.png;bombero;speak;darkblue;repeat;2;T;4;4;4;2;Stim7_Set4;0;None;94;93;94;0;93;93;93;;;;;;;;;;;;;;;;;;;;;;;454.3683865000494;455.43801129981875;455.43801129981875;455.43801129981875;455.43801129981875;455.43801129981875;455.43801129981875;455.43801129981875;455.43801129981875;None;0;;;C:\2023\REPSWITCH21092023\REPSWITCH_excgange\REPSWITCH_excgange\data/400204_REPSWITCH1_version2_list4_2023-12-13_17h42.06.165_micRespv2l4_recorded\recording_micRespv2l4_2023-12-13_17h49.37.436.wav;458.4592924998142;458.9592834999785;None;458.4592924998142;458.4592924998142;458.4592924998142;458.4592924998142;458.4592924998142;458.4592924998142;;;;;;400204;001;2023-12-13_17h42.06.165;REPSWITCH1_version2_list4;2022.2.4;144.04053926586067;
REPSWITCH1/PICTURE_320.png;iglesia;type;gold;filler;1;F;4;4;4;2;Stim8_Set3;1;switch;95;94;95;0;94;94;94;;;;;;;;;;;;;;;;;;;;;;;458.9592834999785;460.028918299824;460.028918299824;460.028918299824;460.028918299824;460.028918299824;460.028918299824;460.028918299824;460.028918299824;['i', 'g', 'l', 'e', 's', 'i', 'a'];0;[0.5832576998509467, 0.7546732998453081, 0.8612807998433709, 0.9649450997821987, 1.3709249999374151, 1.5293923001736403, 1.641083599999547];iglesia;C:\2023\REPSWITCH21092023\REPSWITCH_excgange\REPSWITCH_excgange\data/400204_REPSWITCH1_version2_list4_2023-12-13_17h42.06.165_micRespv2l4_recorded\recording_micRespv2l4_2023-12-13_17h49.42.028.wav;463.05010219989344;463.55015840008855;None;463.05010219989344;463.05010219989344;463.05010219989344;463.05010219989344;463.05010219989344;463.05010219989344;;;;;;400204;001;2023-12-13_17h42.06.165;REPSWITCH1_version2_list4;2022.2.4;144.04053926586067;
REPSWITCH1/PICTURE_35.png;oreja;speak;darkblue;filler;2;F;4;4;4;2;Stim5_Set3;0;None;96;95;96;0;95;95;95;;;;;;;;;;;;;;;;;;;;;;;463.55015840008855;464.6059022997506;464.6059022997506;464.6059022997506;464.6059022997506;464.6059022997506;464.6059022997506;464.6059022997506;464.6059022997506;None;0;;;C:\2023\REPSWITCH21092023\REPSWITCH_excgange\REPSWITCH_excgange\data/400204_REPSWITCH1_version2_list4_2023-12-13_17h42.06.165_micRespv2l4_recorded\recording_micRespv2l4_2023-12-13_17h49.46.605.wav;467.6270472998731;468.12714619981125;None;467.6270472998731;467.6270472998731;467.6270472998731;467.6270472998731;467.6270472998731;467.6270472998731;;;;;;400204;001;2023-12-13_17h42.06.165;REPSWITCH1_version2_list4;2022.2.4;144.04053926586067;
REPSWITCH1/PICTURE_728.png;pulpo;speak;darkblue;nontarget;2;NT;4;4;4;2;Stim8_Set4;1;repeat;97;96;97;0;96;96;96;;;;;;;;;;;;;;;;;;;;;;;468.12714619981125;469.1550829000771;469.1550829000771;469.1550829000771;469.1550829000771;469.1550829000771;469.1550829000771;469.1550829000771;469.1550829000771;None;0;;;C:\2023\REPSWITCH21092023\REPSWITCH_excgange\REPSWITCH_excgange\data/400204_REPSWITCH1_version2_list4_2023-12-13_17h42.06.165_micRespv2l4_recorded\recording_micRespv2l4_2023-12-13_17h49.51.154.wav;472.1762970001437;472.67635730002075;None;472.1762970001437;472.1762970001437;472.1762970001437;472.1762970001437;472.1762970001437;472.1762970001437;;;;;;400204;001;2023-12-13_17h42.06.165;REPSWITCH1_version2_list4;2022.2.4;144.04053926586067;
REPSWITCH1/PICTURE_728.png;pulpo;type;gold;switch;1;T;4;4;4;2;Stim8_Set4;0;None;98;97;98;0;97;97;97;;;;;;;;;;;;;;;;;;;;;;;472.67635730002075;473.78767579980195;473.78767579980195;473.78767579980195;473.78767579980195;473.78767579980195;473.78767579980195;473.78767579980195;473.78767579980195;['p', 'u', 'l', 'p', 'o'];0;[0.736253899987787, 0.8289947998709977, 1.0721771996468306, 1.3177801999263465, 1.4403760000132024];pulpo;C:\2023\REPSWITCH21092023\REPSWITCH_excgange\REPSWITCH_excgange\data/400204_REPSWITCH1_version2_list4_2023-12-13_17h42.06.165_micRespv2l4_recorded\recording_micRespv2l4_2023-12-13_17h49.55.787.wav;476.81582579994574;;None;476.81582579994574;476.81582579994574;476.81582579994574;476.81582579994574;476.81582579994574;476.81582579994574;;;;;;400204;001;2023-12-13_17h42.06.165;REPSWITCH1_version2_list4;2022.2.4;144.04053926586067;
REPSWITCH1/PICTURE_590.png;escoba;speak;darkblue;filler;2;F;4;4;4;2;Extra3;0;None;99;98;99;0;98;98;98;;;;;;;;;;;;;;;;;;;;;;;477.31590359983966;478.3785542999394;478.3785542999394;478.3785542999394;478.3785542999394;478.3785542999394;478.3785542999394;478.3785542999394;478.3785542999394;None;0;;;C:\2023\REPSWITCH21092023\REPSWITCH_excgange\REPSWITCH_excgange\data/400204_REPSWITCH1_version2_list4_2023-12-13_17h42.06.165_micRespv2l4_recorded\recording_micRespv2l4_2023-12-13_17h50.00.379.wav;481.4066770998761;;None;481.4066770998761;481.4066770998761;481.4066770998761;481.4066770998761;481.4066770998761;481.4066770998761;;;;;;400204;001;2023-12-13_17h42.06.165;REPSWITCH1_version2_list4;2022.2.4;144.04053926586067;
REPSWITCH1/PICTURE_235.png;aguja;type;gold;filler;1;F;4;4;4;2;Stim4_Set3;0;None;100;99;100;0;99;99;99;;;;;;;;;;;;;;;;;;;;;;;481.90673090005293;483.0110353999771;483.0110353999771;483.0110353999771;483.0110353999771;483.0110353999771;483.0110353999771;483.0110353999771;483.0110353999771;['a', 'g', 'u', 'j', 'a'];0;[0.6294030998833477, 0.7951817000284791, 0.8888348997570574, 1.0729725998826325, 1.101813499815762];aguja;C:\2023\REPSWITCH21092023\REPSWITCH_excgange\REPSWITCH_excgange\data/400204_REPSWITCH1_version2_list4_2023-12-13_17h42.06.165_micRespv2l4_recorded\recording_micRespv2l4_2023-12-13_17h50.05.010.wav;486.03227959992364;486.53235200000927;None;486.03227959992364;486.03227959992364;486.03227959992364;486.03227959992364;486.03227959992364;486.03227959992364;;;;;;400204;001;2023-12-13_17h42.06.165;REPSWITCH1_version2_list4;2022.2.4;144.04053926586067;
REPSWITCH1/PICTURE_719.png;baño;type;gold;nontarget;1;NT;4;4;4;2;Stim2_Set4;1;repeat;101;100;101;0;100;100;100;;;;;;;;;;;;;;;;;;;;;;;486.53235200000927;487.56721210014075;487.56721210014075;487.56721210014075;487.56721210014075;487.56721210014075;487.56721210014075;487.56721210014075;487.56721210014075;['b', 'a', 'ñ', 'o'];0;[0.7159148999489844, 0.7989878999069333, 0.962107399944216, 1.055767399724573];baño;C:\2023\REPSWITCH21092023\REPSWITCH_excgange\REPSWITCH_excgange\data/400204_REPSWITCH1_version2_list4_2023-12-13_17h42.06.165_micRespv2l4_recorded\recording_micRespv2l4_2023-12-13_17h50.09.567.wav;490.5884078000672;491.08856760011986;None;490.5884078000672;490.5884078000672;490.5884078000672;490.5884078000672;490.5884078000672;490.5884078000672;;;;;;400204;001;2023-12-13_17h42.06.165;REPSWITCH1_version2_list4;2022.2.4;144.04053926586067;
REPSWITCH1/PICTURE_719.png;baño;type;gold;repeat;1;T;4;4;4;2;Stim2_Set4;0;None;102;101;102;0;101;101;101;;;;;;;;;;;;;;;;;;;;;;;491.08856760011986;492.2067447998561;492.2067447998561;492.2067447998561;492.2067447998561;492.2067447998561;492.2067447998561;492.2067447998561;492.2067447998561;['b', 'a', 'ñ', 'o'];0;[0.5708924997597933, 0.6585955996997654, 0.7841518996283412, 0.8947846996597946];baño;C:\2023\REPSWITCH21092023\REPSWITCH_excgange\REPSWITCH_excgange\data/400204_REPSWITCH1_version2_list4_2023-12-13_17h42.06.165_micRespv2l4_recorded\recording_micRespv2l4_2023-12-13_17h50.14.206.wav;495.234849399887;;space;495.234849399887;495.234849399887;495.234849399887;495.234849399887;495.234849399887;495.234849399887;495.73490329971537;495.73490329971537;8.35571310017258;;;400204;001;2023-12-13_17h42.06.165;REPSWITCH1_version2_list4;2022.2.4;144.04053926586067;
REPSWITCH1/PICTURE_646.png;tronco;speak;darkblue;filler;2;F;1;3;4;2;Extra4;0;None;103;102;1;0;102;102;102;;;;;;;;;;;;;;;;;;;;;;;504.104093299713;505.23616890003905;505.23616890003905;505.23616890003905;505.23616890003905;505.23616890003905;505.23616890003905;505.23616890003905;505.23616890003905;None;0;;;C:\2023\REPSWITCH21092023\REPSWITCH_excgange\REPSWITCH_excgange\data/400204_REPSWITCH1_version2_list4_2023-12-13_17h42.06.165_micRespv2l4_recorded\recording_micRespv2l4_2023-12-13_17h50.27.235.wav;508.26437779981643;;None;508.26437779981643;508.26437779981643;508.26437779981643;508.26437779981643;508.26437779981643;508.26437779981643;;;;;;400204;001;2023-12-13_17h42.06.165;REPSWITCH1_version2_list4;2022.2.4;144.04053926586067;
REPSWITCH1/PICTURE_340.png;espejo;type;gold;filler;1;F;1;3;4;2;Extra1;0;None;104;103;2;0;103;103;103;;;;;;;;;;;;;;;;;;;;;;;508.7644318998791;509.8756797998212;509.8756797998212;509.8756797998212;509.8756797998212;509.8756797998212;509.8756797998212;509.8756797998212;509.8756797998212;['e', 's', 'p', 'e', 'j', 'o'];0;[0.6353739998303354, 0.7400785996578634, 0.8675894998013973, 0.9934558998793364, 1.0920107997953892, 1.3843721998855472];espejo;C:\2023\REPSWITCH21092023\REPSWITCH_excgange\REPSWITCH_excgange\data/400204_REPSWITCH1_version2_list4_2023-12-13_17h42.06.165_micRespv2l4_recorded\recording_micRespv2l4_2023-12-13_17h50.31.874.wav;512.8969815997407;513.3969582999125;None;512.8969815997407;512.8969815997407;512.8969815997407;512.8969815997407;512.8969815997407;512.8969815997407;;;;;;400204;001;2023-12-13_17h42.06.165;REPSWITCH1_version2_list4;2022.2.4;144.04053926586067;
REPSWITCH1/PICTURE_338.png;regalo;speak;darkblue;filler;2;F;1;3;4;2;Stim6_Set4;0;None;105;104;3;0;104;104;104;;;;;;;;;;;;;;;;;;;;;;;513.3969582999125;514.404069900047;514.404069900047;514.404069900047;514.404069900047;514.404069900047;514.404069900047;514.404069900047;514.404069900047;None;0;;;C:\2023\REPSWITCH21092023\REPSWITCH_excgange\REPSWITCH_excgange\data/400204_REPSWITCH1_version2_list4_2023-12-13_17h42.06.165_micRespv2l4_recorded\recording_micRespv2l4_2023-12-13_17h50.36.404.wav;517.4322390998714;;None;517.4322390998714;517.4322390998714;517.4322390998714;517.4322390998714;517.4322390998714;517.4322390998714;;;;;;400204;001;2023-12-13_17h42.06.165;REPSWITCH1_version2_list4;2022.2.4;144.04053926586067;
REPSWITCH1/PICTURE_142.png;vaso;speak;darkblue;nontarget;2;NT;1;3;4;2;Stim7_Set1;1;repeat;106;105;4;0;105;105;105;;;;;;;;;;;;;;;;;;;;;;;517.9323082999326;519.0783301000483;519.0783301000483;519.0783301000483;519.0783301000483;519.0783301000483;519.0783301000483;519.0783301000483;519.0783301000483;None;0;;;C:\2023\REPSWITCH21092023\REPSWITCH_excgange\REPSWITCH_excgange\data/400204_REPSWITCH1_version2_list4_2023-12-13_17h42.06.165_micRespv2l4_recorded\recording_micRespv2l4_2023-12-13_17h50.41.076.wav;522.0995836998336;522.5996606000699;None;522.0995836998336;522.0995836998336;522.0995836998336;522.0995836998336;522.0995836998336;522.0995836998336;;;;;;400204;001;2023-12-13_17h42.06.165;REPSWITCH1_version2_list4;2022.2.4;144.04053926586067;
REPSWITCH1/PICTURE_142.png;vaso;speak;darkblue;repeat;2;T;1;3;4;2;Stim7_Set1;0;None;107;106;5;0;106;106;106;;;;;;;;;;;;;;;;;;;;;;;522.5996606000699;523.7316868999042;523.7316868999042;523.7316868999042;523.7316868999042;523.7316868999042;523.7316868999042;523.7316868999042;523.7316868999042;None;0;;;C:\2023\REPSWITCH21092023\REPSWITCH_excgange\REPSWITCH_excgange\data/400204_REPSWITCH1_version2_list4_2023-12-13_17h42.06.165_micRespv2l4_recorded\recording_micRespv2l4_2023-12-13_17h50.45.731.wav;526.7598214996979;;None;526.7598214996979;526.7598214996979;526.7598214996979;526.7598214996979;526.7598214996979;526.7598214996979;;;;;;400204;001;2023-12-13_17h42.06.165;REPSWITCH1_version2_list4;2022.2.4;144.04053926586067;
REPSWITCH1/PICTURE_498.png;taza;type;gold;filler;1;F;1;3;4;2;Stim4_Set4;0;None;108;107;6;0;107;107;107;;;;;;;;;;;;;;;;;;;;;;;527.2598843998276;528.4267347999848;528.4267347999848;528.4267347999848;528.4267347999848;528.4267347999848;528.4267347999848;528.4267347999848;528.4267347999848;['t', 'a', 'z', 'a'];0;[0.5739278998225927, 0.6675785998813808, 0.8848381000570953, 1.0860935999080539];taza;C:\2023\REPSWITCH21092023\REPSWITCH_excgange\REPSWITCH_excgange\data/400204_REPSWITCH1_version2_list4_2023-12-13_17h42.06.165_micRespv2l4_recorded\recording_micRespv2l4_2023-12-13_17h50.50.425.wav;531.4479404999875;531.9481019997038;None;531.4479404999875;531.4479404999875;531.4479404999875;531.4479404999875;531.4479404999875;531.4479404999875;;;;;;400204;001;2023-12-13_17h42.06.165;REPSWITCH1_version2_list4;2022.2.4;144.04053926586067;
REPSWITCH1/PICTURE_16.png;cazador;speak;darkblue;nontarget;2;NT;1;3;4;2;Stim6_Set1;1;switch;109;108;7;0;108;108;108;;;;;;;;;;;;;;;;;;;;;;;531.9481019997038;533.0245731999166;533.0245731999166;533.0245731999166;533.0245731999166;533.0245731999166;533.0245731999166;533.0245731999166;533.0245731999166;None;0;;;C:\2023\REPSWITCH21092023\REPSWITCH_excgange\REPSWITCH_excgange\data/400204_REPSWITCH1_version2_list4_2023-12-13_17h42.06.165_micRespv2l4_recorded\recording_micRespv2l4_2023-12-13_17h50.55.024.wav;536.0527770998888;;None;536.0527770998888;536.0527770998888;536.0527770998888;536.0527770998888;536.0527770998888;536.0527770998888;;;;;;400204;001;2023-12-13_17h42.06.165;REPSWITCH1_version2_list4;2022.2.4;144.04053926586067;
REPSWITCH1/PICTURE_16.png;cazador;speak;darkblue;repeat;2;T;1;3;4;2;Stim6_Set1;0;None;110;109;8;0;109;109;109;;;;;;;;;;;;;;;;;;;;;;;536.5528413997963;537.6779966996983;537.6779966996983;537.6779966996983;537.6779966996983;537.6779966996983;537.6779966996983;537.6779966996983;537.6779966996983;None;0;;;C:\2023\REPSWITCH21092023\REPSWITCH_excgange\REPSWITCH_excgange\data/400204_REPSWITCH1_version2_list4_2023-12-13_17h42.06.165_micRespv2l4_recorded\recording_micRespv2l4_2023-12-13_17h50.59.677.wav;540.699182999786;541.1992414998822;None;540.699182999786;540.699182999786;540.699182999786;540.699182999786;540.699182999786;540.699182999786;;;;;;400204;001;2023-12-13_17h42.06.165;REPSWITCH1_version2_list4;2022.2.4;144.04053926586067;
REPSWITCH1/PICTURE_719.png;baño;type;gold;filler;1;F;1;3;4;2;Stim2_Set4;0;None;111;110;9;0;110;110;110;;;;;;;;;;;;;;;;;;;;;;;541.1992414998822;542.303611499723;542.303611499723;542.303611499723;542.303611499723;542.303611499723;542.303611499723;542.303611499723;542.303611499723;['b', 'a', 'ñ', 'o'];0;[0.7512874999083579, 0.9327261000871658, 1.0512772998772562, 1.1532300999388099];baño;C:\2023\REPSWITCH21092023\REPSWITCH_excgange\REPSWITCH_excgange\data/400204_REPSWITCH1_version2_list4_2023-12-13_17h42.06.165_micRespv2l4_recorded\recording_micRespv2l4_2023-12-13_17h51.04.302.wav;545.3247616998851;545.824809699785;None;545.3247616998851;545.3247616998851;545.3247616998851;545.3247616998851;545.3247616998851;545.3247616998851;;;;;;400204;001;2023-12-13_17h42.06.165;REPSWITCH1_version2_list4;2022.2.4;144.04053926586067;
REPSWITCH1/PICTURE_169.png;espalda;speak;darkblue;nontarget;2;NT;1;3;4;2;Stim8_Set1;0;None;112;111;10;0;111;111;111;;;;;;;;;;;;;;;;;;;;;;;545.824809699785;546.8666285998188;546.8666285998188;546.8666285998188;546.8666285998188;546.8666285998188;546.8666285998188;546.8666285998188;546.8666285998188;None;0;;;C:\2023\REPSWITCH21092023\REPSWITCH_excgange\REPSWITCH_excgange\data/400204_REPSWITCH1_version2_list4_2023-12-13_17h42.06.165_micRespv2l4_recorded\recording_micRespv2l4_2023-12-13_17h51.08.866.wav;549.8878453997895;550.3879224997945;None;549.8878453997895;549.8878453997895;549.8878453997895;549.8878453997895;549.8878453997895;549.8878453997895;;;;;;400204;001;2023-12-13_17h42.06.165;REPSWITCH1_version2_list4;2022.2.4;144.04053926586067;
REPSWITCH1/PICTURE_169.png;espalda;type;gold;switch;1;T;1;3;4;2;Stim8_Set1;0;None;113;112;11;0;112;112;112;;;;;;;;;;;;;;;;;;;;;;;550.3879224997945;551.5200479999185;551.5200479999185;551.5200479999185;551.5200479999185;551.5200479999185;551.5200479999185;551.5200479999185;551.5200479999185;['e', 's', 'p', 'a', 'l', 'd', 'a'];0;[0.6422395999543369, 0.735846699681133, 0.8620527000166476, 1.018530699890107, 1.109228499699384, 1.2816494000144303, 1.4193878998048604];espalda;C:\2023\REPSWITCH21092023\REPSWITCH_excgange\REPSWITCH_excgange\data/400204_REPSWITCH1_version2_list4_2023-12-13_17h42.06.165_micRespv2l4_recorded\recording_micRespv2l4_2023-12-13_17h51.13.519.wav;554.5412604999729;555.0414108000696;None;554.5412604999729;554.5412604999729;554.5412604999729;554.5412604999729;554.5412604999729;554.5412604999729;;;;;;400204;001;2023-12-13_17h42.06.165;REPSWITCH1_version2_list4;2022.2.4;144.04053926586067;
REPSWITCH1/PICTURE_687.png;camisa;type;gold;filler;1;F;1;3;4;2;Stim5_Set4;0;None;114;113;12;0;113;113;113;;;;;;;;;;;;;;;;;;;;;;;555.0414108000696;556.1734898998402;556.1734898998402;556.1734898998402;556.1734898998402;556.1734898998402;556.1734898998402;556.1734898998402;556.1734898998402;['c', 'a', 'm', 'i', 's', 'a'];0;[0.9086501998826861, 1.0162493996322155, 1.12092569982633, 1.248505599796772, 1.3974088998511434, 1.51995259989053];camisa;C:\2023\REPSWITCH21092023\REPSWITCH_excgange\REPSWITCH_excgange\data/400204_REPSWITCH1_version2_list4_2023-12-13_17h42.06.165_micRespv2l4_recorded\recording_micRespv2l4_2023-12-13_17h51.18.172.wav;559.1946228998713;559.694694600068;None;559.1946228998713;559.1946228998713;559.1946228998713;559.1946228998713;559.1946228998713;559.1946228998713;;;;;;400204;001;2023-12-13_17h42.06.165;REPSWITCH1_version2_list4;2022.2.4;144.04053926586067;
REPSWITCH1/PICTURE_178.png;puente;type;gold;nontarget;1;NT;1;3;4;2;Stim1_Set1;1;repeat;115;114;13;0;114;114;114;;;;;;;;;;;;;;;;;;;;;;;559.694694600068;560.708737900015;560.708737900015;560.708737900015;560.708737900015;560.708737900015;560.708737900015;560.708737900015;560.708737900015;['p', 'u', 'e', 'n', 't', 'e'];0;[0.6400306997820735, 0.7526815999299288, 0.929056900087744, 1.068632499780506, 1.1786332000046968, 1.2822825000621378];puente;C:\2023\REPSWITCH21092023\REPSWITCH_excgange\REPSWITCH_excgange\data/400204_REPSWITCH1_version2_list4_2023-12-13_17h42.06.165_micRespv2l4_recorded\recording_micRespv2l4_2023-12-13_17h51.22.708.wav;563.736901700031;564.2369715999812;None;563.736901700031;563.736901700031;563.736901700031;563.736901700031;563.736901700031;563.736901700031;;;;;;400204;001;2023-12-13_17h42.06.165;REPSWITCH1_version2_list4;2022.2.4;144.04053926586067;
REPSWITCH1/PICTURE_178.png;puente;speak;darkblue;switch;2;T;1;3;4;2;Stim1_Set1;0;None;116;115;14;0;115;115;115;;;;;;;;;;;;;;;;;;;;;;;564.2369715999812;565.2996871997602;565.2996871997602;565.2996871997602;565.2996871997602;565.2996871997602;565.2996871997602;565.2996871997602;565.2996871997602;None;0;;;C:\2023\REPSWITCH21092023\REPSWITCH_excgange\REPSWITCH_excgange\data/400204_REPSWITCH1_version2_list4_2023-12-13_17h42.06.165_micRespv2l4_recorded\recording_micRespv2l4_2023-12-13_17h51.27.298.wav;568.3278462998569;;None;568.3278462998569;568.3278462998569;568.3278462998569;568.3278462998569;568.3278462998569;568.3278462998569;;;;;;400204;001;2023-12-13_17h42.06.165;REPSWITCH1_version2_list4;2022.2.4;144.04053926586067;
REPSWITCH1/PICTURE_128.png;muñeca;speak;darkblue;nontarget;2;NT;1;3;4;2;Stim4_Set1;1;repeat;117;116;15;0;116;116;116;;;;;;;;;;;;;;;;;;;;;;;568.8278421000578;569.9252304998226;569.9252304998226;569.9252304998226;569.9252304998226;569.9252304998226;569.9252304998226;569.9252304998226;569.9252304998226;None;0;;;C:\2023\REPSWITCH21092023\REPSWITCH_excgange\REPSWITCH_excgange\data/400204_REPSWITCH1_version2_list4_2023-12-13_17h42.06.165_micRespv2l4_recorded\recording_micRespv2l4_2023-12-13_17h51.31.924.wav;572.9464540998451;573.446603700053;None;572.9464540998451;572.9464540998451;572.9464540998451;572.9464540998451;572.9464540998451;572.9464540998451;;;;;;400204;001;2023-12-13_17h42.06.165;REPSWITCH1_version2_list4;2022.2.4;144.04053926586067;
REPSWITCH1/PICTURE_128.png;muñeca;type;gold;switch;1;T;1;3;4;2;Stim4_Set1;0;None;118;117;16;0;117;117;117;;;;;;;;;;;;;;;;;;;;;;;573.446603700053;574.5716671999544;574.5716671999544;574.5716671999544;574.5716671999544;574.5716671999544;574.5716671999544;574.5716671999544;574.5716671999544;['m', 'u', 'ñ', 'e', 'c', 'a'];0;[0.6450227000750601, 0.848923800047487, 1.1119254999794066, 1.2292406000196934, 1.39866829989478, 1.513474399689585];muñeca;C:\2023\REPSWITCH21092023\REPSWITCH_excgange\REPSWITCH_excgange\data/400204_REPSWITCH1_version2_list4_2023-12-13_17h42.06.165_micRespv2l4_recorded\recording_micRespv2l4_2023-12-13_17h51.36.571.wav;577.5998293999583;;None;577.5998293999583;577.5998293999583;577.5998293999583;577.5998293999583;577.5998293999583;577.5998293999583;;;;;;400204;001;2023-12-13_17h42.06.165;REPSWITCH1_version2_list4;2022.2.4;144.04053926586067;
REPSWITCH1/PICTURE_319.png;vaca;speak;darkblue;filler;2;F;1;3;4;2;Stim1_Set4;1;switch;119;118;17;0;118;118;118;;;;;;;;;;;;;;;;;;;;;;;578.0998917999677;579.2390101999044;579.2390101999044;579.2390101999044;579.2390101999044;579.2390101999044;579.2390101999044;579.2390101999044;579.2390101999044;None;0;;;C:\2023\REPSWITCH21092023\REPSWITCH_excgange\REPSWITCH_excgange\data/400204_REPSWITCH1_version2_list4_2023-12-13_17h42.06.165_micRespv2l4_recorded\recording_micRespv2l4_2023-12-13_17h51.41.238.wav;582.260189499706;582.7602393999696;None;582.260189499706;582.260189499706;582.260189499706;582.260189499706;582.260189499706;582.260189499706;;;;;;400204;001;2023-12-13_17h42.06.165;REPSWITCH1_version2_list4;2022.2.4;144.04053926586067;
REPSWITCH1/PICTURE_728.png;pulpo;speak;darkblue;filler;2;F;1;3;4;2;Stim8_Set4;0;None;120;119;18;0;119;119;119;;;;;;;;;;;;;;;;;;;;;;;582.7602393999696;583.8159574000165;583.8159574000165;583.8159574000165;583.8159574000165;583.8159574000165;583.8159574000165;583.8159574000165;583.8159574000165;None;0;;;C:\2023\REPSWITCH21092023\REPSWITCH_excgange\REPSWITCH_excgange\data/400204_REPSWITCH1_version2_list4_2023-12-13_17h42.06.165_micRespv2l4_recorded\recording_micRespv2l4_2023-12-13_17h51.45.815.wav;586.8371402998455;587.337239000015;None;586.8371402998455;586.8371402998455;586.8371402998455;586.8371402998455;586.8371402998455;586.8371402998455;;;;;;400204;001;2023-12-13_17h42.06.165;REPSWITCH1_version2_list4;2022.2.4;144.04053926586067;
