image;correctAns;respModal;frameColor;repSwitch;sequence;target;set;block;list;exp_version;stimulus;baseline;baseline_condition;trial_no;psychopy_trial;Column1;trialsREPSWITCH.thisRepN;trialsREPSWITCH.thisTrialN;trialsREPSWITCH.thisN;trialsREPSWITCH.thisIndex;textWelcome.started;textboxInstrMain1.started;textboxInstrMain1_2.started;textboxInstrMain1_3.started;keyInstrMain.started;keyInstrMain.keys;keyInstrMain.rt;textboxInstrMain2.started;textboxInstrMain2_2.started;textboxInstrMain2_3.started;textboxInstrMain2_4.started;textboxInstrMain2_5.started;textboxInstrMain2_6.started;textboxInstrMain2_7.started;textboxInstrMain2_8.started;textboxInstrMain2_9.started;textboxInstrMain2_10.started;textboxInstrMain2_11.started;textboxInstrMain2_12.started;keyInstrMain2.started;keyInstrMain2.keys;keyInstrMain2.rt;fixationITI.started;fixationITI.stopped;polygonColour.started;polygonWhite.started;imageObject.started;polygonType.started;textInput.started;keyResp.started;micRespv1l2.started;keyResp.keys;keyResp.corr;subjResponse;micRespv1l2.clip;textBlankLoop.started;textBlankLoop.stopped;keyPause.keys;polygonColour.stopped;polygonWhite.stopped;imageObject.stopped;polygonType.stopped;textInput.stopped;keyResp.stopped;keyResp.rt;textboxPause.started;keyPause.started;keyPause.rt;textboxGoodbye.started;textboxGoodbye.stopped;participant;session;date;expName;psychopyVersion;frameRate;Column2
;;;;;;;;;;;;;;;;;;;;;31.6277446;34.1225702;34.1225702;34.1225702;34.1225702;space;9.7120106;;;;;;;;;;;;;;;;;;;;;;;;;;;;;;;;;;;;;;;;;;;;03.01.02;1;2023-11-10_16h53.17.642;REPSWITCH1_version1_list2;2022.2.4;143.9113966;
;;;;;;;;;;;;;;;;;;;;;;;;;;;;43.853008;43.853008;43.853008;43.853008;43.853008;43.853008;43.853008;43.853008;43.853008;43.853008;43.853008;43.853008;43.853008;space;4.492527;;;;;;;;;;;;;;;;;;;;;;;;;;;;;03.01.02;1;2023-11-10_16h53.17.642;REPSWITCH1_version1_list2;2022.2.4;143.9113966;
REPSWITCH1/PICTURE_646.png;tronco;speak;gold;filler;2;F;1;3;2;1;Extra4;0;None;1;0;1;0;0;0;0;;;;;;;;;;;;;;;;;;;;;;;48.4369458;49.4648793;49.4648793;49.4648793;49.4648793;49.4648793;49.4648793;49.4648793;49.4648793;None;0;;C:\2023\REPSWITCH21092023\REPSWITCH_excgange\REPSWITCH_excgange\data/03.01.02_REPSWITCH1_version1_list2_2023-11-10_16h53.17.642_micRespv1l2_recorded\recording_micRespv1l2_2023-11-10_16h53.40.355.wav;52.486079;52.9861577;None;;;;;;;;;;;;;03.01.02;1;2023-11-10_16h53.17.642;REPSWITCH1_version1_list2;2022.2.4;143.9113966;
REPSWITCH1/PICTURE_340.png;espejo;type;darkblue;filler;1;F;1;3;2;1;Extra1;0;None;2;1;2;0;1;1;1;;;;;;;;;;;;;;;;;;;;;;;52.9861577;54.1390692;54.1390692;54.1390692;54.1390692;54.1390692;54.1390692;54.1390692;54.1390692;['e', 's', 'p', 'e', 'j', 'o'];0;espejo;C:\2023\REPSWITCH21092023\REPSWITCH_excgange\REPSWITCH_excgange\data/03.01.02_REPSWITCH1_version1_list2_2023-11-10_16h53.17.642_micRespv1l2_recorded\recording_micRespv1l2_2023-11-10_16h53.45.033.wav;57.1602894;57.6603379;None;57.1602894;57.1602894;57.1602894;57.1602894;57.1602894;57.1602894;[1.0623733999673277, 1.2927148999879137, 1.4986919999937527, 1.661145200021565, 2.0602268999791704, 2.1259731000172906];;;;;;03.01.02;1;2023-11-10_16h53.17.642;REPSWITCH1_version1_list2;2022.2.4;143.9113966;
REPSWITCH1/PICTURE_338.png;regalo;speak;gold;filler;2;F;1;3;2;1;Stim6_Set4;0;None;3;2;3;0;2;2;2;;;;;;;;;;;;;;;;;;;;;;;57.6603379;58.7577643;58.7577643;58.7577643;58.7577643;58.7577643;58.7577643;58.7577643;58.7577643;None;0;;C:\2023\REPSWITCH21092023\REPSWITCH_excgange\REPSWITCH_excgange\data/03.01.02_REPSWITCH1_version1_list2_2023-11-10_16h53.17.642_micRespv1l2_recorded\recording_micRespv1l2_2023-11-10_16h53.49.652.wav;61.7789333;62.2790358;None;61.7789333;61.7789333;61.7789333;61.7789333;61.7789333;61.7789333;;;;;;;03.01.02;1;2023-11-10_16h53.17.642;REPSWITCH1_version1_list2;2022.2.4;143.9113966;
REPSWITCH1/PICTURE_142.png;vaso;speak;gold;nontarget;2;NT;1;3;2;1;Stim7_Set1;1;repeat;4;3;4;0;3;3;3;;;;;;;;;;;;;;;;;;;;;;;62.2790358;63.459758;63.459758;63.459758;63.459758;63.459758;63.459758;63.459758;63.459758;None;0;;C:\2023\REPSWITCH21092023\REPSWITCH_excgange\REPSWITCH_excgange\data/03.01.02_REPSWITCH1_version1_list2_2023-11-10_16h53.17.642_micRespv1l2_recorded\recording_micRespv1l2_2023-11-10_16h53.54.354.wav;66.4879806;;None;66.4879806;66.4879806;66.4879806;66.4879806;66.4879806;66.4879806;;;;;;;03.01.02;1;2023-11-10_16h53.17.642;REPSWITCH1_version1_list2;2022.2.4;143.9113966;
REPSWITCH1/PICTURE_142.png;vaso;speak;gold;repeat;2;T;1;3;2;1;Stim7_Set1;0;None;5;4;5;0;4;4;4;;;;;;;;;;;;;;;;;;;;;;;66.988061;68.0228466;68.0228466;68.0228466;68.0228466;68.0228466;68.0228466;68.0228466;68.0228466;None;0;;C:\2023\REPSWITCH21092023\REPSWITCH_excgange\REPSWITCH_excgange\data/03.01.02_REPSWITCH1_version1_list2_2023-11-10_16h53.17.642_micRespv1l2_recorded\recording_micRespv1l2_2023-11-10_16h53.58.917.wav;71.0440776;71.5441205;None;71.0440776;71.0440776;71.0440776;71.0440776;71.0440776;71.0440776;;;;;;;03.01.02;1;2023-11-10_16h53.17.642;REPSWITCH1_version1_list2;2022.2.4;143.9113966;
REPSWITCH1/PICTURE_498.png;taza;type;darkblue;filler;1;F;1;3;2;1;Stim4_Set4;0;None;6;5;6;0;5;5;5;;;;;;;;;;;;;;;;;;;;;;;71.5441205;72.6206546;72.6206546;72.6206546;72.6206546;72.6206546;72.6206546;72.6206546;72.6206546;['t', 'a', 'z', 'a'];0;taza;C:\2023\REPSWITCH21092023\REPSWITCH_excgange\REPSWITCH_excgange\data/03.01.02_REPSWITCH1_version1_list2_2023-11-10_16h53.17.642_micRespv1l2_recorded\recording_micRespv1l2_2023-11-10_16h54.03.515.wav;75.6419682;76.1419696;None;75.6419682;75.6419682;75.6419682;75.6419682;75.6419682;75.6419682;[1.4252105000196025, 1.5189297000179067, 1.8638867000117898, 2.0111533000017516];;;;;;03.01.02;1;2023-11-10_16h53.17.642;REPSWITCH1_version1_list2;2022.2.4;143.9113966;
REPSWITCH1/PICTURE_16.png;cazador;speak;gold;nontarget;2;NT;1;3;2;1;Stim6_Set1;1;switch;7;6;7;0;6;6;6;;;;;;;;;;;;;;;;;;;;;;;76.1419696;77.1768373;77.1768373;77.1768373;77.1768373;77.1768373;77.1768373;77.1768373;77.1768373;None;0;;C:\2023\REPSWITCH21092023\REPSWITCH_excgange\REPSWITCH_excgange\data/03.01.02_REPSWITCH1_version1_list2_2023-11-10_16h53.17.642_micRespv1l2_recorded\recording_micRespv1l2_2023-11-10_16h54.08.071.wav;80.2050458;;None;80.2050458;80.2050458;80.2050458;80.2050458;80.2050458;80.2050458;;;;;;;03.01.02;1;2023-11-10_16h53.17.642;REPSWITCH1_version1_list2;2022.2.4;143.9113966;
REPSWITCH1/PICTURE_16.png;cazador;speak;gold;repeat;2;T;1;3;2;1;Stim6_Set1;0;None;8;7;8;0;7;7;7;;;;;;;;;;;;;;;;;;;;;;;80.7050517;81.7747041;81.7747041;81.7747041;81.7747041;81.7747041;81.7747041;81.7747041;81.7747041;None;0;;C:\2023\REPSWITCH21092023\REPSWITCH_excgange\REPSWITCH_excgange\data/03.01.02_REPSWITCH1_version1_list2_2023-11-10_16h53.17.642_micRespv1l2_recorded\recording_micRespv1l2_2023-11-10_16h54.12.668.wav;84.7958548;85.2960096;None;84.7958548;84.7958548;84.7958548;84.7958548;84.7958548;84.7958548;;;;;;;03.01.02;1;2023-11-10_16h53.17.642;REPSWITCH1_version1_list2;2022.2.4;143.9113966;
REPSWITCH1/PICTURE_719.png;baño;type;darkblue;filler;1;F;1;3;2;1;Stim2_Set4;0;None;9;8;9;0;8;8;8;;;;;;;;;;;;;;;;;;;;;;;85.2960096;86.3516186;86.3516186;86.3516186;86.3516186;86.3516186;86.3516186;86.3516186;86.3516186;['b', 'a', 'ñ', 'o'];0;baño;C:\2023\REPSWITCH21092023\REPSWITCH_excgange\REPSWITCH_excgange\data/03.01.02_REPSWITCH1_version1_list2_2023-11-10_16h53.17.642_micRespv1l2_recorded\recording_micRespv1l2_2023-11-10_16h54.17.246.wav;89.3728493;89.8729248;None;89.3728493;89.3728493;89.3728493;89.3728493;89.3728493;89.3728493;[1.223103699972853, 1.3845017999992706, 1.8572112999972887, 1.9558755999896675];;;;;;03.01.02;1;2023-11-10_16h53.17.642;REPSWITCH1_version1_list2;2022.2.4;143.9113966;
REPSWITCH1/PICTURE_169.png;espalda;speak;gold;nontarget;2;NT;1;3;2;1;Stim8_Set1;0;None;10;9;10;0;9;9;9;;;;;;;;;;;;;;;;;;;;;;;89.8729248;91.0259058;91.0259058;91.0259058;91.0259058;91.0259058;91.0259058;91.0259058;91.0259058;None;0;;C:\2023\REPSWITCH21092023\REPSWITCH_excgange\REPSWITCH_excgange\data/03.01.02_REPSWITCH1_version1_list2_2023-11-10_16h53.17.642_micRespv1l2_recorded\recording_micRespv1l2_2023-11-10_16h54.21.920.wav;94.0471631;94.5471176;None;94.0471631;94.0471631;94.0471631;94.0471631;94.0471631;94.0471631;;;;;;;03.01.02;1;2023-11-10_16h53.17.642;REPSWITCH1_version1_list2;2022.2.4;143.9113966;
REPSWITCH1/PICTURE_169.png;espalda;type;darkblue;switch;1;T;1;3;2;1;Stim8_Set1;0;None;11;10;11;0;10;10;10;;;;;;;;;;;;;;;;;;;;;;;94.5471176;95.7139473;95.7139473;95.7139473;95.7139473;95.7139473;95.7139473;95.7139473;95.7139473;['e', 's', 'p', 'a', 'l', 'd', 'a'];0;espalda;C:\2023\REPSWITCH21092023\REPSWITCH_excgange\REPSWITCH_excgange\data/03.01.02_REPSWITCH1_version1_list2_2023-11-10_16h53.17.642_micRespv1l2_recorded\recording_micRespv1l2_2023-11-10_16h54.26.608.wav;98.7351675;99.2352955;None;98.7351675;98.7351675;98.7351675;98.7351675;98.7351675;98.7351675;[1.0937374999630265, 1.2048707999638282, 1.4284256999962963, 1.5829091999912634, 1.6972643999615684, 1.8358011999516748, 1.9494185999501497];;;;;;03.01.02;1;2023-11-10_16h53.17.642;REPSWITCH1_version1_list2;2022.2.4;143.9113966;
REPSWITCH1/PICTURE_687.png;camisa;type;darkblue;filler;1;F;1;3;2;1;Stim5_Set4;0;None;12;11;12;0;11;11;11;;;;;;;;;;;;;;;;;;;;;;;99.2352955;100.3812155;100.3812155;100.3812155;100.3812155;100.3812155;100.3812155;100.3812155;100.3812155;['c', 'a', 'm', 'i', 's', 'a'];0;camisa;C:\2023\REPSWITCH21092023\REPSWITCH_excgange\REPSWITCH_excgange\data/03.01.02_REPSWITCH1_version1_list2_2023-11-10_16h53.17.642_micRespv1l2_recorded\recording_micRespv1l2_2023-11-10_16h54.31.275.wav;103.4024803;103.9026068;None;103.4024803;103.4024803;103.4024803;103.4024803;103.4024803;103.4024803;[1.2146768000093289, 1.3820761000388302, 1.5048673000419512, 1.615767400013283, 1.725380900024902, 1.8381525000440888];;;;;;03.01.02;1;2023-11-10_16h53.17.642;REPSWITCH1_version1_list2;2022.2.4;143.9113966;
REPSWITCH1/PICTURE_178.png;puente;type;darkblue;nontarget;1;NT;1;3;2;1;Stim1_Set1;1;repeat;13;12;13;0;12;12;12;;;;;;;;;;;;;;;;;;;;;;;103.9026068;105.0416151;105.0416151;105.0416151;105.0416151;105.0416151;105.0416151;105.0416151;105.0416151;['p', 'u', 'e', 'n', 't', 'e'];0;puente;C:\2023\REPSWITCH21092023\REPSWITCH_excgange\REPSWITCH_excgange\data/03.01.02_REPSWITCH1_version1_list2_2023-11-10_16h53.17.642_micRespv1l2_recorded\recording_micRespv1l2_2023-11-10_16h54.35.936.wav;108.0697937;;None;108.0697937;108.0697937;108.0697937;108.0697937;108.0697937;108.0697937;[1.1974367999937385, 1.5442653999780305, 1.6857713999925181, 1.911256899998989, 2.0976122000138275, 2.1654046999756247];;;;;;03.01.02;1;2023-11-10_16h53.17.642;REPSWITCH1_version1_list2;2022.2.4;143.9113966;
REPSWITCH1/PICTURE_178.png;puente;speak;gold;switch;2;T;1;3;2;1;Stim1_Set1;0;None;14;13;14;0;13;13;13;;;;;;;;;;;;;;;;;;;;;;;108.5698119;109.7297007;109.7297007;109.7297007;109.7297007;109.7297007;109.7297007;109.7297007;109.7297007;None;0;;C:\2023\REPSWITCH21092023\REPSWITCH_excgange\REPSWITCH_excgange\data/03.01.02_REPSWITCH1_version1_list2_2023-11-10_16h53.17.642_micRespv1l2_recorded\recording_micRespv1l2_2023-11-10_16h54.40.624.wav;112.7579193;;None;112.7579193;112.7579193;112.7579193;112.7579193;112.7579193;112.7579193;;;;;;;03.01.02;1;2023-11-10_16h53.17.642;REPSWITCH1_version1_list2;2022.2.4;143.9113966;
REPSWITCH1/PICTURE_128.png;muñeca;speak;gold;nontarget;2;NT;1;3;2;1;Stim4_Set1;1;repeat;15;14;15;0;14;14;14;;;;;;;;;;;;;;;;;;;;;;;113.2579097;114.3345116;114.3345116;114.3345116;114.3345116;114.3345116;114.3345116;114.3345116;114.3345116;None;0;;C:\2023\REPSWITCH21092023\REPSWITCH_excgange\REPSWITCH_excgange\data/03.01.02_REPSWITCH1_version1_list2_2023-11-10_16h53.17.642_micRespv1l2_recorded\recording_micRespv1l2_2023-11-10_16h54.45.228.wav;117.3557662;117.8557485;None;117.3557662;117.3557662;117.3557662;117.3557662;117.3557662;117.3557662;;;;;;;03.01.02;1;2023-11-10_16h53.17.642;REPSWITCH1_version1_list2;2022.2.4;143.9113966;
REPSWITCH1/PICTURE_128.png;muñeca;type;darkblue;switch;1;T;1;3;2;1;Stim4_Set1;0;None;16;15;16;0;15;15;15;;;;;;;;;;;;;;;;;;;;;;;117.8557485;118.9322821;118.9322821;118.9322821;118.9322821;118.9322821;118.9322821;118.9322821;118.9322821;['m', 'u', 'ñ', 'e', 'c', 'a'];0;muñeca;C:\2023\REPSWITCH21092023\REPSWITCH_excgange\REPSWITCH_excgange\data/03.01.02_REPSWITCH1_version1_list2_2023-11-10_16h53.17.642_micRespv1l2_recorded\recording_micRespv1l2_2023-11-10_16h54.49.827.wav;121.9535113;122.4536374;None;121.9535113;121.9535113;121.9535113;121.9535113;121.9535113;121.9535113;[0.9748146000201814, 1.2799557999824174, 1.834444899985101, 2.096061899967026, 2.5824347999878228, 2.7071489000227302];;;;;;03.01.02;1;2023-11-10_16h53.17.642;REPSWITCH1_version1_list2;2022.2.4;143.9113966;
REPSWITCH1/PICTURE_319.png;vaca;speak;gold;filler;2;F;1;3;2;1;Stim1_Set4;1;switch;17;16;17;0;16;16;16;;;;;;;;;;;;;;;;;;;;;;;122.4536374;123.4676586;123.4676586;123.4676586;123.4676586;123.4676586;123.4676586;123.4676586;123.4676586;None;0;;C:\2023\REPSWITCH21092023\REPSWITCH_excgange\REPSWITCH_excgange\data/03.01.02_REPSWITCH1_version1_list2_2023-11-10_16h53.17.642_micRespv1l2_recorded\recording_micRespv1l2_2023-11-10_16h54.54.361.wav;126.488834;126.9888722;None;126.488834;126.488834;126.488834;126.488834;126.488834;126.488834;;;;;;;03.01.02;1;2023-11-10_16h53.17.642;REPSWITCH1_version1_list2;2022.2.4;143.9113966;
REPSWITCH1/PICTURE_728.png;pulpo;speak;gold;filler;2;F;1;3;2;1;Stim8_Set4;0;None;18;17;18;0;17;17;17;;;;;;;;;;;;;;;;;;;;;;;126.9888722;128.1209704;128.1209704;128.1209704;128.1209704;128.1209704;128.1209704;128.1209704;128.1209704;None;0;;C:\2023\REPSWITCH21092023\REPSWITCH_excgange\REPSWITCH_excgange\data/03.01.02_REPSWITCH1_version1_list2_2023-11-10_16h53.17.642_micRespv1l2_recorded\recording_micRespv1l2_2023-11-10_16h54.59.015.wav;131.1422574;131.6422554;None;131.1422574;131.1422574;131.1422574;131.1422574;131.1422574;131.1422574;;;;;;;03.01.02;1;2023-11-10_16h53.17.642;REPSWITCH1_version1_list2;2022.2.4;143.9113966;
REPSWITCH1/PICTURE_381.png;fresa;type;darkblue;nontarget;1;NT;1;3;2;1;Stim2_Set1;1;switch;19;18;19;0;18;18;18;;;;;;;;;;;;;;;;;;;;;;;131.6422554;132.7396998;132.7396998;132.7396998;132.7396998;132.7396998;132.7396998;132.7396998;132.7396998;['f', 'e', 'r', 'e', 's', 'a'];0;fresa;C:\2023\REPSWITCH21092023\REPSWITCH_excgange\REPSWITCH_excgange\data/03.01.02_REPSWITCH1_version1_list2_2023-11-10_16h53.17.642_micRespv1l2_recorded\recording_micRespv1l2_2023-11-10_16h55.03.634.wav;135.7608982;136.260933;None;135.7608982;135.7608982;135.7608982;135.7608982;135.7608982;135.7608982;[1.0315187000087462, 1.221082000003662, 1.2220730999833904, 1.6264693000121042, 1.9848434000159614, 2.1142763000098057];;;;;;03.01.02;1;2023-11-10_16h53.17.642;REPSWITCH1_version1_list2;2022.2.4;143.9113966;
REPSWITCH1/PICTURE_381.png;fresa;type;darkblue;repeat;1;T;1;3;2;1;Stim2_Set1;0;None;20;19;20;0;19;19;19;;;;;;;;;;;;;;;;;;;;;;;136.260933;137.3860958;137.3860958;137.3860958;137.3860958;137.3860958;137.3860958;137.3860958;137.3860958;['d', 'backspace', 'f', 'r', 'e', 's', 'a'];0;fresa;C:\2023\REPSWITCH21092023\REPSWITCH_excgange\REPSWITCH_excgange\data/03.01.02_REPSWITCH1_version1_list2_2023-11-10_16h53.17.642_micRespv1l2_recorded\recording_micRespv1l2_2023-11-10_16h55.08.280.wav;140.4142277;;None;140.4142277;140.4142277;140.4142277;140.4142277;140.4142277;140.4142277;[1.1300726999761537, 1.8509839999605902, 2.0434146999614313, 2.2836441000108607, 2.3743463999708183, 2.6972608999931253, 2.8449925999739207];;;;;;03.01.02;1;2023-11-10_16h53.17.642;REPSWITCH1_version1_list2;2022.2.4;143.9113966;
REPSWITCH1/PICTURE_8.png;pierna;speak;gold;filler;2;F;1;3;2;1;Stim3_Set4;0;None;21;20;21;0;20;20;20;;;;;;;;;;;;;;;;;;;;;;;140.914296;142.0117515;142.0117515;142.0117515;142.0117515;142.0117515;142.0117515;142.0117515;142.0117515;None;0;;C:\2023\REPSWITCH21092023\REPSWITCH_excgange\REPSWITCH_excgange\data/03.01.02_REPSWITCH1_version1_list2_2023-11-10_16h53.17.642_micRespv1l2_recorded\recording_micRespv1l2_2023-11-10_16h55.12.905.wav;145.0329147;145.5330458;None;145.0329147;145.0329147;145.0329147;145.0329147;145.0329147;145.0329147;;;;;;;03.01.02;1;2023-11-10_16h53.17.642;REPSWITCH1_version1_list2;2022.2.4;143.9113966;
REPSWITCH1/PICTURE_48.png;bombero;speak;gold;filler;2;F;1;3;2;1;Stim7_Set4;0;None;22;21;22;0;21;21;21;;;;;;;;;;;;;;;;;;;;;;;145.5330458;146.64423;146.64423;146.64423;146.64423;146.64423;146.64423;146.64423;146.64423;None;0;;C:\2023\REPSWITCH21092023\REPSWITCH_excgange\REPSWITCH_excgange\data/03.01.02_REPSWITCH1_version1_list2_2023-11-10_16h53.17.642_micRespv1l2_recorded\recording_micRespv1l2_2023-11-10_16h55.17.538.wav;149.66546;150.1655302;None;149.66546;149.66546;149.66546;149.66546;149.66546;149.66546;;;;;;;03.01.02;1;2023-11-10_16h53.17.642;REPSWITCH1_version1_list2;2022.2.4;143.9113966;
REPSWITCH1/PICTURE_135.png;traje;type;darkblue;nontarget;1;NT;1;3;2;1;Stim3_Set1;1;switch;23;22;23;0;22;22;22;;;;;;;;;;;;;;;;;;;;;;;150.1655302;151.179566;151.179566;151.179566;151.179566;151.179566;151.179566;151.179566;151.179566;['t', 'r', 'a', 'j', 'e'];0;traje;C:\2023\REPSWITCH21092023\REPSWITCH_excgange\REPSWITCH_excgange\data/03.01.02_REPSWITCH1_version1_list2_2023-11-10_16h53.17.642_micRespv1l2_recorded\recording_micRespv1l2_2023-11-10_16h55.22.073.wav;154.2008109;154.700842;None;154.2008109;154.2008109;154.2008109;154.2008109;154.2008109;154.2008109;[1.2351815000292845, 1.2641579000046477, 1.4303020000224933, 1.881760700023733, 1.9684709000284784];;;;;;03.01.02;1;2023-11-10_16h53.17.642;REPSWITCH1_version1_list2;2022.2.4;143.9113966;
REPSWITCH1/PICTURE_135.png;traje;type;darkblue;repeat;1;T;1;3;2;1;Stim3_Set1;0;None;24;23;24;0;23;23;23;;;;;;;;;;;;;;;;;;;;;;;154.700842;155.7634899;155.7634899;155.7634899;155.7634899;155.7634899;155.7634899;155.7634899;155.7634899;['t', 'r', 'a', 'j', 'e'];0;traje;C:\2023\REPSWITCH21092023\REPSWITCH_excgange\REPSWITCH_excgange\data/03.01.02_REPSWITCH1_version1_list2_2023-11-10_16h53.17.642_micRespv1l2_recorded\recording_micRespv1l2_2023-11-10_16h55.26.658.wav;158.7916656;;None;158.7916656;158.7916656;158.7916656;158.7916656;158.7916656;158.7916656;[1.1605764999985695, 1.1866066999500617, 1.4169297999469563, 1.7729645999497734, 1.8616268999758177];;;;;;03.01.02;1;2023-11-10_16h53.17.642;REPSWITCH1_version1_list2;2022.2.4;143.9113966;
REPSWITCH1/PICTURE_19.png;pavo;type;darkblue;nontarget;1;NT;1;3;2;1;Stim5_Set1;1;repeat;25;24;25;0;24;24;24;;;;;;;;;;;;;;;;;;;;;;;159.2917197;160.3196098;160.3196098;160.3196098;160.3196098;160.3196098;160.3196098;160.3196098;160.3196098;['p', 'a', 'v', 'o'];0;pavo;C:\2023\REPSWITCH21092023\REPSWITCH_excgange\REPSWITCH_excgange\data/03.01.02_REPSWITCH1_version1_list2_2023-11-10_16h53.17.642_micRespv1l2_recorded\recording_micRespv1l2_2023-11-10_16h55.31.214.wav;163.3408646;163.8408958;None;163.3408646;163.3408646;163.3408646;163.3408646;163.3408646;163.3408646;[1.2006601000321098, 1.330248299986124, 1.72711060004076, 1.7928917999961413];;;;;;03.01.02;1;2023-11-10_16h53.17.642;REPSWITCH1_version1_list2;2022.2.4;143.9113966;
REPSWITCH1/PICTURE_19.png;pavo;speak;gold;switch;2;T;1;3;2;1;Stim5_Set1;0;None;26;25;26;0;25;25;25;;;;;;;;;;;;;;;;;;;;;;;163.8408958;164.9243839;164.9243839;164.9243839;164.9243839;164.9243839;164.9243839;164.9243839;164.9243839;None;0;;C:\2023\REPSWITCH21092023\REPSWITCH_excgange\REPSWITCH_excgange\data/03.01.02_REPSWITCH1_version1_list2_2023-11-10_16h53.17.642_micRespv1l2_recorded\recording_micRespv1l2_2023-11-10_16h55.35.819.wav;167.952674;;None;167.952674;167.952674;167.952674;167.952674;167.952674;167.952674;;;;;;;03.01.02;1;2023-11-10_16h53.17.642;REPSWITCH1_version1_list2;2022.2.4;143.9113966;
REPSWITCH1/PICTURE_142.png;vaso;speak;gold;filler;2;F;2;3;2;1;Stim7_Set1;0;None;27;26;27;0;26;26;26;;;;;;;;;;;;;;;;;;;;;;;168.4526556;169.6472896;169.6472896;169.6472896;169.6472896;169.6472896;169.6472896;169.6472896;169.6472896;None;0;;C:\2023\REPSWITCH21092023\REPSWITCH_excgange\REPSWITCH_excgange\data/03.01.02_REPSWITCH1_version1_list2_2023-11-10_16h53.17.642_micRespv1l2_recorded\recording_micRespv1l2_2023-11-10_16h55.40.541.wav;172.6684775;173.1685411;None;172.6684775;172.6684775;172.6684775;172.6684775;172.6684775;172.6684775;;;;;;;03.01.02;1;2023-11-10_16h53.17.642;REPSWITCH1_version1_list2;2022.2.4;143.9113966;
REPSWITCH1/PICTURE_135.png;traje;type;darkblue;filler;1;F;2;3;2;1;Stim3_Set1;0;None;28;27;28;0;27;27;27;;;;;;;;;;;;;;;;;;;;;;;173.1685411;174.2797946;174.2797946;174.2797946;174.2797946;174.2797946;174.2797946;174.2797946;174.2797946;['t', 'r', 'a', 'j', 'e'];0;traje;C:\2023\REPSWITCH21092023\REPSWITCH_excgange\REPSWITCH_excgange\data/03.01.02_REPSWITCH1_version1_list2_2023-11-10_16h53.17.642_micRespv1l2_recorded\recording_micRespv1l2_2023-11-10_16h55.45.173.wav;177.3011055;177.801074;None;177.3011055;177.3011055;177.3011055;177.3011055;177.3011055;177.3011055;[1.0881485000136308, 1.1010972000076436, 1.3071374999708496, 1.7408265999983996, 1.8255272000096738];;;;;;03.01.02;1;2023-11-10_16h53.17.642;REPSWITCH1_version1_list2;2022.2.4;143.9113966;
REPSWITCH1/PICTURE_446.png;cerdo;type;darkblue;nontarget;1;NT;2;3;2;1;Stim7_Set2;0;None;29;28;29;0;28;28;28;;;;;;;;;;;;;;;;;;;;;;;177.801074;178.9193519;178.9193519;178.9193519;178.9193519;178.9193519;178.9193519;178.9193519;178.9193519;['c', 'e', 'r', 'd', 'o'];0;cerdo;C:\2023\REPSWITCH21092023\REPSWITCH_excgange\REPSWITCH_excgange\data/03.01.02_REPSWITCH1_version1_list2_2023-11-10_16h53.17.642_micRespv1l2_recorded\recording_micRespv1l2_2023-11-10_16h55.49.813.wav;181.9404881;182.4406098;None;181.9404881;181.9404881;181.9404881;181.9404881;181.9404881;181.9404881;[1.021153100009542, 1.1587066000211053, 1.3141855000285432, 1.5663392000133172, 1.6514024000498466];;;;;;03.01.02;1;2023-11-10_16h53.17.642;REPSWITCH1_version1_list2;2022.2.4;143.9113966;
REPSWITCH1/PICTURE_446.png;cerdo;type;darkblue;repeat;1;T;2;3;2;1;Stim7_Set2;0;None;30;29;30;0;29;29;29;;;;;;;;;;;;;;;;;;;;;;;182.4406098;183.6282434;183.6282434;183.6282434;183.6282434;183.6282434;183.6282434;183.6282434;183.6282434;['c', 'e', 'r', 'd', 'd', 'o', 'backspace', 'backspace'];0;cerd;C:\2023\REPSWITCH21092023\REPSWITCH_excgange\REPSWITCH_excgange\data/03.01.02_REPSWITCH1_version1_list2_2023-11-10_16h53.17.642_micRespv1l2_recorded\recording_micRespv1l2_2023-11-10_16h55.54.523.wav;186.6494915;187.1496044;None;186.6494915;186.6494915;186.6494915;186.6494915;186.6494915;186.6494915;[0.8658089999807999, 1.0165381000260822, 1.1530469999997877, 1.3737924000015482, 1.393770799972117, 1.504718000011053, 2.226885800017044, 2.4318805999937467];;;;;;03.01.02;1;2023-11-10_16h53.17.642;REPSWITCH1_version1_list2;2022.2.4;143.9113966;
REPSWITCH1/PICTURE_16.png;cazador;speak;gold;filler;2;F;2;3;2;1;Stim6_Set1;0;None;31;30;31;0;30;30;30;;;;;;;;;;;;;;;;;;;;;;;187.1496044;188.2191422;188.2191422;188.2191422;188.2191422;188.2191422;188.2191422;188.2191422;188.2191422;None;0;;C:\2023\REPSWITCH21092023\REPSWITCH_excgange\REPSWITCH_excgange\data/03.01.02_REPSWITCH1_version1_list2_2023-11-10_16h53.17.642_micRespv1l2_recorded\recording_micRespv1l2_2023-11-10_16h55.59.113.wav;191.2472665;;None;191.2472665;191.2472665;191.2472665;191.2472665;191.2472665;191.2472665;;;;;;;03.01.02;1;2023-11-10_16h53.17.642;REPSWITCH1_version1_list2;2022.2.4;143.9113966;
REPSWITCH1/PICTURE_552.png;manzana;type;darkblue;nontarget;1;NT;2;3;2;1;Stim6_Set2;1;switch;32;31;32;0;31;31;31;;;;;;;;;;;;;;;;;;;;;;;191.7473568;192.8656263;192.8656263;192.8656263;192.8656263;192.8656263;192.8656263;192.8656263;192.8656263;['m', 'a', 'n', 'z', 'a', 'n', 'a'];0;manzana;C:\2023\REPSWITCH21092023\REPSWITCH_excgange\REPSWITCH_excgange\data/03.01.02_REPSWITCH1_version1_list2_2023-11-10_16h53.17.642_micRespv1l2_recorded\recording_micRespv1l2_2023-11-10_16h56.03.760.wav;195.8867694;196.3868568;None;195.8867694;195.8867694;195.8867694;195.8867694;195.8867694;195.8867694;[1.673205400002189, 1.7947805000003427, 1.9220855999737978, 2.1940695000230335, 2.3565136999823153, 2.5379210999817587, 2.6255898000090383];;;;;;03.01.02;1;2023-11-10_16h53.17.642;REPSWITCH1_version1_list2;2022.2.4;143.9113966;
REPSWITCH1/PICTURE_552.png;manzana;type;darkblue;repeat;1;T;2;3;2;1;Stim6_Set2;0;None;33;32;33;0;32;32;32;;;;;;;;;;;;;;;;;;;;;;;196.3868568;197.4772992;197.4772992;197.4772992;197.4772992;197.4772992;197.4772992;197.4772992;197.4772992;['m', 'a', 'n', 'z', 'a', 'n', 'a'];0;manzana;C:\2023\REPSWITCH21092023\REPSWITCH_excgange\REPSWITCH_excgange\data/03.01.02_REPSWITCH1_version1_list2_2023-11-10_16h53.17.642_micRespv1l2_recorded\recording_micRespv1l2_2023-11-10_16h56.08.372.wav;200.5054802;;None;200.5054802;200.5054802;200.5054802;200.5054802;200.5054802;200.5054802;[0.8431869000196457, 0.9472744999802671, 1.0991119000245817, 1.5366536999936216, 1.6771789999911562, 1.9931345999939367, 2.0602055999916047];;;;;;03.01.02;1;2023-11-10_16h53.17.642;REPSWITCH1_version1_list2;2022.2.4;143.9113966;
REPSWITCH1/PICTURE_517.png;cuerda;type;darkblue;nontarget;1;NT;2;3;2;1;Stim4_Set2;0;None;34;33;34;0;33;33;33;;;;;;;;;;;;;;;;;;;;;;;201.0055142;202.08202;202.08202;202.08202;202.08202;202.08202;202.08202;202.08202;202.08202;['c', 'u', 'e', 'r', 'd', 'a'];0;cuerda;C:\2023\REPSWITCH21092023\REPSWITCH_excgange\REPSWITCH_excgange\data/03.01.02_REPSWITCH1_version1_list2_2023-11-10_16h53.17.642_micRespv1l2_recorded\recording_micRespv1l2_2023-11-10_16h56.12.977.wav;205.1102021;;None;205.1102021;205.1102021;205.1102021;205.1102021;205.1102021;205.1102021;[1.025431899994146, 1.1629646999645047, 1.273588199983351, 1.4001319999806583, 1.6532886999775656, 1.73322090000147];;;;;;03.01.02;1;2023-11-10_16h53.17.642;REPSWITCH1_version1_list2;2022.2.4;143.9113966;
REPSWITCH1/PICTURE_517.png;cuerda;speak;gold;switch;2;T;2;3;2;1;Stim4_Set2;0;None;35;34;35;0;34;34;34;;;;;;;;;;;;;;;;;;;;;;;205.6103253;206.7702356;206.7702356;206.7702356;206.7702356;206.7702356;206.7702356;206.7702356;206.7702356;None;0;;C:\2023\REPSWITCH21092023\REPSWITCH_excgange\REPSWITCH_excgange\data/03.01.02_REPSWITCH1_version1_list2_2023-11-10_16h53.17.642_micRespv1l2_recorded\recording_micRespv1l2_2023-11-10_16h56.17.664.wav;209.7913992;210.2915256;None;209.7913992;209.7913992;209.7913992;209.7913992;209.7913992;209.7913992;;;;;;;03.01.02;1;2023-11-10_16h53.17.642;REPSWITCH1_version1_list2;2022.2.4;143.9113966;
REPSWITCH1/PICTURE_169.png;espalda;speak;gold;filler;2;F;2;3;2;1;Stim8_Set1;1;repeat;36;35;36;0;35;35;35;;;;;;;;;;;;;;;;;;;;;;;210.2915256;211.3540897;211.3540897;211.3540897;211.3540897;211.3540897;211.3540897;211.3540897;211.3540897;None;0;;C:\2023\REPSWITCH21092023\REPSWITCH_excgange\REPSWITCH_excgange\data/03.01.02_REPSWITCH1_version1_list2_2023-11-10_16h53.17.642_micRespv1l2_recorded\recording_micRespv1l2_2023-11-10_16h56.22.249.wav;214.37532;214.8753921;None;214.37532;214.37532;214.37532;214.37532;214.37532;214.37532;;;;;;;03.01.02;1;2023-11-10_16h53.17.642;REPSWITCH1_version1_list2;2022.2.4;143.9113966;
REPSWITCH1/PICTURE_30.png;granja;speak;gold;nontarget;2;NT;2;3;2;1;Stim5_Set2;1;repeat;37;36;37;0;36;36;36;;;;;;;;;;;;;;;;;;;;;;;214.8753921;215.9380987;215.9380987;215.9380987;215.9380987;215.9380987;215.9380987;215.9380987;215.9380987;None;0;;C:\2023\REPSWITCH21092023\REPSWITCH_excgange\REPSWITCH_excgange\data/03.01.02_REPSWITCH1_version1_list2_2023-11-10_16h53.17.642_micRespv1l2_recorded\recording_micRespv1l2_2023-11-10_16h56.26.833.wav;218.9592328;219.4593832;None;218.9592328;218.9592328;218.9592328;218.9592328;218.9592328;218.9592328;;;;;;;03.01.02;1;2023-11-10_16h53.17.642;REPSWITCH1_version1_list2;2022.2.4;143.9113966;
REPSWITCH1/PICTURE_30.png;granja;type;darkblue;switch;1;T;2;3;2;1;Stim5_Set2;0;None;38;37;38;0;37;37;37;;;;;;;;;;;;;;;;;;;;;;;219.4593832;220.5636639;220.5636639;220.5636639;220.5636639;220.5636639;220.5636639;220.5636639;220.5636639;['g', 'r', 'a', 'n', 'j', 'a'];0;granja;C:\2023\REPSWITCH21092023\REPSWITCH_excgange\REPSWITCH_excgange\data/03.01.02_REPSWITCH1_version1_list2_2023-11-10_16h53.17.642_micRespv1l2_recorded\recording_micRespv1l2_2023-11-10_16h56.31.458.wav;223.5918815;;None;223.5918815;223.5918815;223.5918815;223.5918815;223.5918815;223.5918815;[1.2161292000091635, 1.3088607999961823, 1.602846199995838, 1.7254259000183083, 2.023493900022004, 2.0872777000186034];;;;;;03.01.02;1;2023-11-10_16h53.17.642;REPSWITCH1_version1_list2;2022.2.4;143.9113966;
REPSWITCH1/PICTURE_128.png;muñeca;type;darkblue;filler;1;F;2;3;2;1;Stim4_Set1;1;repeat;39;38;39;0;38;38;38;;;;;;;;;;;;;;;;;;;;;;;224.0918746;225.1823077;225.1823077;225.1823077;225.1823077;225.1823077;225.1823077;225.1823077;225.1823077;['m', 'u', 'ñ', 'e', 'c', 'a'];0;muñeca;C:\2023\REPSWITCH21092023\REPSWITCH_excgange\REPSWITCH_excgange\data/03.01.02_REPSWITCH1_version1_list2_2023-11-10_16h53.17.642_micRespv1l2_recorded\recording_micRespv1l2_2023-11-10_16h56.36.077.wav;228.203598;228.7036666;None;228.203598;228.203598;228.203598;228.203598;228.203598;228.203598;[0.9186840000329539, 1.1997504000319168, 1.7229016000055708, 1.8604387000086717, 2.3474619000335224, 2.424169100006111];;;;;;03.01.02;1;2023-11-10_16h53.17.642;REPSWITCH1_version1_list2;2022.2.4;143.9113966;
REPSWITCH1/PICTURE_199.png;falda;type;darkblue;nontarget;1;NT;2;3;2;1;Stim8_Set2;0;None;40;39;40;0;39;39;39;;;;;;;;;;;;;;;;;;;;;;;228.7036666;229.8843698;229.8843698;229.8843698;229.8843698;229.8843698;229.8843698;229.8843698;229.8843698;['f', 'a', 'l', 'd', 'a'];0;falda;C:\2023\REPSWITCH21092023\REPSWITCH_excgange\REPSWITCH_excgange\data/03.01.02_REPSWITCH1_version1_list2_2023-11-10_16h53.17.642_micRespv1l2_recorded\recording_micRespv1l2_2023-11-10_16h56.40.778.wav;232.9055376;233.4056653;None;232.9055376;232.9055376;232.9055376;232.9055376;232.9055376;232.9055376;[1.0515926000080071, 1.20806580001954, 1.3625390999950469, 1.539380100031849, 1.6489533000276424];;;;;;03.01.02;1;2023-11-10_16h53.17.642;REPSWITCH1_version1_list2;2022.2.4;143.9113966;
REPSWITCH1/PICTURE_199.png;falda;speak;gold;switch;2;T;2;3;2;1;Stim8_Set2;0;None;41;40;41;0;40;40;40;;;;;;;;;;;;;;;;;;;;;;;233.4056653;234.537684;234.537684;234.537684;234.537684;234.537684;234.537684;234.537684;234.537684;None;0;;C:\2023\REPSWITCH21092023\REPSWITCH_excgange\REPSWITCH_excgange\data/03.01.02_REPSWITCH1_version1_list2_2023-11-10_16h53.17.642_micRespv1l2_recorded\recording_micRespv1l2_2023-11-10_16h56.45.431.wav;237.5589202;238.0589821;None;237.5589202;237.5589202;237.5589202;237.5589202;237.5589202;237.5589202;;;;;;;03.01.02;1;2023-11-10_16h53.17.642;REPSWITCH1_version1_list2;2022.2.4;143.9113966;
REPSWITCH1/PICTURE_152.png;caracol;speak;gold;nontarget;2;NT;2;3;2;1;Stim2_Set2;1;switch;42;41;42;0;41;41;41;;;;;;;;;;;;;;;;;;;;;;;238.0589821;239.2189159;239.2189159;239.2189159;239.2189159;239.2189159;239.2189159;239.2189159;239.2189159;None;0;;C:\2023\REPSWITCH21092023\REPSWITCH_excgange\REPSWITCH_excgange\data/03.01.02_REPSWITCH1_version1_list2_2023-11-10_16h53.17.642_micRespv1l2_recorded\recording_micRespv1l2_2023-11-10_16h56.50.112.wav;242.2400536;242.7401171;None;242.2400536;242.2400536;242.2400536;242.2400536;242.2400536;242.2400536;;;;;;;03.01.02;1;2023-11-10_16h53.17.642;REPSWITCH1_version1_list2;2022.2.4;143.9113966;
REPSWITCH1/PICTURE_152.png;caracol;speak;gold;repeat;2;T;2;3;2;1;Stim2_Set2;0;None;43;42;43;0;42;42;42;;;;;;;;;;;;;;;;;;;;;;;242.7401171;243.7958242;243.7958242;243.7958242;243.7958242;243.7958242;243.7958242;243.7958242;243.7958242;None;0;;C:\2023\REPSWITCH21092023\REPSWITCH_excgange\REPSWITCH_excgange\data/03.01.02_REPSWITCH1_version1_list2_2023-11-10_16h53.17.642_micRespv1l2_recorded\recording_micRespv1l2_2023-11-10_16h56.54.690.wav;246.8171172;247.3170964;None;246.8171172;246.8171172;246.8171172;246.8171172;246.8171172;246.8171172;;;;;;;03.01.02;1;2023-11-10_16h53.17.642;REPSWITCH1_version1_list2;2022.2.4;143.9113966;
REPSWITCH1/PICTURE_381.png;fresa;type;darkblue;filler;1;F;2;3;2;1;Stim2_Set1;0;None;44;43;44;0;43;43;43;;;;;;;;;;;;;;;;;;;;;;;247.3170964;248.4561671;248.4561671;248.4561671;248.4561671;248.4561671;248.4561671;248.4561671;248.4561671;['f', 'r', 'e', 's', 'a'];0;fresa;C:\2023\REPSWITCH21092023\REPSWITCH_excgange\REPSWITCH_excgange\data/03.01.02_REPSWITCH1_version1_list2_2023-11-10_16h53.17.642_micRespv1l2_recorded\recording_micRespv1l2_2023-11-10_16h56.59.350.wav;251.4774068;251.9775466;None;251.4774068;251.4774068;251.4774068;251.4774068;251.4774068;251.4774068;[0.9529637999949045, 1.1472413000301458, 1.7493168000364676, 2.144002899993211, 2.2179032000130974];;;;;;03.01.02;1;2023-11-10_16h53.17.642;REPSWITCH1_version1_list2;2022.2.4;143.9113966;
REPSWITCH1/PICTURE_175.png;pintor;speak;gold;nontarget;2;NT;2;3;2;1;Stim1_Set2;1;switch;45;44;45;0;44;44;44;;;;;;;;;;;;;;;;;;;;;;;251.9775466;253.109655;253.109655;253.109655;253.109655;253.109655;253.109655;253.109655;253.109655;None;0;;C:\2023\REPSWITCH21092023\REPSWITCH_excgange\REPSWITCH_excgange\data/03.01.02_REPSWITCH1_version1_list2_2023-11-10_16h53.17.642_micRespv1l2_recorded\recording_micRespv1l2_2023-11-10_16h57.04.004.wav;256.13772;;None;256.13772;256.13772;256.13772;256.13772;256.13772;256.13772;;;;;;;03.01.02;1;2023-11-10_16h53.17.642;REPSWITCH1_version1_list2;2022.2.4;143.9113966;
REPSWITCH1/PICTURE_175.png;pintor;speak;gold;repeat;2;T;2;3;2;1;Stim1_Set2;0;None;46;45;46;0;45;45;45;;;;;;;;;;;;;;;;;;;;;;;256.6377866;257.7143741;257.7143741;257.7143741;257.7143741;257.7143741;257.7143741;257.7143741;257.7143741;None;0;;C:\2023\REPSWITCH21092023\REPSWITCH_excgange\REPSWITCH_excgange\data/03.01.02_REPSWITCH1_version1_list2_2023-11-10_16h53.17.642_micRespv1l2_recorded\recording_micRespv1l2_2023-11-10_16h57.08.608.wav;260.735566;261.2356256;None;260.735566;260.735566;260.735566;260.735566;260.735566;260.735566;;;;;;;03.01.02;1;2023-11-10_16h53.17.642;REPSWITCH1_version1_list2;2022.2.4;143.9113966;
REPSWITCH1/PICTURE_178.png;puente;type;darkblue;filler;1;F;2;3;2;1;Stim1_Set1;0;None;47;46;47;0;46;46;46;;;;;;;;;;;;;;;;;;;;;;;261.2356256;262.3955259;262.3955259;262.3955259;262.3955259;262.3955259;262.3955259;262.3955259;262.3955259;['p', 'u', 'e', 'n', 't', 'e'];0;puente;C:\2023\REPSWITCH21092023\REPSWITCH_excgange\REPSWITCH_excgange\data/03.01.02_REPSWITCH1_version1_list2_2023-11-10_16h53.17.642_micRespv1l2_recorded\recording_micRespv1l2_2023-11-10_16h57.13.290.wav;265.4167359;265.9167975;None;265.4167359;265.4167359;265.4167359;265.4167359;265.4167359;265.4167359;[0.9788416000083089, 1.294788700004574, 1.4572367999935523, 1.7751428000046872, 1.880815899989102, 1.9602745000156574];;;;;;03.01.02;1;2023-11-10_16h53.17.642;REPSWITCH1_version1_list2;2022.2.4;143.9113966;
REPSWITCH1/PICTURE_19.png;pavo;speak;gold;filler;2;F;2;3;2;1;Stim5_Set1;0;None;48;47;48;0;47;47;47;;;;;;;;;;;;;;;;;;;;;;;265.9167975;267.0906184;267.0906184;267.0906184;267.0906184;267.0906184;267.0906184;267.0906184;267.0906184;None;0;;C:\2023\REPSWITCH21092023\REPSWITCH_excgange\REPSWITCH_excgange\data/03.01.02_REPSWITCH1_version1_list2_2023-11-10_16h53.17.642_micRespv1l2_recorded\recording_micRespv1l2_2023-11-10_16h57.17.985.wav;270.1186918;;None;270.1186918;270.1186918;270.1186918;270.1186918;270.1186918;270.1186918;;;;;;;03.01.02;1;2023-11-10_16h53.17.642;REPSWITCH1_version1_list2;2022.2.4;143.9113966;
REPSWITCH1/PICTURE_264.png;mano;speak;gold;nontarget;2;NT;2;3;2;1;Stim3_Set2;1;repeat;49;48;49;0;48;48;48;;;;;;;;;;;;;;;;;;;;;;;270.6187952;271.688363;271.688363;271.688363;271.688363;271.688363;271.688363;271.688363;271.688363;None;0;;C:\2023\REPSWITCH21092023\REPSWITCH_excgange\REPSWITCH_excgange\data/03.01.02_REPSWITCH1_version1_list2_2023-11-10_16h53.17.642_micRespv1l2_recorded\recording_micRespv1l2_2023-11-10_16h57.22.582.wav;274.7096832;275.2096402;None;274.7096832;274.7096832;274.7096832;274.7096832;274.7096832;274.7096832;;;;;;;03.01.02;1;2023-11-10_16h53.17.642;REPSWITCH1_version1_list2;2022.2.4;143.9113966;
REPSWITCH1/PICTURE_264.png;mano;type;darkblue;switch;1;T;2;3;2;1;Stim3_Set2;0;None;50;49;50;0;49;49;49;;;;;;;;;;;;;;;;;;;;;;;275.2096402;276.3834212;276.3834212;276.3834212;276.3834212;276.3834212;276.3834212;276.3834212;276.3834212;['m', 'a', 'n', 'o'];0;mano;C:\2023\REPSWITCH21092023\REPSWITCH_excgange\REPSWITCH_excgange\data/03.01.02_REPSWITCH1_version1_list2_2023-11-10_16h53.17.642_micRespv1l2_recorded\recording_micRespv1l2_2023-11-10_16h57.27.277.wav;279.4046737;279.9047406;None;279.4046737;279.4046737;279.4046737;279.4046737;279.4046737;279.4046737;[0.9767278999788687, 1.1053717999602668, 1.2357996999635361, 1.3184600999811664];;;;;;03.01.02;1;2023-11-10_16h53.17.642;REPSWITCH1_version1_list2;2022.2.4;143.9113966;
REPSWITCH1/PICTURE_446.png;cerdo;type;darkblue;filler;1;F;3;3;2;1;Stim7_Set2;0;None;51;50;51;0;50;50;50;;;;;;;;;;;;;;;;;;;;;;;279.9047406;281.0854438;281.0854438;281.0854438;281.0854438;281.0854438;281.0854438;281.0854438;281.0854438;['c', 'e', 'r', 'd', 'o'];0;cerdo;C:\2023\REPSWITCH21092023\REPSWITCH_excgange\REPSWITCH_excgange\data/03.01.02_REPSWITCH1_version1_list2_2023-11-10_16h53.17.642_micRespv1l2_recorded\recording_micRespv1l2_2023-11-10_16h57.31.980.wav;284.106744;284.6067376;space;284.106744;284.106744;284.106744;284.106744;284.106744;284.106744;[0.9937379999901168, 1.1245855999877676, 1.2691226999741048, 1.5373249999829568, 1.6310018000076525];284.6067376;284.6067376;2.6089406;;;03.01.02;1;2023-11-10_16h53.17.642;REPSWITCH1_version1_list2;2022.2.4;143.9113966;
REPSWITCH1/PICTURE_235.png;aguja;type;darkblue;nontarget;1;NT;3;3;2;1;Stim4_Set3;1;repeat;52;51;52;0;51;51;51;;;;;;;;;;;;;;;;;;;;;;;287.2251095;288.30863;288.30863;288.30863;288.30863;288.30863;288.30863;288.30863;288.30863;['a', 'g', 'u', 'j', 'a'];0;aguja;C:\2023\REPSWITCH21092023\REPSWITCH_excgange\REPSWITCH_excgange\data/03.01.02_REPSWITCH1_version1_list2_2023-11-10_16h53.17.642_micRespv1l2_recorded\recording_micRespv1l2_2023-11-10_16h57.39.202.wav;291.3298355;291.8299826;None;291.3298355;291.3298355;291.3298355;291.3298355;291.3298355;291.3298355;[1.824029299954418, 2.401597799966112, 2.471370699990075, 2.745408899965696, 2.9318121999967843];;;;;;03.01.02;1;2023-11-10_16h53.17.642;REPSWITCH1_version1_list2;2022.2.4;143.9113966;
REPSWITCH1/PICTURE_235.png;aguja;speak;gold;switch;2;T;3;3;2;1;Stim4_Set3;0;None;53;52;53;0;52;52;52;;;;;;;;;;;;;;;;;;;;;;;291.8299826;292.9342361;292.9342361;292.9342361;292.9342361;292.9342361;292.9342361;292.9342361;292.9342361;None;0;;C:\2023\REPSWITCH21092023\REPSWITCH_excgange\REPSWITCH_excgange\data/03.01.02_REPSWITCH1_version1_list2_2023-11-10_16h53.17.642_micRespv1l2_recorded\recording_micRespv1l2_2023-11-10_16h57.43.828.wav;295.9554964;296.4555917;None;295.9554964;295.9554964;295.9554964;295.9554964;295.9554964;295.9554964;;;;;;;03.01.02;1;2023-11-10_16h53.17.642;REPSWITCH1_version1_list2;2022.2.4;143.9113966;
REPSWITCH1/PICTURE_552.png;manzana;speak;gold;filler;2;F;3;3;2;1;Stim6_Set2;0;None;54;53;54;0;53;53;53;;;;;;;;;;;;;;;;;;;;;;;296.4555917;297.6362089;297.6362089;297.6362089;297.6362089;297.6362089;297.6362089;297.6362089;297.6362089;None;0;;C:\2023\REPSWITCH21092023\REPSWITCH_excgange\REPSWITCH_excgange\data/03.01.02_REPSWITCH1_version1_list2_2023-11-10_16h53.17.642_micRespv1l2_recorded\recording_micRespv1l2_2023-11-10_16h57.48.530.wav;300.6574545;301.1575226;None;300.6574545;300.6574545;300.6574545;300.6574545;300.6574545;300.6574545;;;;;;;03.01.02;1;2023-11-10_16h53.17.642;REPSWITCH1_version1_list2;2022.2.4;143.9113966;
REPSWITCH1/PICTURE_271.png;conejo;speak;gold;nontarget;2;NT;3;3;2;1;Stim7_Set3;1;repeat;55;54;55;0;54;54;54;;;;;;;;;;;;;;;;;;;;;;;301.1575226;302.4354773;302.4354773;302.4354773;302.4354773;302.4354773;302.4354773;302.4354773;302.4354773;None;0;;C:\2023\REPSWITCH21092023\REPSWITCH_excgange\REPSWITCH_excgange\data/03.01.02_REPSWITCH1_version1_list2_2023-11-10_16h53.17.642_micRespv1l2_recorded\recording_micRespv1l2_2023-11-10_16h57.53.330.wav;305.4566963;305.9567547;None;305.4566963;305.4566963;305.4566963;305.4566963;305.4566963;305.4566963;;;;;;;03.01.02;1;2023-11-10_16h53.17.642;REPSWITCH1_version1_list2;2022.2.4;143.9113966;
REPSWITCH1/PICTURE_271.png;conejo;type;darkblue;switch;1;T;3;3;2;1;Stim7_Set3;0;None;56;55;56;0;55;55;55;;;;;;;;;;;;;;;;;;;;;;;305.9567547;307.0124488;307.0124488;307.0124488;307.0124488;307.0124488;307.0124488;307.0124488;307.0124488;['c', 'o', 'n', 'e', 'j', 'o'];0;conejo;C:\2023\REPSWITCH21092023\REPSWITCH_excgange\REPSWITCH_excgange\data/03.01.02_REPSWITCH1_version1_list2_2023-11-10_16h53.17.642_micRespv1l2_recorded\recording_micRespv1l2_2023-11-10_16h57.57.907.wav;310.0406253;;None;310.0406253;310.0406253;310.0406253;310.0406253;310.0406253;310.0406253;[0.9537704999675043, 1.2015865999856032, 1.3182652000105008, 1.5684264000155963, 1.6651717000058852, 1.7886468999786302];;;;;;03.01.02;1;2023-11-10_16h53.17.642;REPSWITCH1_version1_list2;2022.2.4;143.9113966;
REPSWITCH1/PICTURE_610.png;miel;type;darkblue;nontarget;1;NT;3;3;2;1;Stim2_Set3;1;repeat;57;56;57;0;56;56;56;;;;;;;;;;;;;;;;;;;;;;;310.5407528;311.6311137;311.6311137;311.6311137;311.6311137;311.6311137;311.6311137;311.6311137;311.6311137;['m', 'i', 'e', 'l'];0;miel;C:\2023\REPSWITCH21092023\REPSWITCH_excgange\REPSWITCH_excgange\data/03.01.02_REPSWITCH1_version1_list2_2023-11-10_16h53.17.642_micRespv1l2_recorded\recording_micRespv1l2_2023-11-10_16h58.02.525.wav;314.6593276;;None;314.6593276;314.6593276;314.6593276;314.6593276;314.6593276;314.6593276;[0.9268116999883205, 1.078131399990525, 1.2714998999726959, 1.385487399995327];;;;;;03.01.02;1;2023-11-10_16h53.17.642;REPSWITCH1_version1_list2;2022.2.4;143.9113966;
REPSWITCH1/PICTURE_610.png;miel;speak;gold;switch;2;T;3;3;2;1;Stim2_Set3;0;None;58;57;58;0;57;57;57;;;;;;;;;;;;;;;;;;;;;;;315.1593523;316.2080904;316.2080904;316.2080904;316.2080904;316.2080904;316.2080904;316.2080904;316.2080904;None;0;;C:\2023\REPSWITCH21092023\REPSWITCH_excgange\REPSWITCH_excgange\data/03.01.02_REPSWITCH1_version1_list2_2023-11-10_16h53.17.642_micRespv1l2_recorded\recording_micRespv1l2_2023-11-10_16h58.07.102.wav;319.2293909;319.729399;None;319.2293909;319.2293909;319.2293909;319.2293909;319.2293909;319.2293909;;;;;;;03.01.02;1;2023-11-10_16h53.17.642;REPSWITCH1_version1_list2;2022.2.4;143.9113966;
REPSWITCH1/PICTURE_199.png;falda;type;darkblue;filler;1;F;3;3;2;1;Stim8_Set2;0;None;59;58;59;0;58;58;58;;;;;;;;;;;;;;;;;;;;;;;319.729399;320.8198028;320.8198028;320.8198028;320.8198028;320.8198028;320.8198028;320.8198028;320.8198028;['f', 'a', 'l', 'd', 'a'];0;falda;C:\2023\REPSWITCH21092023\REPSWITCH_excgange\REPSWITCH_excgange\data/03.01.02_REPSWITCH1_version1_list2_2023-11-10_16h53.17.642_micRespv1l2_recorded\recording_micRespv1l2_2023-11-10_16h58.11.714.wav;323.8410087;324.3410887;None;323.8410087;323.8410087;323.8410087;323.8410087;323.8410087;323.8410087;[1.080208399973344, 1.2546199000207707, 1.3622311999788508, 1.4808599000098184, 1.6256876999977976];;;;;;03.01.02;1;2023-11-10_16h53.17.642;REPSWITCH1_version1_list2;2022.2.4;143.9113966;
REPSWITCH1/PICTURE_464.png;goma;speak;gold;nontarget;2;NT;3;3;2;1;Stim6_Set3;1;switch;60;59;60;0;59;59;59;;;;;;;;;;;;;;;;;;;;;;;324.3410887;325.4870792;325.4870792;325.4870792;325.4870792;325.4870792;325.4870792;325.4870792;325.4870792;None;0;;C:\2023\REPSWITCH21092023\REPSWITCH_excgange\REPSWITCH_excgange\data/03.01.02_REPSWITCH1_version1_list2_2023-11-10_16h53.17.642_micRespv1l2_recorded\recording_micRespv1l2_2023-11-10_16h58.16.381.wav;328.5083018;329.008402;None;328.5083018;328.5083018;328.5083018;328.5083018;328.5083018;328.5083018;;;;;;;03.01.02;1;2023-11-10_16h53.17.642;REPSWITCH1_version1_list2;2022.2.4;143.9113966;
REPSWITCH1/PICTURE_464.png;goma;speak;gold;repeat;2;T;3;3;2;1;Stim6_Set3;0;None;61;60;61;0;60;60;60;;;;;;;;;;;;;;;;;;;;;;;329.008402;330.1543616;330.1543616;330.1543616;330.1543616;330.1543616;330.1543616;330.1543616;330.1543616;None;0;;C:\2023\REPSWITCH21092023\REPSWITCH_excgange\REPSWITCH_excgange\data/03.01.02_REPSWITCH1_version1_list2_2023-11-10_16h53.17.642_micRespv1l2_recorded\recording_micRespv1l2_2023-11-10_16h58.21.049.wav;333.1755991;333.675664;None;333.1755991;333.1755991;333.1755991;333.1755991;333.1755991;333.1755991;;;;;;;03.01.02;1;2023-11-10_16h53.17.642;REPSWITCH1_version1_list2;2022.2.4;143.9113966;
REPSWITCH1/PICTURE_152.png;caracol;type;darkblue;filler;1;F;3;3;2;1;Stim2_Set2;0;None;62;61;62;0;61;61;61;;;;;;;;;;;;;;;;;;;;;;;333.675664;334.7243972;334.7243972;334.7243972;334.7243972;334.7243972;334.7243972;334.7243972;334.7243972;['c', 'a', 'r', 'a', 'c', 'o', 'l'];0;caracol;C:\2023\REPSWITCH21092023\REPSWITCH_excgange\REPSWITCH_excgange\data/03.01.02_REPSWITCH1_version1_list2_2023-11-10_16h53.17.642_micRespv1l2_recorded\recording_micRespv1l2_2023-11-10_16h58.25.619.wav;337.7456085;338.2457155;None;337.7456085;337.7456085;337.7456085;337.7456085;337.7456085;337.7456085;[0.9503039999981411, 1.0789948999881744, 1.4262303999857977, 1.5408470999682322, 1.7914860000018962, 1.9449396999552846, 2.1383247999474406];;;;;;03.01.02;1;2023-11-10_16h53.17.642;REPSWITCH1_version1_list2;2022.2.4;143.9113966;
REPSWITCH1/PICTURE_320.png;iglesia;speak;gold;nontarget;2;NT;3;3;2;1;Stim8_Set3;1;switch;63;62;63;0;62;62;62;;;;;;;;;;;;;;;;;;;;;;;338.2457155;339.3361257;339.3361257;339.3361257;339.3361257;339.3361257;339.3361257;339.3361257;339.3361257;None;0;;C:\2023\REPSWITCH21092023\REPSWITCH_excgange\REPSWITCH_excgange\data/03.01.02_REPSWITCH1_version1_list2_2023-11-10_16h53.17.642_micRespv1l2_recorded\recording_micRespv1l2_2023-11-10_16h58.30.230.wav;342.357376;342.8574233;None;342.357376;342.357376;342.357376;342.357376;342.357376;342.357376;;;;;;;03.01.02;1;2023-11-10_16h53.17.642;REPSWITCH1_version1_list2;2022.2.4;143.9113966;
REPSWITCH1/PICTURE_320.png;iglesia;speak;gold;repeat;2;T;3;3;2;1;Stim8_Set3;0;None;64;63;64;0;63;63;63;;;;;;;;;;;;;;;;;;;;;;;342.8574233;344.0520882;344.0520882;344.0520882;344.0520882;344.0520882;344.0520882;344.0520882;344.0520882;None;0;;C:\2023\REPSWITCH21092023\REPSWITCH_excgange\REPSWITCH_excgange\data/03.01.02_REPSWITCH1_version1_list2_2023-11-10_16h53.17.642_micRespv1l2_recorded\recording_micRespv1l2_2023-11-10_16h58.34.946.wav;347.0732236;347.5733174;None;347.0732236;347.0732236;347.0732236;347.0732236;347.0732236;347.0732236;;;;;;;03.01.02;1;2023-11-10_16h53.17.642;REPSWITCH1_version1_list2;2022.2.4;143.9113966;
REPSWITCH1/PICTURE_35.png;oreja;speak;gold;nontarget;2;NT;3;3;2;1;Stim5_Set3;0;None;65;64;65;0;64;64;64;;;;;;;;;;;;;;;;;;;;;;;347.5733174;348.6498682;348.6498682;348.6498682;348.6498682;348.6498682;348.6498682;348.6498682;348.6498682;None;0;;C:\2023\REPSWITCH21092023\REPSWITCH_excgange\REPSWITCH_excgange\data/03.01.02_REPSWITCH1_version1_list2_2023-11-10_16h53.17.642_micRespv1l2_recorded\recording_micRespv1l2_2023-11-10_16h58.39.544.wav;351.6711205;352.1711099;None;351.6711205;351.6711205;351.6711205;351.6711205;351.6711205;351.6711205;;;;;;;03.01.02;1;2023-11-10_16h53.17.642;REPSWITCH1_version1_list2;2022.2.4;143.9113966;
REPSWITCH1/PICTURE_35.png;oreja;type;darkblue;switch;1;T;3;3;2;1;Stim5_Set3;0;None;66;65;66;0;65;65;65;;;;;;;;;;;;;;;;;;;;;;;352.1711099;353.2198768;353.2198768;353.2198768;353.2198768;353.2198768;353.2198768;353.2198768;353.2198768;['o', 'r', 'e', 'j', 'a'];0;oreja;C:\2023\REPSWITCH21092023\REPSWITCH_excgange\REPSWITCH_excgange\data/03.01.02_REPSWITCH1_version1_list2_2023-11-10_16h53.17.642_micRespv1l2_recorded\recording_micRespv1l2_2023-11-10_16h58.44.113.wav;356.2411014;356.7411598;None;356.2411014;356.2411014;356.2411014;356.2411014;356.2411014;356.2411014;[1.1279920000233687, 1.3602062999852933, 1.4379173999768682, 1.6303687000181526, 1.7210112999891862];;;;;;03.01.02;1;2023-11-10_16h53.17.642;REPSWITCH1_version1_list2;2022.2.4;143.9113966;
REPSWITCH1/PICTURE_517.png;cuerda;speak;gold;filler;2;F;3;3;2;1;Stim4_Set2;0;None;67;66;67;0;66;66;66;;;;;;;;;;;;;;;;;;;;;;;356.7411598;357.7969052;357.7969052;357.7969052;357.7969052;357.7969052;357.7969052;357.7969052;357.7969052;None;0;;C:\2023\REPSWITCH21092023\REPSWITCH_excgange\REPSWITCH_excgange\data/03.01.02_REPSWITCH1_version1_list2_2023-11-10_16h53.17.642_micRespv1l2_recorded\recording_micRespv1l2_2023-11-10_16h58.48.691.wav;360.8181456;361.3182252;None;360.8181456;360.8181456;360.8181456;360.8181456;360.8181456;360.8181456;;;;;;;03.01.02;1;2023-11-10_16h53.17.642;REPSWITCH1_version1_list2;2022.2.4;143.9113966;
REPSWITCH1/PICTURE_30.png;granja;type;darkblue;filler;1;F;3;3;2;1;Stim5_Set2;1;switch;68;67;68;0;67;67;67;;;;;;;;;;;;;;;;;;;;;;;361.3182252;362.4155242;362.4155242;362.4155242;362.4155242;362.4155242;362.4155242;362.4155242;362.4155242;['g', 'r', 'a', 'n', 'j', 'a'];0;granja;C:\2023\REPSWITCH21092023\REPSWITCH_excgange\REPSWITCH_excgange\data/03.01.02_REPSWITCH1_version1_list2_2023-11-10_16h53.17.642_micRespv1l2_recorded\recording_micRespv1l2_2023-11-10_16h58.53.310.wav;365.4367356;365.9368346;None;365.4367356;365.4367356;365.4367356;365.4367356;365.4367356;365.4367356;[1.1986546000116505, 1.2933615000220016, 1.5770134000340477, 1.76122280000709, 2.127395900024567, 2.2336476999917068];;;;;;03.01.02;1;2023-11-10_16h53.17.642;REPSWITCH1_version1_list2;2022.2.4;143.9113966;
REPSWITCH1/PICTURE_242.png;cartero;type;darkblue;nontarget;1;NT;3;3;2;1;Stim3_Set3;0;None;69;68;69;0;68;68;68;;;;;;;;;;;;;;;;;;;;;;;365.9368346;366.9925383;366.9925383;366.9925383;366.9925383;366.9925383;366.9925383;366.9925383;366.9925383;['c', 'a', 'r', 't', 'e', 'r', 'o'];0;cartero;C:\2023\REPSWITCH21092023\REPSWITCH_excgange\REPSWITCH_excgange\data/03.01.02_REPSWITCH1_version1_list2_2023-11-10_16h53.17.642_micRespv1l2_recorded\recording_micRespv1l2_2023-11-10_16h58.57.888.wav;370.020712;;None;370.020712;370.020712;370.020712;370.020712;370.020712;370.020712;[1.6706870999769308, 1.83009859995218, 2.021422599966172, 2.182907599955797, 2.3423709999769926, 2.4440283000003546, 2.6035034999949858];;;;;;03.01.02;1;2023-11-10_16h53.17.642;REPSWITCH1_version1_list2;2022.2.4;143.9113966;
REPSWITCH1/PICTURE_242.png;cartero;type;darkblue;repeat;1;T;3;3;2;1;Stim3_Set3;0;None;70;69;70;0;69;69;69;;;;;;;;;;;;;;;;;;;;;;;370.5207717;371.6250993;371.6250993;371.6250993;371.6250993;371.6250993;371.6250993;371.6250993;371.6250993;['c', 'a', 'r', 't', 'e', 'r', 'o'];0;cartero;C:\2023\REPSWITCH21092023\REPSWITCH_excgange\REPSWITCH_excgange\data/03.01.02_REPSWITCH1_version1_list2_2023-11-10_16h53.17.642_micRespv1l2_recorded\recording_micRespv1l2_2023-11-10_16h59.02.520.wav;374.6532632;;None;374.6532632;374.6532632;374.6532632;374.6532632;374.6532632;374.6532632;[0.9539195999968797, 1.1014550999971107, 1.347900099994149, 1.581945700047072, 1.6686515000183135, 1.855169000045862, 2.002738400013186];;;;;;03.01.02;1;2023-11-10_16h53.17.642;REPSWITCH1_version1_list2;2022.2.4;143.9113966;
REPSWITCH1/PICTURE_264.png;mano;speak;gold;filler;2;F;3;3;2;1;Stim3_Set2;1;switch;71;70;71;0;70;70;70;;;;;;;;;;;;;;;;;;;;;;;375.1533079;376.3062375;376.3062375;376.3062375;376.3062375;376.3062375;376.3062375;376.3062375;376.3062375;None;0;;C:\2023\REPSWITCH21092023\REPSWITCH_excgange\REPSWITCH_excgange\data/03.01.02_REPSWITCH1_version1_list2_2023-11-10_16h53.17.642_micRespv1l2_recorded\recording_micRespv1l2_2023-11-10_16h59.07.200.wav;379.3274807;379.8275508;None;379.3274807;379.3274807;379.3274807;379.3274807;379.3274807;379.3274807;;;;;;;03.01.02;1;2023-11-10_16h53.17.642;REPSWITCH1_version1_list2;2022.2.4;143.9113966;
REPSWITCH1/PICTURE_576.png;guante;type;darkblue;nontarget;1;NT;3;3;2;1;Stim1_Set3;1;switch;72;71;72;0;71;71;71;;;;;;;;;;;;;;;;;;;;;;;379.8275508;380.9110111;380.9110111;380.9110111;380.9110111;380.9110111;380.9110111;380.9110111;380.9110111;['g', 'u', 'a', 'n', 't', 'e'];0;guante;C:\2023\REPSWITCH21092023\REPSWITCH_excgange\REPSWITCH_excgange\data/03.01.02_REPSWITCH1_version1_list2_2023-11-10_16h53.17.642_micRespv1l2_recorded\recording_micRespv1l2_2023-11-10_16h59.11.804.wav;383.932246;384.4323931;None;383.932246;383.932246;383.932246;383.932246;383.932246;383.932246;[1.0634177000029013, 1.2318541000131518, 1.3585796999977902, 1.4831097000278533, 1.63460990000749, 1.7093582000234164];;;;;;03.01.02;1;2023-11-10_16h53.17.642;REPSWITCH1_version1_list2;2022.2.4;143.9113966;
REPSWITCH1/PICTURE_576.png;guante;type;darkblue;repeat;1;T;3;3;2;1;Stim1_Set3;0;None;73;72;73;0;72;72;72;;;;;;;;;;;;;;;;;;;;;;;384.4323931;385.5991926;385.5991926;385.5991926;385.5991926;385.5991926;385.5991926;385.5991926;385.5991926;['g', 'u', 'a', 'n', 't', 'e'];0;guante;C:\2023\REPSWITCH21092023\REPSWITCH_excgange\REPSWITCH_excgange\data/03.01.02_REPSWITCH1_version1_list2_2023-11-10_16h53.17.642_micRespv1l2_recorded\recording_micRespv1l2_2023-11-10_16h59.16.494.wav;388.6203453;389.1205018;None;388.6203453;388.6203453;388.6203453;388.6203453;388.6203453;388.6203453;[1.4311666000285186, 1.5691349999979138, 1.7305318000144325, 1.861106500029564, 2.0005918000242673, 2.0803562000510283];;;;;;03.01.02;1;2023-11-10_16h53.17.642;REPSWITCH1_version1_list2;2022.2.4;143.9113966;
REPSWITCH1/PICTURE_175.png;pintor;speak;gold;filler;2;F;3;3;2;1;Stim1_Set2;0;None;74;73;74;0;73;73;73;;;;;;;;;;;;;;;;;;;;;;;389.1205018;390.1484122;390.1484122;390.1484122;390.1484122;390.1484122;390.1484122;390.1484122;390.1484122;None;0;;C:\2023\REPSWITCH21092023\REPSWITCH_excgange\REPSWITCH_excgange\data/03.01.02_REPSWITCH1_version1_list2_2023-11-10_16h53.17.642_micRespv1l2_recorded\recording_micRespv1l2_2023-11-10_16h59.21.042.wav;393.1695729;393.6696221;None;393.1695729;393.1695729;393.1695729;393.1695729;393.1695729;393.1695729;;;;;;;03.01.02;1;2023-11-10_16h53.17.642;REPSWITCH1_version1_list2;2022.2.4;143.9113966;
REPSWITCH1/PICTURE_498.png;taza;type;darkblue;nontarget;1;NT;4;3;2;1;Stim4_Set4;0;None;75;74;75;0;74;74;74;;;;;;;;;;;;;;;;;;;;;;;393.6696221;394.7530998;394.7530998;394.7530998;394.7530998;394.7530998;394.7530998;394.7530998;394.7530998;['t', 'a', 'z', 'a'];0;taza;C:\2023\REPSWITCH21092023\REPSWITCH_excgange\REPSWITCH_excgange\data/03.01.02_REPSWITCH1_version1_list2_2023-11-10_16h53.17.642_micRespv1l2_recorded\recording_micRespv1l2_2023-11-10_16h59.25.646.wav;397.7743609;398.2744714;None;397.7743609;397.7743609;397.7743609;397.7743609;397.7743609;397.7743609;[1.0970357999904081, 1.1960248000104912, 1.4013371000182815, 1.5368708000169136];;;;;;03.01.02;1;2023-11-10_16h53.17.642;REPSWITCH1_version1_list2;2022.2.4;143.9113966;
REPSWITCH1/PICTURE_498.png;taza;type;darkblue;repeat;1;T;4;3;2;1;Stim4_Set4;0;None;76;75;76;0;75;75;75;;;;;;;;;;;;;;;;;;;;;;;398.2744714;399.3440202;399.3440202;399.3440202;399.3440202;399.3440202;399.3440202;399.3440202;399.3440202;['t', 'a', 'z', 'a'];0;taza;C:\2023\REPSWITCH21092023\REPSWITCH_excgange\REPSWITCH_excgange\data/03.01.02_REPSWITCH1_version1_list2_2023-11-10_16h53.17.642_micRespv1l2_recorded\recording_micRespv1l2_2023-11-10_16h59.30.238.wav;402.365264;402.8652751;None;402.365264;402.365264;402.365264;402.365264;402.365264;402.365264;[0.9064123000134714, 1.0272964999894612, 1.2066960000083782, 1.3332674999837764];;;;;;03.01.02;1;2023-11-10_16h53.17.642;REPSWITCH1_version1_list2;2022.2.4;143.9113966;
REPSWITCH1/PICTURE_235.png;aguja;speak;gold;filler;2;F;4;3;2;1;Stim4_Set3;0;None;77;76;77;0;76;76;76;;;;;;;;;;;;;;;;;;;;;;;402.8652751;403.9279349;403.9279349;403.9279349;403.9279349;403.9279349;403.9279349;403.9279349;403.9279349;None;0;;C:\2023\REPSWITCH21092023\REPSWITCH_excgange\REPSWITCH_excgange\data/03.01.02_REPSWITCH1_version1_list2_2023-11-10_16h53.17.642_micRespv1l2_recorded\recording_micRespv1l2_2023-11-10_16h59.34.822.wav;406.949118;407.4491965;None;406.949118;406.949118;406.949118;406.949118;406.949118;406.949118;;;;;;;03.01.02;1;2023-11-10_16h53.17.642;REPSWITCH1_version1_list2;2022.2.4;143.9113966;
REPSWITCH1/PICTURE_338.png;regalo;type;darkblue;nontarget;1;NT;4;3;2;1;Stim6_Set4;1;switch;78;77;78;0;77;77;77;;;;;;;;;;;;;;;;;;;;;;;407.4491965;408.5326834;408.5326834;408.5326834;408.5326834;408.5326834;408.5326834;408.5326834;408.5326834;['r', 'e', 'g', 'a', 'l', 'o'];0;regalo;C:\2023\REPSWITCH21092023\REPSWITCH_excgange\REPSWITCH_excgange\data/03.01.02_REPSWITCH1_version1_list2_2023-11-10_16h53.17.642_micRespv1l2_recorded\recording_micRespv1l2_2023-11-10_16h59.39.427.wav;411.5608853;;None;411.5608853;411.5608853;411.5608853;411.5608853;411.5608853;411.5608853;[1.1847644000081345, 1.2704466999857686, 1.536209299985785, 1.6926161000155844, 1.9895465999725275, 2.1390671000117436];;;;;;03.01.02;1;2023-11-10_16h53.17.642;REPSWITCH1_version1_list2;2022.2.4;143.9113966;
REPSWITCH1/PICTURE_338.png;regalo;speak;gold;switch;2;T;4;3;2;1;Stim6_Set4;0;None;79;78;79;0;78;78;78;;;;;;;;;;;;;;;;;;;;;;;412.0609404;413.1999572;413.1999572;413.1999572;413.1999572;413.1999572;413.1999572;413.1999572;413.1999572;None;0;;C:\2023\REPSWITCH21092023\REPSWITCH_excgange\REPSWITCH_excgange\data/03.01.02_REPSWITCH1_version1_list2_2023-11-10_16h53.17.642_micRespv1l2_recorded\recording_micRespv1l2_2023-11-10_16h59.44.094.wav;416.2212034;416.7213384;None;416.2212034;416.2212034;416.2212034;416.2212034;416.2212034;416.2212034;;;;;;;03.01.02;1;2023-11-10_16h53.17.642;REPSWITCH1_version1_list2;2022.2.4;143.9113966;
REPSWITCH1/PICTURE_719.png;baño;speak;gold;nontarget;2;NT;4;3;2;1;Stim2_Set4;1;repeat;80;79;80;0;79;79;79;;;;;;;;;;;;;;;;;;;;;;;416.7213384;417.7978565;417.7978565;417.7978565;417.7978565;417.7978565;417.7978565;417.7978565;417.7978565;None;0;;C:\2023\REPSWITCH21092023\REPSWITCH_excgange\REPSWITCH_excgange\data/03.01.02_REPSWITCH1_version1_list2_2023-11-10_16h53.17.642_micRespv1l2_recorded\recording_micRespv1l2_2023-11-10_16h59.48.692.wav;420.8190324;421.3190693;None;420.8190324;420.8190324;420.8190324;420.8190324;420.8190324;420.8190324;;;;;;;03.01.02;1;2023-11-10_16h53.17.642;REPSWITCH1_version1_list2;2022.2.4;143.9113966;
REPSWITCH1/PICTURE_719.png;baño;speak;gold;repeat;2;T;4;3;2;1;Stim2_Set4;0;None;81;80;81;0;80;80;80;;;;;;;;;;;;;;;;;;;;;;;421.3190693;422.4234665;422.4234665;422.4234665;422.4234665;422.4234665;422.4234665;422.4234665;422.4234665;None;0;;C:\2023\REPSWITCH21092023\REPSWITCH_excgange\REPSWITCH_excgange\data/03.01.02_REPSWITCH1_version1_list2_2023-11-10_16h53.17.642_micRespv1l2_recorded\recording_micRespv1l2_2023-11-10_16h59.53.318.wav;425.4446392;425.9446972;None;425.4446392;425.4446392;425.4446392;425.4446392;425.4446392;425.4446392;;;;;;;03.01.02;1;2023-11-10_16h53.17.642;REPSWITCH1_version1_list2;2022.2.4;143.9113966;
REPSWITCH1/PICTURE_271.png;conejo;type;darkblue;filler;1;F;4;3;2;1;Stim7_Set3;0;None;82;81;82;0;81;81;81;;;;;;;;;;;;;;;;;;;;;;;425.9446972;427.1115437;427.1115437;427.1115437;427.1115437;427.1115437;427.1115437;427.1115437;427.1115437;['c', 'o', 'n', 'e', 'j', 'o'];0;conejo;C:\2023\REPSWITCH21092023\REPSWITCH_excgange\REPSWITCH_excgange\data/03.01.02_REPSWITCH1_version1_list2_2023-11-10_16h53.17.642_micRespv1l2_recorded\recording_micRespv1l2_2023-11-10_16h59.58.006.wav;430.1327714;430.6328067;None;430.1327714;430.1327714;430.1327714;430.1327714;430.1327714;430.1327714;[1.1572150000138208, 1.378436800034251, 1.4869044999941252, 1.7432711000437848, 1.8339390000328422, 1.9276577000273392];;;;;;03.01.02;1;2023-11-10_16h53.17.642;REPSWITCH1_version1_list2;2022.2.4;143.9113966;
REPSWITCH1/PICTURE_610.png;miel;speak;gold;filler;2;F;4;3;2;1;Stim2_Set3;0;None;83;82;83;0;82;82;82;;;;;;;;;;;;;;;;;;;;;;;430.6328067;431.7162809;431.7162809;431.7162809;431.7162809;431.7162809;431.7162809;431.7162809;431.7162809;None;0;;C:\2023\REPSWITCH21092023\REPSWITCH_excgange\REPSWITCH_excgange\data/03.01.02_REPSWITCH1_version1_list2_2023-11-10_16h53.17.642_micRespv1l2_recorded\recording_micRespv1l2_2023-11-10_17h00.02.610.wav;434.737496;435.2376478;None;434.737496;434.737496;434.737496;434.737496;434.737496;434.737496;;;;;;;03.01.02;1;2023-11-10_16h53.17.642;REPSWITCH1_version1_list2;2022.2.4;143.9113966;
REPSWITCH1/PICTURE_687.png;camisa;speak;gold;nontarget;2;NT;4;3;2;1;Stim5_Set4;1;repeat;84;83;84;0;83;83;83;;;;;;;;;;;;;;;;;;;;;;;435.2376478;436.3140931;436.3140931;436.3140931;436.3140931;436.3140931;436.3140931;436.3140931;436.3140931;None;0;;C:\2023\REPSWITCH21092023\REPSWITCH_excgange\REPSWITCH_excgange\data/03.01.02_REPSWITCH1_version1_list2_2023-11-10_16h53.17.642_micRespv1l2_recorded\recording_micRespv1l2_2023-11-10_17h00.07.207.wav;439.3353418;439.8354922;None;439.3353418;439.3353418;439.3353418;439.3353418;439.3353418;439.3353418;;;;;;;03.01.02;1;2023-11-10_16h53.17.642;REPSWITCH1_version1_list2;2022.2.4;143.9113966;
REPSWITCH1/PICTURE_687.png;camisa;type;darkblue;switch;1;T;4;3;2;1;Stim5_Set4;0;None;85;84;85;0;84;84;84;;;;;;;;;;;;;;;;;;;;;;;439.8354922;440.9466557;440.9466557;440.9466557;440.9466557;440.9466557;440.9466557;440.9466557;440.9466557;['c', 'a', 'm', 'i', 's', 'a'];0;camisa;C:\2023\REPSWITCH21092023\REPSWITCH_excgange\REPSWITCH_excgange\data/03.01.02_REPSWITCH1_version1_list2_2023-11-10_16h53.17.642_micRespv1l2_recorded\recording_micRespv1l2_2023-11-10_17h00.11.840.wav;443.967901;444.4679273;None;443.967901;443.967901;443.967901;443.967901;443.967901;443.967901;[0.8953321999870241, 1.0518492999835871, 1.1864095999626443, 1.3080232999636792, 1.4459207999752834, 1.5346198999905027];;;;;;03.01.02;1;2023-11-10_16h53.17.642;REPSWITCH1_version1_list2;2022.2.4;143.9113966;
REPSWITCH1/PICTURE_319.png;vaca;type;darkblue;nontarget;1;NT;4;3;2;1;Stim1_Set4;0;None;86;85;86;0;85;85;85;;;;;;;;;;;;;;;;;;;;;;;444.4679273;445.5444765;445.5444765;445.5444765;445.5444765;445.5444765;445.5444765;445.5444765;445.5444765;['v', 'a', 'c', 'a'];0;vaca;C:\2023\REPSWITCH21092023\REPSWITCH_excgange\REPSWITCH_excgange\data/03.01.02_REPSWITCH1_version1_list2_2023-11-10_16h53.17.642_micRespv1l2_recorded\recording_micRespv1l2_2023-11-10_17h00.16.439.wav;448.5657225;449.0657872;None;448.5657225;448.5657225;448.5657225;448.5657225;448.5657225;448.5657225;[1.57845960004488, 1.915559699991718, 2.124123600020539, 2.2227617999888025];;;;;;03.01.02;1;2023-11-10_16h53.17.642;REPSWITCH1_version1_list2;2022.2.4;143.9113966;
REPSWITCH1/PICTURE_319.png;vaca;speak;gold;switch;2;T;4;3;2;1;Stim1_Set4;0;None;87;86;87;0;86;86;86;;;;;;;;;;;;;;;;;;;;;;;449.0657872;450.1631674;450.1631674;450.1631674;450.1631674;450.1631674;450.1631674;450.1631674;450.1631674;None;0;;C:\2023\REPSWITCH21092023\REPSWITCH_excgange\REPSWITCH_excgange\data/03.01.02_REPSWITCH1_version1_list2_2023-11-10_16h53.17.642_micRespv1l2_recorded\recording_micRespv1l2_2023-11-10_17h00.21.058.wav;453.1913243;;None;453.1913243;453.1913243;453.1913243;453.1913243;453.1913243;453.1913243;;;;;;;03.01.02;1;2023-11-10_16h53.17.642;REPSWITCH1_version1_list2;2022.2.4;143.9113966;
REPSWITCH1/PICTURE_464.png;goma;type;darkblue;filler;1;F;4;3;2;1;Stim6_Set3;1;switch;88;87;88;0;87;87;87;;;;;;;;;;;;;;;;;;;;;;;453.6914678;454.7818015;454.7818015;454.7818015;454.7818015;454.7818015;454.7818015;454.7818015;454.7818015;['g', 'o', 'm', 'a'];0;goma;C:\2023\REPSWITCH21092023\REPSWITCH_excgange\REPSWITCH_excgange\data/03.01.02_REPSWITCH1_version1_list2_2023-11-10_16h53.17.642_micRespv1l2_recorded\recording_micRespv1l2_2023-11-10_17h00.25.676.wav;457.8030191;458.3030823;None;457.8030191;457.8030191;457.8030191;457.8030191;457.8030191;457.8030191;[1.4074150000233203, 1.6225963999750093, 1.8558431999990717, 2.2415376999997534];;;;;;03.01.02;1;2023-11-10_16h53.17.642;REPSWITCH1_version1_list2;2022.2.4;143.9113966;
REPSWITCH1/PICTURE_728.png;pulpo;speak;gold;nontarget;2;NT;4;3;2;1;Stim8_Set4;1;switch;89;88;89;0;88;88;88;;;;;;;;;;;;;;;;;;;;;;;458.3030823;459.3935134;459.3935134;459.3935134;459.3935134;459.3935134;459.3935134;459.3935134;459.3935134;None;0;;C:\2023\REPSWITCH21092023\REPSWITCH_excgange\REPSWITCH_excgange\data/03.01.02_REPSWITCH1_version1_list2_2023-11-10_16h53.17.642_micRespv1l2_recorded\recording_micRespv1l2_2023-11-10_17h00.30.288.wav;462.4147315;462.9148211;None;462.4147315;462.4147315;462.4147315;462.4147315;462.4147315;462.4147315;;;;;;;03.01.02;1;2023-11-10_16h53.17.642;REPSWITCH1_version1_list2;2022.2.4;143.9113966;
REPSWITCH1/PICTURE_728.png;pulpo;speak;gold;repeat;2;T;4;3;2;1;Stim8_Set4;0;None;90;89;90;0;89;89;89;;;;;;;;;;;;;;;;;;;;;;;462.9148211;463.9913393;463.9913393;463.9913393;463.9913393;463.9913393;463.9913393;463.9913393;463.9913393;None;0;;C:\2023\REPSWITCH21092023\REPSWITCH_excgange\REPSWITCH_excgange\data/03.01.02_REPSWITCH1_version1_list2_2023-11-10_16h53.17.642_micRespv1l2_recorded\recording_micRespv1l2_2023-11-10_17h00.34.885.wav;467.0126568;467.5126548;None;467.0126568;467.0126568;467.0126568;467.0126568;467.0126568;467.0126568;;;;;;;03.01.02;1;2023-11-10_16h53.17.642;REPSWITCH1_version1_list2;2022.2.4;143.9113966;
REPSWITCH1/PICTURE_320.png;iglesia;type;darkblue;filler;1;F;4;3;2;1;Stim8_Set3;0;None;91;90;91;0;90;90;90;;;;;;;;;;;;;;;;;;;;;;;467.5126548;468.7003699;468.7003699;468.7003699;468.7003699;468.7003699;468.7003699;468.7003699;468.7003699;['i', 'g', 'l', 'e', 'i', 's'];0;igleis;C:\2023\REPSWITCH21092023\REPSWITCH_excgange\REPSWITCH_excgange\data/03.01.02_REPSWITCH1_version1_list2_2023-11-10_16h53.17.642_micRespv1l2_recorded\recording_micRespv1l2_2023-11-10_17h00.39.594.wav;471.7215303;472.2216582;None;471.7215303;471.7215303;471.7215303;471.7215303;471.7215303;471.7215303;[1.2508574000094086, 1.669728100008797, 1.9845613000215963, 2.130107400007546, 2.5565868000267074, 2.576507700025104];;;;;;03.01.02;1;2023-11-10_16h53.17.642;REPSWITCH1_version1_list2;2022.2.4;143.9113966;
REPSWITCH1/PICTURE_576.png;guante;speak;gold;filler;2;F;4;3;2;1;Stim1_Set3;0;None;92;91;92;0;91;91;91;;;;;;;;;;;;;;;;;;;;;;;472.2216582;473.3676104;473.3676104;473.3676104;473.3676104;473.3676104;473.3676104;473.3676104;473.3676104;None;0;;C:\2023\REPSWITCH21092023\REPSWITCH_excgange\REPSWITCH_excgange\data/03.01.02_REPSWITCH1_version1_list2_2023-11-10_16h53.17.642_micRespv1l2_recorded\recording_micRespv1l2_2023-11-10_17h00.44.262.wav;476.3887751;476.8888729;None;476.3887751;476.3887751;476.3887751;476.3887751;476.3887751;476.3887751;;;;;;;03.01.02;1;2023-11-10_16h53.17.642;REPSWITCH1_version1_list2;2022.2.4;143.9113966;
REPSWITCH1/PICTURE_8.png;pierna;speak;gold;nontarget;2;NT;4;3;2;1;Stim3_Set4;1;repeat;93;92;93;0;92;92;92;;;;;;;;;;;;;;;;;;;;;;;476.8888729;477.9723542;477.9723542;477.9723542;477.9723542;477.9723542;477.9723542;477.9723542;477.9723542;None;0;;C:\2023\REPSWITCH21092023\REPSWITCH_excgange\REPSWITCH_excgange\data/03.01.02_REPSWITCH1_version1_list2_2023-11-10_16h53.17.642_micRespv1l2_recorded\recording_micRespv1l2_2023-11-10_17h00.48.866.wav;480.9935843;481.4936083;None;480.9935843;480.9935843;480.9935843;480.9935843;480.9935843;480.9935843;;;;;;;03.01.02;1;2023-11-10_16h53.17.642;REPSWITCH1_version1_list2;2022.2.4;143.9113966;
REPSWITCH1/PICTURE_8.png;pierna;type;darkblue;switch;1;T;4;3;2;1;Stim3_Set4;0;None;94;93;94;0;93;93;93;;;;;;;;;;;;;;;;;;;;;;;481.4936083;482.5979569;482.5979569;482.5979569;482.5979569;482.5979569;482.5979569;482.5979569;482.5979569;['p', 'i', 'e', 'r', 'n', 'a'];0;pierna;C:\2023\REPSWITCH21092023\REPSWITCH_excgange\REPSWITCH_excgange\data/03.01.02_REPSWITCH1_version1_list2_2023-11-10_16h53.17.642_micRespv1l2_recorded\recording_micRespv1l2_2023-11-10_17h00.53.491.wav;485.6191756;486.1192538;None;485.6191756;485.6191756;485.6191756;485.6191756;485.6191756;485.6191756;[0.9483098000055179, 1.1798956000129692, 1.3684008999844082, 1.4730500999721698, 1.6664145999820903, 1.7638432999956422];;;;;;03.01.02;1;2023-11-10_16h53.17.642;REPSWITCH1_version1_list2;2022.2.4;143.9113966;
REPSWITCH1/PICTURE_673.png;tenedor;speak;gold;filler;2;F;4;3;2;1;Extra5;0;None;95;94;95;0;94;94;94;;;;;;;;;;;;;;;;;;;;;;;486.1192538;487.2374367;487.2374367;487.2374367;487.2374367;487.2374367;487.2374367;487.2374367;487.2374367;None;0;;C:\2023\REPSWITCH21092023\REPSWITCH_excgange\REPSWITCH_excgange\data/03.01.02_REPSWITCH1_version1_list2_2023-11-10_16h53.17.642_micRespv1l2_recorded\recording_micRespv1l2_2023-11-10_17h00.58.132.wav;490.2587297;490.7588153;None;490.2587297;490.2587297;490.2587297;490.2587297;490.2587297;490.2587297;;;;;;;03.01.02;1;2023-11-10_16h53.17.642;REPSWITCH1_version1_list2;2022.2.4;143.9113966;
REPSWITCH1/PICTURE_35.png;oreja;type;darkblue;filler;1;F;4;3;2;1;Stim5_Set3;1;switch;96;95;96;0;95;95;95;;;;;;;;;;;;;;;;;;;;;;;490.7588153;491.8908618;491.8908618;491.8908618;491.8908618;491.8908618;491.8908618;491.8908618;491.8908618;['o', 'r', 'e', 'j', 'a'];0;oreja;C:\2023\REPSWITCH21092023\REPSWITCH_excgange\REPSWITCH_excgange\data/03.01.02_REPSWITCH1_version1_list2_2023-11-10_16h53.17.642_micRespv1l2_recorded\recording_micRespv1l2_2023-11-10_17h01.02.784.wav;494.9121055;495.4121093;None;494.9121055;494.9121055;494.9121055;494.9121055;494.9121055;494.9121055;[1.061135700030718, 1.3002178000169806, 1.3874948000302538, 1.5803712000488304, 1.6830250000348315];;;;;;03.01.02;1;2023-11-10_16h53.17.642;REPSWITCH1_version1_list2;2022.2.4;143.9113966;
REPSWITCH1/PICTURE_663.png;columna;speak;gold;filler;2;F;4;3;2;1;Extra6;0;None;97;96;97;0;96;96;96;;;;;;;;;;;;;;;;;;;;;;;495.4121093;496.5095607;496.5095607;496.5095607;496.5095607;496.5095607;496.5095607;496.5095607;496.5095607;None;0;;C:\2023\REPSWITCH21092023\REPSWITCH_excgange\REPSWITCH_excgange\data/03.01.02_REPSWITCH1_version1_list2_2023-11-10_16h53.17.642_micRespv1l2_recorded\recording_micRespv1l2_2023-11-10_17h01.07.404.wav;499.5307384;500.0307938;None;499.5307384;499.5307384;499.5307384;499.5307384;499.5307384;499.5307384;;;;;;;03.01.02;1;2023-11-10_16h53.17.642;REPSWITCH1_version1_list2;2022.2.4;143.9113966;
REPSWITCH1/PICTURE_242.png;cartero;type;darkblue;filler;1;F;4;3;2;1;Stim3_Set3;1;switch;98;97;98;0;97;97;97;;;;;;;;;;;;;;;;;;;;;;;500.0307938;501.14905;501.14905;501.14905;501.14905;501.14905;501.14905;501.14905;501.14905;['c', 'a', 'r', 't', 'e', 'r', 'o'];0;cartero;C:\2023\REPSWITCH21092023\REPSWITCH_excgange\REPSWITCH_excgange\data/03.01.02_REPSWITCH1_version1_list2_2023-11-10_16h53.17.642_micRespv1l2_recorded\recording_micRespv1l2_2023-11-10_17h01.12.043.wav;504.1771286;;None;504.1771286;504.1771286;504.1771286;504.1771286;504.1771286;504.1771286;[1.194172499992419, 1.3257195000187494, 1.6125996999908239, 1.858805600029882, 1.9604709999985062, 2.1218812000006437, 2.222014200000558];;;;;;03.01.02;1;2023-11-10_16h53.17.642;REPSWITCH1_version1_list2;2022.2.4;143.9113966;
REPSWITCH1/PICTURE_48.png;bombero;type;darkblue;nontarget;1;NT;4;3;2;1;Stim7_Set4;1;repeat;99;98;99;0;98;98;98;;;;;;;;;;;;;;;;;;;;;;;504.6772352;505.8580097;505.8580097;505.8580097;505.8580097;505.8580097;505.8580097;505.8580097;505.8580097;['b', 'o', 'm', 'b', 'e', 'r', 'o'];0;bombero;C:\2023\REPSWITCH21092023\REPSWITCH_excgange\REPSWITCH_excgange\data/03.01.02_REPSWITCH1_version1_list2_2023-11-10_16h53.17.642_micRespv1l2_recorded\recording_micRespv1l2_2023-11-10_17h01.16.752.wav;508.8791601;509.379245;None;508.8791601;508.8791601;508.8791601;508.8791601;508.8791601;508.8791601;[1.1123971000197344, 1.3286646999767981, 1.416375499975402, 1.5902212000219151, 1.9019286999828182, 1.9749730000039563, 2.0945665999897756];;;;;;03.01.02;1;2023-11-10_16h53.17.642;REPSWITCH1_version1_list2;2022.2.4;143.9113966;
REPSWITCH1/PICTURE_48.png;bombero;type;darkblue;repeat;1;T;4;3;2;1;Stim7_Set4;0;None;100;99;100;0;99;99;99;;;;;;;;;;;;;;;;;;;;;;;509.379245;510.525226;510.525226;510.525226;510.525226;510.525226;510.525226;510.525226;510.525226;['b', 'o', 'm', 'b', 'r', 'backspace', 'e', 'r'];0;bomber;C:\2023\REPSWITCH21092023\REPSWITCH_excgange\REPSWITCH_excgange\data/03.01.02_REPSWITCH1_version1_list2_2023-11-10_16h53.17.642_micRespv1l2_recorded\recording_micRespv1l2_2023-11-10_17h01.21.420.wav;513.5533876;;None;513.5533876;513.5533876;513.5533876;513.5533876;513.5533876;513.5533876;[1.1748056000215001, 1.303515400039032, 1.4002028000541031, 1.6366523000178859, 1.8911127000465058, 2.5872400000225753, 2.712161500006914, 2.795747200027108];;;;;;03.01.02;1;2023-11-10_16h53.17.642;REPSWITCH1_version1_list2;2022.2.4;143.9113966;
REPSWITCH1/PICTURE_391.png;cadena;speak;gold;filler;2;F;4;3;2;1;Extra2;0;None;101;100;101;0;100;100;100;;;;;;;;;;;;;;;;;;;;;;;514.0534688;515.1439266;515.1439266;515.1439266;515.1439266;515.1439266;515.1439266;515.1439266;515.1439266;None;0;;C:\2023\REPSWITCH21092023\REPSWITCH_excgange\REPSWITCH_excgange\data/03.01.02_REPSWITCH1_version1_list2_2023-11-10_16h53.17.642_micRespv1l2_recorded\recording_micRespv1l2_2023-11-10_17h01.26.038.wav;518.1650974;518.6651634;None;518.1650974;518.1650974;518.1650974;518.1650974;518.1650974;518.1650974;;;;;;;03.01.02;1;2023-11-10_16h53.17.642;REPSWITCH1_version1_list2;2022.2.4;143.9113966;
REPSWITCH1/PICTURE_590.png;escoba;type;darkblue;filler;1;F;4;3;2;1;Extra3;0;None;102;101;102;0;101;101;101;;;;;;;;;;;;;;;;;;;;;;;518.6651634;519.7139909;519.7139909;519.7139909;519.7139909;519.7139909;519.7139909;519.7139909;519.7139909;['e', 's', 'c', 'o', 'b', 'a'];0;escoba;C:\2023\REPSWITCH21092023\REPSWITCH_excgange\REPSWITCH_excgange\data/03.01.02_REPSWITCH1_version1_list2_2023-11-10_16h53.17.642_micRespv1l2_recorded\recording_micRespv1l2_2023-11-10_17h01.30.608.wav;522.7351515;523.2352266;space;522.7351515;522.7351515;522.7351515;522.7351515;522.7351515;522.7351515;[1.2020965999690816, 1.4243432999937795, 1.6625564999994822, 1.7960591999581084, 2.1163399999495596, 2.246905199950561];523.2352266;523.2352266;12.7361218;;;03.01.02;1;2023-11-10_16h53.17.642;REPSWITCH1_version1_list2;2022.2.4;143.9113966;
REPSWITCH1/PICTURE_340.png;espejo;type;darkblue;filler;1;F;1;1;2;1;Extra1;0;None;103;102;1;0;102;102;102;;;;;;;;;;;;;;;;;;;;;;;535.9799483;537.0286846;537.0286846;537.0286846;537.0286846;537.0286846;537.0286846;537.0286846;537.0286846;['e', 's', 'p', 'e', 'j', 'o'];0;espejo;C:\2023\REPSWITCH21092023\REPSWITCH_excgange\REPSWITCH_excgange\data/03.01.02_REPSWITCH1_version1_list2_2023-11-10_16h53.17.642_micRespv1l2_recorded\recording_micRespv1l2_2023-11-10_17h01.47.924.wav;540.0568971;;None;540.0568971;540.0568971;540.0568971;540.0568971;540.0568971;540.0568971;[1.185528899950441, 1.3898418999742717, 1.591264399990905, 1.7111922999611124, 1.906687599956058, 1.9948920999886468];;;;;;03.01.02;1;2023-11-10_16h53.17.642;REPSWITCH1_version1_list2;2022.2.4;143.9113966;
REPSWITCH1/PICTURE_391.png;cadena;speak;gold;filler;2;F;1;1;2;1;Extra2;0;None;104;103;2;0;103;103;103;;;;;;;;;;;;;;;;;;;;;;;540.5569204;541.6057027;541.6057027;541.6057027;541.6057027;541.6057027;541.6057027;541.6057027;541.6057027;None;0;;C:\2023\REPSWITCH21092023\REPSWITCH_excgange\REPSWITCH_excgange\data/03.01.02_REPSWITCH1_version1_list2_2023-11-10_16h53.17.642_micRespv1l2_recorded\recording_micRespv1l2_2023-11-10_17h01.52.499.wav;544.6269076;545.1269454;None;544.6269076;544.6269076;544.6269076;544.6269076;544.6269076;544.6269076;;;;;;;03.01.02;1;2023-11-10_16h53.17.642;REPSWITCH1_version1_list2;2022.2.4;143.9113966;
REPSWITCH1/PICTURE_178.png;puente;speak;gold;nontarget;2;NT;1;1;2;1;Stim1_Set1;1;repeat;105;104;3;0;104;104;104;;;;;;;;;;;;;;;;;;;;;;;545.1269454;546.2173904;546.2173904;546.2173904;546.2173904;546.2173904;546.2173904;546.2173904;546.2173904;None;0;;C:\2023\REPSWITCH21092023\REPSWITCH_excgange\REPSWITCH_excgange\data/03.01.02_REPSWITCH1_version1_list2_2023-11-10_16h53.17.642_micRespv1l2_recorded\recording_micRespv1l2_2023-11-10_17h01.57.111.wav;549.2386353;549.7387615;None;549.2386353;549.2386353;549.2386353;549.2386353;549.2386353;549.2386353;;;;;;;03.01.02;1;2023-11-10_16h53.17.642;REPSWITCH1_version1_list2;2022.2.4;143.9113966;
REPSWITCH1/PICTURE_178.png;puente;speak;gold;repeat;2;T;1;1;2;1;Stim1_Set1;0;None;106;105;4;0;105;105;105;;;;;;;;;;;;;;;;;;;;;;;549.7387615;550.8013496;550.8013496;550.8013496;550.8013496;550.8013496;550.8013496;550.8013496;550.8013496;None;0;;C:\2023\REPSWITCH21092023\REPSWITCH_excgange\REPSWITCH_excgange\data/03.01.02_REPSWITCH1_version1_list2_2023-11-10_16h53.17.642_micRespv1l2_recorded\recording_micRespv1l2_2023-11-10_17h02.01.695.wav;553.8225467;554.3226935;None;553.8225467;553.8225467;553.8225467;553.8225467;553.8225467;553.8225467;;;;;;;03.01.02;1;2023-11-10_16h53.17.642;REPSWITCH1_version1_list2;2022.2.4;143.9113966;
REPSWITCH1/PICTURE_319.png;vaca;type;darkblue;filler;1;F;1;1;2;1;Stim1_Set4;0;None;107;106;5;0;106;106;106;;;;;;;;;;;;;;;;;;;;;;;554.3226935;555.3783919;555.3783919;555.3783919;555.3783919;555.3783919;555.3783919;555.3783919;555.3783919;['v', 'a', 'c', 'a'];0;vaca;C:\2023\REPSWITCH21092023\REPSWITCH_excgange\REPSWITCH_excgange\data/03.01.02_REPSWITCH1_version1_list2_2023-11-10_16h53.17.642_micRespv1l2_recorded\recording_micRespv1l2_2023-11-10_17h02.06.272.wav;558.3995551;558.8996956;None;558.3995551;558.3995551;558.3995551;558.3995551;558.3995551;558.3995551;[1.384282400016673, 1.5218280000262894, 1.6204870999790728, 1.7321181999868713];;;;;;03.01.02;1;2023-11-10_16h53.17.642;REPSWITCH1_version1_list2;2022.2.4;143.9113966;
REPSWITCH1/PICTURE_381.png;fresa;speak;gold;nontarget;2;NT;1;1;2;1;Stim2_Set1;1;switch;108;107;6;0;107;107;107;;;;;;;;;;;;;;;;;;;;;;;558.8996956;559.955341;559.955341;559.955341;559.955341;559.955341;559.955341;559.955341;559.955341;None;0;;C:\2023\REPSWITCH21092023\REPSWITCH_excgange\REPSWITCH_excgange\data/03.01.02_REPSWITCH1_version1_list2_2023-11-10_16h53.17.642_micRespv1l2_recorded\recording_micRespv1l2_2023-11-10_17h02.10.849.wav;562.9765093;563.4766166;None;562.9765093;562.9765093;562.9765093;562.9765093;562.9765093;562.9765093;;;;;;;03.01.02;1;2023-11-10_16h53.17.642;REPSWITCH1_version1_list2;2022.2.4;143.9113966;
REPSWITCH1/PICTURE_381.png;fresa;speak;gold;repeat;2;T;1;1;2;1;Stim2_Set1;0;None;109;108;7;0;108;108;108;;;;;;;;;;;;;;;;;;;;;;;563.4766166;564.6087052;564.6087052;564.6087052;564.6087052;564.6087052;564.6087052;564.6087052;564.6087052;None;0;;C:\2023\REPSWITCH21092023\REPSWITCH_excgange\REPSWITCH_excgange\data/03.01.02_REPSWITCH1_version1_list2_2023-11-10_16h53.17.642_micRespv1l2_recorded\recording_micRespv1l2_2023-11-10_17h02.15.503.wav;567.6298949;568.1299801;None;567.6298949;567.6298949;567.6298949;567.6298949;567.6298949;567.6298949;;;;;;;03.01.02;1;2023-11-10_16h53.17.642;REPSWITCH1_version1_list2;2022.2.4;143.9113966;
REPSWITCH1/PICTURE_719.png;baño;type;darkblue;filler;1;F;1;1;2;1;Stim2_Set4;1;switch;110;109;8;0;109;109;109;;;;;;;;;;;;;;;;;;;;;;;568.1299801;569.296838;569.296838;569.296838;569.296838;569.296838;569.296838;569.296838;569.296838;['b', 'a', 'ñ', 'o'];0;baño;C:\2023\REPSWITCH21092023\REPSWITCH_excgange\REPSWITCH_excgange\data/03.01.02_REPSWITCH1_version1_list2_2023-11-10_16h53.17.642_micRespv1l2_recorded\recording_micRespv1l2_2023-11-10_17h02.20.191.wav;572.3249833;;None;572.3249833;572.3249833;572.3249833;572.3249833;572.3249833;572.3249833;[1.0412670000223443, 1.2026941999793053, 1.9188939000014216, 1.941809399984777];;;;;;03.01.02;1;2023-11-10_16h53.17.642;REPSWITCH1_version1_list2;2022.2.4;143.9113966;
REPSWITCH1/PICTURE_135.png;traje;speak;gold;nontarget;2;NT;1;1;2;1;Stim3_Set1;0;None;111;110;9;0;110;110;110;;;;;;;;;;;;;;;;;;;;;;;572.825111;573.9224562;573.9224562;573.9224562;573.9224562;573.9224562;573.9224562;573.9224562;573.9224562;None;0;;C:\2023\REPSWITCH21092023\REPSWITCH_excgange\REPSWITCH_excgange\data/03.01.02_REPSWITCH1_version1_list2_2023-11-10_16h53.17.642_micRespv1l2_recorded\recording_micRespv1l2_2023-11-10_17h02.24.816.wav;576.9436615;577.4437218;None;576.9436615;576.9436615;576.9436615;576.9436615;576.9436615;576.9436615;;;;;;;03.01.02;1;2023-11-10_16h53.17.642;REPSWITCH1_version1_list2;2022.2.4;143.9113966;
REPSWITCH1/PICTURE_135.png;traje;type;darkblue;switch;1;T;1;1;2;1;Stim3_Set1;0;None;112;111;10;0;111;111;111;;;;;;;;;;;;;;;;;;;;;;;577.4437218;578.5966666;578.5966666;578.5966666;578.5966666;578.5966666;578.5966666;578.5966666;578.5966666;['t', 'r', 'a', 'j', 'e'];0;traje;C:\2023\REPSWITCH21092023\REPSWITCH_excgange\REPSWITCH_excgange\data/03.01.02_REPSWITCH1_version1_list2_2023-11-10_16h53.17.642_micRespv1l2_recorded\recording_micRespv1l2_2023-11-10_17h02.29.490.wav;581.6179482;582.1179428;None;581.6179482;581.6179482;581.6179482;581.6179482;581.6179482;581.6179482;[1.0621174999978393, 1.2375275999656878, 1.3631021999754012, 1.8181434000143781, 1.8979130999650806];;;;;;03.01.02;1;2023-11-10_16h53.17.642;REPSWITCH1_version1_list2;2022.2.4;143.9113966;
REPSWITCH1/PICTURE_687.png;camisa;speak;gold;filler;2;F;1;1;2;1;Stim5_Set4;0;None;113;112;11;0;112;112;112;;;;;;;;;;;;;;;;;;;;;;;582.1179428;583.2222813;583.2222813;583.2222813;583.2222813;583.2222813;583.2222813;583.2222813;583.2222813;None;0;;C:\2023\REPSWITCH21092023\REPSWITCH_excgange\REPSWITCH_excgange\data/03.01.02_REPSWITCH1_version1_list2_2023-11-10_16h53.17.642_micRespv1l2_recorded\recording_micRespv1l2_2023-11-10_17h02.34.116.wav;586.2434761;586.7435539;None;586.2434761;586.2434761;586.2434761;586.2434761;586.2434761;586.2434761;;;;;;;03.01.02;1;2023-11-10_16h53.17.642;REPSWITCH1_version1_list2;2022.2.4;143.9113966;
REPSWITCH1/PICTURE_128.png;muñeca;type;darkblue;nontarget;1;NT;1;1;2;1;Stim4_Set1;1;switch;114;113;12;0;113;113;113;;;;;;;;;;;;;;;;;;;;;;;586.7435539;587.7853618;587.7853618;587.7853618;587.7853618;587.7853618;587.7853618;587.7853618;587.7853618;['m', 'u', 'ñ', 'e', 'c', 'a'];0;muñeca;C:\2023\REPSWITCH21092023\REPSWITCH_excgange\REPSWITCH_excgange\data/03.01.02_REPSWITCH1_version1_list2_2023-11-10_16h53.17.642_micRespv1l2_recorded\recording_micRespv1l2_2023-11-10_17h02.38.679.wav;590.8065942;591.3066442;None;590.8065942;590.8065942;590.8065942;590.8065942;590.8065942;590.8065942;[1.3313021000358276, 1.6004921000567265, 2.1104266000329517, 2.2928053000359796, 2.6345975000294857, 2.7498851000564173];;;;;;03.01.02;1;2023-11-10_16h53.17.642;REPSWITCH1_version1_list2;2022.2.4;143.9113966;
REPSWITCH1/PICTURE_128.png;muñeca;speak;gold;switch;2;T;1;1;2;1;Stim4_Set1;0;None;115;114;13;0;114;114;114;;;;;;;;;;;;;;;;;;;;;;;591.3066442;592.4526146;592.4526146;592.4526146;592.4526146;592.4526146;592.4526146;592.4526146;592.4526146;None;0;;C:\2023\REPSWITCH21092023\REPSWITCH_excgange\REPSWITCH_excgange\data/03.01.02_REPSWITCH1_version1_list2_2023-11-10_16h53.17.642_micRespv1l2_recorded\recording_micRespv1l2_2023-11-10_17h02.43.347.wav;595.4738686;595.9738892;None;595.4738686;595.4738686;595.4738686;595.4738686;595.4738686;595.4738686;;;;;;;03.01.02;1;2023-11-10_16h53.17.642;REPSWITCH1_version1_list2;2022.2.4;143.9113966;
REPSWITCH1/PICTURE_8.png;pierna;speak;gold;filler;2;F;1;1;2;1;Stim3_Set4;0;None;116;115;14;0;115;115;115;;;;;;;;;;;;;;;;;;;;;;;595.9738892;597.0921736;597.0921736;597.0921736;597.0921736;597.0921736;597.0921736;597.0921736;597.0921736;None;0;;C:\2023\REPSWITCH21092023\REPSWITCH_excgange\REPSWITCH_excgange\data/03.01.02_REPSWITCH1_version1_list2_2023-11-10_16h53.17.642_micRespv1l2_recorded\recording_micRespv1l2_2023-11-10_17h02.47.985.wav;600.1133734;600.6134326;None;600.1133734;600.1133734;600.1133734;600.1133734;600.1133734;600.1133734;;;;;;;03.01.02;1;2023-11-10_16h53.17.642;REPSWITCH1_version1_list2;2022.2.4;143.9113966;
REPSWITCH1/PICTURE_19.png;pavo;speak;gold;nontarget;2;NT;1;1;2;1;Stim5_Set1;0;None;117;116;15;0;116;116;116;;;;;;;;;;;;;;;;;;;;;;;600.6134326;601.7247029;601.7247029;601.7247029;601.7247029;601.7247029;601.7247029;601.7247029;601.7247029;None;0;;C:\2023\REPSWITCH21092023\REPSWITCH_excgange\REPSWITCH_excgange\data/03.01.02_REPSWITCH1_version1_list2_2023-11-10_16h53.17.642_micRespv1l2_recorded\recording_micRespv1l2_2023-11-10_17h02.52.619.wav;604.7458747;605.245976;None;604.7458747;604.7458747;604.7458747;604.7458747;604.7458747;604.7458747;;;;;;;03.01.02;1;2023-11-10_16h53.17.642;REPSWITCH1_version1_list2;2022.2.4;143.9113966;
REPSWITCH1/PICTURE_19.png;pavo;type;darkblue;switch;1;T;1;1;2;1;Stim5_Set1;0;None;118;117;16;0;117;117;117;;;;;;;;;;;;;;;;;;;;;;;605.245976;606.3641891;606.3641891;606.3641891;606.3641891;606.3641891;606.3641891;606.3641891;606.3641891;['p', 'a', 'v', 'o'];0;pavo;C:\2023\REPSWITCH21092023\REPSWITCH_excgange\REPSWITCH_excgange\data/03.01.02_REPSWITCH1_version1_list2_2023-11-10_16h53.17.642_micRespv1l2_recorded\recording_micRespv1l2_2023-11-10_17h02.57.259.wav;609.3854053;609.8855447;None;609.3854053;609.3854053;609.3854053;609.3854053;609.3854053;609.3854053;[1.0772865999606438, 1.2178529999800958, 1.5690628999727778, 1.6398173999623396];;;;;;03.01.02;1;2023-11-10_16h53.17.642;REPSWITCH1_version1_list2;2022.2.4;143.9113966;
REPSWITCH1/PICTURE_16.png;cazador;type;darkblue;nontarget;1;NT;1;1;2;1;Stim6_Set1;1;switch;119;118;17;0;118;118;118;;;;;;;;;;;;;;;;;;;;;;;609.8855447;610.9619774;610.9619774;610.9619774;610.9619774;610.9619774;610.9619774;610.9619774;610.9619774;['c', 'a', 'z', 'a', 'd', 'o', 'r'];0;cazador;C:\2023\REPSWITCH21092023\REPSWITCH_excgange\REPSWITCH_excgange\data/03.01.02_REPSWITCH1_version1_list2_2023-11-10_16h53.17.642_micRespv1l2_recorded\recording_micRespv1l2_2023-11-10_17h03.01.857.wav;613.9901724;;None;613.9901724;613.9901724;613.9901724;613.9901724;613.9901724;613.9901724;[1.1776544000022113, 1.2693534000427462, 1.6513900000136346, 1.7615022000391036, 1.9558586000348441, 2.1158873000531457, 2.2225865000509657];;;;;;03.01.02;1;2023-11-10_16h53.17.642;REPSWITCH1_version1_list2;2022.2.4;143.9113966;
REPSWITCH1/PICTURE_16.png;cazador;type;darkblue;repeat;1;T;1;1;2;1;Stim6_Set1;0;None;120;119;18;0;119;119;119;;;;;;;;;;;;;;;;;;;;;;;614.4902389;615.5112297;615.5112297;615.5112297;615.5112297;615.5112297;615.5112297;615.5112297;615.5112297;['c', 'a', 'z', 'a', 'd', 'o', 'r'];0;cazador;C:\2023\REPSWITCH21092023\REPSWITCH_excgange\REPSWITCH_excgange\data/03.01.02_REPSWITCH1_version1_list2_2023-11-10_16h53.17.642_micRespv1l2_recorded\recording_micRespv1l2_2023-11-10_17h03.06.406.wav;618.5324026;619.0325124;None;618.5324026;618.5324026;618.5324026;618.5324026;618.5324026;618.5324026;[0.8985237000160851, 1.0001465000095777, 1.4573264000355266, 1.568941400037147, 1.782574900018517, 1.9181366999982856, 2.0247745000524446];;;;;;03.01.02;1;2023-11-10_16h53.17.642;REPSWITCH1_version1_list2;2022.2.4;143.9113966;
REPSWITCH1/PICTURE_498.png;taza;speak;gold;filler;2;F;1;1;2;1;Stim4_Set4;0;None;121;120;19;0;120;120;120;;;;;;;;;;;;;;;;;;;;;;;619.0325124;620.0951463;620.0951463;620.0951463;620.0951463;620.0951463;620.0951463;620.0951463;620.0951463;None;0;;C:\2023\REPSWITCH21092023\REPSWITCH_excgange\REPSWITCH_excgange\data/03.01.02_REPSWITCH1_version1_list2_2023-11-10_16h53.17.642_micRespv1l2_recorded\recording_micRespv1l2_2023-11-10_17h03.10.989.wav;623.1164431;623.6164248;None;623.1164431;623.1164431;623.1164431;623.1164431;623.1164431;623.1164431;;;;;;;03.01.02;1;2023-11-10_16h53.17.642;REPSWITCH1_version1_list2;2022.2.4;143.9113966;
REPSWITCH1/PICTURE_48.png;bombero;type;darkblue;filler;1;F;1;1;2;1;Stim7_Set4;0;None;122;121;20;0;121;121;121;;;;;;;;;;;;;;;;;;;;;;;623.6164248;624.6721202;624.6721202;624.6721202;624.6721202;624.6721202;624.6721202;624.6721202;624.6721202;['b', 'o', 'm', 'b', 'e', 'r', 'o'];0;bombero;C:\2023\REPSWITCH21092023\REPSWITCH_excgange\REPSWITCH_excgange\data/03.01.02_REPSWITCH1_version1_list2_2023-11-10_16h53.17.642_micRespv1l2_recorded\recording_micRespv1l2_2023-11-10_17h03.15.567.wav;627.6933663;628.1934324;None;627.6933663;627.6933663;627.6933663;627.6933663;627.6933663;627.6933663;[1.17585830000462, 1.4161143000237644, 1.4928572000353597, 1.7450833999901079, 2.085344500024803, 2.1869032999966294, 2.303545800037682];;;;;;03.01.02;1;2023-11-10_16h53.17.642;REPSWITCH1_version1_list2;2022.2.4;143.9113966;
REPSWITCH1/PICTURE_142.png;vaso;type;darkblue;nontarget;1;NT;1;1;2;1;Stim7_Set1;1;repeat;123;122;21;0;122;122;122;;;;;;;;;;;;;;;;;;;;;;;628.1934324;629.2630158;629.2630158;629.2630158;629.2630158;629.2630158;629.2630158;629.2630158;629.2630158;['v', 'a', 's', 'o'];0;vaso;C:\2023\REPSWITCH21092023\REPSWITCH_excgange\REPSWITCH_excgange\data/03.01.02_REPSWITCH1_version1_list2_2023-11-10_16h53.17.642_micRespv1l2_recorded\recording_micRespv1l2_2023-11-10_17h03.20.157.wav;632.2911838;;None;632.2911838;632.2911838;632.2911838;632.2911838;632.2911838;632.2911838;[1.1631637999671511, 1.3370982999913394, 1.5035524999839254, 1.6301177999703214];;;;;;03.01.02;1;2023-11-10_16h53.17.642;REPSWITCH1_version1_list2;2022.2.4;143.9113966;
REPSWITCH1/PICTURE_142.png;vaso;type;darkblue;repeat;1;T;1;1;2;1;Stim7_Set1;0;None;124;123;22;0;123;123;123;;;;;;;;;;;;;;;;;;;;;;;632.7912542;633.8538804;633.8538804;633.8538804;633.8538804;633.8538804;633.8538804;633.8538804;633.8538804;['v', 'a', 'o', 's', 'backspace', 'backspace', 's', 'o'];0;vaso;C:\2023\REPSWITCH21092023\REPSWITCH_excgange\REPSWITCH_excgange\data/03.01.02_REPSWITCH1_version1_list2_2023-11-10_16h53.17.642_micRespv1l2_recorded\recording_micRespv1l2_2023-11-10_17h03.24.748.wav;636.8751275;637.3751837;None;636.8751275;636.8751275;636.8751275;636.8751275;636.8751275;636.8751275;[1.0313312000362203, 1.2047470000106841, 1.5177642999915406, 1.5705757000250742, 2.330113700008951, 2.4587190999882296, 2.6141778000164777, 2.7039033999899402];;;;;;03.01.02;1;2023-11-10_16h53.17.642;REPSWITCH1_version1_list2;2022.2.4;143.9113966;
REPSWITCH1/PICTURE_338.png;regalo;speak;gold;filler;2;F;1;1;2;1;Stim6_Set4;1;switch;125;124;23;0;124;124;124;;;;;;;;;;;;;;;;;;;;;;;637.3751837;638.451699;638.451699;638.451699;638.451699;638.451699;638.451699;638.451699;638.451699;None;0;;C:\2023\REPSWITCH21092023\REPSWITCH_excgange\REPSWITCH_excgange\data/03.01.02_REPSWITCH1_version1_list2_2023-11-10_16h53.17.642_micRespv1l2_recorded\recording_micRespv1l2_2023-11-10_17h03.29.347.wav;641.4799301;;None;641.4799301;641.4799301;641.4799301;641.4799301;641.4799301;641.4799301;;;;;;;03.01.02;1;2023-11-10_16h53.17.642;REPSWITCH1_version1_list2;2022.2.4;143.9113966;
REPSWITCH1/PICTURE_728.png;pulpo;type;darkblue;filler;1;F;1;1;2;1;Stim8_Set4;1;switch;126;125;24;0;125;125;125;;;;;;;;;;;;;;;;;;;;;;;641.9799357;642.9939975;642.9939975;642.9939975;642.9939975;642.9939975;642.9939975;642.9939975;642.9939975;['p', 'u', 'l', 'p', 'o'];0;pulpo;C:\2023\REPSWITCH21092023\REPSWITCH_excgange\REPSWITCH_excgange\data/03.01.02_REPSWITCH1_version1_list2_2023-11-10_16h53.17.642_micRespv1l2_recorded\recording_micRespv1l2_2023-11-10_17h03.33.888.wav;646.0221129;;None;646.0221129;646.0221129;646.0221129;646.0221129;646.0221129;646.0221129;[1.2116717000026256, 1.4788200999610126, 1.806533099967055, 2.04418089997489, 2.0969124999828637];;;;;;03.01.02;1;2023-11-10_16h53.17.642;REPSWITCH1_version1_list2;2022.2.4;143.9113966;
REPSWITCH1/PICTURE_169.png;espalda;type;darkblue;nontarget;1;NT;1;1;2;1;Stim8_Set1;1;repeat;127;126;25;0;126;126;126;;;;;;;;;;;;;;;;;;;;;;;646.5222232;647.5640481;647.5640481;647.5640481;647.5640481;647.5640481;647.5640481;647.5640481;647.5640481;['e', 's', 'p', 'a', 'l', 'd', 'a'];0;espalda;C:\2023\REPSWITCH21092023\REPSWITCH_excgange\REPSWITCH_excgange\data/03.01.02_REPSWITCH1_version1_list2_2023-11-10_16h53.17.642_micRespv1l2_recorded\recording_micRespv1l2_2023-11-10_17h03.38.458.wav;650.5853222;651.0852828;None;650.5853222;650.5853222;650.5853222;650.5853222;650.5853222;650.5853222;[1.056159999978263, 1.1767116999835707, 1.346135100000538, 1.503014100017026, 1.5999416999984533, 1.7248344999970868, 1.8168991999700665];;;;;;03.01.02;1;2023-11-10_16h53.17.642;REPSWITCH1_version1_list2;2022.2.4;143.9113966;
REPSWITCH1/PICTURE_169.png;espalda;speak;gold;switch;2;T;1;1;2;1;Stim8_Set1;0;None;128;127;26;0;127;127;127;;;;;;;;;;;;;;;;;;;;;;;651.0852828;652.134083;652.134083;652.134083;652.134083;652.134083;652.134083;652.134083;652.134083;None;0;;C:\2023\REPSWITCH21092023\REPSWITCH_excgange\REPSWITCH_excgange\data/03.01.02_REPSWITCH1_version1_list2_2023-11-10_16h53.17.642_micRespv1l2_recorded\recording_micRespv1l2_2023-11-10_17h03.43.029.wav;655.1623155;;None;655.1623155;655.1623155;655.1623155;655.1623155;655.1623155;655.1623155;;;;;;;03.01.02;1;2023-11-10_16h53.17.642;REPSWITCH1_version1_list2;2022.2.4;143.9113966;
REPSWITCH1/PICTURE_178.png;puente;speak;gold;filler;2;F;2;1;2;1;Stim1_Set1;0;None;129;128;27;0;128;128;128;;;;;;;;;;;;;;;;;;;;;;;655.6622966;656.8360565;656.8360565;656.8360565;656.8360565;656.8360565;656.8360565;656.8360565;656.8360565;None;0;;C:\2023\REPSWITCH21092023\REPSWITCH_excgange\REPSWITCH_excgange\data/03.01.02_REPSWITCH1_version1_list2_2023-11-10_16h53.17.642_micRespv1l2_recorded\recording_micRespv1l2_2023-11-10_17h03.47.730.wav;659.8572923;660.3574062;None;659.8572923;659.8572923;659.8572923;659.8572923;659.8572923;659.8572923;;;;;;;03.01.02;1;2023-11-10_16h53.17.642;REPSWITCH1_version1_list2;2022.2.4;143.9113966;
REPSWITCH1/PICTURE_175.png;pintor;type;darkblue;nontarget;1;NT;2;1;2;1;Stim1_Set2;1;switch;130;129;28;0;129;129;129;;;;;;;;;;;;;;;;;;;;;;;660.3574062;661.4130818;661.4130818;661.4130818;661.4130818;661.4130818;661.4130818;661.4130818;661.4130818;['p', 'i', 'n', 't', 'o', 'r'];0;pintor;C:\2023\REPSWITCH21092023\REPSWITCH_excgange\REPSWITCH_excgange\data/03.01.02_REPSWITCH1_version1_list2_2023-11-10_16h53.17.642_micRespv1l2_recorded\recording_micRespv1l2_2023-11-10_17h03.52.306.wav;664.4343577;664.9343634;None;664.4343577;664.4343577;664.4343577;664.4343577;664.4343577;664.4343577;[0.9201800999580882, 1.198562299949117, 1.4576784999808297, 1.6345876999548636, 1.743243699951563, 1.8420218999963254];;;;;;03.01.02;1;2023-11-10_16h53.17.642;REPSWITCH1_version1_list2;2022.2.4;143.9113966;
REPSWITCH1/PICTURE_175.png;pintor;type;darkblue;repeat;1;T;2;1;2;1;Stim1_Set2;0;None;131;130;29;0;130;130;130;;;;;;;;;;;;;;;;;;;;;;;664.9343634;666.0803329;666.0803329;666.0803329;666.0803329;666.0803329;666.0803329;666.0803329;666.0803329;['p', 'i', 'n', 't', 'o', 'r'];0;pintor;C:\2023\REPSWITCH21092023\REPSWITCH_excgange\REPSWITCH_excgange\data/03.01.02_REPSWITCH1_version1_list2_2023-11-10_16h53.17.642_micRespv1l2_recorded\recording_micRespv1l2_2023-11-10_17h03.56.975.wav;669.1015731;669.601607;None;669.1015731;669.1015731;669.1015731;669.1015731;669.1015731;669.1015731;[1.0624056000378914, 1.2701245000353083, 1.513514100050088, 1.702870500041172, 1.8190104000386782, 1.9106688000028953];;;;;;03.01.02;1;2023-11-10_16h53.17.642;REPSWITCH1_version1_list2;2022.2.4;143.9113966;
REPSWITCH1/PICTURE_381.png;fresa;speak;gold;filler;2;F;2;1;2;1;Stim2_Set1;0;None;132;131;30;0;131;131;131;;;;;;;;;;;;;;;;;;;;;;;669.601607;670.6503794;670.6503794;670.6503794;670.6503794;670.6503794;670.6503794;670.6503794;670.6503794;None;0;;C:\2023\REPSWITCH21092023\REPSWITCH_excgange\REPSWITCH_excgange\data/03.01.02_REPSWITCH1_version1_list2_2023-11-10_16h53.17.642_micRespv1l2_recorded\recording_micRespv1l2_2023-11-10_17h04.01.545.wav;673.6785582;;None;673.6785582;673.6785582;673.6785582;673.6785582;673.6785582;673.6785582;;;;;;;03.01.02;1;2023-11-10_16h53.17.642;REPSWITCH1_version1_list2;2022.2.4;143.9113966;
REPSWITCH1/PICTURE_152.png;caracol;type;darkblue;nontarget;1;NT;2;1;2;1;Stim2_Set2;1;switch;133;132;31;0;132;132;132;;;;;;;;;;;;;;;;;;;;;;;674.1786219;675.2759816;675.2759816;675.2759816;675.2759816;675.2759816;675.2759816;675.2759816;675.2759816;['c', 'a', 'r', 'a', 'c', 'o', 'l'];0;caracol;C:\2023\REPSWITCH21092023\REPSWITCH_excgange\REPSWITCH_excgange\data/03.01.02_REPSWITCH1_version1_list2_2023-11-10_16h53.17.642_micRespv1l2_recorded\recording_micRespv1l2_2023-11-10_17h04.06.170.wav;678.2972235;678.7972799;None;678.2972235;678.2972235;678.2972235;678.2972235;678.2972235;678.2972235;[1.188027600001078, 1.2727539999759756, 1.5648294999846257, 1.6575646999990568, 1.8846984999836423, 2.05810919997748, 2.263418299960904];;;;;;03.01.02;1;2023-11-10_16h53.17.642;REPSWITCH1_version1_list2;2022.2.4;143.9113966;
REPSWITCH1/PICTURE_152.png;caracol;type;darkblue;repeat;1;T;2;1;2;1;Stim2_Set2;0;None;134;133;32;0;133;133;133;;;;;;;;;;;;;;;;;;;;;;;678.7972799;679.8530346;679.8530346;679.8530346;679.8530346;679.8530346;679.8530346;679.8530346;679.8530346;['c', 'a', 'r', 'a', 'c', 'o', 'l'];0;caracol;C:\2023\REPSWITCH21092023\REPSWITCH_excgange\REPSWITCH_excgange\data/03.01.02_REPSWITCH1_version1_list2_2023-11-10_16h53.17.642_micRespv1l2_recorded\recording_micRespv1l2_2023-11-10_17h04.10.747.wav;682.8741779;683.3742678;None;682.8741779;682.8741779;682.8741779;682.8741779;682.8741779;682.8741779;[0.6830485999817029, 0.8047025999985635, 1.0641413999837823, 1.1488277000025846, 1.3541676999884658, 1.5213657999993302, 1.7598077000002377];;;;;;03.01.02;1;2023-11-10_16h53.17.642;REPSWITCH1_version1_list2;2022.2.4;143.9113966;
REPSWITCH1/PICTURE_128.png;muñeca;speak;gold;filler;2;F;2;1;2;1;Stim4_Set1;0;None;135;134;33;0;134;134;134;;;;;;;;;;;;;;;;;;;;;;;683.3742678;684.5411342;684.5411342;684.5411342;684.5411342;684.5411342;684.5411342;684.5411342;684.5411342;None;0;;C:\2023\REPSWITCH21092023\REPSWITCH_excgange\REPSWITCH_excgange\data/03.01.02_REPSWITCH1_version1_list2_2023-11-10_16h53.17.642_micRespv1l2_recorded\recording_micRespv1l2_2023-11-10_17h04.15.435.wav;687.5623954;688.062376;None;687.5623954;687.5623954;687.5623954;687.5623954;687.5623954;687.5623954;;;;;;;03.01.02;1;2023-11-10_16h53.17.642;REPSWITCH1_version1_list2;2022.2.4;143.9113966;
REPSWITCH1/PICTURE_264.png;mano;type;darkblue;nontarget;1;NT;2;1;2;1;Stim3_Set2;0;None;136;135;34;0;135;135;135;;;;;;;;;;;;;;;;;;;;;;;688.062376;689.2361879;689.2361879;689.2361879;689.2361879;689.2361879;689.2361879;689.2361879;689.2361879;['m', 'a', 'n', 'o'];0;mano;C:\2023\REPSWITCH21092023\REPSWITCH_excgange\REPSWITCH_excgange\data/03.01.02_REPSWITCH1_version1_list2_2023-11-10_16h53.17.642_micRespv1l2_recorded\recording_micRespv1l2_2023-11-10_17h04.20.130.wav;692.2573819;692.7574293;None;692.2573819;692.2573819;692.2573819;692.2573819;692.2573819;692.2573819;[0.880160300002899, 1.086396099999547, 1.2063662000000477, 1.3805082000326365];;;;;;03.01.02;1;2023-11-10_16h53.17.642;REPSWITCH1_version1_list2;2022.2.4;143.9113966;
REPSWITCH1/PICTURE_264.png;mano;speak;gold;switch;2;T;2;1;2;1;Stim3_Set2;0;None;137;136;35;0;136;136;136;;;;;;;;;;;;;;;;;;;;;;;692.7574293;693.8964752;693.8964752;693.8964752;693.8964752;693.8964752;693.8964752;693.8964752;693.8964752;None;0;;C:\2023\REPSWITCH21092023\REPSWITCH_excgange\REPSWITCH_excgange\data/03.01.02_REPSWITCH1_version1_list2_2023-11-10_16h53.17.642_micRespv1l2_recorded\recording_micRespv1l2_2023-11-10_17h04.24.791.wav;696.9246382;;None;696.9246382;696.9246382;696.9246382;696.9246382;696.9246382;696.9246382;;;;;;;03.01.02;1;2023-11-10_16h53.17.642;REPSWITCH1_version1_list2;2022.2.4;143.9113966;
REPSWITCH1/PICTURE_517.png;cuerda;speak;gold;nontarget;2;NT;2;1;2;1;Stim4_Set2;1;repeat;138;137;36;0;137;137;137;;;;;;;;;;;;;;;;;;;;;;;697.4247194;698.5082355;698.5082355;698.5082355;698.5082355;698.5082355;698.5082355;698.5082355;698.5082355;None;0;;C:\2023\REPSWITCH21092023\REPSWITCH_excgange\REPSWITCH_excgange\data/03.01.02_REPSWITCH1_version1_list2_2023-11-10_16h53.17.642_micRespv1l2_recorded\recording_micRespv1l2_2023-11-10_17h04.29.403.wav;701.5294405;702.029553;None;701.5294405;701.5294405;701.5294405;701.5294405;701.5294405;701.5294405;;;;;;;03.01.02;1;2023-11-10_16h53.17.642;REPSWITCH1_version1_list2;2022.2.4;143.9113966;
REPSWITCH1/PICTURE_517.png;cuerda;type;darkblue;switch;1;T;2;1;2;1;Stim4_Set2;0;None;139;138;37;0;138;138;138;;;;;;;;;;;;;;;;;;;;;;;702.029553;703.0365797;703.0365797;703.0365797;703.0365797;703.0365797;703.0365797;703.0365797;703.0365797;['c', 'u', 'e', 'r', 'd', 'a'];0;cuerda;C:\2023\REPSWITCH21092023\REPSWITCH_excgange\REPSWITCH_excgange\data/03.01.02_REPSWITCH1_version1_list2_2023-11-10_16h53.17.642_micRespv1l2_recorded\recording_micRespv1l2_2023-11-10_17h04.33.931.wav;706.0578214;706.5579116;None;706.0578214;706.0578214;706.0578214;706.0578214;706.0578214;706.0578214;[1.0482414999860339, 1.2219448999967426, 1.3886189000331797, 1.8513671000255272, 2.1308316999929957, 2.2733670999878086];;;;;;03.01.02;1;2023-11-10_16h53.17.642;REPSWITCH1_version1_list2;2022.2.4;143.9113966;
REPSWITCH1/PICTURE_135.png;traje;type;darkblue;filler;1;F;2;1;2;1;Stim3_Set1;0;None;140;139;38;0;139;139;139;;;;;;;;;;;;;;;;;;;;;;;706.5579116;707.6622068;707.6622068;707.6622068;707.6622068;707.6622068;707.6622068;707.6622068;707.6622068;['t', 'r', 'a', 'j', 'e'];0;traje;C:\2023\REPSWITCH21092023\REPSWITCH_excgange\REPSWITCH_excgange\data/03.01.02_REPSWITCH1_version1_list2_2023-11-10_16h53.17.642_micRespv1l2_recorded\recording_micRespv1l2_2023-11-10_17h04.38.557.wav;710.6833675;711.1835016;None;710.6833675;710.6833675;710.6833675;710.6833675;710.6833675;710.6833675;[1.1662278000148945, 1.2529366000089794, 1.5292663000291213, 1.657822799985297, 1.7448366000317037];;;;;;03.01.02;1;2023-11-10_16h53.17.642;REPSWITCH1_version1_list2;2022.2.4;143.9113966;
