image;correctAns;respModal;frameColor;repSwitch;sequence;target;set;block;list;exp_version;stimulus;baseline;baseline_condition;trial_no;psychopy_trial;Column1;trialsREPSWITCH.thisRepN;trialsREPSWITCH.thisTrialN;trialsREPSWITCH.thisN;trialsREPSWITCH.thisIndex;textWelcome.started;textboxInstrMain1.started;textboxInstrMain1_2.started;textboxInstrMain1_3.started;keyInstrMain.started;keyInstrMain.keys;keyInstrMain.rt;textboxInstrMain2.started;textboxInstrMain2_2.started;textboxInstrMain2_3.started;textboxInstrMain2_4.started;textboxInstrMain2_5.started;textboxInstrMain2_6.started;textboxInstrMain2_7.started;textboxInstrMain2_8.started;textboxInstrMain2_9.started;textboxInstrMain2_10.started;textboxInstrMain2_11.started;textboxInstrMain2_12.started;keyInstrMain2.started;keyInstrMain2.keys;keyInstrMain2.rt;fixationITI.started;fixationITI.stopped;polygonColour.started;polygonWhite.started;imageObject.started;polygonType.started;textInput.started;keyResp.started;micRespv2l3.started;keyResp.keys;keyResp.corr;keyResp.rt;subjResponse;micRespv2l3.clip;textBlankLoop.started;textBlankLoop.stopped;keyPause.keys;polygonColour.stopped;polygonWhite.stopped;imageObject.stopped;polygonType.stopped;textInput.stopped;keyResp.stopped;textboxPause.started;keyPause.started;keyPause.rt;textboxGoodbye.started;textboxGoodbye.stopped;participant;session;date;expName;psychopyVersion;frameRate;Column2
;;;;;;;;;;;;;;;;;;;;;9.832100800005719;12.326913199853152;12.326913199853152;12.326913199853152;12.326913199853152;space;9.747087300289422;;;;;;;;;;;;;;;;;;;;;;;;;;;;;;;;;;;;;;;;;;;;140203;001;2023-11-28_13h15.26.949;REPSWITCH1_version2_list3;2022.2.4;143.8813724527531;
;;;;;;;;;;;;;;;;;;;;;;;;;;;;22.092069099890068;22.092069099890068;22.092069099890068;22.092069099890068;22.092069099890068;22.092069099890068;22.092069099890068;22.092069099890068;22.092069099890068;22.092069099890068;22.092069099890068;22.092069099890068;22.092069099890068;space;7.243976200232282;;;;;;;;;;;;;;;;;;;;;;;;;;;;;140203;001;2023-11-28_13h15.26.949;REPSWITCH1_version2_list3;2022.2.4;143.8813724527531;
REPSWITCH1/PICTURE_663.png;columna;type;gold;filler;1;F;1;2;3;2;Extra6;0;None;1;0;1;0;0;0;0;;;;;;;;;;;;;;;;;;;;;;;29.426351699978113;30.54461699980311;30.54461699980311;30.54461699980311;30.54461699980311;30.54461699980311;30.54461699980311;30.54461699980311;30.54461699980311;['c', 'o', 'l', 'u', 'm', 'a', 'n'];0;[1.4034951000940055, 1.669106300221756, 1.9142845002934337, 2.26651530014351, 2.468931500101462, 2.6423490000888705, 2.7162209001835436];columan;C:\2023\REPSWITCH21092023\REPSWITCH_excgange\REPSWITCH_excgange\data/140203_REPSWITCH1_version2_list3_2023-11-28_13h15.26.949_micRespv2l3_recorded\recording_micRespv2l3_2023-11-28_13h15.52.541.wav;33.565813599852845;34.065870999824256;None;;;;;;;;;;;;140203;001;2023-11-28_13h15.26.949;REPSWITCH1_version2_list3;2022.2.4;143.8813724527531;
REPSWITCH1/PICTURE_128.png;muñeca;speak;darkblue;nontarget;2;NT;1;2;3;2;Stim4_Set1;1;switch;2;1;2;0;1;1;1;;;;;;;;;;;;;;;;;;;;;;;34.065870999824256;35.2187915998511;35.2187915998511;35.2187915998511;35.2187915998511;35.2187915998511;35.2187915998511;35.2187915998511;35.2187915998511;None;0;;;C:\2023\REPSWITCH21092023\REPSWITCH_excgange\REPSWITCH_excgange\data/140203_REPSWITCH1_version2_list3_2023-11-28_13h15.26.949_micRespv2l3_recorded\recording_micRespv2l3_2023-11-28_13h15.57.220.wav;38.24697480001487;;None;38.24697480001487;38.24697480001487;38.24697480001487;38.24697480001487;38.24697480001487;38.24697480001487;;;;;;140203;001;2023-11-28_13h15.26.949;REPSWITCH1_version2_list3;2022.2.4;143.8813724527531;
REPSWITCH1/PICTURE_128.png;muñeca;speak;darkblue;repeat;2;T;1;2;3;2;Stim4_Set1;0;None;3;2;3;0;2;2;2;;;;;;;;;;;;;;;;;;;;;;;38.74703969992697;39.83744879998267;39.83744879998267;39.83744879998267;39.83744879998267;39.83744879998267;39.83744879998267;39.83744879998267;39.83744879998267;None;0;;;C:\2023\REPSWITCH21092023\REPSWITCH_excgange\REPSWITCH_excgange\data/140203_REPSWITCH1_version2_list3_2023-11-28_13h15.26.949_micRespv2l3_recorded\recording_micRespv2l3_2023-11-28_13h16.01.837.wav;42.85874879988842;43.35875289980322;None;42.85874879988842;42.85874879988842;42.85874879988842;42.85874879988842;42.85874879988842;42.85874879988842;;;;;;140203;001;2023-11-28_13h15.26.949;REPSWITCH1_version2_list3;2022.2.4;143.8813724527531;
REPSWITCH1/PICTURE_8.png;pierna;type;gold;filler;1;F;1;2;3;2;Stim3_Set4;0;None;4;3;4;0;3;3;3;;;;;;;;;;;;;;;;;;;;;;;43.35875289980322;44.45615280000493;44.45615280000493;44.45615280000493;44.45615280000493;44.45615280000493;44.45615280000493;44.45615280000493;44.45615280000493;['p', 'i', 'e', 'r'];0;[1.7393521000631154, 2.4278721001464874, 2.5962923001497984, 2.774623600067571];pier;C:\2023\REPSWITCH21092023\REPSWITCH_excgange\REPSWITCH_excgange\data/140203_REPSWITCH1_version2_list3_2023-11-28_13h15.26.949_micRespv2l3_recorded\recording_micRespv2l3_2023-11-28_13h16.06.456.wav;47.48427079990506;;None;47.48427079990506;47.48427079990506;47.48427079990506;47.48427079990506;47.48427079990506;47.48427079990506;;;;;;140203;001;2023-11-28_13h15.26.949;REPSWITCH1_version2_list3;2022.2.4;143.8813724527531;
REPSWITCH1/PICTURE_135.png;traje;speak;darkblue;nontarget;2;NT;1;2;3;2;Stim3_Set1;1;switch;5;4;5;0;4;4;4;;;;;;;;;;;;;;;;;;;;;;;47.98433409980498;49.12342259986326;49.12342259986326;49.12342259986326;49.12342259986326;49.12342259986326;49.12342259986326;49.12342259986326;49.12342259986326;None;0;;;C:\2023\REPSWITCH21092023\REPSWITCH_excgange\REPSWITCH_excgange\data/140203_REPSWITCH1_version2_list3_2023-11-28_13h15.26.949_micRespv2l3_recorded\recording_micRespv2l3_2023-11-28_13h16.11.124.wav;52.144674399867654;52.644694099901244;None;52.144674399867654;52.144674399867654;52.144674399867654;52.144674399867654;52.144674399867654;52.144674399867654;;;;;;140203;001;2023-11-28_13h15.26.949;REPSWITCH1_version2_list3;2022.2.4;143.8813724527531;
REPSWITCH1/PICTURE_135.png;traje;speak;darkblue;repeat;2;T;1;2;3;2;Stim3_Set1;0;None;6;5;6;0;5;5;5;;;;;;;;;;;;;;;;;;;;;;;52.644694099901244;53.76294369995594;53.76294369995594;53.76294369995594;53.76294369995594;53.76294369995594;53.76294369995594;53.76294369995594;53.76294369995594;None;0;;;C:\2023\REPSWITCH21092023\REPSWITCH_excgange\REPSWITCH_excgange\data/140203_REPSWITCH1_version2_list3_2023-11-28_13h15.26.949_micRespv2l3_recorded\recording_micRespv2l3_2023-11-28_13h16.15.763.wav;56.784128699917346;57.28415620001033;None;56.784128699917346;56.784128699917346;56.784128699917346;56.784128699917346;56.784128699917346;56.784128699917346;;;;;;140203;001;2023-11-28_13h15.26.949;REPSWITCH1_version2_list3;2022.2.4;143.8813724527531;
REPSWITCH1/PICTURE_673.png;tenedor;type;gold;filler;1;F;1;2;3;2;Extra5;0;None;7;6;7;0;6;6;6;;;;;;;;;;;;;;;;;;;;;;;57.28415620001033;58.33994339988567;58.33994339988567;58.33994339988567;58.33994339988567;58.33994339988567;58.33994339988567;58.33994339988567;58.33994339988567;['t', 'e', 'n', 'e', 'd', 'o', 'r'];0;[0.9792939000762999, 1.1497496000956744, 1.3358799002598971, 1.4813944001216441, 1.8498285000678152, 1.9986484001856297, 2.094289000146091];tenedor;C:\2023\REPSWITCH21092023\REPSWITCH_excgange\REPSWITCH_excgange\data/140203_REPSWITCH1_version2_list3_2023-11-28_13h15.26.949_micRespv2l3_recorded\recording_micRespv2l3_2023-11-28_13h16.20.340.wav;61.361143299844116;61.86116719990969;None;61.361143299844116;61.361143299844116;61.361143299844116;61.361143299844116;61.361143299844116;61.361143299844116;;;;;;140203;001;2023-11-28_13h15.26.949;REPSWITCH1_version2_list3;2022.2.4;143.8813724527531;
REPSWITCH1/PICTURE_728.png;pulpo;speak;darkblue;filler;2;F;1;2;3;2;Stim8_Set4;0;None;8;7;8;0;7;7;7;;;;;;;;;;;;;;;;;;;;;;;61.86116719990969;63.014181199949235;63.014181199949235;63.014181199949235;63.014181199949235;63.014181199949235;63.014181199949235;63.014181199949235;63.014181199949235;None;0;;;C:\2023\REPSWITCH21092023\REPSWITCH_excgange\REPSWITCH_excgange\data/140203_REPSWITCH1_version2_list3_2023-11-28_13h15.26.949_micRespv2l3_recorded\recording_micRespv2l3_2023-11-28_13h16.25.015.wav;66.04225940001197;;None;66.04225940001197;66.04225940001197;66.04225940001197;66.04225940001197;66.04225940001197;66.04225940001197;;;;;;140203;001;2023-11-28_13h15.26.949;REPSWITCH1_version2_list3;2022.2.4;143.8813724527531;
REPSWITCH1/PICTURE_16.png;cazador;speak;darkblue;nontarget;2;NT;1;2;3;2;Stim6_Set1;1;repeat;9;8;9;0;8;8;8;;;;;;;;;;;;;;;;;;;;;;;66.54232529993169;67.59808459994383;67.59808459994383;67.59808459994383;67.59808459994383;67.59808459994383;67.59808459994383;67.59808459994383;67.59808459994383;None;0;;;C:\2023\REPSWITCH21092023\REPSWITCH_excgange\REPSWITCH_excgange\data/140203_REPSWITCH1_version2_list3_2023-11-28_13h15.26.949_micRespv2l3_recorded\recording_micRespv2l3_2023-11-28_13h16.29.600.wav;70.62620999990031;;None;70.62620999990031;70.62620999990031;70.62620999990031;70.62620999990031;70.62620999990031;70.62620999990031;;;;;;140203;001;2023-11-28_13h15.26.949;REPSWITCH1_version2_list3;2022.2.4;143.8813724527531;
REPSWITCH1/PICTURE_16.png;cazador;type;gold;switch;1;T;1;2;3;2;Stim6_Set1;0;None;10;9;10;0;9;9;9;;;;;;;;;;;;;;;;;;;;;;;71.12625740002841;72.18892149999738;72.18892149999738;72.18892149999738;72.18892149999738;72.18892149999738;72.18892149999738;72.18892149999738;72.18892149999738;['c', 'a', 'z', 'a', 'd', 'o', 'r'];0;[1.5676205002237111, 1.6982808001339436, 2.02353800018318, 2.254050200106576, 2.497361200163141, 2.7336037000641227, 2.8013400002382696];cazador;C:\2023\REPSWITCH21092023\REPSWITCH_excgange\REPSWITCH_excgange\data/140203_REPSWITCH1_version2_list3_2023-11-28_13h15.26.949_micRespv2l3_recorded\recording_micRespv2l3_2023-11-28_13h16.34.189.wav;75.21708759991452;;None;75.21708759991452;75.21708759991452;75.21708759991452;75.21708759991452;75.21708759991452;75.21708759991452;;;;;;140203;001;2023-11-28_13h15.26.949;REPSWITCH1_version2_list3;2022.2.4;143.8813724527531;
REPSWITCH1/PICTURE_498.png;taza;type;gold;filler;1;F;1;2;3;2;Stim4_Set4;1;repeat;11;10;11;0;10;10;10;;;;;;;;;;;;;;;;;;;;;;;75.71716249990277;76.83541970001534;76.83541970001534;76.83541970001534;76.83541970001534;76.83541970001534;76.83541970001534;76.83541970001534;76.83541970001534;['t', 'a', 'z', 'a'];0;[1.0846331000793725, 1.2147806000430137, 1.4562250999733806, 1.632879599928856];taza;C:\2023\REPSWITCH21092023\REPSWITCH_excgange\REPSWITCH_excgange\data/140203_REPSWITCH1_version2_list3_2023-11-28_13h15.26.949_micRespv2l3_recorded\recording_micRespv2l3_2023-11-28_13h16.38.835.wav;79.85659489990212;80.35666529997252;None;79.85659489990212;79.85659489990212;79.85659489990212;79.85659489990212;79.85659489990212;79.85659489990212;;;;;;140203;001;2023-11-28_13h15.26.949;REPSWITCH1_version2_list3;2022.2.4;143.8813724527531;
REPSWITCH1/PICTURE_381.png;fresa;type;gold;nontarget;1;NT;1;2;3;2;Stim2_Set1;1;repeat;12;11;12;0;11;11;11;;;;;;;;;;;;;;;;;;;;;;;80.35666529997252;81.46094429981895;81.46094429981895;81.46094429981895;81.46094429981895;81.46094429981895;81.46094429981895;81.46094429981895;81.46094429981895;['f', 'r', 'e', 's', 'a'];0;[1.225695000262931, 1.3709287003148347, 1.5793778002262115, 1.8584090003278106, 2.0551903003361076];fresa;C:\2023\REPSWITCH21092023\REPSWITCH_excgange\REPSWITCH_excgange\data/140203_REPSWITCH1_version2_list3_2023-11-28_13h15.26.949_micRespv2l3_recorded\recording_micRespv2l3_2023-11-28_13h16.43.461.wav;84.48915089992806;;None;84.48915089992806;84.48915089992806;84.48915089992806;84.48915089992806;84.48915089992806;84.48915089992806;;;;;;140203;001;2023-11-28_13h15.26.949;REPSWITCH1_version2_list3;2022.2.4;143.8813724527531;
REPSWITCH1/PICTURE_381.png;fresa;speak;darkblue;switch;2;T;1;2;3;2;Stim2_Set1;0;None;13;12;13;0;12;12;12;;;;;;;;;;;;;;;;;;;;;;;84.98918069992214;86.12132789986208;86.12132789986208;86.12132789986208;86.12132789986208;86.12132789986208;86.12132789986208;86.12132789986208;86.12132789986208;None;0;;;C:\2023\REPSWITCH21092023\REPSWITCH_excgange\REPSWITCH_excgange\data/140203_REPSWITCH1_version2_list3_2023-11-28_13h15.26.949_micRespv2l3_recorded\recording_micRespv2l3_2023-11-28_13h16.48.121.wav;89.14946309989318;;None;89.14946309989318;89.14946309989318;89.14946309989318;89.14946309989318;89.14946309989318;89.14946309989318;;;;;;140203;001;2023-11-28_13h15.26.949;REPSWITCH1_version2_list3;2022.2.4;143.8813724527531;
REPSWITCH1/PICTURE_178.png;puente;speak;darkblue;nontarget;2;NT;1;2;3;2;Stim1_Set1;0;None;14;13;14;0;13;13;13;;;;;;;;;;;;;;;;;;;;;;;89.64953950000927;90.76774679985829;90.76774679985829;90.76774679985829;90.76774679985829;90.76774679985829;90.76774679985829;90.76774679985829;90.76774679985829;None;0;;;C:\2023\REPSWITCH21092023\REPSWITCH_excgange\REPSWITCH_excgange\data/140203_REPSWITCH1_version2_list3_2023-11-28_13h15.26.949_micRespv2l3_recorded\recording_micRespv2l3_2023-11-28_13h16.52.769.wav;93.79590869997628;;None;93.79590869997628;93.79590869997628;93.79590869997628;93.79590869997628;93.79590869997628;93.79590869997628;;;;;;140203;001;2023-11-28_13h15.26.949;REPSWITCH1_version2_list3;2022.2.4;143.8813724527531;
REPSWITCH1/PICTURE_178.png;puente;type;gold;switch;1;T;1;2;3;2;Stim1_Set1;0;None;15;14;15;0;14;14;14;;;;;;;;;;;;;;;;;;;;;;;94.29596509994008;95.36554929986596;95.36554929986596;95.36554929986596;95.36554929986596;95.36554929986596;95.36554929986596;95.36554929986596;95.36554929986596;['p', 'u', 'e', 'n', 't', 'e'];0;[1.3240505002904683, 1.6931588002480567, 1.8805277000647038, 2.038678400218487, 2.244300000136718, 2.3211512002162635];puente;C:\2023\REPSWITCH21092023\REPSWITCH_excgange\REPSWITCH_excgange\data/140203_REPSWITCH1_version2_list3_2023-11-28_13h15.26.949_micRespv2l3_recorded\recording_micRespv2l3_2023-11-28_13h16.57.365.wav;98.39373969985172;;None;98.39373969985172;98.39373969985172;98.39373969985172;98.39373969985172;98.39373969985172;98.39373969985172;;;;;;140203;001;2023-11-28_13h15.26.949;REPSWITCH1_version2_list3;2022.2.4;143.8813724527531;
REPSWITCH1/PICTURE_719.png;baño;speak;darkblue;filler;2;F;1;2;3;2;Stim2_Set4;0;None;16;15;16;0;15;15;15;;;;;;;;;;;;;;;;;;;;;;;98.89378879987635;99.94955080002546;99.94955080002546;99.94955080002546;99.94955080002546;99.94955080002546;99.94955080002546;99.94955080002546;99.94955080002546;None;0;;;C:\2023\REPSWITCH21092023\REPSWITCH_excgange\REPSWITCH_excgange\data/140203_REPSWITCH1_version2_list3_2023-11-28_13h15.26.949_micRespv2l3_recorded\recording_micRespv2l3_2023-11-28_13h17.01.950.wav;102.9776775999926;103.47774459980428;None;102.9776775999926;102.9776775999926;102.9776775999926;102.9776775999926;102.9776775999926;102.9776775999926;;;;;;140203;001;2023-11-28_13h15.26.949;REPSWITCH1_version2_list3;2022.2.4;143.8813724527531;
REPSWITCH1/PICTURE_169.png;espalda;type;gold;nontarget;1;NT;1;2;3;2;Stim8_Set1;1;switch;17;16;17;0;16;16;16;;;;;;;;;;;;;;;;;;;;;;;103.47774459980428;104.4848799998872;104.4848799998872;104.4848799998872;104.4848799998872;104.4848799998872;104.4848799998872;104.4848799998872;104.4848799998872;['e', 's', 'p', 'a', 'l', 'd', 'a'];0;[1.3358450001105666, 1.565059999935329, 1.7457804000005126, 1.8932849001139402, 2.084938900079578, 2.2942391000688076, 2.5044440999627113];espalda;C:\2023\REPSWITCH21092023\REPSWITCH_excgange\REPSWITCH_excgange\data/140203_REPSWITCH1_version2_list3_2023-11-28_13h15.26.949_micRespv2l3_recorded\recording_micRespv2l3_2023-11-28_13h17.06.484.wav;107.50604799995199;108.00609999988228;None;107.50604799995199;107.50604799995199;107.50604799995199;107.50604799995199;107.50604799995199;107.50604799995199;;;;;;140203;001;2023-11-28_13h15.26.949;REPSWITCH1_version2_list3;2022.2.4;143.8813724527531;
REPSWITCH1/PICTURE_169.png;espalda;type;gold;repeat;1;T;1;2;3;2;Stim8_Set1;0;None;18;17;18;0;17;17;17;;;;;;;;;;;;;;;;;;;;;;;108.00609999988228;109.16600149986334;109.16600149986334;109.16600149986334;109.16600149986334;109.16600149986334;109.16600149986334;109.16600149986334;109.16600149986334;['e', 's', 'p', 'a', 'l', 'd', 'a'];0;[0.9295398001559079, 1.1552142000291497, 1.3073496001306921, 1.4817641000263393, 1.6514976001344621, 1.8409973999951035, 2.0522573001217097];espalda;C:\2023\REPSWITCH21092023\REPSWITCH_excgange\REPSWITCH_excgange\data/140203_REPSWITCH1_version2_list3_2023-11-28_13h15.26.949_micRespv2l3_recorded\recording_micRespv2l3_2023-11-28_13h17.11.166.wav;112.18719359999523;112.68724250001833;None;112.18719359999523;112.18719359999523;112.18719359999523;112.18719359999523;112.18719359999523;112.18719359999523;;;;;;140203;001;2023-11-28_13h15.26.949;REPSWITCH1_version2_list3;2022.2.4;143.8813724527531;
REPSWITCH1/PICTURE_48.png;bombero;speak;darkblue;filler;2;F;1;2;3;2;Stim7_Set4;1;switch;19;18;19;0;18;18;18;;;;;;;;;;;;;;;;;;;;;;;112.68724250001833;113.74990379996598;113.74990379996598;113.74990379996598;113.74990379996598;113.74990379996598;113.74990379996598;113.74990379996598;113.74990379996598;None;0;;;C:\2023\REPSWITCH21092023\REPSWITCH_excgange\REPSWITCH_excgange\data/140203_REPSWITCH1_version2_list3_2023-11-28_13h15.26.949_micRespv2l3_recorded\recording_micRespv2l3_2023-11-28_13h17.15.751.wav;116.7780859998893;117.27814059983939;None;116.7780859998893;116.7780859998893;116.7780859998893;116.7780859998893;116.7780859998893;116.7780859998893;;;;;;140203;001;2023-11-28_13h15.26.949;REPSWITCH1_version2_list3;2022.2.4;143.8813724527531;
REPSWITCH1/PICTURE_19.png;pavo;type;gold;nontarget;1;NT;1;2;3;2;Stim5_Set1;1;switch;20;19;20;0;19;19;19;;;;;;;;;;;;;;;;;;;;;;;117.27814059983939;118.4449903999921;118.4449903999921;118.4449903999921;118.4449903999921;118.4449903999921;118.4449903999921;118.4449903999921;118.4449903999921;['p', 'a', 'c', 'v', 'o'];0;[1.5922455000691116, 1.6968614000361413, 1.9746411999221891, 1.9776769001036882, 2.0793083000462502];pavo;C:\2023\REPSWITCH21092023\REPSWITCH_excgange\REPSWITCH_excgange\data/140203_REPSWITCH1_version2_list3_2023-11-28_13h15.26.949_micRespv2l3_recorded\recording_micRespv2l3_2023-11-28_13h17.20.446.wav;121.46616850001737;121.96624660002999;None;121.46616850001737;121.46616850001737;121.46616850001737;121.46616850001737;121.46616850001737;121.46616850001737;;;;;;140203;001;2023-11-28_13h15.26.949;REPSWITCH1_version2_list3;2022.2.4;143.8813724527531;
REPSWITCH1/PICTURE_19.png;pavo;type;gold;repeat;1;T;1;2;3;2;Stim5_Set1;0;None;21;20;21;0;20;20;20;;;;;;;;;;;;;;;;;;;;;;;121.96624660002999;123.04976239986718;123.04976239986718;123.04976239986718;123.04976239986718;123.04976239986718;123.04976239986718;123.04976239986718;123.04976239986718;['p', 'a', 'v', 'o'];0;[0.8502076000440866, 0.9817737999837846, 1.2907198001630604, 1.400308000156656];pavo;C:\2023\REPSWITCH21092023\REPSWITCH_excgange\REPSWITCH_excgange\data/140203_REPSWITCH1_version2_list3_2023-11-28_13h15.26.949_micRespv2l3_recorded\recording_micRespv2l3_2023-11-28_13h17.25.050.wav;126.07793010002933;;None;126.07793010002933;126.07793010002933;126.07793010002933;126.07793010002933;126.07793010002933;126.07793010002933;;;;;;140203;001;2023-11-28_13h15.26.949;REPSWITCH1_version2_list3;2022.2.4;143.8813724527531;
REPSWITCH1/PICTURE_319.png;vaca;speak;darkblue;filler;2;F;1;2;3;2;Stim1_Set4;0;None;22;21;22;0;21;21;21;;;;;;;;;;;;;;;;;;;;;;;126.57798469997942;127.67534650000744;127.67534650000744;127.67534650000744;127.67534650000744;127.67534650000744;127.67534650000744;127.67534650000744;127.67534650000744;None;0;;;C:\2023\REPSWITCH21092023\REPSWITCH_excgange\REPSWITCH_excgange\data/140203_REPSWITCH1_version2_list3_2023-11-28_13h15.26.949_micRespv2l3_recorded\recording_micRespv2l3_2023-11-28_13h17.29.676.wav;130.70352260000072;131.2035939998459;None;130.70352260000072;130.70352260000072;130.70352260000072;130.70352260000072;130.70352260000072;130.70352260000072;;;;;;140203;001;2023-11-28_13h15.26.949;REPSWITCH1_version2_list3;2022.2.4;143.8813724527531;
REPSWITCH1/PICTURE_338.png;regalo;type;gold;filler;1;F;1;2;3;2;Stim6_Set4;0;None;23;22;23;0;22;22;22;;;;;;;;;;;;;;;;;;;;;;;131.2035939998459;132.34264109982178;132.34264109982178;132.34264109982178;132.34264109982178;132.34264109982178;132.34264109982178;132.34264109982178;132.34264109982178;['r', 'e', 'g', 'a', 'l', 'o'];0;[0.9929230001289397, 1.1434379999991506, 1.2998990002088249, 1.4238491000141948, 1.6650393002200872, 1.8086038001347333];regalo;C:\2023\REPSWITCH21092023\REPSWITCH_excgange\REPSWITCH_excgange\data/140203_REPSWITCH1_version2_list3_2023-11-28_13h15.26.949_micRespv2l3_recorded\recording_micRespv2l3_2023-11-28_13h17.34.343.wav;135.37081140000373;;None;135.37081140000373;135.37081140000373;135.37081140000373;135.37081140000373;135.37081140000373;135.37081140000373;;;;;;140203;001;2023-11-28_13h15.26.949;REPSWITCH1_version2_list3;2022.2.4;143.8813724527531;
REPSWITCH1/PICTURE_142.png;vaso;type;gold;nontarget;1;NT;1;2;3;2;Stim7_Set1;0;None;24;23;24;0;23;23;23;;;;;;;;;;;;;;;;;;;;;;;135.87087009986863;136.91270059999079;136.91270059999079;136.91270059999079;136.91270059999079;136.91270059999079;136.91270059999079;136.91270059999079;136.91270059999079;['v', 'a', 's', 'o'];0;[0.9519927001092583, 1.0556338001042604, 1.262331300182268, 1.3598694002721459];vaso;C:\2023\REPSWITCH21092023\REPSWITCH_excgange\REPSWITCH_excgange\data/140203_REPSWITCH1_version2_list3_2023-11-28_13h15.26.949_micRespv2l3_recorded\recording_micRespv2l3_2023-11-28_13h17.38.913.wav;139.94085349980742;140.44097989983857;None;139.94085349980742;139.94085349980742;139.94085349980742;139.94085349980742;139.94085349980742;139.94085349980742;;;;;;140203;001;2023-11-28_13h15.26.949;REPSWITCH1_version2_list3;2022.2.4;143.8813724527531;
REPSWITCH1/PICTURE_142.png;vaso;speak;darkblue;switch;2;T;1;2;3;2;Stim7_Set1;0;None;25;24;25;0;24;24;24;;;;;;;;;;;;;;;;;;;;;;;140.44097989983857;141.5174569999799;141.5174569999799;141.5174569999799;141.5174569999799;141.5174569999799;141.5174569999799;141.5174569999799;141.5174569999799;None;0;;;C:\2023\REPSWITCH21092023\REPSWITCH_excgange\REPSWITCH_excgange\data/140203_REPSWITCH1_version2_list3_2023-11-28_13h15.26.949_micRespv2l3_recorded\recording_micRespv2l3_2023-11-28_13h17.43.517.wav;144.54561539995484;;None;144.54561539995484;144.54561539995484;144.54561539995484;144.54561539995484;144.54561539995484;144.54561539995484;;;;;;140203;001;2023-11-28_13h15.26.949;REPSWITCH1_version2_list3;2022.2.4;143.8813724527531;
REPSWITCH1/PICTURE_687.png;camisa;type;gold;filler;1;F;1;2;3;2;Stim5_Set4;1;switch;26;25;26;0;25;25;25;;;;;;;;;;;;;;;;;;;;;;;145.04567609983496;146.21256219991483;146.21256219991483;146.21256219991483;146.21256219991483;146.21256219991483;146.21256219991483;146.21256219991483;146.21256219991483;['c', 'a', 'm', 'i', 's', 'a'];0;[1.1512342002242804, 1.281732400180772, 1.5154707001056522, 1.6936730002053082, 1.7873964002355933, 1.97671760013327];camisa;C:\2023\REPSWITCH21092023\REPSWITCH_excgange\REPSWITCH_excgange\data/140203_REPSWITCH1_version2_list3_2023-11-28_13h15.26.949_micRespv2l3_recorded\recording_micRespv2l3_2023-11-28_13h17.48.213.wav;149.2337392999325;149.73376199998893;None;149.2337392999325;149.2337392999325;149.2337392999325;149.2337392999325;149.2337392999325;149.2337392999325;;;;;;140203;001;2023-11-28_13h15.26.949;REPSWITCH1_version2_list3;2022.2.4;143.8813724527531;
REPSWITCH1/PICTURE_30.png;granja;type;gold;nontarget;1;NT;2;2;3;2;Stim5_Set2;0;None;27;26;27;0;26;26;26;;;;;;;;;;;;;;;;;;;;;;;149.73376199998893;150.8937476000283;150.8937476000283;150.8937476000283;150.8937476000283;150.8937476000283;150.8937476000283;150.8937476000283;150.8937476000283;['g', 'r', 'n', 'j', 'a'];0;[1.1150480001233518, 1.228044800227508, 1.5579109000973403, 2.172437700210139, 2.2813857002183795];grnja;C:\2023\REPSWITCH21092023\REPSWITCH_excgange\REPSWITCH_excgange\data/140203_REPSWITCH1_version2_list3_2023-11-28_13h15.26.949_micRespv2l3_recorded\recording_micRespv2l3_2023-11-28_13h17.52.894.wav;153.9218539998401;;None;153.9218539998401;153.9218539998401;153.9218539998401;153.9218539998401;153.9218539998401;153.9218539998401;;;;;;140203;001;2023-11-28_13h15.26.949;REPSWITCH1_version2_list3;2022.2.4;143.8813724527531;
REPSWITCH1/PICTURE_30.png;granja;type;gold;repeat;1;T;2;2;3;2;Stim5_Set2;0;None;28;27;28;0;27;27;27;;;;;;;;;;;;;;;;;;;;;;;154.42191009991802;155.52623629989102;155.52623629989102;155.52623629989102;155.52623629989102;155.52623629989102;155.52623629989102;155.52623629989102;155.52623629989102;['g', 'r', 'n', 'a', 'k', 'j', 'a', 'backspace', 'backspace', 'backspace'];0;[1.1146265000570565, 1.2460872002411634, 1.4753509000875056, 1.6276672000531107, 1.8170393002219498, 1.820025300141424, 1.9758556000888348, 2.705049800220877, 2.839046600041911, 2.9675600002519786];grna;C:\2023\REPSWITCH21092023\REPSWITCH_excgange\REPSWITCH_excgange\data/140203_REPSWITCH1_version2_list3_2023-11-28_13h15.26.949_micRespv2l3_recorded\recording_micRespv2l3_2023-11-28_13h17.57.527.wav;158.55439960001968;159.05446089990437;None;158.55439960001968;158.55439960001968;158.55439960001968;158.55439960001968;158.55439960001968;158.55439960001968;;;;;;140203;001;2023-11-28_13h15.26.949;REPSWITCH1_version2_list3;2022.2.4;143.8813724527531;
REPSWITCH1/PICTURE_128.png;muñeca;speak;darkblue;filler;2;F;2;2;3;2;Stim4_Set1;0;None;29;28;29;0;28;28;28;;;;;;;;;;;;;;;;;;;;;;;159.05446089990437;160.11712659988552;160.11712659988552;160.11712659988552;160.11712659988552;160.11712659988552;160.11712659988552;160.11712659988552;160.11712659988552;None;0;;;C:\2023\REPSWITCH21092023\REPSWITCH_excgange\REPSWITCH_excgange\data/140203_REPSWITCH1_version2_list3_2023-11-28_13h15.26.949_micRespv2l3_recorded\recording_micRespv2l3_2023-11-28_13h18.02.118.wav;163.1452744998969;;None;163.1452744998969;163.1452744998969;163.1452744998969;163.1452744998969;163.1452744998969;163.1452744998969;;;;;;140203;001;2023-11-28_13h15.26.949;REPSWITCH1_version2_list3;2022.2.4;143.8813724527531;
REPSWITCH1/PICTURE_264.png;mano;type;gold;nontarget;1;NT;2;2;3;2;Stim3_Set2;1;switch;30;29;30;0;29;29;29;;;;;;;;;;;;;;;;;;;;;;;163.64532070001587;164.73575029987842;164.73575029987842;164.73575029987842;164.73575029987842;164.73575029987842;164.73575029987842;164.73575029987842;164.73575029987842;['m', 'a', 'n', 'o'];0;[1.0359356000553817, 1.1635581001173705, 1.2880907002836466, 1.484436800237745];mano;C:\2023\REPSWITCH21092023\REPSWITCH_excgange\REPSWITCH_excgange\data/140203_REPSWITCH1_version2_list3_2023-11-28_13h15.26.949_micRespv2l3_recorded\recording_micRespv2l3_2023-11-28_13h18.06.736.wav;167.7639627000317;;None;167.7639627000317;167.7639627000317;167.7639627000317;167.7639627000317;167.7639627000317;167.7639627000317;;;;;;140203;001;2023-11-28_13h15.26.949;REPSWITCH1_version2_list3;2022.2.4;143.8813724527531;
REPSWITCH1/PICTURE_264.png;mano;type;gold;repeat;1;T;2;2;3;2;Stim3_Set2;0;None;31;30;31;0;30;30;30;;;;;;;;;;;;;;;;;;;;;;;168.2640676998999;169.3614072999917;169.3614072999917;169.3614072999917;169.3614072999917;169.3614072999917;169.3614072999917;169.3614072999917;169.3614072999917;['m', 'a', 'n', 'o'];0;[0.8488835000898689, 0.9666728000156581, 1.1022580000571907, 1.3015829999931157];mano;C:\2023\REPSWITCH21092023\REPSWITCH_excgange\REPSWITCH_excgange\data/140203_REPSWITCH1_version2_list3_2023-11-28_13h15.26.949_micRespv2l3_recorded\recording_micRespv2l3_2023-11-28_13h18.11.362.wav;172.38950789999217;;None;172.38950789999217;172.38950789999217;172.38950789999217;172.38950789999217;172.38950789999217;172.38950789999217;;;;;;140203;001;2023-11-28_13h15.26.949;REPSWITCH1_version2_list3;2022.2.4;143.8813724527531;
REPSWITCH1/PICTURE_175.png;pintor;type;gold;nontarget;1;NT;2;2;3;2;Stim1_Set2;0;None;32;31;32;0;31;31;31;;;;;;;;;;;;;;;;;;;;;;;172.88961169985123;174.09817399992608;174.09817399992608;174.09817399992608;174.09817399992608;174.09817399992608;174.09817399992608;174.09817399992608;174.09817399992608;['p', 'i', 'n', 't', 'o', 'r'];0;[1.147417000029236, 1.365678400034085, 1.5423434001859277, 2.049796500010416, 2.4571013001259416, 2.6029191000852734];pintor;C:\2023\REPSWITCH21092023\REPSWITCH_excgange\REPSWITCH_excgange\data/140203_REPSWITCH1_version2_list3_2023-11-28_13h15.26.949_micRespv2l3_recorded\recording_micRespv2l3_2023-11-28_13h18.16.100.wav;177.12625389988534;;None;177.12625389988534;177.12625389988534;177.12625389988534;177.12625389988534;177.12625389988534;177.12625389988534;;;;;;140203;001;2023-11-28_13h15.26.949;REPSWITCH1_version2_list3;2022.2.4;143.8813724527531;
REPSWITCH1/PICTURE_175.png;pintor;speak;darkblue;switch;2;T;2;2;3;2;Stim1_Set2;0;None;33;32;33;0;32;32;32;;;;;;;;;;;;;;;;;;;;;;;177.62638769997284;178.70288979983889;178.70288979983889;178.70288979983889;178.70288979983889;178.70288979983889;178.70288979983889;178.70288979983889;178.70288979983889;None;0;;;C:\2023\REPSWITCH21092023\REPSWITCH_excgange\REPSWITCH_excgange\data/140203_REPSWITCH1_version2_list3_2023-11-28_13h15.26.949_micRespv2l3_recorded\recording_micRespv2l3_2023-11-28_13h18.20.704.wav;181.7310607000254;;None;181.7310607000254;181.7310607000254;181.7310607000254;181.7310607000254;181.7310607000254;181.7310607000254;;;;;;140203;001;2023-11-28_13h15.26.949;REPSWITCH1_version2_list3;2022.2.4;143.8813724527531;
REPSWITCH1/PICTURE_135.png;traje;speak;darkblue;filler;2;F;2;2;3;2;Stim3_Set1;1;repeat;34;33;34;0;33;33;33;;;;;;;;;;;;;;;;;;;;;;;182.23111049993895;183.30765059986152;183.30765059986152;183.30765059986152;183.30765059986152;183.30765059986152;183.30765059986152;183.30765059986152;183.30765059986152;None;0;;;C:\2023\REPSWITCH21092023\REPSWITCH_excgange\REPSWITCH_excgange\data/140203_REPSWITCH1_version2_list3_2023-11-28_13h15.26.949_micRespv2l3_recorded\recording_micRespv2l3_2023-11-28_13h18.25.308.wav;186.3288590000011;186.82893419987522;None;186.3288590000011;186.3288590000011;186.3288590000011;186.3288590000011;186.3288590000011;186.3288590000011;;;;;;140203;001;2023-11-28_13h15.26.949;REPSWITCH1_version2_list3;2022.2.4;143.8813724527531;
REPSWITCH1/PICTURE_446.png;cerdo;speak;darkblue;nontarget;2;NT;2;2;3;2;Stim7_Set2;1;repeat;35;34;35;0;34;34;34;;;;;;;;;;;;;;;;;;;;;;;186.82893419987522;187.95413540001027;187.95413540001027;187.95413540001027;187.95413540001027;187.95413540001027;187.95413540001027;187.95413540001027;187.95413540001027;None;0;;;C:\2023\REPSWITCH21092023\REPSWITCH_excgange\REPSWITCH_excgange\data/140203_REPSWITCH1_version2_list3_2023-11-28_13h15.26.949_micRespv2l3_recorded\recording_micRespv2l3_2023-11-28_13h18.29.955.wav;190.9822430999484;;None;190.9822430999484;190.9822430999484;190.9822430999484;190.9822430999484;190.9822430999484;190.9822430999484;;;;;;140203;001;2023-11-28_13h15.26.949;REPSWITCH1_version2_list3;2022.2.4;143.8813724527531;
REPSWITCH1/PICTURE_446.png;cerdo;type;gold;switch;1;T;2;2;3;2;Stim7_Set2;0;None;36;35;36;0;35;35;35;;;;;;;;;;;;;;;;;;;;;;;191.48229889990762;192.67000109981745;192.67000109981745;192.67000109981745;192.67000109981745;192.67000109981745;192.67000109981745;192.67000109981745;192.67000109981745;['c', 'e', 'r', 'd', 'o'];0;[1.039256000192836, 1.2664659002330154, 1.5179774002172053, 1.7535562003031373, 1.8840591001790017];cerdo;C:\2023\REPSWITCH21092023\REPSWITCH_excgange\REPSWITCH_excgange\data/140203_REPSWITCH1_version2_list3_2023-11-28_13h15.26.949_micRespv2l3_recorded\recording_micRespv2l3_2023-11-28_13h18.34.671.wav;195.69813299993984;;None;195.69813299993984;195.69813299993984;195.69813299993984;195.69813299993984;195.69813299993984;195.69813299993984;;;;;;140203;001;2023-11-28_13h15.26.949;REPSWITCH1_version2_list3;2022.2.4;143.8813724527531;
REPSWITCH1/PICTURE_152.png;caracol;type;gold;nontarget;1;NT;2;2;3;2;Stim2_Set2;1;repeat;37;36;37;0;36;36;36;;;;;;;;;;;;;;;;;;;;;;;196.19819849985652;197.38588789990172;197.38588789990172;197.38588789990172;197.38588789990172;197.38588789990172;197.38588789990172;197.38588789990172;197.38588789990172;['c', 'a', 'r', 'a', 'c', 'o', 'l'];0;[1.0435088002122939, 1.1930960002355278, 1.3240249000955373, 1.4590510001871735, 2.0553708001971245, 2.173333000158891, 2.316139600239694];caracol;C:\2023\REPSWITCH21092023\REPSWITCH_excgange\REPSWITCH_excgange\data/140203_REPSWITCH1_version2_list3_2023-11-28_13h15.26.949_micRespv2l3_recorded\recording_micRespv2l3_2023-11-28_13h18.39.386.wav;200.41412459989078;;None;200.41412459989078;200.41412459989078;200.41412459989078;200.41412459989078;200.41412459989078;200.41412459989078;;;;;;140203;001;2023-11-28_13h15.26.949;REPSWITCH1_version2_list3;2022.2.4;143.8813724527531;
REPSWITCH1/PICTURE_152.png;caracol;speak;darkblue;switch;2;T;2;2;3;2;Stim2_Set2;0;None;38;37;38;0;37;37;37;;;;;;;;;;;;;;;;;;;;;;;200.91409099986777;201.99758489988744;201.99758489988744;201.99758489988744;201.99758489988744;201.99758489988744;201.99758489988744;201.99758489988744;201.99758489988744;None;0;;;C:\2023\REPSWITCH21092023\REPSWITCH_excgange\REPSWITCH_excgange\data/140203_REPSWITCH1_version2_list3_2023-11-28_13h15.26.949_micRespv2l3_recorded\recording_micRespv2l3_2023-11-28_13h18.43.998.wav;205.0257237998303;;None;205.0257237998303;205.0257237998303;205.0257237998303;205.0257237998303;205.0257237998303;205.0257237998303;;;;;;140203;001;2023-11-28_13h15.26.949;REPSWITCH1_version2_list3;2022.2.4;143.8813724527531;
REPSWITCH1/PICTURE_16.png;cazador;type;gold;filler;1;F;2;2;3;2;Stim6_Set1;0;None;39;38;39;0;38;38;38;;;;;;;;;;;;;;;;;;;;;;;205.5258275999222;206.58154369983822;206.58154369983822;206.58154369983822;206.58154369983822;206.58154369983822;206.58154369983822;206.58154369983822;206.58154369983822;['x', 'backspace', 'c', 'a', 'z'];0;[1.2128587001934648, 2.158326599979773, 2.468345700064674, 2.569055600091815, 2.7809088001959026];caz;C:\2023\REPSWITCH21092023\REPSWITCH_excgange\REPSWITCH_excgange\data/140203_REPSWITCH1_version2_list3_2023-11-28_13h15.26.949_micRespv2l3_recorded\recording_micRespv2l3_2023-11-28_13h18.48.582.wav;209.60276089981198;210.10281499987468;None;209.60276089981198;209.60276089981198;209.60276089981198;209.60276089981198;209.60276089981198;209.60276089981198;;;;;;140203;001;2023-11-28_13h15.26.949;REPSWITCH1_version2_list3;2022.2.4;143.8813724527531;
REPSWITCH1/PICTURE_381.png;fresa;speak;darkblue;filler;2;F;2;2;3;2;Stim2_Set1;0;None;40;39;40;0;39;39;39;;;;;;;;;;;;;;;;;;;;;;;210.10281499987468;211.23489689989947;211.23489689989947;211.23489689989947;211.23489689989947;211.23489689989947;211.23489689989947;211.23489689989947;211.23489689989947;None;0;;;C:\2023\REPSWITCH21092023\REPSWITCH_excgange\REPSWITCH_excgange\data/140203_REPSWITCH1_version2_list3_2023-11-28_13h15.26.949_micRespv2l3_recorded\recording_micRespv2l3_2023-11-28_13h18.53.235.wav;214.2630930999294;;None;214.2630930999294;214.2630930999294;214.2630930999294;214.2630930999294;214.2630930999294;214.2630930999294;;;;;;140203;001;2023-11-28_13h15.26.949;REPSWITCH1_version2_list3;2022.2.4;143.8813724527531;
REPSWITCH1/PICTURE_19.png;pavo;type;gold;filler;1;F;2;2;3;2;Stim5_Set1;0;None;41;40;41;0;40;40;40;;;;;;;;;;;;;;;;;;;;;;;214.76312519982457;215.90919879986905;215.90919879986905;215.90919879986905;215.90919879986905;215.90919879986905;215.90919879986905;215.90919879986905;215.90919879986905;['p', 'a', 'v', 'o'];0;[1.3710927001666278, 1.5066176999825984, 1.7647565000224859, 1.8584567001089454];pavo;C:\2023\REPSWITCH21092023\REPSWITCH_excgange\REPSWITCH_excgange\data/140203_REPSWITCH1_version2_list3_2023-11-28_13h15.26.949_micRespv2l3_recorded\recording_micRespv2l3_2023-11-28_13h18.57.910.wav;218.93728509987704;;None;218.93728509987704;218.93728509987704;218.93728509987704;218.93728509987704;218.93728509987704;218.93728509987704;;;;;;140203;001;2023-11-28_13h15.26.949;REPSWITCH1_version2_list3;2022.2.4;143.8813724527531;
REPSWITCH1/PICTURE_517.png;cuerda;speak;darkblue;nontarget;2;NT;2;2;3;2;Stim4_Set2;1;switch;42;41;42;0;41;41;41;;;;;;;;;;;;;;;;;;;;;;;219.43735599983484;220.45832469989546;220.45832469989546;220.45832469989546;220.45832469989546;220.45832469989546;220.45832469989546;220.45832469989546;220.45832469989546;None;0;;;C:\2023\REPSWITCH21092023\REPSWITCH_excgange\REPSWITCH_excgange\data/140203_REPSWITCH1_version2_list3_2023-11-28_13h15.26.949_micRespv2l3_recorded\recording_micRespv2l3_2023-11-28_13h19.02.459.wav;223.48654279997572;;None;223.48654279997572;223.48654279997572;223.48654279997572;223.48654279997572;223.48654279997572;223.48654279997572;;;;;;140203;001;2023-11-28_13h15.26.949;REPSWITCH1_version2_list3;2022.2.4;143.8813724527531;
REPSWITCH1/PICTURE_517.png;cuerda;speak;darkblue;repeat;2;T;2;2;3;2;Stim4_Set2;0;None;43;42;43;0;42;42;42;;;;;;;;;;;;;;;;;;;;;;;223.98658579983748;225.08401499991305;225.08401499991305;225.08401499991305;225.08401499991305;225.08401499991305;225.08401499991305;225.08401499991305;225.08401499991305;None;0;;;C:\2023\REPSWITCH21092023\REPSWITCH_excgange\REPSWITCH_excgange\data/140203_REPSWITCH1_version2_list3_2023-11-28_13h15.26.949_micRespv2l3_recorded\recording_micRespv2l3_2023-11-28_13h19.07.084.wav;228.10515219997615;228.60528919985518;None;228.10515219997615;228.10515219997615;228.10515219997615;228.10515219997615;228.10515219997615;228.10515219997615;;;;;;140203;001;2023-11-28_13h15.26.949;REPSWITCH1_version2_list3;2022.2.4;143.8813724527531;
REPSWITCH1/PICTURE_178.png;puente;type;gold;filler;1;F;2;2;3;2;Stim1_Set1;0;None;44;43;44;0;43;43;43;;;;;;;;;;;;;;;;;;;;;;;228.60528919985518;229.71649999986403;229.71649999986403;229.71649999986403;229.71649999986403;229.71649999986403;229.71649999986403;229.71649999986403;229.71649999986403;['p', 'u', 'e', 'n', 't', 'e'];0;[1.0620168002787977, 1.391896900255233, 1.5862456001341343, 1.6829662001691759, 1.865243200212717, 1.9410237001720816];puente;C:\2023\REPSWITCH21092023\REPSWITCH_excgange\REPSWITCH_excgange\data/140203_REPSWITCH1_version2_list3_2023-11-28_13h15.26.949_micRespv2l3_recorded\recording_micRespv2l3_2023-11-28_13h19.11.717.wav;232.7377347999718;233.2377996998839;None;232.7377347999718;232.7377347999718;232.7377347999718;232.7377347999718;232.7377347999718;232.7377347999718;;;;;;140203;001;2023-11-28_13h15.26.949;REPSWITCH1_version2_list3;2022.2.4;143.8813724527531;
REPSWITCH1/PICTURE_199.png;falda;speak;darkblue;nontarget;2;NT;2;2;3;2;Stim8_Set2;1;switch;45;44;45;0;44;44;44;;;;;;;;;;;;;;;;;;;;;;;233.2377996998839;234.3212523998227;234.3212523998227;234.3212523998227;234.3212523998227;234.3212523998227;234.3212523998227;234.3212523998227;234.3212523998227;None;0;;;C:\2023\REPSWITCH21092023\REPSWITCH_excgange\REPSWITCH_excgange\data/140203_REPSWITCH1_version2_list3_2023-11-28_13h15.26.949_micRespv2l3_recorded\recording_micRespv2l3_2023-11-28_13h19.16.322.wav;237.34944189991802;;None;237.34944189991802;237.34944189991802;237.34944189991802;237.34944189991802;237.34944189991802;237.34944189991802;;;;;;140203;001;2023-11-28_13h15.26.949;REPSWITCH1_version2_list3;2022.2.4;143.8813724527531;
REPSWITCH1/PICTURE_199.png;falda;speak;darkblue;repeat;2;T;2;2;3;2;Stim8_Set2;0;None;46;45;46;0;45;45;45;;;;;;;;;;;;;;;;;;;;;;;237.8495130999945;238.9191091998946;238.9191091998946;238.9191091998946;238.9191091998946;238.9191091998946;238.9191091998946;238.9191091998946;238.9191091998946;None;0;;;C:\2023\REPSWITCH21092023\REPSWITCH_excgange\REPSWITCH_excgange\data/140203_REPSWITCH1_version2_list3_2023-11-28_13h15.26.949_micRespv2l3_recorded\recording_micRespv2l3_2023-11-28_13h19.20.919.wav;241.94029359985143;242.44039679993875;None;241.94029359985143;241.94029359985143;241.94029359985143;241.94029359985143;241.94029359985143;241.94029359985143;;;;;;140203;001;2023-11-28_13h15.26.949;REPSWITCH1_version2_list3;2022.2.4;143.8813724527531;
REPSWITCH1/PICTURE_169.png;espalda;type;gold;filler;1;F;2;2;3;2;Stim8_Set1;0;None;47;46;47;0;46;46;46;;;;;;;;;;;;;;;;;;;;;;;242.44039679993875;243.53087619994767;243.53087619994767;243.53087619994767;243.53087619994767;243.53087619994767;243.53087619994767;243.53087619994767;243.53087619994767;['e', 's', 'p', 'a', 'l', 'd', 'a'];0;[0.9500763001851737, 1.1613315001595765, 1.2929232001770288, 1.457385100191459, 1.558044200297445, 1.7394367002416402, 2.008825900265947];espalda;C:\2023\REPSWITCH21092023\REPSWITCH_excgange\REPSWITCH_excgange\data/140203_REPSWITCH1_version2_list3_2023-11-28_13h15.26.949_micRespv2l3_recorded\recording_micRespv2l3_2023-11-28_13h19.25.530.wav;246.55204480001703;247.05208950000815;None;246.55204480001703;246.55204480001703;246.55204480001703;246.55204480001703;246.55204480001703;246.55204480001703;;;;;;140203;001;2023-11-28_13h15.26.949;REPSWITCH1_version2_list3;2022.2.4;143.8813724527531;
REPSWITCH1/PICTURE_142.png;vaso;speak;darkblue;filler;2;F;2;2;3;2;Stim7_Set1;0;None;48;47;48;0;47;47;47;;;;;;;;;;;;;;;;;;;;;;;247.05208950000815;248.14945679996163;248.14945679996163;248.14945679996163;248.14945679996163;248.14945679996163;248.14945679996163;248.14945679996163;248.14945679996163;None;0;;;C:\2023\REPSWITCH21092023\REPSWITCH_excgange\REPSWITCH_excgange\data/140203_REPSWITCH1_version2_list3_2023-11-28_13h15.26.949_micRespv2l3_recorded\recording_micRespv2l3_2023-11-28_13h19.30.150.wav;251.17764829983935;;None;251.17764829983935;251.17764829983935;251.17764829983935;251.17764829983935;251.17764829983935;251.17764829983935;;;;;;140203;001;2023-11-28_13h15.26.949;REPSWITCH1_version2_list3;2022.2.4;143.8813724527531;
REPSWITCH1/PICTURE_552.png;manzana;speak;darkblue;nontarget;2;NT;2;2;3;2;Stim6_Set2;0;None;49;48;49;0;48;48;48;;;;;;;;;;;;;;;;;;;;;;;251.6777901998721;252.85146399983205;252.85146399983205;252.85146399983205;252.85146399983205;252.85146399983205;252.85146399983205;252.85146399983205;252.85146399983205;None;0;;;C:\2023\REPSWITCH21092023\REPSWITCH_excgange\REPSWITCH_excgange\data/140203_REPSWITCH1_version2_list3_2023-11-28_13h15.26.949_micRespv2l3_recorded\recording_micRespv2l3_2023-11-28_13h19.34.852.wav;255.87267029983923;256.3727603999432;None;255.87267029983923;255.87267029983923;255.87267029983923;255.87267029983923;255.87267029983923;255.87267029983923;;;;;;140203;001;2023-11-28_13h15.26.949;REPSWITCH1_version2_list3;2022.2.4;143.8813724527531;
REPSWITCH1/PICTURE_552.png;manzana;type;gold;switch;1;T;2;2;3;2;Stim6_Set2;0;None;50;49;50;0;49;49;49;;;;;;;;;;;;;;;;;;;;;;;256.3727603999432;257.4771042999346;257.4771042999346;257.4771042999346;257.4771042999346;257.4771042999346;257.4771042999346;257.4771042999346;257.4771042999346;['m', 'a', 'n', 'z', 'a', 'n', 'a'];0;[1.0797208002768457, 1.228178100194782, 1.3896425003185868, 1.590007700258866, 1.7943166003096849, 2.1995880003087223, 2.298317300155759];manzana;C:\2023\REPSWITCH21092023\REPSWITCH_excgange\REPSWITCH_excgange\data/140203_REPSWITCH1_version2_list3_2023-11-28_13h15.26.949_micRespv2l3_recorded\recording_micRespv2l3_2023-11-28_13h19.39.478.wav;260.50530790002085;;None;260.50530790002085;260.50530790002085;260.50530790002085;260.50530790002085;260.50530790002085;260.50530790002085;;;;;;140203;001;2023-11-28_13h15.26.949;REPSWITCH1_version2_list3;2022.2.4;143.8813724527531;
REPSWITCH1/PICTURE_590.png;escoba;speak;darkblue;filler;2;F;1;2;3;2;Extra3;0;None;51;50;51;0;50;50;50;;;;;;;;;;;;;;;;;;;;;;;261.0052993998397;262.11659949994646;262.11659949994646;262.11659949994646;262.11659949994646;262.11659949994646;262.11659949994646;262.11659949994646;262.11659949994646;None;0;;;C:\2023\REPSWITCH21092023\REPSWITCH_excgange\REPSWITCH_excgange\data/140203_REPSWITCH1_version2_list3_2023-11-28_13h15.26.949_micRespv2l3_recorded\recording_micRespv2l3_2023-11-28_13h19.44.117.wav;265.1377999999095;265.63788129994646;space;265.1377999999095;265.1377999999095;265.1377999999095;265.1377999999095;265.1377999999095;265.1377999999095;265.63788129994646;265.63788129994646;2.26399810006842;;;140203;001;2023-11-28_13h15.26.949;REPSWITCH1_version2_list3;2022.2.4;143.8813724527531;
REPSWITCH1/PICTURE_552.png;manzana;type;gold;filler;1;F;3;2;3;2;Stim6_Set2;0;None;52;51;52;0;51;51;51;;;;;;;;;;;;;;;;;;;;;;;267.9089905000292;269.0897531998344;269.0897531998344;269.0897531998344;269.0897531998344;269.0897531998344;269.0897531998344;269.0897531998344;269.0897531998344;['m', 'a', 'n', 'z', 'a', 'n', 'b', 'a'];0;[1.3705517002381384, 1.4845313001424074, 1.639565900200978, 1.834950600285083, 2.0315822002012283, 2.193034800235182, 2.201007600175217, 2.2437654002569616];manzanba;C:\2023\REPSWITCH21092023\REPSWITCH_excgange\REPSWITCH_excgange\data/140203_REPSWITCH1_version2_list3_2023-11-28_13h15.26.949_micRespv2l3_recorded\recording_micRespv2l3_2023-11-28_13h19.51.090.wav;272.1109414999373;272.61099499999546;None;272.1109414999373;272.1109414999373;272.1109414999373;272.1109414999373;272.1109414999373;272.1109414999373;;;;;;140203;001;2023-11-28_13h15.26.949;REPSWITCH1_version2_list3;2022.2.4;143.8813724527531;
REPSWITCH1/PICTURE_464.png;goma;type;gold;nontarget;1;NT;3;2;3;2;Stim6_Set3;1;repeat;53;52;53;0;52;52;52;;;;;;;;;;;;;;;;;;;;;;;272.61099499999546;273.65974679985084;273.65974679985084;273.65974679985084;273.65974679985084;273.65974679985084;273.65974679985084;273.65974679985084;273.65974679985084;['g', 'o', 'm', 'a'];0;[1.2140799001790583, 1.3419660001527518, 1.5055213002488017, 1.6099048000760376];goma;C:\2023\REPSWITCH21092023\REPSWITCH_excgange\REPSWITCH_excgange\data/140203_REPSWITCH1_version2_list3_2023-11-28_13h15.26.949_micRespv2l3_recorded\recording_micRespv2l3_2023-11-28_13h19.55.660.wav;276.6879376999568;;None;276.6879376999568;276.6879376999568;276.6879376999568;276.6879376999568;276.6879376999568;276.6879376999568;;;;;;140203;001;2023-11-28_13h15.26.949;REPSWITCH1_version2_list3;2022.2.4;143.8813724527531;
REPSWITCH1/PICTURE_464.png;goma;speak;darkblue;switch;2;T;3;2;3;2;Stim6_Set3;0;None;54;53;54;0;53;53;53;;;;;;;;;;;;;;;;;;;;;;;277.18807759997435;278.327064699959;278.327064699959;278.327064699959;278.327064699959;278.327064699959;278.327064699959;278.327064699959;278.327064699959;None;0;;;C:\2023\REPSWITCH21092023\REPSWITCH_excgange\REPSWITCH_excgange\data/140203_REPSWITCH1_version2_list3_2023-11-28_13h15.26.949_micRespv2l3_recorded\recording_micRespv2l3_2023-11-28_13h20.00.327.wav;281.3482470999006;281.8483078000136;None;281.3482470999006;281.3482470999006;281.3482470999006;281.3482470999006;281.3482470999006;281.3482470999006;;;;;;140203;001;2023-11-28_13h15.26.949;REPSWITCH1_version2_list3;2022.2.4;143.8813724527531;
REPSWITCH1/PICTURE_30.png;granja;speak;darkblue;filler;2;F;3;2;3;2;Stim5_Set2;0;None;55;54;55;0;54;54;54;;;;;;;;;;;;;;;;;;;;;;;281.8483078000136;282.9179089998361;282.9179089998361;282.9179089998361;282.9179089998361;282.9179089998361;282.9179089998361;282.9179089998361;282.9179089998361;None;0;;;C:\2023\REPSWITCH21092023\REPSWITCH_excgange\REPSWITCH_excgange\data/140203_REPSWITCH1_version2_list3_2023-11-28_13h15.26.949_micRespv2l3_recorded\recording_micRespv2l3_2023-11-28_13h20.04.918.wav;285.9391492998693;286.43919109995477;None;285.9391492998693;285.9391492998693;285.9391492998693;285.9391492998693;285.9391492998693;285.9391492998693;;;;;;140203;001;2023-11-28_13h15.26.949;REPSWITCH1_version2_list3;2022.2.4;143.8813724527531;
REPSWITCH1/PICTURE_235.png;aguja;speak;darkblue;nontarget;2;NT;3;2;3;2;Stim4_Set3;1;repeat;56;55;56;0;55;55;55;;;;;;;;;;;;;;;;;;;;;;;286.43919109995477;287.4949234998785;287.4949234998785;287.4949234998785;287.4949234998785;287.4949234998785;287.4949234998785;287.4949234998785;287.4949234998785;None;0;;;C:\2023\REPSWITCH21092023\REPSWITCH_excgange\REPSWITCH_excgange\data/140203_REPSWITCH1_version2_list3_2023-11-28_13h15.26.949_micRespv2l3_recorded\recording_micRespv2l3_2023-11-28_13h20.09.496.wav;290.51610059989616;291.0161790999118;None;290.51610059989616;290.51610059989616;290.51610059989616;290.51610059989616;290.51610059989616;290.51610059989616;;;;;;140203;001;2023-11-28_13h15.26.949;REPSWITCH1_version2_list3;2022.2.4;143.8813724527531;
REPSWITCH1/PICTURE_235.png;aguja;type;gold;switch;1;T;3;2;3;2;Stim4_Set3;0;None;57;56;57;0;56;56;56;;;;;;;;;;;;;;;;;;;;;;;291.0161790999118;292.11355719994754;292.11355719994754;292.11355719994754;292.11355719994754;292.11355719994754;292.11355719994754;292.11355719994754;292.11355719994754;['a', 'g', 'u', 'j', 'a'];0;[0.9596863002516329, 1.462359200231731, 1.7075922002550215, 1.8770645002368838, 1.9698548002634197];aguja;C:\2023\REPSWITCH21092023\REPSWITCH_excgange\REPSWITCH_excgange\data/140203_REPSWITCH1_version2_list3_2023-11-28_13h15.26.949_micRespv2l3_recorded\recording_micRespv2l3_2023-11-28_13h20.14.113.wav;295.1348056998104;295.634924300015;None;295.1348056998104;295.1348056998104;295.1348056998104;295.1348056998104;295.1348056998104;295.1348056998104;;;;;;140203;001;2023-11-28_13h15.26.949;REPSWITCH1_version2_list3;2022.2.4;143.8813724527531;
REPSWITCH1/PICTURE_391.png;cadena;type;gold;filler;1;F;3;2;3;2;Extra2;0;None;58;57;58;0;57;57;57;;;;;;;;;;;;;;;;;;;;;;;295.634924300015;296.760032299906;296.760032299906;296.760032299906;296.760032299906;296.760032299906;296.760032299906;296.760032299906;296.760032299906;['c', 'a', 'd'];0;[2.465387400239706, 2.68491780012846, 2.9553399002179503];cad;C:\2023\REPSWITCH21092023\REPSWITCH_excgange\REPSWITCH_excgange\data/140203_REPSWITCH1_version2_list3_2023-11-28_13h15.26.949_micRespv2l3_recorded\recording_micRespv2l3_2023-11-28_13h20.18.761.wav;299.7881602998823;;None;299.7881602998823;299.7881602998823;299.7881602998823;299.7881602998823;299.7881602998823;299.7881602998823;;;;;;140203;001;2023-11-28_13h15.26.949;REPSWITCH1_version2_list3;2022.2.4;143.8813724527531;
REPSWITCH1/PICTURE_320.png;iglesia;type;gold;nontarget;1;NT;3;2;3;2;Stim8_Set3;0;None;59;58;59;0;58;58;58;;;;;;;;;;;;;;;;;;;;;;;300.28822789993137;301.3647600999102;301.3647600999102;301.3647600999102;301.3647600999102;301.3647600999102;301.3647600999102;301.3647600999102;301.3647600999102;['i', 'g', 'l', 'e', 's', 'i', 'a'];0;[1.5074797000270337, 1.7698762000072747, 2.005727699957788, 2.098281000042334, 2.247215900104493, 2.3741081999614835, 2.4587946999818087];iglesia;C:\2023\REPSWITCH21092023\REPSWITCH_excgange\REPSWITCH_excgange\data/140203_REPSWITCH1_version2_list3_2023-11-28_13h15.26.949_micRespv2l3_recorded\recording_micRespv2l3_2023-11-28_13h20.23.365.wav;304.3929651998915;;None;304.3929651998915;304.3929651998915;304.3929651998915;304.3929651998915;304.3929651998915;304.3929651998915;;;;;;140203;001;2023-11-28_13h15.26.949;REPSWITCH1_version2_list3;2022.2.4;143.8813724527531;
REPSWITCH1/PICTURE_320.png;iglesia;speak;darkblue;switch;2;T;3;2;3;2;Stim8_Set3;0;None;60;59;60;0;59;59;59;;;;;;;;;;;;;;;;;;;;;;;304.8930210999679;305.99044559989125;305.99044559989125;305.99044559989125;305.99044559989125;305.99044559989125;305.99044559989125;305.99044559989125;305.99044559989125;None;0;;;C:\2023\REPSWITCH21092023\REPSWITCH_excgange\REPSWITCH_excgange\data/140203_REPSWITCH1_version2_list3_2023-11-28_13h15.26.949_micRespv2l3_recorded\recording_micRespv2l3_2023-11-28_13h20.27.990.wav;309.0185245999601;;None;309.0185245999601;309.0185245999601;309.0185245999601;309.0185245999601;309.0185245999601;309.0185245999601;;;;;;140203;001;2023-11-28_13h15.26.949;REPSWITCH1_version2_list3;2022.2.4;143.8813724527531;
REPSWITCH1/PICTURE_175.png;pintor;type;gold;filler;1;F;3;2;3;2;Stim1_Set2;0;None;61;60;61;0;60;60;60;;;;;;;;;;;;;;;;;;;;;;;309.51863219984807;310.5396059998311;310.5396059998311;310.5396059998311;310.5396059998311;310.5396059998311;310.5396059998311;310.5396059998311;310.5396059998311;['p', 'i', 'n', 't', 'o', 'r'];0;[0.9744471001904458, 1.2036397000774741, 1.3631148000713438, 1.5215529000852257, 1.6260089999996126, 1.7205227999947965];pintor;C:\2023\REPSWITCH21092023\REPSWITCH_excgange\REPSWITCH_excgange\data/140203_REPSWITCH1_version2_list3_2023-11-28_13h15.26.949_micRespv2l3_recorded\recording_micRespv2l3_2023-11-28_13h20.32.539.wav;313.56083619990386;314.06087889987975;None;313.56083619990386;313.56083619990386;313.56083619990386;313.56083619990386;313.56083619990386;313.56083619990386;;;;;;140203;001;2023-11-28_13h15.26.949;REPSWITCH1_version2_list3;2022.2.4;143.8813724527531;
REPSWITCH1/PICTURE_271.png;conejo;speak;darkblue;nontarget;2;NT;3;2;3;2;Stim7_Set3;1;switch;62;61;62;0;61;61;61;;;;;;;;;;;;;;;;;;;;;;;314.06087889987975;315.1930094999261;315.1930094999261;315.1930094999261;315.1930094999261;315.1930094999261;315.1930094999261;315.1930094999261;315.1930094999261;None;0;;;C:\2023\REPSWITCH21092023\REPSWITCH_excgange\REPSWITCH_excgange\data/140203_REPSWITCH1_version2_list3_2023-11-28_13h15.26.949_micRespv2l3_recorded\recording_micRespv2l3_2023-11-28_13h20.37.194.wav;318.22115079988725;;None;318.22115079988725;318.22115079988725;318.22115079988725;318.22115079988725;318.22115079988725;318.22115079988725;;;;;;140203;001;2023-11-28_13h15.26.949;REPSWITCH1_version2_list3;2022.2.4;143.8813724527531;
REPSWITCH1/PICTURE_271.png;conejo;speak;darkblue;repeat;2;T;3;2;3;2;Stim7_Set3;0;None;63;62;63;0;62;62;62;;;;;;;;;;;;;;;;;;;;;;;318.7212711998727;319.7630953998305;319.7630953998305;319.7630953998305;319.7630953998305;319.7630953998305;319.7630953998305;319.7630953998305;319.7630953998305;None;0;;;C:\2023\REPSWITCH21092023\REPSWITCH_excgange\REPSWITCH_excgange\data/140203_REPSWITCH1_version2_list3_2023-11-28_13h15.26.949_micRespv2l3_recorded\recording_micRespv2l3_2023-11-28_13h20.41.764.wav;322.7842386998236;323.28429789980873;None;322.7842386998236;322.7842386998236;322.7842386998236;322.7842386998236;322.7842386998236;322.7842386998236;;;;;;140203;001;2023-11-28_13h15.26.949;REPSWITCH1_version2_list3;2022.2.4;143.8813724527531;
REPSWITCH1/PICTURE_446.png;cerdo;speak;darkblue;filler;2;F;3;2;3;2;Stim7_Set2;0;None;64;63;64;0;63;63;63;;;;;;;;;;;;;;;;;;;;;;;323.28429789980873;324.34694719989784;324.34694719989784;324.34694719989784;324.34694719989784;324.34694719989784;324.34694719989784;324.34694719989784;324.34694719989784;None;0;;;C:\2023\REPSWITCH21092023\REPSWITCH_excgange\REPSWITCH_excgange\data/140203_REPSWITCH1_version2_list3_2023-11-28_13h15.26.949_micRespv2l3_recorded\recording_micRespv2l3_2023-11-28_13h20.46.347.wav;327.3681565998122;327.86823079991154;None;327.3681565998122;327.3681565998122;327.3681565998122;327.3681565998122;327.3681565998122;327.3681565998122;;;;;;140203;001;2023-11-28_13h15.26.949;REPSWITCH1_version2_list3;2022.2.4;143.8813724527531;
REPSWITCH1/PICTURE_152.png;caracol;type;gold;filler;1;F;3;2;3;2;Stim2_Set2;0;None;65;64;65;0;64;64;64;;;;;;;;;;;;;;;;;;;;;;;327.86823079991154;329.01424609986134;329.01424609986134;329.01424609986134;329.01424609986134;329.01424609986134;329.01424609986134;329.01424609986134;329.01424609986134;['c', 'a', 'r', 'a', 'c', 'o', 'l'];0;[1.036607500165701, 1.2923600000794977, 1.5616516000591218, 1.815801199991256, 2.0310747001785785, 2.122773200040683, 2.2615898000076413];caracol;C:\2023\REPSWITCH21092023\REPSWITCH_excgange\REPSWITCH_excgange\data/140203_REPSWITCH1_version2_list3_2023-11-28_13h15.26.949_micRespv2l3_recorded\recording_micRespv2l3_2023-11-28_13h20.51.014.wav;332.0355238998309;332.5355344999116;None;332.0355238998309;332.0355238998309;332.0355238998309;332.0355238998309;332.0355238998309;332.0355238998309;;;;;;140203;001;2023-11-28_13h15.26.949;REPSWITCH1_version2_list3;2022.2.4;143.8813724527531;
REPSWITCH1/PICTURE_576.png;guante;speak;darkblue;nontarget;2;NT;3;2;3;2;Stim1_Set3;1;switch;66;65;66;0;65;65;65;;;;;;;;;;;;;;;;;;;;;;;332.5355344999116;333.65379399992526;333.65379399992526;333.65379399992526;333.65379399992526;333.65379399992526;333.65379399992526;333.65379399992526;333.65379399992526;None;0;;;C:\2023\REPSWITCH21092023\REPSWITCH_excgange\REPSWITCH_excgange\data/140203_REPSWITCH1_version2_list3_2023-11-28_13h15.26.949_micRespv2l3_recorded\recording_micRespv2l3_2023-11-28_13h20.55.655.wav;336.6819062998984;;None;336.6819062998984;336.6819062998984;336.6819062998984;336.6819062998984;336.6819062998984;336.6819062998984;;;;;;140203;001;2023-11-28_13h15.26.949;REPSWITCH1_version2_list3;2022.2.4;143.8813724527531;
REPSWITCH1/PICTURE_576.png;guante;speak;darkblue;repeat;2;T;3;2;3;2;Stim1_Set3;0;None;67;66;67;0;66;66;66;;;;;;;;;;;;;;;;;;;;;;;337.18198250001296;338.3140729998704;338.3140729998704;338.3140729998704;338.3140729998704;338.3140729998704;338.3140729998704;338.3140729998704;338.3140729998704;None;0;;;C:\2023\REPSWITCH21092023\REPSWITCH_excgange\REPSWITCH_excgange\data/140203_REPSWITCH1_version2_list3_2023-11-28_13h15.26.949_micRespv2l3_recorded\recording_micRespv2l3_2023-11-28_13h21.00.315.wav;341.3422203999944;;None;341.3422203999944;341.3422203999944;341.3422203999944;341.3422203999944;341.3422203999944;341.3422203999944;;;;;;140203;001;2023-11-28_13h15.26.949;REPSWITCH1_version2_list3;2022.2.4;143.8813724527531;
REPSWITCH1/PICTURE_242.png;cartero;speak;darkblue;nontarget;2;NT;3;2;3;2;Stim3_Set3;0;None;68;67;68;0;67;67;67;;;;;;;;;;;;;;;;;;;;;;;341.8422935998533;342.93271339987405;342.93271339987405;342.93271339987405;342.93271339987405;342.93271339987405;342.93271339987405;342.93271339987405;342.93271339987405;None;0;;;C:\2023\REPSWITCH21092023\REPSWITCH_excgange\REPSWITCH_excgange\data/140203_REPSWITCH1_version2_list3_2023-11-28_13h15.26.949_micRespv2l3_recorded\recording_micRespv2l3_2023-11-28_13h21.04.934.wav;345.9609048999846;;None;345.9609048999846;345.9609048999846;345.9609048999846;345.9609048999846;345.9609048999846;345.9609048999846;;;;;;140203;001;2023-11-28_13h15.26.949;REPSWITCH1_version2_list3;2022.2.4;143.8813724527531;
REPSWITCH1/PICTURE_242.png;cartero;type;gold;switch;1;T;3;2;3;2;Stim3_Set3;0;None;69;68;69;0;68;68;68;;;;;;;;;;;;;;;;;;;;;;;346.46103639993817;347.5305464998819;347.5305464998819;347.5305464998819;347.5305464998819;347.5305464998819;347.5305464998819;347.5305464998819;347.5305464998819;['c', 'a', 'r', 't', 'e', 'r', 'o'];0;[1.0996598999481648, 1.2237708000466228, 1.3591651001479477, 1.5465059999842197, 1.7259570001624525, 1.8877934999763966, 1.9732111000921577];cartero;C:\2023\REPSWITCH21092023\REPSWITCH_excgange\REPSWITCH_excgange\data/140203_REPSWITCH1_version2_list3_2023-11-28_13h15.26.949_micRespv2l3_recorded\recording_micRespv2l3_2023-11-28_13h21.09.531.wav;350.5517956998665;351.05185689986683;None;350.5517956998665;350.5517956998665;350.5517956998665;350.5517956998665;350.5517956998665;350.5517956998665;;;;;;140203;001;2023-11-28_13h15.26.949;REPSWITCH1_version2_list3;2022.2.4;143.8813724527531;
REPSWITCH1/PICTURE_517.png;cuerda;speak;darkblue;filler;2;F;3;2;3;2;Stim4_Set2;0;None;70;69;70;0;69;69;69;;;;;;;;;;;;;;;;;;;;;;;351.05185689986683;352.10059599997476;352.10059599997476;352.10059599997476;352.10059599997476;352.10059599997476;352.10059599997476;352.10059599997476;352.10059599997476;None;0;;;C:\2023\REPSWITCH21092023\REPSWITCH_excgange\REPSWITCH_excgange\data/140203_REPSWITCH1_version2_list3_2023-11-28_13h15.26.949_micRespv2l3_recorded\recording_micRespv2l3_2023-11-28_13h21.14.101.wav;355.1288534998894;;None;355.1288534998894;355.1288534998894;355.1288534998894;355.1288534998894;355.1288534998894;355.1288534998894;;;;;;140203;001;2023-11-28_13h15.26.949;REPSWITCH1_version2_list3;2022.2.4;143.8813724527531;
REPSWITCH1/PICTURE_646.png;tronco;type;gold;filler;1;F;3;2;3;2;Extra4;0;None;71;70;71;0;70;70;70;;;;;;;;;;;;;;;;;;;;;;;355.6288290999364;356.75400600000285;356.75400600000285;356.75400600000285;356.75400600000285;356.75400600000285;356.75400600000285;356.75400600000285;356.75400600000285;['t', 'r', 'o', 'n', 'c', 'o'];0;[1.021176100242883, 1.1238621000666171, 1.3015845001209527, 1.6358250002376735, 1.8938924001995474, 1.9676456002052873];tronco;C:\2023\REPSWITCH21092023\REPSWITCH_excgange\REPSWITCH_excgange\data/140203_REPSWITCH1_version2_list3_2023-11-28_13h15.26.949_micRespv2l3_recorded\recording_micRespv2l3_2023-11-28_13h21.18.754.wav;359.7821464999579;;None;359.7821464999579;359.7821464999579;359.7821464999579;359.7821464999579;359.7821464999579;359.7821464999579;;;;;;140203;001;2023-11-28_13h15.26.949;REPSWITCH1_version2_list3;2022.2.4;143.8813724527531;
REPSWITCH1/PICTURE_35.png;oreja;type;gold;nontarget;1;NT;3;2;3;2;Stim5_Set3;1;repeat;72;71;72;0;71;71;71;;;;;;;;;;;;;;;;;;;;;;;360.28227830003016;361.365779499989;361.365779499989;361.365779499989;361.365779499989;361.365779499989;361.365779499989;361.365779499989;361.365779499989;['o', 'r', 'e', 'j', 'a'];0;[1.102132000029087, 1.2635912001132965, 1.4519527000375092, 1.585500800050795, 1.7191123000811785];oreja;C:\2023\REPSWITCH21092023\REPSWITCH_excgange\REPSWITCH_excgange\data/140203_REPSWITCH1_version2_list3_2023-11-28_13h15.26.949_micRespv2l3_recorded\recording_micRespv2l3_2023-11-28_13h21.23.367.wav;364.39388150000013;;None;364.39388150000013;364.39388150000013;364.39388150000013;364.39388150000013;364.39388150000013;364.39388150000013;;;;;;140203;001;2023-11-28_13h15.26.949;REPSWITCH1_version2_list3;2022.2.4;143.8813724527531;
REPSWITCH1/PICTURE_35.png;oreja;type;gold;repeat;1;T;3;2;3;2;Stim5_Set3;0;None;73;72;73;0;72;72;72;;;;;;;;;;;;;;;;;;;;;;;364.89395599998534;365.9774536998011;365.9774536998011;365.9774536998011;365.9774536998011;365.9774536998011;365.9774536998011;365.9774536998011;365.9774536998011;['o', 'r', 'e', 'j', 'a'];0;[0.8740019001998007, 1.0232289002742618, 1.2425908001605421, 1.3486528003122658, 1.4960537001024932];oreja;C:\2023\REPSWITCH21092023\REPSWITCH_excgange\REPSWITCH_excgange\data/140203_REPSWITCH1_version2_list3_2023-11-28_13h15.26.949_micRespv2l3_recorded\recording_micRespv2l3_2023-11-28_13h21.27.978.wav;368.99865909991786;369.4987927998882;None;368.99865909991786;368.99865909991786;368.99865909991786;368.99865909991786;368.99865909991786;368.99865909991786;;;;;;140203;001;2023-11-28_13h15.26.949;REPSWITCH1_version2_list3;2022.2.4;143.8813724527531;
REPSWITCH1/PICTURE_199.png;falda;speak;darkblue;filler;2;F;3;2;3;2;Stim8_Set2;0;None;74;73;74;0;73;73;73;;;;;;;;;;;;;;;;;;;;;;;369.4987927998882;370.5405351999216;370.5405351999216;370.5405351999216;370.5405351999216;370.5405351999216;370.5405351999216;370.5405351999216;370.5405351999216;None;0;;;C:\2023\REPSWITCH21092023\REPSWITCH_excgange\REPSWITCH_excgange\data/140203_REPSWITCH1_version2_list3_2023-11-28_13h15.26.949_micRespv2l3_recorded\recording_micRespv2l3_2023-11-28_13h21.32.541.wav;373.5617142999545;374.06184219988063;None;373.5617142999545;373.5617142999545;373.5617142999545;373.5617142999545;373.5617142999545;373.5617142999545;;;;;;140203;001;2023-11-28_13h15.26.949;REPSWITCH1_version2_list3;2022.2.4;143.8813724527531;
REPSWITCH1/PICTURE_610.png;miel;type;gold;nontarget;1;NT;3;2;3;2;Stim2_Set3;1;switch;75;74;75;0;74;74;74;;;;;;;;;;;;;;;;;;;;;;;374.06184219988063;375.1661366999615;375.1661366999615;375.1661366999615;375.1661366999615;375.1661366999615;375.1661366999615;375.1661366999615;375.1661366999615;['m', 'i', 'e', 'l'];0;[0.9850808000192046, 1.1554050000850111, 1.2371284000109881, 1.3776897001080215];miel;C:\2023\REPSWITCH21092023\REPSWITCH_excgange\REPSWITCH_excgange\data/140203_REPSWITCH1_version2_list3_2023-11-28_13h15.26.949_micRespv2l3_recorded\recording_micRespv2l3_2023-11-28_13h21.37.166.wav;378.1874000998214;378.6874253998976;None;378.1874000998214;378.1874000998214;378.1874000998214;378.1874000998214;378.1874000998214;378.1874000998214;;;;;;140203;001;2023-11-28_13h15.26.949;REPSWITCH1_version2_list3;2022.2.4;143.8813724527531;
REPSWITCH1/PICTURE_610.png;miel;type;gold;repeat;1;T;3;2;3;2;Stim2_Set3;0;None;76;75;76;0;75;75;75;;;;;;;;;;;;;;;;;;;;;;;378.6874253998976;379.74310969980434;379.74310969980434;379.74310969980434;379.74310969980434;379.74310969980434;379.74310969980434;379.74310969980434;379.74310969980434;['m', 'i', 'e', 'l'];0;[0.7378551999572664, 0.9045820001047105, 0.9838568998966366, 1.6310632000677288];miel;C:\2023\REPSWITCH21092023\REPSWITCH_excgange\REPSWITCH_excgange\data/140203_REPSWITCH1_version2_list3_2023-11-28_13h15.26.949_micRespv2l3_recorded\recording_micRespv2l3_2023-11-28_13h21.41.743.wav;382.764421899803;383.264481500024;None;382.764421899803;382.764421899803;382.764421899803;382.764421899803;382.764421899803;382.764421899803;;;;;;140203;001;2023-11-28_13h15.26.949;REPSWITCH1_version2_list3;2022.2.4;143.8813724527531;
REPSWITCH1/PICTURE_264.png;mano;type;gold;filler;1;F;3;2;3;2;Stim3_Set2;1;repeat;77;76;77;0;76;76;76;;;;;;;;;;;;;;;;;;;;;;;383.264481500024;384.2785076999571;384.2785076999571;384.2785076999571;384.2785076999571;384.2785076999571;384.2785076999571;384.2785076999571;384.2785076999571;['m', 'a', 'n', 'o'];0;[0.8415674001444131, 0.9608263000845909, 1.049577500205487, 1.2581427001859993];mano;C:\2023\REPSWITCH21092023\REPSWITCH_excgange\REPSWITCH_excgange\data/140203_REPSWITCH1_version2_list3_2023-11-28_13h15.26.949_micRespv2l3_recorded\recording_micRespv2l3_2023-11-28_13h21.46.280.wav;387.3065820999909;;None;387.3065820999909;387.3065820999909;387.3065820999909;387.3065820999909;387.3065820999909;387.3065820999909;;;;;;140203;001;2023-11-28_13h15.26.949;REPSWITCH1_version2_list3;2022.2.4;143.8813724527531;
REPSWITCH1/PICTURE_464.png;goma;speak;darkblue;filler;2;F;4;2;3;2;Stim6_Set3;0;None;78;77;78;0;77;77;77;;;;;;;;;;;;;;;;;;;;;;;387.806751600001;388.917921599932;388.917921599932;388.917921599932;388.917921599932;388.917921599932;388.917921599932;388.917921599932;388.917921599932;None;0;;;C:\2023\REPSWITCH21092023\REPSWITCH_excgange\REPSWITCH_excgange\data/140203_REPSWITCH1_version2_list3_2023-11-28_13h15.26.949_micRespv2l3_recorded\recording_micRespv2l3_2023-11-28_13h21.50.918.wav;391.9460707998369;;None;391.9460707998369;391.9460707998369;391.9460707998369;391.9460707998369;391.9460707998369;391.9460707998369;;;;;;140203;001;2023-11-28_13h15.26.949;REPSWITCH1_version2_list3;2022.2.4;143.8813724527531;
REPSWITCH1/PICTURE_8.png;pierna;type;gold;nontarget;1;NT;4;2;3;2;Stim3_Set4;1;switch;79;78;79;0;78;78;78;;;;;;;;;;;;;;;;;;;;;;;392.4461544000078;393.54352479986846;393.54352479986846;393.54352479986846;393.54352479986846;393.54352479986846;393.54352479986846;393.54352479986846;393.54352479986846;['p', 'i', 'e', 'r', 'n', 'a'];0;[1.693285200279206, 1.8986075001303107, 2.0381314002443105, 2.190584700088948, 2.278287400258705, 2.4114788002334535];pierna;C:\2023\REPSWITCH21092023\REPSWITCH_excgange\REPSWITCH_excgange\data/140203_REPSWITCH1_version2_list3_2023-11-28_13h15.26.949_micRespv2l3_recorded\recording_micRespv2l3_2023-11-28_13h21.55.544.wav;396.5648405000102;397.06490259990096;None;396.5648405000102;396.5648405000102;396.5648405000102;396.5648405000102;396.5648405000102;396.5648405000102;;;;;;140203;001;2023-11-28_13h15.26.949;REPSWITCH1_version2_list3;2022.2.4;143.8813724527531;
REPSWITCH1/PICTURE_8.png;pierna;type;gold;repeat;1;T;4;2;3;2;Stim3_Set4;0;None;80;79;80;0;79;79;79;;;;;;;;;;;;;;;;;;;;;;;397.06490259990096;398.106699799886;398.106699799886;398.106699799886;398.106699799886;398.106699799886;398.106699799886;398.106699799886;398.106699799886;['p', 'i', 'e', 'r', 'n', 'a'];0;[0.9035785000305623, 1.1202171000186354, 1.2562090000137687, 1.4157704000826925, 1.5084540001116693, 1.6499801001045853];pierna;C:\2023\REPSWITCH21092023\REPSWITCH_excgange\REPSWITCH_excgange\data/140203_REPSWITCH1_version2_list3_2023-11-28_13h15.26.949_micRespv2l3_recorded\recording_micRespv2l3_2023-11-28_13h22.00.106.wav;401.12786939996295;401.6279279999435;None;401.12786939996295;401.12786939996295;401.12786939996295;401.12786939996295;401.12786939996295;401.12786939996295;;;;;;140203;001;2023-11-28_13h15.26.949;REPSWITCH1_version2_list3;2022.2.4;143.8813724527531;
REPSWITCH1/PICTURE_728.png;pulpo;type;gold;nontarget;1;NT;4;2;3;2;Stim8_Set4;1;repeat;81;80;81;0;80;80;80;;;;;;;;;;;;;;;;;;;;;;;401.6279279999435;402.76698239985853;402.76698239985853;402.76698239985853;402.76698239985853;402.76698239985853;402.76698239985853;402.76698239985853;402.76698239985853;['p', 'i', 'l', 'p', 'o'];0;[1.071199500001967, 1.27660940005444, 1.4498789999634027, 1.65008580009453, 1.805028400151059];pilpo;C:\2023\REPSWITCH21092023\REPSWITCH_excgange\REPSWITCH_excgange\data/140203_REPSWITCH1_version2_list3_2023-11-28_13h15.26.949_micRespv2l3_recorded\recording_micRespv2l3_2023-11-28_13h22.04.768.wav;405.7951013999991;;None;405.7951013999991;405.7951013999991;405.7951013999991;405.7951013999991;405.7951013999991;405.7951013999991;;;;;;140203;001;2023-11-28_13h15.26.949;REPSWITCH1_version2_list3;2022.2.4;143.8813724527531;
REPSWITCH1/PICTURE_728.png;pulpo;speak;darkblue;switch;2;T;4;2;3;2;Stim8_Set4;0;None;82;81;82;0;81;81;81;;;;;;;;;;;;;;;;;;;;;;;406.2952053998597;407.4273692998104;407.4273692998104;407.4273692998104;407.4273692998104;407.4273692998104;407.4273692998104;407.4273692998104;407.4273692998104;None;0;;;C:\2023\REPSWITCH21092023\REPSWITCH_excgange\REPSWITCH_excgange\data/140203_REPSWITCH1_version2_list3_2023-11-28_13h15.26.949_micRespv2l3_recorded\recording_micRespv2l3_2023-11-28_13h22.09.427.wav;410.4485230999999;410.94859869987704;None;410.4485230999999;410.4485230999999;410.4485230999999;410.4485230999999;410.4485230999999;410.4485230999999;;;;;;140203;001;2023-11-28_13h15.26.949;REPSWITCH1_version2_list3;2022.2.4;143.8813724527531;
REPSWITCH1/PICTURE_235.png;aguja;type;gold;filler;1;F;4;2;3;2;Stim4_Set3;0;None;83;82;83;0;82;82;82;;;;;;;;;;;;;;;;;;;;;;;410.94859869987704;412.1015305998735;412.1015305998735;412.1015305998735;412.1015305998735;412.1015305998735;412.1015305998735;412.1015305998735;412.1015305998735;['a', 'g', 'u', 'j', 'a'];0;[0.8862682001199573, 1.3020609002560377, 1.5078176001552492, 1.6652807001955807, 1.773901500273496];aguja;C:\2023\REPSWITCH21092023\REPSWITCH_excgange\REPSWITCH_excgange\data/140203_REPSWITCH1_version2_list3_2023-11-28_13h15.26.949_micRespv2l3_recorded\recording_micRespv2l3_2023-11-28_13h22.14.101.wav;415.1227547999006;415.62282479996793;None;415.1227547999006;415.1227547999006;415.1227547999006;415.1227547999006;415.1227547999006;415.1227547999006;;;;;;140203;001;2023-11-28_13h15.26.949;REPSWITCH1_version2_list3;2022.2.4;143.8813724527531;
REPSWITCH1/PICTURE_498.png;taza;speak;darkblue;nontarget;2;NT;4;2;3;2;Stim4_Set4;1;switch;84;83;84;0;83;83;83;;;;;;;;;;;;;;;;;;;;;;;415.62282479996793;416.75494210002944;416.75494210002944;416.75494210002944;416.75494210002944;416.75494210002944;416.75494210002944;416.75494210002944;416.75494210002944;None;0;;;C:\2023\REPSWITCH21092023\REPSWITCH_excgange\REPSWITCH_excgange\data/140203_REPSWITCH1_version2_list3_2023-11-28_13h15.26.949_micRespv2l3_recorded\recording_micRespv2l3_2023-11-28_13h22.18.755.wav;419.7761230999604;420.27618679986335;None;419.7761230999604;419.7761230999604;419.7761230999604;419.7761230999604;419.7761230999604;419.7761230999604;;;;;;140203;001;2023-11-28_13h15.26.949;REPSWITCH1_version2_list3;2022.2.4;143.8813724527531;
REPSWITCH1/PICTURE_498.png;taza;speak;darkblue;repeat;2;T;4;2;3;2;Stim4_Set4;0;None;85;84;85;0;84;84;84;;;;;;;;;;;;;;;;;;;;;;;420.27618679986335;421.35968859982677;421.35968859982677;421.35968859982677;421.35968859982677;421.35968859982677;421.35968859982677;421.35968859982677;421.35968859982677;None;0;;;C:\2023\REPSWITCH21092023\REPSWITCH_excgange\REPSWITCH_excgange\data/140203_REPSWITCH1_version2_list3_2023-11-28_13h15.26.949_micRespv2l3_recorded\recording_micRespv2l3_2023-11-28_13h22.23.360.wav;424.38087959983386;424.88096809992567;None;424.38087959983386;424.38087959983386;424.38087959983386;424.38087959983386;424.38087959983386;424.38087959983386;;;;;;140203;001;2023-11-28_13h15.26.949;REPSWITCH1_version2_list3;2022.2.4;143.8813724527531;
REPSWITCH1/PICTURE_719.png;baño;speak;darkblue;nontarget;2;NT;4;2;3;2;Stim2_Set4;0;None;86;85;86;0;85;85;85;;;;;;;;;;;;;;;;;;;;;;;424.88096809992567;425.9644732000306;425.9644732000306;425.9644732000306;425.9644732000306;425.9644732000306;425.9644732000306;425.9644732000306;425.9644732000306;None;0;;;C:\2023\REPSWITCH21092023\REPSWITCH_excgange\REPSWITCH_excgange\data/140203_REPSWITCH1_version2_list3_2023-11-28_13h15.26.949_micRespv2l3_recorded\recording_micRespv2l3_2023-11-28_13h22.27.966.wav;428.99262359994464;;None;428.99262359994464;428.99262359994464;428.99262359994464;428.99262359994464;428.99262359994464;428.99262359994464;;;;;;140203;001;2023-11-28_13h15.26.949;REPSWITCH1_version2_list3;2022.2.4;143.8813724527531;
REPSWITCH1/PICTURE_719.png;baño;type;gold;switch;1;T;4;2;3;2;Stim2_Set4;0;None;87;86;87;0;86;86;86;;;;;;;;;;;;;;;;;;;;;;;429.4927001998294;430.5970077998936;430.5970077998936;430.5970077998936;430.5970077998936;430.5970077998936;430.5970077998936;430.5970077998936;430.5970077998936;['b', 'a', 'ñ', 'o'];0;[1.0815847001504153, 1.2130531000439078, 1.7276133000850677, 1.881965700071305];baño;C:\2023\REPSWITCH21092023\REPSWITCH_excgange\REPSWITCH_excgange\data/140203_REPSWITCH1_version2_list3_2023-11-28_13h15.26.949_micRespv2l3_recorded\recording_micRespv2l3_2023-11-28_13h22.32.597.wav;433.61820279993117;434.1183751998469;None;433.61820279993117;433.61820279993117;433.61820279993117;433.61820279993117;433.61820279993117;433.61820279993117;;;;;;140203;001;2023-11-28_13h15.26.949;REPSWITCH1_version2_list3;2022.2.4;143.8813724527531;
REPSWITCH1/PICTURE_320.png;iglesia;speak;darkblue;filler;2;F;4;2;3;2;Stim8_Set3;0;None;88;87;88;0;87;87;87;;;;;;;;;;;;;;;;;;;;;;;434.1183751998469;435.1879187999293;435.1879187999293;435.1879187999293;435.1879187999293;435.1879187999293;435.1879187999293;435.1879187999293;435.1879187999293;None;0;;;C:\2023\REPSWITCH21092023\REPSWITCH_excgange\REPSWITCH_excgange\data/140203_REPSWITCH1_version2_list3_2023-11-28_13h15.26.949_micRespv2l3_recorded\recording_micRespv2l3_2023-11-28_13h22.37.188.wav;438.2160379998386;;None;438.2160379998386;438.2160379998386;438.2160379998386;438.2160379998386;438.2160379998386;438.2160379998386;;;;;;140203;001;2023-11-28_13h15.26.949;REPSWITCH1_version2_list3;2022.2.4;143.8813724527531;
REPSWITCH1/PICTURE_48.png;bombero;type;gold;nontarget;1;NT;4;2;3;2;Stim7_Set4;1;switch;89;88;89;0;88;88;88;;;;;;;;;;;;;;;;;;;;;;;438.7161081000231;439.84824749990366;439.84824749990366;439.84824749990366;439.84824749990366;439.84824749990366;439.84824749990366;439.84824749990366;439.84824749990366;['b', 'o', 'm', 'b', 'e', 'r', 'o'];0;[0.894738000119105, 1.1901664000470191, 1.4705287001561373, 1.6952137001790106, 1.8666332000866532, 2.025108000030741, 2.0898534001316875];bombero;C:\2023\REPSWITCH21092023\REPSWITCH_excgange\REPSWITCH_excgange\data/140203_REPSWITCH1_version2_list3_2023-11-28_13h15.26.949_micRespv2l3_recorded\recording_micRespv2l3_2023-11-28_13h22.41.848.wav;442.86941779986955;443.3695139999036;None;442.86941779986955;442.86941779986955;442.86941779986955;442.86941779986955;442.86941779986955;442.86941779986955;;;;;;140203;001;2023-11-28_13h15.26.949;REPSWITCH1_version2_list3;2022.2.4;143.8813724527531;
REPSWITCH1/PICTURE_48.png;bombero;speak;darkblue;switch;2;T;4;2;3;2;Stim7_Set4;0;None;90;89;90;0;89;89;89;;;;;;;;;;;;;;;;;;;;;;;443.3695139999036;444.5085401998367;444.5085401998367;444.5085401998367;444.5085401998367;444.5085401998367;444.5085401998367;444.5085401998367;444.5085401998367;None;0;;;C:\2023\REPSWITCH21092023\REPSWITCH_excgange\REPSWITCH_excgange\data/140203_REPSWITCH1_version2_list3_2023-11-28_13h15.26.949_micRespv2l3_recorded\recording_micRespv2l3_2023-11-28_13h22.46.510.wav;447.53674649982713;;None;447.53674649982713;447.53674649982713;447.53674649982713;447.53674649982713;447.53674649982713;447.53674649982713;;;;;;140203;001;2023-11-28_13h15.26.949;REPSWITCH1_version2_list3;2022.2.4;143.8813724527531;
REPSWITCH1/PICTURE_576.png;guante;type;gold;filler;1;F;4;2;3;2;Stim1_Set3;0;None;91;90;91;0;90;90;90;;;;;;;;;;;;;;;;;;;;;;;448.03679749998264;449.1133404998109;449.1133404998109;449.1133404998109;449.1133404998109;449.1133404998109;449.1133404998109;449.1133404998109;449.1133404998109;['g', 'u', 'a', 'n', 't', 'e'];0;[1.1934687001630664, 1.4025679000187665, 1.513488900149241, 1.6278769001364708, 1.8372641000896692, 1.9139941001776606];guante;C:\2023\REPSWITCH21092023\REPSWITCH_excgange\REPSWITCH_excgange\data/140203_REPSWITCH1_version2_list3_2023-11-28_13h15.26.949_micRespv2l3_recorded\recording_micRespv2l3_2023-11-28_13h22.51.114.wav;452.1345581000205;452.63462309981696;None;452.1345581000205;452.1345581000205;452.1345581000205;452.1345581000205;452.1345581000205;452.1345581000205;;;;;;140203;001;2023-11-28_13h15.26.949;REPSWITCH1_version2_list3;2022.2.4;143.8813724527531;
REPSWITCH1/PICTURE_271.png;conejo;speak;darkblue;filler;2;F;4;2;3;2;Stim7_Set3;0;None;92;91;92;0;91;91;91;;;;;;;;;;;;;;;;;;;;;;;452.63462309981696;453.83616239996627;453.83616239996627;453.83616239996627;453.83616239996627;453.83616239996627;453.83616239996627;453.83616239996627;453.83616239996627;None;0;;;C:\2023\REPSWITCH21092023\REPSWITCH_excgange\REPSWITCH_excgange\data/140203_REPSWITCH1_version2_list3_2023-11-28_13h15.26.949_micRespv2l3_recorded\recording_micRespv2l3_2023-11-28_13h22.55.836.wav;456.8643543999642;;None;456.8643543999642;456.8643543999642;456.8643543999642;456.8643543999642;456.8643543999642;456.8643543999642;;;;;;140203;001;2023-11-28_13h15.26.949;REPSWITCH1_version2_list3;2022.2.4;143.8813724527531;
REPSWITCH1/PICTURE_319.png;vaca;speak;darkblue;nontarget;2;NT;4;2;3;2;Stim1_Set4;1;repeat;93;92;93;0;92;92;92;;;;;;;;;;;;;;;;;;;;;;;457.3644073999021;458.4131416999735;458.4131416999735;458.4131416999735;458.4131416999735;458.4131416999735;458.4131416999735;458.4131416999735;458.4131416999735;None;0;;;C:\2023\REPSWITCH21092023\REPSWITCH_excgange\REPSWITCH_excgange\data/140203_REPSWITCH1_version2_list3_2023-11-28_13h15.26.949_micRespv2l3_recorded\recording_micRespv2l3_2023-11-28_13h23.00.413.wav;461.43439309997484;461.9344567998778;None;461.43439309997484;461.43439309997484;461.43439309997484;461.43439309997484;461.43439309997484;461.43439309997484;;;;;;140203;001;2023-11-28_13h15.26.949;REPSWITCH1_version2_list3;2022.2.4;143.8813724527531;
REPSWITCH1/PICTURE_319.png;vaca;speak;darkblue;repeat;2;T;4;2;3;2;Stim1_Set4;0;None;94;93;94;0;93;93;93;;;;;;;;;;;;;;;;;;;;;;;461.9344567998778;463.14296739990823;463.14296739990823;463.14296739990823;463.14296739990823;463.14296739990823;463.14296739990823;463.14296739990823;463.14296739990823;None;0;;;C:\2023\REPSWITCH21092023\REPSWITCH_excgange\REPSWITCH_excgange\data/140203_REPSWITCH1_version2_list3_2023-11-28_13h15.26.949_micRespv2l3_recorded\recording_micRespv2l3_2023-11-28_13h23.05.143.wav;466.16415179986507;466.66421610000543;None;466.16415179986507;466.16415179986507;466.16415179986507;466.16415179986507;466.16415179986507;466.16415179986507;;;;;;140203;001;2023-11-28_13h15.26.949;REPSWITCH1_version2_list3;2022.2.4;143.8813724527531;
REPSWITCH1/PICTURE_242.png;cartero;type;gold;filler;1;F;4;2;3;2;Stim3_Set3;0;None;95;94;95;0;94;94;94;;;;;;;;;;;;;;;;;;;;;;;466.66421610000543;467.69911949988455;467.69911949988455;467.69911949988455;467.69911949988455;467.69911949988455;467.69911949988455;467.69911949988455;467.69911949988455;['c', 'a', 'r', 't', 'e', 'r', 'o'];0;[1.1400028001517057, 1.2775906000752002, 1.4138519000262022, 1.5763109000399709, 1.6970750000327826, 1.8465696999337524, 1.9551699000876397];cartero;C:\2023\REPSWITCH21092023\REPSWITCH_excgange\REPSWITCH_excgange\data/140203_REPSWITCH1_version2_list3_2023-11-28_13h15.26.949_micRespv2l3_recorded\recording_micRespv2l3_2023-11-28_13h23.09.699.wav;470.72035349998623;471.2203990998678;None;470.72035349998623;470.72035349998623;470.72035349998623;470.72035349998623;470.72035349998623;470.72035349998623;;;;;;140203;001;2023-11-28_13h15.26.949;REPSWITCH1_version2_list3;2022.2.4;143.8813724527531;
REPSWITCH1/PICTURE_35.png;oreja;speak;darkblue;filler;2;F;4;2;3;2;Stim5_Set3;1;switch;96;95;96;0;95;95;95;;;;;;;;;;;;;;;;;;;;;;;471.2203990998678;472.24829899985343;472.24829899985343;472.24829899985343;472.24829899985343;472.24829899985343;472.24829899985343;472.24829899985343;472.24829899985343;None;0;;;C:\2023\REPSWITCH21092023\REPSWITCH_excgange\REPSWITCH_excgange\data/140203_REPSWITCH1_version2_list3_2023-11-28_13h15.26.949_micRespv2l3_recorded\recording_micRespv2l3_2023-11-28_13h23.14.249.wav;475.27646289998665;;None;475.27646289998665;475.27646289998665;475.27646289998665;475.27646289998665;475.27646289998665;475.27646289998665;;;;;;140203;001;2023-11-28_13h15.26.949;REPSWITCH1_version2_list3;2022.2.4;143.8813724527531;
REPSWITCH1/PICTURE_338.png;regalo;speak;darkblue;nontarget;2;NT;4;2;3;2;Stim6_Set4;1;repeat;97;96;97;0;96;96;96;;;;;;;;;;;;;;;;;;;;;;;475.7765546999872;476.88087729993276;476.88087729993276;476.88087729993276;476.88087729993276;476.88087729993276;476.88087729993276;476.88087729993276;476.88087729993276;None;0;;;C:\2023\REPSWITCH21092023\REPSWITCH_excgange\REPSWITCH_excgange\data/140203_REPSWITCH1_version2_list3_2023-11-28_13h15.26.949_micRespv2l3_recorded\recording_micRespv2l3_2023-11-28_13h23.18.881.wav;479.9020598998759;480.40213609999046;None;479.9020598998759;479.9020598998759;479.9020598998759;479.9020598998759;479.9020598998759;479.9020598998759;;;;;;140203;001;2023-11-28_13h15.26.949;REPSWITCH1_version2_list3;2022.2.4;143.8813724527531;
REPSWITCH1/PICTURE_338.png;regalo;type;gold;switch;1;T;4;2;3;2;Stim6_Set4;0;None;98;97;98;0;97;97;97;;;;;;;;;;;;;;;;;;;;;;;480.40213609999046;481.47876570001245;481.47876570001245;481.47876570001245;481.47876570001245;481.47876570001245;481.47876570001245;481.47876570001245;481.47876570001245;['r', 'e', 'g', 'a', 'l', 'o'];0;[0.9573018001392484, 1.0709500000812113, 1.2274360002484173, 1.365956700174138, 1.5387545002158731, 1.7029342001769692];regalo;C:\2023\REPSWITCH21092023\REPSWITCH_excgange\REPSWITCH_excgange\data/140203_REPSWITCH1_version2_list3_2023-11-28_13h15.26.949_micRespv2l3_recorded\recording_micRespv2l3_2023-11-28_13h23.23.479.wav;484.50686490000226;;None;484.50686490000226;484.50686490000226;484.50686490000226;484.50686490000226;484.50686490000226;484.50686490000226;;;;;;140203;001;2023-11-28_13h15.26.949;REPSWITCH1_version2_list3;2022.2.4;143.8813724527531;
REPSWITCH1/PICTURE_687.png;camisa;type;gold;nontarget;1;NT;4;2;3;2;Stim5_Set4;0;None;99;98;99;0;98;98;98;;;;;;;;;;;;;;;;;;;;;;;485.00693319994025;486.1042992998846;486.1042992998846;486.1042992998846;486.1042992998846;486.1042992998846;486.1042992998846;486.1042992998846;486.1042992998846;['c', 'a', 'm', 'i', 's', 'a'];0;[0.9322104000020772, 1.065756200114265, 1.2780339000746608, 1.423559300135821, 1.5461500999517739, 1.725558100035414];camisa;C:\2023\REPSWITCH21092023\REPSWITCH_excgange\REPSWITCH_excgange\data/140203_REPSWITCH1_version2_list3_2023-11-28_13h15.26.949_micRespv2l3_recorded\recording_micRespv2l3_2023-11-28_13h23.28.105.wav;489.1255238999147;489.62558759981766;None;489.1255238999147;489.1255238999147;489.1255238999147;489.1255238999147;489.1255238999147;489.1255238999147;;;;;;140203;001;2023-11-28_13h15.26.949;REPSWITCH1_version2_list3;2022.2.4;143.8813724527531;
REPSWITCH1/PICTURE_687.png;camisa;type;gold;repeat;1;T;4;2;3;2;Stim5_Set4;0;None;100;99;100;0;99;99;99;;;;;;;;;;;;;;;;;;;;;;;489.62558759981766;490.81326159997843;490.81326159997843;490.81326159997843;490.81326159997843;490.81326159997843;490.81326159997843;490.81326159997843;490.81326159997843;['c', 'a', 'm', 'i', 's', 'a'];0;[0.8353224000893533, 1.0721674002707005, 1.2036905002314597, 1.3362928002607077, 1.4279799002688378, 1.6113210001494735];camisa;C:\2023\REPSWITCH21092023\REPSWITCH_excgange\REPSWITCH_excgange\data/140203_REPSWITCH1_version2_list3_2023-11-28_13h15.26.949_micRespv2l3_recorded\recording_micRespv2l3_2023-11-28_13h23.32.813.wav;493.83447299990803;494.3345317998901;None;493.83447299990803;493.83447299990803;493.83447299990803;493.83447299990803;493.83447299990803;493.83447299990803;;;;;;140203;001;2023-11-28_13h15.26.949;REPSWITCH1_version2_list3;2022.2.4;143.8813724527531;
REPSWITCH1/PICTURE_340.png;espejo;speak;darkblue;filler;2;F;4;2;3;2;Extra1;0;None;101;100;101;0;100;100;100;;;;;;;;;;;;;;;;;;;;;;;494.3345317998901;495.3555297998246;495.3555297998246;495.3555297998246;495.3555297998246;495.3555297998246;495.3555297998246;495.3555297998246;495.3555297998246;None;0;;;C:\2023\REPSWITCH21092023\REPSWITCH_excgange\REPSWITCH_excgange\data/140203_REPSWITCH1_version2_list3_2023-11-28_13h15.26.949_micRespv2l3_recorded\recording_micRespv2l3_2023-11-28_13h23.37.356.wav;498.38374269986525;;None;498.38374269986525;498.38374269986525;498.38374269986525;498.38374269986525;498.38374269986525;498.38374269986525;;;;;;140203;001;2023-11-28_13h15.26.949;REPSWITCH1_version2_list3;2022.2.4;143.8813724527531;
REPSWITCH1/PICTURE_610.png;miel;type;gold;filler;1;F;4;2;3;2;Stim2_Set3;0;None;102;101;102;0;101;101;101;;;;;;;;;;;;;;;;;;;;;;;498.8838144999463;500.00206630001776;500.00206630001776;500.00206630001776;500.00206630001776;500.00206630001776;500.00206630001776;500.00206630001776;500.00206630001776;['m', 'i', 'e', 'l'];0;[0.901566700078547, 1.078208199935034, 1.1652190999593586, 1.286824299953878];miel;C:\2023\REPSWITCH21092023\REPSWITCH_excgange\REPSWITCH_excgange\data/140203_REPSWITCH1_version2_list3_2023-11-28_13h15.26.949_micRespv2l3_recorded\recording_micRespv2l3_2023-11-28_13h23.42.003.wav;503.0300922000315;;space;503.0300922000315;503.0300922000315;503.0300922000315;503.0300922000315;503.0300922000315;503.0300922000315;503.53016159986146;503.53016159986146;8.010852200211957;;;140203;001;2023-11-28_13h15.26.949;REPSWITCH1_version2_list3;2022.2.4;143.8813724527531;
REPSWITCH1/PICTURE_8.png;pierna;type;gold;filler;1;F;1;4;3;2;Stim3_Set4;0;None;103;102;1;0;102;102;102;;;;;;;;;;;;;;;;;;;;;;;511.5520347999409;512.7536284998059;512.7536284998059;512.7536284998059;512.7536284998059;512.7536284998059;512.7536284998059;512.7536284998059;512.7536284998059;['p', 'i', 'e', 'r', 'n', 'a'];0;[0.9542711002286524, 1.1862404001876712, 1.3626537001691759, 1.5139091000892222, 1.6435303001198918, 1.7511772001162171];pierna;C:\2023\REPSWITCH21092023\REPSWITCH_excgange\REPSWITCH_excgange\data/140203_REPSWITCH1_version2_list3_2023-11-28_13h15.26.949_micRespv2l3_recorded\recording_micRespv2l3_2023-11-28_13h23.54.754.wav;515.774841299979;516.274900399847;None;515.774841299979;515.774841299979;515.774841299979;515.774841299979;515.774841299979;515.774841299979;;;;;;140203;001;2023-11-28_13h15.26.949;REPSWITCH1_version2_list3;2022.2.4;143.8813724527531;
REPSWITCH1/PICTURE_498.png;taza;speak;darkblue;filler;2;F;1;4;3;2;Stim4_Set4;0;None;104;103;2;0;103;103;103;;;;;;;;;;;;;;;;;;;;;;;516.274900399847;517.309787399834;517.309787399834;517.309787399834;517.309787399834;517.309787399834;517.309787399834;517.309787399834;517.309787399834;None;0;;;C:\2023\REPSWITCH21092023\REPSWITCH_excgange\REPSWITCH_excgange\data/140203_REPSWITCH1_version2_list3_2023-11-28_13h15.26.949_micRespv2l3_recorded\recording_micRespv2l3_2023-11-28_13h23.59.309.wav;520.3309865999036;520.8311024999712;None;520.3309865999036;520.3309865999036;520.3309865999036;520.3309865999036;520.3309865999036;520.3309865999036;;;;;;140203;001;2023-11-28_13h15.26.949;REPSWITCH1_version2_list3;2022.2.4;143.8813724527531;
REPSWITCH1/PICTURE_19.png;pavo;speak;darkblue;nontarget;2;NT;1;4;3;2;Stim5_Set1;1;repeat;105;104;3;0;104;104;104;;;;;;;;;;;;;;;;;;;;;;;520.8311024999712;521.9284218000248;521.9284218000248;521.9284218000248;521.9284218000248;521.9284218000248;521.9284218000248;521.9284218000248;521.9284218000248;None;0;;;C:\2023\REPSWITCH21092023\REPSWITCH_excgange\REPSWITCH_excgange\data/140203_REPSWITCH1_version2_list3_2023-11-28_13h15.26.949_micRespv2l3_recorded\recording_micRespv2l3_2023-11-28_13h24.03.929.wav;524.9566181998234;;None;524.9566181998234;524.9566181998234;524.9566181998234;524.9566181998234;524.9566181998234;524.9566181998234;;;;;;140203;001;2023-11-28_13h15.26.949;REPSWITCH1_version2_list3;2022.2.4;143.8813724527531;
REPSWITCH1/PICTURE_19.png;pavo;speak;darkblue;repeat;2;T;1;4;3;2;Stim5_Set1;0;None;106;105;4;0;105;105;105;;;;;;;;;;;;;;;;;;;;;;;525.4566398998722;526.540133500006;526.540133500006;526.540133500006;526.540133500006;526.540133500006;526.540133500006;526.540133500006;526.540133500006;None;0;;;C:\2023\REPSWITCH21092023\REPSWITCH_excgange\REPSWITCH_excgange\data/140203_REPSWITCH1_version2_list3_2023-11-28_13h15.26.949_micRespv2l3_recorded\recording_micRespv2l3_2023-11-28_13h24.08.541.wav;529.5683059999719;;None;529.5683059999719;529.5683059999719;529.5683059999719;529.5683059999719;529.5683059999719;529.5683059999719;;;;;;140203;001;2023-11-28_13h15.26.949;REPSWITCH1_version2_list3;2022.2.4;143.8813724527531;
REPSWITCH1/PICTURE_319.png;vaca;type;gold;filler;1;F;1;4;3;2;Stim1_Set4;1;repeat;107;106;5;0;106;106;106;;;;;;;;;;;;;;;;;;;;;;;530.0683907999191;531.2213533998001;531.2213533998001;531.2213533998001;531.2213533998001;531.2213533998001;531.2213533998001;531.2213533998001;531.2213533998001;['v', 'a', 'c', 'a'];0;[0.9122490000445396, 1.0279234000481665, 1.1362761000636965, 1.23844760004431];vaca;C:\2023\REPSWITCH21092023\REPSWITCH_excgange\REPSWITCH_excgange\data/140203_REPSWITCH1_version2_list3_2023-11-28_13h15.26.949_micRespv2l3_recorded\recording_micRespv2l3_2023-11-28_13h24.13.221.wav;534.2425490999594;534.742603099905;None;534.2425490999594;534.2425490999594;534.2425490999594;534.2425490999594;534.2425490999594;534.2425490999594;;;;;;140203;001;2023-11-28_13h15.26.949;REPSWITCH1_version2_list3;2022.2.4;143.8813724527531;
REPSWITCH1/PICTURE_169.png;espalda;speak;darkblue;nontarget;2;NT;1;4;3;2;Stim8_Set1;1;switch;108;107;6;0;107;107;107;;;;;;;;;;;;;;;;;;;;;;;534.742603099905;535.8260734998621;535.8260734998621;535.8260734998621;535.8260734998621;535.8260734998621;535.8260734998621;535.8260734998621;535.8260734998621;['e', 's', 'p', 'a', 'l', 'd', 'a'];0;[1.0549369000364095, 1.2561884999740869, 1.3758066999725997, 1.5154699000995606, 1.5911571001634002, 1.809021000051871, 2.02630400005728];espalda;C:\2023\REPSWITCH21092023\REPSWITCH_excgange\REPSWITCH_excgange\data/140203_REPSWITCH1_version2_list3_2023-11-28_13h15.26.949_micRespv2l3_recorded\recording_micRespv2l3_2023-11-28_13h24.17.827.wav;538.8473107998725;539.3473930999171;None;538.8473107998725;538.8473107998725;538.8473107998725;538.8473107998725;538.8473107998725;538.8473107998725;;;;;;140203;001;2023-11-28_13h15.26.949;REPSWITCH1_version2_list3;2022.2.4;143.8813724527531;
REPSWITCH1/PICTURE_169.png;espalda;speak;darkblue;repeat;2;T;1;4;3;2;Stim8_Set1;0;None;109;108;7;0;108;108;108;;;;;;;;;;;;;;;;;;;;;;;539.3473930999171;540.4448261000216;540.4448261000216;540.4448261000216;540.4448261000216;540.4448261000216;540.4448261000216;540.4448261000216;540.4448261000216;['e'];0;[0.8961101002059877];e;C:\2023\REPSWITCH21092023\REPSWITCH_excgange\REPSWITCH_excgange\data/140203_REPSWITCH1_version2_list3_2023-11-28_13h15.26.949_micRespv2l3_recorded\recording_micRespv2l3_2023-11-28_13h24.22.445.wav;543.4729245998897;;None;543.4729245998897;543.4729245998897;543.4729245998897;543.4729245998897;543.4729245998897;543.4729245998897;;;;;;140203;001;2023-11-28_13h15.26.949;REPSWITCH1_version2_list3;2022.2.4;143.8813724527531;
REPSWITCH1/PICTURE_728.png;pulpo;type;gold;filler;1;F;1;4;3;2;Stim8_Set4;0;None;110;109;8;0;109;109;109;;;;;;;;;;;;;;;;;;;;;;;543.972969800001;545.1050863999408;545.1050863999408;545.1050863999408;545.1050863999408;545.1050863999408;545.1050863999408;545.1050863999408;545.1050863999408;['p', 'i', 'l', 'p', 'o'];0;[1.5792899001389742, 1.8015503000933677, 2.028769100084901, 2.2261732001788914, 2.367676400113851];pilpo;C:\2023\REPSWITCH21092023\REPSWITCH_excgange\REPSWITCH_excgange\data/140203_REPSWITCH1_version2_list3_2023-11-28_13h15.26.949_micRespv2l3_recorded\recording_micRespv2l3_2023-11-28_13h24.27.105.wav;548.1332582000177;;None;548.1332582000177;548.1332582000177;548.1332582000177;548.1332582000177;548.1332582000177;548.1332582000177;;;;;;140203;001;2023-11-28_13h15.26.949;REPSWITCH1_version2_list3;2022.2.4;143.8813724527531;
REPSWITCH1/PICTURE_142.png;vaso;speak;darkblue;nontarget;2;NT;1;4;3;2;Stim7_Set1;1;switch;111;110;9;0;110;110;110;;;;;;;;;;;;;;;;;;;;;;;548.6333258999512;549.7445640999358;549.7445640999358;549.7445640999358;549.7445640999358;549.7445640999358;549.7445640999358;549.7445640999358;549.7445640999358;None;0;;;C:\2023\REPSWITCH21092023\REPSWITCH_excgange\REPSWITCH_excgange\data/140203_REPSWITCH1_version2_list3_2023-11-28_13h15.26.949_micRespv2l3_recorded\recording_micRespv2l3_2023-11-28_13h24.31.746.wav;552.7727479999885;;None;552.7727479999885;552.7727479999885;552.7727479999885;552.7727479999885;552.7727479999885;552.7727479999885;;;;;;140203;001;2023-11-28_13h15.26.949;REPSWITCH1_version2_list3;2022.2.4;143.8813724527531;
REPSWITCH1/PICTURE_142.png;vaso;type;gold;switch;1;T;1;4;3;2;Stim7_Set1;0;None;112;111;10;0;111;111;111;;;;;;;;;;;;;;;;;;;;;;;553.2728903999086;554.4535360999871;554.4535360999871;554.4535360999871;554.4535360999871;554.4535360999871;554.4535360999871;554.4535360999871;554.4535360999871;['v', 'a', 's', 'o'];0;[1.5165465001482517, 1.644518000073731, 1.8134467001073062, 1.9125072001479566];vaso;C:\2023\REPSWITCH21092023\REPSWITCH_excgange\REPSWITCH_excgange\data/140203_REPSWITCH1_version2_list3_2023-11-28_13h15.26.949_micRespv2l3_recorded\recording_micRespv2l3_2023-11-28_13h24.36.454.wav;557.4747911999002;557.9748301999643;None;557.4747911999002;557.4747911999002;557.4747911999002;557.4747911999002;557.4747911999002;557.4747911999002;;;;;;140203;001;2023-11-28_13h15.26.949;REPSWITCH1_version2_list3;2022.2.4;143.8813724527531;
REPSWITCH1/PICTURE_338.png;regalo;type;gold;filler;1;F;1;4;3;2;Stim6_Set4;1;repeat;113;112;11;0;112;112;112;;;;;;;;;;;;;;;;;;;;;;;557.9748301999643;559.0861092000268;559.0861092000268;559.0861092000268;559.0861092000268;559.0861092000268;559.0861092000268;559.0861092000268;559.0861092000268;['r', 'e', 'g', 'a', 'l', 'o'];0;[1.4190535000525415, 1.5206651000771672, 1.6536727000493556, 1.8121495002415031, 1.9859646002296358, 2.1329087000340223];regalo;C:\2023\REPSWITCH21092023\REPSWITCH_excgange\REPSWITCH_excgange\data/140203_REPSWITCH1_version2_list3_2023-11-28_13h15.26.949_micRespv2l3_recorded\recording_micRespv2l3_2023-11-28_13h24.41.086.wav;562.1143262998667;;None;562.1143262998667;562.1143262998667;562.1143262998667;562.1143262998667;562.1143262998667;562.1143262998667;;;;;;140203;001;2023-11-28_13h15.26.949;REPSWITCH1_version2_list3;2022.2.4;143.8813724527531;
REPSWITCH1/PICTURE_135.png;traje;type;gold;nontarget;1;NT;1;4;3;2;Stim3_Set1;1;repeat;114;113;12;0;113;113;113;;;;;;;;;;;;;;;;;;;;;;;562.6143300998956;563.6561155999079;563.6561155999079;563.6561155999079;563.6561155999079;563.6561155999079;563.6561155999079;563.6561155999079;563.6561155999079;['t', 'r', 'a', 'j', 'e'];0;[1.1197262001223862, 1.2655668000224978, 1.4379781999159604, 1.8478083999361843, 1.9534930000081658];traje;C:\2023\REPSWITCH21092023\REPSWITCH_excgange\REPSWITCH_excgange\data/140203_REPSWITCH1_version2_list3_2023-11-28_13h15.26.949_micRespv2l3_recorded\recording_micRespv2l3_2023-11-28_13h24.45.657.wav;566.684324399801;;None;566.684324399801;566.684324399801;566.684324399801;566.684324399801;566.684324399801;566.684324399801;;;;;;140203;001;2023-11-28_13h15.26.949;REPSWITCH1_version2_list3;2022.2.4;143.8813724527531;
REPSWITCH1/PICTURE_135.png;traje;speak;darkblue;switch;2;T;1;4;3;2;Stim3_Set1;0;None;115;114;13;0;114;114;114;;;;;;;;;;;;;;;;;;;;;;;567.1843771999702;568.2748147000093;568.2748147000093;568.2748147000093;568.2748147000093;568.2748147000093;568.2748147000093;568.2748147000093;568.2748147000093;None;0;;;C:\2023\REPSWITCH21092023\REPSWITCH_excgange\REPSWITCH_excgange\data/140203_REPSWITCH1_version2_list3_2023-11-28_13h15.26.949_micRespv2l3_recorded\recording_micRespv2l3_2023-11-28_13h24.50.275.wav;571.2960018999875;571.7960522999056;None;571.2960018999875;571.2960018999875;571.2960018999875;571.2960018999875;571.2960018999875;571.2960018999875;;;;;;140203;001;2023-11-28_13h15.26.949;REPSWITCH1_version2_list3;2022.2.4;143.8813724527531;
REPSWITCH1/PICTURE_381.png;fresa;speak;darkblue;nontarget;2;NT;1;4;3;2;Stim2_Set1;1;repeat;116;115;14;0;115;115;115;;;;;;;;;;;;;;;;;;;;;;;571.7960522999056;572.8656754000112;572.8656754000112;572.8656754000112;572.8656754000112;572.8656754000112;572.8656754000112;572.8656754000112;572.8656754000112;None;0;;;C:\2023\REPSWITCH21092023\REPSWITCH_excgange\REPSWITCH_excgange\data/140203_REPSWITCH1_version2_list3_2023-11-28_13h15.26.949_micRespv2l3_recorded\recording_micRespv2l3_2023-11-28_13h24.54.866.wav;575.8868805000093;576.3870303998701;None;575.8868805000093;575.8868805000093;575.8868805000093;575.8868805000093;575.8868805000093;575.8868805000093;;;;;;140203;001;2023-11-28_13h15.26.949;REPSWITCH1_version2_list3;2022.2.4;143.8813724527531;
REPSWITCH1/PICTURE_381.png;fresa;type;gold;switch;1;T;1;4;3;2;Stim2_Set1;0;None;117;116;15;0;116;116;116;;;;;;;;;;;;;;;;;;;;;;;576.3870303998701;577.5259869999718;577.5259869999718;577.5259869999718;577.5259869999718;577.5259869999718;577.5259869999718;577.5259869999718;577.5259869999718;['f', 'r', 'e', 's', 'a', 'a', 'backspace'];0;[0.9121260000392795, 1.08549870015122, 1.298228400060907, 1.555404599988833, 1.5564498000312597, 1.7209403000306338, 2.354915500152856];fresa;C:\2023\REPSWITCH21092023\REPSWITCH_excgange\REPSWITCH_excgange\data/140203_REPSWITCH1_version2_list3_2023-11-28_13h15.26.949_micRespv2l3_recorded\recording_micRespv2l3_2023-11-28_13h24.59.526.wav;580.5472355999518;581.0473046998959;None;580.5472355999518;580.5472355999518;580.5472355999518;580.5472355999518;580.5472355999518;580.5472355999518;;;;;;140203;001;2023-11-28_13h15.26.949;REPSWITCH1_version2_list3;2022.2.4;143.8813724527531;
REPSWITCH1/PICTURE_48.png;bombero;type;gold;filler;1;F;1;4;3;2;Stim7_Set4;0;None;118;117;16;0;117;117;117;;;;;;;;;;;;;;;;;;;;;;;581.0473046998959;582.1238092998974;582.1238092998974;582.1238092998974;582.1238092998974;582.1238092998974;582.1238092998974;582.1238092998974;582.1238092998974;['b', 'o', 'm', 'b', 'e', 'r', 'o'];0;[1.3202480000909418, 1.5853913999162614, 1.8146146000362933, 2.037878799950704, 2.154343399917707, 2.300758100114763, 2.3505877000279725];bombero;C:\2023\REPSWITCH21092023\REPSWITCH_excgange\REPSWITCH_excgange\data/140203_REPSWITCH1_version2_list3_2023-11-28_13h15.26.949_micRespv2l3_recorded\recording_micRespv2l3_2023-11-28_13h25.04.125.wav;585.1450226998422;585.6450975998305;None;585.1450226998422;585.1450226998422;585.1450226998422;585.1450226998422;585.1450226998422;585.1450226998422;;;;;;140203;001;2023-11-28_13h15.26.949;REPSWITCH1_version2_list3;2022.2.4;143.8813724527531;
REPSWITCH1/PICTURE_687.png;camisa;speak;darkblue;filler;2;F;1;4;3;2;Stim5_Set4;0;None;119;118;17;0;118;118;118;;;;;;;;;;;;;;;;;;;;;;;585.6450975998305;586.6869441999588;586.6869441999588;586.6869441999588;586.6869441999588;586.6869441999588;586.6869441999588;586.6869441999588;586.6869441999588;None;0;;;C:\2023\REPSWITCH21092023\REPSWITCH_excgange\REPSWITCH_excgange\data/140203_REPSWITCH1_version2_list3_2023-11-28_13h15.26.949_micRespv2l3_recorded\recording_micRespv2l3_2023-11-28_13h25.08.687.wav;589.7081362998579;590.2082183999009;None;589.7081362998579;589.7081362998579;589.7081362998579;589.7081362998579;589.7081362998579;589.7081362998579;;;;;;140203;001;2023-11-28_13h15.26.949;REPSWITCH1_version2_list3;2022.2.4;143.8813724527531;
REPSWITCH1/PICTURE_128.png;muñeca;type;gold;nontarget;1;NT;1;4;3;2;Stim4_Set1;0;None;120;119;18;0;119;119;119;;;;;;;;;;;;;;;;;;;;;;;590.2082183999009;591.3056089999154;591.3056089999154;591.3056089999154;591.3056089999154;591.3056089999154;591.3056089999154;591.3056089999154;591.3056089999154;['m', 'u', 'ñ', 'e', 'c', 'a'];0;[1.0689429000485688, 1.2667610999196768, 1.934544200077653, 2.199171100044623, 2.3728875999804586, 2.463578199967742];muñeca;C:\2023\REPSWITCH21092023\REPSWITCH_excgange\REPSWITCH_excgange\data/140203_REPSWITCH1_version2_list3_2023-11-28_13h15.26.949_micRespv2l3_recorded\recording_micRespv2l3_2023-11-28_13h25.13.307.wav;594.333793599857;;None;594.333793599857;594.333793599857;594.333793599857;594.333793599857;594.333793599857;594.333793599857;;;;;;140203;001;2023-11-28_13h15.26.949;REPSWITCH1_version2_list3;2022.2.4;143.8813724527531;
REPSWITCH1/PICTURE_128.png;muñeca;type;gold;repeat;1;T;1;4;3;2;Stim4_Set1;0;None;121;120;19;0;120;120;120;;;;;;;;;;;;;;;;;;;;;;;594.8339010998607;595.9173755999655;595.9173755999655;595.9173755999655;595.9173755999655;595.9173755999655;595.9173755999655;595.9173755999655;595.9173755999655;['backspace', 'm', 'i'];0;[2.0508271001745015, 2.4493088002782315, 2.647596300113946];mi;C:\2023\REPSWITCH21092023\REPSWITCH_excgange\REPSWITCH_excgange\data/140203_REPSWITCH1_version2_list3_2023-11-28_13h15.26.949_micRespv2l3_recorded\recording_micRespv2l3_2023-11-28_13h25.17.918.wav;598.9386008000001;599.4386699998286;None;598.9386008000001;598.9386008000001;598.9386008000001;598.9386008000001;598.9386008000001;598.9386008000001;;;;;;140203;001;2023-11-28_13h15.26.949;REPSWITCH1_version2_list3;2022.2.4;143.8813724527531;
