image;correctAns;respModal;frameColor;repSwitch;sequence;target;set;block;list;exp_version;stimulus;baseline;baseline_condition;trial_no;psychopy_trial;Column1;trialsREPSWITCH.thisRepN;trialsREPSWITCH.thisTrialN;trialsREPSWITCH.thisN;trialsREPSWITCH.thisIndex;textWelcome.started;textboxInstrMain1.started;textboxInstrMain1_2.started;textboxInstrMain1_3.started;keyInstrMain.started;keyInstrMain.keys;keyInstrMain.rt;textboxInstrMain2.started;textboxInstrMain2_2.started;textboxInstrMain2_3.started;textboxInstrMain2_4.started;textboxInstrMain2_5.started;textboxInstrMain2_6.started;textboxInstrMain2_7.started;textboxInstrMain2_8.started;textboxInstrMain2_9.started;textboxInstrMain2_10.started;textboxInstrMain2_11.started;textboxInstrMain2_12.started;keyInstrMain2.started;keyInstrMain2.keys;keyInstrMain2.rt;fixationITI.started;fixationITI.stopped;polygonColour.started;polygonWhite.started;imageObject.started;polygonType.started;textInput.started;keyResp.started;micRespv2l1.started;keyResp.keys;keyResp.corr;keyResp.rt;subjResponse;micRespv2l1.clip;textBlankLoop.started;textBlankLoop.stopped;keyPause.keys;polygonColour.stopped;polygonWhite.stopped;imageObject.stopped;polygonType.stopped;textInput.stopped;keyResp.stopped;textboxPause.started;keyPause.started;keyPause.rt;textboxGoodbye.started;textboxGoodbye.stopped;participant;session;date;expName;psychopyVersion;frameRate;Column2
;;;;;;;;;;;;;;;;;;;;;12.2375007;14.7308256;14.7308256;14.7308256;14.7308256;space;13.2263215;;;;;;;;;;;;;;;;;;;;;;;;;;;;;;;;;;;;;;;;;;;;180201;1;2023-11-30_11h32.58.730;REPSWITCH1_version2_list1;2022.2.4;144.0077647;
;;;;;;;;;;;;;;;;;;;;;;;;;;;;27.9756523;27.9756523;27.9756523;27.9756523;27.9756523;27.9756523;27.9756523;27.9756523;27.9756523;27.9756523;27.9756523;27.9756523;27.9756523;space;3.1727138;;;;;;;;;;;;;;;;;;;;;;;;;;;;;180201;1;2023-11-30_11h32.58.730;REPSWITCH1_version2_list1;2022.2.4;144.0077647;
REPSWITCH1/PICTURE_340.png;espejo;type;gold;filler;1;F;1;1;1;2;Extra1;0;None;1;0;1;0;0;0;0;;;;;;;;;;;;;;;;;;;;;;;31.2399581;32.3512466;32.3512466;32.3512466;32.3512466;32.3512466;32.3512466;32.3512466;32.3512466;['e', 's', 'p', 'e', 'j', 'o'];0;[1.5895223999395967, 1.778670399915427, 2.120512600056827, 2.652739099925384, 2.8731943999882787, 2.951898699859157];espejo;C:\2023\REPSWITCH21092023\REPSWITCH_excgange\REPSWITCH_excgange\data/180201_REPSWITCH1_version2_list1_2023-11-30_11h32.58.730_micRespv2l1_recorded\recording_micRespv2l1_2023-11-30_11h33.23.623.wav;35.3724774;35.8725193;None;;;;;;;;;;;;180201;1;2023-11-30_11h32.58.730;REPSWITCH1_version2_list1;2022.2.4;144.0077647;
REPSWITCH1/PICTURE_391.png;cadena;speak;darkblue;filler;2;F;1;1;1;2;Extra2;0;None;2;1;2;0;1;1;1;;;;;;;;;;;;;;;;;;;;;;;35.8725193;36.9768509;36.9768509;36.9768509;36.9768509;36.9768509;36.9768509;36.9768509;36.9768509;None;0;;;C:\2023\REPSWITCH21092023\REPSWITCH_excgange\REPSWITCH_excgange\data/180201_REPSWITCH1_version2_list1_2023-11-30_11h32.58.730_micRespv2l1_recorded\recording_micRespv2l1_2023-11-30_11h33.28.254.wav;40.0049823;;None;40.0049823;40.0049823;40.0049823;40.0049823;40.0049823;40.0049823;;;;;;180201;1;2023-11-30_11h32.58.730;REPSWITCH1_version2_list1;2022.2.4;144.0077647;
REPSWITCH1/PICTURE_178.png;puente;speak;darkblue;nontarget;2;NT;1;1;1;2;Stim1_Set1;1;repeat;3;2;3;0;2;2;2;;;;;;;;;;;;;;;;;;;;;;;40.5050528;41.574684;41.574684;41.574684;41.574684;41.574684;41.574684;41.574684;41.574684;None;0;;;C:\2023\REPSWITCH21092023\REPSWITCH_excgange\REPSWITCH_excgange\data/180201_REPSWITCH1_version2_list1_2023-11-30_11h32.58.730_micRespv2l1_recorded\recording_micRespv2l1_2023-11-30_11h33.32.851.wav;44.5959582;45.0959759;None;44.5959582;44.5959582;44.5959582;44.5959582;44.5959582;44.5959582;;;;;;180201;1;2023-11-30_11h32.58.730;REPSWITCH1_version2_list1;2022.2.4;144.0077647;
REPSWITCH1/PICTURE_178.png;puente;speak;darkblue;repeat;2;T;1;1;1;2;Stim1_Set1;0;None;4;3;4;0;3;3;3;;;;;;;;;;;;;;;;;;;;;;;45.0959759;46.1725112;46.1725112;46.1725112;46.1725112;46.1725112;46.1725112;46.1725112;46.1725112;None;0;;;C:\2023\REPSWITCH21092023\REPSWITCH_excgange\REPSWITCH_excgange\data/180201_REPSWITCH1_version2_list1_2023-11-30_11h32.58.730_micRespv2l1_recorded\recording_micRespv2l1_2023-11-30_11h33.37.448.wav;49.1936931;49.6937772;None;49.1936931;49.1936931;49.1936931;49.1936931;49.1936931;49.1936931;;;;;;180201;1;2023-11-30_11h32.58.730;REPSWITCH1_version2_list1;2022.2.4;144.0077647;
REPSWITCH1/PICTURE_319.png;vaca;type;gold;filler;1;F;1;1;1;2;Stim1_Set4;0;None;5;4;5;0;4;4;4;;;;;;;;;;;;;;;;;;;;;;;49.6937772;50.7911736;50.7911736;50.7911736;50.7911736;50.7911736;50.7911736;50.7911736;50.7911736;['v', 'a', 'c', 'a'];0;[1.3770143000874668, 1.5030998999718577, 1.5651684999465942, 1.6751478998921812];vaca;C:\2023\REPSWITCH21092023\REPSWITCH_excgange\REPSWITCH_excgange\data/180201_REPSWITCH1_version2_list1_2023-11-30_11h32.58.730_micRespv2l1_recorded\recording_micRespv2l1_2023-11-30_11h33.42.067.wav;53.8123779;54.3124377;None;53.8123779;53.8123779;53.8123779;53.8123779;53.8123779;53.8123779;;;;;;180201;1;2023-11-30_11h32.58.730;REPSWITCH1_version2_list1;2022.2.4;144.0077647;
REPSWITCH1/PICTURE_381.png;fresa;speak;darkblue;nontarget;2;NT;1;1;1;2;Stim2_Set1;1;switch;6;5;6;0;5;5;5;;;;;;;;;;;;;;;;;;;;;;;54.3124377;55.4167398;55.4167398;55.4167398;55.4167398;55.4167398;55.4167398;55.4167398;55.4167398;None;0;;;C:\2023\REPSWITCH21092023\REPSWITCH_excgange\REPSWITCH_excgange\data/180201_REPSWITCH1_version2_list1_2023-11-30_11h32.58.730_micRespv2l1_recorded\recording_micRespv2l1_2023-11-30_11h33.46.693.wav;58.4379793;58.9380219;None;58.4379793;58.4379793;58.4379793;58.4379793;58.4379793;58.4379793;;;;;;180201;1;2023-11-30_11h32.58.730;REPSWITCH1_version2_list1;2022.2.4;144.0077647;
REPSWITCH1/PICTURE_381.png;fresa;speak;darkblue;repeat;2;T;1;1;1;2;Stim2_Set1;0;None;7;6;7;0;6;6;6;;;;;;;;;;;;;;;;;;;;;;;58.9380219;59.9729674;59.9729674;59.9729674;59.9729674;59.9729674;59.9729674;59.9729674;59.9729674;None;0;;;C:\2023\REPSWITCH21092023\REPSWITCH_excgange\REPSWITCH_excgange\data/180201_REPSWITCH1_version2_list1_2023-11-30_11h32.58.730_micRespv2l1_recorded\recording_micRespv2l1_2023-11-30_11h33.51.249.wav;62.9941042;63.4942614;None;62.9941042;62.9941042;62.9941042;62.9941042;62.9941042;62.9941042;;;;;;180201;1;2023-11-30_11h32.58.730;REPSWITCH1_version2_list1;2022.2.4;144.0077647;
REPSWITCH1/PICTURE_719.png;baño;type;gold;filler;1;F;1;1;1;2;Stim2_Set4;1;switch;8;7;8;0;7;7;7;;;;;;;;;;;;;;;;;;;;;;;63.4942614;64.7304889;64.7304889;64.7304889;64.7304889;64.7304889;64.7304889;64.7304889;64.7304889;['b', 'a', 'ñ', 'o'];0;[1.2672244999557734, 1.7288450000341982, 1.8334673000499606, 1.991929299896583];baño;C:\2023\REPSWITCH21092023\REPSWITCH_excgange\REPSWITCH_excgange\data/180201_REPSWITCH1_version2_list1_2023-11-30_11h32.58.730_micRespv2l1_recorded\recording_micRespv2l1_2023-11-30_11h33.56.007.wav;67.7586466;;None;67.7586466;67.7586466;67.7586466;67.7586466;67.7586466;67.7586466;;;;;;180201;1;2023-11-30_11h32.58.730;REPSWITCH1_version2_list1;2022.2.4;144.0077647;
REPSWITCH1/PICTURE_135.png;traje;speak;darkblue;nontarget;2;NT;1;1;1;2;Stim3_Set1;0;None;9;8;9;0;8;8;8;;;;;;;;;;;;;;;;;;;;;;;68.2587805;69.3422019;69.3422019;69.3422019;69.3422019;69.3422019;69.3422019;69.3422019;69.3422019;['t', 'r', 'a', 'j', 'e'];0;[1.2117878999561071, 1.367296600015834, 1.4609791999682784, 1.8748922999948263, 1.9129732998553663];traje;C:\2023\REPSWITCH21092023\REPSWITCH_excgange\REPSWITCH_excgange\data/180201_REPSWITCH1_version2_list1_2023-11-30_11h32.58.730_micRespv2l1_recorded\recording_micRespv2l1_2023-11-30_11h34.00.619.wav;72.3703655;;None;72.3703655;72.3703655;72.3703655;72.3703655;72.3703655;72.3703655;;;;;;180201;1;2023-11-30_11h32.58.730;REPSWITCH1_version2_list1;2022.2.4;144.0077647;
REPSWITCH1/PICTURE_135.png;traje;type;gold;switch;1;T;1;1;1;2;Stim3_Set1;0;None;10;9;10;0;9;9;9;;;;;;;;;;;;;;;;;;;;;;;72.8704249;73.9400791;73.9400791;73.9400791;73.9400791;73.9400791;73.9400791;73.9400791;73.9400791;['t', 'r', 'a', 'j', 'e'];0;[1.2839344998355955, 1.4311712000053376, 1.5467896999325603, 1.8647242998704314, 1.9170240999665111];traje;C:\2023\REPSWITCH21092023\REPSWITCH_excgange\REPSWITCH_excgange\data/180201_REPSWITCH1_version2_list1_2023-11-30_11h32.58.730_micRespv2l1_recorded\recording_micRespv2l1_2023-11-30_11h34.05.216.wav;76.9612846;77.4613047;None;76.9612846;76.9612846;76.9612846;76.9612846;76.9612846;76.9612846;;;;;;180201;1;2023-11-30_11h32.58.730;REPSWITCH1_version2_list1;2022.2.4;144.0077647;
REPSWITCH1/PICTURE_687.png;camisa;speak;darkblue;filler;2;F;1;1;1;2;Stim5_Set4;0;None;11;10;11;0;10;10;10;;;;;;;;;;;;;;;;;;;;;;;77.4613047;78.4822922;78.4822922;78.4822922;78.4822922;78.4822922;78.4822922;78.4822922;78.4822922;None;0;;;C:\2023\REPSWITCH21092023\REPSWITCH_excgange\REPSWITCH_excgange\data/180201_REPSWITCH1_version2_list1_2023-11-30_11h32.58.730_micRespv2l1_recorded\recording_micRespv2l1_2023-11-30_11h34.09.759.wav;81.5035143;82.003636;None;81.5035143;81.5035143;81.5035143;81.5035143;81.5035143;81.5035143;;;;;;180201;1;2023-11-30_11h32.58.730;REPSWITCH1_version2_list1;2022.2.4;144.0077647;
REPSWITCH1/PICTURE_128.png;muñeca;type;gold;nontarget;1;NT;1;1;1;2;Stim4_Set1;1;switch;12;11;12;0;11;11;11;;;;;;;;;;;;;;;;;;;;;;;82.003636;83.1357391;83.1357391;83.1357391;83.1357391;83.1357391;83.1357391;83.1357391;83.1357391;['m', 'u', 'ñ', 'e', 'c', 'a'];0;[1.2632894997950643, 1.4655819998588413, 2.0344533999450505, 2.107165099820122, 2.427272099768743, 2.503111199941486];muñeca;C:\2023\REPSWITCH21092023\REPSWITCH_excgange\REPSWITCH_excgange\data/180201_REPSWITCH1_version2_list1_2023-11-30_11h32.58.730_micRespv2l1_recorded\recording_micRespv2l1_2023-11-30_11h34.14.412.wav;86.1638404;;None;86.1638404;86.1638404;86.1638404;86.1638404;86.1638404;86.1638404;;;;;;180201;1;2023-11-30_11h32.58.730;REPSWITCH1_version2_list1;2022.2.4;144.0077647;
REPSWITCH1/PICTURE_128.png;muñeca;speak;darkblue;switch;2;T;1;1;1;2;Stim4_Set1;0;None;13;12;13;0;12;12;12;;;;;;;;;;;;;;;;;;;;;;;86.6638671;87.8098651;87.8098651;87.8098651;87.8098651;87.8098651;87.8098651;87.8098651;87.8098651;None;0;;;C:\2023\REPSWITCH21092023\REPSWITCH_excgange\REPSWITCH_excgange\data/180201_REPSWITCH1_version2_list1_2023-11-30_11h32.58.730_micRespv2l1_recorded\recording_micRespv2l1_2023-11-30_11h34.19.087.wav;90.8310995;91.3312427;None;90.8310995;90.8310995;90.8310995;90.8310995;90.8310995;90.8310995;;;;;;180201;1;2023-11-30_11h32.58.730;REPSWITCH1_version2_list1;2022.2.4;144.0077647;
REPSWITCH1/PICTURE_8.png;pierna;speak;darkblue;filler;2;F;1;1;1;2;Stim3_Set4;0;None;14;13;14;0;13;13;13;;;;;;;;;;;;;;;;;;;;;;;91.3312427;92.4771897;92.4771897;92.4771897;92.4771897;92.4771897;92.4771897;92.4771897;92.4771897;None;0;;;C:\2023\REPSWITCH21092023\REPSWITCH_excgange\REPSWITCH_excgange\data/180201_REPSWITCH1_version2_list1_2023-11-30_11h32.58.730_micRespv2l1_recorded\recording_micRespv2l1_2023-11-30_11h34.23.753.wav;95.5054002;;None;95.5054002;95.5054002;95.5054002;95.5054002;95.5054002;95.5054002;;;;;;180201;1;2023-11-30_11h32.58.730;REPSWITCH1_version2_list1;2022.2.4;144.0077647;
REPSWITCH1/PICTURE_19.png;pavo;speak;darkblue;nontarget;2;NT;1;1;1;2;Stim5_Set1;0;None;15;14;15;0;14;14;14;;;;;;;;;;;;;;;;;;;;;;;96.0054609;97.0819362;97.0819362;97.0819362;97.0819362;97.0819362;97.0819362;97.0819362;97.0819362;None;0;;;C:\2023\REPSWITCH21092023\REPSWITCH_excgange\REPSWITCH_excgange\data/180201_REPSWITCH1_version2_list1_2023-11-30_11h32.58.730_micRespv2l1_recorded\recording_micRespv2l1_2023-11-30_11h34.28.359.wav;100.110084;;None;100.110084;100.110084;100.110084;100.110084;100.110084;100.110084;;;;;;180201;1;2023-11-30_11h32.58.730;REPSWITCH1_version2_list1;2022.2.4;144.0077647;
REPSWITCH1/PICTURE_19.png;pavo;type;gold;switch;1;T;1;1;1;2;Stim5_Set1;0;None;16;15;16;0;15;15;15;;;;;;;;;;;;;;;;;;;;;;;100.6102278;101.8256354;101.8256354;101.8256354;101.8256354;101.8256354;101.8256354;101.8256354;101.8256354;['p', 'a', 'v', 'o'];0;[1.1177799999713898, 1.2174404999241233, 1.6864107998553663, 1.7910490999929607];pavo;C:\2023\REPSWITCH21092023\REPSWITCH_excgange\REPSWITCH_excgange\data/180201_REPSWITCH1_version2_list1_2023-11-30_11h32.58.730_micRespv2l1_recorded\recording_micRespv2l1_2023-11-30_11h34.33.102.wav;104.8469154;105.3469026;None;104.8469154;104.8469154;104.8469154;104.8469154;104.8469154;104.8469154;;;;;;180201;1;2023-11-30_11h32.58.730;REPSWITCH1_version2_list1;2022.2.4;144.0077647;
REPSWITCH1/PICTURE_16.png;cazador;type;gold;nontarget;1;NT;1;1;1;2;Stim6_Set1;1;switch;17;16;17;0;16;16;16;;;;;;;;;;;;;;;;;;;;;;;105.3469026;106.4235047;106.4235047;106.4235047;106.4235047;106.4235047;106.4235047;106.4235047;106.4235047;['c', 'a', 'z', 'a', 'd', 'o', 'r'];0;[1.092232699971646, 1.1675056000240147, 1.3528872998431325, 1.540260799927637, 1.7488591999281198, 1.8555821999907494, 1.9960274000186473];cazador;C:\2023\REPSWITCH21092023\REPSWITCH_excgange\REPSWITCH_excgange\data/180201_REPSWITCH1_version2_list1_2023-11-30_11h32.58.730_micRespv2l1_recorded\recording_micRespv2l1_2023-11-30_11h34.37.700.wav;109.4446304;109.9447231;None;109.4446304;109.4446304;109.4446304;109.4446304;109.4446304;109.4446304;;;;;;180201;1;2023-11-30_11h32.58.730;REPSWITCH1_version2_list1;2022.2.4;144.0077647;
REPSWITCH1/PICTURE_16.png;cazador;type;gold;repeat;1;T;1;1;1;2;Stim6_Set1;0;None;18;17;18;0;17;17;17;;;;;;;;;;;;;;;;;;;;;;;109.9447231;110.9865529;110.9865529;110.9865529;110.9865529;110.9865529;110.9865529;110.9865529;110.9865529;['c', 'a', 'z', 'a', 'd', 'o', 'r'];0;[1.2621355999726802, 1.3657366000115871, 1.6713512998539954, 1.8836823999881744, 2.114908899879083, 2.468014699872583, 2.5833246000111103];cazador;C:\2023\REPSWITCH21092023\REPSWITCH_excgange\REPSWITCH_excgange\data/180201_REPSWITCH1_version2_list1_2023-11-30_11h32.58.730_micRespv2l1_recorded\recording_micRespv2l1_2023-11-30_11h34.42.263.wav;114.0077407;114.50783;None;114.0077407;114.0077407;114.0077407;114.0077407;114.0077407;114.0077407;;;;;;180201;1;2023-11-30_11h32.58.730;REPSWITCH1_version2_list1;2022.2.4;144.0077647;
REPSWITCH1/PICTURE_498.png;taza;speak;darkblue;filler;2;F;1;1;1;2;Stim4_Set4;0;None;19;18;19;0;18;18;18;;;;;;;;;;;;;;;;;;;;;;;114.50783;115.5565643;115.5565643;115.5565643;115.5565643;115.5565643;115.5565643;115.5565643;115.5565643;None;0;;;C:\2023\REPSWITCH21092023\REPSWITCH_excgange\REPSWITCH_excgange\data/180201_REPSWITCH1_version2_list1_2023-11-30_11h32.58.730_micRespv2l1_recorded\recording_micRespv2l1_2023-11-30_11h34.46.834.wav;118.584735;;None;118.584735;118.584735;118.584735;118.584735;118.584735;118.584735;;;;;;180201;1;2023-11-30_11h32.58.730;REPSWITCH1_version2_list1;2022.2.4;144.0077647;
REPSWITCH1/PICTURE_48.png;bombero;type;gold;filler;1;F;1;1;1;2;Stim7_Set4;0;None;20;19;20;0;19;19;19;;;;;;;;;;;;;;;;;;;;;;;119.0848162;120.1057973;120.1057973;120.1057973;120.1057973;120.1057973;120.1057973;120.1057973;120.1057973;['b', 'o', 'm', 'b', 'e', 'r', 'o'];0;[1.1790868998505175, 1.3016829998232424, 1.5315360999666154, 1.8470750998239964, 2.0581399998627603, 2.2534926999360323, 2.3262006000149995];bombero;C:\2023\REPSWITCH21092023\REPSWITCH_excgange\REPSWITCH_excgange\data/180201_REPSWITCH1_version2_list1_2023-11-30_11h32.58.730_micRespv2l1_recorded\recording_micRespv2l1_2023-11-30_11h34.51.382.wav;123.1269786;123.6270542;None;123.1269786;123.1269786;123.1269786;123.1269786;123.1269786;123.1269786;;;;;;180201;1;2023-11-30_11h32.58.730;REPSWITCH1_version2_list1;2022.2.4;144.0077647;
REPSWITCH1/PICTURE_142.png;vaso;type;gold;nontarget;1;NT;1;1;1;2;Stim7_Set1;1;repeat;21;20;21;0;20;20;20;;;;;;;;;;;;;;;;;;;;;;;123.6270542;124.7036185;124.7036185;124.7036185;124.7036185;124.7036185;124.7036185;124.7036185;124.7036185;['v', 'a', 's', 'o'];0;[0.9384198000188917, 1.0261633000336587, 1.2304392999503762, 1.3291470999829471];vaso;C:\2023\REPSWITCH21092023\REPSWITCH_excgange\REPSWITCH_excgange\data/180201_REPSWITCH1_version2_list1_2023-11-30_11h32.58.730_micRespv2l1_recorded\recording_micRespv2l1_2023-11-30_11h34.55.980.wav;127.7248342;128.224896;None;127.7248342;127.7248342;127.7248342;127.7248342;127.7248342;127.7248342;;;;;;180201;1;2023-11-30_11h32.58.730;REPSWITCH1_version2_list1;2022.2.4;144.0077647;
REPSWITCH1/PICTURE_142.png;vaso;type;gold;repeat;1;T;1;1;1;2;Stim7_Set1;0;None;22;21;22;0;21;21;21;;;;;;;;;;;;;;;;;;;;;;;128.224896;129.2945368;129.2945368;129.2945368;129.2945368;129.2945368;129.2945368;129.2945368;129.2945368;['v', 'a', 's', 'o'];0;[1.0712108998559415, 1.1309936000034213, 1.3304216999094933, 1.4821395999751985];vaso;C:\2023\REPSWITCH21092023\REPSWITCH_excgange\REPSWITCH_excgange\data/180201_REPSWITCH1_version2_list1_2023-11-30_11h32.58.730_micRespv2l1_recorded\recording_micRespv2l1_2023-11-30_11h35.00.571.wav;132.3226671;;None;132.3226671;132.3226671;132.3226671;132.3226671;132.3226671;132.3226671;;;;;;180201;1;2023-11-30_11h32.58.730;REPSWITCH1_version2_list1;2022.2.4;144.0077647;
REPSWITCH1/PICTURE_338.png;regalo;speak;darkblue;filler;2;F;1;1;1;2;Stim6_Set4;1;switch;23;22;23;0;22;22;22;;;;;;;;;;;;;;;;;;;;;;;132.8227297;133.8922993;133.8922993;133.8922993;133.8922993;133.8922993;133.8922993;133.8922993;133.8922993;None;0;;;C:\2023\REPSWITCH21092023\REPSWITCH_excgange\REPSWITCH_excgange\data/180201_REPSWITCH1_version2_list1_2023-11-30_11h32.58.730_micRespv2l1_recorded\recording_micRespv2l1_2023-11-30_11h35.05.168.wav;136.9135498;137.4136516;None;136.9135498;136.9135498;136.9135498;136.9135498;136.9135498;136.9135498;;;;;;180201;1;2023-11-30_11h32.58.730;REPSWITCH1_version2_list1;2022.2.4;144.0077647;
REPSWITCH1/PICTURE_728.png;pulpo;type;gold;filler;1;F;1;1;1;2;Stim8_Set4;1;switch;24;23;24;0;23;23;23;;;;;;;;;;;;;;;;;;;;;;;137.4136516;138.5248762;138.5248762;138.5248762;138.5248762;138.5248762;138.5248762;138.5248762;138.5248762;['p', 'u', 'l', 'p', 'o'];0;[1.3622795997653157, 1.7340332998428494, 2.1785371997393668, 2.4819002996664494, 2.554389199707657];pulpo;C:\2023\REPSWITCH21092023\REPSWITCH_excgange\REPSWITCH_excgange\data/180201_REPSWITCH1_version2_list1_2023-11-30_11h32.58.730_micRespv2l1_recorded\recording_micRespv2l1_2023-11-30_11h35.09.800.wav;141.5460909;142.0462323;None;141.5460909;141.5460909;141.5460909;141.5460909;141.5460909;141.5460909;;;;;;180201;1;2023-11-30_11h32.58.730;REPSWITCH1_version2_list1;2022.2.4;144.0077647;
REPSWITCH1/PICTURE_169.png;espalda;type;gold;nontarget;1;NT;1;1;1;2;Stim8_Set1;1;repeat;25;24;25;0;24;24;24;;;;;;;;;;;;;;;;;;;;;;;142.0462323;143.1435031;143.1435031;143.1435031;143.1435031;143.1435031;143.1435031;143.1435031;143.1435031;['e', 's', 'p', 'a', 'l', 'd', 'a'];0;[1.177477499935776, 1.378099599853158, 1.5195902998093516, 1.6684015998616815, 1.716329599963501, 2.1132438997738063, 2.487809899961576];espalda;C:\2023\REPSWITCH21092023\REPSWITCH_excgange\REPSWITCH_excgange\data/180201_REPSWITCH1_version2_list1_2023-11-30_11h32.58.730_micRespv2l1_recorded\recording_micRespv2l1_2023-11-30_11h35.14.420.wav;146.1717628;;None;146.1717628;146.1717628;146.1717628;146.1717628;146.1717628;146.1717628;;;;;;180201;1;2023-11-30_11h32.58.730;REPSWITCH1_version2_list1;2022.2.4;144.0077647;
REPSWITCH1/PICTURE_169.png;espalda;speak;darkblue;switch;2;T;1;1;1;2;Stim8_Set1;0;None;26;25;26;0;25;25;25;;;;;;;;;;;;;;;;;;;;;;;146.671771;147.7414133;147.7414133;147.7414133;147.7414133;147.7414133;147.7414133;147.7414133;147.7414133;None;0;;;C:\2023\REPSWITCH21092023\REPSWITCH_excgange\REPSWITCH_excgange\data/180201_REPSWITCH1_version2_list1_2023-11-30_11h32.58.730_micRespv2l1_recorded\recording_micRespv2l1_2023-11-30_11h35.19.018.wav;150.7626106;151.2626361;None;150.7626106;150.7626106;150.7626106;150.7626106;150.7626106;150.7626106;;;;;;180201;1;2023-11-30_11h32.58.730;REPSWITCH1_version2_list1;2022.2.4;144.0077647;
REPSWITCH1/PICTURE_178.png;puente;speak;darkblue;filler;2;F;2;1;1;2;Stim1_Set1;0;None;27;26;27;0;26;26;26;;;;;;;;;;;;;;;;;;;;;;;151.2626361;152.3113832;152.3113832;152.3113832;152.3113832;152.3113832;152.3113832;152.3113832;152.3113832;None;0;;;C:\2023\REPSWITCH21092023\REPSWITCH_excgange\REPSWITCH_excgange\data/180201_REPSWITCH1_version2_list1_2023-11-30_11h32.58.730_micRespv2l1_recorded\recording_micRespv2l1_2023-11-30_11h35.23.588.wav;155.3326029;155.8326944;None;155.3326029;155.3326029;155.3326029;155.3326029;155.3326029;155.3326029;;;;;;180201;1;2023-11-30_11h32.58.730;REPSWITCH1_version2_list1;2022.2.4;144.0077647;
REPSWITCH1/PICTURE_175.png;pintor;type;gold;nontarget;1;NT;2;1;1;2;Stim1_Set2;1;switch;28;27;28;0;27;27;27;;;;;;;;;;;;;;;;;;;;;;;155.8326944;157.0273072;157.0273072;157.0273072;157.0273072;157.0273072;157.0273072;157.0273072;157.0273072;['p', 'i', 'n', 't', 'o', 'r'];0;[1.485840399749577, 1.719284099759534, 1.9229115997441113, 2.288729899795726, 2.3937758998945355, 2.5871507998090237];pintor;C:\2023\REPSWITCH21092023\REPSWITCH_excgange\REPSWITCH_excgange\data/180201_REPSWITCH1_version2_list1_2023-11-30_11h32.58.730_micRespv2l1_recorded\recording_micRespv2l1_2023-11-30_11h35.28.304.wav;160.0484875;160.5486593;None;160.0484875;160.0484875;160.0484875;160.0484875;160.0484875;160.0484875;;;;;;180201;1;2023-11-30_11h32.58.730;REPSWITCH1_version2_list1;2022.2.4;144.0077647;
REPSWITCH1/PICTURE_175.png;pintor;type;gold;repeat;1;T;2;1;1;2;Stim1_Set2;0;None;29;28;29;0;28;28;28;;;;;;;;;;;;;;;;;;;;;;;160.5486593;161.5973255;161.5973255;161.5973255;161.5973255;161.5973255;161.5973255;161.5973255;161.5973255;['p', 'i', 'm', 'n', 'backspace', 'n'];0;[1.1101710998918861, 1.3354123998433352, 1.551949799992144, 1.5549349999055266, 1.9597438999917358, 2.7480862999800593];pin;C:\2023\REPSWITCH21092023\REPSWITCH_excgange\REPSWITCH_excgange\data/180201_REPSWITCH1_version2_list1_2023-11-30_11h32.58.730_micRespv2l1_recorded\recording_micRespv2l1_2023-11-30_11h35.32.874.wav;164.6255895;;None;164.6255895;164.6255895;164.6255895;164.6255895;164.6255895;164.6255895;;;;;;180201;1;2023-11-30_11h32.58.730;REPSWITCH1_version2_list1;2022.2.4;144.0077647;
REPSWITCH1/PICTURE_381.png;fresa;speak;darkblue;filler;2;F;2;1;1;2;Stim2_Set1;0;None;30;29;30;0;29;29;29;;;;;;;;;;;;;;;;;;;;;;;165.125573;166.2090865;166.2090865;166.2090865;166.2090865;166.2090865;166.2090865;166.2090865;166.2090865;None;0;;;C:\2023\REPSWITCH21092023\REPSWITCH_excgange\REPSWITCH_excgange\data/180201_REPSWITCH1_version2_list1_2023-11-30_11h32.58.730_micRespv2l1_recorded\recording_micRespv2l1_2023-11-30_11h35.37.486.wav;169.2372295;;None;169.2372295;169.2372295;169.2372295;169.2372295;169.2372295;169.2372295;;;;;;180201;1;2023-11-30_11h32.58.730;REPSWITCH1_version2_list1;2022.2.4;144.0077647;
REPSWITCH1/PICTURE_152.png;caracol;type;gold;nontarget;1;NT;2;1;1;2;Stim2_Set2;1;switch;31;30;31;0;30;30;30;;;;;;;;;;;;;;;;;;;;;;;169.7372784;170.7861017;170.7861017;170.7861017;170.7861017;170.7861017;170.7861017;170.7861017;170.7861017;['c', 'a', 'r', 'a', 'c', 'o', 'l'];0;[1.4654840999282897, 1.5701364998240024, 1.6604134999215603, 1.7799530997872353, 2.2711281997617334, 2.3649375999812037, 2.5027635998558253];caracol;C:\2023\REPSWITCH21092023\REPSWITCH_excgange\REPSWITCH_excgange\data/180201_REPSWITCH1_version2_list1_2023-11-30_11h32.58.730_micRespv2l1_recorded\recording_micRespv2l1_2023-11-30_11h35.42.063.wav;173.8072443;174.307337;None;173.8072443;173.8072443;173.8072443;173.8072443;173.8072443;173.8072443;;;;;;180201;1;2023-11-30_11h32.58.730;REPSWITCH1_version2_list1;2022.2.4;144.0077647;
REPSWITCH1/PICTURE_152.png;caracol;type;gold;repeat;1;T;2;1;1;2;Stim2_Set2;0;None;32;31;32;0;31;31;31;;;;;;;;;;;;;;;;;;;;;;;174.307337;175.4324673;175.4324673;175.4324673;175.4324673;175.4324673;175.4324673;175.4324673;175.4324673;['c', 'a', 'r', 'a', 'c', 'o', 'l'];0;[0.9452422999311239, 1.0580637999810278, 1.1553789000026882, 1.260065499925986, 1.5847734999842942, 1.7023379998281598, 1.8518240998964757];caracol;C:\2023\REPSWITCH21092023\REPSWITCH_excgange\REPSWITCH_excgange\data/180201_REPSWITCH1_version2_list1_2023-11-30_11h32.58.730_micRespv2l1_recorded\recording_micRespv2l1_2023-11-30_11h35.46.709.wav;178.4606564;;None;178.4606564;178.4606564;178.4606564;178.4606564;178.4606564;178.4606564;;;;;;180201;1;2023-11-30_11h32.58.730;REPSWITCH1_version2_list1;2022.2.4;144.0077647;
REPSWITCH1/PICTURE_128.png;muñeca;speak;darkblue;filler;2;F;2;1;1;2;Stim4_Set1;0;None;33;32;33;0;32;32;32;;;;;;;;;;;;;;;;;;;;;;;178.9607219;180.0789005;180.0789005;180.0789005;180.0789005;180.0789005;180.0789005;180.0789005;180.0789005;None;0;;;C:\2023\REPSWITCH21092023\REPSWITCH_excgange\REPSWITCH_excgange\data/180201_REPSWITCH1_version2_list1_2023-11-30_11h32.58.730_micRespv2l1_recorded\recording_micRespv2l1_2023-11-30_11h35.51.356.wav;183.1070722;;None;183.1070722;183.1070722;183.1070722;183.1070722;183.1070722;183.1070722;;;;;;180201;1;2023-11-30_11h32.58.730;REPSWITCH1_version2_list1;2022.2.4;144.0077647;
REPSWITCH1/PICTURE_264.png;mano;type;gold;nontarget;1;NT;2;1;1;2;Stim3_Set2;0;None;34;33;34;0;33;33;33;;;;;;;;;;;;;;;;;;;;;;;183.60716;184.7393327;184.7393327;184.7393327;184.7393327;184.7393327;184.7393327;184.7393327;184.7393327;['m', 'a', 'n', 'o'];0;[1.1170296999625862, 1.200644499855116, 1.3093183997552842, 1.3924269997514784];mano;C:\2023\REPSWITCH21092023\REPSWITCH_excgange\REPSWITCH_excgange\data/180201_REPSWITCH1_version2_list1_2023-11-30_11h32.58.730_micRespv2l1_recorded\recording_micRespv2l1_2023-11-30_11h35.56.015.wav;187.7604946;188.2605408;None;187.7604946;187.7604946;187.7604946;187.7604946;187.7604946;187.7604946;;;;;;180201;1;2023-11-30_11h32.58.730;REPSWITCH1_version2_list1;2022.2.4;144.0077647;
REPSWITCH1/PICTURE_264.png;mano;speak;darkblue;switch;2;T;2;1;1;2;Stim3_Set2;0;None;35;34;35;0;34;34;34;;;;;;;;;;;;;;;;;;;;;;;188.2605408;189.4274347;189.4274347;189.4274347;189.4274347;189.4274347;189.4274347;189.4274347;189.4274347;None;0;;;C:\2023\REPSWITCH21092023\REPSWITCH_excgange\REPSWITCH_excgange\data/180201_REPSWITCH1_version2_list1_2023-11-30_11h32.58.730_micRespv2l1_recorded\recording_micRespv2l1_2023-11-30_11h36.00.705.wav;192.4555887;;None;192.4555887;192.4555887;192.4555887;192.4555887;192.4555887;192.4555887;;;;;;180201;1;2023-11-30_11h32.58.730;REPSWITCH1_version2_list1;2022.2.4;144.0077647;
REPSWITCH1/PICTURE_517.png;cuerda;speak;darkblue;nontarget;2;NT;2;1;1;2;Stim4_Set2;1;repeat;36;35;36;0;35;35;35;;;;;;;;;;;;;;;;;;;;;;;192.9556156;194.0113566;194.0113566;194.0113566;194.0113566;194.0113566;194.0113566;194.0113566;194.0113566;None;0;;;C:\2023\REPSWITCH21092023\REPSWITCH_excgange\REPSWITCH_excgange\data/180201_REPSWITCH1_version2_list1_2023-11-30_11h32.58.730_micRespv2l1_recorded\recording_micRespv2l1_2023-11-30_11h36.05.288.wav;197.032512;197.5326027;None;197.032512;197.032512;197.032512;197.032512;197.032512;197.032512;;;;;;180201;1;2023-11-30_11h32.58.730;REPSWITCH1_version2_list1;2022.2.4;144.0077647;
REPSWITCH1/PICTURE_517.png;cuerda;type;gold;switch;1;T;2;1;1;2;Stim4_Set2;0;None;37;36;37;0;36;36;36;;;;;;;;;;;;;;;;;;;;;;;197.5326027;198.6647149;198.6647149;198.6647149;198.6647149;198.6647149;198.6647149;198.6647149;198.6647149;['c', 'u', 'e', 'r', 'd', 'a'];0;[1.1451054997742176, 1.232793299946934, 1.3900197998154908, 1.5850800997577608, 1.7963213997427374, 1.912327399943024];cuerda;C:\2023\REPSWITCH21092023\REPSWITCH_excgange\REPSWITCH_excgange\data/180201_REPSWITCH1_version2_list1_2023-11-30_11h32.58.730_micRespv2l1_recorded\recording_micRespv2l1_2023-11-30_11h36.09.941.wav;201.6859463;202.1859512;None;201.6859463;201.6859463;201.6859463;201.6859463;201.6859463;201.6859463;;;;;;180201;1;2023-11-30_11h32.58.730;REPSWITCH1_version2_list1;2022.2.4;144.0077647;
REPSWITCH1/PICTURE_135.png;traje;type;gold;filler;1;F;2;1;1;2;Stim3_Set1;0;None;38;37;38;0;37;37;37;;;;;;;;;;;;;;;;;;;;;;;202.1859512;203.2763971;203.2763971;203.2763971;203.2763971;203.2763971;203.2763971;203.2763971;203.2763971;['t', 'r', 'a', 'j', 'e'];0;[1.1312303999438882, 1.2867703998927027, 1.3764032998587936, 1.7053266998846084, 1.7442415999248624];traje;C:\2023\REPSWITCH21092023\REPSWITCH_excgange\REPSWITCH_excgange\data/180201_REPSWITCH1_version2_list1_2023-11-30_11h32.58.730_micRespv2l1_recorded\recording_micRespv2l1_2023-11-30_11h36.14.553.wav;206.2976449;206.797703;None;206.2976449;206.2976449;206.2976449;206.2976449;206.2976449;206.2976449;;;;;;180201;1;2023-11-30_11h32.58.730;REPSWITCH1_version2_list1;2022.2.4;144.0077647;
REPSWITCH1/PICTURE_30.png;granja;type;gold;nontarget;1;NT;2;1;1;2;Stim5_Set2;1;repeat;39;38;39;0;38;38;38;;;;;;;;;;;;;;;;;;;;;;;206.797703;207.9158739;207.9158739;207.9158739;207.9158739;207.9158739;207.9158739;207.9158739;207.9158739;['g', 'r', 'a', 'n', 'j', 'a'];0;[1.3778600997757167, 1.5652229997795075, 1.6789008998312056, 2.3493411999661475, 2.558703899849206, 2.635564399883151];granja;C:\2023\REPSWITCH21092023\REPSWITCH_excgange\REPSWITCH_excgange\data/180201_REPSWITCH1_version2_list1_2023-11-30_11h32.58.730_micRespv2l1_recorded\recording_micRespv2l1_2023-11-30_11h36.19.193.wav;210.9440641;;None;210.9440641;210.9440641;210.9440641;210.9440641;210.9440641;210.9440641;;;;;;180201;1;2023-11-30_11h32.58.730;REPSWITCH1_version2_list1;2022.2.4;144.0077647;
REPSWITCH1/PICTURE_30.png;granja;speak;darkblue;switch;2;T;2;1;1;2;Stim5_Set2;0;None;40;39;40;0;39;39;39;;;;;;;;;;;;;;;;;;;;;;;211.4441549;212.6248657;212.6248657;212.6248657;212.6248657;212.6248657;212.6248657;212.6248657;212.6248657;None;0;;;C:\2023\REPSWITCH21092023\REPSWITCH_excgange\REPSWITCH_excgange\data/180201_REPSWITCH1_version2_list1_2023-11-30_11h32.58.730_micRespv2l1_recorded\recording_micRespv2l1_2023-11-30_11h36.23.902.wav;215.6530181;;None;215.6530181;215.6530181;215.6530181;215.6530181;215.6530181;215.6530181;;;;;;180201;1;2023-11-30_11h32.58.730;REPSWITCH1_version2_list1;2022.2.4;144.0077647;
REPSWITCH1/PICTURE_142.png;vaso;type;gold;filler;1;F;2;1;1;2;Stim7_Set1;0;None;41;40;41;0;40;40;40;;;;;;;;;;;;;;;;;;;;;;;216.1531502;217.2921522;217.2921522;217.2921522;217.2921522;217.2921522;217.2921522;217.2921522;217.2921522;['v', 'a', 's', 'o'];0;[0.9891428998671472, 1.0668653997126967, 1.2625356998760253, 1.3850985998287797];vaso;C:\2023\REPSWITCH21092023\REPSWITCH_excgange\REPSWITCH_excgange\data/180201_REPSWITCH1_version2_list1_2023-11-30_11h32.58.730_micRespv2l1_recorded\recording_micRespv2l1_2023-11-30_11h36.28.568.wav;220.3133868;220.8134355;None;220.3133868;220.3133868;220.3133868;220.3133868;220.3133868;220.3133868;;;;;;180201;1;2023-11-30_11h32.58.730;REPSWITCH1_version2_list1;2022.2.4;144.0077647;
REPSWITCH1/PICTURE_19.png;pavo;speak;darkblue;filler;2;F;2;1;1;2;Stim5_Set1;1;switch;42;41;42;0;41;41;41;;;;;;;;;;;;;;;;;;;;;;;220.8134355;221.8413571;221.8413571;221.8413571;221.8413571;221.8413571;221.8413571;221.8413571;221.8413571;None;0;;;C:\2023\REPSWITCH21092023\REPSWITCH_excgange\REPSWITCH_excgange\data/180201_REPSWITCH1_version2_list1_2023-11-30_11h32.58.730_micRespv2l1_recorded\recording_micRespv2l1_2023-11-30_11h36.33.118.wav;224.869531;;None;224.869531;224.869531;224.869531;224.869531;224.869531;224.869531;;;;;;180201;1;2023-11-30_11h32.58.730;REPSWITCH1_version2_list1;2022.2.4;144.0077647;
REPSWITCH1/PICTURE_552.png;manzana;speak;darkblue;nontarget;2;NT;2;1;1;2;Stim6_Set2;1;repeat;43;42;43;0;42;42;42;;;;;;;;;;;;;;;;;;;;;;;225.3695722;226.4391867;226.4391867;226.4391867;226.4391867;226.4391867;226.4391867;226.4391867;226.4391867;None;0;;;C:\2023\REPSWITCH21092023\REPSWITCH_excgange\REPSWITCH_excgange\data/180201_REPSWITCH1_version2_list1_2023-11-30_11h32.58.730_micRespv2l1_recorded\recording_micRespv2l1_2023-11-30_11h36.37.716.wav;229.4673441;;None;229.4673441;229.4673441;229.4673441;229.4673441;229.4673441;229.4673441;;;;;;180201;1;2023-11-30_11h32.58.730;REPSWITCH1_version2_list1;2022.2.4;144.0077647;
REPSWITCH1/PICTURE_552.png;manzana;speak;darkblue;repeat;2;T;2;1;1;2;Stim6_Set2;0;None;44;43;44;0;43;43;43;;;;;;;;;;;;;;;;;;;;;;;229.9674112;230.9814204;230.9814204;230.9814204;230.9814204;230.9814204;230.9814204;230.9814204;230.9814204;None;0;;;C:\2023\REPSWITCH21092023\REPSWITCH_excgange\REPSWITCH_excgange\data/180201_REPSWITCH1_version2_list1_2023-11-30_11h32.58.730_micRespv2l1_recorded\recording_micRespv2l1_2023-11-30_11h36.42.257.wav;234.0026639;234.5028048;None;234.0026639;234.0026639;234.0026639;234.0026639;234.0026639;234.0026639;;;;;;180201;1;2023-11-30_11h32.58.730;REPSWITCH1_version2_list1;2022.2.4;144.0077647;
REPSWITCH1/PICTURE_16.png;cazador;type;gold;filler;1;F;2;1;1;2;Stim6_Set1;0;None;45;44;45;0;44;44;44;;;;;;;;;;;;;;;;;;;;;;;234.5028048;235.6765486;235.6765486;235.6765486;235.6765486;235.6765486;235.6765486;235.6765486;235.6765486;['c', 'a', 'z', 'a', 'd', 'o', 'r'];0;[1.0076011999044567, 1.0873248998541385, 1.2666835999116302, 1.452064799843356, 1.6644498999230564, 1.9908982997294515, 2.1344064997974783];cazador;C:\2023\REPSWITCH21092023\REPSWITCH_excgange\REPSWITCH_excgange\data/180201_REPSWITCH1_version2_list1_2023-11-30_11h32.58.730_micRespv2l1_recorded\recording_micRespv2l1_2023-11-30_11h36.46.954.wav;238.7046699;239.2047334;None;238.7046699;238.7046699;238.7046699;238.7046699;238.7046699;238.7046699;;;;;;180201;1;2023-11-30_11h32.58.730;REPSWITCH1_version2_list1;2022.2.4;144.0077647;
REPSWITCH1/PICTURE_446.png;cerdo;speak;darkblue;nontarget;2;NT;2;1;1;2;Stim7_Set2;1;switch;46;45;46;0;45;45;45;;;;;;;;;;;;;;;;;;;;;;;239.2047334;240.2187748;240.2187748;240.2187748;240.2187748;240.2187748;240.2187748;240.2187748;240.2187748;None;0;;;C:\2023\REPSWITCH21092023\REPSWITCH_excgange\REPSWITCH_excgange\data/180201_REPSWITCH1_version2_list1_2023-11-30_11h32.58.730_micRespv2l1_recorded\recording_micRespv2l1_2023-11-30_11h36.51.495.wav;243.2469143;;None;243.2469143;243.2469143;243.2469143;243.2469143;243.2469143;243.2469143;;;;;;180201;1;2023-11-30_11h32.58.730;REPSWITCH1_version2_list1;2022.2.4;144.0077647;
REPSWITCH1/PICTURE_446.png;cerdo;speak;darkblue;repeat;2;T;2;1;1;2;Stim7_Set2;0;None;47;46;47;0;46;46;46;;;;;;;;;;;;;;;;;;;;;;;243.7469704;244.795811;244.795811;244.795811;244.795811;244.795811;244.795811;244.795811;244.795811;None;0;;;C:\2023\REPSWITCH21092023\REPSWITCH_excgange\REPSWITCH_excgange\data/180201_REPSWITCH1_version2_list1_2023-11-30_11h32.58.730_micRespv2l1_recorded\recording_micRespv2l1_2023-11-30_11h36.56.071.wav;247.816944;248.3170146;None;247.816944;247.816944;247.816944;247.816944;247.816944;247.816944;;;;;;180201;1;2023-11-30_11h32.58.730;REPSWITCH1_version2_list1;2022.2.4;144.0077647;
REPSWITCH1/PICTURE_590.png;escoba;type;gold;filler;1;F;2;1;1;2;Extra3;0;None;48;47;48;0;47;47;47;;;;;;;;;;;;;;;;;;;;;;;248.3170146;249.4074409;249.4074409;249.4074409;249.4074409;249.4074409;249.4074409;249.4074409;249.4074409;['e', 's', 'c', 'o', 'b', 'a'];0;[0.9443483999930322, 1.130689499899745, 1.3499623998068273, 1.6026824999134988, 2.133501000003889, 2.2182155998889357];escoba;C:\2023\REPSWITCH21092023\REPSWITCH_excgange\REPSWITCH_excgange\data/180201_REPSWITCH1_version2_list1_2023-11-30_11h32.58.730_micRespv2l1_recorded\recording_micRespv2l1_2023-11-30_11h37.00.683.wav;252.4286712;252.9287527;None;252.4286712;252.4286712;252.4286712;252.4286712;252.4286712;252.4286712;;;;;;180201;1;2023-11-30_11h32.58.730;REPSWITCH1_version2_list1;2022.2.4;144.0077647;
REPSWITCH1/PICTURE_169.png;espalda;speak;darkblue;filler;2;F;2;1;1;2;Stim8_Set1;0;None;49;48;49;0;48;48;48;;;;;;;;;;;;;;;;;;;;;;;252.9287527;254.0678333;254.0678333;254.0678333;254.0678333;254.0678333;254.0678333;254.0678333;254.0678333;None;0;;;C:\2023\REPSWITCH21092023\REPSWITCH_excgange\REPSWITCH_excgange\data/180201_REPSWITCH1_version2_list1_2023-11-30_11h32.58.730_micRespv2l1_recorded\recording_micRespv2l1_2023-11-30_11h37.05.344.wav;257.0890097;257.5890666;None;257.0890097;257.0890097;257.0890097;257.0890097;257.0890097;257.0890097;;;;;;180201;1;2023-11-30_11h32.58.730;REPSWITCH1_version2_list1;2022.2.4;144.0077647;
REPSWITCH1/PICTURE_199.png;falda;speak;darkblue;nontarget;2;NT;2;1;1;2;Stim8_Set2;1;repeat;50;49;50;0;49;49;49;;;;;;;;;;;;;;;;;;;;;;;257.5890666;258.6656886;258.6656886;258.6656886;258.6656886;258.6656886;258.6656886;258.6656886;258.6656886;None;0;;;C:\2023\REPSWITCH21092023\REPSWITCH_excgange\REPSWITCH_excgange\data/180201_REPSWITCH1_version2_list1_2023-11-30_11h32.58.730_micRespv2l1_recorded\recording_micRespv2l1_2023-11-30_11h37.09.942.wav;261.6868412;262.1868886;None;261.6868412;261.6868412;261.6868412;261.6868412;261.6868412;261.6868412;;;;;;180201;1;2023-11-30_11h32.58.730;REPSWITCH1_version2_list1;2022.2.4;144.0077647;
REPSWITCH1/PICTURE_199.png;falda;type;gold;switch;1;T;2;1;1;2;Stim8_Set2;0;None;51;50;51;0;50;50;50;;;;;;;;;;;;;;;;;;;;;;;262.1868886;263.2704125;263.2704125;263.2704125;263.2704125;263.2704125;263.2704125;263.2704125;263.2704125;['f', 'a', 'l', 'd', 'a'];0;[1.2224041998852044, 1.6809575997758657, 1.74649369972758, 1.989590099779889, 2.0245874996762723];falda;C:\2023\REPSWITCH21092023\REPSWITCH_excgange\REPSWITCH_excgange\data/180201_REPSWITCH1_version2_list1_2023-11-30_11h32.58.730_micRespv2l1_recorded\recording_micRespv2l1_2023-11-30_11h37.14.547.wav;266.2915861;266.7916885;space;266.2915861;266.2915861;266.2915861;266.2915861;266.2915861;266.2915861;266.7916885;266.7916885;14.0429273;;;180201;1;2023-11-30_11h32.58.730;REPSWITCH1_version2_list1;2022.2.4;144.0077647;
REPSWITCH1/PICTURE_576.png;guante;type;gold;nontarget;1;NT;3;1;1;2;Stim1_Set3;0;None;52;51;52;0;51;51;51;;;;;;;;;;;;;;;;;;;;;;;280.8422121;281.9603512;281.9603512;281.9603512;281.9603512;281.9603512;281.9603512;281.9603512;281.9603512;['g', 'i', 'u', 'a', 'n', 't', 'e'];0;[1.8688255997840315, 2.008350399788469, 2.2654948998242617, 2.43365819985047, 2.5373065997846425, 2.728667499963194, 2.7795058998744935];giuante;C:\2023\REPSWITCH21092023\REPSWITCH_excgange\REPSWITCH_excgange\data/180201_REPSWITCH1_version2_list1_2023-11-30_11h32.58.730_micRespv2l1_recorded\recording_micRespv2l1_2023-11-30_11h37.33.237.wav;284.9885267;;None;284.9885267;284.9885267;284.9885267;284.9885267;284.9885267;284.9885267;;;;;;180201;1;2023-11-30_11h32.58.730;REPSWITCH1_version2_list1;2022.2.4;144.0077647;
REPSWITCH1/PICTURE_576.png;guante;speak;darkblue;switch;2;T;3;1;1;2;Stim1_Set3;0;None;53;52;53;0;52;52;52;;;;;;;;;;;;;;;;;;;;;;;285.4885856;286.6901956;286.6901956;286.6901956;286.6901956;286.6901956;286.6901956;286.6901956;286.6901956;None;0;;;C:\2023\REPSWITCH21092023\REPSWITCH_excgange\REPSWITCH_excgange\data/180201_REPSWITCH1_version2_list1_2023-11-30_11h32.58.730_micRespv2l1_recorded\recording_micRespv2l1_2023-11-30_11h37.37.966.wav;289.7183388;;None;289.7183388;289.7183388;289.7183388;289.7183388;289.7183388;289.7183388;;;;;;180201;1;2023-11-30_11h32.58.730;REPSWITCH1_version2_list1;2022.2.4;144.0077647;
REPSWITCH1/PICTURE_646.png;tronco;speak;darkblue;filler;2;F;3;1;1;2;Extra4;0;None;54;53;54;0;53;53;53;;;;;;;;;;;;;;;;;;;;;;;290.2184504;291.3644319;291.3644319;291.3644319;291.3644319;291.3644319;291.3644319;291.3644319;291.3644319;None;0;;;C:\2023\REPSWITCH21092023\REPSWITCH_excgange\REPSWITCH_excgange\data/180201_REPSWITCH1_version2_list1_2023-11-30_11h32.58.730_micRespv2l1_recorded\recording_micRespv2l1_2023-11-30_11h37.42.640.wav;294.3855458;294.8856633;None;294.3855458;294.3855458;294.3855458;294.3855458;294.3855458;294.3855458;;;;;;180201;1;2023-11-30_11h32.58.730;REPSWITCH1_version2_list1;2022.2.4;144.0077647;
REPSWITCH1/PICTURE_610.png;miel;speak;darkblue;nontarget;2;NT;3;1;1;2;Stim2_Set3;1;repeat;55;54;55;0;54;54;54;;;;;;;;;;;;;;;;;;;;;;;294.8856633;295.9622416;295.9622416;295.9622416;295.9622416;295.9622416;295.9622416;295.9622416;295.9622416;None;0;;;C:\2023\REPSWITCH21092023\REPSWITCH_excgange\REPSWITCH_excgange\data/180201_REPSWITCH1_version2_list1_2023-11-30_11h32.58.730_micRespv2l1_recorded\recording_micRespv2l1_2023-11-30_11h37.47.238.wav;298.9833748;299.4834671;None;298.9833748;298.9833748;298.9833748;298.9833748;298.9833748;298.9833748;;;;;;180201;1;2023-11-30_11h32.58.730;REPSWITCH1_version2_list1;2022.2.4;144.0077647;
REPSWITCH1/PICTURE_610.png;miel;type;gold;switch;1;T;3;1;1;2;Stim2_Set3;0;None;56;55;56;0;55;55;55;;;;;;;;;;;;;;;;;;;;;;;299.4834671;300.643353;300.643353;300.643353;300.643353;300.643353;300.643353;300.643353;300.643353;['m', 'i', 'e', 'l'];0;[1.0663310999516398, 1.2549225999973714, 1.6008983000647277, 1.6701766999904066];miel;C:\2023\REPSWITCH21092023\REPSWITCH_excgange\REPSWITCH_excgange\data/180201_REPSWITCH1_version2_list1_2023-11-30_11h32.58.730_micRespv2l1_recorded\recording_micRespv2l1_2023-11-30_11h37.51.920.wav;303.6645443;304.1646293;None;303.6645443;303.6645443;303.6645443;303.6645443;303.6645443;303.6645443;;;;;;180201;1;2023-11-30_11h32.58.730;REPSWITCH1_version2_list1;2022.2.4;144.0077647;
REPSWITCH1/PICTURE_175.png;pintor;type;gold;filler;1;F;3;1;1;2;Stim1_Set2;1;repeat;57;56;57;0;56;56;56;;;;;;;;;;;;;;;;;;;;;;;304.1646293;305.2065048;305.2065048;305.2065048;305.2065048;305.2065048;305.2065048;305.2065048;305.2065048;['p', 'i', 'n', 't', 'o', 'r'];0;[1.0868590997997671, 1.3184153998736292, 1.537713199853897, 1.739009799901396, 1.837713100016117, 1.9762630998156965];pintor;C:\2023\REPSWITCH21092023\REPSWITCH_excgange\REPSWITCH_excgange\data/180201_REPSWITCH1_version2_list1_2023-11-30_11h32.58.730_micRespv2l1_recorded\recording_micRespv2l1_2023-11-30_11h37.56.483.wav;308.2276443;308.7277269;None;308.2276443;308.2276443;308.2276443;308.2276443;308.2276443;308.2276443;;;;;;180201;1;2023-11-30_11h32.58.730;REPSWITCH1_version2_list1;2022.2.4;144.0077647;
REPSWITCH1/PICTURE_242.png;cartero;type;gold;nontarget;1;NT;3;1;1;2;Stim3_Set3;1;repeat;58;57;58;0;57;57;57;;;;;;;;;;;;;;;;;;;;;;;308.7277269;309.7556825;309.7556825;309.7556825;309.7556825;309.7556825;309.7556825;309.7556825;309.7556825;['c', 'a', 'r', 't', 'e', 'r', 'o'];0;[1.2503088000230491, 1.3586381999775767, 1.4414756998885423, 1.5781946999486536, 1.6738610998727381, 1.8792119000572711, 1.9938133999239653];cartero;C:\2023\REPSWITCH21092023\REPSWITCH_excgange\REPSWITCH_excgange\data/180201_REPSWITCH1_version2_list1_2023-11-30_11h32.58.730_micRespv2l1_recorded\recording_micRespv2l1_2023-11-30_11h38.01.033.wav;312.7838166;;None;312.7838166;312.7838166;312.7838166;312.7838166;312.7838166;312.7838166;;;;;;180201;1;2023-11-30_11h32.58.730;REPSWITCH1_version2_list1;2022.2.4;144.0077647;
REPSWITCH1/PICTURE_242.png;cartero;speak;darkblue;switch;2;T;3;1;1;2;Stim3_Set3;0;None;59;58;59;0;58;58;58;;;;;;;;;;;;;;;;;;;;;;;313.2838685;314.3395669;314.3395669;314.3395669;314.3395669;314.3395669;314.3395669;314.3395669;314.3395669;None;0;;;C:\2023\REPSWITCH21092023\REPSWITCH_excgange\REPSWITCH_excgange\data/180201_REPSWITCH1_version2_list1_2023-11-30_11h32.58.730_micRespv2l1_recorded\recording_micRespv2l1_2023-11-30_11h38.05.616.wav;317.3607949;317.8608621;None;317.3607949;317.3607949;317.3607949;317.3607949;317.3607949;317.3607949;;;;;;180201;1;2023-11-30_11h32.58.730;REPSWITCH1_version2_list1;2022.2.4;144.0077647;
REPSWITCH1/PICTURE_152.png;caracol;speak;darkblue;filler;2;F;3;1;1;2;Stim2_Set2;0;None;60;59;60;0;59;59;59;;;;;;;;;;;;;;;;;;;;;;;317.8608621;318.9860541;318.9860541;318.9860541;318.9860541;318.9860541;318.9860541;318.9860541;318.9860541;None;0;;;C:\2023\REPSWITCH21092023\REPSWITCH_excgange\REPSWITCH_excgange\data/180201_REPSWITCH1_version2_list1_2023-11-30_11h32.58.730_micRespv2l1_recorded\recording_micRespv2l1_2023-11-30_11h38.10.262.wav;322.0072788;322.5073116;None;322.0072788;322.0072788;322.0072788;322.0072788;322.0072788;322.0072788;;;;;;180201;1;2023-11-30_11h32.58.730;REPSWITCH1_version2_list1;2022.2.4;144.0077647;
REPSWITCH1/PICTURE_517.png;cuerda;type;gold;filler;1;F;3;1;1;2;Stim4_Set2;0;None;61;60;61;0;60;60;60;;;;;;;;;;;;;;;;;;;;;;;322.5073116;323.5283871;323.5283871;323.5283871;323.5283871;323.5283871;323.5283871;323.5283871;323.5283871;['c', 'u', 'e', 'r', 'd', 'a'];0;[1.131231599720195, 1.2069804999046028, 1.3945247998926789, 1.607834099791944, 1.7836979997809976, 1.86573509988375];cuerda;C:\2023\REPSWITCH21092023\REPSWITCH_excgange\REPSWITCH_excgange\data/180201_REPSWITCH1_version2_list1_2023-11-30_11h32.58.730_micRespv2l1_recorded\recording_micRespv2l1_2023-11-30_11h38.14.805.wav;326.5564692;;None;326.5564692;326.5564692;326.5564692;326.5564692;326.5564692;326.5564692;;;;;;180201;1;2023-11-30_11h32.58.730;REPSWITCH1_version2_list1;2022.2.4;144.0077647;
REPSWITCH1/PICTURE_235.png;aguja;speak;darkblue;nontarget;2;NT;3;1;1;2;Stim4_Set3;1;switch;62;61;62;0;61;61;61;;;;;;;;;;;;;;;;;;;;;;;327.0565448;328.0913791;328.0913791;328.0913791;328.0913791;328.0913791;328.0913791;328.0913791;328.0913791;None;0;;;C:\2023\REPSWITCH21092023\REPSWITCH_excgange\REPSWITCH_excgange\data/180201_REPSWITCH1_version2_list1_2023-11-30_11h32.58.730_micRespv2l1_recorded\recording_micRespv2l1_2023-11-30_11h38.19.368.wav;331.1195676;;None;331.1195676;331.1195676;331.1195676;331.1195676;331.1195676;331.1195676;;;;;;180201;1;2023-11-30_11h32.58.730;REPSWITCH1_version2_list1;2022.2.4;144.0077647;
REPSWITCH1/PICTURE_235.png;aguja;speak;darkblue;repeat;2;T;3;1;1;2;Stim4_Set3;0;None;63;62;63;0;62;62;62;;;;;;;;;;;;;;;;;;;;;;;331.6196327;332.737829;332.737829;332.737829;332.737829;332.737829;332.737829;332.737829;332.737829;None;0;;;C:\2023\REPSWITCH21092023\REPSWITCH_excgange\REPSWITCH_excgange\data/180201_REPSWITCH1_version2_list1_2023-11-30_11h32.58.730_micRespv2l1_recorded\recording_micRespv2l1_2023-11-30_11h38.24.015.wav;335.7590467;336.259096;None;335.7590467;335.7590467;335.7590467;335.7590467;335.7590467;335.7590467;;;;;;180201;1;2023-11-30_11h32.58.730;REPSWITCH1_version2_list1;2022.2.4;144.0077647;
REPSWITCH1/PICTURE_30.png;granja;type;gold;filler;1;F;3;1;1;2;Stim5_Set2;0;None;64;63;64;0;63;63;63;;;;;;;;;;;;;;;;;;;;;;;336.259096;337.3704371;337.3704371;337.3704371;337.3704371;337.3704371;337.3704371;337.3704371;337.3704371;['g', 'r', 'a', 'n', 'j', 'a'];0;[1.2316874999087304, 1.402966900030151, 1.479031200055033, 1.8510992999654263, 1.9896118000615388, 2.040426200022921];granja;C:\2023\REPSWITCH21092023\REPSWITCH_excgange\REPSWITCH_excgange\data/180201_REPSWITCH1_version2_list1_2023-11-30_11h32.58.730_micRespv2l1_recorded\recording_micRespv2l1_2023-11-30_11h38.28.647.wav;340.3985739;;None;340.3985739;340.3985739;340.3985739;340.3985739;340.3985739;340.3985739;;;;;;180201;1;2023-11-30_11h32.58.730;REPSWITCH1_version2_list1;2022.2.4;144.0077647;
REPSWITCH1/PICTURE_552.png;manzana;speak;darkblue;filler;2;F;3;1;1;2;Stim6_Set2;1;switch;65;64;65;0;64;64;64;;;;;;;;;;;;;;;;;;;;;;;340.8986008;342.0515676;342.0515676;342.0515676;342.0515676;342.0515676;342.0515676;342.0515676;342.0515676;None;0;;;C:\2023\REPSWITCH21092023\REPSWITCH_excgange\REPSWITCH_excgange\data/180201_REPSWITCH1_version2_list1_2023-11-30_11h32.58.730_micRespv2l1_recorded\recording_micRespv2l1_2023-11-30_11h38.33.328.wav;345.0797424;;None;345.0797424;345.0797424;345.0797424;345.0797424;345.0797424;345.0797424;;;;;;180201;1;2023-11-30_11h32.58.730;REPSWITCH1_version2_list1;2022.2.4;144.0077647;
REPSWITCH1/PICTURE_35.png;oreja;speak;darkblue;nontarget;2;NT;3;1;1;2;Stim5_Set3;1;repeat;66;65;66;0;65;65;65;;;;;;;;;;;;;;;;;;;;;;;345.579792;346.7882775;346.7882775;346.7882775;346.7882775;346.7882775;346.7882775;346.7882775;346.7882775;None;0;;;C:\2023\REPSWITCH21092023\REPSWITCH_excgange\REPSWITCH_excgange\data/180201_REPSWITCH1_version2_list1_2023-11-30_11h32.58.730_micRespv2l1_recorded\recording_micRespv2l1_2023-11-30_11h38.38.064.wav;349.8164711;;None;349.8164711;349.8164711;349.8164711;349.8164711;349.8164711;349.8164711;;;;;;180201;1;2023-11-30_11h32.58.730;REPSWITCH1_version2_list1;2022.2.4;144.0077647;
REPSWITCH1/PICTURE_35.png;oreja;speak;darkblue;repeat;2;T;3;1;1;2;Stim5_Set3;0;None;67;66;67;0;66;66;66;;;;;;;;;;;;;;;;;;;;;;;350.316609;351.427845;351.427845;351.427845;351.427845;351.427845;351.427845;351.427845;351.427845;None;0;;;C:\2023\REPSWITCH21092023\REPSWITCH_excgange\REPSWITCH_excgange\data/180201_REPSWITCH1_version2_list1_2023-11-30_11h32.58.730_micRespv2l1_recorded\recording_micRespv2l1_2023-11-30_11h38.42.703.wav;354.4490711;354.9490773;None;354.4490711;354.4490711;354.4490711;354.4490711;354.4490711;354.4490711;;;;;;180201;1;2023-11-30_11h32.58.730;REPSWITCH1_version2_list1;2022.2.4;144.0077647;
REPSWITCH1/PICTURE_673.png;tenedor;type;gold;filler;1;F;3;1;1;2;Extra5;0;None;68;67;68;0;67;67;67;;;;;;;;;;;;;;;;;;;;;;;354.9490773;356.0534182;356.0534182;356.0534182;356.0534182;356.0534182;356.0534182;356.0534182;356.0534182;['t', 'e', 'n', 'b', 'e', 'backspace', 'backspace', 'b', 'e', 'd'];0;[0.9865582997445017, 1.0718339998275042, 1.2278452997561544, 1.2288362998515368, 1.3085389998741448, 1.8718744998332113, 1.9964217997621745, 2.6326199998147786, 2.763918399810791, 2.950284499907866];tebed;C:\2023\REPSWITCH21092023\REPSWITCH_excgange\REPSWITCH_excgange\data/180201_REPSWITCH1_version2_list1_2023-11-30_11h32.58.730_micRespv2l1_recorded\recording_micRespv2l1_2023-11-30_11h38.47.330.wav;359.0815738;;None;359.0815738;359.0815738;359.0815738;359.0815738;359.0815738;359.0815738;;;;;;180201;1;2023-11-30_11h32.58.730;REPSWITCH1_version2_list1;2022.2.4;144.0077647;
REPSWITCH1/PICTURE_464.png;goma;speak;darkblue;nontarget;2;NT;3;1;1;2;Stim6_Set3;0;None;69;68;69;0;68;68;68;;;;;;;;;;;;;;;;;;;;;;;359.5816329;360.6443405;360.6443405;360.6443405;360.6443405;360.6443405;360.6443405;360.6443405;360.6443405;None;0;;;C:\2023\REPSWITCH21092023\REPSWITCH_excgange\REPSWITCH_excgange\data/180201_REPSWITCH1_version2_list1_2023-11-30_11h32.58.730_micRespv2l1_recorded\recording_micRespv2l1_2023-11-30_11h38.51.920.wav;363.6654697;364.165571;None;363.6654697;363.6654697;363.6654697;363.6654697;363.6654697;363.6654697;;;;;;180201;1;2023-11-30_11h32.58.730;REPSWITCH1_version2_list1;2022.2.4;144.0077647;
REPSWITCH1/PICTURE_464.png;goma;type;gold;switch;1;T;3;1;1;2;Stim6_Set3;0;None;70;69;70;0;69;69;69;;;;;;;;;;;;;;;;;;;;;;;364.165571;365.2559751;365.2559751;365.2559751;365.2559751;365.2559751;365.2559751;365.2559751;365.2559751;['g', 'o', 'm', 'a'];0;[0.9036055998876691, 1.0091868999879807, 1.5602833998855203, 1.6011594999581575];goma;C:\2023\REPSWITCH21092023\REPSWITCH_excgange\REPSWITCH_excgange\data/180201_REPSWITCH1_version2_list1_2023-11-30_11h32.58.730_micRespv2l1_recorded\recording_micRespv2l1_2023-11-30_11h38.56.532.wav;368.2772247;368.7772892;None;368.2772247;368.2772247;368.2772247;368.2772247;368.2772247;368.2772247;;;;;;180201;1;2023-11-30_11h32.58.730;REPSWITCH1_version2_list1;2022.2.4;144.0077647;
REPSWITCH1/PICTURE_264.png;mano;speak;darkblue;filler;2;F;3;1;1;2;Stim3_Set2;0;None;71;70;71;0;70;70;70;;;;;;;;;;;;;;;;;;;;;;;368.7772892;369.8746599;369.8746599;369.8746599;369.8746599;369.8746599;369.8746599;369.8746599;369.8746599;None;0;;;C:\2023\REPSWITCH21092023\REPSWITCH_excgange\REPSWITCH_excgange\data/180201_REPSWITCH1_version2_list1_2023-11-30_11h32.58.730_micRespv2l1_recorded\recording_micRespv2l1_2023-11-30_11h39.01.151.wav;372.9028633;;None;372.9028633;372.9028633;372.9028633;372.9028633;372.9028633;372.9028633;;;;;;180201;1;2023-11-30_11h32.58.730;REPSWITCH1_version2_list1;2022.2.4;144.0077647;
REPSWITCH1/PICTURE_271.png;conejo;type;gold;nontarget;1;NT;3;1;1;2;Stim7_Set3;1;switch;72;71;72;0;71;71;71;;;;;;;;;;;;;;;;;;;;;;;373.4029434;374.4933049;374.4933049;374.4933049;374.4933049;374.4933049;374.4933049;374.4933049;374.4933049;['c', 'o', 'n', 'e', 'j', 'o'];0;[1.3742028998676687, 1.4329156000167131, 1.6408223998732865, 1.7573838999960572, 1.9148893000092357, 1.9896515998989344];conejo;C:\2023\REPSWITCH21092023\REPSWITCH_excgange\REPSWITCH_excgange\data/180201_REPSWITCH1_version2_list1_2023-11-30_11h32.58.730_micRespv2l1_recorded\recording_micRespv2l1_2023-11-30_11h39.05.770.wav;377.5215572;;None;377.5215572;377.5215572;377.5215572;377.5215572;377.5215572;377.5215572;;;;;;180201;1;2023-11-30_11h32.58.730;REPSWITCH1_version2_list1;2022.2.4;144.0077647;
REPSWITCH1/PICTURE_271.png;conejo;type;gold;repeat;1;T;3;1;1;2;Stim7_Set3;0;None;73;72;73;0;72;72;72;;;;;;;;;;;;;;;;;;;;;;;378.0215418;379.0634326;379.0634326;379.0634326;379.0634326;379.0634326;379.0634326;379.0634326;379.0634326;['c', 'o', 'n', 'e', 'j', 'o'];0;[1.3440827999729663, 1.4082150999456644, 1.6044568999204785, 1.738051600055769, 1.849675599951297, 1.9333933999296278];conejo;C:\2023\REPSWITCH21092023\REPSWITCH_excgange\REPSWITCH_excgange\data/180201_REPSWITCH1_version2_list1_2023-11-30_11h32.58.730_micRespv2l1_recorded\recording_micRespv2l1_2023-11-30_11h39.10.341.wav;382.0915371;;None;382.0915371;382.0915371;382.0915371;382.0915371;382.0915371;382.0915371;;;;;;180201;1;2023-11-30_11h32.58.730;REPSWITCH1_version2_list1;2022.2.4;144.0077647;
REPSWITCH1/PICTURE_446.png;cerdo;speak;darkblue;filler;2;F;3;1;1;2;Stim7_Set2;0;None;74;73;74;0;73;73;73;;;;;;;;;;;;;;;;;;;;;;;382.591598;383.7654263;383.7654263;383.7654263;383.7654263;383.7654263;383.7654263;383.7654263;383.7654263;None;0;;;C:\2023\REPSWITCH21092023\REPSWITCH_excgange\REPSWITCH_excgange\data/180201_REPSWITCH1_version2_list1_2023-11-30_11h32.58.730_micRespv2l1_recorded\recording_micRespv2l1_2023-11-30_11h39.15.042.wav;386.7935429;;None;386.7935429;386.7935429;386.7935429;386.7935429;386.7935429;386.7935429;;;;;;180201;1;2023-11-30_11h32.58.730;REPSWITCH1_version2_list1;2022.2.4;144.0077647;
REPSWITCH1/PICTURE_199.png;falda;type;gold;filler;1;F;3;1;1;2;Stim8_Set2;1;switch;75;74;75;0;74;74;74;;;;;;;;;;;;;;;;;;;;;;;387.2936059;388.3909792;388.3909792;388.3909792;388.3909792;388.3909792;388.3909792;388.3909792;388.3909792;['f', 'a', 'k', 'backspace', 'l', 'd', 'a'];0;[0.9746323998551816, 1.4251248999498785, 1.492858099984005, 1.8099341997876763, 2.0681121998932213, 2.345166399842128, 2.4199285998474807];falda;C:\2023\REPSWITCH21092023\REPSWITCH_excgange\REPSWITCH_excgange\data/180201_REPSWITCH1_version2_list1_2023-11-30_11h32.58.730_micRespv2l1_recorded\recording_micRespv2l1_2023-11-30_11h39.19.667.wav;391.4121655;391.9123384;None;391.4121655;391.4121655;391.4121655;391.4121655;391.4121655;391.4121655;;;;;;180201;1;2023-11-30_11h32.58.730;REPSWITCH1_version2_list1;2022.2.4;144.0077647;
REPSWITCH1/PICTURE_320.png;iglesia;type;gold;nontarget;1;NT;3;1;1;2;Stim8_Set3;1;repeat;76;75;76;0;75;75;75;;;;;;;;;;;;;;;;;;;;;;;391.9123384;393.0513376;393.0513376;393.0513376;393.0513376;393.0513376;393.0513376;393.0513376;393.0513376;['i', 'g', 'l', 'e', 's', 'i', 'a'];0;[1.1776981998700649, 1.4089245998766273, 1.494688999839127, 1.6700520997401327, 1.8903113997075707, 2.019900099840015, 2.1297053997404873];iglesia;C:\2023\REPSWITCH21092023\REPSWITCH_excgange\REPSWITCH_excgange\data/180201_REPSWITCH1_version2_list1_2023-11-30_11h32.58.730_micRespv2l1_recorded\recording_micRespv2l1_2023-11-30_11h39.24.328.wav;396.079486;;None;396.079486;396.079486;396.079486;396.079486;396.079486;396.079486;;;;;;180201;1;2023-11-30_11h32.58.730;REPSWITCH1_version2_list1;2022.2.4;144.0077647;
REPSWITCH1/PICTURE_320.png;iglesia;type;gold;repeat;1;T;3;1;1;2;Stim8_Set3;0;None;77;76;77;0;76;76;76;;;;;;;;;;;;;;;;;;;;;;;396.57962;397.6561275;397.6561275;397.6561275;397.6561275;397.6561275;397.6561275;397.6561275;397.6561275;['i', 'g', 'l', 'e', 's', 'i', 'a'];0;[0.8925403000321239, 1.1337180000264198, 1.23270839988254, 1.4017788998316973, 1.6190446999389678, 1.7517988998442888, 1.8475146000273526];iglesia;C:\2023\REPSWITCH21092023\REPSWITCH_excgange\REPSWITCH_excgange\data/180201_REPSWITCH1_version2_list1_2023-11-30_11h32.58.730_micRespv2l1_recorded\recording_micRespv2l1_2023-11-30_11h39.28.933.wav;400.684314;;None;400.684314;400.684314;400.684314;400.684314;400.684314;400.684314;;;;;;180201;1;2023-11-30_11h32.58.730;REPSWITCH1_version2_list1;2022.2.4;144.0077647;
REPSWITCH1/PICTURE_576.png;guante;speak;darkblue;filler;2;F;4;1;1;2;Stim1_Set3;0;None;78;77;78;0;77;77;77;;;;;;;;;;;;;;;;;;;;;;;401.1843185;402.316428;402.316428;402.316428;402.316428;402.316428;402.316428;402.316428;402.316428;None;0;;;C:\2023\REPSWITCH21092023\REPSWITCH_excgange\REPSWITCH_excgange\data/180201_REPSWITCH1_version2_list1_2023-11-30_11h32.58.730_micRespv2l1_recorded\recording_micRespv2l1_2023-11-30_11h39.33.593.wav;405.3376581;405.8377018;None;405.3376581;405.3376581;405.3376581;405.3376581;405.3376581;405.3376581;;;;;;180201;1;2023-11-30_11h32.58.730;REPSWITCH1_version2_list1;2022.2.4;144.0077647;
REPSWITCH1/PICTURE_319.png;vaca;type;gold;nontarget;1;NT;4;1;1;2;Stim1_Set4;1;switch;79;78;79;0;78;78;78;;;;;;;;;;;;;;;;;;;;;;;405.8377018;406.9073501;406.9073501;406.9073501;406.9073501;406.9073501;406.9073501;406.9073501;406.9073501;['v', 'a', 'c', 'a'];0;[1.0677481999155134, 1.1534739998169243, 1.2320281998254359, 1.3498730999417603];vaca;C:\2023\REPSWITCH21092023\REPSWITCH_excgange\REPSWITCH_excgange\data/180201_REPSWITCH1_version2_list1_2023-11-30_11h32.58.730_micRespv2l1_recorded\recording_micRespv2l1_2023-11-30_11h39.38.184.wav;409.9354602;;None;409.9354602;409.9354602;409.9354602;409.9354602;409.9354602;409.9354602;;;;;;180201;1;2023-11-30_11h32.58.730;REPSWITCH1_version2_list1;2022.2.4;144.0077647;
REPSWITCH1/PICTURE_319.png;vaca;type;gold;repeat;1;T;4;1;1;2;Stim1_Set4;0;None;80;79;80;0;79;79;79;;;;;;;;;;;;;;;;;;;;;;;410.435526;411.4981555;411.4981555;411.4981555;411.4981555;411.4981555;411.4981555;411.4981555;411.4981555;['v', 'a', 'c', 'a'];0;[0.9585955999791622, 1.0281869999598712, 1.1130456998944283, 1.2180335999000818];vaca;C:\2023\REPSWITCH21092023\REPSWITCH_excgange\REPSWITCH_excgange\data/180201_REPSWITCH1_version2_list1_2023-11-30_11h32.58.730_micRespv2l1_recorded\recording_micRespv2l1_2023-11-30_11h39.42.775.wav;414.5263753;;None;414.5263753;414.5263753;414.5263753;414.5263753;414.5263753;414.5263753;;;;;;180201;1;2023-11-30_11h32.58.730;REPSWITCH1_version2_list1;2022.2.4;144.0077647;
REPSWITCH1/PICTURE_719.png;baño;type;gold;nontarget;1;NT;4;1;1;2;Stim2_Set4;0;None;81;80;81;0;80;80;80;;;;;;;;;;;;;;;;;;;;;;;415.026466;416.1237545;416.1237545;416.1237545;416.1237545;416.1237545;416.1237545;416.1237545;416.1237545;['b', 'a', 'ñ', 'o'];0;[1.2441707998514175, 1.6175970998592675, 1.7700298998970538, 1.9566228999756277];baño;C:\2023\REPSWITCH21092023\REPSWITCH_excgange\REPSWITCH_excgange\data/180201_REPSWITCH1_version2_list1_2023-11-30_11h32.58.730_micRespv2l1_recorded\recording_micRespv2l1_2023-11-30_11h39.47.401.wav;419.1519608;419.6519935;None;419.1519608;419.1519608;419.1519608;419.1519608;419.1519608;419.1519608;;;;;;180201;1;2023-11-30_11h32.58.730;REPSWITCH1_version2_list1;2022.2.4;144.0077647;
REPSWITCH1/PICTURE_719.png;baño;speak;darkblue;switch;2;T;4;1;1;2;Stim2_Set4;0;None;82;81;82;0;81;81;81;;;;;;;;;;;;;;;;;;;;;;;419.6519935;420.7216085;420.7216085;420.7216085;420.7216085;420.7216085;420.7216085;420.7216085;420.7216085;None;0;;;C:\2023\REPSWITCH21092023\REPSWITCH_excgange\REPSWITCH_excgange\data/180201_REPSWITCH1_version2_list1_2023-11-30_11h32.58.730_micRespv2l1_recorded\recording_micRespv2l1_2023-11-30_11h39.51.998.wav;423.7497667;;None;423.7497667;423.7497667;423.7497667;423.7497667;423.7497667;423.7497667;;;;;;180201;1;2023-11-30_11h32.58.730;REPSWITCH1_version2_list1;2022.2.4;144.0077647;
REPSWITCH1/PICTURE_242.png;cartero;speak;darkblue;filler;2;F;4;1;1;2;Stim3_Set3;1;repeat;83;82;83;0;82;82;82;;;;;;;;;;;;;;;;;;;;;;;424.2498055;425.2778147;425.2778147;425.2778147;425.2778147;425.2778147;425.2778147;425.2778147;425.2778147;None;0;;;C:\2023\REPSWITCH21092023\REPSWITCH_excgange\REPSWITCH_excgange\data/180201_REPSWITCH1_version2_list1_2023-11-30_11h32.58.730_micRespv2l1_recorded\recording_micRespv2l1_2023-11-30_11h39.56.554.wav;428.3059083;;None;428.3059083;428.3059083;428.3059083;428.3059083;428.3059083;428.3059083;;;;;;180201;1;2023-11-30_11h32.58.730;REPSWITCH1_version2_list1;2022.2.4;144.0077647;
REPSWITCH1/PICTURE_610.png;miel;type;gold;filler;1;F;4;1;1;2;Stim2_Set3;0;None;84;83;84;0;83;83;83;;;;;;;;;;;;;;;;;;;;;;;428.8059687;429.9797542;429.9797542;429.9797542;429.9797542;429.9797542;429.9797542;429.9797542;429.9797542;['m', 'i', 'e', 'l'];0;[1.1609465000219643, 1.3722435999661684, 1.535904600052163, 1.6236215999815613];miel;C:\2023\REPSWITCH21092023\REPSWITCH_excgange\REPSWITCH_excgange\data/180201_REPSWITCH1_version2_list1_2023-11-30_11h32.58.730_micRespv2l1_recorded\recording_micRespv2l1_2023-11-30_11h40.01.256.wav;433.0009678;433.5010453;None;433.0009678;433.0009678;433.0009678;433.0009678;433.0009678;433.0009678;;;;;;180201;1;2023-11-30_11h32.58.730;REPSWITCH1_version2_list1;2022.2.4;144.0077647;
REPSWITCH1/PICTURE_8.png;pierna;speak;darkblue;nontarget;2;NT;4;1;1;2;Stim3_Set4;1;switch;85;84;85;0;84;84;84;;;;;;;;;;;;;;;;;;;;;;;433.5010453;434.5706558;434.5706558;434.5706558;434.5706558;434.5706558;434.5706558;434.5706558;434.5706558;None;0;;;C:\2023\REPSWITCH21092023\REPSWITCH_excgange\REPSWITCH_excgange\data/180201_REPSWITCH1_version2_list1_2023-11-30_11h32.58.730_micRespv2l1_recorded\recording_micRespv2l1_2023-11-30_11h40.05.847.wav;437.598796;;None;437.598796;437.598796;437.598796;437.598796;437.598796;437.598796;;;;;;180201;1;2023-11-30_11h32.58.730;REPSWITCH1_version2_list1;2022.2.4;144.0077647;
REPSWITCH1/PICTURE_8.png;pierna;speak;darkblue;repeat;2;T;4;1;1;2;Stim3_Set4;0;None;86;85;86;0;85;85;85;;;;;;;;;;;;;;;;;;;;;;;438.0988583;439.2032301;439.2032301;439.2032301;439.2032301;439.2032301;439.2032301;439.2032301;439.2032301;None;0;;;C:\2023\REPSWITCH21092023\REPSWITCH_excgange\REPSWITCH_excgange\data/180201_REPSWITCH1_version2_list1_2023-11-30_11h32.58.730_micRespv2l1_recorded\recording_micRespv2l1_2023-11-30_11h40.10.479.wav;442.2244305;442.7244958;None;442.2244305;442.2244305;442.2244305;442.2244305;442.2244305;442.2244305;;;;;;180201;1;2023-11-30_11h32.58.730;REPSWITCH1_version2_list1;2022.2.4;144.0077647;
REPSWITCH1/PICTURE_498.png;taza;speak;darkblue;nontarget;2;NT;4;1;1;2;Stim4_Set4;1;repeat;87;86;87;0;86;86;86;;;;;;;;;;;;;;;;;;;;;;;442.7244958;443.8912961;443.8912961;443.8912961;443.8912961;443.8912961;443.8912961;443.8912961;443.8912961;None;0;;;C:\2023\REPSWITCH21092023\REPSWITCH_excgange\REPSWITCH_excgange\data/180201_REPSWITCH1_version2_list1_2023-11-30_11h32.58.730_micRespv2l1_recorded\recording_micRespv2l1_2023-11-30_11h40.15.167.wav;446.9125429;447.4126709;None;446.9125429;446.9125429;446.9125429;446.9125429;446.9125429;446.9125429;;;;;;180201;1;2023-11-30_11h32.58.730;REPSWITCH1_version2_list1;2022.2.4;144.0077647;
REPSWITCH1/PICTURE_498.png;taza;type;gold;switch;1;T;4;1;1;2;Stim4_Set4;0;None;88;87;88;0;87;87;87;;;;;;;;;;;;;;;;;;;;;;;447.4126709;448.4266399;448.4266399;448.4266399;448.4266399;448.4266399;448.4266399;448.4266399;448.4266399;['t', 'a', 'z', 'a'];0;[0.9150354997254908, 1.1315571998711675, 1.3202040998730808, 1.4977646998595446];taza;C:\2023\REPSWITCH21092023\REPSWITCH_excgange\REPSWITCH_excgange\data/180201_REPSWITCH1_version2_list1_2023-11-30_11h32.58.730_micRespv2l1_recorded\recording_micRespv2l1_2023-11-30_11h40.19.703.wav;451.4478339;451.9478962;None;451.4478339;451.4478339;451.4478339;451.4478339;451.4478339;451.4478339;;;;;;180201;1;2023-11-30_11h32.58.730;REPSWITCH1_version2_list1;2022.2.4;144.0077647;
REPSWITCH1/PICTURE_235.png;aguja;speak;darkblue;filler;2;F;4;1;1;2;Stim4_Set3;0;None;89;88;89;0;88;88;88;;;;;;;;;;;;;;;;;;;;;;;451.9478962;453.0313846;453.0313846;453.0313846;453.0313846;453.0313846;453.0313846;453.0313846;453.0313846;None;0;;;C:\2023\REPSWITCH21092023\REPSWITCH_excgange\REPSWITCH_excgange\data/180201_REPSWITCH1_version2_list1_2023-11-30_11h32.58.730_micRespv2l1_recorded\recording_micRespv2l1_2023-11-30_11h40.24.308.wav;456.0526152;456.5527654;None;456.0526152;456.0526152;456.0526152;456.0526152;456.0526152;456.0526152;;;;;;180201;1;2023-11-30_11h32.58.730;REPSWITCH1_version2_list1;2022.2.4;144.0077647;
REPSWITCH1/PICTURE_35.png;oreja;type;gold;filler;1;F;4;1;1;2;Stim5_Set3;0;None;90;89;90;0;89;89;89;;;;;;;;;;;;;;;;;;;;;;;456.5527654;457.6153212;457.6153212;457.6153212;457.6153212;457.6153212;457.6153212;457.6153212;457.6153212;['o', 'r', 'e', 'j', 'a'];0;[1.072113499743864, 1.3699391998816282, 1.4785697998013347, 1.824691099813208, 1.8926186996977776];oreja;C:\2023\REPSWITCH21092023\REPSWITCH_excgange\REPSWITCH_excgange\data/180201_REPSWITCH1_version2_list1_2023-11-30_11h32.58.730_micRespv2l1_recorded\recording_micRespv2l1_2023-11-30_11h40.28.892.wav;460.6435237;;None;460.6435237;460.6435237;460.6435237;460.6435237;460.6435237;460.6435237;;;;;;180201;1;2023-11-30_11h32.58.730;REPSWITCH1_version2_list1;2022.2.4;144.0077647;
REPSWITCH1/PICTURE_687.png;camisa;type;gold;nontarget;1;NT;4;1;1;2;Stim5_Set4;1;repeat;91;90;91;0;90;90;90;;;;;;;;;;;;;;;;;;;;;;;461.143571;462.2131554;462.2131554;462.2131554;462.2131554;462.2131554;462.2131554;462.2131554;462.2131554;['c', 'a', 'm', 'i', 's', 'a'];0;[0.9043262000195682, 0.9859905999619514, 1.3235523998737335, 1.5283862999640405, 1.6490203000139445, 1.8312718998640776];camisa;C:\2023\REPSWITCH21092023\REPSWITCH_excgange\REPSWITCH_excgange\data/180201_REPSWITCH1_version2_list1_2023-11-30_11h32.58.730_micRespv2l1_recorded\recording_micRespv2l1_2023-11-30_11h40.33.490.wav;465.2413349;;None;465.2413349;465.2413349;465.2413349;465.2413349;465.2413349;465.2413349;;;;;;180201;1;2023-11-30_11h32.58.730;REPSWITCH1_version2_list1;2022.2.4;144.0077647;
REPSWITCH1/PICTURE_687.png;camisa;speak;darkblue;switch;2;T;4;1;1;2;Stim5_Set4;0;None;92;91;92;0;91;91;91;;;;;;;;;;;;;;;;;;;;;;;465.7413957;466.8873575;466.8873575;466.8873575;466.8873575;466.8873575;466.8873575;466.8873575;466.8873575;None;0;;;C:\2023\REPSWITCH21092023\REPSWITCH_excgange\REPSWITCH_excgange\data/180201_REPSWITCH1_version2_list1_2023-11-30_11h32.58.730_micRespv2l1_recorded\recording_micRespv2l1_2023-11-30_11h40.38.164.wav;469.9086612;470.4087492;None;469.9086612;469.9086612;469.9086612;469.9086612;469.9086612;469.9086612;;;;;;180201;1;2023-11-30_11h32.58.730;REPSWITCH1_version2_list1;2022.2.4;144.0077647;
REPSWITCH1/PICTURE_338.png;regalo;speak;darkblue;nontarget;2;NT;4;1;1;2;Stim6_Set4;0;None;93;92;93;0;92;92;92;;;;;;;;;;;;;;;;;;;;;;;470.4087492;471.519916;471.519916;471.519916;471.519916;471.519916;471.519916;471.519916;471.519916;None;0;;;C:\2023\REPSWITCH21092023\REPSWITCH_excgange\REPSWITCH_excgange\data/180201_REPSWITCH1_version2_list1_2023-11-30_11h32.58.730_micRespv2l1_recorded\recording_micRespv2l1_2023-11-30_11h40.42.796.wav;474.5411687;475.0412894;None;474.5411687;474.5411687;474.5411687;474.5411687;474.5411687;474.5411687;;;;;;180201;1;2023-11-30_11h32.58.730;REPSWITCH1_version2_list1;2022.2.4;144.0077647;
REPSWITCH1/PICTURE_338.png;regalo;speak;darkblue;repeat;2;T;4;1;1;2;Stim6_Set4;0;None;94;93;94;0;93;93;93;;;;;;;;;;;;;;;;;;;;;;;475.0412894;476.124703;476.124703;476.124703;476.124703;476.124703;476.124703;476.124703;476.124703;None;0;;;C:\2023\REPSWITCH21092023\REPSWITCH_excgange\REPSWITCH_excgange\data/180201_REPSWITCH1_version2_list1_2023-11-30_11h32.58.730_micRespv2l1_recorded\recording_micRespv2l1_2023-11-30_11h40.47.401.wav;479.1459457;479.6459727;None;479.1459457;479.1459457;479.1459457;479.1459457;479.1459457;479.1459457;;;;;;180201;1;2023-11-30_11h32.58.730;REPSWITCH1_version2_list1;2022.2.4;144.0077647;
REPSWITCH1/PICTURE_663.png;columna;type;gold;filler;1;F;4;1;1;2;Extra6;0;None;95;94;95;0;94;94;94;;;;;;;;;;;;;;;;;;;;;;;479.6459727;480.7364049;480.7364049;480.7364049;480.7364049;480.7364049;480.7364049;480.7364049;480.7364049;['c', 'o', 'l', 'u', 'm', 'n', 'a'];0;[1.3403235997539014, 1.444135399768129, 1.5979858997743577, 1.8161898998077959, 1.9950360998045653, 2.1614342997781932, 2.245057099731639];columna;C:\2023\REPSWITCH21092023\REPSWITCH_excgange\REPSWITCH_excgange\data/180201_REPSWITCH1_version2_list1_2023-11-30_11h32.58.730_micRespv2l1_recorded\recording_micRespv2l1_2023-11-30_11h40.52.012.wav;483.7576303;484.257712;None;483.7576303;483.7576303;483.7576303;483.7576303;483.7576303;483.7576303;;;;;;180201;1;2023-11-30_11h32.58.730;REPSWITCH1_version2_list1;2022.2.4;144.0077647;
REPSWITCH1/PICTURE_271.png;conejo;speak;darkblue;filler;2;F;4;1;1;2;Stim7_Set3;0;None;96;95;96;0;95;95;95;;;;;;;;;;;;;;;;;;;;;;;484.257712;485.4106639;485.4106639;485.4106639;485.4106639;485.4106639;485.4106639;485.4106639;485.4106639;None;0;;;C:\2023\REPSWITCH21092023\REPSWITCH_excgange\REPSWITCH_excgange\data/180201_REPSWITCH1_version2_list1_2023-11-30_11h32.58.730_micRespv2l1_recorded\recording_micRespv2l1_2023-11-30_11h40.56.688.wav;488.4387972;;None;488.4387972;488.4387972;488.4387972;488.4387972;488.4387972;488.4387972;;;;;;180201;1;2023-11-30_11h32.58.730;REPSWITCH1_version2_list1;2022.2.4;144.0077647;
REPSWITCH1/PICTURE_48.png;bombero;speak;darkblue;nontarget;2;NT;4;1;1;2;Stim7_Set4;0;None;97;96;97;0;96;96;96;;;;;;;;;;;;;;;;;;;;;;;488.9388484;489.9737615;489.9737615;489.9737615;489.9737615;489.9737615;489.9737615;489.9737615;489.9737615;None;0;;;C:\2023\REPSWITCH21092023\REPSWITCH_excgange\REPSWITCH_excgange\data/180201_REPSWITCH1_version2_list1_2023-11-30_11h32.58.730_micRespv2l1_recorded\recording_micRespv2l1_2023-11-30_11h41.01.250.wav;492.994951;493.4950346;None;492.994951;492.994951;492.994951;492.994951;492.994951;492.994951;;;;;;180201;1;2023-11-30_11h32.58.730;REPSWITCH1_version2_list1;2022.2.4;144.0077647;
REPSWITCH1/PICTURE_48.png;bombero;type;gold;switch;1;T;4;1;1;2;Stim7_Set4;0;None;98;97;98;0;97;97;97;;;;;;;;;;;;;;;;;;;;;;;493.4950346;494.599353;494.599353;494.599353;494.599353;494.599353;494.599353;494.599353;494.599353;['b', 'o', 'b', 'e', 'r', 'o'];0;[1.1832437999546528, 1.2593572000041604, 2.5266616998706013, 2.6004144998732954, 2.7716890999581665, 2.8334087999537587];bobero;C:\2023\REPSWITCH21092023\REPSWITCH_excgange\REPSWITCH_excgange\data/180201_REPSWITCH1_version2_list1_2023-11-30_11h32.58.730_micRespv2l1_recorded\recording_micRespv2l1_2023-11-30_11h41.05.875.wav;497.6205855;498.1206431;None;497.6205855;497.6205855;497.6205855;497.6205855;497.6205855;497.6205855;;;;;;180201;1;2023-11-30_11h32.58.730;REPSWITCH1_version2_list1;2022.2.4;144.0077647;
REPSWITCH1/PICTURE_728.png;pulpo;type;gold;nontarget;1;NT;4;1;1;2;Stim8_Set4;0;None;99;98;99;0;98;98;98;;;;;;;;;;;;;;;;;;;;;;;498.1206431;499.2319828;499.2319828;499.2319828;499.2319828;499.2319828;499.2319828;499.2319828;499.2319828;['p', 'l'];0;[2.077195799909532, 2.7733857999555767];pl;C:\2023\REPSWITCH21092023\REPSWITCH_excgange\REPSWITCH_excgange\data/180201_REPSWITCH1_version2_list1_2023-11-30_11h32.58.730_micRespv2l1_recorded\recording_micRespv2l1_2023-11-30_11h41.10.508.wav;502.2601442;;None;502.2601442;502.2601442;502.2601442;502.2601442;502.2601442;502.2601442;;;;;;180201;1;2023-11-30_11h32.58.730;REPSWITCH1_version2_list1;2022.2.4;144.0077647;
REPSWITCH1/PICTURE_728.png;pulpo;type;gold;repeat;1;T;4;1;1;2;Stim8_Set4;0;None;100;99;100;0;99;99;99;;;;;;;;;;;;;;;;;;;;;;;502.7601435;503.8436386;503.8436386;503.8436386;503.8436386;503.8436386;503.8436386;503.8436386;503.8436386;['p', 'u', 'l', 'p', 'o'];0;[1.0017927999142557, 1.3665647997986525, 1.8011694997549057, 1.9711555999238044, 2.0569010998588055];pulpo;C:\2023\REPSWITCH21092023\REPSWITCH_excgange\REPSWITCH_excgange\data/180201_REPSWITCH1_version2_list1_2023-11-30_11h32.58.730_micRespv2l1_recorded\recording_micRespv2l1_2023-11-30_11h41.15.120.wav;506.864828;507.3648917;None;506.864828;506.864828;506.864828;506.864828;506.864828;506.864828;;;;;;180201;1;2023-11-30_11h32.58.730;REPSWITCH1_version2_list1;2022.2.4;144.0077647;
REPSWITCH1/PICTURE_320.png;iglesia;speak;darkblue;filler;1;F;4;1;1;2;Stim8_Set3;0;None;101;100;101;0;100;100;100;;;;;;;;;;;;;;;;;;;;;;;507.3648917;508.4553689;508.4553689;508.4553689;508.4553689;508.4553689;508.4553689;508.4553689;508.4553689;None;0;;;C:\2023\REPSWITCH21092023\REPSWITCH_excgange\REPSWITCH_excgange\data/180201_REPSWITCH1_version2_list1_2023-11-30_11h32.58.730_micRespv2l1_recorded\recording_micRespv2l1_2023-11-30_11h41.19.732.wav;511.4766395;511.9766155;None;511.4766395;511.4766395;511.4766395;511.4766395;511.4766395;511.4766395;;;;;;180201;1;2023-11-30_11h32.58.730;REPSWITCH1_version2_list1;2022.2.4;144.0077647;
REPSWITCH1/PICTURE_464.png;goma;type;gold;filler;1;F;4;1;1;2;Stim6_Set3;0;None;102;101;102;0;101;101;101;;;;;;;;;;;;;;;;;;;;;;;511.9766155;513.1017562;513.1017562;513.1017562;513.1017562;513.1017562;513.1017562;513.1017562;513.1017562;['g', 'o', 'm', 'a'];0;[1.2454677999485284, 1.3511091999243945, 1.7356219999492168, 1.8043459998443723];goma;C:\2023\REPSWITCH21092023\REPSWITCH_excgange\REPSWITCH_excgange\data/180201_REPSWITCH1_version2_list1_2023-11-30_11h32.58.730_micRespv2l1_recorded\recording_micRespv2l1_2023-11-30_11h41.24.378.wav;516.1229894;516.6230663;space;516.1229894;516.1229894;516.1229894;516.1229894;516.1229894;516.1229894;516.6230663;516.6230663;32.0506649;;;180201;1;2023-11-30_11h32.58.730;REPSWITCH1_version2_list1;2022.2.4;144.0077647;
REPSWITCH1/PICTURE_663.png;columna;type;gold;filler;1;F;1;2;1;2;Extra6;0;None;103;102;1;0;102;102;102;;;;;;;;;;;;;;;;;;;;;;;548.6827959;549.7733195;549.7733195;549.7733195;549.7733195;549.7733195;549.7733195;549.7733195;549.7733195;['c', 'o', 'l', 'u', 'm', 'n', 'a'];0;[1.191213299985975, 1.4987506999168545, 1.668189800111577, 1.8912748999428004, 2.0990605000406504, 2.271453799912706, 2.3699199999682605];columna;C:\2023\REPSWITCH21092023\REPSWITCH_excgange\REPSWITCH_excgange\data/180201_REPSWITCH1_version2_list1_2023-11-30_11h32.58.730_micRespv2l1_recorded\recording_micRespv2l1_2023-11-30_11h42.01.050.wav;552.79452;553.2945486;None;552.79452;552.79452;552.79452;552.79452;552.79452;552.79452;;;;;;180201;1;2023-11-30_11h32.58.730;REPSWITCH1_version2_list1;2022.2.4;144.0077647;
REPSWITCH1/PICTURE_128.png;muñeca;speak;darkblue;nontarget;2;NT;1;2;1;2;Stim4_Set1;1;switch;104;103;2;0;103;103;103;;;;;;;;;;;;;;;;;;;;;;;553.2945486;554.4752415;554.4752415;554.4752415;554.4752415;554.4752415;554.4752415;554.4752415;554.4752415;None;0;;;C:\2023\REPSWITCH21092023\REPSWITCH_excgange\REPSWITCH_excgange\data/180201_REPSWITCH1_version2_list1_2023-11-30_11h32.58.730_micRespv2l1_recorded\recording_micRespv2l1_2023-11-30_11h42.05.752.wav;557.4964776;557.9965543;None;557.4964776;557.4964776;557.4964776;557.4964776;557.4964776;557.4964776;;;;;;180201;1;2023-11-30_11h32.58.730;REPSWITCH1_version2_list1;2022.2.4;144.0077647;
REPSWITCH1/PICTURE_128.png;muñeca;speak;darkblue;repeat;2;T;1;2;1;2;Stim4_Set1;0;None;105;104;3;0;104;104;104;;;;;;;;;;;;;;;;;;;;;;;557.9965543;559.0800087;559.0800087;559.0800087;559.0800087;559.0800087;559.0800087;559.0800087;559.0800087;None;0;;;C:\2023\REPSWITCH21092023\REPSWITCH_excgange\REPSWITCH_excgange\data/180201_REPSWITCH1_version2_list1_2023-11-30_11h32.58.730_micRespv2l1_recorded\recording_micRespv2l1_2023-11-30_11h42.10.356.wav;562.1012377;562.6013285;None;562.1012377;562.1012377;562.1012377;562.1012377;562.1012377;562.1012377;;;;;;180201;1;2023-11-30_11h32.58.730;REPSWITCH1_version2_list1;2022.2.4;144.0077647;
REPSWITCH1/PICTURE_8.png;pierna;type;gold;filler;1;F;1;2;1;2;Stim3_Set4;0;None;106;105;4;0;105;105;105;;;;;;;;;;;;;;;;;;;;;;;562.6013285;563.6847963;563.6847963;563.6847963;563.6847963;563.6847963;563.6847963;563.6847963;563.6847963;['p', 'i', 'e', 'r', 'n', 'a'];0;[1.0274247999768704, 1.27359710005112, 1.498931499896571, 1.6910238000564277, 1.7755760001018643, 1.919082700042054];pierna;C:\2023\REPSWITCH21092023\REPSWITCH_excgange\REPSWITCH_excgange\data/180201_REPSWITCH1_version2_list1_2023-11-30_11h32.58.730_micRespv2l1_recorded\recording_micRespv2l1_2023-11-30_11h42.14.960.wav;566.7060666;567.2060779;None;566.7060666;566.7060666;566.7060666;566.7060666;566.7060666;566.7060666;;;;;;180201;1;2023-11-30_11h32.58.730;REPSWITCH1_version2_list1;2022.2.4;144.0077647;
REPSWITCH1/PICTURE_135.png;traje;speak;darkblue;nontarget;2;NT;1;2;1;2;Stim3_Set1;1;switch;107;106;5;0;106;106;106;;;;;;;;;;;;;;;;;;;;;;;567.2060779;568.3520652;568.3520652;568.3520652;568.3520652;568.3520652;568.3520652;568.3520652;568.3520652;None;0;;;C:\2023\REPSWITCH21092023\REPSWITCH_excgange\REPSWITCH_excgange\data/180201_REPSWITCH1_version2_list1_2023-11-30_11h32.58.730_micRespv2l1_recorded\recording_micRespv2l1_2023-11-30_11h42.19.628.wav;571.3802433;;None;571.3802433;571.3802433;571.3802433;571.3802433;571.3802433;571.3802433;;;;;;180201;1;2023-11-30_11h32.58.730;REPSWITCH1_version2_list1;2022.2.4;144.0077647;
REPSWITCH1/PICTURE_135.png;traje;speak;darkblue;repeat;2;T;1;2;1;2;Stim3_Set1;0;None;108;107;6;0;107;107;107;;;;;;;;;;;;;;;;;;;;;;;571.8803326;572.991605;572.991605;572.991605;572.991605;572.991605;572.991605;572.991605;572.991605;None;0;;;C:\2023\REPSWITCH21092023\REPSWITCH_excgange\REPSWITCH_excgange\data/180201_REPSWITCH1_version2_list1_2023-11-30_11h32.58.730_micRespv2l1_recorded\recording_micRespv2l1_2023-11-30_11h42.24.268.wav;576.0127895;576.5129102;None;576.0127895;576.0127895;576.0127895;576.0127895;576.0127895;576.0127895;;;;;;180201;1;2023-11-30_11h32.58.730;REPSWITCH1_version2_list1;2022.2.4;144.0077647;
REPSWITCH1/PICTURE_673.png;tenedor;type;gold;filler;1;F;1;2;1;2;Extra5;0;None;109;108;7;0;108;108;108;;;;;;;;;;;;;;;;;;;;;;;576.5129102;577.6728052;577.6728052;577.6728052;577.6728052;577.6728052;577.6728052;577.6728052;577.6728052;['t', 'e', 'n', 'e', 'd', 'o', 'r'];0;[0.9191512998659164, 1.0447141998447478, 1.2460440997965634, 1.3197587998583913, 1.5264454998541623, 1.716808999888599, 1.862330799922347];tenedor;C:\2023\REPSWITCH21092023\REPSWITCH_excgange\REPSWITCH_excgange\data/180201_REPSWITCH1_version2_list1_2023-11-30_11h32.58.730_micRespv2l1_recorded\recording_micRespv2l1_2023-11-30_11h42.28.949.wav;580.693975;581.1941192;None;580.693975;580.693975;580.693975;580.693975;580.693975;580.693975;;;;;;180201;1;2023-11-30_11h32.58.730;REPSWITCH1_version2_list1;2022.2.4;144.0077647;
REPSWITCH1/PICTURE_728.png;pulpo;speak;darkblue;filler;2;F;1;2;1;2;Stim8_Set4;0;None;110;109;8;0;109;109;109;;;;;;;;;;;;;;;;;;;;;;;581.1941192;582.2358625;582.2358625;582.2358625;582.2358625;582.2358625;582.2358625;582.2358625;582.2358625;None;0;;;C:\2023\REPSWITCH21092023\REPSWITCH_excgange\REPSWITCH_excgange\data/180201_REPSWITCH1_version2_list1_2023-11-30_11h32.58.730_micRespv2l1_recorded\recording_micRespv2l1_2023-11-30_11h42.33.513.wav;585.2570418;585.7572143;None;585.2570418;585.2570418;585.2570418;585.2570418;585.2570418;585.2570418;;;;;;180201;1;2023-11-30_11h32.58.730;REPSWITCH1_version2_list1;2022.2.4;144.0077647;
REPSWITCH1/PICTURE_16.png;cazador;speak;darkblue;nontarget;2;NT;1;2;1;2;Stim6_Set1;1;repeat;111;110;9;0;110;110;110;;;;;;;;;;;;;;;;;;;;;;;585.7572143;586.9170194;586.9170194;586.9170194;586.9170194;586.9170194;586.9170194;586.9170194;586.9170194;None;0;;;C:\2023\REPSWITCH21092023\REPSWITCH_excgange\REPSWITCH_excgange\data/180201_REPSWITCH1_version2_list1_2023-11-30_11h32.58.730_micRespv2l1_recorded\recording_micRespv2l1_2023-11-30_11h42.38.193.wav;589.9382271;590.4383871;None;589.9382271;589.9382271;589.9382271;589.9382271;589.9382271;589.9382271;;;;;;180201;1;2023-11-30_11h32.58.730;REPSWITCH1_version2_list1;2022.2.4;144.0077647;
REPSWITCH1/PICTURE_16.png;cazador;type;gold;switch;1;T;1;2;1;2;Stim6_Set1;0;None;112;111;10;0;111;111;111;;;;;;;;;;;;;;;;;;;;;;;590.4383871;591.5565049;591.5565049;591.5565049;591.5565049;591.5565049;591.5565049;591.5565049;591.5565049;['c', 'a', 'z', 'a', 'd', 'o', 'r'];0;[1.077529100002721, 1.162264799932018, 1.34273979999125, 1.5325078999157995, 1.7570863999426365, 1.8697456999216229, 2.048075099941343];cazador;C:\2023\REPSWITCH21092023\REPSWITCH_excgange\REPSWITCH_excgange\data/180201_REPSWITCH1_version2_list1_2023-11-30_11h32.58.730_micRespv2l1_recorded\recording_micRespv2l1_2023-11-30_11h42.42.833.wav;594.5846939;;None;594.5846939;594.5846939;594.5846939;594.5846939;594.5846939;594.5846939;;;;;;180201;1;2023-11-30_11h32.58.730;REPSWITCH1_version2_list1;2022.2.4;144.0077647;
REPSWITCH1/PICTURE_498.png;taza;type;gold;filler;1;F;1;2;1;2;Stim4_Set4;1;repeat;113;112;11;0;112;112;112;;;;;;;;;;;;;;;;;;;;;;;595.0848055;596.1544033;596.1544033;596.1544033;596.1544033;596.1544033;596.1544033;596.1544033;596.1544033;['t', 'a', 'z', 'a'];0;[1.026458199834451, 1.1161741998512298, 1.297693399945274, 1.488052599830553];taza;C:\2023\REPSWITCH21092023\REPSWITCH_excgange\REPSWITCH_excgange\data/180201_REPSWITCH1_version2_list1_2023-11-30_11h32.58.730_micRespv2l1_recorded\recording_micRespv2l1_2023-11-30_11h42.47.431.wav;599.1756179;599.6757093;None;599.1756179;599.1756179;599.1756179;599.1756179;599.1756179;599.1756179;;;;;;180201;1;2023-11-30_11h32.58.730;REPSWITCH1_version2_list1;2022.2.4;144.0077647;
REPSWITCH1/PICTURE_381.png;fresa;type;gold;nontarget;1;NT;1;2;1;2;Stim2_Set1;1;repeat;114;113;12;0;113;113;113;;;;;;;;;;;;;;;;;;;;;;;599.6757093;600.856364;600.856364;600.856364;600.856364;600.856364;600.856364;600.856364;600.856364;['f', 'r', 'e', 's', 'a'];0;[1.0012926997151226, 1.1819736997131258, 1.2935985997319221, 1.4836758996825665, 1.6710467997472733];fresa;C:\2023\REPSWITCH21092023\REPSWITCH_excgange\REPSWITCH_excgange\data/180201_REPSWITCH1_version2_list1_2023-11-30_11h32.58.730_micRespv2l1_recorded\recording_micRespv2l1_2023-11-30_11h42.52.133.wav;603.8845268;;None;603.8845268;603.8845268;603.8845268;603.8845268;603.8845268;603.8845268;;;;;;180201;1;2023-11-30_11h32.58.730;REPSWITCH1_version2_list1;2022.2.4;144.0077647;
REPSWITCH1/PICTURE_381.png;fresa;speak;darkblue;switch;2;T;1;2;1;2;Stim2_Set1;0;None;115;114;13;0;114;114;114;;;;;;;;;;;;;;;;;;;;;;;604.3846636;605.4333668;605.4333668;605.4333668;605.4333668;605.4333668;605.4333668;605.4333668;605.4333668;None;0;;;C:\2023\REPSWITCH21092023\REPSWITCH_excgange\REPSWITCH_excgange\data/180201_REPSWITCH1_version2_list1_2023-11-30_11h32.58.730_micRespv2l1_recorded\recording_micRespv2l1_2023-11-30_11h42.56.710.wav;608.4545721;608.9546366;None;608.4545721;608.4545721;608.4545721;608.4545721;608.4545721;608.4545721;;;;;;180201;1;2023-11-30_11h32.58.730;REPSWITCH1_version2_list1;2022.2.4;144.0077647;
REPSWITCH1/PICTURE_178.png;puente;speak;darkblue;nontarget;2;NT;1;2;1;2;Stim1_Set1;0;None;116;115;14;0;115;115;115;;;;;;;;;;;;;;;;;;;;;;;608.9546366;610.1075509;610.1075509;610.1075509;610.1075509;610.1075509;610.1075509;610.1075509;610.1075509;None;0;;;C:\2023\REPSWITCH21092023\REPSWITCH_excgange\REPSWITCH_excgange\data/180201_REPSWITCH1_version2_list1_2023-11-30_11h32.58.730_micRespv2l1_recorded\recording_micRespv2l1_2023-11-30_11h43.01.384.wav;613.1287679;613.6289028;None;613.1287679;613.1287679;613.1287679;613.1287679;613.1287679;613.1287679;;;;;;180201;1;2023-11-30_11h32.58.730;REPSWITCH1_version2_list1;2022.2.4;144.0077647;
REPSWITCH1/PICTURE_178.png;puente;type;gold;switch;1;T;1;2;1;2;Stim1_Set1;0;None;117;116;15;0;116;116;116;;;;;;;;;;;;;;;;;;;;;;;613.6289028;614.7123432;614.7123432;614.7123432;614.7123432;614.7123432;614.7123432;614.7123432;614.7123432;['p', 'u', 'e', 'n', 't', 'e'];0;[1.2170604998245835, 1.5769825999159366, 1.7840737998485565, 1.8538251998834312, 2.075345699908212, 2.121222499990836];puente;C:\2023\REPSWITCH21092023\REPSWITCH_excgange\REPSWITCH_excgange\data/180201_REPSWITCH1_version2_list1_2023-11-30_11h32.58.730_micRespv2l1_recorded\recording_micRespv2l1_2023-11-30_11h43.05.988.wav;617.7336062;618.2336206;None;617.7336062;617.7336062;617.7336062;617.7336062;617.7336062;617.7336062;;;;;;180201;1;2023-11-30_11h32.58.730;REPSWITCH1_version2_list1;2022.2.4;144.0077647;
REPSWITCH1/PICTURE_719.png;baño;speak;darkblue;filler;2;F;1;2;1;2;Stim2_Set4;0;None;118;117;16;0;117;117;117;;;;;;;;;;;;;;;;;;;;;;;618.2336206;619.3587545;619.3587545;619.3587545;619.3587545;619.3587545;619.3587545;619.3587545;619.3587545;None;0;;;C:\2023\REPSWITCH21092023\REPSWITCH_excgange\REPSWITCH_excgange\data/180201_REPSWITCH1_version2_list1_2023-11-30_11h32.58.730_micRespv2l1_recorded\recording_micRespv2l1_2023-11-30_11h43.10.636.wav;622.3800539;622.8800554;None;622.3800539;622.3800539;622.3800539;622.3800539;622.3800539;622.3800539;;;;;;180201;1;2023-11-30_11h32.58.730;REPSWITCH1_version2_list1;2022.2.4;144.0077647;
REPSWITCH1/PICTURE_169.png;espalda;type;gold;nontarget;1;NT;1;2;1;2;Stim8_Set1;1;switch;119;118;17;0;118;118;118;;;;;;;;;;;;;;;;;;;;;;;622.8800554;623.991343;623.991343;623.991343;623.991343;623.991343;623.991343;623.991343;623.991343;['e', 's', 'p', 'a', 'l', 'd', 'a'];0;[1.0058120999019593, 1.19809679989703, 1.3904915999155492, 1.5184641999658197, 1.583161599934101, 1.9062420998234302, 1.969039199873805];espalda;C:\2023\REPSWITCH21092023\REPSWITCH_excgange\REPSWITCH_excgange\data/180201_REPSWITCH1_version2_list1_2023-11-30_11h32.58.730_micRespv2l1_recorded\recording_micRespv2l1_2023-11-30_11h43.15.267.wav;627.0194977;;None;627.0194977;627.0194977;627.0194977;627.0194977;627.0194977;627.0194977;;;;;;180201;1;2023-11-30_11h32.58.730;REPSWITCH1_version2_list1;2022.2.4;144.0077647;
REPSWITCH1/PICTURE_169.png;espalda;type;gold;repeat;1;T;1;2;1;2;Stim8_Set1;0;None;120;119;18;0;119;119;119;;;;;;;;;;;;;;;;;;;;;;;627.5195658;628.637786;628.637786;628.637786;628.637786;628.637786;628.637786;628.637786;628.637786;['e', 's', 'p', 'a', 'l', 'd', 'a'];0;[0.6602895997930318, 0.847356699872762, 0.9808448997791857, 1.1414449999574572, 1.2072175999637693, 1.5653530999552459, 1.6221788998227566];espalda;C:\2023\REPSWITCH21092023\REPSWITCH_excgange\REPSWITCH_excgange\data/180201_REPSWITCH1_version2_list1_2023-11-30_11h32.58.730_micRespv2l1_recorded\recording_micRespv2l1_2023-11-30_11h43.19.914.wav;631.658965;632.1590672;None;631.658965;631.658965;631.658965;631.658965;631.658965;631.658965;;;;;;180201;1;2023-11-30_11h32.58.730;REPSWITCH1_version2_list1;2022.2.4;144.0077647;
REPSWITCH1/PICTURE_48.png;bombero;speak;darkblue;filler;2;F;1;2;1;2;Stim7_Set4;1;switch;121;120;19;0;120;120;120;;;;;;;;;;;;;;;;;;;;;;;632.1590672;633.2078019;633.2078019;633.2078019;633.2078019;633.2078019;633.2078019;633.2078019;633.2078019;None;0;;;C:\2023\REPSWITCH21092023\REPSWITCH_excgange\REPSWITCH_excgange\data/180201_REPSWITCH1_version2_list1_2023-11-30_11h32.58.730_micRespv2l1_recorded\recording_micRespv2l1_2023-11-30_11h43.24.484.wav;636.2290367;636.7291057;None;636.2290367;636.2290367;636.2290367;636.2290367;636.2290367;636.2290367;;;;;;180201;1;2023-11-30_11h32.58.730;REPSWITCH1_version2_list1;2022.2.4;144.0077647;
REPSWITCH1/PICTURE_19.png;pavo;type;gold;nontarget;1;NT;1;2;1;2;Stim5_Set1;1;switch;122;121;20;0;121;121;121;;;;;;;;;;;;;;;;;;;;;;;636.7291057;637.8334411;637.8334411;637.8334411;637.8334411;637.8334411;637.8334411;637.8334411;637.8334411;['p', 'a', 'v', 'o'];0;[1.2679322997573763, 1.3190716998651624, 1.6526559998746961, 1.769268199801445];pavo;C:\2023\REPSWITCH21092023\REPSWITCH_excgange\REPSWITCH_excgange\data/180201_REPSWITCH1_version2_list1_2023-11-30_11h32.58.730_micRespv2l1_recorded\recording_micRespv2l1_2023-11-30_11h43.29.110.wav;640.8616651;;None;640.8616651;640.8616651;640.8616651;640.8616651;640.8616651;640.8616651;;;;;;180201;1;2023-11-30_11h32.58.730;REPSWITCH1_version2_list1;2022.2.4;144.0077647;
REPSWITCH1/PICTURE_19.png;pavo;type;gold;repeat;1;T;1;2;1;2;Stim5_Set1;0;None;123;122;21;0;122;122;122;;;;;;;;;;;;;;;;;;;;;;;641.361644;642.4798498;642.4798498;642.4798498;642.4798498;642.4798498;642.4798498;642.4798498;642.4798498;['p', 'a', 'v', 'o'];0;[0.8958868999034166, 0.9516890998929739, 1.2456457999069244, 1.3360288997646421];pavo;C:\2023\REPSWITCH21092023\REPSWITCH_excgange\REPSWITCH_excgange\data/180201_REPSWITCH1_version2_list1_2023-11-30_11h32.58.730_micRespv2l1_recorded\recording_micRespv2l1_2023-11-30_11h43.33.756.wav;645.5011241;646.0011458;None;645.5011241;645.5011241;645.5011241;645.5011241;645.5011241;645.5011241;;;;;;180201;1;2023-11-30_11h32.58.730;REPSWITCH1_version2_list1;2022.2.4;144.0077647;
REPSWITCH1/PICTURE_319.png;vaca;speak;darkblue;filler;2;F;1;2;1;2;Stim1_Set4;0;None;124;123;22;0;123;123;123;;;;;;;;;;;;;;;;;;;;;;;646.0011458;647.0638106;647.0638106;647.0638106;647.0638106;647.0638106;647.0638106;647.0638106;647.0638106;None;0;;;C:\2023\REPSWITCH21092023\REPSWITCH_excgange\REPSWITCH_excgange\data/180201_REPSWITCH1_version2_list1_2023-11-30_11h32.58.730_micRespv2l1_recorded\recording_micRespv2l1_2023-11-30_11h43.38.340.wav;650.09202;;None;650.09202;650.09202;650.09202;650.09202;650.09202;650.09202;;;;;;180201;1;2023-11-30_11h32.58.730;REPSWITCH1_version2_list1;2022.2.4;144.0077647;
REPSWITCH1/PICTURE_338.png;regalo;type;gold;filler;1;F;1;2;1;2;Stim6_Set4;0;None;125;124;23;0;124;124;124;;;;;;;;;;;;;;;;;;;;;;;650.5920391;651.7102617;651.7102617;651.7102617;651.7102617;651.7102617;651.7102617;651.7102617;651.7102617;['r', 'e', 'g', 'a', 'l', 'o'];0;[1.1732000999618322, 1.2339939998928457, 1.4024306000210345, 1.8180437998380512, 1.9256881000474095, 2.0622302999254316];regalo;C:\2023\REPSWITCH21092023\REPSWITCH_excgange\REPSWITCH_excgange\data/180201_REPSWITCH1_version2_list1_2023-11-30_11h32.58.730_micRespv2l1_recorded\recording_micRespv2l1_2023-11-30_11h43.42.987.wav;654.731473;655.2315958;None;654.731473;654.731473;654.731473;654.731473;654.731473;654.731473;;;;;;180201;1;2023-11-30_11h32.58.730;REPSWITCH1_version2_list1;2022.2.4;144.0077647;
REPSWITCH1/PICTURE_142.png;vaso;type;gold;nontarget;1;NT;1;2;1;2;Stim7_Set1;0;None;126;125;24;0;125;125;125;;;;;;;;;;;;;;;;;;;;;;;655.2315958;656.3011896;656.3011896;656.3011896;656.3011896;656.3011896;656.3011896;656.3011896;656.3011896;['v', 'a', 's', 'o'];0;[1.3615468998905271, 1.439207699848339, 1.65250249998644, 1.776070199906826];vaso;C:\2023\REPSWITCH21092023\REPSWITCH_excgange\REPSWITCH_excgange\data/180201_REPSWITCH1_version2_list1_2023-11-30_11h32.58.730_micRespv2l1_recorded\recording_micRespv2l1_2023-11-30_11h43.47.577.wav;659.3223997;659.822414;None;659.3223997;659.3223997;659.3223997;659.3223997;659.3223997;659.3223997;;;;;;180201;1;2023-11-30_11h32.58.730;REPSWITCH1_version2_list1;2022.2.4;144.0077647;
REPSWITCH1/PICTURE_142.png;vaso;speak;darkblue;switch;2;T;1;2;1;2;Stim7_Set1;0;None;127;126;25;0;126;126;126;;;;;;;;;;;;;;;;;;;;;;;659.822414;660.9545313;660.9545313;660.9545313;660.9545313;660.9545313;660.9545313;660.9545313;660.9545313;None;0;;;C:\2023\REPSWITCH21092023\REPSWITCH_excgange\REPSWITCH_excgange\data/180201_REPSWITCH1_version2_list1_2023-11-30_11h32.58.730_micRespv2l1_recorded\recording_micRespv2l1_2023-11-30_11h43.52.230.wav;663.9757187;664.4757633;None;663.9757187;663.9757187;663.9757187;663.9757187;663.9757187;663.9757187;;;;;;180201;1;2023-11-30_11h32.58.730;REPSWITCH1_version2_list1;2022.2.4;144.0077647;
REPSWITCH1/PICTURE_687.png;camisa;type;gold;filler;1;F;1;2;1;2;Stim5_Set4;1;switch;128;127;26;0;127;127;127;;;;;;;;;;;;;;;;;;;;;;;664.4757633;665.5940134;665.5940134;665.5940134;665.5940134;665.5940134;665.5940134;665.5940134;665.5940134;['c', 'a', 'm', 'i', 's', 'a'];0;[0.9442843999713659, 1.0608592999633402, 1.3698741998523474, 1.4585729998070747, 1.5761680998839438, 1.7666546998079866];camisa;C:\2023\REPSWITCH21092023\REPSWITCH_excgange\REPSWITCH_excgange\data/180201_REPSWITCH1_version2_list1_2023-11-30_11h32.58.730_micRespv2l1_recorded\recording_micRespv2l1_2023-11-30_11h43.56.869.wav;668.6152533;669.115307;None;668.6152533;668.6152533;668.6152533;668.6152533;668.6152533;668.6152533;;;;;;180201;1;2023-11-30_11h32.58.730;REPSWITCH1_version2_list1;2022.2.4;144.0077647;
REPSWITCH1/PICTURE_30.png;granja;type;gold;nontarget;1;NT;2;2;1;2;Stim5_Set2;0;None;129;128;27;0;128;128;128;;;;;;;;;;;;;;;;;;;;;;;669.115307;670.1501386;670.1501386;670.1501386;670.1501386;670.1501386;670.1501386;670.1501386;670.1501386;['g', 'r', 'a', 'n', 'j', 'a'];0;[1.2197902000043541, 1.4066953998990357, 1.5155575999524444, 1.904593100072816, 2.0321583000477403, 2.0859646999742836];granja;C:\2023\REPSWITCH21092023\REPSWITCH_excgange\REPSWITCH_excgange\data/180201_REPSWITCH1_version2_list1_2023-11-30_11h32.58.730_micRespv2l1_recorded\recording_micRespv2l1_2023-11-30_11h44.01.427.wav;673.1713577;673.6714404;None;673.1713577;673.1713577;673.1713577;673.1713577;673.1713577;673.1713577;;;;;;180201;1;2023-11-30_11h32.58.730;REPSWITCH1_version2_list1;2022.2.4;144.0077647;
REPSWITCH1/PICTURE_30.png;granja;type;gold;repeat;1;T;2;2;1;2;Stim5_Set2;0;None;130;129;28;0;129;129;129;;;;;;;;;;;;;;;;;;;;;;;673.6714404;674.7340668;674.7340668;674.7340668;674.7340668;674.7340668;674.7340668;674.7340668;674.7340668;['g', 'r', 'a', 'n', 'j', 'a'];0;[0.7449890999123454, 0.9203955000266433, 1.044355700025335, 1.209511699853465, 1.4079133998602629, 1.4885636998806149];granja;C:\2023\REPSWITCH21092023\REPSWITCH_excgange\REPSWITCH_excgange\data/180201_REPSWITCH1_version2_list1_2023-11-30_11h32.58.730_micRespv2l1_recorded\recording_micRespv2l1_2023-11-30_11h44.06.011.wav;677.755289;678.255379;None;677.755289;677.755289;677.755289;677.755289;677.755289;677.755289;;;;;;180201;1;2023-11-30_11h32.58.730;REPSWITCH1_version2_list1;2022.2.4;144.0077647;
REPSWITCH1/PICTURE_128.png;muñeca;speak;darkblue;filler;2;F;2;2;1;2;Stim4_Set1;0;None;131;130;29;0;130;130;130;;;;;;;;;;;;;;;;;;;;;;;678.255379;679.3596902;679.3596902;679.3596902;679.3596902;679.3596902;679.3596902;679.3596902;679.3596902;None;0;;;C:\2023\REPSWITCH21092023\REPSWITCH_excgange\REPSWITCH_excgange\data/180201_REPSWITCH1_version2_list1_2023-11-30_11h32.58.730_micRespv2l1_recorded\recording_micRespv2l1_2023-11-30_11h44.10.636.wav;682.3809367;682.880996;None;682.3809367;682.3809367;682.3809367;682.3809367;682.3809367;682.3809367;;;;;;180201;1;2023-11-30_11h32.58.730;REPSWITCH1_version2_list1;2022.2.4;144.0077647;
REPSWITCH1/PICTURE_264.png;mano;type;gold;nontarget;1;NT;2;2;1;2;Stim3_Set2;1;switch;132;131;30;0;131;131;131;;;;;;;;;;;;;;;;;;;;;;;682.880996;684.0478067;684.0478067;684.0478067;684.0478067;684.0478067;684.0478067;684.0478067;684.0478067;['m', 'a', 'n', 'o'];0;[1.0065534997265786, 1.1420952999033034, 1.2676646998152137, 1.3503863997757435];mano;C:\2023\REPSWITCH21092023\REPSWITCH_excgange\REPSWITCH_excgange\data/180201_REPSWITCH1_version2_list1_2023-11-30_11h32.58.730_micRespv2l1_recorded\recording_micRespv2l1_2023-11-30_11h44.15.324.wav;687.0690259;687.5691126;None;687.0690259;687.0690259;687.0690259;687.0690259;687.0690259;687.0690259;;;;;;180201;1;2023-11-30_11h32.58.730;REPSWITCH1_version2_list1;2022.2.4;144.0077647;
REPSWITCH1/PICTURE_264.png;mano;type;gold;repeat;1;T;2;2;1;2;Stim3_Set2;0;None;133;132;31;0;132;132;132;;;;;;;;;;;;;;;;;;;;;;;687.5691126;688.749882;688.749882;688.749882;688.749882;688.749882;688.749882;688.749882;688.749882;['m', 'a', 'n', 'o'];0;[0.6674688998609781, 0.7684476999565959, 0.8804322998039424, 0.9581151998136193];mano;C:\2023\REPSWITCH21092023\REPSWITCH_excgange\REPSWITCH_excgange\data/180201_REPSWITCH1_version2_list1_2023-11-30_11h32.58.730_micRespv2l1_recorded\recording_micRespv2l1_2023-11-30_11h44.20.026.wav;691.7710558;692.2711411;None;691.7710558;691.7710558;691.7710558;691.7710558;691.7710558;691.7710558;;;;;;180201;1;2023-11-30_11h32.58.730;REPSWITCH1_version2_list1;2022.2.4;144.0077647;
REPSWITCH1/PICTURE_175.png;pintor;type;gold;nontarget;1;NT;2;2;1;2;Stim1_Set2;0;None;134;133;32;0;133;133;133;;;;;;;;;;;;;;;;;;;;;;;692.2711411;693.3754906;693.3754906;693.3754906;693.3754906;693.3754906;693.3754906;693.3754906;693.3754906;['p', 'i', 'n', 't', 'o', 'r'];0;[0.9772097000386566, 1.219451199984178, 1.716212600003928, 1.9400927999522537, 2.0433147000148892, 2.1682555999141186];pintor;C:\2023\REPSWITCH21092023\REPSWITCH_excgange\REPSWITCH_excgange\data/180201_REPSWITCH1_version2_list1_2023-11-30_11h32.58.730_micRespv2l1_recorded\recording_micRespv2l1_2023-11-30_11h44.24.652.wav;696.4036023;;None;696.4036023;696.4036023;696.4036023;696.4036023;696.4036023;696.4036023;;;;;;180201;1;2023-11-30_11h32.58.730;REPSWITCH1_version2_list1;2022.2.4;144.0077647;
REPSWITCH1/PICTURE_175.png;pintor;speak;darkblue;switch;2;T;2;2;1;2;Stim1_Set2;0;None;135;134;33;0;134;134;134;;;;;;;;;;;;;;;;;;;;;;;696.9036601;697.9940822;697.9940822;697.9940822;697.9940822;697.9940822;697.9940822;697.9940822;697.9940822;None;0;;;C:\2023\REPSWITCH21092023\REPSWITCH_excgange\REPSWITCH_excgange\data/180201_REPSWITCH1_version2_list1_2023-11-30_11h32.58.730_micRespv2l1_recorded\recording_micRespv2l1_2023-11-30_11h44.29.270.wav;701.0153174;701.5153912;None;701.0153174;701.0153174;701.0153174;701.0153174;701.0153174;701.0153174;;;;;;180201;1;2023-11-30_11h32.58.730;REPSWITCH1_version2_list1;2022.2.4;144.0077647;
REPSWITCH1/PICTURE_135.png;traje;speak;darkblue;filler;2;F;2;2;1;2;Stim3_Set1;1;repeat;136;135;34;0;135;135;135;;;;;;;;;;;;;;;;;;;;;;;701.5153912;702.6057902;702.6057902;702.6057902;702.6057902;702.6057902;702.6057902;702.6057902;702.6057902;None;0;;;C:\2023\REPSWITCH21092023\REPSWITCH_excgange\REPSWITCH_excgange\data/180201_REPSWITCH1_version2_list1_2023-11-30_11h32.58.730_micRespv2l1_recorded\recording_micRespv2l1_2023-11-30_11h44.33.882.wav;705.6339817;;None;705.6339817;705.6339817;705.6339817;705.6339817;705.6339817;705.6339817;;;;;;180201;1;2023-11-30_11h32.58.730;REPSWITCH1_version2_list1;2022.2.4;144.0077647;
REPSWITCH1/PICTURE_446.png;cerdo;speak;darkblue;nontarget;2;NT;2;2;1;2;Stim7_Set2;1;repeat;137;136;35;0;136;136;136;;;;;;;;;;;;;;;;;;;;;;;706.1340576;707.2244518;707.2244518;707.2244518;707.2244518;707.2244518;707.2244518;707.2244518;707.2244518;None;0;;;C:\2023\REPSWITCH21092023\REPSWITCH_excgange\REPSWITCH_excgange\data/180201_REPSWITCH1_version2_list1_2023-11-30_11h32.58.730_micRespv2l1_recorded\recording_micRespv2l1_2023-11-30_11h44.38.500.wav;710.245739;710.7458158;None;710.245739;710.245739;710.245739;710.245739;710.245739;710.245739;;;;;;180201;1;2023-11-30_11h32.58.730;REPSWITCH1_version2_list1;2022.2.4;144.0077647;
REPSWITCH1/PICTURE_446.png;cerdo;type;gold;switch;1;T;2;2;1;2;Stim7_Set2;0;None;138;137;36;0;137;137;137;;;;;;;;;;;;;;;;;;;;;;;710.7458158;711.8153689;711.8153689;711.8153689;711.8153689;711.8153689;711.8153689;711.8153689;711.8153689;['c', 'e', 'r', 'd', 'o'];0;[1.2396184999961406, 1.372173700015992, 1.579444699920714, 1.745724800042808, 1.823339099995792];cerdo;C:\2023\REPSWITCH21092023\REPSWITCH_excgange\REPSWITCH_excgange\data/180201_REPSWITCH1_version2_list1_2023-11-30_11h32.58.730_micRespv2l1_recorded\recording_micRespv2l1_2023-11-30_11h44.43.092.wav;714.8365475;715.336656;None;714.8365475;714.8365475;714.8365475;714.8365475;714.8365475;714.8365475;;;;;;180201;1;2023-11-30_11h32.58.730;REPSWITCH1_version2_list1;2022.2.4;144.0077647;
REPSWITCH1/PICTURE_152.png;caracol;type;gold;nontarget;1;NT;2;2;1;2;Stim2_Set2;1;repeat;139;138;37;0;138;138;138;;;;;;;;;;;;;;;;;;;;;;;715.336656;716.3993392;716.3993392;716.3993392;716.3993392;716.3993392;716.3993392;716.3993392;716.3993392;['c', 'a', 'r', 'a', 'c', 'o', 'l'];0;[1.073413899866864, 1.198979299981147, 1.2826970999594778, 1.388455499894917, 1.6294517999049276, 1.7725923999678344, 1.9235613998025656];caracol;C:\2023\REPSWITCH21092023\REPSWITCH_excgange\REPSWITCH_excgange\data/180201_REPSWITCH1_version2_list1_2023-11-30_11h32.58.730_micRespv2l1_recorded\recording_micRespv2l1_2023-11-30_11h44.47.676.wav;719.4204862;719.920584;None;719.4204862;719.4204862;719.4204862;719.4204862;719.4204862;719.4204862;;;;;;180201;1;2023-11-30_11h32.58.730;REPSWITCH1_version2_list1;2022.2.4;144.0077647;
REPSWITCH1/PICTURE_152.png;caracol;speak;darkblue;switch;2;T;2;2;1;2;Stim2_Set2;0;None;140;139;38;0;139;139;139;;;;;;;;;;;;;;;;;;;;;;;719.920584;721.0873798;721.0873798;721.0873798;721.0873798;721.0873798;721.0873798;721.0873798;721.0873798;None;0;;;C:\2023\REPSWITCH21092023\REPSWITCH_excgange\REPSWITCH_excgange\data/180201_REPSWITCH1_version2_list1_2023-11-30_11h32.58.730_micRespv2l1_recorded\recording_micRespv2l1_2023-11-30_11h44.52.363.wav;724.1086725;724.6086712;None;724.1086725;724.1086725;724.1086725;724.1086725;724.1086725;724.1086725;;;;;;180201;1;2023-11-30_11h32.58.730;REPSWITCH1_version2_list1;2022.2.4;144.0077647;
REPSWITCH1/PICTURE_16.png;cazador;type;gold;filler;1;F;2;2;1;2;Stim6_Set1;0;None;141;140;39;0;140;140;140;;;;;;;;;;;;;;;;;;;;;;;724.6086712;725.6713437;725.6713437;725.6713437;725.6713437;725.6713437;725.6713437;725.6713437;725.6713437;['c', 'a', 'z', 'a', 'd', 'o', 'r'];0;[1.0751521999482065, 1.1379335997626185, 1.3116937999147922, 1.496094899950549, 1.701721399789676, 1.8213721998035908, 1.9668364999815822];cazador;C:\2023\REPSWITCH21092023\REPSWITCH_excgange\REPSWITCH_excgange\data/180201_REPSWITCH1_version2_list1_2023-11-30_11h32.58.730_micRespv2l1_recorded\recording_micRespv2l1_2023-11-30_11h44.56.947.wav;728.6925573;729.1926863;None;728.6925573;728.6925573;728.6925573;728.6925573;728.6925573;728.6925573;;;;;;180201;1;2023-11-30_11h32.58.730;REPSWITCH1_version2_list1;2022.2.4;144.0077647;
