image,correctAns,respModal,frameColor,repSwitch,sequence,target,set,block,list,exp_version,stimulus,baseline,baseline_condition,trial_no,psychopy_trial,Column1,trialsREPSWITCH.thisRepN,trialsREPSWITCH.thisTrialN,trialsREPSWITCH.thisN,trialsREPSWITCH.thisIndex,textWelcome.started,textBlank500.started,textboxInstrMain1.started,textboxInstrMain1_2.started,textboxInstrMain1_3.started,keyInstrMain.started,keyInstrMain.keys,keyInstrMain.rt,textboxInstrMain2.started,textboxInstrMain2_2.started,textboxInstrMain2_3.started,textboxInstrMain2_4.started,textboxInstrMain2_5.started,textboxInstrMain2_6.started,textboxInstrMain2_7.started,textboxInstrMain2_8.started,textboxInstrMain2_9.started,textboxInstrMain2_10.started,textboxInstrMain2_11.started,textboxInstrMain2_12.started,keyInstrMain2.started,keyInstrMain2.keys,keyInstrMain2.rt,textBlank500.stopped,fixationITI.started,fixationITI.stopped,polygonColour.started,polygonWhite.started,imageObject.started,polygonType.started,textInput.started,keyResp.started,micRespv1l1.started,keyResp.keys,keyResp.corr,keyResp.rt,subjResponse,micRespv1l1.clip,keyPause.keys,polygonColour.stopped,polygonWhite.stopped,imageObject.stopped,polygonType.stopped,textInput.stopped,keyResp.stopped,textboxPause.started,keyPause.started,participant,session,date,expName,psychopyVersion,frameRate,
,,,,,,,,,,,,,,,,,,,,,5.880905100144446,8.374439000152051,8.881446500308812,8.881446500308812,8.881446500308812,8.881446500308812,space,7.171555900014937,,,,,,,,,,,,,,,,,,,,,,,,,,,,,,,,,,,,,,,,695107,001,2023-09-11_16h18.04.778,REPSWITCH1_version1_list1,2022.2.4,143.9285899649341,
,,,,,,,,,,,,,,,,,,,,,,,,,,,,,16.076170700602233,16.076170700602233,16.076170700602233,16.076170700602233,16.076170700602233,16.076170700602233,16.076170700602233,16.076170700602233,16.076170700602233,16.076170700602233,16.076170700602233,16.076170700602233,16.076170700602233,space,8.361292499117553,,,,,,,,,,,,,,,,,,,,,,,,,695107,001,2023-09-11_16h18.04.778,REPSWITCH1_version1_list1,2022.2.4,143.9285899649341,
REPSWITCH1/PICTURE_340.png,espejo,type,darkblue,filler,1,F,1,1,1,1,Extra1,0,None,1,0,1,0,0,0,0,,29.147955000400543,,,,,,,,,,,,,,,,,,,,,,25.03643130045384,25.03643130045384,26.140572300180793,26.140572300180793,26.140572300180793,26.140572300180793,26.140572300180793,26.140572300180793,26.140572300180793,0.01120159961283207,"['m', 'i', 'r', 'o', 'i', 'r']",0,"[0.9683582996949553, 1.1924070995301008, 1.3859281996265054, 1.5128675997257233, 1.5778684001415968, 1.6728664999827743]",miroir,C:\2023\Repswitch_Korta_11092023\REPSWITCH_excgange\REPSWITCH_excgange\data/695107_REPSWITCH1_version1_list1_2023-09-11_16h18.04.778_micRespv1l1_recorded\recording_micRespv1l1_2023-09-11_16h18.30.034.wav,None,,,,,,,,,695107,001,2023-09-11_16h18.04.778,REPSWITCH1_version1_list1,2022.2.4,143.9285899649341,
REPSWITCH1/PICTURE_391.png,cadena,speak,gold,filler,2,F,1,1,1,1,Extra2,0,None,2,1,2,0,1,1,1,,33.75937640015036,,,,,,,,,,,,,,,,,,,,,,,29.64795460086316,30.752183500677347,30.752183500677347,30.752183500677347,30.752183500677347,30.752183500677347,30.752183500677347,30.752183500677347,0.004137000069022179,None,0,,,C:\2023\Repswitch_Korta_11092023\REPSWITCH_excgange\REPSWITCH_excgange\data/695107_REPSWITCH1_version1_list1_2023-09-11_16h18.04.778_micRespv1l1_recorded\recording_micRespv1l1_2023-09-11_16h18.34.646.wav,None,,,,,,,,,695107,001,2023-09-11_16h18.04.778,REPSWITCH1_version1_list1,2022.2.4,143.9285899649341,
REPSWITCH1/PICTURE_178.png,puente,speak,gold,nontarget,2,NT,1,1,1,1,Stim1_Set1,1,repeat,3,2,3,0,2,2,2,,38.405766000039876,,,,,,,,,,,,,,,,,,,,,,,34.25963760074228,35.391614800319076,35.391614800319076,35.391614800319076,35.391614800319076,35.391614800319076,35.391614800319076,35.391614800319076,0.003878300078213215,None,0,,,C:\2023\Repswitch_Korta_11092023\REPSWITCH_excgange\REPSWITCH_excgange\data/695107_REPSWITCH1_version1_list1_2023-09-11_16h18.04.778_micRespv1l1_recorded\recording_micRespv1l1_2023-09-11_16h18.39.294.wav,None,,,,,,,,,695107,001,2023-09-11_16h18.04.778,REPSWITCH1_version1_list1,2022.2.4,143.9285899649341,
REPSWITCH1/PICTURE_178.png,puente,speak,gold,repeat,2,T,1,1,1,1,Stim1_Set1,0,None,4,3,4,0,3,3,3,,42.968806200660765,,,,,,,,,,,,,,,,,,,,,,,38.905661900527775,39.95468690060079,39.95468690060079,39.95468690060079,39.95468690060079,39.95468690060079,39.95468690060079,39.95468690060079,0.0013543004170060158,None,0,,,C:\2023\Repswitch_Korta_11092023\REPSWITCH_excgange\REPSWITCH_excgange\data/695107_REPSWITCH1_version1_list1_2023-09-11_16h18.04.778_micRespv1l1_recorded\recording_micRespv1l1_2023-09-11_16h18.43.855.wav,None,,,,,,,,,695107,001,2023-09-11_16h18.04.778,REPSWITCH1_version1_list1,2022.2.4,143.9285899649341,
REPSWITCH1/PICTURE_319.png,vaca,type,darkblue,filler,1,F,1,1,1,1,Stim1_Set4,0,None,5,4,5,0,4,4,4,,47.57350559998304,,,,,,,,,,,,,,,,,,,,,,,43.46873570047319,44.559490500018,44.559490500018,44.559490500018,44.559490500018,44.559490500018,44.559490500018,44.559490500018,0.0036765001714229584,"['v', 'a', 'c', 'h', 'e']",0,"[0.9175476990640163, 1.0295510990545154, 1.1574899991974235, 1.3014902994036674, 1.3974929992109537]",vache,C:\2023\Repswitch_Korta_11092023\REPSWITCH_excgange\REPSWITCH_excgange\data/695107_REPSWITCH1_version1_list1_2023-09-11_16h18.04.778_micRespv1l1_recorded\recording_micRespv1l1_2023-09-11_16h18.48.462.wav,None,47.57350559998304,47.57350559998304,47.57350559998304,47.57350559998304,47.57350559998304,47.57350559998304,,,695107,001,2023-09-11_16h18.04.778,REPSWITCH1_version1_list1,2022.2.4,143.9285899649341,
REPSWITCH1/PICTURE_381.png,fresa,speak,gold,nontarget,2,NT,1,1,1,1,Stim2_Set1,1,switch,6,5,6,0,5,5,5,,52.31015090085566,,,,,,,,,,,,,,,,,,,,,,,48.07344410009682,49.31011860072613,49.31011860072613,49.31011860072613,49.31011860072613,49.31011860072613,49.31011860072613,49.31011860072613,0.005253399722278118,None,0,,,C:\2023\Repswitch_Korta_11092023\REPSWITCH_excgange\REPSWITCH_excgange\data/695107_REPSWITCH1_version1_list1_2023-09-11_16h18.04.778_micRespv1l1_recorded\recording_micRespv1l1_2023-09-11_16h18.53.197.wav,None,,,,,,,,,695107,001,2023-09-11_16h18.04.778,REPSWITCH1_version1_list1,2022.2.4,143.9285899649341,
REPSWITCH1/PICTURE_381.png,fresa,speak,gold,repeat,2,T,1,1,1,1,Stim2_Set1,0,None,7,6,7,0,6,6,6,,56.87257650028914,,,,,,,,,,,,,,,,,,,,,,,52.810319600626826,53.85913380049169,53.85913380049169,53.85913380049169,53.85913380049169,53.85913380049169,53.85913380049169,53.85913380049169,0.001617499627172947,None,0,,,C:\2023\Repswitch_Korta_11092023\REPSWITCH_excgange\REPSWITCH_excgange\data/695107_REPSWITCH1_version1_list1_2023-09-11_16h18.04.778_micRespv1l1_recorded\recording_micRespv1l1_2023-09-11_16h18.57.760.wav,None,56.87257650028914,56.87257650028914,56.87257650028914,56.87257650028914,56.87257650028914,56.87257650028914,,,695107,001,2023-09-11_16h18.04.778,REPSWITCH1_version1_list1,2022.2.4,143.9285899649341,
REPSWITCH1/PICTURE_719.png,baño,type,darkblue,filler,1,F,1,1,1,1,Stim2_Set4,1,switch,8,7,8,0,7,7,7,,61.58210570085794,,,,,,,,,,,,,,,,,,,,,,,57.37262800056487,58.567115500569344,58.567115500569344,58.567115500569344,58.567115500569344,58.567115500569344,58.567115500569344,58.567115500569344,0.004627799615263939,"['s', 'a', 'l', 'l', 'e', 'd', 'e', 'a', 'i', 'n']",0,"[1.3903893996030092, 1.486246700398624, 1.6462112003937364, 1.7737167999148369, 1.8537141997367144, 2.0298004001379013, 2.1417837999761105, 2.397701899521053, 2.6538076996803284, 2.813980800099671]",salledeain,C:\2023\Repswitch_Korta_11092023\REPSWITCH_excgange\REPSWITCH_excgange\data/695107_REPSWITCH1_version1_list1_2023-09-11_16h18.04.778_micRespv1l1_recorded\recording_micRespv1l1_2023-09-11_16h19.02.472.wav,None,,,,,,,,,695107,001,2023-09-11_16h18.04.778,REPSWITCH1_version1_list1,2022.2.4,143.9285899649341,
REPSWITCH1/PICTURE_135.png,traje,speak,gold,nontarget,2,NT,1,1,1,1,Stim3_Set1,0,None,9,8,9,0,8,8,8,,66.20070690009743,,,,,,,,,,,,,,,,,,,,,,,62.08217150066048,63.18655250035226,63.18655250035226,63.18655250035226,63.18655250035226,63.18655250035226,63.18655250035226,63.18655250035226,0.0036305999383330345,None,0,,,C:\2023\Repswitch_Korta_11092023\REPSWITCH_excgange\REPSWITCH_excgange\data/695107_REPSWITCH1_version1_list1_2023-09-11_16h18.04.778_micRespv1l1_recorded\recording_micRespv1l1_2023-09-11_16h19.07.090.wav,None,,,,,,,,,695107,001,2023-09-11_16h18.04.778,REPSWITCH1_version1_list1,2022.2.4,143.9285899649341,
REPSWITCH1/PICTURE_135.png,traje,type,darkblue,switch,1,T,1,1,1,1,Stim3_Set1,0,None,10,9,10,0,9,9,9,,70.88875970058143,,,,,,,,,,,,,,,,,,,,,,,66.70060820039362,67.8746548006311,67.8746548006311,67.8746548006311,67.8746548006311,67.8746548006311,67.8746548006311,67.8746548006311,0.0012982003390789032,"['c', 'o', 's', 't', 'u', 'm', 'e']",0,"[0.8341010995209217, 0.9940488990396261, 1.0912640988826752, 1.2180979996919632, 1.3145618997514248, 1.5381403993815184, 1.6021391991525888]",costume,C:\2023\Repswitch_Korta_11092023\REPSWITCH_excgange\REPSWITCH_excgange\data/695107_REPSWITCH1_version1_list1_2023-09-11_16h18.04.778_micRespv1l1_recorded\recording_micRespv1l1_2023-09-11_16h19.11.776.wav,None,,,,,,,,,695107,001,2023-09-11_16h18.04.778,REPSWITCH1_version1_list1,2022.2.4,143.9285899649341,
REPSWITCH1/PICTURE_687.png,camisa,speak,gold,filler,2,F,1,1,1,1,Stim5_Set4,0,None,11,10,11,0,10,10,10,,75.57682950049639,,,,,,,,,,,,,,,,,,,,,,,71.38881880044937,72.56281070038676,72.56281070038676,72.56281070038676,72.56281070038676,72.56281070038676,72.56281070038676,72.56281070038676,0.003851099871098995,None,0,,,C:\2023\Repswitch_Korta_11092023\REPSWITCH_excgange\REPSWITCH_excgange\data/695107_REPSWITCH1_version1_list1_2023-09-11_16h18.04.778_micRespv1l1_recorded\recording_micRespv1l1_2023-09-11_16h19.16.466.wav,None,75.57682950049639,75.57682950049639,75.57682950049639,75.57682950049639,75.57682950049639,75.57682950049639,,,695107,001,2023-09-11_16h18.04.778,REPSWITCH1_version1_list1,2022.2.4,143.9285899649341,
REPSWITCH1/PICTURE_128.png,muñeca,type,darkblue,nontarget,1,NT,1,1,1,1,Stim4_Set1,1,switch,12,11,12,0,11,11,11,,80.19542040023953,,,,,,,,,,,,,,,,,,,,,,,76.07675960008055,77.18144750036299,77.18144750036299,77.18144750036299,77.18144750036299,77.18144750036299,77.18144750036299,77.18144750036299,0.0037407996132969856,"['p', 'o', 'u', 'p', 'e', 'e']",0,"[0.9358467990532517, 1.0318764997646213, 1.144043899141252, 1.240044399164617, 1.3680393993854523, 1.4957943996414542]",poupee,C:\2023\Repswitch_Korta_11092023\REPSWITCH_excgange\REPSWITCH_excgange\data/695107_REPSWITCH1_version1_list1_2023-09-11_16h18.04.778_micRespv1l1_recorded\recording_micRespv1l1_2023-09-11_16h19.21.084.wav,None,,,,,,,,,695107,001,2023-09-11_16h18.04.778,REPSWITCH1_version1_list1,2022.2.4,143.9285899649341,
REPSWITCH1/PICTURE_128.png,muñeca,speak,gold,switch,2,T,1,1,1,1,Stim4_Set1,0,None,13,12,13,0,12,12,12,,84.80013250000775,,,,,,,,,,,,,,,,,,,,,,,80.69534480012953,81.78603480011225,81.78603480011225,81.78603480011225,81.78603480011225,81.78603480011225,81.78603480011225,81.78603480011225,0.001435600221157074,None,0,,,C:\2023\Repswitch_Korta_11092023\REPSWITCH_excgange\REPSWITCH_excgange\data/695107_REPSWITCH1_version1_list1_2023-09-11_16h18.04.778_micRespv1l1_recorded\recording_micRespv1l1_2023-09-11_16h19.25.687.wav,None,84.80013250000775,84.80013250000775,84.80013250000775,84.80013250000775,84.80013250000775,84.80013250000775,,,695107,001,2023-09-11_16h18.04.778,REPSWITCH1_version1_list1,2022.2.4,143.9285899649341,
REPSWITCH1/PICTURE_8.png,pierna,speak,gold,filler,2,F,1,1,1,1,Stim3_Set4,0,None,14,13,14,0,13,13,13,,89.39095040038228,,,,,,,,,,,,,,,,,,,,,,,85.3002814007923,86.37685250025243,86.37685250025243,86.37685250025243,86.37685250025243,86.37685250025243,86.37685250025243,86.37685250025243,0.003714599646627903,None,0,,,C:\2023\Repswitch_Korta_11092023\REPSWITCH_excgange\REPSWITCH_excgange\data/695107_REPSWITCH1_version1_list1_2023-09-11_16h18.04.778_micRespv1l1_recorded\recording_micRespv1l1_2023-09-11_16h19.30.281.wav,None,,,,,,,,,695107,001,2023-09-11_16h18.04.778,REPSWITCH1_version1_list1,2022.2.4,143.9285899649341,
REPSWITCH1/PICTURE_19.png,pavo,speak,gold,nontarget,2,NT,1,1,1,1,Stim5_Set1,0,None,15,14,15,0,14,14,14,,94.05758250039071,,,,,,,,,,,,,,,,,,,,,,,89.89100680034608,91.04402270074934,91.04402270074934,91.04402270074934,91.04402270074934,91.04402270074934,91.04402270074934,91.04402270074934,0.00422890018671751,None,0,,,C:\2023\Repswitch_Korta_11092023\REPSWITCH_excgange\REPSWITCH_excgange\data/695107_REPSWITCH1_version1_list1_2023-09-11_16h18.04.778_micRespv1l1_recorded\recording_micRespv1l1_2023-09-11_16h19.34.947.wav,None,94.05758250039071,94.05758250039071,94.05758250039071,94.05758250039071,94.05758250039071,94.05758250039071,,,695107,001,2023-09-11_16h18.04.778,REPSWITCH1_version1_list1,2022.2.4,143.9285899649341,
REPSWITCH1/PICTURE_19.png,pavo,type,darkblue,switch,1,T,1,1,1,1,Stim5_Set1,0,None,16,15,16,0,15,15,15,,98.62695010006428,,,,,,,,,,,,,,,,,,,,,,99.12754050083458,94.55757200066,95.61313120089471,95.61313120089471,95.61313120089471,95.61313120089471,95.61313120089471,95.61313120089471,95.61313120089471,0.0017026998102664948,"['d', 'i', 'n', 'd', 'o', 'n']",0,"[0.7282207002863288, 0.8562165005132556, 1.0320624997839332, 1.112856799736619, 1.1918425997719169, 1.2718839002773166]",dindon,C:\2023\Repswitch_Korta_11092023\REPSWITCH_excgange\REPSWITCH_excgange\data/695107_REPSWITCH1_version1_list1_2023-09-11_16h18.04.778_micRespv1l1_recorded\recording_micRespv1l1_2023-09-11_16h19.39.521.wav,None,98.62695010006428,98.62695010006428,98.62695010006428,98.62695010006428,98.62695010006428,98.62695010006428,,,695107,001,2023-09-11_16h18.04.778,REPSWITCH1_version1_list1,2022.2.4,143.9285899649341,
REPSWITCH1/PICTURE_16.png,cazador,type,darkblue,nontarget,1,NT,1,1,1,1,Stim6_Set1,1,switch,17,16,17,0,16,16,16,,103.26759010087699,,,,,,,,,,,,,,,,,,,,,,,99.12754050083458,100.25254400074482,100.25254400074482,100.25254400074482,100.25254400074482,100.25254400074482,100.25254400074482,100.25254400074482,0.0038808993995189667,"['c', 'h', 'a', 's', 's', 'e', 'r', 'u']",0,"[1.1289002001285553, 1.2248991001397371, 1.2888946998864412, 1.480898399837315, 1.6081596994772553, 1.6881579998880625, 1.8168000001460314, 1.8338232999667525]",chasseru,C:\2023\Repswitch_Korta_11092023\REPSWITCH_excgange\REPSWITCH_excgange\data/695107_REPSWITCH1_version1_list1_2023-09-11_16h18.04.778_micRespv1l1_recorded\recording_micRespv1l1_2023-09-11_16h19.44.156.wav,None,,,,,,,,,695107,001,2023-09-11_16h18.04.778,REPSWITCH1_version1_list1,2022.2.4,143.9285899649341,
REPSWITCH1/PICTURE_16.png,cazador,type,darkblue,repeat,1,T,1,1,1,1,Stim6_Set1,0,None,18,17,18,0,17,17,17,,107.83756790030748,,,,,,,,,,,,,,,,,,,,,,,103.76749300025403,104.8234783001244,104.8234783001244,104.8234783001244,104.8234783001244,104.8234783001244,104.8234783001244,104.8234783001244,0.0015355003997683525,"['c', 'h', 'a', 's', 's', 'e', 'u', 'r']",0,"[0.7975661996752024, 0.9255786994472146, 0.9745630994439125, 1.229471399448812, 1.4054690999910235, 1.5174781996756792, 1.6295100999996066, 1.7094449996948242]",chasseur,C:\2023\Repswitch_Korta_11092023\REPSWITCH_excgange\REPSWITCH_excgange\data/695107_REPSWITCH1_version1_list1_2023-09-11_16h18.04.778_micRespv1l1_recorded\recording_micRespv1l1_2023-09-11_16h19.48.724.wav,None,,,,,,,,,695107,001,2023-09-11_16h18.04.778,REPSWITCH1_version1_list1,2022.2.4,143.9285899649341,
REPSWITCH1/PICTURE_498.png,taza,speak,gold,filler,2,F,1,1,1,1,Stim4_Set4,0,None,19,18,19,0,18,18,18,,112.47002650052309,,,,,,,,,,,,,,,,,,,,,,,108.33750220015645,109.46265380084515,109.46265380084515,109.46265380084515,109.46265380084515,109.46265380084515,109.46265380084515,109.46265380084515,0.004629599861800671,None,0,,,C:\2023\Repswitch_Korta_11092023\REPSWITCH_excgange\REPSWITCH_excgange\data/695107_REPSWITCH1_version1_list1_2023-09-11_16h18.04.778_micRespv1l1_recorded\recording_micRespv1l1_2023-09-11_16h19.53.357.wav,None,,,,,,,,,695107,001,2023-09-11_16h18.04.778,REPSWITCH1_version1_list1,2022.2.4,143.9285899649341,
REPSWITCH1/PICTURE_48.png,bombero,type,darkblue,filler,1,F,1,1,1,1,Stim7_Set4,0,None,20,19,20,0,19,19,19,,117.11644080001861,,,,,,,,,,,,,,,,,,,,,,,112.96999700088054,114.10926560033113,114.10926560033113,114.10926560033113,114.10926560033113,114.10926560033113,114.10926560033113,114.10926560033113,0.004479699768126011,"['p', 'o', 'm', 'p', 'i', 'e', 'r']",0,"[1.047333599999547, 1.1433865996077657, 1.287350899539888, 1.4473144998773932, 1.5597327994182706, 1.6717587998136878, 1.7197025995701551]",pompier,C:\2023\Repswitch_Korta_11092023\REPSWITCH_excgange\REPSWITCH_excgange\data/695107_REPSWITCH1_version1_list1_2023-09-11_16h18.04.778_micRespv1l1_recorded\recording_micRespv1l1_2023-09-11_16h19.58.003.wav,None,,,,,,,,,695107,001,2023-09-11_16h18.04.778,REPSWITCH1_version1_list1,2022.2.4,143.9285899649341,
REPSWITCH1/PICTURE_142.png,vaso,type,darkblue,nontarget,1,NT,1,1,1,1,Stim7_Set1,1,repeat,21,20,21,0,20,20,20,,121.72809380013496,,,,,,,,,,,,,,,,,,,,,,,117.61637820024043,118.71399980038404,118.71399980038404,118.71399980038404,118.71399980038404,118.71399980038404,118.71399980038404,118.71399980038404,0.003694000653922558,"['v', 'e', 'r', 'r', 'e']",0,"[0.8916640002280474, 1.035537499934435, 1.1465330999344587, 1.291423600167036, 1.354771999642253]",verre,C:\2023\Repswitch_Korta_11092023\REPSWITCH_excgange\REPSWITCH_excgange\data/695107_REPSWITCH1_version1_list1_2023-09-11_16h18.04.778_micRespv1l1_recorded\recording_micRespv1l1_2023-09-11_16h20.02.617.wav,None,,,,,,,,,695107,001,2023-09-11_16h18.04.778,REPSWITCH1_version1_list1,2022.2.4,143.9285899649341,
REPSWITCH1/PICTURE_142.png,vaso,type,darkblue,repeat,1,T,1,1,1,1,Stim7_Set1,0,None,22,21,22,0,21,21,21,,126.40920520015061,,,,,,,,,,,,,,,,,,,,,,,122.22799770068377,123.39510169997811,123.39510169997811,123.39510169997811,123.39510169997811,123.39510169997811,123.39510169997811,123.39510169997811,0.0013891998678445816,"['v', 'e', 'r', 'r', 'e']",0,"[0.8017079001292586, 0.9457010999321938, 1.0583660006523132, 1.2023376999422908, 1.2494863998144865]",verre,C:\2023\Repswitch_Korta_11092023\REPSWITCH_excgange\REPSWITCH_excgange\data/695107_REPSWITCH1_version1_list1_2023-09-11_16h18.04.778_micRespv1l1_recorded\recording_micRespv1l1_2023-09-11_16h20.07.296.wav,None,126.40920520015061,126.40920520015061,126.40920520015061,126.40920520015061,126.40920520015061,126.40920520015061,,,695107,001,2023-09-11_16h18.04.778,REPSWITCH1_version1_list1,2022.2.4,143.9285899649341,
REPSWITCH1/PICTURE_338.png,regalo,speak,gold,filler,2,F,1,1,1,1,Stim6_Set4,1,switch,23,22,23,0,22,22,22,,131.0964936008677,,,,,,,,,,,,,,,,,,,,,,,126.90913590043783,128.08339460007846,128.08339460007846,128.08339460007846,128.08339460007846,128.08339460007846,128.08339460007846,128.08339460007846,0.00393269956111908,None,0,,,C:\2023\Repswitch_Korta_11092023\REPSWITCH_excgange\REPSWITCH_excgange\data/695107_REPSWITCH1_version1_list1_2023-09-11_16h18.04.778_micRespv1l1_recorded\recording_micRespv1l1_2023-09-11_16h20.11.986.wav,None,131.0964936008677,131.0964936008677,131.0964936008677,131.0964936008677,131.0964936008677,131.0964936008677,,,695107,001,2023-09-11_16h18.04.778,REPSWITCH1_version1_list1,2022.2.4,143.9285899649341,
REPSWITCH1/PICTURE_728.png,pulpo,type,darkblue,filler,1,F,1,1,1,1,Stim8_Set4,1,switch,24,23,24,0,23,23,23,,135.75059409998357,,,,,,,,,,,,,,,,,,,,,,,131.5966917006299,132.73572240024805,132.73572240024805,132.73572240024805,132.73572240024805,132.73572240024805,132.73572240024805,132.73572240024805,0.003751100040972233,"['p', 'o', 'u', 'l', 'p', 'l', 'e']",0,"[2.245457299053669, 2.357450599782169, 2.4214466996490955, 2.5810360992327332, 2.692997799254954, 2.8378070993348956, 2.900875799357891]",poulple,C:\2023\Repswitch_Korta_11092023\REPSWITCH_excgange\REPSWITCH_excgange\data/695107_REPSWITCH1_version1_list1_2023-09-11_16h18.04.778_micRespv1l1_recorded\recording_micRespv1l1_2023-09-11_16h20.16.639.wav,None,,,,,,,,,695107,001,2023-09-11_16h18.04.778,REPSWITCH1_version1_list1,2022.2.4,143.9285899649341,
REPSWITCH1/PICTURE_169.png,espalda,type,darkblue,nontarget,1,NT,1,1,1,1,Stim8_Set1,1,repeat,25,24,25,0,24,24,24,,140.3136290004477,,,,,,,,,,,,,,,,,,,,,,,136.25051570031792,137.29952540062368,137.29952540062368,137.29952540062368,137.29952540062368,137.29952540062368,137.29952540062368,137.29952540062368,0.0038673002272844315,"['d', 'o', 's']",0,"[1.377883299253881, 1.5058885999023914, 1.6178524997085333]",dos,C:\2023\Repswitch_Korta_11092023\REPSWITCH_excgange\REPSWITCH_excgange\data/695107_REPSWITCH1_version1_list1_2023-09-11_16h18.04.778_micRespv1l1_recorded\recording_micRespv1l1_2023-09-11_16h20.21.202.wav,None,,,,,,,,,695107,001,2023-09-11_16h18.04.778,REPSWITCH1_version1_list1,2022.2.4,143.9285899649341,
REPSWITCH1/PICTURE_169.png,espalda,speak,gold,switch,2,T,1,1,1,1,Stim8_Set1,0,None,26,25,26,0,25,25,25,,144.84888310078532,,,,,,,,,,,,,,,,,,,,,,,140.81356200017035,141.83478600066155,141.83478600066155,141.83478600066155,141.83478600066155,141.83478600066155,141.83478600066155,141.83478600066155,0.0012801997363567352,None,0,,,C:\2023\Repswitch_Korta_11092023\REPSWITCH_excgange\REPSWITCH_excgange\data/695107_REPSWITCH1_version1_list1_2023-09-11_16h18.04.778_micRespv1l1_recorded\recording_micRespv1l1_2023-09-11_16h20.25.735.wav,None,,,,,,,,,695107,001,2023-09-11_16h18.04.778,REPSWITCH1_version1_list1,2022.2.4,143.9285899649341,
REPSWITCH1/PICTURE_178.png,puente,speak,gold,filler,2,F,2,1,1,1,Stim1_Set1,0,None,27,26,27,0,26,26,26,,149.4468046007678,,,,,,,,,,,,,,,,,,,,,,,145.34891379997134,146.43254910036922,146.43254910036922,146.43254910036922,146.43254910036922,146.43254910036922,146.43254910036922,146.43254910036922,0.0014406992122530937,None,0,,,C:\2023\Repswitch_Korta_11092023\REPSWITCH_excgange\REPSWITCH_excgange\data/695107_REPSWITCH1_version1_list1_2023-09-11_16h18.04.778_micRespv1l1_recorded\recording_micRespv1l1_2023-09-11_16h20.30.334.wav,None,,,,,,,,,695107,001,2023-09-11_16h18.04.778,REPSWITCH1_version1_list1,2022.2.4,143.9285899649341,
REPSWITCH1/PICTURE_175.png,pintor,type,darkblue,nontarget,1,NT,2,1,1,1,Stim1_Set2,1,switch,28,27,28,0,27,27,27,,154.10025859996676,,,,,,,,,,,,,,,,,,,,,,,149.94657750055194,151.08586920052767,151.08586920052767,151.08586920052767,151.08586920052767,151.08586920052767,151.08586920052767,151.08586920052767,0.003980100154876709,"['a', 'r', 't', 'i', 's', 't', 'e']",0,"[1.127110599540174, 1.239092799834907, 1.415094499476254, 1.5587703995406628, 1.6876587001606822, 2.086689899675548, 2.198760099709034]",artiste,C:\2023\Repswitch_Korta_11092023\REPSWITCH_excgange\REPSWITCH_excgange\data/695107_REPSWITCH1_version1_list1_2023-09-11_16h18.04.778_micRespv1l1_recorded\recording_micRespv1l1_2023-09-11_16h20.34.989.wav,None,,,,,,,,,695107,001,2023-09-11_16h18.04.778,REPSWITCH1_version1_list1,2022.2.4,143.9285899649341,
REPSWITCH1/PICTURE_175.png,pintor,type,darkblue,repeat,1,T,2,1,1,1,Stim1_Set2,0,None,29,28,29,0,28,28,28,,158.69079180061817,,,,,,,,,,,,,,,,,,,,,,,154.59991990029812,155.67669660039246,155.67669660039246,155.67669660039246,155.67669660039246,155.67669660039246,155.67669660039246,155.67669660039246,0.0014302004128694534,"['p', 'e', 'i', 'n', 't', 'r', 'e']",0,"[0.9520062990486622, 1.0320040993392467, 1.128006899729371, 1.2567398995161057, 1.3047429993748665, 1.4805655991658568, 1.5285642994567752]",peintre,C:\2023\Repswitch_Korta_11092023\REPSWITCH_excgange\REPSWITCH_excgange\data/695107_REPSWITCH1_version1_list1_2023-09-11_16h18.04.778_micRespv1l1_recorded\recording_micRespv1l1_2023-09-11_16h20.39.577.wav,None,,,,,,,,,695107,001,2023-09-11_16h18.04.778,REPSWITCH1_version1_list1,2022.2.4,143.9285899649341,
REPSWITCH1/PICTURE_381.png,fresa,speak,gold,filler,2,F,2,1,1,1,Stim2_Set1,0,None,30,29,30,0,29,29,29,,163.35736880078912,,,,,,,,,,,,,,,,,,,,,,,159.19073240086436,160.34391280077398,160.34391280077398,160.34391280077398,160.34391280077398,160.34391280077398,160.34391280077398,160.34391280077398,0.0016190996393561363,None,0,,,C:\2023\Repswitch_Korta_11092023\REPSWITCH_excgange\REPSWITCH_excgange\data/695107_REPSWITCH1_version1_list1_2023-09-11_16h18.04.778_micRespv1l1_recorded\recording_micRespv1l1_2023-09-11_16h20.44.246.wav,None,163.35736880078912,163.35736880078912,163.35736880078912,163.35736880078912,163.35736880078912,163.35736880078912,,,695107,001,2023-09-11_16h18.04.778,REPSWITCH1_version1_list1,2022.2.4,143.9285899649341,
REPSWITCH1/PICTURE_152.png,caracol,type,darkblue,nontarget,1,NT,2,1,1,1,Stim2_Set2,1,switch,31,30,31,0,30,30,30,,167.99050740059465,,,,,,,,,,,,,,,,,,,,,,,163.8574076006189,164.975529900752,164.975529900752,164.975529900752,164.975529900752,164.975529900752,164.975529900752,164.975529900752,0.004106700420379639,"['e', 's', 'c', 'a', 'r', 'g', 'o', 't']",0,"[0.8216916993260384, 0.9333778992295265, 1.1258438993245363, 1.205918699502945, 1.317863400094211, 1.4938659993931651, 1.6698744995519519, 1.7656001998111606]",escargot,C:\2023\Repswitch_Korta_11092023\REPSWITCH_excgange\REPSWITCH_excgange\data/695107_REPSWITCH1_version1_list1_2023-09-11_16h18.04.778_micRespv1l1_recorded\recording_micRespv1l1_2023-09-11_16h20.48.879.wav,None,,,,,,,,,695107,001,2023-09-11_16h18.04.778,REPSWITCH1_version1_list1,2022.2.4,143.9285899649341,
REPSWITCH1/PICTURE_152.png,caracol,type,darkblue,repeat,1,T,2,1,1,1,Stim2_Set2,0,None,32,31,32,0,31,31,31,,172.62341530062258,,,,,,,,,,,,,,,,,,,,,,,168.49045550078154,169.60890800040215,169.60890800040215,169.60890800040215,169.60890800040215,169.60890800040215,169.60890800040215,169.60890800040215,0.0015657003968954086,"['e', 's', 'c', 'a', 'r', 'g', 'o', 't']",0,"[0.4439338995143771, 0.5719627998769283, 0.7478308994323015, 0.8443686999380589, 0.9402756998315454, 1.1319468999281526, 1.2925239000469446, 1.3884918997064233]",escargot,C:\2023\Repswitch_Korta_11092023\REPSWITCH_excgange\REPSWITCH_excgange\data/695107_REPSWITCH1_version1_list1_2023-09-11_16h18.04.778_micRespv1l1_recorded\recording_micRespv1l1_2023-09-11_16h20.53.511.wav,None,,,,,,,,,695107,001,2023-09-11_16h18.04.778,REPSWITCH1_version1_list1,2022.2.4,143.9285899649341,
REPSWITCH1/PICTURE_128.png,muñeca,speak,gold,filler,2,F,2,1,1,1,Stim4_Set1,0,None,33,32,33,0,32,32,32,,177.21382340043783,,,,,,,,,,,,,,,,,,,,,,,173.12305490020663,174.19970070011914,174.19970070011914,174.19970070011914,174.19970070011914,174.19970070011914,174.19970070011914,174.19970070011914,0.0014437995851039886,None,0,,,C:\2023\Repswitch_Korta_11092023\REPSWITCH_excgange\REPSWITCH_excgange\data/695107_REPSWITCH1_version1_list1_2023-09-11_16h18.04.778_micRespv1l1_recorded\recording_micRespv1l1_2023-09-11_16h20.58.100.wav,None,,,,,,,,,695107,001,2023-09-11_16h18.04.778,REPSWITCH1_version1_list1,2022.2.4,143.9285899649341,
REPSWITCH1/PICTURE_264.png,mano,type,darkblue,nontarget,1,NT,2,1,1,1,Stim3_Set2,0,None,34,33,34,0,33,33,33,,181.80481150001287,,,,,,,,,,,,,,,,,,,,,,,177.7137289000675,178.79745130054653,178.79745130054653,178.79745130054653,178.79745130054653,178.79745130054653,178.79745130054653,178.79745130054653,0.004624400287866592,"['m', 'a', 'i', 'n']",0,"[0.9515407998114824, 1.0316436002030969, 1.1599332001060247, 1.2559301992878318]",main,C:\2023\Repswitch_Korta_11092023\REPSWITCH_excgange\REPSWITCH_excgange\data/695107_REPSWITCH1_version1_list1_2023-09-11_16h18.04.778_micRespv1l1_recorded\recording_micRespv1l1_2023-09-11_16h21.02.692.wav,None,,,,,,,,,695107,001,2023-09-11_16h18.04.778,REPSWITCH1_version1_list1,2022.2.4,143.9285899649341,
REPSWITCH1/PICTURE_264.png,mano,speak,gold,switch,2,T,2,1,1,1,Stim3_Set2,0,None,35,34,35,0,34,34,34,,186.46491020079702,,,,,,,,,,,,,,,,,,,,,,,182.30457979999483,183.45082030072808,183.45082030072808,183.45082030072808,183.45082030072808,183.45082030072808,183.45082030072808,183.45082030072808,0.0014541000127792358,None,0,,,C:\2023\Repswitch_Korta_11092023\REPSWITCH_excgange\REPSWITCH_excgange\data/695107_REPSWITCH1_version1_list1_2023-09-11_16h18.04.778_micRespv1l1_recorded\recording_micRespv1l1_2023-09-11_16h21.07.352.wav,None,186.46491020079702,186.46491020079702,186.46491020079702,186.46491020079702,186.46491020079702,186.46491020079702,,,695107,001,2023-09-11_16h18.04.778,REPSWITCH1_version1_list1,2022.2.4,143.9285899649341,
REPSWITCH1/PICTURE_517.png,cuerda,speak,gold,nontarget,2,NT,2,1,1,1,Stim4_Set2,1,repeat,36,35,36,0,35,35,35,,191.0696176001802,,,,,,,,,,,,,,,,,,,,,,,186.96494070068002,188.06221560016274,188.06221560016274,188.06221560016274,188.06221560016274,188.06221560016274,188.06221560016274,188.06221560016274,0.004496200010180473,None,0,,,C:\2023\Repswitch_Korta_11092023\REPSWITCH_excgange\REPSWITCH_excgange\data/695107_REPSWITCH1_version1_list1_2023-09-11_16h18.04.778_micRespv1l1_recorded\recording_micRespv1l1_2023-09-11_16h21.11.957.wav,None,,,,,,,,,695107,001,2023-09-11_16h18.04.778,REPSWITCH1_version1_list1,2022.2.4,143.9285899649341,
REPSWITCH1/PICTURE_517.png,cuerda,type,darkblue,switch,1,T,2,1,1,1,Stim4_Set2,0,None,37,36,37,0,36,36,36,,195.7854441003874,,,,,,,,,,,,,,,,,,,,,,,191.56955630052835,192.7711697006598,192.7711697006598,192.7711697006598,192.7711697006598,192.7711697006598,192.7711697006598,192.7711697006598,0.0014698002487421036,"['c', 'o', 'r', 'd', 'e']",0,"[0.753927699290216, 0.8662469992414117, 0.9943143995478749, 1.1703071994706988, 1.3303144993260503]",corde,C:\2023\Repswitch_Korta_11092023\REPSWITCH_excgange\REPSWITCH_excgange\data/695107_REPSWITCH1_version1_list1_2023-09-11_16h18.04.778_micRespv1l1_recorded\recording_micRespv1l1_2023-09-11_16h21.16.672.wav,None,,,,,,,,,695107,001,2023-09-11_16h18.04.778,REPSWITCH1_version1_list1,2022.2.4,143.9285899649341,
REPSWITCH1/PICTURE_135.png,traje,type,darkblue,filler,1,F,2,1,1,1,Stim3_Set1,0,None,38,37,38,0,37,37,37,,200.3831898001954,,,,,,,,,,,,,,,,,,,,,,,196.2856886005029,197.369116300717,197.369116300717,197.369116300717,197.369116300717,197.369116300717,197.369116300717,197.369116300717,0.0012891991063952446,"['c', 'o', 's', 't', 'u', 'm', 'e']",0,"[0.8924794998019934, 1.0042305998504162, 1.1162058990448713, 1.2442832998931408, 1.3722165990620852, 1.6282206997275352, 1.7242156993597746]",costume,C:\2023\Repswitch_Korta_11092023\REPSWITCH_excgange\REPSWITCH_excgange\data/695107_REPSWITCH1_version1_list1_2023-09-11_16h18.04.778_micRespv1l1_recorded\recording_micRespv1l1_2023-09-11_16h21.21.269.wav,None,,,,,,,,,695107,001,2023-09-11_16h18.04.778,REPSWITCH1_version1_list1,2022.2.4,143.9285899649341,
REPSWITCH1/PICTURE_30.png,granja,type,darkblue,nontarget,1,NT,2,1,1,1,Stim5_Set2,1,repeat,39,38,39,0,38,38,38,,205.03571570012718,,,,,,,,,,,,,,,,,,,,,,205.5358323007822,200.8831517007202,202.02243090048432,202.02243090048432,202.02243090048432,202.02243090048432,202.02243090048432,202.02243090048432,202.02243090048432,0.004555600695312023,"['f', 'e', 'r', 'm', 'e']",0,"[1.0236564995720983, 1.1503495993092656, 1.1983552994206548, 1.3262920994311571, 1.4062904994934797]",ferme,C:\2023\Repswitch_Korta_11092023\REPSWITCH_excgange\REPSWITCH_excgange\data/695107_REPSWITCH1_version1_list1_2023-09-11_16h18.04.778_micRespv1l1_recorded\recording_micRespv1l1_2023-09-11_16h21.25.927.wav,None,205.03571570012718,205.03571570012718,205.03571570012718,205.03571570012718,205.03571570012718,205.03571570012718,,,695107,001,2023-09-11_16h18.04.778,REPSWITCH1_version1_list1,2022.2.4,143.9285899649341,
REPSWITCH1/PICTURE_30.png,granja,speak,gold,switch,2,T,2,1,1,1,Stim5_Set2,0,None,40,39,40,0,39,39,39,,209.64125560037792,,,,,,,,,,,,,,,,,,,,,,,205.5358323007822,206.6275101006031,206.6275101006031,206.6275101006031,206.6275101006031,206.6275101006031,206.6275101006031,206.6275101006031,0.002034599892795086,None,0,,,C:\2023\Repswitch_Korta_11092023\REPSWITCH_excgange\REPSWITCH_excgange\data/695107_REPSWITCH1_version1_list1_2023-09-11_16h18.04.778_micRespv1l1_recorded\recording_micRespv1l1_2023-09-11_16h21.30.529.wav,None,,,,,,,,,695107,001,2023-09-11_16h18.04.778,REPSWITCH1_version1_list1,2022.2.4,143.9285899649341,
REPSWITCH1/PICTURE_142.png,vaso,type,darkblue,filler,1,F,2,1,1,1,Stim7_Set1,0,None,41,40,41,0,40,40,40,,214.19735080003738,,,,,,,,,,,,,,,,,,,,,,,210.14119170047343,211.18325380049646,211.18325380049646,211.18325380049646,211.18325380049646,211.18325380049646,211.18325380049646,211.18325380049646,0.001331700012087822,"['v', 'e', 'r', 'r', 'e']",0,"[0.7416642997413874, 0.8854180993512273, 0.9817888997495174, 1.1256815996021032, 1.1893333001062274]",verre,C:\2023\Repswitch_Korta_11092023\REPSWITCH_excgange\REPSWITCH_excgange\data/695107_REPSWITCH1_version1_list1_2023-09-11_16h18.04.778_micRespv1l1_recorded\recording_micRespv1l1_2023-09-11_16h21.35.084.wav,None,,,,,,,,,695107,001,2023-09-11_16h18.04.778,REPSWITCH1_version1_list1,2022.2.4,143.9285899649341,
REPSWITCH1/PICTURE_19.png,pavo,speak,gold,filler,2,F,2,1,1,1,Stim5_Set1,1,switch,42,41,42,0,41,41,41,,218.84309960063547,,,,,,,,,,,,,,,,,,,,,,,214.69728760048747,215.82964840065688,215.82964840065688,215.82964840065688,215.82964840065688,215.82964840065688,215.82964840065688,215.82964840065688,0.0017810994759202003,None,0,,,C:\2023\Repswitch_Korta_11092023\REPSWITCH_excgange\REPSWITCH_excgange\data/695107_REPSWITCH1_version1_list1_2023-09-11_16h18.04.778_micRespv1l1_recorded\recording_micRespv1l1_2023-09-11_16h21.39.731.wav,None,218.84309960063547,218.84309960063547,218.84309960063547,218.84309960063547,218.84309960063547,218.84309960063547,,,695107,001,2023-09-11_16h18.04.778,REPSWITCH1_version1_list1,2022.2.4,143.9285899649341,
REPSWITCH1/PICTURE_552.png,manzana,speak,gold,nontarget,2,NT,2,1,1,1,Stim6_Set2,1,repeat,43,42,43,0,42,42,42,,223.45459820050746,,,,,,,,,,,,,,,,,,,,,,,219.3431583000347,220.4404685003683,220.4404685003683,220.4404685003683,220.4404685003683,220.4404685003683,220.4404685003683,220.4404685003683,0.004035799764096737,"['p', 'o']",0,"[1.1645561996847391, 1.2605618992820382]",po,C:\2023\Repswitch_Korta_11092023\REPSWITCH_excgange\REPSWITCH_excgange\data/695107_REPSWITCH1_version1_list1_2023-09-11_16h18.04.778_micRespv1l1_recorded\recording_micRespv1l1_2023-09-11_16h21.44.344.wav,None,,,,,,,,,695107,001,2023-09-11_16h18.04.778,REPSWITCH1_version1_list1,2022.2.4,143.9285899649341,
REPSWITCH1/PICTURE_552.png,manzana,speak,gold,repeat,2,T,2,1,1,1,Stim6_Set2,0,None,44,43,44,0,43,43,43,,228.06011670082808,,,,,,,,,,,,,,,,,,,,,,,223.9546515000984,225.03766150027514,225.03766150027514,225.03766150027514,225.03766150027514,225.03766150027514,225.03766150027514,225.03766150027514,0.00157259963452816,None,0,,,C:\2023\Repswitch_Korta_11092023\REPSWITCH_excgange\REPSWITCH_excgange\data/695107_REPSWITCH1_version1_list1_2023-09-11_16h18.04.778_micRespv1l1_recorded\recording_micRespv1l1_2023-09-11_16h21.48.947.wav,None,228.06011670082808,228.06011670082808,228.06011670082808,228.06011670082808,228.06011670082808,228.06011670082808,,,695107,001,2023-09-11_16h18.04.778,REPSWITCH1_version1_list1,2022.2.4,143.9285899649341,
REPSWITCH1/PICTURE_16.png,cazador,type,darkblue,filler,1,F,2,1,1,1,Stim6_Set1,0,None,45,44,45,0,44,44,44,,232.63703900016844,,,,,,,,,,,,,,,,,,,,,,,228.56004230026156,229.6229453003034,229.6229453003034,229.6229453003034,229.6229453003034,229.6229453003034,229.6229453003034,229.6229453003034,0.0015314007177948952,"['c', 'h', 'a', 's', 's', 'e', 'u', 'r']",0,"[0.8943394990637898, 0.9903456997126341, 1.0383431995287538, 1.3263489995151758, 1.518343199044466, 1.7740814993157983, 1.9020773991942406, 1.9989054994657636]",chasseur,C:\2023\Repswitch_Korta_11092023\REPSWITCH_excgange\REPSWITCH_excgange\data/695107_REPSWITCH1_version1_list1_2023-09-11_16h18.04.778_micRespv1l1_recorded\recording_micRespv1l1_2023-09-11_16h21.53.523.wav,None,,,,,,,,,695107,001,2023-09-11_16h18.04.778,REPSWITCH1_version1_list1,2022.2.4,143.9285899649341,
REPSWITCH1/PICTURE_446.png,cerdo,speak,gold,nontarget,2,NT,2,1,1,1,Stim7_Set2,1,switch,46,45,46,0,45,45,45,,237.35298399999738,,,,,,,,,,,,,,,,,,,,,,,233.13696500007063,234.33868320006877,234.33868320006877,234.33868320006877,234.33868320006877,234.33868320006877,234.33868320006877,234.33868320006877,0.0038801999762654305,None,0,,,C:\2023\Repswitch_Korta_11092023\REPSWITCH_excgange\REPSWITCH_excgange\data/695107_REPSWITCH1_version1_list1_2023-09-11_16h18.04.778_micRespv1l1_recorded\recording_micRespv1l1_2023-09-11_16h21.58.243.wav,None,,,,,,,,,695107,001,2023-09-11_16h18.04.778,REPSWITCH1_version1_list1,2022.2.4,143.9285899649341,
REPSWITCH1/PICTURE_446.png,cerdo,speak,gold,repeat,2,T,2,1,1,1,Stim7_Set2,0,None,47,46,47,0,46,46,46,,241.91591180022806,,,,,,,,,,,,,,,,,,,,,,,237.8529247008264,238.9017976000905,238.9017976000905,238.9017976000905,238.9017976000905,238.9017976000905,238.9017976000905,238.9017976000905,0.001461399719119072,None,0,,,C:\2023\Repswitch_Korta_11092023\REPSWITCH_excgange\REPSWITCH_excgange\data/695107_REPSWITCH1_version1_list1_2023-09-11_16h18.04.778_micRespv1l1_recorded\recording_micRespv1l1_2023-09-11_16h22.02.803.wav,None,,,,,,,,,695107,001,2023-09-11_16h18.04.778,REPSWITCH1_version1_list1,2022.2.4,143.9285899649341,
REPSWITCH1/PICTURE_590.png,escoba,type,darkblue,filler,1,F,2,1,1,1,Extra3,0,None,48,47,48,0,47,47,47,,246.51367700006813,,,,,,,,,,,,,,,,,,,,,,,242.41583910025656,243.50672820024192,243.50672820024192,243.50672820024192,243.50672820024192,243.50672820024192,243.50672820024192,243.50672820024192,0.004546400159597397,"['b', 'a', 'l', 'a', 'i']",0,"[0.898462999612093, 0.9467230001464486, 1.0902054999023676, 1.1382071003317833, 1.299215099774301]",balai,C:\2023\Repswitch_Korta_11092023\REPSWITCH_excgange\REPSWITCH_excgange\data/695107_REPSWITCH1_version1_list1_2023-09-11_16h18.04.778_micRespv1l1_recorded\recording_micRespv1l1_2023-09-11_16h22.07.400.wav,None,,,,,,,,,695107,001,2023-09-11_16h18.04.778,REPSWITCH1_version1_list1,2022.2.4,143.9285899649341,
REPSWITCH1/PICTURE_169.png,espalda,speak,gold,filler,2,F,2,1,1,1,Stim8_Set1,0,None,49,48,49,0,48,48,48,,251.1044871006161,,,,,,,,,,,,,,,,,,,,,,,247.01361640077084,248.09063780028373,248.09063780028373,248.09063780028373,248.09063780028373,248.09063780028373,248.09063780028373,248.09063780028373,0.0013380004093050957,None,0,,,C:\2023\Repswitch_Korta_11092023\REPSWITCH_excgange\REPSWITCH_excgange\data/695107_REPSWITCH1_version1_list1_2023-09-11_16h18.04.778_micRespv1l1_recorded\recording_micRespv1l1_2023-09-11_16h22.11.991.wav,None,,,,,,,,,695107,001,2023-09-11_16h18.04.778,REPSWITCH1_version1_list1,2022.2.4,143.9285899649341,
REPSWITCH1/PICTURE_199.png,falda,speak,gold,nontarget,2,NT,2,1,1,1,Stim8_Set2,1,repeat,50,49,50,0,49,49,49,,255.76399960089475,,,,,,,,,,,,,,,,,,,,,,256.26403090078384,251.60442330036312,252.75062360055745,252.75062360055745,252.75062360055745,252.75062360055745,252.75062360055745,252.75062360055745,252.75062360055745,0.004643299616873264,None,0,,,C:\2023\Repswitch_Korta_11092023\REPSWITCH_excgange\REPSWITCH_excgange\data/695107_REPSWITCH1_version1_list1_2023-09-11_16h18.04.778_micRespv1l1_recorded\recording_micRespv1l1_2023-09-11_16h22.16.654.wav,None,255.76399960089475,255.76399960089475,255.76399960089475,255.76399960089475,255.76399960089475,255.76399960089475,,,695107,001,2023-09-11_16h18.04.778,REPSWITCH1_version1_list1,2022.2.4,143.9285899649341,
,,,,,,,,,,,,,,,,,,,,,,260.3208742002025,,,,,,,,,,,,,,,,,,,,,,,256.26403090078384,257.29886640049517,257.29886640049517,257.29886640049517,257.29886640049517,257.29886640049517,257.29886640049517,257.29886640049517,0.0014747008681297302,"['j', 'u', 'p', 'e']",0,"[0.7701519997790456, 0.946154098957777, 1.042112398892641, 1.138034699484706]",jupe,C:\2023\Repswitch_Korta_11092023\REPSWITCH_excgange\REPSWITCH_excgange\data/695107_REPSWITCH1_version1_list1_2023-09-11_16h18.04.778_micRespv1l1_recorded\recording_micRespv1l1_2023-09-11_16h22.21.207.wav,,260.3208742002025,260.3208742002025,260.3208742002025,260.3208742002025,260.3208742002025,260.3208742002025,260.8202085001394,260.8202085001394,,,,,,,
