image;correctAns;respModal;frameColor;repSwitch;sequence;target;set;block;list;exp_version;stimulus;baseline;baseline_condition;trial_no;psychopy_trial;Column1;trialsREPSWITCH.thisRepN;trialsREPSWITCH.thisTrialN;trialsREPSWITCH.thisN;trialsREPSWITCH.thisIndex;textWelcome.started;textboxInstrMain1.started;textboxInstrMain1_2.started;textboxInstrMain1_3.started;keyInstrMain.started;keyInstrMain.keys;keyInstrMain.rt;textboxInstrMain2.started;textboxInstrMain2_2.started;textboxInstrMain2_3.started;textboxInstrMain2_4.started;textboxInstrMain2_5.started;textboxInstrMain2_6.started;textboxInstrMain2_7.started;textboxInstrMain2_8.started;textboxInstrMain2_9.started;textboxInstrMain2_10.started;textboxInstrMain2_11.started;textboxInstrMain2_12.started;keyInstrMain2.started;keyInstrMain2.keys;keyInstrMain2.rt;fixationITI.started;fixationITI.stopped;polygonColour.started;polygonWhite.started;imageObject.started;polygonType.started;textInput.started;keyResp.started;micRespv1l4.started;polygonColour.stopped;polygonWhite.stopped;imageObject.stopped;polygonType.stopped;textInput.stopped;keyResp.stopped;keyResp.keys;keyResp.corr;keyResp.rt;subjResponse;micRespv1l4.clip;textBlankLoop.started;textBlankLoop.stopped;keyPause.keys;textboxPause.started;keyPause.started;keyPause.rt;textboxGoodbye.started;textboxGoodbye.stopped;participant;session;date;expName;psychopyVersion;frameRate;Column2
;;;;;;;;;;;;;;;;;;;;;9.995186700019985;12.490722100017592;12.490722100017592;12.490722100017592;12.490722100017592;space;9.75453589996323;;;;;;;;;;;;;;;;;;;;;;;;;;;;;;;;;;;;;;;;;;;;150104;001;2023-11-28_16h09.12.624;REPSWITCH1_version1_list4;2022.2.4;143.8768186373534;
;;;;;;;;;;;;;;;;;;;;;;;;;;;;22.262907000025734;22.262907000025734;22.262907000025734;22.262907000025734;22.262907000025734;22.262907000025734;22.262907000025734;22.262907000025734;22.262907000025734;22.262907000025734;22.262907000025734;22.262907000025734;22.262907000025734;space;0.010173799935728312;;;;;;;;;;;;;;;;;;;;;;;;;;;;;150104;001;2023-11-28_16h09.12.624;REPSWITCH1_version1_list4;2022.2.4;143.8768186373534;
REPSWITCH1/PICTURE_8.png;pierna;type;darkblue;filler;1;F;1;4;4;1;Stim3_Set4;0;None;1;0;1;0;0;0;0;;;;;;;;;;;;;;;;;;;;;;;22.367004700005054;23.450452900025994;23.450452900025994;23.450452900025994;23.450452900025994;23.450452900025994;23.450452900025994;23.450452900025994;23.450452900025994;26.47873550001532;26.47873550001532;26.47873550001532;26.47873550001532;26.47873550001532;26.47873550001532;['p', 'i', 'e', 'r', 'n', 'a'];0;[1.3286379997152835, 1.533975799800828, 1.7011027997359633, 1.810302599798888, 1.9866660998668522, 2.078394799726084];pierna;C:\2023\REPSWITCH21092023\REPSWITCH_excgange\REPSWITCH_excgange\data/150104_REPSWITCH1_version1_list4_2023-11-28_16h09.12.624_micRespv1l4_recorded\recording_micRespv1l4_2023-11-28_16h09.30.966.wav;26.47873550001532;26.978730800095946;None;;;;;;150104;001;2023-11-28_16h09.12.624;REPSWITCH1_version1_list4;2022.2.4;143.8768186373534;
REPSWITCH1/PICTURE_498.png;taza;speak;gold;filler;2;F;1;4;4;1;Stim4_Set4;0;None;2;1;2;0;1;1;1;;;;;;;;;;;;;;;;;;;;;;;26.978730800095946;28.048307199962437;28.048307199962437;28.048307199962437;28.048307199962437;28.048307199962437;28.048307199962437;28.048307199962437;28.048307199962437;31.076542699942365;31.076542699942365;31.076542699942365;31.076542699942365;31.076542699942365;31.076542699942365;None;0;;;C:\2023\REPSWITCH21092023\REPSWITCH_excgange\REPSWITCH_excgange\data/150104_REPSWITCH1_version1_list4_2023-11-28_16h09.12.624_micRespv1l4_recorded\recording_micRespv1l4_2023-11-28_16h09.35.563.wav;31.076542699942365;;None;;;;;;150104;001;2023-11-28_16h09.12.624;REPSWITCH1_version1_list4;2022.2.4;143.8768186373534;
REPSWITCH1/PICTURE_19.png;pavo;speak;gold;nontarget;2;NT;1;4;4;1;Stim5_Set1;1;repeat;3;2;3;0;2;2;2;;;;;;;;;;;;;;;;;;;;;;;31.57654169993475;32.68086660001427;32.68086660001427;32.68086660001427;32.68086660001427;32.68086660001427;32.68086660001427;32.68086660001427;32.68086660001427;35.70207179989666;35.70207179989666;35.70207179989666;35.70207179989666;35.70207179989666;35.70207179989666;None;0;;;C:\2023\REPSWITCH21092023\REPSWITCH_excgange\REPSWITCH_excgange\data/150104_REPSWITCH1_version1_list4_2023-11-28_16h09.12.624_micRespv1l4_recorded\recording_micRespv1l4_2023-11-28_16h09.40.194.wav;35.70207179989666;36.20213650004007;None;;;;;;150104;001;2023-11-28_16h09.12.624;REPSWITCH1_version1_list4;2022.2.4;143.8768186373534;
REPSWITCH1/PICTURE_19.png;pavo;speak;gold;repeat;2;T;1;4;4;1;Stim5_Set1;0;None;4;3;4;0;3;3;3;;;;;;;;;;;;;;;;;;;;;;;36.20213650004007;37.25090100010857;37.25090100010857;37.25090100010857;37.25090100010857;37.25090100010857;37.25090100010857;37.25090100010857;37.25090100010857;40.272113899933174;40.272113899933174;40.272113899933174;40.272113899933174;40.272113899933174;40.272113899933174;None;0;;;C:\2023\REPSWITCH21092023\REPSWITCH_excgange\REPSWITCH_excgange\data/150104_REPSWITCH1_version1_list4_2023-11-28_16h09.12.624_micRespv1l4_recorded\recording_micRespv1l4_2023-11-28_16h09.44.765.wav;40.272113899933174;40.77216610009782;None;;;;;;150104;001;2023-11-28_16h09.12.624;REPSWITCH1_version1_list4;2022.2.4;143.8768186373534;
REPSWITCH1/PICTURE_319.png;vaca;type;darkblue;filler;1;F;1;4;4;1;Stim1_Set4;1;repeat;5;4;5;0;4;4;4;;;;;;;;;;;;;;;;;;;;;;;40.77216610009782;41.855743299936876;41.855743299936876;41.855743299936876;41.855743299936876;41.855743299936876;41.855743299936876;41.855743299936876;41.855743299936876;44.8838531000074;44.8838531000074;44.8838531000074;44.8838531000074;44.8838531000074;44.8838531000074;['v', 'a', 'c', 'a'];0;[1.3588599998038262, 1.5083541998174042, 1.6259364997968078, 1.724625799804926];vaca;C:\2023\REPSWITCH21092023\REPSWITCH_excgange\REPSWITCH_excgange\data/150104_REPSWITCH1_version1_list4_2023-11-28_16h09.12.624_micRespv1l4_recorded\recording_micRespv1l4_2023-11-28_16h09.49.369.wav;44.8838531000074;;None;;;;;;150104;001;2023-11-28_16h09.12.624;REPSWITCH1_version1_list4;2022.2.4;143.8768186373534;
REPSWITCH1/PICTURE_169.png;espalda;speak;gold;nontarget;2;NT;1;4;4;1;Stim8_Set1;1;switch;6;5;6;0;5;5;5;;;;;;;;;;;;;;;;;;;;;;;45.38399149989709;46.39100409997627;46.39100409997627;46.39100409997627;46.39100409997627;46.39100409997627;46.39100409997627;46.39100409997627;46.39100409997627;49.41219970001839;49.41219970001839;49.41219970001839;49.41219970001839;49.41219970001839;49.41219970001839;None;0;;;C:\2023\REPSWITCH21092023\REPSWITCH_excgange\REPSWITCH_excgange\data/150104_REPSWITCH1_version1_list4_2023-11-28_16h09.12.624_micRespv1l4_recorded\recording_micRespv1l4_2023-11-28_16h09.53.904.wav;49.41219970001839;49.91225400008261;None;;;;;;150104;001;2023-11-28_16h09.12.624;REPSWITCH1_version1_list4;2022.2.4;143.8768186373534;
REPSWITCH1/PICTURE_169.png;espalda;speak;gold;repeat;2;T;1;4;4;1;Stim8_Set1;0;None;7;6;7;0;6;6;6;;;;;;;;;;;;;;;;;;;;;;;49.91225400008261;51.02356999996118;51.02356999996118;51.02356999996118;51.02356999996118;51.02356999996118;51.02356999996118;51.02356999996118;51.02356999996118;54.0447774999775;54.0447774999775;54.0447774999775;54.0447774999775;54.0447774999775;54.0447774999775;None;0;;;C:\2023\REPSWITCH21092023\REPSWITCH_excgange\REPSWITCH_excgange\data/150104_REPSWITCH1_version1_list4_2023-11-28_16h09.12.624_micRespv1l4_recorded\recording_micRespv1l4_2023-11-28_16h09.58.537.wav;54.0447774999775;54.544840699993074;None;;;;;;150104;001;2023-11-28_16h09.12.624;REPSWITCH1_version1_list4;2022.2.4;143.8768186373534;
REPSWITCH1/PICTURE_728.png;pulpo;type;darkblue;filler;1;F;1;4;4;1;Stim8_Set4;0;None;8;7;8;0;7;7;7;;;;;;;;;;;;;;;;;;;;;;;54.544840699993074;55.6074995000381;55.6074995000381;55.6074995000381;55.6074995000381;55.6074995000381;55.6074995000381;55.6074995000381;55.6074995000381;58.62871420010924;58.62871420010924;58.62871420010924;58.62871420010924;58.62871420010924;58.62871420010924;['p', 'u', 'p', 'o'];0;[1.353263899916783, 1.5675317998975515, 2.0581904000137, 2.2216123999096453];pupo;C:\2023\REPSWITCH21092023\REPSWITCH_excgange\REPSWITCH_excgange\data/150104_REPSWITCH1_version1_list4_2023-11-28_16h09.12.624_micRespv1l4_recorded\recording_micRespv1l4_2023-11-28_16h10.03.121.wav;58.62871420010924;59.128773000091314;None;;;;;;150104;001;2023-11-28_16h09.12.624;REPSWITCH1_version1_list4;2022.2.4;143.8768186373534;
REPSWITCH1/PICTURE_142.png;vaso;speak;gold;nontarget;2;NT;1;4;4;1;Stim7_Set1;1;switch;9;8;9;0;8;8;8;;;;;;;;;;;;;;;;;;;;;;;59.128773000091314;60.26779660000466;60.26779660000466;60.26779660000466;60.26779660000466;60.26779660000466;60.26779660000466;60.26779660000466;60.26779660000466;63.296005399897695;63.296005399897695;63.296005399897695;63.296005399897695;63.296005399897695;63.296005399897695;None;0;;;C:\2023\REPSWITCH21092023\REPSWITCH_excgange\REPSWITCH_excgange\data/150104_REPSWITCH1_version1_list4_2023-11-28_16h09.12.624_micRespv1l4_recorded\recording_micRespv1l4_2023-11-28_16h10.07.782.wav;63.296005399897695;;None;;;;;;150104;001;2023-11-28_16h09.12.624;REPSWITCH1_version1_list4;2022.2.4;143.8768186373534;
REPSWITCH1/PICTURE_142.png;vaso;type;darkblue;switch;1;T;1;4;4;1;Stim7_Set1;0;None;10;9;10;0;9;9;9;;;;;;;;;;;;;;;;;;;;;;;63.79610039992258;64.98373740003444;64.98373740003444;64.98373740003444;64.98373740003444;64.98373740003444;64.98373740003444;64.98373740003444;64.98373740003444;68.005010999972;68.005010999972;68.005010999972;68.005010999972;68.005010999972;68.005010999972;['v', 'a', 's', 'o'];0;[1.4312267999630421, 1.5567678997758776, 1.653450699755922, 1.8967263998929411];vaso;C:\2023\REPSWITCH21092023\REPSWITCH_excgange\REPSWITCH_excgange\data/150104_REPSWITCH1_version1_list4_2023-11-28_16h09.12.624_micRespv1l4_recorded\recording_micRespv1l4_2023-11-28_16h10.12.497.wav;68.005010999972;68.5050083999522;None;;;;;;150104;001;2023-11-28_16h09.12.624;REPSWITCH1_version1_list4;2022.2.4;143.8768186373534;
REPSWITCH1/PICTURE_338.png;regalo;type;darkblue;filler;1;F;1;4;4;1;Stim6_Set4;1;repeat;11;10;11;0;10;10;10;;;;;;;;;;;;;;;;;;;;;;;68.5050083999522;69.58848270005547;69.58848270005547;69.58848270005547;69.58848270005547;69.58848270005547;69.58848270005547;69.58848270005547;69.58848270005547;72.60971640003845;72.60971640003845;72.60971640003845;72.60971640003845;72.60971640003845;72.60971640003845;['r', 'e', 'g', 'a', 'l', 'o'];0;[1.1159143999684602, 1.245440499857068, 1.3690531000029296, 1.5013748998753726, 1.6886752999853343, 1.8393295998685062];regalo;C:\2023\REPSWITCH21092023\REPSWITCH_excgange\REPSWITCH_excgange\data/150104_REPSWITCH1_version1_list4_2023-11-28_16h09.12.624_micRespv1l4_recorded\recording_micRespv1l4_2023-11-28_16h10.17.102.wav;72.60971640003845;73.10977440001443;None;;;;;;150104;001;2023-11-28_16h09.12.624;REPSWITCH1_version1_list4;2022.2.4;143.8768186373534;
REPSWITCH1/PICTURE_135.png;traje;type;darkblue;nontarget;1;NT;1;4;4;1;Stim3_Set1;1;repeat;12;11;12;0;11;11;11;;;;;;;;;;;;;;;;;;;;;;;73.10977440001443;74.1863919000607;74.1863919000607;74.1863919000607;74.1863919000607;74.1863919000607;74.1863919000607;74.1863919000607;74.1863919000607;77.20752779999748;77.20752779999748;77.20752779999748;77.20752779999748;77.20752779999748;77.20752779999748;['t', 'r', 'a', 'j', 'e'];0;[1.1274457999970764, 1.280926899984479, 1.3775929999537766, 1.5832433998584747, 1.6570013999007642];traje;C:\2023\REPSWITCH21092023\REPSWITCH_excgange\REPSWITCH_excgange\data/150104_REPSWITCH1_version1_list4_2023-11-28_16h09.12.624_micRespv1l4_recorded\recording_micRespv1l4_2023-11-28_16h10.21.700.wav;77.20752779999748;77.70759669994004;None;;;;;;150104;001;2023-11-28_16h09.12.624;REPSWITCH1_version1_list4;2022.2.4;143.8768186373534;
REPSWITCH1/PICTURE_135.png;traje;speak;gold;switch;2;T;1;4;4;1;Stim3_Set1;0;None;13;12;13;0;12;12;12;;;;;;;;;;;;;;;;;;;;;;;77.70759669994004;78.74941690010019;78.74941690010019;78.74941690010019;78.74941690010019;78.74941690010019;78.74941690010019;78.74941690010019;78.74941690010019;81.7775769000873;81.7775769000873;81.7775769000873;81.7775769000873;81.7775769000873;81.7775769000873;None;0;;;C:\2023\REPSWITCH21092023\REPSWITCH_excgange\REPSWITCH_excgange\data/150104_REPSWITCH1_version1_list4_2023-11-28_16h09.12.624_micRespv1l4_recorded\recording_micRespv1l4_2023-11-28_16h10.26.263.wav;81.7775769000873;;None;;;;;;150104;001;2023-11-28_16h09.12.624;REPSWITCH1_version1_list4;2022.2.4;143.8768186373534;
REPSWITCH1/PICTURE_381.png;fresa;speak;gold;nontarget;2;NT;1;4;4;1;Stim2_Set1;1;repeat;14;13;14;0;13;13;13;;;;;;;;;;;;;;;;;;;;;;;82.27764170011505;83.43063830002211;83.43063830002211;83.43063830002211;83.43063830002211;83.43063830002211;83.43063830002211;83.43063830002211;83.43063830002211;86.45176329999231;86.45176329999231;86.45176329999231;86.45176329999231;86.45176329999231;86.45176329999231;None;0;;;C:\2023\REPSWITCH21092023\REPSWITCH_excgange\REPSWITCH_excgange\data/150104_REPSWITCH1_version1_list4_2023-11-28_16h09.12.624_micRespv1l4_recorded\recording_micRespv1l4_2023-11-28_16h10.30.944.wav;86.45176329999231;86.95188540010713;None;;;;;;150104;001;2023-11-28_16h09.12.624;REPSWITCH1_version1_list4;2022.2.4;143.8768186373534;
REPSWITCH1/PICTURE_381.png;fresa;type;darkblue;switch;1;T;1;4;4;1;Stim2_Set1;0;None;15;14;15;0;14;14;14;;;;;;;;;;;;;;;;;;;;;;;86.95188540010713;88.05619270005263;88.05619270005263;88.05619270005263;88.05619270005263;88.05619270005263;88.05619270005263;88.05619270005263;88.05619270005263;91.0774068001192;91.0774068001192;91.0774068001192;91.0774068001192;91.0774068001192;91.0774068001192;['f', 'r', 'e', 's', 'a'];0;[1.0786574997473508, 1.2630967998411506, 1.5188447998370975, 1.783048699842766, 1.8446577999275178];fresa;C:\2023\REPSWITCH21092023\REPSWITCH_excgange\REPSWITCH_excgange\data/150104_REPSWITCH1_version1_list4_2023-11-28_16h09.12.624_micRespv1l4_recorded\recording_micRespv1l4_2023-11-28_16h10.35.569.wav;91.0774068001192;91.57754760002717;None;;;;;;150104;001;2023-11-28_16h09.12.624;REPSWITCH1_version1_list4;2022.2.4;143.8768186373534;
REPSWITCH1/PICTURE_48.png;bombero;type;darkblue;filler;1;F;1;4;4;1;Stim7_Set4;0;None;16;15;16;0;15;15;15;;;;;;;;;;;;;;;;;;;;;;;91.57754760002717;92.62628110009246;92.62628110009246;92.62628110009246;92.62628110009246;92.62628110009246;92.62628110009246;92.62628110009246;92.62628110009246;95.65438510011882;95.65438510011882;95.65438510011882;95.65438510011882;95.65438510011882;95.65438510011882;['b', 'o', 'm', 'b', 'e', 'r', 'o'];0;[1.1860723998397589, 1.3139984998852015, 2.089616899844259, 2.317868599668145, 2.43348649982363, 2.5202008998021483, 2.6976066997740418];bombero;C:\2023\REPSWITCH21092023\REPSWITCH_excgange\REPSWITCH_excgange\data/150104_REPSWITCH1_version1_list4_2023-11-28_16h09.12.624_micRespv1l4_recorded\recording_micRespv1l4_2023-11-28_16h10.40.141.wav;95.65438510011882;;None;;;;;;150104;001;2023-11-28_16h09.12.624;REPSWITCH1_version1_list4;2022.2.4;143.8768186373534;
REPSWITCH1/PICTURE_687.png;camisa;speak;gold;filler;2;F;1;4;4;1;Stim5_Set4;0;None;17;16;17;0;16;16;16;;;;;;;;;;;;;;;;;;;;;;;96.1544449001085;97.2587693000678;97.2587693000678;97.2587693000678;97.2587693000678;97.2587693000678;97.2587693000678;97.2587693000678;97.2587693000678;100.2800741000101;100.2800741000101;100.2800741000101;100.2800741000101;100.2800741000101;100.2800741000101;None;0;;;C:\2023\REPSWITCH21092023\REPSWITCH_excgange\REPSWITCH_excgange\data/150104_REPSWITCH1_version1_list4_2023-11-28_16h09.12.624_micRespv1l4_recorded\recording_micRespv1l4_2023-11-28_16h10.44.773.wav;100.2800741000101;100.78004610002972;None;;;;;;150104;001;2023-11-28_16h09.12.624;REPSWITCH1_version1_list4;2022.2.4;143.8768186373534;
REPSWITCH1/PICTURE_128.png;muñeca;type;darkblue;nontarget;1;NT;1;4;4;1;Stim4_Set1;0;None;18;17;18;0;17;17;17;;;;;;;;;;;;;;;;;;;;;;;100.78004610002972;101.9607995999977;101.9607995999977;101.9607995999977;101.9607995999977;101.9607995999977;101.9607995999977;101.9607995999977;101.9607995999977;104.98895299993455;104.98895299993455;104.98895299993455;104.98895299993455;104.98895299993455;104.98895299993455;['m', 'u', 'ñ', 'e', 'c', 'a'];0;[1.0593199997674674, 1.2479686997830868, 1.6188674997538328, 1.7118360998574644, 1.944864799734205, 2.0949050998315215];muñeca;C:\2023\REPSWITCH21092023\REPSWITCH_excgange\REPSWITCH_excgange\data/150104_REPSWITCH1_version1_list4_2023-11-28_16h09.12.624_micRespv1l4_recorded\recording_micRespv1l4_2023-11-28_16h10.49.475.wav;104.98895299993455;;None;;;;;;150104;001;2023-11-28_16h09.12.624;REPSWITCH1_version1_list4;2022.2.4;143.8768186373534;
REPSWITCH1/PICTURE_128.png;muñeca;type;darkblue;repeat;1;T;1;4;4;1;Stim4_Set1;0;None;19;18;19;0;18;18;18;;;;;;;;;;;;;;;;;;;;;;;105.48900950001553;106.64894409989938;106.64894409989938;106.64894409989938;106.64894409989938;106.64894409989938;106.64894409989938;106.64894409989938;106.64894409989938;109.67009619995952;109.67009619995952;109.67009619995952;109.67009619995952;109.67009619995952;109.67009619995952;['m', 'u', 'ñ', 'e', 'c', 'a'];0;[1.5163031998090446, 1.8836850998923182, 2.226825299905613, 2.301583099877462, 2.5391167998313904, 2.6485297000035644];muñeca;C:\2023\REPSWITCH21092023\REPSWITCH_excgange\REPSWITCH_excgange\data/150104_REPSWITCH1_version1_list4_2023-11-28_16h09.12.624_micRespv1l4_recorded\recording_micRespv1l4_2023-11-28_16h10.54.163.wav;109.67009619995952;110.17022210010327;None;;;;;;150104;001;2023-11-28_16h09.12.624;REPSWITCH1_version1_list4;2022.2.4;143.8768186373534;
REPSWITCH1/PICTURE_719.png;baño;speak;gold;filler;2;F;1;4;4;1;Stim2_Set4;1;switch;20;19;20;0;19;19;19;;;;;;;;;;;;;;;;;;;;;;;110.17022210010327;111.39261340000667;111.39261340000667;111.39261340000667;111.39261340000667;111.39261340000667;111.39261340000667;111.39261340000667;111.39261340000667;114.42075930000283;114.42075930000283;114.42075930000283;114.42075930000283;114.42075930000283;114.42075930000283;None;0;;;C:\2023\REPSWITCH21092023\REPSWITCH_excgange\REPSWITCH_excgange\data/150104_REPSWITCH1_version1_list4_2023-11-28_16h09.12.624_micRespv1l4_recorded\recording_micRespv1l4_2023-11-28_16h10.58.907.wav;114.42075930000283;;None;;;;;;150104;001;2023-11-28_16h09.12.624;REPSWITCH1_version1_list4;2022.2.4;143.8768186373534;
REPSWITCH1/PICTURE_178.png;puente;type;darkblue;nontarget;1;NT;1;4;4;1;Stim1_Set1;1;switch;21;20;21;0;20;20;20;;;;;;;;;;;;;;;;;;;;;;;114.9208855999168;116.10150710004382;116.10150710004382;116.10150710004382;116.10150710004382;116.10150710004382;116.10150710004382;116.10150710004382;116.10150710004382;119.12272379989736;119.12272379989736;119.12272379989736;119.12272379989736;119.12272379989736;119.12272379989736;['p', 'u', 'e', 'n', 't', 'e'];0;[1.481843899935484, 1.713060999987647, 1.8336658999323845, 1.9492750999052078, 2.012463100021705, 2.1061779998708516];puente;C:\2023\REPSWITCH21092023\REPSWITCH_excgange\REPSWITCH_excgange\data/150104_REPSWITCH1_version1_list4_2023-11-28_16h09.12.624_micRespv1l4_recorded\recording_micRespv1l4_2023-11-28_16h11.03.615.wav;119.12272379989736;119.62281530001201;None;;;;;;150104;001;2023-11-28_16h09.12.624;REPSWITCH1_version1_list4;2022.2.4;143.8768186373534;
REPSWITCH1/PICTURE_178.png;puente;type;darkblue;repeat;1;T;1;4;4;1;Stim1_Set1;0;None;22;21;22;0;21;21;21;;;;;;;;;;;;;;;;;;;;;;;119.62281530001201;120.68552449997514;120.68552449997514;120.68552449997514;120.68552449997514;120.68552449997514;120.68552449997514;120.68552449997514;120.68552449997514;123.70668360008858;123.70668360008858;123.70668360008858;123.70668360008858;123.70668360008858;123.70668360008858;['p', 'u', 'e', 'n', 't', 'e'];0;[0.8327583998907357, 1.0500131999142468, 1.157630399800837, 1.254501599818468, 1.2944587997626513, 1.4077106998302042];puente;C:\2023\REPSWITCH21092023\REPSWITCH_excgange\REPSWITCH_excgange\data/150104_REPSWITCH1_version1_list4_2023-11-28_16h09.12.624_micRespv1l4_recorded\recording_micRespv1l4_2023-11-28_16h11.08.199.wav;123.70668360008858;124.20680380007252;None;;;;;;150104;001;2023-11-28_16h09.12.624;REPSWITCH1_version1_list4;2022.2.4;143.8768186373534;
REPSWITCH1/PICTURE_16.png;cazador;type;darkblue;nontarget;1;NT;1;4;4;1;Stim6_Set1;1;repeat;23;22;23;0;22;22;22;;;;;;;;;;;;;;;;;;;;;;;124.20680380007252;125.32500290009193;125.32500290009193;125.32500290009193;125.32500290009193;125.32500290009193;125.32500290009193;125.32500290009193;125.32500290009193;128.3531563000288;128.3531563000288;128.3531563000288;128.3531563000288;128.3531563000288;128.3531563000288;['c', 'a', 'z', 'a', 'd', 'o', 'r'];0;[1.6572516998276114, 1.912453199736774, 2.1026666997931898, 2.240622299723327, 2.413903599837795, 2.638110299827531, 2.7567632999271154];cazador;C:\2023\REPSWITCH21092023\REPSWITCH_excgange\REPSWITCH_excgange\data/150104_REPSWITCH1_version1_list4_2023-11-28_16h09.12.624_micRespv1l4_recorded\recording_micRespv1l4_2023-11-28_16h11.12.839.wav;128.3531563000288;;None;;;;;;150104;001;2023-11-28_16h09.12.624;REPSWITCH1_version1_list4;2022.2.4;143.8768186373534;
REPSWITCH1/PICTURE_16.png;cazador;speak;gold;switch;2;T;1;4;4;1;Stim6_Set1;0;None;24;23;24;0;23;23;23;;;;;;;;;;;;;;;;;;;;;;;128.8531607000623;129.93668700009584;129.93668700009584;129.93668700009584;129.93668700009584;129.93668700009584;129.93668700009584;129.93668700009584;129.93668700009584;132.9579288000241;132.9579288000241;132.9579288000241;132.9579288000241;132.9579288000241;132.9579288000241;None;0;;;C:\2023\REPSWITCH21092023\REPSWITCH_excgange\REPSWITCH_excgange\data/150104_REPSWITCH1_version1_list4_2023-11-28_16h09.12.624_micRespv1l4_recorded\recording_micRespv1l4_2023-11-28_16h11.17.450.wav;132.9579288000241;133.45796540006995;None;;;;;;150104;001;2023-11-28_16h09.12.624;REPSWITCH1_version1_list4;2022.2.4;143.8768186373534;
REPSWITCH1/PICTURE_19.png;pavo;type;darkblue;filler;1;F;2;4;4;1;Stim5_Set1;0;None;25;24;25;0;24;24;24;;;;;;;;;;;;;;;;;;;;;;;133.45796540006995;134.52752820006572;134.52752820006572;134.52752820006572;134.52752820006572;134.52752820006572;134.52752820006572;134.52752820006572;134.52752820006572;137.54873750009574;137.54873750009574;137.54873750009574;137.54873750009574;137.54873750009574;137.54873750009574;['p', 'a', 'v', 'o'];0;[1.0166092000436038, 1.1605378999374807, 1.3390470000449568, 1.525617399951443];pavo;C:\2023\REPSWITCH21092023\REPSWITCH_excgange\REPSWITCH_excgange\data/150104_REPSWITCH1_version1_list4_2023-11-28_16h09.12.624_micRespv1l4_recorded\recording_micRespv1l4_2023-11-28_16h11.22.041.wav;137.54873750009574;138.0488376999274;None;;;;;;150104;001;2023-11-28_16h09.12.624;REPSWITCH1_version1_list4;2022.2.4;143.8768186373534;
REPSWITCH1/PICTURE_199.png;falda;type;darkblue;nontarget;1;NT;2;4;4;1;Stim8_Set2;1;repeat;26;25;26;0;25;25;25;;;;;;;;;;;;;;;;;;;;;;;138.0488376999274;139.2503643000964;139.2503643000964;139.2503643000964;139.2503643000964;139.2503643000964;139.2503643000964;139.2503643000964;139.2503643000964;142.27863770001568;142.27863770001568;142.27863770001568;142.27863770001568;142.27863770001568;142.27863770001568;['f', 'a', 'l', 'd', 'a'];0;[1.186853899853304, 1.3224033997394145, 1.414474899880588, 1.6011709996964782, 1.6883217997383326];falda;C:\2023\REPSWITCH21092023\REPSWITCH_excgange\REPSWITCH_excgange\data/150104_REPSWITCH1_version1_list4_2023-11-28_16h09.12.624_micRespv1l4_recorded\recording_micRespv1l4_2023-11-28_16h11.26.765.wav;142.27863770001568;;None;;;;;;150104;001;2023-11-28_16h09.12.624;REPSWITCH1_version1_list4;2022.2.4;143.8768186373534;
REPSWITCH1/PICTURE_199.png;falda;type;darkblue;repeat;1;T;2;4;4;1;Stim8_Set2;0;None;27;26;27;0;26;26;26;;;;;;;;;;;;;;;;;;;;;;;142.77861219993792;143.8690933000762;143.8690933000762;143.8690933000762;143.8690933000762;143.8690933000762;143.8690933000762;143.8690933000762;143.8690933000762;146.89027499989606;146.89027499989606;146.89027499989606;146.89027499989606;146.89027499989606;146.89027499989606;['d', 'a', 'l', 'backspace', 'backspace', 'backspace', 'f', 'a', 'l'];0;[0.9361139999236912, 0.9989418999757618, 1.0666934000328183, 1.7853120998479426, 1.9318521998357028, 2.0773626000154763, 2.638344299979508, 2.7300044998992234, 2.864579299930483];fal;C:\2023\REPSWITCH21092023\REPSWITCH_excgange\REPSWITCH_excgange\data/150104_REPSWITCH1_version1_list4_2023-11-28_16h09.12.624_micRespv1l4_recorded\recording_micRespv1l4_2023-11-28_16h11.31.383.wav;146.89027499989606;147.3903435000684;None;;;;;;150104;001;2023-11-28_16h09.12.624;REPSWITCH1_version1_list4;2022.2.4;143.8768186373534;
REPSWITCH1/PICTURE_178.png;puente;speak;gold;filler;2;F;2;4;4;1;Stim1_Set1;1;switch;28;27;28;0;27;27;27;;;;;;;;;;;;;;;;;;;;;;;147.3903435000684;148.50158750009723;148.50158750009723;148.50158750009723;148.50158750009723;148.50158750009723;148.50158750009723;148.50158750009723;148.50158750009723;151.52283039991744;151.52283039991744;151.52283039991744;151.52283039991744;151.52283039991744;151.52283039991744;None;0;;;C:\2023\REPSWITCH21092023\REPSWITCH_excgange\REPSWITCH_excgange\data/150104_REPSWITCH1_version1_list4_2023-11-28_16h09.12.624_micRespv1l4_recorded\recording_micRespv1l4_2023-11-28_16h11.36.015.wav;151.52283039991744;152.02288990002126;None;;;;;;150104;001;2023-11-28_16h09.12.624;REPSWITCH1_version1_list4;2022.2.4;143.8768186373534;
REPSWITCH1/PICTURE_517.png;cuerda;type;darkblue;nontarget;1;NT;2;4;4;1;Stim4_Set2;1;switch;29;28;29;0;28;28;28;;;;;;;;;;;;;;;;;;;;;;;152.02288990002126;153.0785638000816;153.0785638000816;153.0785638000816;153.0785638000816;153.0785638000816;153.0785638000816;153.0785638000816;153.0785638000816;156.0998215000145;156.0998215000145;156.0998215000145;156.0998215000145;156.0998215000145;156.0998215000145;['c', 'u', 'e', 'r', 'd', 'a'];0;[0.918064899975434, 1.058374699903652, 1.2168496998492628, 1.3091259999200702, 1.5068479999899864, 1.5979206999763846];cuerda;C:\2023\REPSWITCH21092023\REPSWITCH_excgange\REPSWITCH_excgange\data/150104_REPSWITCH1_version1_list4_2023-11-28_16h09.12.624_micRespv1l4_recorded\recording_micRespv1l4_2023-11-28_16h11.40.592.wav;156.0998215000145;156.59988110000268;None;;;;;;150104;001;2023-11-28_16h09.12.624;REPSWITCH1_version1_list4;2022.2.4;143.8768186373534;
REPSWITCH1/PICTURE_517.png;cuerda;type;darkblue;repeat;1;T;2;4;4;1;Stim4_Set2;0;None;30;29;30;0;29;29;29;;;;;;;;;;;;;;;;;;;;;;;156.59988110000268;157.60693800006993;157.60693800006993;157.60693800006993;157.60693800006993;157.60693800006993;157.60693800006993;157.60693800006993;157.60693800006993;160.62816690001637;160.62816690001637;160.62816690001637;160.62816690001637;160.62816690001637;160.62816690001637;['c', 'u', 'e', 'r', 'd', 'a'];0;[0.863377699861303, 1.0008678999729455, 1.1204903998877853, 1.204208199866116, 1.4297489000018686, 1.5325751998461783];cuerda;C:\2023\REPSWITCH21092023\REPSWITCH_excgange\REPSWITCH_excgange\data/150104_REPSWITCH1_version1_list4_2023-11-28_16h09.12.624_micRespv1l4_recorded\recording_micRespv1l4_2023-11-28_16h11.45.121.wav;160.62816690001637;161.1282222000882;None;;;;;;150104;001;2023-11-28_16h09.12.624;REPSWITCH1_version1_list4;2022.2.4;143.8768186373534;
REPSWITCH1/PICTURE_169.png;espalda;type;darkblue;filler;1;F;2;4;4;1;Stim8_Set1;0;None;31;30;31;0;30;30;30;;;;;;;;;;;;;;;;;;;;;;;161.1282222000882;162.21174199995585;162.21174199995585;162.21174199995585;162.21174199995585;162.21174199995585;162.21174199995585;162.21174199995585;162.21174199995585;165.2399716998916;165.2399716998916;165.2399716998916;165.2399716998916;165.2399716998916;165.2399716998916;['e', 's', 'p', 'l', 'a', 'd', 'a'];0;[1.0594130998943, 1.2358510999474674, 1.3767283000051975, 1.55910800001584, 1.6633743999991566, 1.8049373999238014, 1.9206131999380887];esplada;C:\2023\REPSWITCH21092023\REPSWITCH_excgange\REPSWITCH_excgange\data/150104_REPSWITCH1_version1_list4_2023-11-28_16h09.12.624_micRespv1l4_recorded\recording_micRespv1l4_2023-11-28_16h11.49.726.wav;165.2399716998916;;None;;;;;;150104;001;2023-11-28_16h09.12.624;REPSWITCH1_version1_list4;2022.2.4;143.8768186373534;
REPSWITCH1/PICTURE_673.png;tenedor;speak;gold;filler;2;F;2;4;4;1;Extra5;0;None;32;31;32;0;31;31;31;;;;;;;;;;;;;;;;;;;;;;;165.73996750009246;166.80261350004002;166.80261350004002;166.80261350004002;166.80261350004002;166.80261350004002;166.80261350004002;166.80261350004002;166.80261350004002;169.83085360005498;169.83085360005498;169.83085360005498;169.83085360005498;169.83085360005498;169.83085360005498;None;0;;;C:\2023\REPSWITCH21092023\REPSWITCH_excgange\REPSWITCH_excgange\data/150104_REPSWITCH1_version1_list4_2023-11-28_16h09.12.624_micRespv1l4_recorded\recording_micRespv1l4_2023-11-28_16h11.54.317.wav;169.83085360005498;;None;;;;;;150104;001;2023-11-28_16h09.12.624;REPSWITCH1_version1_list4;2022.2.4;143.8768186373534;
REPSWITCH1/PICTURE_142.png;vaso;type;darkblue;filler;1;F;2;4;4;1;Stim7_Set1;1;switch;33;32;33;0;32;32;32;;;;;;;;;;;;;;;;;;;;;;;170.33085180004127;171.47686220007017;171.47686220007017;171.47686220007017;171.47686220007017;171.47686220007017;171.47686220007017;171.47686220007017;171.47686220007017;174.4980240999721;174.4980240999721;174.4980240999721;174.4980240999721;174.4980240999721;174.4980240999721;['v', 'a', 's', 'o'];0;[1.2026169998571277, 1.2753758998587728, 1.3690643997397274, 1.4997770998161286];vaso;C:\2023\REPSWITCH21092023\REPSWITCH_excgange\REPSWITCH_excgange\data/150104_REPSWITCH1_version1_list4_2023-11-28_16h09.12.624_micRespv1l4_recorded\recording_micRespv1l4_2023-11-28_16h11.58.990.wav;174.4980240999721;174.99810059997253;None;;;;;;150104;001;2023-11-28_16h09.12.624;REPSWITCH1_version1_list4;2022.2.4;143.8768186373534;
REPSWITCH1/PICTURE_552.png;manzana;type;darkblue;nontarget;1;NT;2;4;4;1;Stim6_Set2;1;repeat;34;33;34;0;33;33;33;;;;;;;;;;;;;;;;;;;;;;;174.99810059997253;176.04689859994687;176.04689859994687;176.04689859994687;176.04689859994687;176.04689859994687;176.04689859994687;176.04689859994687;176.04689859994687;179.07503150007688;179.07503150007688;179.07503150007688;179.07503150007688;179.07503150007688;179.07503150007688;['m', 'a', 'n', 'z', 'a', 'n', 'a'];0;[1.2727759999688715, 1.3714348999783397, 1.5049785999581218, 1.9577719999942929, 2.06026539998129, 2.1489666998386383, 2.292488700011745];manzana;C:\2023\REPSWITCH21092023\REPSWITCH_excgange\REPSWITCH_excgange\data/150104_REPSWITCH1_version1_list4_2023-11-28_16h09.12.624_micRespv1l4_recorded\recording_micRespv1l4_2023-11-28_16h12.03.562.wav;179.07503150007688;;None;;;;;;150104;001;2023-11-28_16h09.12.624;REPSWITCH1_version1_list4;2022.2.4;143.8768186373534;
REPSWITCH1/PICTURE_552.png;manzana;speak;gold;switch;1;T;2;4;4;1;Stim6_Set2;0;None;35;34;35;0;34;34;34;;;;;;;;;;;;;;;;;;;;;;;179.57508819992654;180.7141360999085;180.7141360999085;180.7141360999085;180.7141360999085;180.7141360999085;180.7141360999085;180.7141360999085;180.7141360999085;183.74232110008597;183.74232110008597;183.74232110008597;183.74232110008597;183.74232110008597;183.74232110008597;None;0;;;C:\2023\REPSWITCH21092023\REPSWITCH_excgange\REPSWITCH_excgange\data/150104_REPSWITCH1_version1_list4_2023-11-28_16h09.12.624_micRespv1l4_recorded\recording_micRespv1l4_2023-11-28_16h12.08.228.wav;183.74232110008597;;None;;;;;;150104;001;2023-11-28_16h09.12.624;REPSWITCH1_version1_list4;2022.2.4;143.8768186373534;
REPSWITCH1/PICTURE_135.png;traje;speak;gold;filler;2;F;2;4;4;1;Stim3_Set1;0;None;36;35;36;0;35;35;35;;;;;;;;;;;;;;;;;;;;;;;184.2423922000453;185.29116860008799;185.29116860008799;185.29116860008799;185.29116860008799;185.29116860008799;185.29116860008799;185.29116860008799;185.29116860008799;188.31236189999618;188.31236189999618;188.31236189999618;188.31236189999618;188.31236189999618;188.31236189999618;None;0;;;C:\2023\REPSWITCH21092023\REPSWITCH_excgange\REPSWITCH_excgange\data/150104_REPSWITCH1_version1_list4_2023-11-28_16h09.12.624_micRespv1l4_recorded\recording_micRespv1l4_2023-11-28_16h12.12.805.wav;188.31236189999618;188.81243539997377;None;;;;;;150104;001;2023-11-28_16h09.12.624;REPSWITCH1_version1_list4;2022.2.4;143.8768186373534;
REPSWITCH1/PICTURE_152.png;caracol;speak;gold;nontarget;2;NT;2;4;4;1;Stim2_Set2;1;repeat;37;36;37;0;36;36;36;;;;;;;;;;;;;;;;;;;;;;;188.81243539997377;189.8820865000598;189.8820865000598;189.8820865000598;189.8820865000598;189.8820865000598;189.8820865000598;189.8820865000598;189.8820865000598;192.90330999996513;192.90330999996513;192.90330999996513;192.90330999996513;192.90330999996513;192.90330999996513;None;0;;;C:\2023\REPSWITCH21092023\REPSWITCH_excgange\REPSWITCH_excgange\data/150104_REPSWITCH1_version1_list4_2023-11-28_16h09.12.624_micRespv1l4_recorded\recording_micRespv1l4_2023-11-28_16h12.17.395.wav;192.90330999996513;193.40330199990422;None;;;;;;150104;001;2023-11-28_16h09.12.624;REPSWITCH1_version1_list4;2022.2.4;143.8768186373534;
REPSWITCH1/PICTURE_152.png;caracol;type;darkblue;switch;1;T;2;4;4;1;Stim2_Set2;0;None;38;37;38;0;37;37;37;;;;;;;;;;;;;;;;;;;;;;;193.40330199990422;194.50763750006445;194.50763750006445;194.50763750006445;194.50763750006445;194.50763750006445;194.50763750006445;194.50763750006445;194.50763750006445;197.52886609989218;197.52886609989218;197.52886609989218;197.52886609989218;197.52886609989218;197.52886609989218;['c', 'a', 'r', 'a', 'c', 'o', 'l'];0;[0.9452484999783337, 1.0589620000682771, 1.25428680004552, 1.3808565998915583, 1.474869600031525, 1.683879799908027, 1.8384469000156969];caracol;C:\2023\REPSWITCH21092023\REPSWITCH_excgange\REPSWITCH_excgange\data/150104_REPSWITCH1_version1_list4_2023-11-28_16h09.12.624_micRespv1l4_recorded\recording_micRespv1l4_2023-11-28_16h12.22.022.wav;197.52886609989218;198.0289286999032;None;;;;;;150104;001;2023-11-28_16h09.12.624;REPSWITCH1_version1_list4;2022.2.4;143.8768186373534;
REPSWITCH1/PICTURE_381.png;fresa;type;darkblue;filler;1;F;2;4;4;1;Stim2_Set1;0;None;39;38;39;0;38;38;38;;;;;;;;;;;;;;;;;;;;;;;198.0289286999032;199.11936119990423;199.11936119990423;199.11936119990423;199.11936119990423;199.11936119990423;199.11936119990423;199.11936119990423;199.11936119990423;202.14759010006674;202.14759010006674;202.14759010006674;202.14759010006674;202.14759010006674;202.14759010006674;['f', 'r', 'e', 's', 'a'];0;[1.0386272999458015, 1.2513945000246167, 1.4371179000008851, 1.6329514998942614, 1.754766299854964];fresa;C:\2023\REPSWITCH21092023\REPSWITCH_excgange\REPSWITCH_excgange\data/150104_REPSWITCH1_version1_list4_2023-11-28_16h09.12.624_micRespv1l4_recorded\recording_micRespv1l4_2023-11-28_16h12.26.634.wav;202.14759010006674;;None;;;;;;150104;001;2023-11-28_16h09.12.624;REPSWITCH1_version1_list4;2022.2.4;143.8768186373534;
REPSWITCH1/PICTURE_446.png;cerdo;type;darkblue;nontarget;1;NT;2;4;4;1;Stim7_Set2;1;repeat;40;39;40;0;39;39;39;;;;;;;;;;;;;;;;;;;;;;;202.64759030006826;203.85612259991467;203.85612259991467;203.85612259991467;203.85612259991467;203.85612259991467;203.85612259991467;203.85612259991467;203.85612259991467;206.8772950998973;206.8772950998973;206.8772950998973;206.8772950998973;206.8772950998973;206.8772950998973;['c', 'e', 'r', 'd', 'o'];0;[1.047436699969694, 1.2634733999148011, 1.3372266998048872, 1.5634287998545915, 1.665194399887696];cerdo;C:\2023\REPSWITCH21092023\REPSWITCH_excgange\REPSWITCH_excgange\data/150104_REPSWITCH1_version1_list4_2023-11-28_16h09.12.624_micRespv1l4_recorded\recording_micRespv1l4_2023-11-28_16h12.31.369.wav;206.8772950998973;207.37736880010925;None;;;;;;150104;001;2023-11-28_16h09.12.624;REPSWITCH1_version1_list4;2022.2.4;143.8768186373534;
REPSWITCH1/PICTURE_446.png;cerdo;speak;gold;switch;2;T;2;4;4;1;Stim7_Set2;0;None;41;40;41;0;40;40;40;;;;;;;;;;;;;;;;;;;;;;;207.37736880010925;208.4955506999977;208.4955506999977;208.4955506999977;208.4955506999977;208.4955506999977;208.4955506999977;208.4955506999977;208.4955506999977;211.52375090005808;211.52375090005808;211.52375090005808;211.52375090005808;211.52375090005808;211.52375090005808;None;0;;;C:\2023\REPSWITCH21092023\REPSWITCH_excgange\REPSWITCH_excgange\data/150104_REPSWITCH1_version1_list4_2023-11-28_16h09.12.624_micRespv1l4_recorded\recording_micRespv1l4_2023-11-28_16h12.36.010.wav;211.52375090005808;;None;;;;;;150104;001;2023-11-28_16h09.12.624;REPSWITCH1_version1_list4;2022.2.4;143.8768186373534;
REPSWITCH1/PICTURE_264.png;mano;speak;gold;nontarget;2;NT;2;4;4;1;Stim3_Set2;0;None;42;41;42;0;41;41;41;;;;;;;;;;;;;;;;;;;;;;;212.02379760006443;213.06560000008903;213.06560000008903;213.06560000008903;213.06560000008903;213.06560000008903;213.06560000008903;213.06560000008903;213.06560000008903;216.08690649992786;216.08690649992786;216.08690649992786;216.08690649992786;216.08690649992786;216.08690649992786;None;0;;;C:\2023\REPSWITCH21092023\REPSWITCH_excgange\REPSWITCH_excgange\data/150104_REPSWITCH1_version1_list4_2023-11-28_16h09.12.624_micRespv1l4_recorded\recording_micRespv1l4_2023-11-28_16h12.40.579.wav;216.08690649992786;216.5868957999628;None;;;;;;150104;001;2023-11-28_16h09.12.624;REPSWITCH1_version1_list4;2022.2.4;143.8768186373534;
REPSWITCH1/PICTURE_264.png;mano;speak;gold;repeat;2;T;2;4;4;1;Stim3_Set2;0;None;43;42;43;0;42;42;42;;;;;;;;;;;;;;;;;;;;;;;216.5868957999628;217.65648219990544;217.65648219990544;217.65648219990544;217.65648219990544;217.65648219990544;217.65648219990544;217.65648219990544;217.65648219990544;220.67779950005934;220.67779950005934;220.67779950005934;220.67779950005934;220.67779950005934;220.67779950005934;None;0;;;C:\2023\REPSWITCH21092023\REPSWITCH_excgange\REPSWITCH_excgange\data/150104_REPSWITCH1_version1_list4_2023-11-28_16h09.12.624_micRespv1l4_recorded\recording_micRespv1l4_2023-11-28_16h12.45.170.wav;220.67779950005934;221.17779069999233;None;;;;;;150104;001;2023-11-28_16h09.12.624;REPSWITCH1_version1_list4;2022.2.4;143.8768186373534;
REPSWITCH1/PICTURE_128.png;muñeca;type;darkblue;filler;1;F;2;4;4;1;Stim4_Set1;0;None;44;43;44;0;43;43;43;;;;;;;;;;;;;;;;;;;;;;;221.17779069999233;222.22654840000905;222.22654840000905;222.22654840000905;222.22654840000905;222.22654840000905;222.22654840000905;222.22654840000905;222.22654840000905;225.24783089989796;225.24783089989796;225.24783089989796;225.24783089989796;225.24783089989796;225.24783089989796;['m', 'u', 'ñ', 'e', 'c', 'a'];0;[1.0653906997758895, 1.232860499760136, 1.4898437997326255, 1.5924660998862237, 1.7857584997545928, 1.9303064998239279];muñeca;C:\2023\REPSWITCH21092023\REPSWITCH_excgange\REPSWITCH_excgange\data/150104_REPSWITCH1_version1_list4_2023-11-28_16h09.12.624_micRespv1l4_recorded\recording_micRespv1l4_2023-11-28_16h12.49.740.wav;225.24783089989796;225.74783380003646;None;;;;;;150104;001;2023-11-28_16h09.12.624;REPSWITCH1_version1_list4;2022.2.4;143.8768186373534;
REPSWITCH1/PICTURE_30.png;granja;speak;gold;nontarget;2;NT;2;4;4;1;Stim5_Set2;1;switch;45;44;45;0;44;44;44;;;;;;;;;;;;;;;;;;;;;;;225.74783380003646;226.81048849993385;226.81048849993385;226.81048849993385;226.81048849993385;226.81048849993385;226.81048849993385;226.81048849993385;226.81048849993385;229.8387263000477;229.8387263000477;229.8387263000477;229.8387263000477;229.8387263000477;229.8387263000477;None;0;;;C:\2023\REPSWITCH21092023\REPSWITCH_excgange\REPSWITCH_excgange\data/150104_REPSWITCH1_version1_list4_2023-11-28_16h09.12.624_micRespv1l4_recorded\recording_micRespv1l4_2023-11-28_16h12.54.325.wav;229.8387263000477;;None;;;;;;150104;001;2023-11-28_16h09.12.624;REPSWITCH1_version1_list4;2022.2.4;143.8768186373534;
REPSWITCH1/PICTURE_30.png;granja;speak;gold;repeat;2;T;2;4;4;1;Stim5_Set2;0;None;46;45;46;0;45;45;45;;;;;;;;;;;;;;;;;;;;;;;230.3387166999746;231.40831739990972;231.40831739990972;231.40831739990972;231.40831739990972;231.40831739990972;231.40831739990972;231.40831739990972;231.40831739990972;234.42953449999914;234.42953449999914;234.42953449999914;234.42953449999914;234.42953449999914;234.42953449999914;None;0;;;C:\2023\REPSWITCH21092023\REPSWITCH_excgange\REPSWITCH_excgange\data/150104_REPSWITCH1_version1_list4_2023-11-28_16h09.12.624_micRespv1l4_recorded\recording_micRespv1l4_2023-11-28_16h12.58.922.wav;234.42953449999914;234.92959060007706;None;;;;;;150104;001;2023-11-28_16h09.12.624;REPSWITCH1_version1_list4;2022.2.4;143.8768186373534;
REPSWITCH1/PICTURE_646.png;tronco;type;darkblue;filler;1;F;2;4;4;1;Extra4;0;None;47;46;47;0;46;46;46;;;;;;;;;;;;;;;;;;;;;;;234.92959060007706;236.1798213000875;236.1798213000875;236.1798213000875;236.1798213000875;236.1798213000875;236.1798213000875;236.1798213000875;236.1798213000875;239.20099329994991;239.20099329994991;239.20099329994991;239.20099329994991;239.20099329994991;239.20099329994991;['t', 'r', 'o', 'n', 'c', 'o'];0;[1.0916164997033775, 1.282345999730751, 1.4119088998995721, 1.6093459997791797, 1.7790369999129325, 1.872705299872905];tronco;C:\2023\REPSWITCH21092023\REPSWITCH_excgange\REPSWITCH_excgange\data/150104_REPSWITCH1_version1_list4_2023-11-28_16h09.12.624_micRespv1l4_recorded\recording_micRespv1l4_2023-11-28_16h13.03.693.wav;239.20099329994991;239.70102640008554;None;;;;;;150104;001;2023-11-28_16h09.12.624;REPSWITCH1_version1_list4;2022.2.4;143.8768186373534;
REPSWITCH1/PICTURE_16.png;cazador;speak;gold;filler;2;F;2;4;4;1;Stim6_Set1;0;None;48;47;48;0;47;47;47;;;;;;;;;;;;;;;;;;;;;;;239.70102640008554;240.81238480005413;240.81238480005413;240.81238480005413;240.81238480005413;240.81238480005413;240.81238480005413;240.81238480005413;240.81238480005413;243.84048080001958;243.84048080001958;243.84048080001958;243.84048080001958;243.84048080001958;243.84048080001958;None;0;;;C:\2023\REPSWITCH21092023\REPSWITCH_excgange\REPSWITCH_excgange\data/150104_REPSWITCH1_version1_list4_2023-11-28_16h09.12.624_micRespv1l4_recorded\recording_micRespv1l4_2023-11-28_16h13.08.327.wav;243.84048080001958;;None;;;;;;150104;001;2023-11-28_16h09.12.624;REPSWITCH1_version1_list4;2022.2.4;143.8768186373534;
REPSWITCH1/PICTURE_175.png;pintor;speak;gold;nontarget;2;NT;2;4;4;1;Stim1_Set2;1;repeat;49;48;49;0;48;48;48;;;;;;;;;;;;;;;;;;;;;;;244.34063200000674;245.48651239997707;245.48651239997707;245.48651239997707;245.48651239997707;245.48651239997707;245.48651239997707;245.48651239997707;245.48651239997707;248.51477140001953;248.51477140001953;248.51477140001953;248.51477140001953;248.51477140001953;248.51477140001953;None;0;;;C:\2023\REPSWITCH21092023\REPSWITCH_excgange\REPSWITCH_excgange\data/150104_REPSWITCH1_version1_list4_2023-11-28_16h09.12.624_micRespv1l4_recorded\recording_micRespv1l4_2023-11-28_16h13.13.000.wav;248.51477140001953;;None;;;;;;150104;001;2023-11-28_16h09.12.624;REPSWITCH1_version1_list4;2022.2.4;143.8768186373534;
REPSWITCH1/PICTURE_175.png;pintor;type;darkblue;switch;1;T;2;4;4;1;Stim1_Set2;0;None;50;49;50;0;49;49;49;;;;;;;;;;;;;;;;;;;;;;;249.0147724999115;250.05655399989337;250.05655399989337;250.05655399989337;250.05655399989337;250.05655399989337;250.05655399989337;250.05655399989337;250.05655399989337;253.08476820006035;253.08476820006035;253.08476820006035;253.08476820006035;253.08476820006035;253.08476820006035;['p', 'i', 'n', 't', 'o'];0;[0.8746827999129891, 1.8602485000155866, 2.0515815999824554, 2.1691874999087304, 2.2997186998836696];pinto;C:\2023\REPSWITCH21092023\REPSWITCH_excgange\REPSWITCH_excgange\data/150104_REPSWITCH1_version1_list4_2023-11-28_16h09.12.624_micRespv1l4_recorded\recording_micRespv1l4_2023-11-28_16h13.17.571.wav;253.08476820006035;;None;;;;;;150104;001;2023-11-28_16h09.12.624;REPSWITCH1_version1_list4;2022.2.4;143.8768186373534;
REPSWITCH1/PICTURE_663.png;columna;speak;gold;filler;2;F;4;4;4;1;Extra6;0;None;51;50;51;0;50;50;50;;;;;;;;;;;;;;;;;;;;;;;253.58481559995562;254.7169367999304;254.7169367999304;254.7169367999304;254.7169367999304;254.7169367999304;254.7169367999304;254.7169367999304;254.7169367999304;257.73810390010476;257.73810390010476;257.73810390010476;257.73810390010476;257.73810390010476;257.73810390010476;None;0;;;C:\2023\REPSWITCH21092023\REPSWITCH_excgange\REPSWITCH_excgange\data/150104_REPSWITCH1_version1_list4_2023-11-28_16h09.12.624_micRespv1l4_recorded\recording_micRespv1l4_2023-11-28_16h13.22.231.wav;257.73810390010476;258.2382024999242;space;258.2382024999242;258.2382024999242;22.902823699871078;;;150104;001;2023-11-28_16h09.12.624;REPSWITCH1_version1_list4;2022.2.4;143.8768186373534;
REPSWITCH1/PICTURE_35.png;oreja;type;darkblue;nontarget;1;NT;3;4;4;1;Stim5_Set3;0;None;52;51;52;0;51;51;51;;;;;;;;;;;;;;;;;;;;;;;281.1509318999015;282.29690410010517;282.29690410010517;282.29690410010517;282.29690410010517;282.29690410010517;282.29690410010517;282.29690410010517;282.29690410010517;285.31813260004856;285.31813260004856;285.31813260004856;285.31813260004856;285.31813260004856;285.31813260004856;['o', 'r', 'e', 'j', 'a'];0;[1.621856699930504, 1.8171777999959886, 1.9148654998280108, 2.1160618998110294, 2.2256856998428702];oreja;C:\2023\REPSWITCH21092023\REPSWITCH_excgange\REPSWITCH_excgange\data/150104_REPSWITCH1_version1_list4_2023-11-28_16h09.12.624_micRespv1l4_recorded\recording_micRespv1l4_2023-11-28_16h13.49.811.wav;285.31813260004856;285.81819929997437;None;;;;;;150104;001;2023-11-28_16h09.12.624;REPSWITCH1_version1_list4;2022.2.4;143.8768186373534;
REPSWITCH1/PICTURE_35.png;oreja;speak;gold;switch;2;T;3;4;4;1;Stim5_Set3;0;None;53;52;53;0;52;52;52;;;;;;;;;;;;;;;;;;;;;;;285.81819929997437;287.01982289995067;287.01982289995067;287.01982289995067;287.01982289995067;287.01982289995067;287.01982289995067;287.01982289995067;287.01982289995067;290.04095160006545;290.04095160006545;290.04095160006545;290.04095160006545;290.04095160006545;290.04095160006545;None;0;;;C:\2023\REPSWITCH21092023\REPSWITCH_excgange\REPSWITCH_excgange\data/150104_REPSWITCH1_version1_list4_2023-11-28_16h09.12.624_micRespv1l4_recorded\recording_micRespv1l4_2023-11-28_16h13.54.533.wav;290.04095160006545;290.5410285999533;None;;;;;;150104;001;2023-11-28_16h09.12.624;REPSWITCH1_version1_list4;2022.2.4;143.8768186373534;
REPSWITCH1/PICTURE_199.png;falda;speak;gold;filler;2;F;3;4;4;1;Stim8_Set2;0;None;54;53;54;0;53;53;53;;;;;;;;;;;;;;;;;;;;;;;290.5410285999533;291.6453778001014;291.6453778001014;291.6453778001014;291.6453778001014;291.6453778001014;291.6453778001014;291.6453778001014;291.6453778001014;294.673539099982;294.673539099982;294.673539099982;294.673539099982;294.673539099982;294.673539099982;None;0;;;C:\2023\REPSWITCH21092023\REPSWITCH_excgange\REPSWITCH_excgange\data/150104_REPSWITCH1_version1_list4_2023-11-28_16h09.12.624_micRespv1l4_recorded\recording_micRespv1l4_2023-11-28_16h13.59.160.wav;294.673539099982;;None;;;;;;150104;001;2023-11-28_16h09.12.624;REPSWITCH1_version1_list4;2022.2.4;143.8768186373534;
REPSWITCH1/PICTURE_576.png;guante;speak;gold;nontarget;2;NT;3;4;4;1;Stim1_Set3;1;repeat;55;54;55;0;54;54;54;;;;;;;;;;;;;;;;;;;;;;;295.17360419989564;296.2502139999997;296.2502139999997;296.2502139999997;296.2502139999997;296.2502139999997;296.2502139999997;296.2502139999997;296.2502139999997;299.2714269000571;299.2714269000571;299.2714269000571;299.2714269000571;299.2714269000571;299.2714269000571;None;0;;;C:\2023\REPSWITCH21092023\REPSWITCH_excgange\REPSWITCH_excgange\data/150104_REPSWITCH1_version1_list4_2023-11-28_16h09.12.624_micRespv1l4_recorded\recording_micRespv1l4_2023-11-28_16h14.03.764.wav;299.2714269000571;299.7714299999643;None;;;;;;150104;001;2023-11-28_16h09.12.624;REPSWITCH1_version1_list4;2022.2.4;143.8768186373534;
REPSWITCH1/PICTURE_576.png;guante;type;darkblue;switch;1;T;3;4;4;1;Stim1_Set3;0;None;56;55;56;0;55;55;55;;;;;;;;;;;;;;;;;;;;;;;299.7714299999643;300.8479522999842;300.8479522999842;300.8479522999842;300.8479522999842;300.8479522999842;300.8479522999842;300.8479522999842;300.8479522999842;303.86914799991064;303.86914799991064;303.86914799991064;303.86914799991064;303.86914799991064;303.86914799991064;['g', 'a', 'backspace', 'u', 'a', 'n', 't', 'e'];0;[0.7639739997684956, 1.0579840997233987, 1.9400183998513967, 2.479071999900043, 2.610967399785295, 2.699670599773526, 2.7288694998715073, 2.878360599745065];guante;C:\2023\REPSWITCH21092023\REPSWITCH_excgange\REPSWITCH_excgange\data/150104_REPSWITCH1_version1_list4_2023-11-28_16h09.12.624_micRespv1l4_recorded\recording_micRespv1l4_2023-11-28_16h14.08.361.wav;303.86914799991064;304.36925740004517;None;;;;;;150104;001;2023-11-28_16h09.12.624;REPSWITCH1_version1_list4;2022.2.4;143.8768186373534;
REPSWITCH1/PICTURE_517.png;cuerda;type;darkblue;filler;1;F;3;4;4;1;Stim4_Set2;1;repeat;57;56;57;0;56;56;56;;;;;;;;;;;;;;;;;;;;;;;304.36925740004517;305.43884090008214;305.43884090008214;305.43884090008214;305.43884090008214;305.43884090008214;305.43884090008214;305.43884090008214;305.43884090008214;308.4600368998945;308.4600368998945;308.4600368998945;308.4600368998945;308.4600368998945;308.4600368998945;['c', 'u', 'e', 'r', 'd', 'a'];0;[0.8393957999069244, 1.2811191999353468, 1.42762909992598, 1.4894166998565197, 1.6807430998887867, 1.7914134997408837];cuerda;C:\2023\REPSWITCH21092023\REPSWITCH_excgange\REPSWITCH_excgange\data/150104_REPSWITCH1_version1_list4_2023-11-28_16h09.12.624_micRespv1l4_recorded\recording_micRespv1l4_2023-11-28_16h14.12.953.wav;308.4600368998945;308.96010109991767;None;;;;;;150104;001;2023-11-28_16h09.12.624;REPSWITCH1_version1_list4;2022.2.4;143.8768186373534;
REPSWITCH1/PICTURE_271.png;conejo;type;darkblue;nontarget;1;NT;3;4;4;1;Stim7_Set3;1;repeat;58;57;58;0;57;57;57;;;;;;;;;;;;;;;;;;;;;;;308.96010109991767;310.07142019993626;310.07142019993626;310.07142019993626;310.07142019993626;310.07142019993626;310.07142019993626;310.07142019993626;310.07142019993626;313.09957249998115;313.09957249998115;313.09957249998115;313.09957249998115;313.09957249998115;313.09957249998115;['c', 'o', 'n', 'e', 'j', 'o'];0;[0.8272058998700231, 0.9418220999650657, 1.1551098998170346, 1.2935894997790456, 1.4281162999104708, 1.622473199851811];conejo;C:\2023\REPSWITCH21092023\REPSWITCH_excgange\REPSWITCH_excgange\data/150104_REPSWITCH1_version1_list4_2023-11-28_16h09.12.624_micRespv1l4_recorded\recording_micRespv1l4_2023-11-28_16h14.17.586.wav;313.09957249998115;;None;;;;;;150104;001;2023-11-28_16h09.12.624;REPSWITCH1_version1_list4;2022.2.4;143.8768186373534;
REPSWITCH1/PICTURE_271.png;conejo;speak;gold;switch;2;T;3;4;4;1;Stim7_Set3;0;None;59;58;59;0;58;58;58;;;;;;;;;;;;;;;;;;;;;;;313.5996991000138;314.64144659996964;314.64144659996964;314.64144659996964;314.64144659996964;314.64144659996964;314.64144659996964;314.64144659996964;314.64144659996964;317.6696172999218;317.6696172999218;317.6696172999218;317.6696172999218;317.6696172999218;317.6696172999218;None;0;;;C:\2023\REPSWITCH21092023\REPSWITCH_excgange\REPSWITCH_excgange\data/150104_REPSWITCH1_version1_list4_2023-11-28_16h09.12.624_micRespv1l4_recorded\recording_micRespv1l4_2023-11-28_16h14.22.156.wav;317.6696172999218;;None;;;;;;150104;001;2023-11-28_16h09.12.624;REPSWITCH1_version1_list4;2022.2.4;143.8768186373534;
REPSWITCH1/PICTURE_552.png;manzana;type;darkblue;filler;1;F;3;4;4;1;Stim6_Set2;0;None;60;59;60;0;59;59;59;;;;;;;;;;;;;;;;;;;;;;;318.1696685999632;319.21148790000007;319.21148790000007;319.21148790000007;319.21148790000007;319.21148790000007;319.21148790000007;319.21148790000007;319.21148790000007;322.232808599947;322.232808599947;322.232808599947;322.232808599947;322.232808599947;322.232808599947;['m', 'a', 'n', 'z', 'a', 'n', 'a'];0;[0.8830036998260766, 0.9895760999061167, 1.120137499878183, 1.3064804999157786, 1.4500278998166323, 1.5337547999806702, 1.6214550998993218];manzana;C:\2023\REPSWITCH21092023\REPSWITCH_excgange\REPSWITCH_excgange\data/150104_REPSWITCH1_version1_list4_2023-11-28_16h09.12.624_micRespv1l4_recorded\recording_micRespv1l4_2023-11-28_16h14.26.725.wav;322.232808599947;322.73274050001055;None;;;;;;150104;001;2023-11-28_16h09.12.624;REPSWITCH1_version1_list4;2022.2.4;143.8768186373534;
REPSWITCH1/PICTURE_242.png;cartero;speak;gold;nontarget;2;NT;3;4;4;1;Stim3_Set3;1;switch;61;60;61;0;60;60;60;;;;;;;;;;;;;;;;;;;;;;;322.73274050001055;323.85791700007394;323.85791700007394;323.85791700007394;323.85791700007394;323.85791700007394;323.85791700007394;323.85791700007394;323.85791700007394;326.88607080001384;326.88607080001384;326.88607080001384;326.88607080001384;326.88607080001384;326.88607080001384;None;0;;;C:\2023\REPSWITCH21092023\REPSWITCH_excgange\REPSWITCH_excgange\data/150104_REPSWITCH1_version1_list4_2023-11-28_16h09.12.624_micRespv1l4_recorded\recording_micRespv1l4_2023-11-28_16h14.31.372.wav;326.88607080001384;;None;;;;;;150104;001;2023-11-28_16h09.12.624;REPSWITCH1_version1_list4;2022.2.4;143.8768186373534;
REPSWITCH1/PICTURE_242.png;cartero;speak;gold;repeat;2;T;3;4;4;1;Stim3_Set3;0;None;62;61;62;0;61;61;61;;;;;;;;;;;;;;;;;;;;;;;327.38613829994574;328.41406990005635;328.41406990005635;328.41406990005635;328.41406990005635;328.41406990005635;328.41406990005635;328.41406990005635;328.41406990005635;331.43531320011243;331.43531320011243;331.43531320011243;331.43531320011243;331.43531320011243;331.43531320011243;None;0;;;C:\2023\REPSWITCH21092023\REPSWITCH_excgange\REPSWITCH_excgange\data/150104_REPSWITCH1_version1_list4_2023-11-28_16h09.12.624_micRespv1l4_recorded\recording_micRespv1l4_2023-11-28_16h14.35.927.wav;331.43531320011243;331.93536669993773;None;;;;;;150104;001;2023-11-28_16h09.12.624;REPSWITCH1_version1_list4;2022.2.4;143.8768186373534;
REPSWITCH1/PICTURE_152.png;caracol;speak;gold;filler;2;F;3;4;4;1;Stim2_Set2;0;None;63;62;63;0;62;62;62;;;;;;;;;;;;;;;;;;;;;;;331.93536669993773;332.9841124000959;332.9841124000959;332.9841124000959;332.9841124000959;332.9841124000959;332.9841124000959;332.9841124000959;332.9841124000959;336.00534359994344;336.00534359994344;336.00534359994344;336.00534359994344;336.00534359994344;336.00534359994344;None;0;;;C:\2023\REPSWITCH21092023\REPSWITCH_excgange\REPSWITCH_excgange\data/150104_REPSWITCH1_version1_list4_2023-11-28_16h09.12.624_micRespv1l4_recorded\recording_micRespv1l4_2023-11-28_16h14.40.498.wav;336.00534359994344;336.50541860004887;None;;;;;;150104;001;2023-11-28_16h09.12.624;REPSWITCH1_version1_list4;2022.2.4;143.8768186373534;
REPSWITCH1/PICTURE_446.png;cerdo;type;darkblue;filler;1;F;3;4;4;1;Stim7_Set2;1;switch;64;63;64;0;63;63;63;;;;;;;;;;;;;;;;;;;;;;;336.50541860004887;337.62360620009713;337.62360620009713;337.62360620009713;337.62360620009713;337.62360620009713;337.62360620009713;337.62360620009713;337.62360620009713;340.6517956000753;340.6517956000753;340.6517956000753;340.6517956000753;340.6517956000753;340.6517956000753;['c', 'e', 'r', 'd', 'o'];0;[0.8849286998156458, 1.1343730997759849, 1.1822127997875214, 1.4030907999258488, 1.5247014998458326];cerdo;C:\2023\REPSWITCH21092023\REPSWITCH_excgange\REPSWITCH_excgange\data/150104_REPSWITCH1_version1_list4_2023-11-28_16h09.12.624_micRespv1l4_recorded\recording_micRespv1l4_2023-11-28_16h14.45.137.wav;340.6517956000753;;None;;;;;;150104;001;2023-11-28_16h09.12.624;REPSWITCH1_version1_list4;2022.2.4;143.8768186373534;
REPSWITCH1/PICTURE_610.png;miel;speak;gold;nontarget;2;NT;3;4;4;1;Stim2_Set3;1;switch;65;64;65;0;64;64;64;;;;;;;;;;;;;;;;;;;;;;;341.15193950012326;342.2075525999535;342.2075525999535;342.2075525999535;342.2075525999535;342.2075525999535;342.2075525999535;342.2075525999535;342.2075525999535;345.2357316000853;345.2357316000853;345.2357316000853;345.2357316000853;345.2357316000853;345.2357316000853;None;0;;;C:\2023\REPSWITCH21092023\REPSWITCH_excgange\REPSWITCH_excgange\data/150104_REPSWITCH1_version1_list4_2023-11-28_16h09.12.624_micRespv1l4_recorded\recording_micRespv1l4_2023-11-28_16h14.49.721.wav;345.2357316000853;;None;;;;;;150104;001;2023-11-28_16h09.12.624;REPSWITCH1_version1_list4;2022.2.4;143.8768186373534;
REPSWITCH1/PICTURE_610.png;miel;speak;gold;repeat;2;T;3;4;4;1;Stim2_Set3;0;None;66;65;66;0;65;65;65;;;;;;;;;;;;;;;;;;;;;;;345.73578829993494;346.888715100009;346.888715100009;346.888715100009;346.888715100009;346.888715100009;346.888715100009;346.888715100009;346.888715100009;349.91689509991556;349.91689509991556;349.91689509991556;349.91689509991556;349.91689509991556;349.91689509991556;None;0;;;C:\2023\REPSWITCH21092023\REPSWITCH_excgange\REPSWITCH_excgange\data/150104_REPSWITCH1_version1_list4_2023-11-28_16h09.12.624_micRespv1l4_recorded\recording_micRespv1l4_2023-11-28_16h14.54.403.wav;349.91689509991556;;None;;;;;;150104;001;2023-11-28_16h09.12.624;REPSWITCH1_version1_list4;2022.2.4;143.8768186373534;
REPSWITCH1/PICTURE_320.png;iglesia;speak;gold;nontarget;2;NT;3;4;4;1;Stim8_Set3;1;repeat;67;66;67;0;66;66;66;;;;;;;;;;;;;;;;;;;;;;;350.41694139991887;351.63934420002624;351.63934420002624;351.63934420002624;351.63934420002624;351.63934420002624;351.63934420002624;351.63934420002624;351.63934420002624;354.66057740012184;354.66057740012184;354.66057740012184;354.66057740012184;354.66057740012184;354.66057740012184;None;0;;;C:\2023\REPSWITCH21092023\REPSWITCH_excgange\REPSWITCH_excgange\data/150104_REPSWITCH1_version1_list4_2023-11-28_16h09.12.624_micRespv1l4_recorded\recording_micRespv1l4_2023-11-28_16h14.59.153.wav;354.66057740012184;355.1606457999442;None;;;;;;150104;001;2023-11-28_16h09.12.624;REPSWITCH1_version1_list4;2022.2.4;143.8768186373534;
REPSWITCH1/PICTURE_320.png;iglesia;type;darkblue;switch;1;T;3;4;4;1;Stim8_Set3;0;None;68;67;68;0;67;67;67;;;;;;;;;;;;;;;;;;;;;;;355.1606457999442;356.33438759995624;356.33438759995624;356.33438759995624;356.33438759995624;356.33438759995624;356.33438759995624;356.33438759995624;356.33438759995624;359.3626502000261;359.3626502000261;359.3626502000261;359.3626502000261;359.3626502000261;359.3626502000261;['i', 'g', 'l', 'e', 'backspace'];0;[0.9522881000302732, 1.0888137998990715, 1.2731250999495387, 1.5461949999444187, 2.235276099992916];igl;C:\2023\REPSWITCH21092023\REPSWITCH_excgange\REPSWITCH_excgange\data/150104_REPSWITCH1_version1_list4_2023-11-28_16h09.12.624_micRespv1l4_recorded\recording_micRespv1l4_2023-11-28_16h15.03.849.wav;359.3626502000261;;None;;;;;;150104;001;2023-11-28_16h09.12.624;REPSWITCH1_version1_list4;2022.2.4;143.8768186373534;
REPSWITCH1/PICTURE_30.png;granja;speak;gold;filler;2;F;3;4;4;1;Stim5_Set2;0;None;69;68;69;0;68;68;68;;;;;;;;;;;;;;;;;;;;;;;359.86264650011435;360.90444860002026;360.90444860002026;360.90444860002026;360.90444860002026;360.90444860002026;360.90444860002026;360.90444860002026;360.90444860002026;363.9326339000836;363.9326339000836;363.9326339000836;363.9326339000836;363.9326339000836;363.9326339000836;None;0;;;C:\2023\REPSWITCH21092023\REPSWITCH_excgange\REPSWITCH_excgange\data/150104_REPSWITCH1_version1_list4_2023-11-28_16h09.12.624_micRespv1l4_recorded\recording_micRespv1l4_2023-11-28_16h15.08.419.wav;363.9326339000836;;None;;;;;;150104;001;2023-11-28_16h09.12.624;REPSWITCH1_version1_list4;2022.2.4;143.8768186373534;
REPSWITCH1/PICTURE_264.png;mano;type;darkblue;filler;1;F;3;4;4;1;Stim3_Set2;0;None;70;69;70;0;69;69;69;;;;;;;;;;;;;;;;;;;;;;;364.43275839998387;365.4953328000847;365.4953328000847;365.4953328000847;365.4953328000847;365.4953328000847;365.4953328000847;365.4953328000847;365.4953328000847;368.5165611000266;368.5165611000266;368.5165611000266;368.5165611000266;368.5165611000266;368.5165611000266;['m', 'a', 'n', 'o'];0;[0.9194958000443876, 1.03312739985995, 1.1307174998801202, 1.307732499903068];mano;C:\2023\REPSWITCH21092023\REPSWITCH_excgange\REPSWITCH_excgange\data/150104_REPSWITCH1_version1_list4_2023-11-28_16h09.12.624_micRespv1l4_recorded\recording_micRespv1l4_2023-11-28_16h15.13.009.wav;368.5165611000266;369.01658920012414;None;;;;;;150104;001;2023-11-28_16h09.12.624;REPSWITCH1_version1_list4;2022.2.4;143.8768186373534;
REPSWITCH1/PICTURE_464.png;goma;type;darkblue;nontarget;1;NT;3;4;4;1;Stim6_Set3;0;None;71;70;71;0;70;70;70;;;;;;;;;;;;;;;;;;;;;;;369.01658920012414;370.16263550007716;370.16263550007716;370.16263550007716;370.16263550007716;370.16263550007716;370.16263550007716;370.16263550007716;370.16263550007716;373.1838187999092;373.1838187999092;373.1838187999092;373.1838187999092;373.1838187999092;373.1838187999092;['g', 'o', 'm', 'a'];0;[0.9341918998397887, 1.06676539988257, 1.2571000999305397, 1.3589987000450492];goma;C:\2023\REPSWITCH21092023\REPSWITCH_excgange\REPSWITCH_excgange\data/150104_REPSWITCH1_version1_list4_2023-11-28_16h09.12.624_micRespv1l4_recorded\recording_micRespv1l4_2023-11-28_16h15.17.676.wav;373.1838187999092;373.68388290004805;None;;;;;;150104;001;2023-11-28_16h09.12.624;REPSWITCH1_version1_list4;2022.2.4;143.8768186373534;
REPSWITCH1/PICTURE_464.png;goma;type;darkblue;repeat;1;T;3;4;4;1;Stim6_Set3;0;None;72;71;72;0;71;71;71;;;;;;;;;;;;;;;;;;;;;;;373.68388290004805;374.77438200009055;374.77438200009055;374.77438200009055;374.77438200009055;374.77438200009055;374.77438200009055;374.77438200009055;374.77438200009055;377.8025102999527;377.8025102999527;377.8025102999527;377.8025102999527;377.8025102999527;377.8025102999527;['g', 'o', 'm', 'a'];0;[0.9950721997302026, 1.121372199850157, 1.3136697998270392, 1.3993879999034107];goma;C:\2023\REPSWITCH21092023\REPSWITCH_excgange\REPSWITCH_excgange\data/150104_REPSWITCH1_version1_list4_2023-11-28_16h09.12.624_micRespv1l4_recorded\recording_micRespv1l4_2023-11-28_16h15.22.289.wav;377.8025102999527;;None;;;;;;150104;001;2023-11-28_16h09.12.624;REPSWITCH1_version1_list4;2022.2.4;143.8768186373534;
REPSWITCH1/PICTURE_175.png;pintor;speak;gold;filler;2;F;3;4;4;1;Stim1_Set2;0;None;73;72;73;0;72;72;72;;;;;;;;;;;;;;;;;;;;;;;378.30255539994687;379.4971658999566;379.4971658999566;379.4971658999566;379.4971658999566;379.4971658999566;379.4971658999566;379.4971658999566;379.4971658999566;382.5253409999423;382.5253409999423;382.5253409999423;382.5253409999423;382.5253409999423;382.5253409999423;None;0;;;C:\2023\REPSWITCH21092023\REPSWITCH_excgange\REPSWITCH_excgange\data/150104_REPSWITCH1_version1_list4_2023-11-28_16h09.12.624_micRespv1l4_recorded\recording_micRespv1l4_2023-11-28_16h15.27.011.wav;382.5253409999423;;None;;;;;;150104;001;2023-11-28_16h09.12.624;REPSWITCH1_version1_list4;2022.2.4;143.8768186373534;
REPSWITCH1/PICTURE_235.png;aguja;type;darkblue;nontarget;1;NT;3;4;4;1;Stim4_Set3;1;switch;74;73;74;0;73;73;73;;;;;;;;;;;;;;;;;;;;;;;383.02546090004034;384.1088928000536;384.1088928000536;384.1088928000536;384.1088928000536;384.1088928000536;384.1088928000536;384.1088928000536;384.1088928000536;387.1301106000319;387.1301106000319;387.1301106000319;387.1301106000319;387.1301106000319;387.1301106000319;['a', 'g', 'u', 'j', 'a'];0;[0.9897996997460723, 1.1542083998210728, 1.45732509996742, 1.641703899949789, 1.7423716997727752];aguja;C:\2023\REPSWITCH21092023\REPSWITCH_excgange\REPSWITCH_excgange\data/150104_REPSWITCH1_version1_list4_2023-11-28_16h09.12.624_micRespv1l4_recorded\recording_micRespv1l4_2023-11-28_16h15.31.622.wav;387.1301106000319;387.63018790003844;None;;;;;;150104;001;2023-11-28_16h09.12.624;REPSWITCH1_version1_list4;2022.2.4;143.8768186373534;
REPSWITCH1/PICTURE_235.png;aguja;type;darkblue;repeat;1;T;3;4;4;1;Stim4_Set3;0;None;75;74;75;0;74;74;74;;;;;;;;;;;;;;;;;;;;;;;387.63018790003844;388.7831755001098;388.7831755001098;388.7831755001098;388.7831755001098;388.7831755001098;388.7831755001098;388.7831755001098;388.7831755001098;391.8043442000635;391.8043442000635;391.8043442000635;391.8043442000635;391.8043442000635;391.8043442000635;['a', 'g', 'u', 'j', 'a'];0;[0.8500278999563307, 0.9846027998719364, 1.1577761999797076, 1.3361757998354733, 1.4348738000262529];aguja;C:\2023\REPSWITCH21092023\REPSWITCH_excgange\REPSWITCH_excgange\data/150104_REPSWITCH1_version1_list4_2023-11-28_16h09.12.624_micRespv1l4_recorded\recording_micRespv1l4_2023-11-28_16h15.36.296.wav;391.8043442000635;392.3044056999497;None;;;;;;150104;001;2023-11-28_16h09.12.624;REPSWITCH1_version1_list4;2022.2.4;143.8768186373534;
REPSWITCH1/PICTURE_576.png;guante;type;darkblue;filler;1;F;4;4;4;1;Stim1_Set3;1;repeat;76;75;76;0;75;75;75;;;;;;;;;;;;;;;;;;;;;;;392.3044056999497;393.408814500086;393.408814500086;393.408814500086;393.408814500086;393.408814500086;393.408814500086;393.408814500086;393.408814500086;396.43691310007125;396.43691310007125;396.43691310007125;396.43691310007125;396.43691310007125;396.43691310007125;['g', 'u', 'a', 'n', 't', 'e'];0;[0.8239861999172717, 0.9077133999671787, 1.0302817998453975, 1.1309528998099267, 1.247472699964419, 1.3506445998791605];guante;C:\2023\REPSWITCH21092023\REPSWITCH_excgange\REPSWITCH_excgange\data/150104_REPSWITCH1_version1_list4_2023-11-28_16h09.12.624_micRespv1l4_recorded\recording_micRespv1l4_2023-11-28_16h15.40.922.wav;396.43691310007125;;None;;;;;;150104;001;2023-11-28_16h09.12.624;REPSWITCH1_version1_list4;2022.2.4;143.8768186373534;
REPSWITCH1/PICTURE_340.png;espejo;speak;gold;filler;2;F;4;4;4;1;Extra1;0;None;77;76;77;0;76;76;76;;;;;;;;;;;;;;;;;;;;;;;396.93693280010484;398.0968088998925;398.0968088998925;398.0968088998925;398.0968088998925;398.0968088998925;398.0968088998925;398.0968088998925;398.0968088998925;401.11811270006;401.11811270006;401.11811270006;401.11811270006;401.11811270006;401.11811270006;None;0;;;C:\2023\REPSWITCH21092023\REPSWITCH_excgange\REPSWITCH_excgange\data/150104_REPSWITCH1_version1_list4_2023-11-28_16h09.12.624_micRespv1l4_recorded\recording_micRespv1l4_2023-11-28_16h15.45.611.wav;401.11811270006;401.6181061998941;None;;;;;;150104;001;2023-11-28_16h09.12.624;REPSWITCH1_version1_list4;2022.2.4;143.8768186373534;
REPSWITCH1/PICTURE_464.png;goma;speak;gold;filler;2;F;4;4;4;1;Stim6_Set3;1;repeat;78;77;78;0;77;77;77;;;;;;;;;;;;;;;;;;;;;;;401.6181061998941;402.646025700029;402.646025700029;402.646025700029;402.646025700029;402.646025700029;402.646025700029;402.646025700029;402.646025700029;405.6672676000744;405.6672676000744;405.6672676000744;405.6672676000744;405.6672676000744;405.6672676000744;None;0;;;C:\2023\REPSWITCH21092023\REPSWITCH_excgange\REPSWITCH_excgange\data/150104_REPSWITCH1_version1_list4_2023-11-28_16h09.12.624_micRespv1l4_recorded\recording_micRespv1l4_2023-11-28_16h15.50.160.wav;405.6672676000744;406.16733959992416;None;;;;;;150104;001;2023-11-28_16h09.12.624;REPSWITCH1_version1_list4;2022.2.4;143.8768186373534;
REPSWITCH1/PICTURE_338.png;regalo;type;darkblue;nontarget;1;NT;4;4;4;1;Stim6_Set4;0;None;79;78;79;0;78;78;78;;;;;;;;;;;;;;;;;;;;;;;406.16733959992416;407.20911929989234;407.20911929989234;407.20911929989234;407.20911929989234;407.20911929989234;407.20911929989234;407.20911929989234;407.20911929989234;410.2303615999408;410.2303615999408;410.2303615999408;410.2303615999408;410.2303615999408;410.2303615999408;['r', 'e', 'g', 'a', 'o', 'backspace', 'l', 'o', 'o'];0;[1.0472389997448772, 1.1309721998404711, 1.301385099766776, 1.3835948999039829, 1.7606916998047382, 2.548898699693382, 2.7254182999022305, 2.8509233999066055, 2.859940999886021];regaloo;C:\2023\REPSWITCH21092023\REPSWITCH_excgange\REPSWITCH_excgange\data/150104_REPSWITCH1_version1_list4_2023-11-28_16h09.12.624_micRespv1l4_recorded\recording_micRespv1l4_2023-11-28_16h15.54.723.wav;410.2303615999408;410.73043889994733;None;;;;;;150104;001;2023-11-28_16h09.12.624;REPSWITCH1_version1_list4;2022.2.4;143.8768186373534;
REPSWITCH1/PICTURE_338.png;regalo;type;darkblue;repeat;1;T;4;4;4;1;Stim6_Set4;0;None;80;79;80;0;79;79;79;;;;;;;;;;;;;;;;;;;;;;;410.73043889994733;411.7930956000928;411.7930956000928;411.7930956000928;411.7930956000928;411.7930956000928;411.7930956000928;411.7930956000928;411.7930956000928;414.8142669000663;414.8142669000663;414.8142669000663;414.8142669000663;414.8142669000663;414.8142669000663;['r', 'e', 'g', 'a', 'l', 'o'];0;[0.8685058997943997, 0.9821535998489708, 1.1884569998364896, 1.2622134999837726, 1.502412399975583, 1.68575289985165];regalo;C:\2023\REPSWITCH21092023\REPSWITCH_excgange\REPSWITCH_excgange\data/150104_REPSWITCH1_version1_list4_2023-11-28_16h09.12.624_micRespv1l4_recorded\recording_micRespv1l4_2023-11-28_16h15.59.307.wav;414.8142669000663;415.31435719993897;None;;;;;;150104;001;2023-11-28_16h09.12.624;REPSWITCH1_version1_list4;2022.2.4;143.8768186373534;
REPSWITCH1/PICTURE_8.png;pierna;type;darkblue;nontarget;1;NT;4;4;4;1;Stim3_Set4;1;repeat;81;80;81;0;80;80;80;;;;;;;;;;;;;;;;;;;;;;;415.31435719993897;416.38397200009786;416.38397200009786;416.38397200009786;416.38397200009786;416.38397200009786;416.38397200009786;416.38397200009786;416.38397200009786;419.4121073000133;419.4121073000133;419.4121073000133;419.4121073000133;419.4121073000133;419.4121073000133;['p', 'i', 'e', 'r', 'n', 'a'];0;[1.267237199936062, 1.4775848998688161, 1.5724634998477995, 1.621468500001356, 1.7982458998449147, 1.8719462999142706];pierna;C:\2023\REPSWITCH21092023\REPSWITCH_excgange\REPSWITCH_excgange\data/150104_REPSWITCH1_version1_list4_2023-11-28_16h09.12.624_micRespv1l4_recorded\recording_micRespv1l4_2023-11-28_16h16.03.898.wav;419.4121073000133;;None;;;;;;150104;001;2023-11-28_16h09.12.624;REPSWITCH1_version1_list4;2022.2.4;143.8768186373534;
REPSWITCH1/PICTURE_8.png;pierna;speak;gold;switch;2;T;4;4;4;1;Stim3_Set4;0;None;82;81;82;0;81;81;81;;;;;;;;;;;;;;;;;;;;;;;419.9121991000138;420.98874190007336;420.98874190007336;420.98874190007336;420.98874190007336;420.98874190007336;420.98874190007336;420.98874190007336;420.98874190007336;424.0099327999633;424.0099327999633;424.0099327999633;424.0099327999633;424.0099327999633;424.0099327999633;None;0;;;C:\2023\REPSWITCH21092023\REPSWITCH_excgange\REPSWITCH_excgange\data/150104_REPSWITCH1_version1_list4_2023-11-28_16h09.12.624_micRespv1l4_recorded\recording_micRespv1l4_2023-11-28_16h16.08.502.wav;424.0099327999633;424.5099824999925;None;;;;;;150104;001;2023-11-28_16h09.12.624;REPSWITCH1_version1_list4;2022.2.4;143.8768186373534;
REPSWITCH1/PICTURE_271.png;conejo;type;darkblue;filler;1;F;4;4;4;1;Stim7_Set3;0;None;83;82;83;0;82;82;82;;;;;;;;;;;;;;;;;;;;;;;424.5099824999925;425.69072770001367;425.69072770001367;425.69072770001367;425.69072770001367;425.69072770001367;425.69072770001367;425.69072770001367;425.69072770001367;428.71194069995545;428.71194069995545;428.71194069995545;428.71194069995545;428.71194069995545;428.71194069995545;['c', 'o', 'n', 'e', 'j', 'o'];0;[1.1548426998779178, 1.2877649997826666, 1.5484518997836858, 2.1821441997308284, 2.2857909998856485, 2.4641678996849805];conejo;C:\2023\REPSWITCH21092023\REPSWITCH_excgange\REPSWITCH_excgange\data/150104_REPSWITCH1_version1_list4_2023-11-28_16h09.12.624_micRespv1l4_recorded\recording_micRespv1l4_2023-11-28_16h16.13.205.wav;428.71194069995545;429.2119891999755;None;;;;;;150104;001;2023-11-28_16h09.12.624;REPSWITCH1_version1_list4;2022.2.4;143.8768186373534;
REPSWITCH1/PICTURE_687.png;camisa;speak;gold;nontarget;2;NT;4;4;4;1;Stim5_Set4;1;switch;84;83;84;0;83;83;83;;;;;;;;;;;;;;;;;;;;;;;429.2119891999755;430.34410020010546;430.34410020010546;430.34410020010546;430.34410020010546;430.34410020010546;430.34410020010546;430.34410020010546;430.34410020010546;433.365315400064;433.365315400064;433.365315400064;433.365315400064;433.365315400064;433.365315400064;None;0;;;C:\2023\REPSWITCH21092023\REPSWITCH_excgange\REPSWITCH_excgange\data/150104_REPSWITCH1_version1_list4_2023-11-28_16h09.12.624_micRespv1l4_recorded\recording_micRespv1l4_2023-11-28_16h16.17.859.wav;433.365315400064;433.86548619996756;None;;;;;;150104;001;2023-11-28_16h09.12.624;REPSWITCH1_version1_list4;2022.2.4;143.8768186373534;
REPSWITCH1/PICTURE_687.png;camisa;speak;gold;repeat;2;T;4;4;4;1;Stim5_Set4;0;None;85;84;85;0;84;84;84;;;;;;;;;;;;;;;;;;;;;;;433.86548619996756;434.9489204999991;434.9489204999991;434.9489204999991;434.9489204999991;434.9489204999991;434.9489204999991;434.9489204999991;434.9489204999991;437.9700951001141;437.9700951001141;437.9700951001141;437.9700951001141;437.9700951001141;437.9700951001141;None;0;;;C:\2023\REPSWITCH21092023\REPSWITCH_excgange\REPSWITCH_excgange\data/150104_REPSWITCH1_version1_list4_2023-11-28_16h09.12.624_micRespv1l4_recorded\recording_micRespv1l4_2023-11-28_16h16.22.463.wav;437.9700951001141;438.47026320011355;None;;;;;;150104;001;2023-11-28_16h09.12.624;REPSWITCH1_version1_list4;2022.2.4;143.8768186373534;
REPSWITCH1/PICTURE_319.png;vaca;speak;gold;nontarget;2;NT;4;4;4;1;Stim1_Set4;0;None;86;85;86;0;85;85;85;;;;;;;;;;;;;;;;;;;;;;;438.47026320011355;439.5675600999966;439.5675600999966;439.5675600999966;439.5675600999966;439.5675600999966;439.5675600999966;439.5675600999966;439.5675600999966;442.5888565001078;442.5888565001078;442.5888565001078;442.5888565001078;442.5888565001078;442.5888565001078;None;0;;;C:\2023\REPSWITCH21092023\REPSWITCH_excgange\REPSWITCH_excgange\data/150104_REPSWITCH1_version1_list4_2023-11-28_16h09.12.624_micRespv1l4_recorded\recording_micRespv1l4_2023-11-28_16h16.27.082.wav;442.5888565001078;443.08887080010027;None;;;;;;150104;001;2023-11-28_16h09.12.624;REPSWITCH1_version1_list4;2022.2.4;143.8768186373534;
REPSWITCH1/PICTURE_319.png;vaca;type;darkblue;switch;1;T;4;4;4;1;Stim1_Set4;0;None;87;86;87;0;86;86;86;;;;;;;;;;;;;;;;;;;;;;;443.08887080010027;444.17928189993836;444.17928189993836;444.17928189993836;444.17928189993836;444.17928189993836;444.17928189993836;444.17928189993836;444.17928189993836;447.20049179997295;447.20049179997295;447.20049179997295;447.20049179997295;447.20049179997295;447.20049179997295;['v', 'a', 'c', 'a'];0;[1.3485852999147028, 1.4521745997481048, 1.5518329998012632, 1.6745690999086946];vaca;C:\2023\REPSWITCH21092023\REPSWITCH_excgange\REPSWITCH_excgange\data/150104_REPSWITCH1_version1_list4_2023-11-28_16h09.12.624_micRespv1l4_recorded\recording_micRespv1l4_2023-11-28_16h16.31.692.wav;447.20049179997295;447.70056869997643;None;;;;;;150104;001;2023-11-28_16h09.12.624;REPSWITCH1_version1_list4;2022.2.4;143.8768186373534;
REPSWITCH1/PICTURE_242.png;cartero;speak;gold;filler;2;F;4;4;4;1;Stim3_Set3;0;None;88;87;88;0;87;87;87;;;;;;;;;;;;;;;;;;;;;;;447.70056869997643;448.7771048999857;448.7771048999857;448.7771048999857;448.7771048999857;448.7771048999857;448.7771048999857;448.7771048999857;448.7771048999857;451.79832810000516;451.79832810000516;451.79832810000516;451.79832810000516;451.79832810000516;451.79832810000516;None;0;;;C:\2023\REPSWITCH21092023\REPSWITCH_excgange\REPSWITCH_excgange\data/150104_REPSWITCH1_version1_list4_2023-11-28_16h09.12.624_micRespv1l4_recorded\recording_micRespv1l4_2023-11-28_16h16.36.291.wav;451.79832810000516;452.298389100004;None;;;;;;150104;001;2023-11-28_16h09.12.624;REPSWITCH1_version1_list4;2022.2.4;143.8768186373534;
REPSWITCH1/PICTURE_498.png;taza;type;darkblue;nontarget;1;NT;4;4;4;1;Stim4_Set4;1;switch;89;88;89;0;88;88;88;;;;;;;;;;;;;;;;;;;;;;;452.298389100004;453.3818514999002;453.3818514999002;453.3818514999002;453.3818514999002;453.3818514999002;453.3818514999002;453.3818514999002;453.3818514999002;456.4100117001217;456.4100117001217;456.4100117001217;456.4100117001217;456.4100117001217;456.4100117001217;['t', 'a', 'z', 'a'];0;[0.9534135998692364, 1.0600143999326974, 1.2205214998684824, 1.4189469998236746];taza;C:\2023\REPSWITCH21092023\REPSWITCH_excgange\REPSWITCH_excgange\data/150104_REPSWITCH1_version1_list4_2023-11-28_16h09.12.624_micRespv1l4_recorded\recording_micRespv1l4_2023-11-28_16h16.40.896.wav;456.4100117001217;;None;;;;;;150104;001;2023-11-28_16h09.12.624;REPSWITCH1_version1_list4;2022.2.4;143.8768186373534;
REPSWITCH1/PICTURE_498.png;taza;speak;gold;switch;2;T;4;4;4;1;Stim4_Set4;0;None;90;89;90;0;89;89;89;;;;;;;;;;;;;;;;;;;;;;;456.9100699000992;458.00051550008357;458.00051550008357;458.00051550008357;458.00051550008357;458.00051550008357;458.00051550008357;458.00051550008357;458.00051550008357;461.02868300001137;461.02868300001137;461.02868300001137;461.02868300001137;461.02868300001137;461.02868300001137;None;0;;;C:\2023\REPSWITCH21092023\REPSWITCH_excgange\REPSWITCH_excgange\data/150104_REPSWITCH1_version1_list4_2023-11-28_16h09.12.624_micRespv1l4_recorded\recording_micRespv1l4_2023-11-28_16h16.45.515.wav;461.02868300001137;;None;;;;;;150104;001;2023-11-28_16h09.12.624;REPSWITCH1_version1_list4;2022.2.4;143.8768186373534;
REPSWITCH1/PICTURE_391.png;cadena;type;darkblue;filler;1;F;4;4;4;1;Extra2;0;None;91;90;91;0;90;90;90;;;;;;;;;;;;;;;;;;;;;;;461.52876610006206;462.6886432999745;462.6886432999745;462.6886432999745;462.6886432999745;462.6886432999745;462.6886432999745;462.6886432999745;462.6886432999745;465.71687459992245;465.71687459992245;465.71687459992245;465.71687459992245;465.71687459992245;465.71687459992245;['c', 'a', 'd', 'e', 'e', 'n', 'a'];0;[1.0039743997622281, 1.1767513998784125, 1.3307475997135043, 1.5013611998874694, 1.5142947998829186, 1.6255614997353405, 1.7322098996955901];cadeena;C:\2023\REPSWITCH21092023\REPSWITCH_excgange\REPSWITCH_excgange\data/150104_REPSWITCH1_version1_list4_2023-11-28_16h09.12.624_micRespv1l4_recorded\recording_micRespv1l4_2023-11-28_16h16.50.203.wav;465.71687459992245;;None;;;;;;150104;001;2023-11-28_16h09.12.624;REPSWITCH1_version1_list4;2022.2.4;143.8768186373534;
REPSWITCH1/PICTURE_610.png;miel;speak;gold;filler;2;F;4;4;4;1;Stim2_Set3;0;None;92;91;92;0;91;91;91;;;;;;;;;;;;;;;;;;;;;;;466.2168465999421;467.2378436999861;467.2378436999861;467.2378436999861;467.2378436999861;467.2378436999861;467.2378436999861;467.2378436999861;467.2378436999861;470.26605869992636;470.26605869992636;470.26605869992636;470.26605869992636;470.26605869992636;470.26605869992636;None;0;;;C:\2023\REPSWITCH21092023\REPSWITCH_excgange\REPSWITCH_excgange\data/150104_REPSWITCH1_version1_list4_2023-11-28_16h09.12.624_micRespv1l4_recorded\recording_micRespv1l4_2023-11-28_16h16.54.752.wav;470.26605869992636;;None;;;;;;150104;001;2023-11-28_16h09.12.624;REPSWITCH1_version1_list4;2022.2.4;143.8768186373534;
REPSWITCH1/PICTURE_48.png;bombero;speak;gold;nontarget;2;NT;4;4;4;1;Stim7_Set4;1;repeat;93;92;93;0;92;92;92;;;;;;;;;;;;;;;;;;;;;;;470.7661443001125;471.8495760001242;471.8495760001242;471.8495760001242;471.8495760001242;471.8495760001242;471.8495760001242;471.8495760001242;471.8495760001242;474.87080799997784;474.87080799997784;474.87080799997784;474.87080799997784;474.87080799997784;474.87080799997784;None;0;;;C:\2023\REPSWITCH21092023\REPSWITCH_excgange\REPSWITCH_excgange\data/150104_REPSWITCH1_version1_list4_2023-11-28_16h09.12.624_micRespv1l4_recorded\recording_micRespv1l4_2023-11-28_16h16.59.363.wav;474.87080799997784;475.3709122999571;None;;;;;;150104;001;2023-11-28_16h09.12.624;REPSWITCH1_version1_list4;2022.2.4;143.8768186373534;
REPSWITCH1/PICTURE_48.png;bombero;speak;gold;repeat;2;T;4;4;4;1;Stim7_Set4;0;None;94;93;94;0;93;93;93;;;;;;;;;;;;;;;;;;;;;;;475.3709122999571;476.5376635999419;476.5376635999419;476.5376635999419;476.5376635999419;476.5376635999419;476.5376635999419;476.5376635999419;476.5376635999419;479.5588738999795;479.5588738999795;479.5588738999795;479.5588738999795;479.5588738999795;479.5588738999795;None;0;;;C:\2023\REPSWITCH21092023\REPSWITCH_excgange\REPSWITCH_excgange\data/150104_REPSWITCH1_version1_list4_2023-11-28_16h09.12.624_micRespv1l4_recorded\recording_micRespv1l4_2023-11-28_16h17.04.051.wav;479.5588738999795;480.0589423000347;None;;;;;;150104;001;2023-11-28_16h09.12.624;REPSWITCH1_version1_list4;2022.2.4;143.8768186373534;
REPSWITCH1/PICTURE_320.png;iglesia;type;darkblue;filler;1;F;4;4;4;1;Stim8_Set3;1;switch;95;94;95;0;94;94;94;;;;;;;;;;;;;;;;;;;;;;;480.0589423000347;481.28137429989874;481.28137429989874;481.28137429989874;481.28137429989874;481.28137429989874;481.28137429989874;481.28137429989874;481.28137429989874;484.30255439993925;484.30255439993925;484.30255439993925;484.30255439993925;484.30255439993925;484.30255439993925;['i', 'g', 'l', 'e', 's', 'i', 'a'];0;[1.2355299997143447, 1.4381189998239279, 1.668968299869448, 1.8134394998196512, 2.0537119996733963, 2.213067799806595, 2.3253774996846914];iglesia;C:\2023\REPSWITCH21092023\REPSWITCH_excgange\REPSWITCH_excgange\data/150104_REPSWITCH1_version1_list4_2023-11-28_16h09.12.624_micRespv1l4_recorded\recording_micRespv1l4_2023-11-28_16h17.08.795.wav;484.30255439993925;484.80266129993834;None;;;;;;150104;001;2023-11-28_16h09.12.624;REPSWITCH1_version1_list4;2022.2.4;143.8768186373534;
REPSWITCH1/PICTURE_35.png;oreja;speak;gold;filler;2;F;4;4;4;1;Stim5_Set3;0;None;96;95;96;0;95;95;95;;;;;;;;;;;;;;;;;;;;;;;484.80266129993834;485.8722254000604;485.8722254000604;485.8722254000604;485.8722254000604;485.8722254000604;485.8722254000604;485.8722254000604;485.8722254000604;488.90038269991055;488.90038269991055;488.90038269991055;488.90038269991055;488.90038269991055;488.90038269991055;None;0;;;C:\2023\REPSWITCH21092023\REPSWITCH_excgange\REPSWITCH_excgange\data/150104_REPSWITCH1_version1_list4_2023-11-28_16h09.12.624_micRespv1l4_recorded\recording_micRespv1l4_2023-11-28_16h17.13.386.wav;488.90038269991055;;None;;;;;;150104;001;2023-11-28_16h09.12.624;REPSWITCH1_version1_list4;2022.2.4;143.8768186373534;
REPSWITCH1/PICTURE_728.png;pulpo;speak;gold;nontarget;2;NT;4;4;4;1;Stim8_Set4;1;repeat;97;96;97;0;96;96;96;;;;;;;;;;;;;;;;;;;;;;;489.4004822000861;490.49787049996667;490.49787049996667;490.49787049996667;490.49787049996667;490.49787049996667;490.49787049996667;490.49787049996667;490.49787049996667;493.51904290006496;493.51904290006496;493.51904290006496;493.51904290006496;493.51904290006496;493.51904290006496;None;0;;;C:\2023\REPSWITCH21092023\REPSWITCH_excgange\REPSWITCH_excgange\data/150104_REPSWITCH1_version1_list4_2023-11-28_16h09.12.624_micRespv1l4_recorded\recording_micRespv1l4_2023-11-28_16h17.18.011.wav;493.51904290006496;494.01914039999247;None;;;;;;150104;001;2023-11-28_16h09.12.624;REPSWITCH1_version1_list4;2022.2.4;143.8768186373534;
REPSWITCH1/PICTURE_728.png;pulpo;type;darkblue;switch;1;T;4;4;4;1;Stim8_Set4;0;None;98;97;98;0;97;97;97;;;;;;;;;;;;;;;;;;;;;;;494.01914039999247;495.04013659991324;495.04013659991324;495.04013659991324;495.04013659991324;495.04013659991324;495.04013659991324;495.04013659991324;495.04013659991324;498.0613408999052;498.0613408999052;498.0613408999052;498.0613408999052;498.0613408999052;498.0613408999052;['p', 'u', 'l', 'p', 'o'];0;[1.0537231999915093, 1.4088552999310195, 1.7048897000495344, 1.9064551999326795, 2.081150900106877];pulpo;C:\2023\REPSWITCH21092023\REPSWITCH_excgange\REPSWITCH_excgange\data/150104_REPSWITCH1_version1_list4_2023-11-28_16h09.12.624_micRespv1l4_recorded\recording_micRespv1l4_2023-11-28_16h17.22.553.wav;498.0613408999052;498.56143320002593;None;;;;;;150104;001;2023-11-28_16h09.12.624;REPSWITCH1_version1_list4;2022.2.4;143.8768186373534;
REPSWITCH1/PICTURE_590.png;escoba;speak;gold;filler;2;F;4;4;4;1;Extra3;0;None;99;98;99;0;98;98;98;;;;;;;;;;;;;;;;;;;;;;;498.56143320002593;499.6310181999579;499.6310181999579;499.6310181999579;499.6310181999579;499.6310181999579;499.6310181999579;499.6310181999579;499.6310181999579;502.6522274001036;502.6522274001036;502.6522274001036;502.6522274001036;502.6522274001036;502.6522274001036;None;0;;;C:\2023\REPSWITCH21092023\REPSWITCH_excgange\REPSWITCH_excgange\data/150104_REPSWITCH1_version1_list4_2023-11-28_16h09.12.624_micRespv1l4_recorded\recording_micRespv1l4_2023-11-28_16h17.27.145.wav;502.6522274001036;503.1522838000674;None;;;;;;150104;001;2023-11-28_16h09.12.624;REPSWITCH1_version1_list4;2022.2.4;143.8768186373534;
REPSWITCH1/PICTURE_235.png;aguja;type;darkblue;filler;1;F;4;4;4;1;Stim4_Set3;0;None;100;99;100;0;99;99;99;;;;;;;;;;;;;;;;;;;;;;;503.1522838000674;504.1732391999103;504.1732391999103;504.1732391999103;504.1732391999103;504.1732391999103;504.1732391999103;504.1732391999103;504.1732391999103;507.194487700006;507.194487700006;507.194487700006;507.194487700006;507.194487700006;507.194487700006;['a', 'g', 'u', 'j', 'a'];0;[1.062463799957186, 1.2013912999536842, 1.4037524999585003, 1.5572383999824524, 1.6538799998816103];aguja;C:\2023\REPSWITCH21092023\REPSWITCH_excgange\REPSWITCH_excgange\data/150104_REPSWITCH1_version1_list4_2023-11-28_16h09.12.624_micRespv1l4_recorded\recording_micRespv1l4_2023-11-28_16h17.31.687.wav;507.194487700006;507.69453340000473;None;;;;;;150104;001;2023-11-28_16h09.12.624;REPSWITCH1_version1_list4;2022.2.4;143.8768186373534;
REPSWITCH1/PICTURE_719.png;baño;type;darkblue;nontarget;1;NT;4;4;4;1;Stim2_Set4;1;repeat;101;100;101;0;100;100;100;;;;;;;;;;;;;;;;;;;;;;;507.69453340000473;508.7571561001241;508.7571561001241;508.7571561001241;508.7571561001241;508.7571561001241;508.7571561001241;508.7571561001241;508.7571561001241;511.7853840999305;511.7853840999305;511.7853840999305;511.7853840999305;511.7853840999305;511.7853840999305;['b', 'a', 'ñ', 'o'];0;[0.9395065999124199, 1.0593724998179823, 1.257669399958104, 1.4431496998295188];baño;C:\2023\REPSWITCH21092023\REPSWITCH_excgange\REPSWITCH_excgange\data/150104_REPSWITCH1_version1_list4_2023-11-28_16h09.12.624_micRespv1l4_recorded\recording_micRespv1l4_2023-11-28_16h17.36.272.wav;511.7853840999305;;None;;;;;;150104;001;2023-11-28_16h09.12.624;REPSWITCH1_version1_list4;2022.2.4;143.8768186373534;
REPSWITCH1/PICTURE_719.png;baño;type;darkblue;repeat;1;T;4;4;4;1;Stim2_Set4;0;None;102;101;102;0;101;101;101;;;;;;;;;;;;;;;;;;;;;;;512.2854323000647;513.3272174999584;513.3272174999584;513.3272174999584;513.3272174999584;513.3272174999584;513.3272174999584;513.3272174999584;513.3272174999584;516.3554104000796;516.3554104000796;516.3554104000796;516.3554104000796;516.3554104000796;516.3554104000796;['b', 'a', 'ñ', 'o'];0;[0.9595015998929739, 1.0721241999417543, 1.2734401999041438, 1.5117589000146836];baño;C:\2023\REPSWITCH21092023\REPSWITCH_excgange\REPSWITCH_excgange\data/150104_REPSWITCH1_version1_list4_2023-11-28_16h09.12.624_micRespv1l4_recorded\recording_micRespv1l4_2023-11-28_16h17.40.842.wav;516.3554104000796;;space;516.8554390000645;516.8554390000645;15.97506450000219;;;150104;001;2023-11-28_16h09.12.624;REPSWITCH1_version1_list4;2022.2.4;143.8768186373534;
REPSWITCH1/PICTURE_646.png;tronco;speak;gold;filler;2;F;1;3;4;1;Extra4;0;None;103;102;1;0;102;102;102;;;;;;;;;;;;;;;;;;;;;;;532.8436678999569;533.9689029001165;533.9689029001165;533.9689029001165;533.9689029001165;533.9689029001165;533.9689029001165;533.9689029001165;533.9689029001165;536.9969854999799;536.9969854999799;536.9969854999799;536.9969854999799;536.9969854999799;536.9969854999799;None;0;;;C:\2023\REPSWITCH21092023\REPSWITCH_excgange\REPSWITCH_excgange\data/150104_REPSWITCH1_version1_list4_2023-11-28_16h09.12.624_micRespv1l4_recorded\recording_micRespv1l4_2023-11-28_16h18.01.483.wav;536.9969854999799;;None;;;;;;150104;001;2023-11-28_16h09.12.624;REPSWITCH1_version1_list4;2022.2.4;143.8768186373534;
REPSWITCH1/PICTURE_340.png;espejo;type;darkblue;filler;1;F;1;3;4;1;Extra1;0;None;104;103;2;0;103;103;103;;;;;;;;;;;;;;;;;;;;;;;537.497035899898;538.6500059000682;538.6500059000682;538.6500059000682;538.6500059000682;538.6500059000682;538.6500059000682;538.6500059000682;538.6500059000682;541.671235299902;541.671235299902;541.671235299902;541.671235299902;541.671235299902;541.671235299902;['e', 's', 'p', 'e', 'j', 'o'];0;[0.8309063999913633, 1.043028499931097, 1.4065060999710113, 1.6871549999341369, 1.9333076998591423, 2.107706099981442];espejo;C:\2023\REPSWITCH21092023\REPSWITCH_excgange\REPSWITCH_excgange\data/150104_REPSWITCH1_version1_list4_2023-11-28_16h09.12.624_micRespv1l4_recorded\recording_micRespv1l4_2023-11-28_16h18.06.163.wav;541.671235299902;542.1712990000378;None;;;;;;150104;001;2023-11-28_16h09.12.624;REPSWITCH1_version1_list4;2022.2.4;143.8768186373534;
REPSWITCH1/PICTURE_338.png;regalo;speak;gold;filler;2;F;1;3;4;1;Stim6_Set4;0;None;105;104;3;0;104;104;104;;;;;;;;;;;;;;;;;;;;;;;542.1712990000378;543.4075903999619;543.4075903999619;543.4075903999619;543.4075903999619;543.4075903999619;543.4075903999619;543.4075903999619;543.4075903999619;546.4358089000452;546.4358089000452;546.4358089000452;546.4358089000452;546.4358089000452;546.4358089000452;None;0;;;C:\2023\REPSWITCH21092023\REPSWITCH_excgange\REPSWITCH_excgange\data/150104_REPSWITCH1_version1_list4_2023-11-28_16h09.12.624_micRespv1l4_recorded\recording_micRespv1l4_2023-11-28_16h18.10.921.wav;546.4358089000452;;None;;;;;;150104;001;2023-11-28_16h09.12.624;REPSWITCH1_version1_list4;2022.2.4;143.8768186373534;
REPSWITCH1/PICTURE_142.png;vaso;speak;gold;nontarget;2;NT;1;3;4;1;Stim7_Set1;1;repeat;106;105;4;0;105;105;105;;;;;;;;;;;;;;;;;;;;;;;546.9358119999524;548.0123534000013;548.0123534000013;548.0123534000013;548.0123534000013;548.0123534000013;548.0123534000013;548.0123534000013;548.0123534000013;551.0335768999066;551.0335768999066;551.0335768999066;551.0335768999066;551.0335768999066;551.0335768999066;None;0;;;C:\2023\REPSWITCH21092023\REPSWITCH_excgange\REPSWITCH_excgange\data/150104_REPSWITCH1_version1_list4_2023-11-28_16h09.12.624_micRespv1l4_recorded\recording_micRespv1l4_2023-11-28_16h18.15.526.wav;551.0335768999066;551.5336247000378;None;;;;;;150104;001;2023-11-28_16h09.12.624;REPSWITCH1_version1_list4;2022.2.4;143.8768186373534;
REPSWITCH1/PICTURE_142.png;vaso;speak;gold;repeat;2;T;1;3;4;1;Stim7_Set1;0;None;107;106;5;0;106;106;106;;;;;;;;;;;;;;;;;;;;;;;551.5336247000378;552.686575199943;552.686575199943;552.686575199943;552.686575199943;552.686575199943;552.686575199943;552.686575199943;552.686575199943;555.707767700078;555.707767700078;555.707767700078;555.707767700078;555.707767700078;555.707767700078;None;0;;;C:\2023\REPSWITCH21092023\REPSWITCH_excgange\REPSWITCH_excgange\data/150104_REPSWITCH1_version1_list4_2023-11-28_16h09.12.624_micRespv1l4_recorded\recording_micRespv1l4_2023-11-28_16h18.20.201.wav;555.707767700078;556.2078384999186;None;;;;;;150104;001;2023-11-28_16h09.12.624;REPSWITCH1_version1_list4;2022.2.4;143.8768186373534;
REPSWITCH1/PICTURE_498.png;taza;type;darkblue;filler;1;F;1;3;4;1;Stim4_Set4;0;None;108;107;6;0;107;107;107;;;;;;;;;;;;;;;;;;;;;;;556.2078384999186;557.3329924999271;557.3329924999271;557.3329924999271;557.3329924999271;557.3329924999271;557.3329924999271;557.3329924999271;557.3329924999271;560.3542051000986;560.3542051000986;560.3542051000986;560.3542051000986;560.3542051000986;560.3542051000986;['t', 'a', 'z', 'a'];0;[1.0093151000328362, 1.1669155000708997, 1.3094611999113113, 1.4878289999905974];taza;C:\2023\REPSWITCH21092023\REPSWITCH_excgange\REPSWITCH_excgange\data/150104_REPSWITCH1_version1_list4_2023-11-28_16h09.12.624_micRespv1l4_recorded\recording_micRespv1l4_2023-11-28_16h18.24.847.wav;560.3542051000986;560.8543773000129;None;;;;;;150104;001;2023-11-28_16h09.12.624;REPSWITCH1_version1_list4;2022.2.4;143.8768186373534;
REPSWITCH1/PICTURE_16.png;cazador;speak;gold;nontarget;2;NT;1;3;4;1;Stim6_Set1;1;switch;109;108;7;0;108;108;108;;;;;;;;;;;;;;;;;;;;;;;560.8543773000129;561.9308517999016;561.9308517999016;561.9308517999016;561.9308517999016;561.9308517999016;561.9308517999016;561.9308517999016;561.9308517999016;564.9520288000349;564.9520288000349;564.9520288000349;564.9520288000349;564.9520288000349;564.9520288000349;None;0;;;C:\2023\REPSWITCH21092023\REPSWITCH_excgange\REPSWITCH_excgange\data/150104_REPSWITCH1_version1_list4_2023-11-28_16h09.12.624_micRespv1l4_recorded\recording_micRespv1l4_2023-11-28_16h18.29.445.wav;564.9520288000349;565.4521276999731;None;;;;;;150104;001;2023-11-28_16h09.12.624;REPSWITCH1_version1_list4;2022.2.4;143.8768186373534;
REPSWITCH1/PICTURE_16.png;cazador;speak;gold;repeat;2;T;1;3;4;1;Stim6_Set1;0;None;110;109;8;0;109;109;109;;;;;;;;;;;;;;;;;;;;;;;565.4521276999731;566.598110599909;566.598110599909;566.598110599909;566.598110599909;566.598110599909;566.598110599909;566.598110599909;566.598110599909;569.619347800035;569.619347800035;569.619347800035;569.619347800035;569.619347800035;569.619347800035;None;0;;;C:\2023\REPSWITCH21092023\REPSWITCH_excgange\REPSWITCH_excgange\data/150104_REPSWITCH1_version1_list4_2023-11-28_16h09.12.624_micRespv1l4_recorded\recording_micRespv1l4_2023-11-28_16h18.34.112.wav;569.619347800035;570.1194124999456;None;;;;;;150104;001;2023-11-28_16h09.12.624;REPSWITCH1_version1_list4;2022.2.4;143.8768186373534;
REPSWITCH1/PICTURE_719.png;baño;type;darkblue;filler;1;F;1;3;4;1;Stim2_Set4;0;None;111;110;9;0;110;110;110;;;;;;;;;;;;;;;;;;;;;;;570.1194124999456;571.2931761001237;571.2931761001237;571.2931761001237;571.2931761001237;571.2931761001237;571.2931761001237;571.2931761001237;571.2931761001237;574.314401099924;574.314401099924;574.314401099924;574.314401099924;574.314401099924;574.314401099924;['b', 'a', 'ñ', 'o'];0;[1.1437172999139875, 1.2620702998246998, 1.4753237999975681, 1.6696718998719007];baño;C:\2023\REPSWITCH21092023\REPSWITCH_excgange\REPSWITCH_excgange\data/150104_REPSWITCH1_version1_list4_2023-11-28_16h09.12.624_micRespv1l4_recorded\recording_micRespv1l4_2023-11-28_16h18.38.807.wav;574.314401099924;574.8144737000111;None;;;;;;150104;001;2023-11-28_16h09.12.624;REPSWITCH1_version1_list4;2022.2.4;143.8768186373534;
REPSWITCH1/PICTURE_169.png;espalda;speak;gold;nontarget;2;NT;1;3;4;1;Stim8_Set1;0;None;112;111;10;0;111;111;111;;;;;;;;;;;;;;;;;;;;;;;574.8144737000111;575.9813333000056;575.9813333000056;575.9813333000056;575.9813333000056;575.9813333000056;575.9813333000056;575.9813333000056;575.9813333000056;579.0024878999684;579.0024878999684;579.0024878999684;579.0024878999684;579.0024878999684;579.0024878999684;None;0;;;C:\2023\REPSWITCH21092023\REPSWITCH_excgange\REPSWITCH_excgange\data/150104_REPSWITCH1_version1_list4_2023-11-28_16h09.12.624_micRespv1l4_recorded\recording_micRespv1l4_2023-11-28_16h18.43.494.wav;579.0024878999684;579.5025889999233;None;;;;;;150104;001;2023-11-28_16h09.12.624;REPSWITCH1_version1_list4;2022.2.4;143.8768186373534;
REPSWITCH1/PICTURE_169.png;espalda;type;darkblue;switch;1;T;1;3;4;1;Stim8_Set1;0;None;113;112;11;0;112;112;112;;;;;;;;;;;;;;;;;;;;;;;579.5025889999233;580.5791279000696;580.5791279000696;580.5791279000696;580.5791279000696;580.5791279000696;580.5791279000696;580.5791279000696;580.5791279000696;583.6003489000723;583.6003489000723;583.6003489000723;583.6003489000723;583.6003489000723;583.6003489000723;['e', 's', 'p', 'a', 'l', 'd', 'a'];0;[1.0787355999927968, 1.2644074000418186, 1.445389499887824, 1.549038500059396, 1.7035719999112189, 1.8432803000323474, 2.286104300059378];espalda;C:\2023\REPSWITCH21092023\REPSWITCH_excgange\REPSWITCH_excgange\data/150104_REPSWITCH1_version1_list4_2023-11-28_16h09.12.624_micRespv1l4_recorded\recording_micRespv1l4_2023-11-28_16h18.48.093.wav;583.6003489000723;584.1004111000802;None;;;;;;150104;001;2023-11-28_16h09.12.624;REPSWITCH1_version1_list4;2022.2.4;143.8768186373534;
REPSWITCH1/PICTURE_687.png;camisa;type;darkblue;filler;1;F;1;3;4;1;Stim5_Set4;0;None;114;113;12;0;113;113;113;;;;;;;;;;;;;;;;;;;;;;;584.1004111000802;585.2116727000102;585.2116727000102;585.2116727000102;585.2116727000102;585.2116727000102;585.2116727000102;585.2116727000102;585.2116727000102;588.2329569999129;588.2329569999129;588.2329569999129;588.2329569999129;588.2329569999129;588.2329569999129;['c', 'a', 'm', 'i', 's', 'a'];0;[1.059294199803844, 1.1463037997018546, 1.289847299689427, 1.4413517997600138, 1.4991161997895688, 1.572903499705717];camisa;C:\2023\REPSWITCH21092023\REPSWITCH_excgange\REPSWITCH_excgange\data/150104_REPSWITCH1_version1_list4_2023-11-28_16h09.12.624_micRespv1l4_recorded\recording_micRespv1l4_2023-11-28_16h18.52.725.wav;588.2329569999129;588.7329573999159;None;;;;;;150104;001;2023-11-28_16h09.12.624;REPSWITCH1_version1_list4;2022.2.4;143.8768186373534;
REPSWITCH1/PICTURE_178.png;puente;type;darkblue;nontarget;1;NT;1;3;4;1;Stim1_Set1;1;repeat;115;114;13;0;114;114;114;;;;;;;;;;;;;;;;;;;;;;;588.7329573999159;589.8164331999142;589.8164331999142;589.8164331999142;589.8164331999142;589.8164331999142;589.8164331999142;589.8164331999142;589.8164331999142;592.8376476000994;592.8376476000994;592.8376476000994;592.8376476000994;592.8376476000994;592.8376476000994;['p', 'u', 'e', 'n', 't', 'e'];0;[1.066234199795872, 1.3064186999108642, 1.7514781998470426, 1.9179252998437732, 1.9916821999941021, 2.0641718998085707];puente;C:\2023\REPSWITCH21092023\REPSWITCH_excgange\REPSWITCH_excgange\data/150104_REPSWITCH1_version1_list4_2023-11-28_16h09.12.624_micRespv1l4_recorded\recording_micRespv1l4_2023-11-28_16h18.57.330.wav;592.8376476000994;593.3377690000925;None;;;;;;150104;001;2023-11-28_16h09.12.624;REPSWITCH1_version1_list4;2022.2.4;143.8768186373534;
REPSWITCH1/PICTURE_178.png;puente;speak;gold;switch;2;T;1;3;4;1;Stim1_Set1;0;None;116;115;14;0;115;115;115;;;;;;;;;;;;;;;;;;;;;;;593.3377690000925;594.4073777000885;594.4073777000885;594.4073777000885;594.4073777000885;594.4073777000885;594.4073777000885;594.4073777000885;594.4073777000885;597.4354552000295;597.4354552000295;597.4354552000295;597.4354552000295;597.4354552000295;597.4354552000295;None;0;;;C:\2023\REPSWITCH21092023\REPSWITCH_excgange\REPSWITCH_excgange\data/150104_REPSWITCH1_version1_list4_2023-11-28_16h09.12.624_micRespv1l4_recorded\recording_micRespv1l4_2023-11-28_16h19.01.922.wav;597.4354552000295;;None;;;;;;150104;001;2023-11-28_16h09.12.624;REPSWITCH1_version1_list4;2022.2.4;143.8768186373534;
REPSWITCH1/PICTURE_128.png;muñeca;speak;gold;nontarget;2;NT;1;3;4;1;Stim4_Set1;1;repeat;117;116;15;0;116;116;116;;;;;;;;;;;;;;;;;;;;;;;597.9355655000545;599.012122800108;599.012122800108;599.012122800108;599.012122800108;599.012122800108;599.012122800108;599.012122800108;599.012122800108;602.0332899000496;602.0332899000496;602.0332899000496;602.0332899000496;602.0332899000496;602.0332899000496;None;0;;;C:\2023\REPSWITCH21092023\REPSWITCH_excgange\REPSWITCH_excgange\data/150104_REPSWITCH1_version1_list4_2023-11-28_16h09.12.624_micRespv1l4_recorded\recording_micRespv1l4_2023-11-28_16h19.06.526.wav;602.0332899000496;602.5334600000642;None;;;;;;150104;001;2023-11-28_16h09.12.624;REPSWITCH1_version1_list4;2022.2.4;143.8768186373534;
REPSWITCH1/PICTURE_128.png;muñeca;type;darkblue;switch;1;T;1;3;4;1;Stim4_Set1;0;None;118;117;16;0;117;117;117;;;;;;;;;;;;;;;;;;;;;;;602.5334600000642;603.5890786000527;603.5890786000527;603.5890786000527;603.5890786000527;603.5890786000527;603.5890786000527;603.5890786000527;603.5890786000527;606.6102748000994;606.6102748000994;606.6102748000994;606.6102748000994;606.6102748000994;606.6102748000994;['m', 'u', 'ñ', 'e', 'c', 'a'];0;[0.9641993998084217, 1.127645299769938, 1.485120799858123, 1.5758173998910934, 1.7801284999586642, 1.879754499765113];muñeca;C:\2023\REPSWITCH21092023\REPSWITCH_excgange\REPSWITCH_excgange\data/150104_REPSWITCH1_version1_list4_2023-11-28_16h09.12.624_micRespv1l4_recorded\recording_micRespv1l4_2023-11-28_16h19.11.103.wav;606.6102748000994;607.1103749999311;None;;;;;;150104;001;2023-11-28_16h09.12.624;REPSWITCH1_version1_list4;2022.2.4;143.8768186373534;
REPSWITCH1/PICTURE_319.png;vaca;speak;gold;filler;2;F;1;3;4;1;Stim1_Set4;1;switch;119;118;17;0;118;118;118;;;;;;;;;;;;;;;;;;;;;;;607.1103749999311;608.1939177999739;608.1939177999739;608.1939177999739;608.1939177999739;608.1939177999739;608.1939177999739;608.1939177999739;608.1939177999739;611.2220093999058;611.2220093999058;611.2220093999058;611.2220093999058;611.2220093999058;611.2220093999058;None;0;;;C:\2023\REPSWITCH21092023\REPSWITCH_excgange\REPSWITCH_excgange\data/150104_REPSWITCH1_version1_list4_2023-11-28_16h09.12.624_micRespv1l4_recorded\recording_micRespv1l4_2023-11-28_16h19.15.708.wav;611.2220093999058;;None;;;;;;150104;001;2023-11-28_16h09.12.624;REPSWITCH1_version1_list4;2022.2.4;143.8768186373534;
REPSWITCH1/PICTURE_728.png;pulpo;speak;gold;filler;2;F;1;3;4;1;Stim8_Set4;0;None;120;119;18;0;119;119;119;;;;;;;;;;;;;;;;;;;;;;;611.7220976999961;612.8889359999448;612.8889359999448;612.8889359999448;612.8889359999448;612.8889359999448;612.8889359999448;612.8889359999448;612.8889359999448;615.9101082999259;615.9101082999259;615.9101082999259;615.9101082999259;615.9101082999259;615.9101082999259;None;0;;;C:\2023\REPSWITCH21092023\REPSWITCH_excgange\REPSWITCH_excgange\data/150104_REPSWITCH1_version1_list4_2023-11-28_16h09.12.624_micRespv1l4_recorded\recording_micRespv1l4_2023-11-28_16h19.20.403.wav;615.9101082999259;616.4102008999325;None;;;;;;150104;001;2023-11-28_16h09.12.624;REPSWITCH1_version1_list4;2022.2.4;143.8768186373534;
REPSWITCH1/PICTURE_381.png;fresa;type;darkblue;nontarget;1;NT;1;3;4;1;Stim2_Set1;1;switch;121;120;19;0;120;120;120;;;;;;;;;;;;;;;;;;;;;;;616.4102008999325;617.5284059999976;617.5284059999976;617.5284059999976;617.5284059999976;617.5284059999976;617.5284059999976;617.5284059999976;617.5284059999976;620.556568;620.556568;620.556568;620.556568;620.556568;620.556568;['f', 'r', 'e', 's', 'a'];0;[0.9374442999251187, 1.1446849999483675, 1.245822099968791, 1.5521457998547703, 1.6787232998758554];fresa;C:\2023\REPSWITCH21092023\REPSWITCH_excgange\REPSWITCH_excgange\data/150104_REPSWITCH1_version1_list4_2023-11-28_16h09.12.624_micRespv1l4_recorded\recording_micRespv1l4_2023-11-28_16h19.25.042.wav;620.556568;;None;;;;;;150104;001;2023-11-28_16h09.12.624;REPSWITCH1_version1_list4;2022.2.4;143.8768186373534;
