Trial_no;CorrectAns;SubjResponse;Notes;backspace;Item_correct;Modality_Correct;Error_Corrected;Hesitation;RT;Duration;RespModal;KeyResp_keys;key1;key2;key3;key4;key5;key6;key7;key8;key9;key10;key11;key12;key13;key14;key15;RepSwitch;baseline;baseline_condition;micRespv1l1.started
1;espejo;espejo;;0;;1;0;0;1.1562615;0.895465;type;['e', 's', 'p', 'e', 'j', 'o'];1.1562615;1.2998903;1.4761257;1.5721227;1.8596902;2.0517265;NA;NA;NA;NA;NA;NA;NA;NA;NA;filler;0;None;24.5305766
2;cadena;cadena;;0;;1;0;0;1.208;0.451187;speak;None;NA;NA;NA;NA;NA;NA;NA;NA;NA;NA;NA;NA;NA;NA;NA;filler;0;None;29.17699
3;puente;puente;;0;;1;0;0;1.009;0.449831;speak;None;NA;NA;NA;NA;NA;NA;NA;NA;NA;NA;NA;NA;NA;NA;NA;nontarget;1;repeat;33.7956932
4;puente;puente;;0;;1;0;0;1.113;0.520737;speak;None;NA;NA;NA;NA;NA;NA;NA;NA;NA;NA;NA;NA;NA;NA;NA;repeat;0;None;38.4908744
5;vaca;vaca;;0;;1;0;0;1.0228119;0.5122477;type;['v', 'a', 'c', 'a'];1.0228119;1.1507497;1.4387506;1.5350596;NA;NA;NA;NA;NA;NA;NA;NA;NA;NA;NA;filler;0;None;43.0958672
6;fresa;fr(esa};started typing, then spoke;0;;0;1;0;1.900556;0.384911;speak;['f', 'r'];1.1624933;1.3375314;NA;NA;NA;NA;NA;NA;NA;NA;NA;NA;NA;NA;NA;nontarget;1;switch;47.8045381
7;fresa;fresa;;0;;1;0;0;1.20712;0.44088;speak;None;NA;NA;NA;NA;NA;NA;NA;NA;NA;NA;NA;NA;NA;NA;NA;repeat;0;None;52.3744323
8;baño;baño;;0;;1;0;0;1.0619044;0.8637799;type;['b', 'a', 'ñ', 'o'];1.0619044;1.1738465;1.7176914;1.9256843;NA;NA;NA;NA;NA;NA;NA;NA;NA;NA;NA;filler;1;switch;56.9443785
9;traje;traje;;0;;1;0;0;1.224;0.461926;speak;None;NA;NA;NA;NA;NA;NA;NA;NA;NA;NA;NA;NA;NA;NA;NA;nontarget;0;None;61.6743967
10;traje;traje;;0;;1;0;0;1.0531189;0.6889526;type;['t', 'r', 'a', 'j', 'e'];1.0531189;1.2290729;1.2930979;1.6452155;1.7420715;NA;NA;NA;NA;NA;NA;NA;NA;NA;NA;switch;0;None;66.3137064
11;camisa;camisa;;0;;1;0;0;1.185472;0.543944;speak;None;NA;NA;NA;NA;NA;NA;NA;NA;NA;NA;NA;NA;NA;NA;NA;filler;0;None;70.9392548
12;muñeca;muñeca;;0;;1;0;0;1.2712538;1.4079534;type;['m', 'u', 'ñ', 'e', 'c', 'a'];1.2712538;1.5275862;1.9430791;2.1836469;2.5517615;2.6792072;NA;NA;NA;NA;NA;NA;NA;NA;NA;nontarget;1;switch;75.5510774
13;muñeca;muñeca;;0;;1;0;0;0.856415;0.625391;speak;None;NA;NA;NA;NA;NA;NA;NA;NA;NA;NA;NA;NA;NA;NA;NA;switch;0;None;80.1974443
14;pierna;pierna;;0;;1;0;0;1.193;0.491683;speak;None;NA;NA;NA;NA;NA;NA;NA;NA;NA;NA;NA;NA;NA;NA;NA;filler;0;None;84.7884485
15;pavo;pavo;;0;;1;0;0;1.310171;0.386262;speak;None;NA;NA;NA;NA;NA;NA;NA;NA;NA;NA;NA;NA;NA;NA;NA;nontarget;0;None;89.4417953
16;pavo;pavo;;0;;1;0;0;1.1791784;1.3595593;type;['p', 'a', 'v', 'o'];1.1791784;1.8351718;2.4107786;2.5387377;NA;NA;NA;NA;NA;NA;NA;NA;NA;NA;NA;switch;0;None;94.0118736
17;cazador;cazador;;0;;1;0;0;1.1018073;1.1207068;type;['c', 'a', 'z', 'a', 'd', 'o', 'r'];1.1018073;1.229812;1.4370688;1.6137321;1.8376605;2.0616342;2.2225141;NA;NA;NA;NA;NA;NA;NA;NA;nontarget;1;switch;98.6170988
18;cazador;cazador;;0;;1;0;0;1.3816164;1.1205105;type;['c', 'a', 'z', 'a', 'd', 'o', 'r'];1.3816164;1.4776187;1.6696169;1.8456799;2.0857947;2.3101251;2.5021269;NA;NA;NA;NA;NA;NA;NA;NA;repeat;0;None;103.200511
19;taza;taza;;0;;1;0;0;0.960018;0.477417;speak;None;NA;NA;NA;NA;NA;NA;NA;NA;NA;NA;NA;NA;NA;NA;NA;filler;0;None;107.8125912
20;bombero;bombero;;0;;1;0;0;1.293945;1.6635633;type;['b', 'o', 'm', 'b', 'e', 'r', 'o'];1.293945;1.4859041;1.7262316;2.4773421;2.5895448;2.7495459;2.9575083;NA;NA;NA;NA;NA;NA;NA;NA;filler;0;None;112.472607
21;vaso;vaso;;0;;1;0;0;1.2698062;0.464407;type;['v', 'a', 's', 'o'];1.2698062;1.3497686;1.5257617;1.7342132;NA;NA;NA;NA;NA;NA;NA;NA;NA;NA;NA;nontarget;1;repeat;117.2162543
22;vaso;vaso;;0;;1;0;0;0.8024195;0.4480066;type;['v', 'a', 's', 'o'];0.8024195;0.8824213;1.0424035;1.2504261;NA;NA;NA;NA;NA;NA;NA;NA;NA;NA;NA;repeat;0;None;121.828122
23;regalo;regalo;;0;;1;0;0;1.046637;0.600114;speak;None;NA;NA;NA;NA;NA;NA;NA;NA;NA;NA;NA;NA;NA;NA;NA;filler;1;switch;126.4256766
24;pulpo;pulp;;0;;1;0;0;2.0580738;0.863001;type;['p', 'u', 'l', 'p'];2.0580738;2.3450395;2.745127;2.9210748;NA;NA;NA;NA;NA;NA;NA;NA;NA;NA;NA;filler;1;switch;130.9889396
25;espalda;espalda;;0;;1;0;0;1.306085;1.0879593;type;['e', 's', 'p', 'a', 'l', 'd', 'a'];1.306085;1.4822349;1.6102109;1.7062112;1.898004;2.1859987;2.3940443;NA;NA;NA;NA;NA;NA;NA;NA;nontarget;1;repeat;135.788148
26;espalda;espalda;;0;;1;0;0;0.538784;0.843341;speak;None;NA;NA;NA;NA;NA;NA;NA;NA;NA;NA;NA;NA;NA;NA;NA;switch;0;None;140.4275782
27;puente;puente;;0;;1;0;0;1.176;0.480735;speak;None;NA;NA;NA;NA;NA;NA;NA;NA;NA;NA;NA;NA;NA;NA;NA;filler;0;None;145.1574833
28;pintor;pinmtor;;0;;1;0;0;1.2692992;0.9432986;type;['p', 'i', 'n', 'm', 't', 'o', 'r'];1.2692992;1.5087501;1.7168069;1.7342603;1.9571593;2.0686;2.2125978;NA;NA;NA;NA;NA;NA;NA;NA;nontarget;1;switch;149.8733848
29;pintor;pintor;;0;;1;0;0;0.7563113;1.6157648;type;['p', 'i', 'n', 't', 'o', 'r'];0.7563113;0.9957539;1.3000714;1.4920737;1.6200775;2.3720761;NA;NA;NA;NA;NA;NA;NA;NA;NA;repeat;0;None;154.4502386
30;fresa;fresa;;0;;1;0;0;1.412745;0.47938;speak;None;NA;NA;NA;NA;NA;NA;NA;NA;NA;NA;NA;NA;NA;NA;NA;filler;0;None;159.1245273
31;caracol;caracol;;0;;1;0;0;1.1854427;1.0085063;type;['c', 'a', 'r', 'a', 'c', 'o', 'l'];1.1854427;1.2814466;1.4733624;1.5533489;1.7939271;2.0179664;2.193949;NA;NA;NA;NA;NA;NA;NA;NA;nontarget;1;switch;163.8127194
32;caracol;caracol;;0;;1;0;0;1.037181;1.0398341;type;['c', 'a', 'r', 'a', 'c', 'o', 'l'];1.037181;1.1332059;1.3410483;1.4210611;1.6770476;1.9330169;2.0770151;NA;NA;NA;NA;NA;NA;NA;NA;repeat;0;None;168.4730118
33;muñeca;muñeca;;0;;1;0;0;1.32;0.592684;speak;None;NA;NA;NA;NA;NA;NA;NA;NA;NA;NA;NA;NA;NA;NA;NA;filler;0;None;173.0778494
34;mano;mano;;0;;1;0;0;1.0756309;0.5602119;type;['m', 'a', 'n', 'o'];1.0756309;1.1885769;1.4113324;1.6358428;NA;NA;NA;NA;NA;NA;NA;NA;NA;NA;NA;nontarget;0;None;177.7306696
35;mano;mano;;0;;1;0;0;0.864;0.392986;speak;None;NA;NA;NA;NA;NA;NA;NA;NA;NA;NA;NA;NA;NA;NA;NA;switch;0;None;182.3427412
36;cuerda;cuerda;;0;;1;0;0;2.104124;0.48378;speak;None;NA;NA;NA;NA;NA;NA;NA;NA;NA;NA;NA;NA;NA;NA;NA;nontarget;1;repeat;186.9684452
37;cuerda;cuerda;;0;;1;0;0;1.0478686;0.8957387;type;['c', 'u', 'e', 'r', 'd', 'a'];1.0478686;1.2557779;1.4155634;1.5755948;1.7675951;1.9436073;NA;NA;NA;NA;NA;NA;NA;NA;NA;switch;0;None;191.6147798
38;traje;traje;;0;;1;0;0;1.1048667;0.671135;type;['t', 'r', 'a', 'j', 'e'];1.1048667;1.2800492;1.3280333;1.6799917;1.7760017;NA;NA;NA;NA;NA;NA;NA;NA;NA;NA;filler;0;None;196.3099958
39;granja;granja;;0;;1;0;0;1.562864;0.8154471;type;['g', 'r', 'a', 'n', 'j', 'a'];1.562864;1.7710517;1.834322;2.138346;2.3303423;2.3783111;NA;NA;NA;NA;NA;NA;NA;NA;NA;nontarget;1;repeat;200.9075785
40;granja;granja;;0;;1;0;0;1.025988;0.603652;speak;None;NA;NA;NA;NA;NA;NA;NA;NA;NA;NA;NA;NA;NA;NA;NA;switch;0;None;205.580928
41;vaso;vaso;;0;;1;0;0;1.0645484;0.3999791;type;['v', 'a', 's', 'o'];1.0645484;1.1285279;1.3044909;1.4645275;NA;NA;NA;NA;NA;NA;NA;NA;NA;NA;NA;filler;0;None;210.2214559
42;pavo;pavo;;0;;1;0;0;1.161;0.391416;speak;None;NA;NA;NA;NA;NA;NA;NA;NA;NA;NA;NA;NA;NA;NA;NA;filler;1;switch;214.8053355
43;manzana;manzana;;0;;1;0;0;0.932731;0.725895;speak;None;NA;NA;NA;NA;NA;NA;NA;NA;NA;NA;NA;NA;NA;NA;NA;nontarget;1;repeat;219.4647051
44;manzana;manzana;;0;;1;0;0;0.834933;0.827289;speak;None;NA;NA;NA;NA;NA;NA;NA;NA;NA;NA;NA;NA;NA;NA;NA;repeat;0;None;224.1189745
45;cazador;cazador;;0;;1;0;0;1.5104561;1.3439817;type;['c', 'a', 'z', 'a', 'd', 'o', 'r'];1.5104561;1.5744495;1.7664493;1.9744507;2.6144581;2.6784421;2.8544378;NA;NA;NA;NA;NA;NA;NA;NA;filler;0;None;228.6882687
46;cerdo;cerdo;;0;;1;0;0;0.940357;0.695201;speak;None;NA;NA;NA;NA;NA;NA;NA;NA;NA;NA;NA;NA;NA;NA;NA;nontarget;1;switch;233.349297
47;cerdo;cerdo;;0;;1;0;0;0.957768;0.667841;speak;None;NA;NA;NA;NA;NA;NA;NA;NA;NA;NA;NA;NA;NA;NA;NA;repeat;0;None;238.0375826
48;escoba;escob;;0;;1;0;0;1.3868176;0.8636872;type;['e', 's', 'c', 'o', 'b'];1.3868176;1.546777;1.7548055;1.9628117;2.2505048;NA;NA;NA;NA;NA;NA;NA;NA;NA;NA;filler;0;None;242.7958392
49;espalda;espalda;;0;;1;0;0;1.237986;0.689087;speak;None;NA;NA;NA;NA;NA;NA;NA;NA;NA;NA;NA;NA;NA;NA;NA;filler;0;None;247.469318
50;falda;falda;;0;;1;0;0;1.770345;0.502834;speak;None;NA;NA;NA;NA;NA;NA;NA;NA;NA;NA;NA;NA;NA;NA;NA;nontarget;1;repeat;252.1157618
51;falda;falda;;0;;1;0;0;0.9036267;0.9920437;type;['f', 'a', 'l', 'd', 'a'];0.9036267;0.9995974;1.4637049;1.6717048;1.8956704;NA;NA;NA;NA;NA;NA;NA;NA;NA;NA;switch;0;None;256.782953
52;guante;gunate;;0;;1;0;0;1.4708002;0.7528999;type;['g', 'u', 'n', 'a', 't', 'e'];1.4708002;1.631701;1.8237007;1.9357108;2.1437042;2.2237001;NA;NA;NA;NA;NA;NA;NA;NA;NA;nontarget;0;None;264.7910223
53;guante;guante;;0;;1;0;0;0.886102;0.572147;speak;None;NA;NA;NA;NA;NA;NA;NA;NA;NA;NA;NA;NA;NA;NA;NA;switch;0;None;269.4443352
54;tronco;tronco;;0;;1;0;0;1.161;0.554878;speak;None;NA;NA;NA;NA;NA;NA;NA;NA;NA;NA;NA;NA;NA;NA;NA;filler;0;None;274.1464261
55;miel;miel;;0;;1;0;0;1.215023;0.48267;speak;None;NA;NA;NA;NA;NA;NA;NA;NA;NA;NA;NA;NA;NA;NA;NA;nontarget;1;repeat;278.7710493
56;miel;miel;;0;;1;0;0;1.0395256;0.4319736;type;['m', 'i', 'e', 'l'];1.0395256;1.2475101;1.3915008;1.4714992;NA;NA;NA;NA;NA;NA;NA;NA;NA;NA;NA;switch;0;None;283.4949561
57;pintor;pintor;;0;;1;0;0;1.2454453;1.5208048;type;['p', 'i', 'n', 't', 'o', 'r'];1.2454453;1.4534186;2.2702687;2.4942522;2.5912517;2.7662501;NA;NA;NA;NA;NA;NA;NA;NA;NA;filler;1;repeat;288.1204421
58;cartero;cartero;;0;;1;0;0;1.4775428;1.0559002;type;['c', 'a', 'r', 't', 'e', 'r', 'o'];1.4775428;1.6055414;1.7498365;1.9262677;2.1655493;2.4055501;2.533443;NA;NA;NA;NA;NA;NA;NA;NA;nontarget;1;repeat;292.7045222
59;cartero;cartero;;0;;1;0;0;0.979764;0.514092;speak;None;NA;NA;NA;NA;NA;NA;NA;NA;NA;NA;NA;NA;NA;NA;NA;switch;0;None;297.350266
60;caracol;caracol;;0;;1;0;0;1.132497;0.495902;speak;None;NA;NA;NA;NA;NA;NA;NA;NA;NA;NA;NA;NA;NA;NA;NA;filler;0;None;301.9625309
61;cuerda;cuerda;;0;;1;0;0;1.259886;1.2633287;type;['c', 'u', 'e', 'r', 'd', 'a'];1.259886;1.7392499;1.8992201;2.1232182;2.2999587;2.5232147;NA;NA;NA;NA;NA;NA;NA;NA;NA;filler;0;None;306.650763
62;aguja;aguja;;0;;1;0;0;1.715152;0.647746;speak;None;NA;NA;NA;NA;NA;NA;NA;NA;NA;NA;NA;NA;NA;NA;NA;nontarget;1;switch;311.2900731
63;aguja;aguja;;0;;1;0;0;0.936;0.736246;speak;None;NA;NA;NA;NA;NA;NA;NA;NA;NA;NA;NA;NA;NA;NA;NA;repeat;0;None;315.8670789
64;granja;granja;;0;;1;0;0;1.4768208;0.8799894;type;['g', 'r', 'a', 'n', 'j', 'a'];1.4768208;1.6688076;1.7328101;2.1168228;2.3248066;2.3568102;NA;NA;NA;NA;NA;NA;NA;NA;NA;filler;0;None;320.5135608
65;manzana;manzana;;0;;1;0;0;0.959196;0.767482;speak;None;NA;NA;NA;NA;NA;NA;NA;NA;NA;NA;NA;NA;NA;NA;NA;filler;1;switch;325.1599343
66;oreja;oreja;;0;;1;0;0;1.009;0.51035;speak;None;NA;NA;NA;NA;NA;NA;NA;NA;NA;NA;NA;NA;NA;NA;NA;nontarget;1;repeat;329.7577614
67;oreja;oreja;;0;;1;0;0;0.750432;0.545568;speak;None;NA;NA;NA;NA;NA;NA;NA;NA;NA;NA;NA;NA;NA;NA;NA;repeat;0;None;334.4251047
68;tenedor;tenedor;;0;;1;0;0;1.2081318;1.1367205;type;['t', 'e', 'n', 'e', 'd', 'o', 'r'];1.2081318;1.3041359;1.5759755;1.656009;1.8799999;2.1995325;2.3448523;NA;NA;NA;NA;NA;NA;NA;NA;filler;0;None;338.9743131
69;goma;goma;;0;;1;0;0;1.381853;0.462017;speak;None;NA;NA;NA;NA;NA;NA;NA;NA;NA;NA;NA;NA;NA;NA;NA;nontarget;0;None;343.5791919
70;goma;goma;;0;;1;0;0;0.8016195;0.3989721;type;['g', 'o', 'm', 'a'];0.8016195;0.9456201;1.1205862;1.2005916;NA;NA;NA;NA;NA;NA;NA;NA;NA;NA;NA;switch;0;None;348.1492197
71;mano;mano;;0;;1;0;0;1.14496;0.42404;speak;None;NA;NA;NA;NA;NA;NA;NA;NA;NA;NA;NA;NA;NA;NA;NA;filler;0;None;352.8512251
72;conejo;conejo;;0;;1;0;0;1.0039236;1.1204024;type;['c', 'o', 'n', 'e', 'j', 'o'];1.0039236;1.243989;1.5013621;1.6287567;1.9002511;2.124326;NA;NA;NA;NA;NA;NA;NA;NA;NA;nontarget;1;switch;357.5461585
73;conejo;conejo;;0;;1;0;0;0.8396935;0.9762942;type;['c', 'o', 'n', 'e', 'j', 'o'];0.8396935;0.9994571;1.2250071;1.3520219;1.6080181;1.8159877;NA;NA;NA;NA;NA;NA;NA;NA;NA;repeat;0;None;362.0944043
74;cerdo;cerdo;;0;;1;0;0;0.949614;0.622266;speak;None;NA;NA;NA;NA;NA;NA;NA;NA;NA;NA;NA;NA;NA;NA;NA;filler;0;None;366.7836627
75;falda;falda;;0;;1;0;0;1.541329;0.7523048;type;['f', 'a', 'l', 'd', 'a'];1.541329;1.781362;1.8773637;2.101374;2.2936338;NA;NA;NA;NA;NA;NA;NA;NA;NA;NA;filler;1;switch;371.4090066
76;iglesia;iglesia;;0;;1;0;0;1.1440384;1.2801027;type;['i', 'g', 'l', 'e', 's', 'i', 'a'];1.1440384;1.4802499;1.848225;2.0401685;2.200164;2.2961644;2.4241411;NA;NA;NA;NA;NA;NA;NA;NA;nontarget;1;repeat;376.0139277
77;iglesia;iglesia;;0;;1;0;0;0.958025;1.040029;type;['i', 'g', 'l', 'e', 's', 'i', 'a'];0.958025;1.246017;1.3740123;1.5980439;1.7900487;1.8860163;1.998054;NA;NA;NA;NA;NA;NA;NA;NA;repeat;0;None;380.5838774
78;guante;guante;;0;;1;0;0;0.84831;0.50741;speak;None;NA;NA;NA;NA;NA;NA;NA;NA;NA;NA;NA;NA;NA;NA;NA;filler;0;None;385.1391152
79;vaca;vaca;;0;;1;0;0;0.9959561;0.352235;type;['v', 'a', 'c', 'a'];0.9959561;1.1249902;1.2519476;1.3481911;NA;NA;NA;NA;NA;NA;NA;NA;NA;NA;NA;nontarget;1;switch;389.8419979
80;vaca;vaca;;0;;1;0;0;1.0232266;0.3045189;type;['v', 'a', 'c', 'a'];1.0232266;1.1032379;1.2637547;1.3277455;NA;NA;NA;NA;NA;NA;NA;NA;NA;NA;NA;repeat;0;None;394.5509432
81;baño;baño;;0;;1;0;0;1.1313663;0.784214;type;['b', 'a', 'ñ', 'o'];1.1313663;1.2113998;1.7236211;1.9155803;NA;NA;NA;NA;NA;NA;NA;NA;NA;NA;NA;nontarget;0;None;399.162709
82;baño;baño;;0;;1;0;0;1.044197;0.464396;speak;None;NA;NA;NA;NA;NA;NA;NA;NA;NA;NA;NA;NA;NA;NA;NA;switch;0;None;403.8164334
83;cartero;cartero;;0;;1;0;0;0.794081;0.522827;speak;None;NA;NA;NA;NA;NA;NA;NA;NA;NA;NA;NA;NA;NA;NA;NA;filler;1;repeat;408.434715
84;miel;miel;;0;;1;0;0;1.1568778;0.431228;type;['m', 'i', 'e', 'l'];1.1568778;1.3488766;1.4928436;1.5881058;NA;NA;NA;NA;NA;NA;NA;NA;NA;NA;NA;filler;0;None;413.0257449
85;pierna;pierna;;0;;1;0;0;1.368;0.424;speak;None;NA;NA;NA;NA;NA;NA;NA;NA;NA;NA;NA;NA;NA;NA;NA;nontarget;1;switch;417.6581565
86;pierna;pierna;;0;;1;0;0;1.065;0.472;speak;None;NA;NA;NA;NA;NA;NA;NA;NA;NA;NA;NA;NA;NA;NA;NA;repeat;0;None;422.3601218
87;taza;taza;;0;;1;0;0;1.001;0.415263;speak;None;NA;NA;NA;NA;NA;NA;NA;NA;NA;NA;NA;NA;NA;NA;NA;nontarget;1;repeat;426.9788351
88;taza;taza;;0;;1;0;0;1.2529728;0.4470693;type;['t', 'a', 'z', 'a'];1.2529728;1.3809351;1.620985;1.7000421;NA;NA;NA;NA;NA;NA;NA;NA;NA;NA;NA;switch;0;None;431.5697165
89;aguja;aguja;;0;;1;0;0;1.48;0.596999;speak;None;NA;NA;NA;NA;NA;NA;NA;NA;NA;NA;NA;NA;NA;NA;NA;filler;0;None;436.3412715
90;oreja;oreja;;0;;1;0;0;1.5267112;0.7039974;type;['o', 'r', 'e', 'j', 'a'];1.5267112;1.8466829;2.0066738;2.1507023;2.2307086;NA;NA;NA;NA;NA;NA;NA;NA;NA;NA;filler;0;None;440.9598373
91;camisa;camisa;;0;;1;0;0;1.0402456;0.8801125;type;['c', 'a', 'm', 'i', 's', 'a'];1.0402456;1.0882396;1.4878349;1.6636859;1.7605452;1.9203581;NA;NA;NA;NA;NA;NA;NA;NA;NA;nontarget;1;repeat;445.6061862
92;camisa;camisa;;0;;1;0;0;0.64;0.598803;speak;None;NA;NA;NA;NA;NA;NA;NA;NA;NA;NA;NA;NA;NA;NA;NA;switch;0;None;450.2665187
93;regalo;regalo;;0;;1;0;0;1.257936;0.683793;speak;None;NA;NA;NA;NA;NA;NA;NA;NA;NA;NA;NA;NA;NA;NA;NA;nontarget;0;None;454.8921407
94;regalo;regalo;;0;;1;0;0;0.829301;0.541254;speak;None;NA;NA;NA;NA;NA;NA;NA;NA;NA;NA;NA;NA;NA;NA;NA;repeat;0;None;459.4682341
95;columna;column;;0;;1;0;0;1.2917243;1.135592;type;['c', 'o', 'l', 'u', 'm', 'n'];1.2917243;1.4996262;1.6914617;1.9311171;2.1873028;2.4273163;NA;NA;NA;NA;NA;NA;NA;NA;NA;filler;0;None;464.1225714
96;conejo;conejo;;0;;1;0;0;1.189307;0.493108;speak;None;NA;NA;NA;NA;NA;NA;NA;NA;NA;NA;NA;NA;NA;NA;NA;filler;0;None;468.7553062
97;bombero;bombero;;0;;1;0;0;1.345458;0.726525;speak;None;NA;NA;NA;NA;NA;NA;NA;NA;NA;NA;NA;NA;NA;NA;NA;nontarget;0;None;473.3946739
98;bombero;bombero;;0;;1;0;0;1.2446712;1.2483789;type;['b', 'o', 'm', 'b', 'e', 'r', 'o'];1.2446712;1.4206534;1.6450514;1.9490601;2.1250511;2.3650552;2.4930501;NA;NA;NA;NA;NA;NA;NA;NA;switch;0;None;478.0410195
99;pulpo;pulpo;;0;;1;0;0;1.4084064;1.0079887;type;['p', 'u', 'l', 'p', 'o'];1.4084064;1.6963981;2.0804673;2.2564053;2.4163951;NA;NA;NA;NA;NA;NA;NA;NA;NA;NA;nontarget;0;None;482.6457744
100;pulpo;pulpo;;0;;1;0;0;0.7149045;1.0560215;type;['p', 'u', 'l', 'p', 'o'];0.7149045;0.9869018;1.3388866;1.6269673;1.770926;NA;NA;NA;NA;NA;NA;NA;NA;NA;NA;repeat;0;None;487.3547648
101;iglesia;iglesia;;0;;1;0;0;1.172579;0.716231;speak;None;NA;NA;NA;NA;NA;NA;NA;NA;NA;NA;NA;NA;NA;NA;NA;filler;0;None;492.0012248
102;goma;gomsa;;1;;1;1;0;1.3288019;1.519574;type;['g', 'o', 'm', 's', 'a', 'backspace', 'a'];1.3288019;1.4567977;1.6327918;1.7287622;1.760792;2.5600914;2.8483759;NA;NA;NA;NA;NA;NA;NA;NA;filler;0;None;496.6615378
103;columna;columna;;0;;1;0;0;1.2680151;1.3443666;type;['c', 'o', 'l', 'u', 'm', 'n', 'a'];1.2680151;1.6360609;1.8270702;2.051995;2.2759959;2.5153341;2.6123817;NA;NA;NA;NA;NA;NA;NA;NA;filler;0;None;505.426616
104;muñeca;muñeca;;0;;1;0;0;0.946749;0.672261;speak;None;NA;NA;NA;NA;NA;NA;NA;NA;NA;NA;NA;NA;NA;NA;NA;nontarget;1;switch;510.0173754
105;muñeca;muñeca;;0;;1;0;0;0.599684;0.622341;speak;None;NA;NA;NA;NA;NA;NA;NA;NA;NA;NA;NA;NA;NA;NA;NA;repeat;0;None;514.6848776
106;pierna;pierna;;0;;1;0;0;1.8244084;0.8160058;type;['p', 'i', 'e', 'r', 'n', 'a'];1.8244084;2.0485662;2.240505;2.4004445;2.5604463;2.6404142;NA;NA;NA;NA;NA;NA;NA;NA;NA;filler;0;None;519.3173777
107;traje;traje;;0;;1;0;0;0.998707;0.423814;speak;None;NA;NA;NA;NA;NA;NA;NA;NA;NA;NA;NA;NA;NA;NA;NA;nontarget;1;switch;523.9151028
108;traje;traje;;0;;1;0;0;0.889372;0.430937;speak;None;NA;NA;NA;NA;NA;NA;NA;NA;NA;NA;NA;NA;NA;NA;NA;repeat;0;None;528.5060156
109;tenedor;tenedor;;0;;1;0;0;1.3040585;0.9933624;type;['t', 'e', 'n', 'e', 'd', 'o', 'r'];1.3040585;1.4000549;1.5601965;1.6242007;1.8800582;2.1840859;2.2974209;NA;NA;NA;NA;NA;NA;NA;NA;filler;0;None;533.1659397
110;pulpo;pulpo;;0;;1;0;0;1.825;0.415089;speak;None;NA;NA;NA;NA;NA;NA;NA;NA;NA;NA;NA;NA;NA;NA;NA;filler;0;None;537.7849254
111;cazador;cazador;;0;;1;0;0;0.968;0.56146;speak;None;NA;NA;NA;NA;NA;NA;NA;NA;NA;NA;NA;NA;NA;NA;NA;nontarget;1;repeat;542.4803938
112;cazador;cazador;;0;;1;0;0;1.0512895;1.1039395;type;['c', 'a', 'z', 'a', 'd', 'o', 'r'];1.0512895;1.1472345;1.323231;1.4992373;1.7552349;1.9632335;2.155229;NA;NA;NA;NA;NA;NA;NA;NA;switch;0;None;547.0987938
113;taza;taza;;0;;1;0;0;1.9600495;0.4153472;type;['t', 'a', 'z', 'a'];1.9600495;2.0400439;2.2314326;2.3753967;NA;NA;NA;NA;NA;NA;NA;NA;NA;NA;NA;filler;1;repeat;551.7104997
114;fresa;fresa;;0;;1;0;0;1.1862682;0.623414;type;['f', 'r', 'e', 's', 'a'];1.1862682;1.3616912;1.4586632;1.6336898;1.8096822;NA;NA;NA;NA;NA;NA;NA;NA;NA;NA;nontarget;1;repeat;556.3081964
115;fresa;fresa;;0;;1;0;0;0.643412;0.548059;speak;None;NA;NA;NA;NA;NA;NA;NA;NA;NA;NA;NA;NA;NA;NA;NA;switch;0;None;560.8985892
116;puente;puente;;0;;1;0;0;0.929;0.462981;speak;None;NA;NA;NA;NA;NA;NA;NA;NA;NA;NA;NA;NA;NA;NA;NA;nontarget;0;None;565.4622038
117;puente;puente;;0;;1;0;0;0.7804521;1.1042131;type;['p', 'u', 'e', 'n', 't', 'e'];0.7804521;1.0684149;1.2608756;1.4367053;1.6606735;1.8846652;NA;NA;NA;NA;NA;NA;NA;NA;NA;switch;0;None;570.185171
118;baño;baño;;0;;1;0;0;1.551654;0.464889;speak;None;NA;NA;NA;NA;NA;NA;NA;NA;NA;NA;NA;NA;NA;NA;NA;filler;0;None;574.8105486
119;espalda;espalda;;0;;1;0;0;1.0928958;1.6001184;type;['e', 's', 'p', 'a', 'l', 'd', 'a'];1.0928958;1.2688304;1.9726795;2.1966461;2.3086395;2.5166416;2.6930142;NA;NA;NA;NA;NA;NA;NA;NA;nontarget;1;switch;579.4570758
120;espalda;espalda;;0;;1;0;0;0.8798346;1.0239453;type;['e', 's', 'p', 'a', 'l', 'd', 'a'];0.8798346;1.0556825;1.2001258;1.296157;1.4081251;1.7118342;1.9037799;NA;NA;NA;NA;NA;NA;NA;NA;repeat;0;None;584.0062541
121;bombero;;;0;;;;;;;speak;None;NA;NA;NA;NA;NA;NA;NA;NA;NA;NA;NA;NA;NA;NA;NA;filler;1;switch;588.6944215
122;pavo;pavo;;0;;;;;;;type;['p', 'a', 'v', 'o'];1.3236389;1.4356456;1.7709288;1.8992498;NA;NA;NA;NA;NA;NA;NA;NA;NA;NA;NA;nontarget;1;switch;593.3547011
123;pavo;pavo;;0;;;;;;;type;['p', 'a', 'v', 'o'];1.0076447;1.0236364;1.343734;1.4717258;NA;NA;NA;NA;NA;NA;NA;NA;NA;NA;NA;repeat;0;None;598.0219474
124;vaca;;;0;;;;;;;speak;None;NA;NA;NA;NA;NA;NA;NA;NA;NA;NA;NA;NA;NA;NA;NA;filler;0;None;602.6050804
125;regalo;reg;;1;;;;;;;type;['r', 'e', 'h', 'backspace', 'g'];1.3073773;1.4360119;1.7073818;2.5553827;2.9234444;NA;NA;NA;NA;NA;NA;NA;NA;NA;NA;filler;0;None;607.2106894
126;vaso;vaso;;0;;;;;;;type;['v', 'a', 's', 'o'];0.8732876;0.921274;1.1296732;1.3053539;NA;NA;NA;NA;NA;NA;NA;NA;NA;NA;NA;nontarget;0;None;611.8363416
127;vaso;;;0;;;;;;;speak;None;NA;NA;NA;NA;NA;NA;NA;NA;NA;NA;NA;NA;NA;NA;NA;switch;0;None;616.4478107
128;camisa;camisa;;0;;;;;;;type;['c', 'a', 'm', 'i', 's', 'a'];1.1056679;1.2016707;1.6019951;1.825962;1.9540047;2.1299995;NA;NA;NA;NA;NA;NA;NA;NA;NA;filler;1;switch;621.1083983
129;granja;franja;;0;;;;;;;type;['f', 'r', 'a', 'n', 'j', 'a'];1.4453456;1.636343;1.7323432;2.0524016;2.2286456;2.2770088;NA;NA;NA;NA;NA;NA;NA;NA;NA;nontarget;0;None;625.7616616
130;granja;granja;;0;;;;;;;type;['g', 'r', 'a', 'n', 'j', 'a'];0.9574922;1.1815364;1.2614767;1.597443;1.7894382;1.9024386;NA;NA;NA;NA;NA;NA;NA;NA;NA;repeat;0;None;630.4567932
131;muñeca;;;0;;;;;;;speak;None;NA;NA;NA;NA;NA;NA;NA;NA;NA;NA;NA;NA;NA;NA;NA;filler;0;None;635.0059778
132;mano;mano;;0;;;;;;;type;['m', 'a', 'n', 'o'];1.460243;1.5713159;1.684198;1.9401059;NA;NA;NA;NA;NA;NA;NA;NA;NA;NA;NA;nontarget;1;switch;639.6662103
133;mano;mano;;0;;;;;;;type;['m', 'a', 'n', 'o'];0.9277142;1.0717167;1.2161818;1.5681203;NA;NA;NA;NA;NA;NA;NA;NA;NA;NA;NA;repeat;0;None;644.2779578
134;pintor;pintor;;0;;;;;;;type;['p', 'i', 'n', 't', 'o', 'r'];0.9251625;1.1811602;1.4051578;1.5811554;1.693219;1.7731544;NA;NA;NA;NA;NA;NA;NA;NA;NA;nontarget;0;None;648.8411766
135;pintor;;;0;;;;;;;speak;None;NA;NA;NA;NA;NA;NA;NA;NA;NA;NA;NA;NA;NA;NA;NA;switch;0;None;653.5083908
136;traje;;;0;;;;;;;speak;None;NA;NA;NA;NA;NA;NA;NA;NA;NA;NA;NA;NA;NA;NA;NA;filler;1;repeat;658.1269905
137;cerdo;;;0;;;;;;;speak;None;NA;NA;NA;NA;NA;NA;NA;NA;NA;NA;NA;NA;NA;NA;NA;nontarget;1;repeat;662.690202
138;cerdo;cerdo;;0;;;;;;;type;['c', 'e', 'r', 'd', 'o'];1.1251984;1.3485938;1.5245598;1.7005593;1.8925958;NA;NA;NA;NA;NA;NA;NA;NA;NA;NA;switch;0;None;667.2809757
139;caracol;caracol;;0;;;;;;;type;['c', 'a', 'r', 'a', 'c', 'o', 'l'];1.0956231;1.1596115;1.3356129;1.3836496;1.6076138;1.8316512;2.0076151;NA;NA;NA;NA;NA;NA;NA;NA;nontarget;1;repeat;671.8860661
140;caracol;;;0;;;;;;;speak;None;NA;NA;NA;NA;NA;NA;NA;NA;NA;NA;NA;NA;NA;NA;NA;switch;0;None;676.482357
141;cazador;cazador;;0;;;;;;;type;['c', 'a', 'z', 'a', 'd', 'o', 'r'];1.8091249;2.0491221;2.2255086;2.4497056;2.6733834;2.8173667;2.9453801;NA;NA;NA;NA;NA;NA;NA;NA;filler;0;None;681.0605656
142;fresa;;;0;;;;;;;speak;None;NA;NA;NA;NA;NA;NA;NA;NA;NA;NA;NA;NA;NA;NA;NA;filler;0;None;685.7069685
143;pavo;pavo;;0;;;;;;;type;['p', 'a', 'v', 'o'];1.0333165;1.1613141;1.6255662;1.7369347;NA;NA;NA;NA;NA;NA;NA;NA;NA;NA;NA;filler;0;None;690.3325686
144;cuerda;;;0;;;;;;;speak;None;NA;NA;NA;NA;NA;NA;NA;NA;NA;NA;NA;NA;NA;NA;NA;nontarget;1;switch;694.9304852
145;cuerda;;;0;;;;;;;speak;None;NA;NA;NA;NA;NA;NA;NA;NA;NA;NA;NA;NA;NA;NA;NA;repeat;0;None;699.5907449
146;puente;puente;;0;;;;;;;type;['p', 'u', 'e', 'n', 't', 'e'];1.1478582;1.4522308;1.5802292;1.6602263;1.9161939;1.9641939;NA;NA;NA;NA;NA;NA;NA;NA;NA;filler;0;None;704.1538112
147;falda;;;0;;;;;;;speak;None;NA;NA;NA;NA;NA;NA;NA;NA;NA;NA;NA;NA;NA;NA;NA;nontarget;1;switch;708.7726667
148;falda;;;0;;;;;;;speak;None;NA;NA;NA;NA;NA;NA;NA;NA;NA;NA;NA;NA;NA;NA;NA;repeat;0;None;713.3495231
149;espalda;espalda;;0;;;;;;;type;['e', 's', 'p', 'a', 'l', 'd', 'a'];1.0197668;1.195737;1.4037391;1.515742;1.5957371;1.867922;2.0598868;NA;NA;NA;NA;NA;NA;NA;NA;filler;0;None;718.0583825
150;vaso;;;0;;;;;;;speak;None;NA;NA;NA;NA;NA;NA;NA;NA;NA;NA;NA;NA;NA;NA;NA;filler;0;None;722.6702705
151;manzana;;;0;;;;;;;speak;None;NA;NA;NA;NA;NA;NA;NA;NA;NA;NA;NA;NA;NA;NA;NA;nontarget;0;None;727.4071567
152;manzana;manzana;;0;;;;;;;type;['m', 'a', 'n', 'z', 'a', 'n', 'a'];0.8632083;0.9591445;1.1351495;1.4231064;1.6151349;1.7111048;1.8071366;NA;NA;NA;NA;NA;NA;NA;NA;switch;0;None;732.038526
153;escoba;;;0;;;;;;;speak;None;NA;NA;NA;NA;NA;NA;NA;NA;NA;NA;NA;NA;NA;NA;NA;filler;0;None;736.6024932
154;manzana;manzana;;0;;;;;;;type;['m', 'a', 'n', 'z', 'a', 'n', 'a'];1.4095747;1.5055684;1.7133435;1.8733365;2.0493432;2.1133364;2.2253384;NA;NA;NA;NA;NA;NA;NA;NA;filler;0;None;744.2286566
155;goma;goma;;0;;;;;;;type;['g', 'o', 'm', 'a'];1.1034203;1.1994066;1.391494;1.4714859;NA;NA;NA;NA;NA;NA;NA;NA;NA;NA;NA;nontarget;1;repeat;748.9027392
156;goma;;;0;;;;;;;speak;None;NA;NA;NA;NA;NA;NA;NA;NA;NA;NA;NA;NA;NA;NA;NA;switch;0;None;753.4866984
157;granja;;;0;;;;;;;speak;None;NA;NA;NA;NA;NA;NA;NA;NA;NA;NA;NA;NA;NA;NA;NA;filler;0;None;758.1470607
158;aguja;;;0;;;;;;;speak;None;NA;NA;NA;NA;NA;NA;NA;NA;NA;NA;NA;NA;NA;NA;NA;nontarget;1;repeat;762.8281394
159;aguja;aguja;;0;;;;;;;type;['a', 'g', 'u', 'j', 'a'];0.7716303;1.2196227;1.5556424;1.7156354;1.8436276;NA;NA;NA;NA;NA;NA;NA;NA;NA;NA;switch;0;None;767.4746587
160;cadena;cadena;;0;;;;;;;type;['c', 'a', 'd', 'e', 'n', 'a'];1.3184968;1.3664815;1.6229218;1.7668146;1.8787954;1.9742417;NA;NA;NA;NA;NA;NA;NA;NA;NA;filler;0;None;772.0794309
161;iglesia;iglesia;;0;;;;;;;type;['i', 'g', 'l', 'e', 's', 'i', 'a'];1.0814822;1.4974853;1.6094725;1.7694782;1.9454402;2.0580231;2.1380202;NA;NA;NA;NA;NA;NA;NA;NA;nontarget;0;None;776.6841894
162;iglesia;;;0;;;;;;;speak;None;NA;NA;NA;NA;NA;NA;NA;NA;NA;NA;NA;NA;NA;NA;NA;switch;0;None;781.2541803
163;pintor;pinmtor;;0;;;;;;;type;['p', 'i', 'n', 'm', 't', 'o', 'r'];1.3976464;1.6376255;1.9106035;1.9255772;2.1174723;2.2614567;2.341457;NA;NA;NA;NA;NA;NA;NA;NA;filler;0;None;785.8727186
164;conejo;;;0;;;;;;;speak;None;NA;NA;NA;NA;NA;NA;NA;NA;NA;NA;NA;NA;NA;NA;NA;nontarget;1;switch;790.4637615
165;conejo;;;0;;;;;;;speak;None;NA;NA;NA;NA;NA;NA;NA;NA;NA;NA;NA;NA;NA;NA;NA;repeat;0;None;795.0328835
166;cerdo;;;0;;;;;;;speak;None;NA;NA;NA;NA;NA;NA;NA;NA;NA;NA;NA;NA;NA;NA;NA;filler;0;None;799.6664823
167;caracol;caracol;;0;;;;;;;type;['c', 'a', 'r', 'a', 'c', 'o', 'l'];1.3070194;1.4036198;1.5465525;1.6105713;1.8514503;2.0586505;2.2198019;NA;NA;NA;NA;NA;NA;NA;NA;filler;0;None;804.2988292
168;guante;;;0;;;;;;;speak;None;NA;NA;NA;NA;NA;NA;NA;NA;NA;NA;NA;NA;NA;NA;NA;nontarget;1;switch;808.9373467
169;guante;;;0;;;;;;;speak;None;NA;NA;NA;NA;NA;NA;NA;NA;NA;NA;NA;NA;NA;NA;NA;repeat;0;None;813.5154238
170;cartero;;;0;;;;;;;speak;None;NA;NA;NA;NA;NA;NA;NA;NA;NA;NA;NA;NA;NA;NA;NA;nontarget;0;None;818.2590045
171;cartero;cartero;;0;;;;;;;type;['c', 'a', 'r', 't', 'e', 'r', 'o'];0.9141953;0.994184;1.218229;1.3941887;1.5221874;1.6822078;1.8581794;NA;NA;NA;NA;NA;NA;NA;NA;switch;0;None;822.8361125
172;cuerda;;;0;;;;;;;speak;None;NA;NA;NA;NA;NA;NA;NA;NA;NA;NA;NA;NA;NA;NA;NA;filler;0;None;827.4894222
173;tronco;tronco;;0;;;;;;;type;['t', 'r', 'o', 'n', 'c', 'o'];1.3063198;1.4983003;1.7867179;2.0103427;2.2345826;2.3465483;NA;NA;NA;NA;NA;NA;NA;NA;NA;filler;0;None;832.2191486
174;oreja;oreja;;0;;;;;;;type;['o', 'r', 'e', 'j', 'a'];1.089023;1.6179565;1.77791;1.9699573;2.0819434;NA;NA;NA;NA;NA;NA;NA;NA;NA;NA;nontarget;1;repeat;836.9003015
175;oreja;oreja;;0;;;;;;;type;['o', 'r', 'e', 'j', 'a'];0.8952504;1.1030168;1.2630531;1.4391387;1.535992;NA;NA;NA;NA;NA;NA;NA;NA;NA;NA;repeat;0;None;841.5745276
176;falda;;;0;;;;;;;speak;None;NA;NA;NA;NA;NA;NA;NA;NA;NA;NA;NA;NA;NA;NA;NA;filler;0;None;846.2140892
177;miel;miel;;0;;;;;;;type;['m', 'i', 'e', 'l'];1.3104071;1.5183623;1.6143914;1.7265326;NA;NA;NA;NA;NA;NA;NA;NA;NA;NA;NA;nontarget;1;switch;850.8397793
178;miel;miel;;0;;;;;;;type;['m', 'i', 'e', 'l'];0.8372892;1.0292736;1.1732422;1.2372396;NA;NA;NA;NA;NA;NA;NA;NA;NA;NA;NA;repeat;0;None;855.472248
179;mano;mano;;0;;;;;;;type;['m', 'a', 'n', 'o'];0.9464976;1.0425088;1.1864669;1.4102998;NA;NA;NA;NA;NA;NA;NA;NA;NA;NA;NA;filler;1;repeat;860.1950462
180;goma;;;0;;;;;;;speak;None;NA;NA;NA;NA;NA;NA;NA;NA;NA;NA;NA;NA;NA;NA;NA;filler;0;None;864.7789478
181;pierna;pierna;;0;;;;;;;type;['p', 'i', 'e', 'r', 'n', 'a'];1.3805174;1.605014;1.7487398;1.9243953;2.1483779;2.2283481;NA;NA;NA;NA;NA;NA;NA;NA;NA;nontarget;1;switch;869.4254031
182;pierna;pierna;;0;;;;;;;type;['p', 'i', 'e', 'r', 'n', 'a'];0.9121085;1.1521069;1.359928;1.5198391;1.679833;1.8084756;NA;NA;NA;NA;NA;NA;NA;NA;NA;repeat;0;None;874.0857343
183;pulpo;pulpo;;0;;;;;;;type;['p', 'u', 'l', 'p', 'o'];1.6351534;1.8431477;2.0502996;2.4501942;2.6115849;NA;NA;NA;NA;NA;NA;NA;NA;NA;NA;nontarget;1;repeat;878.7391379
184;pulpo;;;0;;;;;;;speak;None;NA;NA;NA;NA;NA;NA;NA;NA;NA;NA;NA;NA;NA;NA;NA;switch;0;None;883.3440874
185;aguja;aguja;;0;;;;;;;type;['a', 'g', 'u', 'j', 'a'];1.4578645;1.8260464;1.9700745;2.1300729;2.1778355;NA;NA;NA;NA;NA;NA;NA;NA;NA;NA;filler;0;None;887.9555497
186;taza;;;0;;;;;;;speak;None;NA;NA;NA;NA;NA;NA;NA;NA;NA;NA;NA;NA;NA;NA;NA;nontarget;1;switch;892.6785522
187;taza;;;0;;;;;;;speak;None;NA;NA;NA;NA;NA;NA;NA;NA;NA;NA;NA;NA;NA;NA;NA;repeat;0;None;897.2832648
188;baño;;;0;;;;;;;speak;None;NA;NA;NA;NA;NA;NA;NA;NA;NA;NA;NA;NA;NA;NA;NA;nontarget;0;None;901.881032
189;baño;baño;;0;;;;;;;type;['b', 'a', 'ñ', 'o'];0.9223057;1.0336364;1.5775834;1.7695029;NA;NA;NA;NA;NA;NA;NA;NA;NA;NA;NA;switch;0;None;906.603857
190;iglesia;;;0;;;;;;;speak;None;NA;NA;NA;NA;NA;NA;NA;NA;NA;NA;NA;NA;NA;NA;NA;filler;0;None;911.3475142
191;bombero;bombero;;0;;;;;;;type;['b', 'o', 'm', 'b', 'e', 'r', 'o'];1.2946842;1.4866748;1.6942677;2.0942948;2.2382962;2.4302952;2.5902585;NA;NA;NA;NA;NA;NA;NA;NA;nontarget;1;switch;915.9595298
192;bombero;;;0;;;;;;;speak;None;NA;NA;NA;NA;NA;NA;NA;NA;NA;NA;NA;NA;NA;NA;NA;switch;0;None;920.5851551
193;guante;guante;;1;;;;;;;type;['g', 'i', 'backspace', 'u', 'a', 'n', 't', 'e'];1.0579513;1.2339434;2.1780953;2.4500904;2.6252339;2.6420899;2.8500861;2.8820868;NA;NA;NA;NA;NA;NA;NA;filler;0;None;925.2520863
194;conejo;;;0;;;;;;;speak;None;NA;NA;NA;NA;NA;NA;NA;NA;NA;NA;NA;NA;NA;NA;NA;filler;0;None;929.8083352
195;vaca;;;0;;;;;;;speak;None;NA;NA;NA;NA;NA;NA;NA;NA;NA;NA;NA;NA;NA;NA;NA;nontarget;1;repeat;934.6005645
196;vaca;;;0;;;;;;;speak;None;NA;NA;NA;NA;NA;NA;NA;NA;NA;NA;NA;NA;NA;NA;NA;repeat;0;None;939.3027367
197;cartero;cartero;;0;;;;;;;type;['c', 'a', 'r', 't', 'e', 'r', 'o'];1.1753861;1.2233794;1.4796517;1.6550547;1.7517576;1.9430036;2.1832511;NA;NA;NA;NA;NA;NA;NA;NA;filler;0;None;943.886495
198;oreja;;;0;;;;;;;speak;None;NA;NA;NA;NA;NA;NA;NA;NA;NA;NA;NA;NA;NA;NA;NA;filler;1;switch;948.5121705
199;regalo;;;0;;;;;;;speak;None;NA;NA;NA;NA;NA;NA;NA;NA;NA;NA;NA;NA;NA;NA;NA;nontarget;1;repeat;953.0822076
200;regalo;regalo;;0;;;;;;;type;['r', 'e', 'g', 'a', 'l', 'o'];0.6184173;0.7780013;1.0019929;1.1299905;1.321983;1.4979808;NA;NA;NA;NA;NA;NA;NA;NA;NA;switch;0;None;957.7078643
201;camisa;camisa;;0;;;;;;;type;['c', 'a', 'm', 'i', 's', 'a'];1.1178083;1.2142208;1.5024766;1.7100102;1.7740109;1.9340696;NA;NA;NA;NA;NA;NA;NA;NA;NA;nontarget;0;None;962.3116296
202;camisa;camisa;;0;;;;;;;type;['c', 'a', 'm', 'i', 's', 'a'];0.8560001;0.9199979;1.2400056;1.4319954;1.5278866;1.6718579;NA;NA;NA;NA;NA;NA;NA;NA;NA;repeat;0;None;967.0216139
203;espejo;;;0;;;;;;;speak;None;NA;NA;NA;NA;NA;NA;NA;NA;NA;NA;NA;NA;NA;NA;NA;filler;0;None;971.7305358
204;miel;miel;;0;;;;;;;type;['m', 'i', 'e', 'l'];1.5493737;1.7102068;1.8372009;1.9182098;NA;NA;NA;NA;NA;NA;NA;NA;NA;NA;NA;filler;0;None;976.328285
205;tronco;;;0;;;;;;;speak;None;NA;NA;NA;NA;NA;NA;NA;NA;NA;NA;NA;NA;NA;NA;NA;filler;0;None;984.6769427
206;espejo;espeko;;0;;;;;;;type;['e', 's', 'p', 'e', 'k', 'o'];0.9276813;1.1197827;1.312449;1.4404401;1.7444695;2.0476677;NA;NA;NA;NA;NA;NA;NA;NA;NA;filler;0;None;989.2536015
207;regalo;;;0;;;;;;;speak;None;NA;NA;NA;NA;NA;NA;NA;NA;NA;NA;NA;NA;NA;NA;NA;filler;0;None;993.8157271
208;vaso;;;0;;;;;;;speak;None;NA;NA;NA;NA;NA;NA;NA;NA;NA;NA;NA;NA;NA;NA;NA;nontarget;1;repeat;998.3937242
209;vaso;;;0;;;;;;;speak;None;NA;NA;NA;NA;NA;NA;NA;NA;NA;NA;NA;NA;NA;NA;NA;repeat;0;None;1003.019196
210;taza;taza;;0;;;;;;;type;['t', 'a', 'z', 'a'];1.6824965;1.7465454;1.938392;2.0823943;NA;NA;NA;NA;NA;NA;NA;NA;NA;NA;NA;filler;0;None;1007.651059
211;cazador;;;0;;;;;;;speak;None;NA;NA;NA;NA;NA;NA;NA;NA;NA;NA;NA;NA;NA;NA;NA;nontarget;1;switch;1012.270462
212;cazador;;;0;;;;;;;speak;None;NA;NA;NA;NA;NA;NA;NA;NA;NA;NA;NA;NA;NA;NA;NA;repeat;0;None;1016.882198
213;baño;bal;;1;;;;;;;type;['b', 'a', 'l', 'ñ', 'o', 'backspace', 'backspace'];1.1532547;1.2172537;1.5694351;2.049436;2.2734282;2.7212561;2.929292;NA;NA;NA;NA;NA;NA;NA;NA;filler;0;None;1021.556595
214;espalda;;;0;;;;;;;speak;None;NA;NA;NA;NA;NA;NA;NA;NA;NA;NA;NA;NA;NA;NA;NA;nontarget;0;None;1026.126456
215;espalda;espalda;;1;;;;;;;type;['e', 's', 'p', 'a', 'l', 'a', 'backspace', 'd', 'a'];1.0388103;1.231663;1.4234931;1.5994764;1.6954925;1.8554802;2.5754454;2.7515324;2.9268477;NA;NA;NA;NA;NA;NA;switch;0;None;1030.710472
216;camisa;camisa;;0;;;;;;;type;['c', 'a', 'm', 'i', 's', 'a'];0.8615452;1.0695494;1.2135266;1.4206079;1.4845904;1.6768571;NA;NA;NA;NA;NA;NA;NA;NA;NA;filler;0;None;1035.384576
217;puente;puente;;0;;;;;;;type;['p', 'u', 'e', 'n', 't', 'e'];1.255764;1.543476;1.7034728;1.7676207;2.5515323;2.6155343;NA;NA;NA;NA;NA;NA;NA;NA;NA;nontarget;1;repeat;1040.142106
218;puente;;;0;;;;;;;speak;None;NA;NA;NA;NA;NA;NA;NA;NA;NA;NA;NA;NA;NA;NA;NA;switch;0;None;1044.795614
219;muñeca;;;0;;;;;;;speak;None;NA;NA;NA;NA;NA;NA;NA;NA;NA;NA;NA;NA;NA;NA;NA;nontarget;1;repeat;1049.435223
220;muñeca;muñeca;;0;;;;;;;type;['m', 'u', 'ñ', 'e', 'c', 'a'];1.1624251;1.4024905;1.7872365;1.9141983;2.1547689;2.2197687;NA;NA;NA;NA;NA;NA;NA;NA;NA;switch;0;None;1054.123194
221;vaca;;;0;;;;;;;speak;None;NA;NA;NA;NA;NA;NA;NA;NA;NA;NA;NA;NA;NA;NA;NA;filler;1;switch;1058.762655
222;pulpo;;;0;;;;;;;speak;None;NA;NA;NA;NA;NA;NA;NA;NA;NA;NA;NA;NA;NA;NA;NA;filler;0;None;1063.450724
223;fresa;fresa;;0;;;;;;;type;['f', 'r', 'e', 's', 'a'];1.1380256;1.3139878;1.473863;1.6498973;1.8259652;NA;NA;NA;NA;NA;NA;NA;NA;NA;NA;nontarget;1;switch;1068.083271
224;fresa;f;;1;;;;;;;type;['f', 'r', 'e', 'e', 'backspace', 'backspace'];0.8314638;1.0234592;1.0244615;1.2794646;2.3514433;2.4954288;NA;NA;NA;NA;NA;NA;NA;NA;NA;repeat;0;None;1072.64638
225;pierna;;;0;;;;;;;speak;None;NA;NA;NA;NA;NA;NA;NA;NA;NA;NA;NA;NA;NA;NA;NA;filler;0;None;1077.264193
226;bombero;;;0;;;;;;;speak;None;NA;NA;NA;NA;NA;NA;NA;NA;NA;NA;NA;NA;NA;NA;NA;filler;0;None;1081.890771
227;traje;traje;;0;;;;;;;type;['t', 'r', 'a', 'j', 'e'];1.2324877;1.3755718;1.4396557;1.8075365;1.9035846;NA;NA;NA;NA;NA;NA;NA;NA;NA;NA;nontarget;1;switch;1086.613641
228;traje;treje;;0;;;;;;;type;['t', 'r', 'e', 'j', 'e'];0.9662869;1.1266285;1.1426666;1.5911206;1.7191084;NA;NA;NA;NA;NA;NA;NA;NA;NA;NA;repeat;0;None;1091.294823
229;pavo;pavo;;0;;;;;;;type;['p', 'a', 'v', 'o'];0.9360608;1.1280901;1.4960882;1.6880884;NA;NA;NA;NA;NA;NA;NA;NA;NA;NA;NA;nontarget;1;repeat;1095.885691
230;pavo;;;0;;;;;;;speak;None;NA;NA;NA;NA;NA;NA;NA;NA;NA;NA;NA;NA;NA;NA;NA;switch;0;None;1100.629183
231;vaso;;;0;;;;;;;speak;None;NA;NA;NA;NA;NA;NA;NA;NA;NA;NA;NA;NA;NA;NA;NA;filler;0;None;1105.213252
232;traje;traje;;0;;;;;;;type;['t', 'r', 'a', 'j', 'e'];1.4285946;1.588578;1.700575;2.0366324;2.1806507;NA;NA;NA;NA;NA;NA;NA;NA;NA;NA;filler;0;None;1110.033209
233;cerdo;cerdo;;0;;;;;;;type;['c', 'e', 'r', 'd', 'o'];1.0633322;1.2713397;1.4793414;1.6712981;1.9433011;NA;NA;NA;NA;NA;NA;NA;NA;NA;NA;nontarget;0;None;1114.638006
234;cerdo;cerdo;;0;;;;;;;type;['c', 'e', 'r', 'd', 'o'];0.7520111;0.9938345;1.16878;1.3439904;1.4898433;NA;NA;NA;NA;NA;NA;NA;NA;NA;NA;repeat;0;None;1119.333151
235;cazador;;;0;;;;;;;speak;None;NA;NA;NA;NA;NA;NA;NA;NA;NA;NA;NA;NA;NA;NA;NA;filler;0;None;1124.049201
236;manzana;manzana;;0;;;;;;;type;['m', 'a', 'n', 'z', 'a', 'n', 'a'];1.3223619;1.4663462;1.6735377;1.9296168;2.1379627;2.2339598;2.410012;NA;NA;NA;NA;NA;NA;NA;NA;nontarget;1;switch;1128.667551
237;manzana;manzana;;0;;;;;;;type;['m', 'a', 'n', 'z', 'a', 'n', 'a'];0.7587221;0.8395938;0.9835615;1.3195177;1.5274844;1.5915316;1.7195038;NA;NA;NA;NA;NA;NA;NA;NA;repeat;0;None;1133.390406
238;cuerda;cuerda;;0;;;;;;;type;['c', 'u', 'e', 'r', 'd', 'a'];0.9555691;1.1635046;1.2755123;1.4673673;1.6276507;1.8196369;NA;NA;NA;NA;NA;NA;NA;NA;NA;nontarget;0;None;1138.15399
239;cuerda;;;0;;;;;;;speak;None;NA;NA;NA;NA;NA;NA;NA;NA;NA;NA;NA;NA;NA;NA;NA;switch;0;None;1142.752842
240;espalda;;;0;;;;;;;speak;None;NA;NA;NA;NA;NA;NA;NA;NA;NA;NA;NA;NA;NA;NA;NA;filler;1;repeat;1147.440834
241;granja;;;0;;;;;;;speak;None;NA;NA;NA;NA;NA;NA;NA;NA;NA;NA;NA;NA;NA;NA;NA;nontarget;1;repeat;1152.108172
242;granja;granja;;1;;;;;;;type;['f', 'backspace', 'g', 'r', 'a', 'n', 'j', 'a'];1.1230571;1.8272331;1.9872251;2.1784925;2.3708214;2.4671894;2.6265154;2.6434512;NA;NA;NA;NA;NA;NA;NA;switch;0;None;1156.754569
243;muñeca;muñeca;;0;;;;;;;type;['m', 'u', 'ñ', 'e', 'c', 'a'];0.9239739;1.1959976;1.8035263;1.9794062;2.203446;2.4274339;NA;NA;NA;NA;NA;NA;NA;NA;NA;filler;1;repeat;1161.449789
244;falda;falda;;0;;;;;;;type;['f', 'a', 'l', 'd', 'a'];1.2974947;1.3775235;1.7291636;1.8892254;2.0970359;NA;NA;NA;NA;NA;NA;NA;NA;NA;NA;nontarget;0;None;1166.068335
245;falda;;;0;;;;;;;speak;None;NA;NA;NA;NA;NA;NA;NA;NA;NA;NA;NA;NA;NA;NA;NA;switch;0;None;1170.714793
246;caracol;;;0;;;;;;;speak;None;NA;NA;NA;NA;NA;NA;NA;NA;NA;NA;NA;NA;NA;NA;NA;nontarget;1;switch;1175.430595
247;caracol;;;0;;;;;;;speak;None;NA;NA;NA;NA;NA;NA;NA;NA;NA;NA;NA;NA;NA;NA;NA;repeat;0;None;1180.042385
248;fresa;fresa;;0;;;;;;;type;['f', 'r', 'e', 's', 'a'];1.1241;1.3001563;1.4918984;1.6839202;1.8598927;NA;NA;NA;NA;NA;NA;NA;NA;NA;NA;filler;0;None;1184.737404
249;pintor;;;0;;;;;;;speak;None;NA;NA;NA;NA;NA;NA;NA;NA;NA;NA;NA;NA;NA;NA;NA;nontarget;1;switch;1189.397694
250;pintor;;;0;;;;;;;speak;None;NA;NA;NA;NA;NA;NA;NA;NA;NA;NA;NA;NA;NA;NA;NA;repeat;0;None;1194.030262
251;puente;puente;;0;;;;;;;type;['p', 'u', 'e', 'n', 't', 'e'];1.032711;1.3045006;1.4804948;1.5124968;1.7523139;1.7842768;NA;NA;NA;NA;NA;NA;NA;NA;NA;filler;0;None;1198.621191
252;pavo;;;0;;;;;;;speak;None;NA;NA;NA;NA;NA;NA;NA;NA;NA;NA;NA;NA;NA;NA;NA;filler;0;None;1203.260808
253;mano;;;0;;;;;;;speak;None;NA;NA;NA;NA;NA;NA;NA;NA;NA;NA;NA;NA;NA;NA;NA;nontarget;1;repeat;1207.941815
254;mano;mano;;0;;;;;;;type;['m', 'a', 'n', 'o'];1.0437518;1.0917488;2.0356901;2.2277101;NA;NA;NA;NA;NA;NA;NA;NA;NA;NA;NA;switch;0;None;1212.49812
255;cerdo;cerdo;;0;;;;;;;type;['c', 'e', 'r', 'd', 'o'];0.9683837;1.2101594;1.4004482;1.5444309;1.6408261;NA;NA;NA;NA;NA;NA;NA;NA;NA;NA;filler;0;None;1217.116651
256;aguja;aguja;;0;;;;;;;type;['a', 'g', 'u', 'j', 'a'];1.1870119;1.6351068;1.7951038;1.9707969;2.0508067;NA;NA;NA;NA;NA;NA;NA;NA;NA;NA;nontarget;1;repeat;1227.666603
257;aguja;;;0;;;;;;;speak;None;NA;NA;NA;NA;NA;NA;NA;NA;NA;NA;NA;NA;NA;NA;NA;switch;0;None;1232.208836
258;manzana;;;0;;;;;;;speak;None;NA;NA;NA;NA;NA;NA;NA;NA;NA;NA;NA;NA;NA;NA;NA;filler;0;None;1236.862402
259;conejo;;;0;;;;;;;speak;None;NA;NA;NA;NA;NA;NA;NA;NA;NA;NA;NA;NA;NA;NA;NA;nontarget;1;repeat;1241.501787
260;conejo;conejo;;0;;;;;;;type;['c', 'o', 'n', 'e', 'j', 'o'];1.2287085;1.4047046;1.6286998;1.7407044;1.8367055;2.044743;NA;NA;NA;NA;NA;NA;NA;NA;NA;switch;0;None;1246.120461
261;miel;miel;;0;;;;;;;type;['m', 'i', 'e', 'l'];0.9194645;1.1114208;1.2070141;1.2879484;NA;NA;NA;NA;NA;NA;NA;NA;NA;NA;NA;nontarget;1;repeat;1250.765938
262;miel;;;0;;;;;;;speak;None;NA;NA;NA;NA;NA;NA;NA;NA;NA;NA;NA;NA;NA;NA;NA;switch;0;None;1255.420287
263;falda;falda;;0;;;;;;;type;['f', 'a', 'l', 'd', 'a'];1.2500841;1.3460357;1.5865766;1.7465197;1.9545559;NA;NA;NA;NA;NA;NA;NA;NA;NA;NA;filler;0;None;1260.067102
264;goma;;;0;;;;;;;speak;None;NA;NA;NA;NA;NA;NA;NA;NA;NA;NA;NA;NA;NA;NA;NA;nontarget;1;switch;1264.656771
265;goma;;;0;;;;;;;speak;None;NA;NA;NA;NA;NA;NA;NA;NA;NA;NA;NA;NA;NA;NA;NA;repeat;0;None;1269.310931
266;caracol;caracol;;0;;;;;;;type;['c', 'a', 'r', 'a', 'c', 'o', 'l'];1.1309167;1.2109199;1.3872502;1.4352497;1.6432515;1.8992495;2.0753204;NA;NA;NA;NA;NA;NA;NA;NA;filler;0;None;1273.978183
267;iglesia;;;0;;;;;;;speak;None;NA;NA;NA;NA;NA;NA;NA;NA;NA;NA;NA;NA;NA;NA;NA;nontarget;1;switch;1278.583202
268;iglesia;;;0;;;;;;;speak;None;NA;NA;NA;NA;NA;NA;NA;NA;NA;NA;NA;NA;NA;NA;NA;repeat;0;None;1283.20102
269;oreja;;;0;;;;;;;speak;None;NA;NA;NA;NA;NA;NA;NA;NA;NA;NA;NA;NA;NA;NA;NA;nontarget;0;None;1287.875843
270;oreja;oreja;;0;;;;;;;type;['o', 'r', 'e', 'j', 'a'];0.8800232;1.055582;1.2315802;1.3600605;1.4560728;NA;NA;NA;NA;NA;NA;NA;NA;NA;NA;switch;0;None;1292.50148
271;cuerda;cu;;0;;0;1;;;;speak;['c', 'u'];0.9048749;1.1447909;NA;NA;NA;NA;NA;NA;NA;NA;NA;NA;NA;NA;NA;filler;0;None;1297.036608
272;granja;granja;;0;;;;;;;type;['g', 'r', 'a', 'n', 'j', 'a'];1.1227874;1.3147952;1.3627928;1.7787974;1.9701452;2.0351429;NA;NA;NA;NA;NA;NA;NA;NA;NA;filler;1;switch;1301.634811
273;cartero;cartero;;0;;;;;;;type;['c', 'a', 'r', 't', 'e', 'r', 'o'];0.9609733;1.0423609;1.3136713;1.6328361;1.8247841;2.0008229;2.1609004;NA;NA;NA;NA;NA;NA;NA;NA;nontarget;0;None;1306.260191
274;cartero;cartero;;0;;;;;;;type;['c', 'a', 'r', 't', 'e', 'r', 'o'];1.0365243;1.0850723;1.372906;1.6292319;1.8051912;1.9812835;2.0452377;NA;NA;NA;NA;NA;NA;NA;NA;repeat;0;None;1310.920527
275;mano;;;0;;;;;;;speak;None;NA;NA;NA;NA;NA;NA;NA;NA;NA;NA;NA;NA;NA;NA;NA;filler;1;switch;1315.546122
276;guante;guanyte;;0;;;;;;;type;['g', 'u', 'a', 'n', 'y', 't', 'e'];1.2285855;1.3885913;1.5166014;1.5806104;1.7726152;1.7886209;1.8364876;NA;NA;NA;NA;NA;NA;NA;NA;nontarget;1;switch;1320.137026
277;guante;guante;;0;;;;;;;type;['g', 'u', 'a', 'n', 't', 'e'];0.8596763;1.3555285;1.8995284;2.0115338;2.2515204;2.3002124;NA;NA;NA;NA;NA;NA;NA;NA;NA;repeat;0;None;1324.761835
278;pintor;;;0;;;;;;;speak;None;NA;NA;NA;NA;NA;NA;NA;NA;NA;NA;NA;NA;NA;NA;NA;filler;0;None;1329.409033
279;taza;taza;;0;;;;;;;type;['t', 'a', 'z', 'a'];1.8322316;1.9282274;2.1365544;2.2961103;NA;NA;NA;NA;NA;NA;NA;NA;NA;NA;NA;nontarget;0;None;1333.965175
280;taza;taza;;0;;;;;;;type;['t', 'a', 'z', 'a'];1.0373554;1.0853528;1.6452399;1.8212694;NA;NA;NA;NA;NA;NA;NA;NA;NA;NA;NA;repeat;0;None;1338.584012
281;aguja;;;0;;;;;;;speak;None;NA;NA;NA;NA;NA;NA;NA;NA;NA;NA;NA;NA;NA;NA;NA;filler;0;None;1343.202795
282;regalo;regalo;;0;;;;;;;type;['r', 'e', 'g', 'a', 'l', 'o'];1.1833301;1.3273252;1.6149026;1.7438836;2.0312409;2.2066866;NA;NA;NA;NA;NA;NA;NA;NA;NA;nontarget;1;switch;1347.814277
283;regalo;;;0;;;;;;;speak;None;NA;NA;NA;NA;NA;NA;NA;NA;NA;NA;NA;NA;NA;NA;NA;switch;0;None;1352.50932
284;baño;;;0;;;;;;;speak;None;NA;NA;NA;NA;NA;NA;NA;NA;NA;NA;NA;NA;NA;NA;NA;nontarget;1;repeat;1357.107084
285;baño;;;0;;;;;;;speak;None;NA;NA;NA;NA;NA;NA;NA;NA;NA;NA;NA;NA;NA;NA;NA;repeat;0;None;1361.885612
286;conejo;conejo;;1;;;;;;;type;['c', 'o', 'n', 'e', 'j', 'k', 'backspace', 'o'];0.9530956;1.1453454;1.4173622;1.5773662;1.753337;1.769383;2.7457889;2.9531305;NA;NA;NA;NA;NA;NA;NA;filler;0;None;1366.587736
287;miel;;;0;;;;;;;speak;None;NA;NA;NA;NA;NA;NA;NA;NA;NA;NA;NA;NA;NA;NA;NA;filler;0;None;1371.226072
288;camisa;;;0;;;;;;;speak;None;NA;NA;NA;NA;NA;NA;NA;NA;NA;NA;NA;NA;NA;NA;NA;nontarget;1;repeat;1375.901269
289;camisa;camisa;;0;;;;;;;type;['c', 'a', 'm', 'i', 's', 'a'];0.7166722;0.9406744;1.0366637;1.2286321;1.2926636;1.4526655;NA;NA;NA;NA;NA;NA;NA;NA;NA;switch;0;None;1380.568674
290;vaca;vaca;;0;;;;;;;type;['v', 'a', 'c', 'a'];1.0171654;1.06517;1.2411474;1.2731403;NA;NA;NA;NA;NA;NA;NA;NA;NA;NA;NA;nontarget;0;None;1385.180272
291;vaca;;;0;;;;;;;speak;None;NA;NA;NA;NA;NA;NA;NA;NA;NA;NA;NA;NA;NA;NA;NA;switch;0;None;1389.903242
292;goma;goma;;0;;;;;;;type;['g', 'o', 'm', 'a'];0.9827406;1.1267306;1.3187003;1.4467307;NA;NA;NA;NA;NA;NA;NA;NA;NA;NA;NA;filler;1;switch;1394.542712
293;pulpo;;;0;;;;;;;speak;None;NA;NA;NA;NA;NA;NA;NA;NA;NA;NA;NA;NA;NA;NA;NA;nontarget;1;switch;1399.175273
294;pulpo;;;0;;;;;;;speak;None;NA;NA;NA;NA;NA;NA;NA;NA;NA;NA;NA;NA;NA;NA;NA;repeat;0;None;1403.814612
295;iglesia;iglesia;;0;;;;;;;type;['i', 'g', 'l', 'e', 's', 'i', 'a'];1.0862;1.3598184;1.4862259;1.6141765;1.8059728;1.9669259;2.0789211;NA;NA;NA;NA;NA;NA;NA;NA;filler;0;None;1408.502757
296;guante;;;0;;;;;;;speak;None;NA;NA;NA;NA;NA;NA;NA;NA;NA;NA;NA;NA;NA;NA;NA;filler;0;None;1413.092811
297;pierna;;;0;;;;;;;speak;None;NA;NA;NA;NA;NA;NA;NA;NA;NA;NA;NA;NA;NA;NA;NA;nontarget;1;repeat;1417.68475
298;pierna;pierna;;0;;;;;;;type;['p', 'i', 'e', 'r', 'n', 'a'];1.1305629;2.0429971;2.1239408;2.2829759;2.3950005;2.5230421;NA;NA;NA;NA;NA;NA;NA;NA;NA;switch;0;None;1422.282333
299;tenedor;;;0;;;;;;;speak;None;NA;NA;NA;NA;NA;NA;NA;NA;NA;NA;NA;NA;NA;NA;NA;filler;0;None;1426.824594
300;oreja;oreja;;0;;;;;;;type;['o', 'r', 'e', 'j', 'a'];1.0129275;1.2220511;1.3968004;1.5247917;1.6212605;NA;NA;NA;NA;NA;NA;NA;NA;NA;NA;filler;1;switch;1431.408485
301;columna;;;0;;;;;;;speak;None;NA;NA;NA;NA;NA;NA;NA;NA;NA;NA;NA;NA;NA;NA;NA;filler;0;None;1436.04124
302;cartero;cartero;;0;;;;;;;type;['c', 'a', 'r', 't', 'e', 'r', 'o'];0.9890569;1.0690184;1.2610211;1.4530206;1.5330254;1.6930187;1.9330552;NA;NA;NA;NA;NA;NA;NA;NA;filler;1;switch;1440.631894
303;bombero;bombero;;0;;;;;;;type;['b', 'o', 'm', 'b', 'e', 'r', 'o'];1.0890496;1.1690779;1.4090784;1.7133065;1.8412468;2.0328297;2.0968288;NA;NA;NA;NA;NA;NA;NA;NA;nontarget;1;repeat;1445.18803
304;bombero;bombero;;0;;;;;;;type;['b', 'o', 'm', 'b', 'e', 'r', 'o'];1.2846007;1.4125941;1.6198235;2.1159353;2.1959658;2.3719267;2.4999257;NA;NA;NA;NA;NA;NA;NA;NA;repeat;0;None;1449.792991
305;cadena;;;0;;;;;;;speak;None;NA;NA;NA;NA;NA;NA;NA;NA;NA;NA;NA;NA;NA;NA;NA;filler;0;None;1454.432294
306;escoba;escoba;;0;;;;;;;type;['e', 's', 'c', 'o', 'b', 'a'];0.9273827;1.1032897;1.3111469;1.4551831;1.7280448;1.9040143;NA;NA;NA;NA;NA;NA;NA;NA;NA;filler;0;None;1458.981655
307;pierna;pierna;;0;;;;;;;type;['p', 'i', 'e', 'r', 'n', 'a'];1.1729796;1.5086381;1.6524758;1.8124835;1.9885137;2.1492427;NA;NA;NA;NA;NA;NA;NA;NA;NA;filler;0;None;1471.344428
308;taza;;;0;;;;;;;speak;None;NA;NA;NA;NA;NA;NA;NA;NA;NA;NA;NA;NA;NA;NA;NA;filler;0;None;1476.018679
309;pavo;;;0;;;;;;;speak;None;NA;NA;NA;NA;NA;NA;NA;NA;NA;NA;NA;NA;NA;NA;NA;nontarget;1;repeat;1480.706854
310;pavo;;;0;;;;;;;speak;None;NA;NA;NA;NA;NA;NA;NA;NA;NA;NA;NA;NA;NA;NA;NA;repeat;0;None;1485.318569
311;vaca;vaca;;0;;;;;;;type;['v', 'a', 'c', 'a'];1.3431301;1.4230928;1.5504157;1.6303266;NA;NA;NA;NA;NA;NA;NA;NA;NA;NA;NA;filler;1;repeat;1490.006452
312;espalda;;;0;;;;;;;speak;None;NA;NA;NA;NA;NA;NA;NA;NA;NA;NA;NA;NA;NA;NA;NA;nontarget;1;switch;1494.583501
313;espalda;;;0;;;;;;;speak;None;NA;NA;NA;NA;NA;NA;NA;NA;NA;NA;NA;NA;NA;NA;NA;repeat;0;None;1499.236824
314;pulpo;pulpo;;0;;;;;;;type;['p', 'u', 'l', 'p', 'o'];1.2401722;1.4961715;1.8161786;2.0241559;2.1841652;NA;NA;NA;NA;NA;NA;NA;NA;NA;NA;filler;0;None;1503.869298
315;vaso;;;0;;;;;;;speak;None;NA;NA;NA;NA;NA;NA;NA;NA;NA;NA;NA;NA;NA;NA;NA;nontarget;1;switch;1508.515762
316;vaso;vaso;;0;;;;;;;type;['v', 'a', 's', 'o'];1.1429739;1.2230002;1.3832924;1.5272601;NA;NA;NA;NA;NA;NA;NA;NA;NA;NA;NA;switch;0;None;1513.085805
317;regalo;regalo;;0;;;;;;;type;['r', 'e', 'g', 'a', 'l', 'o'];1.03562;1.2112734;1.4995494;1.7554786;1.867486;2.0274817;NA;NA;NA;NA;NA;NA;NA;NA;NA;filler;1;repeat;1517.689677
318;traje;treje;;0;;;;;;;type;['t', 'r', 'e', 'j', 'e'];0.9507458;1.1419158;1.3024651;1.5104031;1.7662913;NA;NA;NA;NA;NA;NA;NA;NA;NA;NA;nontarget;1;repeat;1522.350888
319;traje;;;0;;;;;;;speak;None;NA;NA;NA;NA;NA;NA;NA;NA;NA;NA;NA;NA;NA;NA;NA;switch;0;None;1526.969578
320;fresa;;;0;;;;;;;speak;None;NA;NA;NA;NA;NA;NA;NA;NA;NA;NA;NA;NA;NA;NA;NA;nontarget;1;repeat;1531.539707
321;fresa;fresa;;0;;;;;;;type;['f', 'r', 'e', 's', 'a'];0.725954;0.9179544;1.1099455;1.3344576;1.5104546;NA;NA;NA;NA;NA;NA;NA;NA;NA;NA;switch;0;None;1536.206846
322;bombero;bombero;;0;;;;;;;type;['b', 'o', 'm', 'b', 'e', 'r', 'o'];1.086811;1.2788027;1.5663568;2.4625645;2.5748175;2.7668378;2.9271803;NA;NA;NA;NA;NA;NA;NA;NA;filler;0;None;1540.838552
323;camisa;;;0;;;;;;;speak;None;NA;NA;NA;NA;NA;NA;NA;NA;NA;NA;NA;NA;NA;NA;NA;filler;0;None;1545.513812
324;muñeca;muñeca;;0;;;;;;;type;['m', 'u', 'ñ', 'e', 'c', 'a'];0.9566846;1.1960488;1.6447593;1.7887612;2.0767302;2.124745;NA;NA;NA;NA;NA;NA;NA;NA;NA;nontarget;0;None;1550.104689
325;muñeca;muñeca;;0;;;;;;;type;['m', 'u', 'ñ', 'e', 'c', 'a'];1.1758935;1.4158825;1.8158534;1.9927511;2.295802;2.536043;NA;NA;NA;NA;NA;NA;NA;NA;NA;repeat;0;None;1554.813447
326;baño;;;0;;;;;;;speak;None;NA;NA;NA;NA;NA;NA;NA;NA;NA;NA;NA;NA;NA;NA;NA;filler;1;switch;1559.432163
327;puente;puente;;0;;;;;;;type;['p', 'u', 'e', 'n', 't', 'e'];1.2470628;1.5670618;1.6950123;1.7590462;1.9993601;2.0315172;NA;NA;NA;NA;NA;NA;NA;NA;NA;nontarget;1;switch;1564.134116
328;puente;puente;;0;;;;;;;type;['p', 'u', 'e', 'n', 't', 'e'];0.9326355;1.1885456;1.3645025;1.4284985;1.6845253;1.7644953;NA;NA;NA;NA;NA;NA;NA;NA;NA;repeat;0;None;1568.70433
329;cazador;cazadoirt;;0;;;;;;;type;['c', 'a', 'z', 'a', 'd', 'o', 'i', 'r', 't'];1.3611672;1.6811559;1.9051517;2.0816372;2.2730958;2.4810899;2.4970866;2.7050851;2.7210862;NA;NA;NA;NA;NA;NA;nontarget;1;repeat;1573.315942
330;cazador;;;0;;;;;;;speak;None;NA;NA;NA;NA;NA;NA;NA;NA;NA;NA;NA;NA;NA;NA;NA;switch;0;None;1577.885942
331;pavo;pavo;;0;;;;;;;type;['p', 'a', 'v', 'o'];1.3172491;1.3652528;1.7172537;1.8613178;NA;NA;NA;NA;NA;NA;NA;NA;NA;NA;NA;filler;0;None;1582.560306
332;falda;falda;;0;;;;;;;type;['f', 'a', 'l', 'd', 'a'];1.0249937;1.1049925;1.568983;1.7769969;1.98499;NA;NA;NA;NA;NA;NA;NA;NA;NA;NA;nontarget;1;repeat;1587.108473
333;falda;falda;;0;;;;;;;type;['f', 'a', 'l', 'd', 'a'];1.0792398;1.1752173;1.7192177;1.9112308;2.1186733;NA;NA;NA;NA;NA;NA;NA;NA;NA;NA;repeat;0;None;1591.741952
334;puente;;;0;;;;;;;speak;None;NA;NA;NA;NA;NA;NA;NA;NA;NA;NA;NA;NA;NA;NA;NA;filler;1;switch;1596.422122
335;cuerda;cuerda;;0;;;;;;;type;['c', 'u', 'e', 'r', 'd', 'a'];1.1376412;1.3296248;1.4416204;1.6336211;1.7933472;1.9853393;NA;NA;NA;NA;NA;NA;NA;NA;NA;nontarget;1;switch;1601.027822
336;cuerda;cuerda;;0;;;;;;;type;['c', 'u', 'e', 'r', 'd', 'a'];0.8300908;1.0382198;1.1502152;1.326212;1.4860828;1.662134;NA;NA;NA;NA;NA;NA;NA;NA;NA;repeat;0;None;1605.591012
337;espalda;espalda;;0;;;;;;;type;['e', 's', 'p', 'a', 'l', 'd', 'a'];0.9659854;1.1414104;1.2850962;1.4290992;1.493096;1.7335805;1.9255673;NA;NA;NA;NA;NA;NA;NA;NA;filler;0;None;1610.22353
338;tenedor;;;0;;;;;;;speak;None;NA;NA;NA;NA;NA;NA;NA;NA;NA;NA;NA;NA;NA;NA;NA;filler;0;None;1614.898055
339;vaso;vaso;;0;;;;;;;type;['v', 'a', 's', 'o'];1.1839228;1.2479479;1.4402593;1.6001275;NA;NA;NA;NA;NA;NA;NA;NA;NA;NA;NA;filler;1;switch;1619.460924
340;manzana;manzana;;0;;;;;;;type;['m', 'a', 'n', 'z', 'a', 'n', 'a'];1.1118824;1.2078486;1.3840277;2.2156312;2.4076625;2.4718132;2.615805;NA;NA;NA;NA;NA;NA;NA;NA;nontarget;1;repeat;1624.093322
341;manzana;;;0;;;;;;;speak;None;NA;NA;NA;NA;NA;NA;NA;NA;NA;NA;NA;NA;NA;NA;NA;switch;0;None;1628.733015
342;traje;;;0;;;;;;;speak;None;NA;NA;NA;NA;NA;NA;NA;NA;NA;NA;NA;NA;NA;NA;NA;filler;0;None;1633.372339
343;caracol;;;0;;;;;;;speak;None;NA;NA;NA;NA;NA;NA;NA;NA;NA;NA;NA;NA;NA;NA;NA;nontarget;1;repeat;1637.963193
344;caracol;caracol;;0;;;;;;;type;['c', 'a', 'r', 'a', 'c', 'o', 'l'];0.9481254;1.1880788;1.4280761;1.4761194;1.6678575;1.875631;2.0515947;NA;NA;NA;NA;NA;NA;NA;NA;switch;0;None;1642.561203
345;fresa;fresa;;0;;;;;;;type;['f', 'r', 'e', 's', 'a'];1.126843;1.3348456;1.5108405;1.6712034;1.814763;NA;NA;NA;NA;NA;NA;NA;NA;NA;NA;filler;0;None;1647.166192
346;cerdo;cerdo;;0;;;;;;;type;['c', 'e', 'r', 'd', 'o'];0.8831207;1.1714571;1.3633384;1.5225172;1.6668409;NA;NA;NA;NA;NA;NA;NA;NA;NA;NA;nontarget;1;repeat;1651.826116
347;cerdo;;;0;;;;;;;speak;None;NA;NA;NA;NA;NA;NA;NA;NA;NA;NA;NA;NA;NA;NA;NA;switch;0;None;1656.423156
348;mano;;;0;;;;;;;speak;None;NA;NA;NA;NA;NA;NA;NA;NA;NA;NA;NA;NA;NA;NA;NA;nontarget;0;None;1660.980117
349;mano;;;0;;;;;;;speak;None;NA;NA;NA;NA;NA;NA;NA;NA;NA;NA;NA;NA;NA;NA;NA;repeat;0;None;1665.60576
350;muñeca;muñeca;;0;;;;;;;type;['m', 'u', 'ñ', 'e', 'c', 'a'];1.7639017;1.9878875;2.3399253;2.4999161;2.7560479;2.8361192;NA;NA;NA;NA;NA;NA;NA;NA;NA;filler;0;None;1670.272843
351;granja;;;0;;;;;;;speak;None;NA;NA;NA;NA;NA;NA;NA;NA;NA;NA;NA;NA;NA;NA;NA;nontarget;1;switch;1674.919431
352;granja;;;0;;;;;;;speak;None;NA;NA;NA;NA;NA;NA;NA;NA;NA;NA;NA;NA;NA;NA;NA;repeat;0;None;1679.495675
353;tronco;tronco;;0;;;;;;;type;['t', 'r', 'o', 'n', 'c', 'o'];1.1510677;1.3111178;1.6312767;1.9186987;2.1111097;2.2231017;NA;NA;NA;NA;NA;NA;NA;NA;NA;filler;0;None;1684.149901
354;cazador;;;0;;;;;;;speak;None;NA;NA;NA;NA;NA;NA;NA;NA;NA;NA;NA;NA;NA;NA;NA;filler;0;None;1688.858905
355;pintor;;;0;;;;;;;speak;None;NA;NA;NA;NA;NA;NA;NA;NA;NA;NA;NA;NA;NA;NA;NA;nontarget;1;repeat;1693.526
356;pintor;pintor;;0;;;;;;;type;['p', 'i', 'n', 't', 'o', 'r'];1.0430357;1.2673212;1.4603109;1.6670278;1.779003;1.8910963;NA;NA;NA;NA;NA;NA;NA;NA;NA;switch;0;None;1698.082151
357;columna;;;0;;;;;;;speak;None;NA;NA;NA;NA;NA;NA;NA;NA;NA;NA;NA;NA;NA;NA;NA;filler;0;None;1702.70775
358;oreja;oreja;;0;;;;;;;type;['o', 'r', 'e', 'j', 'a'];0.9840606;1.2239894;1.4002088;1.5283255;1.6402436;NA;NA;NA;NA;NA;NA;NA;NA;NA;NA;nontarget;0;None;1725.933007
359;oreja;;;0;;;;;;;speak;None;NA;NA;NA;NA;NA;NA;NA;NA;NA;NA;NA;NA;NA;NA;NA;switch;0;None;1730.551791
360;falda;;;0;;;;;;;speak;None;NA;NA;NA;NA;NA;NA;NA;NA;NA;NA;NA;NA;NA;NA;NA;filler;0;None;1735.156441
361;guante;;;0;;;;;;;speak;None;NA;NA;NA;NA;NA;NA;NA;NA;NA;NA;NA;NA;NA;NA;NA;nontarget;1;repeat;1739.73251
362;guante;guante;;0;;;;;;;type;['g', 'u', 'a', 'n', 't', 'e'];0.985968;1.1463253;1.3383833;1.3543674;1.6583944;1.7393364;NA;NA;NA;NA;NA;NA;NA;NA;NA;switch;0;None;1744.282659
363;cuerda;cuerda;;0;;;;;;;type;['c', 'u', 'e', 'r', 'd', 'a'];1.3386892;1.5307205;1.6107145;1.8021514;1.9621574;2.1231516;NA;NA;NA;NA;NA;NA;NA;NA;NA;filler;1;repeat;1748.922331
364;conejo;conejo;;0;;;;;;;type;['c', 'o', 'n', 'e', 'j', 'o'];2.0293317;2.157321;2.3494592;2.3654622;2.6050083;2.7970804;NA;NA;NA;NA;NA;NA;NA;NA;NA;nontarget;1;repeat;1753.575521
365;conejo;;;0;;;;;;;speak;None;NA;NA;NA;NA;NA;NA;NA;NA;NA;NA;NA;NA;NA;NA;NA;switch;0;None;1758.256736
366;manzana;manzana;;0;;;;;;;type;['m', 'a', 'n', 'z', 'a', 'n', 'a'];0.9833842;1.0313802;1.2233853;1.5596056;1.7355558;1.7836137;1.9114955;NA;NA;NA;NA;NA;NA;NA;NA;filler;0;None;1762.861474
367;cartero;;;0;;;;;;;speak;None;NA;NA;NA;NA;NA;NA;NA;NA;NA;NA;NA;NA;NA;NA;NA;nontarget;1;switch;1767.591612
368;cartero;;;0;;;;;;;speak;None;NA;NA;NA;NA;NA;NA;NA;NA;NA;NA;NA;NA;NA;NA;NA;repeat;0;None;1772.404359
369;caracol;;;0;;;;;;;speak;None;NA;NA;NA;NA;NA;NA;NA;NA;NA;NA;NA;NA;NA;NA;NA;filler;0;None;1777.03693
370;cerdo;cerdo;;0;;;;;;;type;['c', 'e', 'r', 'd', 'o'];0.8294546;1.0374504;1.2296545;1.4056467;1.5494143;NA;NA;NA;NA;NA;NA;NA;NA;NA;NA;filler;1;switch;1781.815302
371;miel;;;0;;;;;;;speak;None;NA;NA;NA;NA;NA;NA;NA;NA;NA;NA;NA;NA;NA;NA;NA;nontarget;1;switch;1786.37737
372;miel;;;0;;;;;;;speak;None;NA;NA;NA;NA;NA;NA;NA;NA;NA;NA;NA;NA;NA;NA;NA;repeat;0;None;1791.017963
373;iglesia;;;0;;;;;;;speak;None;NA;NA;NA;NA;NA;NA;NA;NA;NA;NA;NA;NA;NA;NA;NA;nontarget;1;repeat;1795.720085
374;iglesia;iglesia;;0;;;;;;;type;['i', 'g', 'l', 'e', 's', 'i', 'a'];0.9892952;1.2452621;1.373227;1.5180406;1.6930973;1.7893919;1.9173255;NA;NA;NA;NA;NA;NA;NA;NA;switch;0;None;1800.359384
375;granja;;;0;;;;;;;speak;None;NA;NA;NA;NA;NA;NA;NA;NA;NA;NA;NA;NA;NA;NA;NA;filler;0;None;1804.943314
376;mano;mano;;0;;;;;;;type;['m', 'a', 'n', 'o'];1.2087798;1.2887896;1.4325976;1.6565985;NA;NA;NA;NA;NA;NA;NA;NA;NA;NA;NA;filler;0;None;1809.596433
377;goma;gomna;;0;;;;;;;type;['g', 'o', 'm', 'n', 'a'];0.9604172;1.0724262;1.2644066;1.280411;1.3602356;NA;NA;NA;NA;NA;NA;NA;NA;NA;NA;nontarget;0;None;1814.180629
378;goma;goma;;0;;;;;;;type;['g', 'o', 'm', 'a'];1.0136706;1.1896716;1.4136737;1.8936469;NA;NA;NA;NA;NA;NA;NA;NA;NA;NA;NA;repeat;0;None;1818.799362
379;pintor;;;0;;;;;;;speak;None;NA;NA;NA;NA;NA;NA;NA;NA;NA;NA;NA;NA;NA;NA;NA;filler;0;None;1823.473706
380;aguja;aguja;;0;;;;;;;type;['a', 'g', 'u', 'j', 'a'];1.233549;1.601556;2.0015136;2.2100258;2.3542793;NA;NA;NA;NA;NA;NA;NA;NA;NA;NA;nontarget;1;switch;1828.099012
381;aguja;aguja;;0;;;;;;;type;['a', 'g', 'u', 'j', 'a'];0.8770213;1.3410462;1.5816638;1.7736406;1.8856431;NA;NA;NA;NA;NA;NA;NA;NA;NA;NA;repeat;0;None;1832.759511
382;guante;guna;;1;;;;;;;type;['g', 'u', 'n', 'a', 't', 'e', 'backspace', 'backspace', 'backspace', 'a'];1.0955874;1.271577;1.4475741;1.4635796;1.751559;1.7835573;2.2795632;2.4235627;2.6799026;2.8233586;NA;NA;NA;NA;NA;filler;1;repeat;1837.357318
383;espejo;;;0;;;;;;;speak;None;NA;NA;NA;NA;NA;NA;NA;NA;NA;NA;NA;NA;NA;NA;NA;filler;0;None;1841.989823
384;goma;;;0;;;;;;;speak;None;NA;NA;NA;NA;NA;NA;NA;NA;NA;NA;NA;NA;NA;NA;NA;filler;1;repeat;1846.678124
385;regalo;regalo;;0;;;;;;;type;['r', 'e', 'g', 'a', 'l', 'o'];1.052627;1.2123981;1.4363994;1.5803969;1.7567821;1.9487448;NA;NA;NA;NA;NA;NA;NA;NA;NA;nontarget;0;None;1851.35221
386;regalo;regalo;;0;;;;;;;type;['r', 'e', 'g', 'a', 'l', 'o'];0.9347809;1.0947744;1.3672271;1.5272144;1.6713054;1.8472974;NA;NA;NA;NA;NA;NA;NA;NA;NA;repeat;0;None;1855.997706
387;pierna;pierna;;0;;;;;;;type;['p', 'i', 'e', 'r', 'n', 'a'];0.9884271;1.2447924;1.3718732;1.5643468;1.7403464;1.8203494;NA;NA;NA;NA;NA;NA;NA;NA;NA;nontarget;1;repeat;1860.728542
388;pierna;;;0;;;;;;;speak;None;NA;NA;NA;NA;NA;NA;NA;NA;NA;NA;NA;NA;NA;NA;NA;switch;0;None;1865.354408
389;conejo;coneko;;0;;;;;;;type;['c', 'o', 'n', 'e', 'k', 'o'];1.1699887;1.3459827;1.5862291;1.9385891;2.0826574;2.2905874;NA;NA;NA;NA;NA;NA;NA;NA;NA;filler;0;None;1869.986555
390;camisa;;;0;;;;;;;speak;None;NA;NA;NA;NA;NA;NA;NA;NA;NA;NA;NA;NA;NA;NA;NA;nontarget;1;switch;1874.597364
391;camisa;;;0;;;;;;;speak;None;NA;NA;NA;NA;NA;NA;NA;NA;NA;NA;NA;NA;NA;NA;NA;repeat;0;None;1879.341916
392;vaca;;;0;;;;;;;speak;None;NA;NA;NA;NA;NA;NA;NA;NA;NA;NA;NA;NA;NA;NA;NA;nontarget;0;None;1883.932822
393;vaca;vaca;;0;;;;;;;type;['v', 'a', 'c', 'a'];1.2261403;1.2901316;1.4181285;1.4821314;NA;NA;NA;NA;NA;NA;NA;NA;NA;NA;NA;switch;0;None;1888.634856
394;cartero;;;0;;;;;;;speak;None;NA;NA;NA;NA;NA;NA;NA;NA;NA;NA;NA;NA;NA;NA;NA;filler;0;None;1893.288184
395;taza;taza;;0;;;;;;;type;['t', 'a', 'z', 'a'];1.5794895;1.6605802;2.0276025;2.1561929;NA;NA;NA;NA;NA;NA;NA;NA;NA;NA;NA;nontarget;1;switch;1897.865211
396;taza;;;0;;;;;;;speak;None;NA;NA;NA;NA;NA;NA;NA;NA;NA;NA;NA;NA;NA;NA;NA;switch;0;None;1902.42826
397;cadena;cadena;;0;;;;;;;type;['c', 'a', 'd', 'e', 'n', 'a'];1.1008347;1.1968292;1.4366404;1.5646455;1.6606316;1.7246316;NA;NA;NA;NA;NA;NA;NA;NA;NA;filler;0;None;1906.984416
398;miel;;;0;;;;;;;speak;None;NA;NA;NA;NA;NA;NA;NA;NA;NA;NA;NA;NA;NA;NA;NA;filler;0;None;1911.582306
399;bombero;;;0;;;;;;;speak;None;NA;NA;NA;NA;NA;NA;NA;NA;NA;NA;NA;NA;NA;NA;NA;nontarget;1;repeat;1916.27712
400;bombero;;;0;;;;;;;speak;None;NA;NA;NA;NA;NA;NA;NA;NA;NA;NA;NA;NA;NA;NA;NA;repeat;0;None;1920.889334
401;iglesia;iglesia;;0;;;;;;;type;['i', 'g', 'l', 'e', 's', 'i', 'a'];1.1210494;1.5849518;1.7610196;2.2084018;2.4000489;2.4640501;2.6080465;NA;NA;NA;NA;NA;NA;NA;NA;filler;1;switch;1925.556353
402;oreja;;;0;;;;;;;speak;None;NA;NA;NA;NA;NA;NA;NA;NA;NA;NA;NA;NA;NA;NA;NA;filler;0;None;1930.216727
403;pulpo;;;0;;;;;;;speak;None;NA;NA;NA;NA;NA;NA;NA;NA;NA;NA;NA;NA;NA;NA;NA;nontarget;1;repeat;1934.835268
404;pulpo;pulpo;;0;;;;;;;type;['p', 'u', 'l', 'p', 'o'];1.1386393;1.4105959;1.8106101;2.0025973;2.1625968;NA;NA;NA;NA;NA;NA;NA;NA;NA;NA;switch;0;None;1939.426299
405;escoba;;;0;;;;;;;speak;None;NA;NA;NA;NA;NA;NA;NA;NA;NA;NA;NA;NA;NA;NA;NA;filler;0;None;1944.051815
406;aguja;aguja;;0;;;;;;;type;['a', 'g', 'u', 'j', 'a'];1.3529244;1.7209174;1.9129169;2.0889168;2.168921;NA;NA;NA;NA;NA;NA;NA;NA;NA;NA;filler;0;None;1948.684311
407;baño;baño;;0;;;;;;;type;['b', 'a', 'ñ', 'o'];0.99836;1.0783953;1.4793063;1.7669892;NA;NA;NA;NA;NA;NA;NA;NA;NA;NA;NA;nontarget;1;repeat;1953.309968
408;baño;baño;;0;;;;;;;type;['b', 'a', 'ñ', 'o'];1.214059;1.26098;1.6449682;1.8848693;NA;NA;NA;NA;NA;NA;NA;NA;NA;NA;NA;repeat;0;None;1957.880088
