image;correctAns;respModal;frameColor;repSwitch;sequence;target;set;block;list;exp_version;stimulus;baseline;baseline_condition;trial_no;psychopy_trial;Column1;trialsREPSWITCH.thisRepN;trialsREPSWITCH.thisTrialN;trialsREPSWITCH.thisN;trialsREPSWITCH.thisIndex;textWelcome.started;textboxInstrMain1.started;textboxInstrMain1_2.started;textboxInstrMain1_3.started;keyInstrMain.started;keyInstrMain.keys;keyInstrMain.rt;textboxInstrMain2.started;textboxInstrMain2_2.started;textboxInstrMain2_3.started;textboxInstrMain2_4.started;textboxInstrMain2_5.started;textboxInstrMain2_6.started;textboxInstrMain2_7.started;textboxInstrMain2_8.started;textboxInstrMain2_9.started;textboxInstrMain2_10.started;textboxInstrMain2_11.started;textboxInstrMain2_12.started;keyInstrMain2.started;keyInstrMain2.keys;keyInstrMain2.rt;fixationITI.started;fixationITI.stopped;polygonColour.started;polygonWhite.started;imageObject.started;polygonType.started;textInput.started;keyResp.started;micRespv1l2.started;keyResp.keys;keyResp.corr;subjResponse;micRespv1l2.clip;textBlankLoop.started;textBlankLoop.stopped;keyPause.keys;polygonColour.stopped;polygonWhite.stopped;imageObject.stopped;polygonType.stopped;textInput.stopped;keyResp.stopped;keyResp.rt;textboxPause.started;keyPause.started;keyPause.rt;textboxGoodbye.started;textboxGoodbye.stopped;participant;session;date;expName;psychopyVersion;frameRate;Column2
;;;;;;;;;;;;;;;;;;;;;9.211667200084776;11.70898780040443;11.70898780040443;11.70898780040443;11.70898780040443;space;7.720835599582642;;;;;;;;;;;;;;;;;;;;;;;;;;;;;;;;;;;;;;;;;;;;270102;001;2023-12-04_16h09.51.777;REPSWITCH1_version1_list2;2022.2.4;143.94599220539422;
;;;;;;;;;;;;;;;;;;;;;;;;;;;;19.44613950001076;19.44613950001076;19.44613950001076;19.44613950001076;19.44613950001076;19.44613950001076;19.44613950001076;19.44613950001076;19.44613950001076;19.44613950001076;19.44613950001076;19.44613950001076;19.44613950001076;space;1.9379074997268617;;;;;;;;;;;;;;;;;;;;;;;;;;;;;270102;001;2023-12-04_16h09.51.777;REPSWITCH1_version1_list2;2022.2.4;143.94599220539422;
REPSWITCH1/PICTURE_646.png;tronco;speak;gold;filler;2;F;1;3;2;1;Extra4;0;None;1;0;1;0;0;0;0;;;;;;;;;;;;;;;;;;;;;;;21.48120540007949;22.578511600382626;22.578511600382626;22.578511600382626;22.578511600382626;22.578511600382626;22.578511600382626;22.578511600382626;22.578511600382626;None;0;;C:\2023\REPSWITCH21092023\REPSWITCH_excgange\REPSWITCH_excgange\data/270102_REPSWITCH1_version1_list2_2023-12-04_16h09.51.777_micRespv1l2_recorded\recording_micRespv1l2_2023-12-04_16h10.10.018.wav;25.599726899992675;26.099845200311393;None;;;;;;;;;;;;;270102;001;2023-12-04_16h09.51.777;REPSWITCH1_version1_list2;2022.2.4;143.94599220539422;
REPSWITCH1/PICTURE_340.png;espejo;type;darkblue;filler;1;F;1;3;2;1;Extra1;0;None;2;1;2;0;1;1;1;;;;;;;;;;;;;;;;;;;;;;;26.099845200311393;27.23888900037855;27.23888900037855;27.23888900037855;27.23888900037855;27.23888900037855;27.23888900037855;27.23888900037855;27.23888900037855;['e', 's', 'p', 'e', 'j', 'o'];0;espejo;C:\2023\REPSWITCH21092023\REPSWITCH_excgange\REPSWITCH_excgange\data/270102_REPSWITCH1_version1_list2_2023-12-04_16h09.51.777_micRespv1l2_recorded\recording_micRespv1l2_2023-12-04_16h10.14.683.wav;30.260055700317025;30.76012820005417;None;30.260055700317025;30.260055700317025;30.260055700317025;30.260055700317025;30.260055700317025;30.260055700317025;[1.0182057996280491, 1.196647399570793, 1.3390501993708313, 1.4331594994291663, 1.7819536994211376, 2.0390707994811237];;;;;;270102;001;2023-12-04_16h09.51.777;REPSWITCH1_version1_list2;2022.2.4;143.94599220539422;
REPSWITCH1/PICTURE_338.png;regalo;speak;gold;filler;2;F;1;3;2;1;Stim6_Set4;0;None;3;2;3;0;2;2;2;;;;;;;;;;;;;;;;;;;;;;;30.76012820005417;31.864454100374132;31.864454100374132;31.864454100374132;31.864454100374132;31.864454100374132;31.864454100374132;31.864454100374132;31.864454100374132;None;0;;C:\2023\REPSWITCH21092023\REPSWITCH_excgange\REPSWITCH_excgange\data/270102_REPSWITCH1_version1_list2_2023-12-04_16h09.51.777_micRespv1l2_recorded\recording_micRespv1l2_2023-12-04_16h10.19.309.wav;34.88564390037209;35.38573110010475;None;34.88564390037209;34.88564390037209;34.88564390037209;34.88564390037209;34.88564390037209;34.88564390037209;;;;;;;270102;001;2023-12-04_16h09.51.777;REPSWITCH1_version1_list2;2022.2.4;143.94599220539422;
REPSWITCH1/PICTURE_142.png;vaso;speak;gold;nontarget;2;NT;1;3;2;1;Stim7_Set1;1;repeat;4;3;4;0;3;3;3;;;;;;;;;;;;;;;;;;;;;;;35.38573110010475;36.54562950041145;36.54562950041145;36.54562950041145;36.54562950041145;36.54562950041145;36.54562950041145;36.54562950041145;36.54562950041145;None;0;;C:\2023\REPSWITCH21092023\REPSWITCH_excgange\REPSWITCH_excgange\data/270102_REPSWITCH1_version1_list2_2023-12-04_16h09.51.777_micRespv1l2_recorded\recording_micRespv1l2_2023-12-04_16h10.23.990.wav;39.56681460002437;40.0668751001358;None;39.56681460002437;39.56681460002437;39.56681460002437;39.56681460002437;39.56681460002437;39.56681460002437;;;;;;;270102;001;2023-12-04_16h09.51.777;REPSWITCH1_version1_list2;2022.2.4;143.94599220539422;
REPSWITCH1/PICTURE_142.png;vaso;speak;gold;repeat;2;T;1;3;2;1;Stim7_Set1;0;None;5;4;5;0;4;4;4;;;;;;;;;;;;;;;;;;;;;;;40.0668751001358;41.122595800086856;41.122595800086856;41.122595800086856;41.122595800086856;41.122595800086856;41.122595800086856;41.122595800086856;41.122595800086856;None;0;;C:\2023\REPSWITCH21092023\REPSWITCH_excgange\REPSWITCH_excgange\data/270102_REPSWITCH1_version1_list2_2023-12-04_16h09.51.777_micRespv1l2_recorded\recording_micRespv1l2_2023-12-04_16h10.28.567.wav;44.150839200243354;;None;44.150839200243354;44.150839200243354;44.150839200243354;44.150839200243354;44.150839200243354;44.150839200243354;;;;;;;270102;001;2023-12-04_16h09.51.777;REPSWITCH1_version1_list2;2022.2.4;143.94599220539422;
REPSWITCH1/PICTURE_498.png;taza;type;darkblue;filler;1;F;1;3;2;1;Stim4_Set4;0;None;6;5;6;0;5;5;5;;;;;;;;;;;;;;;;;;;;;;;44.65080830035731;45.7899299999699;45.7899299999699;45.7899299999699;45.7899299999699;45.7899299999699;45.7899299999699;45.7899299999699;45.7899299999699;['t', 'a', 'z', 'a'];0;taza;C:\2023\REPSWITCH21092023\REPSWITCH_excgange\REPSWITCH_excgange\data/270102_REPSWITCH1_version1_list2_2023-12-04_16h09.51.777_micRespv1l2_recorded\recording_micRespv1l2_2023-12-04_16h10.33.234.wav;48.811108299996704;49.31118610035628;None;48.811108299996704;48.811108299996704;48.811108299996704;48.811108299996704;48.811108299996704;48.811108299996704;[0.890017599798739, 0.936172999907285, 1.2069068998098373, 1.3393340995535254];;;;;;270102;001;2023-12-04_16h09.51.777;REPSWITCH1_version1_list2;2022.2.4;143.94599220539422;
REPSWITCH1/PICTURE_16.png;cazador;speak;gold;nontarget;2;NT;1;3;2;1;Stim6_Set1;1;switch;7;6;7;0;6;6;6;;;;;;;;;;;;;;;;;;;;;;;49.31118610035628;50.43631300004199;50.43631300004199;50.43631300004199;50.43631300004199;50.43631300004199;50.43631300004199;50.43631300004199;50.43631300004199;None;0;;C:\2023\REPSWITCH21092023\REPSWITCH_excgange\REPSWITCH_excgange\data/270102_REPSWITCH1_version1_list2_2023-12-04_16h09.51.777_micRespv1l2_recorded\recording_micRespv1l2_2023-12-04_16h10.37.881.wav;53.46449499996379;;None;53.46449499996379;53.46449499996379;53.46449499996379;53.46449499996379;53.46449499996379;53.46449499996379;;;;;;;270102;001;2023-12-04_16h09.51.777;REPSWITCH1_version1_list2;2022.2.4;143.94599220539422;
REPSWITCH1/PICTURE_16.png;cazador;speak;gold;repeat;2;T;1;3;2;1;Stim6_Set1;0;None;8;7;8;0;7;7;7;;;;;;;;;;;;;;;;;;;;;;;53.96462260000408;55.02029410004616;55.02029410004616;55.02029410004616;55.02029410004616;55.02029410004616;55.02029410004616;55.02029410004616;55.02029410004616;None;0;;C:\2023\REPSWITCH21092023\REPSWITCH_excgange\REPSWITCH_excgange\data/270102_REPSWITCH1_version1_list2_2023-12-04_16h09.51.777_micRespv1l2_recorded\recording_micRespv1l2_2023-12-04_16h10.42.464.wav;58.04148370027542;58.5415574000217;None;58.04148370027542;58.04148370027542;58.04148370027542;58.04148370027542;58.04148370027542;58.04148370027542;;;;;;;270102;001;2023-12-04_16h09.51.777;REPSWITCH1_version1_list2;2022.2.4;143.94599220539422;
REPSWITCH1/PICTURE_719.png;baño;type;darkblue;filler;1;F;1;3;2;1;Stim2_Set4;0;None;9;8;9;0;8;8;8;;;;;;;;;;;;;;;;;;;;;;;58.5415574000217;59.56950690038502;59.56950690038502;59.56950690038502;59.56950690038502;59.56950690038502;59.56950690038502;59.56950690038502;59.56950690038502;['b', 'a', 'ñ', 'o'];0;baño;C:\2023\REPSWITCH21092023\REPSWITCH_excgange\REPSWITCH_excgange\data/270102_REPSWITCH1_version1_list2_2023-12-04_16h09.51.777_micRespv1l2_recorded\recording_micRespv1l2_2023-12-04_16h10.47.015.wav;62.59762170026079;;None;62.59762170026079;62.59762170026079;62.59762170026079;62.59762170026079;62.59762170026079;62.59762170026079;[1.0028938995674253, 1.0616848994977772, 1.3471365994773805, 1.5544334994629025];;;;;;270102;001;2023-12-04_16h09.51.777;REPSWITCH1_version1_list2;2022.2.4;143.94599220539422;
REPSWITCH1/PICTURE_169.png;espalda;speak;gold;nontarget;2;NT;1;3;2;1;Stim8_Set1;0;None;10;9;10;0;9;9;9;;;;;;;;;;;;;;;;;;;;;;;63.097698600031435;64.1811924003996;64.1811924003996;64.1811924003996;64.1811924003996;64.1811924003996;64.1811924003996;64.1811924003996;64.1811924003996;None;0;;C:\2023\REPSWITCH21092023\REPSWITCH_excgange\REPSWITCH_excgange\data/270102_REPSWITCH1_version1_list2_2023-12-04_16h09.51.777_micRespv1l2_recorded\recording_micRespv1l2_2023-12-04_16h10.51.626.wav;67.20237080007792;67.70247360039502;None;67.20237080007792;67.20237080007792;67.20237080007792;67.20237080007792;67.20237080007792;67.20237080007792;;;;;;;270102;001;2023-12-04_16h09.51.777;REPSWITCH1_version1_list2;2022.2.4;143.94599220539422;
REPSWITCH1/PICTURE_169.png;espalda;type;darkblue;switch;1;T;1;3;2;1;Stim8_Set1;0;None;11;10;11;0;10;10;10;;;;;;;;;;;;;;;;;;;;;;;67.70247360039502;68.91095110028982;68.91095110028982;68.91095110028982;68.91095110028982;68.91095110028982;68.91095110028982;68.91095110028982;68.91095110028982;['e', 's', 'p', 'a', 'l', 'd', 'a'];0;espalda;C:\2023\REPSWITCH21092023\REPSWITCH_excgange\REPSWITCH_excgange\data/270102_REPSWITCH1_version1_list2_2023-12-04_16h09.51.777_micRespv1l2_recorded\recording_micRespv1l2_2023-12-04_16h10.56.355.wav;71.9322031000629;72.4322580001317;None;71.9322031000629;71.9322031000629;71.9322031000629;71.9322031000629;71.9322031000629;71.9322031000629;[0.8367198994383216, 0.9910739995539188, 1.0977931995876133, 1.2467316994443536, 1.4337790994904935, 1.6056637996807694, 1.7596297995187342];;;;;;270102;001;2023-12-04_16h09.51.777;REPSWITCH1_version1_list2;2022.2.4;143.94599220539422;
REPSWITCH1/PICTURE_687.png;camisa;type;darkblue;filler;1;F;1;3;2;1;Stim5_Set4;0;None;12;11;12;0;11;11;11;;;;;;;;;;;;;;;;;;;;;;;72.4322580001317;73.47407630039379;73.47407630039379;73.47407630039379;73.47407630039379;73.47407630039379;73.47407630039379;73.47407630039379;73.47407630039379;['c', 'a', 'm', 'i', 's', 'a'];0;camisa;C:\2023\REPSWITCH21092023\REPSWITCH_excgange\REPSWITCH_excgange\data/270102_REPSWITCH1_version1_list2_2023-12-04_16h09.51.777_micRespv1l2_recorded\recording_micRespv1l2_2023-12-04_16h11.00.918.wav;76.5022218003869;;None;76.5022218003869;76.5022218003869;76.5022218003869;76.5022218003869;76.5022218003869;76.5022218003869;[0.8698575999587774, 1.0282874996773899, 1.1479753996245563, 1.3311165999621153, 1.3975127995945513, 1.47425779979676];;;;;;270102;001;2023-12-04_16h09.51.777;REPSWITCH1_version1_list2;2022.2.4;143.94599220539422;
REPSWITCH1/PICTURE_178.png;puente;type;darkblue;nontarget;1;NT;1;3;2;1;Stim1_Set1;1;repeat;13;12;13;0;12;12;12;;;;;;;;;;;;;;;;;;;;;;;77.00230300007388;78.10659340023994;78.10659340023994;78.10659340023994;78.10659340023994;78.10659340023994;78.10659340023994;78.10659340023994;78.10659340023994;['p', 'u', 'e', 'n', 't', 'e'];0;puente;C:\2023\REPSWITCH21092023\REPSWITCH_excgange\REPSWITCH_excgange\data/270102_REPSWITCH1_version1_list2_2023-12-04_16h09.51.777_micRespv1l2_recorded\recording_micRespv1l2_2023-12-04_16h11.05.551.wav;81.12784670013934;81.6278766002506;None;81.12784670013934;81.12784670013934;81.12784670013934;81.12784670013934;81.12784670013934;81.12784670013934;[0.8082388993352652, 1.0995926996693015, 1.2069848994724452, 1.3385518994182348, 1.5475257993675768, 1.6251684995368123];;;;;;270102;001;2023-12-04_16h09.51.777;REPSWITCH1_version1_list2;2022.2.4;143.94599220539422;
REPSWITCH1/PICTURE_178.png;puente;speak;gold;switch;2;T;1;3;2;1;Stim1_Set1;0;None;14;13;14;0;13;13;13;;;;;;;;;;;;;;;;;;;;;;;81.6278766002506;82.70442670024931;82.70442670024931;82.70442670024931;82.70442670024931;82.70442670024931;82.70442670024931;82.70442670024931;82.70442670024931;None;0;;C:\2023\REPSWITCH21092023\REPSWITCH_excgange\REPSWITCH_excgange\data/270102_REPSWITCH1_version1_list2_2023-12-04_16h09.51.777_micRespv1l2_recorded\recording_micRespv1l2_2023-12-04_16h11.10.149.wav;85.72565559996292;86.22573680011556;None;85.72565559996292;85.72565559996292;85.72565559996292;85.72565559996292;85.72565559996292;85.72565559996292;;;;;;;270102;001;2023-12-04_16h09.51.777;REPSWITCH1_version1_list2;2022.2.4;143.94599220539422;
REPSWITCH1/PICTURE_128.png;muñeca;speak;gold;nontarget;2;NT;1;3;2;1;Stim4_Set1;1;repeat;15;14;15;0;14;14;14;;;;;;;;;;;;;;;;;;;;;;;86.22573680011556;87.33697349997237;87.33697349997237;87.33697349997237;87.33697349997237;87.33697349997237;87.33697349997237;87.33697349997237;87.33697349997237;None;0;;C:\2023\REPSWITCH21092023\REPSWITCH_excgange\REPSWITCH_excgange\data/270102_REPSWITCH1_version1_list2_2023-12-04_16h09.51.777_micRespv1l2_recorded\recording_micRespv1l2_2023-12-04_16h11.14.781.wav;90.35826460039243;90.85829680040479;None;90.35826460039243;90.35826460039243;90.35826460039243;90.35826460039243;90.35826460039243;90.35826460039243;;;;;;;270102;001;2023-12-04_16h09.51.777;REPSWITCH1_version1_list2;2022.2.4;143.94599220539422;
REPSWITCH1/PICTURE_128.png;muñeca;type;darkblue;switch;1;T;1;3;2;1;Stim4_Set1;0;None;16;15;16;0;15;15;15;;;;;;;;;;;;;;;;;;;;;;;90.85829680040479;91.96952980011702;91.96952980011702;91.96952980011702;91.96952980011702;91.96952980011702;91.96952980011702;91.96952980011702;91.96952980011702;['m', 'u', 'ñ', 'e', 'c', 'a'];0;muñeca;C:\2023\REPSWITCH21092023\REPSWITCH_excgange\REPSWITCH_excgange\data/270102_REPSWITCH1_version1_list2_2023-12-04_16h09.51.777_micRespv1l2_recorded\recording_micRespv1l2_2023-12-04_16h11.19.414.wav;94.99082260020077;95.49088810011744;None;94.99082260020077;94.99082260020077;94.99082260020077;94.99082260020077;94.99082260020077;94.99082260020077;[0.6885897996835411, 0.8689888995140791, 1.655639799311757, 1.7655795994214714, 2.0067614996805787, 2.1004633996635675];;;;;;270102;001;2023-12-04_16h09.51.777;REPSWITCH1_version1_list2;2022.2.4;143.94599220539422;
REPSWITCH1/PICTURE_319.png;vaca;speak;gold;filler;2;F;1;3;2;1;Stim1_Set4;1;switch;17;16;17;0;16;16;16;;;;;;;;;;;;;;;;;;;;;;;95.49088810011744;96.58126440038905;96.58126440038905;96.58126440038905;96.58126440038905;96.58126440038905;96.58126440038905;96.58126440038905;96.58126440038905;None;0;;C:\2023\REPSWITCH21092023\REPSWITCH_excgange\REPSWITCH_excgange\data/270102_REPSWITCH1_version1_list2_2023-12-04_16h09.51.777_micRespv1l2_recorded\recording_micRespv1l2_2023-12-04_16h11.24.025.wav;99.60249930014834;100.10255180019885;None;99.60249930014834;99.60249930014834;99.60249930014834;99.60249930014834;99.60249930014834;99.60249930014834;;;;;;;270102;001;2023-12-04_16h09.51.777;REPSWITCH1_version1_list2;2022.2.4;143.94599220539422;
REPSWITCH1/PICTURE_728.png;pulpo;speak;gold;filler;2;F;1;3;2;1;Stim8_Set4;0;None;18;17;18;0;17;17;17;;;;;;;;;;;;;;;;;;;;;;;100.10255180019885;101.21380130015314;101.21380130015314;101.21380130015314;101.21380130015314;101.21380130015314;101.21380130015314;101.21380130015314;101.21380130015314;None;0;;C:\2023\REPSWITCH21092023\REPSWITCH_excgange\REPSWITCH_excgange\data/270102_REPSWITCH1_version1_list2_2023-12-04_16h09.51.777_micRespv1l2_recorded\recording_micRespv1l2_2023-12-04_16h11.28.658.wav;104.24196390016004;;None;104.24196390016004;104.24196390016004;104.24196390016004;104.24196390016004;104.24196390016004;104.24196390016004;;;;;;;270102;001;2023-12-04_16h09.51.777;REPSWITCH1_version1_list2;2022.2.4;143.94599220539422;
REPSWITCH1/PICTURE_381.png;fresa;type;darkblue;nontarget;1;NT;1;3;2;1;Stim2_Set1;1;switch;19;18;19;0;18;18;18;;;;;;;;;;;;;;;;;;;;;;;104.7420569001697;105.85333910025656;105.85333910025656;105.85333910025656;105.85333910025656;105.85333910025656;105.85333910025656;105.85333910025656;105.85333910025656;['f', 'r', 'e', 's', 'a'];0;fresa;C:\2023\REPSWITCH21092023\REPSWITCH_excgange\REPSWITCH_excgange\data/270102_REPSWITCH1_version1_list2_2023-12-04_16h09.51.777_micRespv1l2_recorded\recording_micRespv1l2_2023-12-04_16h11.33.297.wav;108.87454960029572;109.37461080029607;None;108.87454960029572;108.87454960029572;108.87454960029572;108.87454960029572;108.87454960029572;108.87454960029572;[0.9479203992523253, 1.112639899365604, 1.1484665996395051, 1.328840199392289, 1.4323275992646813];;;;;;270102;001;2023-12-04_16h09.51.777;REPSWITCH1_version1_list2;2022.2.4;143.94599220539422;
REPSWITCH1/PICTURE_381.png;fresa;type;darkblue;repeat;1;T;1;3;2;1;Stim2_Set1;0;None;20;19;20;0;19;19;19;;;;;;;;;;;;;;;;;;;;;;;109.37461080029607;110.5067158001475;110.5067158001475;110.5067158001475;110.5067158001475;110.5067158001475;110.5067158001475;110.5067158001475;110.5067158001475;['f', 'r', 'e', 's', 'a'];0;fresa;C:\2023\REPSWITCH21092023\REPSWITCH_excgange\REPSWITCH_excgange\data/270102_REPSWITCH1_version1_list2_2023-12-04_16h09.51.777_micRespv1l2_recorded\recording_micRespv1l2_2023-12-04_16h11.37.951.wav;113.53485780023038;;None;113.53485780023038;113.53485780023038;113.53485780023038;113.53485780023038;113.53485780023038;113.53485780023038;[0.8833326995372772, 1.0350065995007753, 1.0777893997728825, 1.2431953996419907, 1.3429004997015];;;;;;270102;001;2023-12-04_16h09.51.777;REPSWITCH1_version1_list2;2022.2.4;143.94599220539422;
REPSWITCH1/PICTURE_8.png;pierna;speak;gold;filler;2;F;1;3;2;1;Stim3_Set4;0;None;21;20;21;0;20;20;20;;;;;;;;;;;;;;;;;;;;;;;114.03492120001465;115.16010810015723;115.16010810015723;115.16010810015723;115.16010810015723;115.16010810015723;115.16010810015723;115.16010810015723;115.16010810015723;None;0;;C:\2023\REPSWITCH21092023\REPSWITCH_excgange\REPSWITCH_excgange\data/270102_REPSWITCH1_version1_list2_2023-12-04_16h09.51.777_micRespv1l2_recorded\recording_micRespv1l2_2023-12-04_16h11.42.604.wav;118.18128770031035;118.68139509996399;None;118.18128770031035;118.18128770031035;118.18128770031035;118.18128770031035;118.18128770031035;118.18128770031035;;;;;;;270102;001;2023-12-04_16h09.51.777;REPSWITCH1_version1_list2;2022.2.4;143.94599220539422;
REPSWITCH1/PICTURE_48.png;bombero;speak;gold;filler;2;F;1;3;2;1;Stim7_Set4;0;None;22;21;22;0;21;21;21;;;;;;;;;;;;;;;;;;;;;;;118.68139509996399;119.73716829996556;119.73716829996556;119.73716829996556;119.73716829996556;119.73716829996556;119.73716829996556;119.73716829996556;119.73716829996556;None;0;;C:\2023\REPSWITCH21092023\REPSWITCH_excgange\REPSWITCH_excgange\data/270102_REPSWITCH1_version1_list2_2023-12-04_16h09.51.777_micRespv1l2_recorded\recording_micRespv1l2_2023-12-04_16h11.47.181.wav;122.76525720022619;;None;122.76525720022619;122.76525720022619;122.76525720022619;122.76525720022619;122.76525720022619;122.76525720022619;;;;;;;270102;001;2023-12-04_16h09.51.777;REPSWITCH1_version1_list2;2022.2.4;143.94599220539422;
REPSWITCH1/PICTURE_135.png;traje;type;darkblue;nontarget;1;NT;1;3;2;1;Stim3_Set1;1;switch;23;22;23;0;22;22;22;;;;;;;;;;;;;;;;;;;;;;;123.26531480019912;124.32795120030642;124.32795120030642;124.32795120030642;124.32795120030642;124.32795120030642;124.32795120030642;124.32795120030642;124.32795120030642;['t', 'r', 'a', 'j', 'e'];0;traje;C:\2023\REPSWITCH21092023\REPSWITCH_excgange\REPSWITCH_excgange\data/270102_REPSWITCH1_version1_list2_2023-12-04_16h09.51.777_micRespv1l2_recorded\recording_micRespv1l2_2023-12-04_16h11.51.771.wav;127.349207600113;127.84933630004525;None;127.349207600113;127.349207600113;127.349207600113;127.349207600113;127.349207600113;127.349207600113;[1.0589791997335851, 1.2219036999158561, 1.3240248998627067, 1.5828004996292293, 1.7024037996307015];;;;;;270102;001;2023-12-04_16h09.51.777;REPSWITCH1_version1_list2;2022.2.4;143.94599220539422;
REPSWITCH1/PICTURE_135.png;traje;type;darkblue;repeat;1;T;1;3;2;1;Stim3_Set1;0;None;24;23;24;0;23;23;23;;;;;;;;;;;;;;;;;;;;;;;127.84933630004525;129.03698180010542;129.03698180010542;129.03698180010542;129.03698180010542;129.03698180010542;129.03698180010542;129.03698180010542;129.03698180010542;['t', 'r', 'a', 'j', 'e'];0;traje;C:\2023\REPSWITCH21092023\REPSWITCH_excgange\REPSWITCH_excgange\data/270102_REPSWITCH1_version1_list2_2023-12-04_16h09.51.777_micRespv1l2_recorded\recording_micRespv1l2_2023-12-04_16h11.56.483.wav;132.06510130036622;;None;132.06510130036622;132.06510130036622;132.06510130036622;132.06510130036622;132.06510130036622;132.06510130036622;[0.8724032999016345, 1.0507962997071445, 1.1255352995358407, 1.458661399781704, 1.5822782996110618];;;;;;270102;001;2023-12-04_16h09.51.777;REPSWITCH1_version1_list2;2022.2.4;143.94599220539422;
REPSWITCH1/PICTURE_19.png;pavo;type;darkblue;nontarget;1;NT;1;3;2;1;Stim5_Set1;1;repeat;25;24;25;0;24;24;24;;;;;;;;;;;;;;;;;;;;;;;132.5651549003087;133.5930870003067;133.5930870003067;133.5930870003067;133.5930870003067;133.5930870003067;133.5930870003067;133.5930870003067;133.5930870003067;['p', 'a', 'v', 'o'];0;pavo;C:\2023\REPSWITCH21092023\REPSWITCH_excgange\REPSWITCH_excgange\data/270102_REPSWITCH1_version1_list2_2023-12-04_16h09.51.777_micRespv1l2_recorded\recording_micRespv1l2_2023-12-04_16h12.01.038.wav;136.62124910019338;;None;136.62124910019338;136.62124910019338;136.62124910019338;136.62124910019338;136.62124910019338;136.62124910019338;[0.8539570993743837, 0.9516154993325472, 1.233926599379629, 1.3734552995301783];;;;;;270102;001;2023-12-04_16h09.51.777;REPSWITCH1_version1_list2;2022.2.4;143.94599220539422;
REPSWITCH1/PICTURE_19.png;pavo;speak;gold;switch;2;T;1;3;2;1;Stim5_Set1;0;None;26;25;26;0;25;25;25;;;;;;;;;;;;;;;;;;;;;;;137.12129810033366;138.31591690005735;138.31591690005735;138.31591690005735;138.31591690005735;138.31591690005735;138.31591690005735;138.31591690005735;138.31591690005735;None;0;;C:\2023\REPSWITCH21092023\REPSWITCH_excgange\REPSWITCH_excgange\data/270102_REPSWITCH1_version1_list2_2023-12-04_16h09.51.777_micRespv1l2_recorded\recording_micRespv1l2_2023-12-04_16h12.05.762.wav;141.3441095002927;;None;141.3441095002927;141.3441095002927;141.3441095002927;141.3441095002927;141.3441095002927;141.3441095002927;;;;;;;270102;001;2023-12-04_16h09.51.777;REPSWITCH1_version1_list2;2022.2.4;143.94599220539422;
REPSWITCH1/PICTURE_142.png;vaso;speak;gold;filler;2;F;2;3;2;1;Stim7_Set1;0;None;27;26;27;0;26;26;26;;;;;;;;;;;;;;;;;;;;;;;141.8441437999718;142.98320800019428;142.98320800019428;142.98320800019428;142.98320800019428;142.98320800019428;142.98320800019428;142.98320800019428;142.98320800019428;None;0;;C:\2023\REPSWITCH21092023\REPSWITCH_excgange\REPSWITCH_excgange\data/270102_REPSWITCH1_version1_list2_2023-12-04_16h09.51.777_micRespv1l2_recorded\recording_micRespv1l2_2023-12-04_16h12.10.427.wav;146.0044121001847;146.50449390010908;None;146.0044121001847;146.0044121001847;146.0044121001847;146.0044121001847;146.0044121001847;146.0044121001847;;;;;;;270102;001;2023-12-04_16h09.51.777;REPSWITCH1_version1_list2;2022.2.4;143.94599220539422;
REPSWITCH1/PICTURE_135.png;traje;type;darkblue;filler;1;F;2;3;2;1;Stim3_Set1;0;None;28;27;28;0;27;27;27;;;;;;;;;;;;;;;;;;;;;;;146.50449390010908;147.62969530001283;147.62969530001283;147.62969530001283;147.62969530001283;147.62969530001283;147.62969530001283;147.62969530001283;147.62969530001283;['t', 'r', 'a', 'j', 'e'];0;traje;C:\2023\REPSWITCH21092023\REPSWITCH_excgange\REPSWITCH_excgange\data/270102_REPSWITCH1_version1_list2_2023-12-04_16h09.51.777_micRespv1l2_recorded\recording_micRespv1l2_2023-12-04_16h12.15.074.wav;150.65776880038902;;None;150.65776880038902;150.65776880038902;150.65776880038902;150.65776880038902;150.65776880038902;150.65776880038902;[0.8068808997049928, 0.9708899999968708, 1.088924499694258, 1.3168118000030518, 1.43792329961434];;;;;;270102;001;2023-12-04_16h09.51.777;REPSWITCH1_version1_list2;2022.2.4;143.94599220539422;
REPSWITCH1/PICTURE_446.png;cerdo;type;darkblue;nontarget;1;NT;2;3;2;1;Stim7_Set2;0;None;29;28;29;0;28;28;28;;;;;;;;;;;;;;;;;;;;;;;151.15785630000755;152.31082400027663;152.31082400027663;152.31082400027663;152.31082400027663;152.31082400027663;152.31082400027663;152.31082400027663;152.31082400027663;['c', 'e', 'r', 'd', 'o'];0;cerdo;C:\2023\REPSWITCH21092023\REPSWITCH_excgange\REPSWITCH_excgange\data/270102_REPSWITCH1_version1_list2_2023-12-04_16h09.51.777_micRespv1l2_recorded\recording_micRespv1l2_2023-12-04_16h12.19.756.wav;155.33897390030324;155.83905180031434;None;155.33897390030324;155.33897390030324;155.33897390030324;155.33897390030324;155.33897390030324;155.33897390030324;[1.2743446994572878, 1.3251226996071637, 1.4944074996747077, 1.6716552996076643, 1.8338354998268187];;;;;;270102;001;2023-12-04_16h09.51.777;REPSWITCH1_version1_list2;2022.2.4;143.94599220539422;
REPSWITCH1/PICTURE_446.png;cerdo;type;darkblue;repeat;1;T;2;3;2;1;Stim7_Set2;0;None;30;29;30;0;29;29;29;;;;;;;;;;;;;;;;;;;;;;;155.83905180031434;156.91557299997658;156.91557299997658;156.91557299997658;156.91557299997658;156.91557299997658;156.91557299997658;156.91557299997658;156.91557299997658;['c', 'e', 'r', 'd', 'o'];0;cerdo;C:\2023\REPSWITCH21092023\REPSWITCH_excgange\REPSWITCH_excgange\data/270102_REPSWITCH1_version1_list2_2023-12-04_16h09.51.777_micRespv1l2_recorded\recording_micRespv1l2_2023-12-04_16h12.24.360.wav;159.94373870035633;;None;159.94373870035633;159.94373870035633;159.94373870035633;159.94373870035633;159.94373870035633;159.94373870035633;[0.7390864994376898, 0.8420411995612085, 0.9107751995325089, 1.1001837993972003, 1.3161753993481398];;;;;;270102;001;2023-12-04_16h09.51.777;REPSWITCH1_version1_list2;2022.2.4;143.94599220539422;
REPSWITCH1/PICTURE_16.png;cazador;speak;gold;filler;2;F;2;3;2;1;Stim6_Set1;0;None;31;30;31;0;30;30;30;;;;;;;;;;;;;;;;;;;;;;;160.4437947999686;161.4509088001214;161.4509088001214;161.4509088001214;161.4509088001214;161.4509088001214;161.4509088001214;161.4509088001214;161.4509088001214;None;0;;C:\2023\REPSWITCH21092023\REPSWITCH_excgange\REPSWITCH_excgange\data/270102_REPSWITCH1_version1_list2_2023-12-04_16h09.51.777_micRespv1l2_recorded\recording_micRespv1l2_2023-12-04_16h12.28.895.wav;164.47910210024565;;None;164.47910210024565;164.47910210024565;164.47910210024565;164.47910210024565;164.47910210024565;164.47910210024565;;;;;;;270102;001;2023-12-04_16h09.51.777;REPSWITCH1_version1_list2;2022.2.4;143.94599220539422;
REPSWITCH1/PICTURE_552.png;manzana;type;darkblue;nontarget;1;NT;2;3;2;1;Stim6_Set2;1;switch;32;31;32;0;31;31;31;;;;;;;;;;;;;;;;;;;;;;;164.97921110037714;166.1042678002268;166.1042678002268;166.1042678002268;166.1042678002268;166.1042678002268;166.1042678002268;166.1042678002268;166.1042678002268;['m', 'a', 'n', 'z', 'a', 'n', 'a'];0;manzana;C:\2023\REPSWITCH21092023\REPSWITCH_excgange\REPSWITCH_excgange\data/270102_REPSWITCH1_version1_list2_2023-12-04_16h09.51.777_micRespv1l2_recorded\recording_micRespv1l2_2023-12-04_16h12.33.549.wav;169.12552090035751;169.62557850033045;None;169.12552090035751;169.12552090035751;169.12552090035751;169.12552090035751;169.12552090035751;169.12552090035751;[0.8253601999022067, 0.8891638997010887, 1.033638299908489, 1.1971684996969998, 1.3257291996851563, 1.5559261995367706, 1.6823499999009073];;;;;;270102;001;2023-12-04_16h09.51.777;REPSWITCH1_version1_list2;2022.2.4;143.94599220539422;
REPSWITCH1/PICTURE_552.png;manzana;type;darkblue;repeat;1;T;2;3;2;1;Stim6_Set2;0;None;33;32;33;0;32;32;32;;;;;;;;;;;;;;;;;;;;;;;169.62557850033045;170.79941460024565;170.79941460024565;170.79941460024565;170.79941460024565;170.79941460024565;170.79941460024565;170.79941460024565;170.79941460024565;['m', 'a', 'n', 'z', 'a', 'n', 'a'];0;manzana;C:\2023\REPSWITCH21092023\REPSWITCH_excgange\REPSWITCH_excgange\data/270102_REPSWITCH1_version1_list2_2023-12-04_16h09.51.777_micRespv1l2_recorded\recording_micRespv1l2_2023-12-04_16h12.38.244.wav;173.82754020020366;;None;173.82754020020366;173.82754020020366;173.82754020020366;173.82754020020366;173.82754020020366;173.82754020020366;[0.8647247995249927, 0.9544650996103883, 1.2069275993853807, 1.3985903994180262, 1.5331260995008051, 1.7630162998102605, 1.8717048997059464];;;;;;270102;001;2023-12-04_16h09.51.777;REPSWITCH1_version1_list2;2022.2.4;143.94599220539422;
REPSWITCH1/PICTURE_517.png;cuerda;type;darkblue;nontarget;1;NT;2;3;2;1;Stim4_Set2;0;None;34;33;34;0;33;33;33;;;;;;;;;;;;;;;;;;;;;;;174.3275933000259;175.39715200010687;175.39715200010687;175.39715200010687;175.39715200010687;175.39715200010687;175.39715200010687;175.39715200010687;175.39715200010687;['c', 'u', 'e', 'r', 'd', 'a'];0;cuerda;C:\2023\REPSWITCH21092023\REPSWITCH_excgange\REPSWITCH_excgange\data/270102_REPSWITCH1_version1_list2_2023-12-04_16h09.51.777_micRespv1l2_recorded\recording_micRespv1l2_2023-12-04_16h12.42.842.wav;178.4253560001962;;None;178.4253560001962;178.4253560001962;178.4253560001962;178.4253560001962;178.4253560001962;178.4253560001962;[0.8921960997395217, 1.0556993996724486, 1.1623769993893802, 1.3288236996158957, 1.5225444994866848, 1.7198705994524062];;;;;;270102;001;2023-12-04_16h09.51.777;REPSWITCH1_version1_list2;2022.2.4;143.94599220539422;
REPSWITCH1/PICTURE_517.png;cuerda;speak;gold;switch;2;T;2;3;2;1;Stim4_Set2;0;None;35;34;35;0;34;34;34;;;;;;;;;;;;;;;;;;;;;;;178.92541400017217;179.98111460031942;179.98111460031942;179.98111460031942;179.98111460031942;179.98111460031942;179.98111460031942;179.98111460031942;179.98111460031942;None;0;;C:\2023\REPSWITCH21092023\REPSWITCH_excgange\REPSWITCH_excgange\data/270102_REPSWITCH1_version1_list2_2023-12-04_16h09.51.777_micRespv1l2_recorded\recording_micRespv1l2_2023-12-04_16h12.47.426.wav;183.00230760034174;183.50239130016416;None;183.00230760034174;183.00230760034174;183.00230760034174;183.00230760034174;183.00230760034174;183.00230760034174;;;;;;;270102;001;2023-12-04_16h09.51.777;REPSWITCH1_version1_list2;2022.2.4;143.94599220539422;
REPSWITCH1/PICTURE_169.png;espalda;speak;gold;filler;2;F;2;3;2;1;Stim8_Set1;1;repeat;36;35;36;0;35;35;35;;;;;;;;;;;;;;;;;;;;;;;183.50239130016416;184.66229720041156;184.66229720041156;184.66229720041156;184.66229720041156;184.66229720041156;184.66229720041156;184.66229720041156;184.66229720041156;None;0;;C:\2023\REPSWITCH21092023\REPSWITCH_excgange\REPSWITCH_excgange\data/270102_REPSWITCH1_version1_list2_2023-12-04_16h09.51.777_micRespv1l2_recorded\recording_micRespv1l2_2023-12-04_16h12.52.106.wav;187.68351030023769;188.18356370041147;None;187.68351030023769;187.68351030023769;187.68351030023769;187.68351030023769;187.68351030023769;187.68351030023769;;;;;;;270102;001;2023-12-04_16h09.51.777;REPSWITCH1_version1_list2;2022.2.4;143.94599220539422;
REPSWITCH1/PICTURE_30.png;granja;speak;gold;nontarget;2;NT;2;3;2;1;Stim5_Set2;1;repeat;37;36;37;0;36;36;36;;;;;;;;;;;;;;;;;;;;;;;188.18356370041147;189.3156785001047;189.3156785001047;189.3156785001047;189.3156785001047;189.3156785001047;189.3156785001047;189.3156785001047;189.3156785001047;None;0;;C:\2023\REPSWITCH21092023\REPSWITCH_excgange\REPSWITCH_excgange\data/270102_REPSWITCH1_version1_list2_2023-12-04_16h09.51.777_micRespv1l2_recorded\recording_micRespv1l2_2023-12-04_16h12.56.760.wav;192.33686400018632;192.83692460041493;None;192.33686400018632;192.33686400018632;192.33686400018632;192.33686400018632;192.33686400018632;192.33686400018632;;;;;;;270102;001;2023-12-04_16h09.51.777;REPSWITCH1_version1_list2;2022.2.4;143.94599220539422;
REPSWITCH1/PICTURE_30.png;granja;type;darkblue;switch;1;T;2;3;2;1;Stim5_Set2;0;None;38;37;38;0;37;37;37;;;;;;;;;;;;;;;;;;;;;;;192.83692460041493;193.98295610025525;193.98295610025525;193.98295610025525;193.98295610025525;193.98295610025525;193.98295610025525;193.98295610025525;193.98295610025525;['g', 'r', 'a', 'n', 'j', 'a'];0;granja;C:\2023\REPSWITCH21092023\REPSWITCH_excgange\REPSWITCH_excgange\data/270102_REPSWITCH1_version1_list2_2023-12-04_16h09.51.777_micRespv1l2_recorded\recording_micRespv1l2_2023-12-04_16h13.01.428.wav;197.0111243003048;;None;197.0111243003048;197.0111243003048;197.0111243003048;197.0111243003048;197.0111243003048;197.0111243003048;[1.0019752997905016, 1.1943285996094346, 1.2683166996575892, 1.586627199780196, 1.7729740999639034, 1.8616299000568688];;;;;;270102;001;2023-12-04_16h09.51.777;REPSWITCH1_version1_list2;2022.2.4;143.94599220539422;
REPSWITCH1/PICTURE_128.png;muñeca;type;darkblue;filler;1;F;2;3;2;1;Stim4_Set1;1;repeat;39;38;39;0;38;38;38;;;;;;;;;;;;;;;;;;;;;;;197.51118410006166;198.64334180019796;198.64334180019796;198.64334180019796;198.64334180019796;198.64334180019796;198.64334180019796;198.64334180019796;198.64334180019796;['m', 'u', 'ñ', 'e', 'c', 'a'];0;muñeca;C:\2023\REPSWITCH21092023\REPSWITCH_excgange\REPSWITCH_excgange\data/270102_REPSWITCH1_version1_list2_2023-12-04_16h09.51.777_micRespv1l2_recorded\recording_micRespv1l2_2023-12-04_16h13.06.088.wav;201.67152990028262;;None;201.67152990028262;201.67152990028262;201.67152990028262;201.67152990028262;201.67152990028262;201.67152990028262;[0.8559895996004343, 1.0501100993715227, 1.289304199628532, 1.366006599739194, 1.6394527996890247, 1.7179084992967546];;;;;;270102;001;2023-12-04_16h09.51.777;REPSWITCH1_version1_list2;2022.2.4;143.94599220539422;
REPSWITCH1/PICTURE_199.png;falda;type;darkblue;nontarget;1;NT;2;3;2;1;Stim8_Set2;0;None;40;39;40;0;39;39;39;;;;;;;;;;;;;;;;;;;;;;;202.17148829996586;203.36610740004107;203.36610740004107;203.36610740004107;203.36610740004107;203.36610740004107;203.36610740004107;203.36610740004107;203.36610740004107;['f', 'a', 'l', 'd', 'a'];0;falda;C:\2023\REPSWITCH21092023\REPSWITCH_excgange\REPSWITCH_excgange\data/270102_REPSWITCH1_version1_list2_2023-12-04_16h09.51.777_micRespv1l2_recorded\recording_micRespv1l2_2023-12-04_16h13.10.812.wav;206.3943766001612;;None;206.3943766001612;206.3943766001612;206.3943766001612;206.3943766001612;206.3943766001612;206.3943766001612;[0.7921429993584752, 0.8883103993721306, 1.1023308993317187, 1.4021258996799588, 1.5396625995635986];;;;;;270102;001;2023-12-04_16h09.51.777;REPSWITCH1_version1_list2;2022.2.4;143.94599220539422;
REPSWITCH1/PICTURE_199.png;falda;speak;gold;switch;2;T;2;3;2;1;Stim8_Set2;0;None;41;40;41;0;40;40;40;;;;;;;;;;;;;;;;;;;;;;;206.89436590019614;208.01256539998576;208.01256539998576;208.01256539998576;208.01256539998576;208.01256539998576;208.01256539998576;208.01256539998576;208.01256539998576;None;0;;C:\2023\REPSWITCH21092023\REPSWITCH_excgange\REPSWITCH_excgange\data/270102_REPSWITCH1_version1_list2_2023-12-04_16h09.51.777_micRespv1l2_recorded\recording_micRespv1l2_2023-12-04_16h13.15.457.wav;211.04073820030317;;None;211.04073820030317;211.04073820030317;211.04073820030317;211.04073820030317;211.04073820030317;211.04073820030317;;;;;;;270102;001;2023-12-04_16h09.51.777;REPSWITCH1_version1_list2;2022.2.4;143.94599220539422;
REPSWITCH1/PICTURE_152.png;caracol;speak;gold;nontarget;2;NT;2;3;2;1;Stim2_Set2;1;switch;42;41;42;0;41;41;41;;;;;;;;;;;;;;;;;;;;;;;211.54085710039362;212.63122070021927;212.63122070021927;212.63122070021927;212.63122070021927;212.63122070021927;212.63122070021927;212.63122070021927;212.63122070021927;None;0;;C:\2023\REPSWITCH21092023\REPSWITCH_excgange\REPSWITCH_excgange\data/270102_REPSWITCH1_version1_list2_2023-12-04_16h09.51.777_micRespv1l2_recorded\recording_micRespv1l2_2023-12-04_16h13.20.076.wav;215.6524595003575;216.15253100031987;None;215.6524595003575;215.6524595003575;215.6524595003575;215.6524595003575;215.6524595003575;215.6524595003575;;;;;;;270102;001;2023-12-04_16h09.51.777;REPSWITCH1_version1_list2;2022.2.4;143.94599220539422;
REPSWITCH1/PICTURE_152.png;caracol;speak;gold;repeat;2;T;2;3;2;1;Stim2_Set2;0;None;43;42;43;0;42;42;42;;;;;;;;;;;;;;;;;;;;;;;216.15253100031987;217.340168800205;217.340168800205;217.340168800205;217.340168800205;217.340168800205;217.340168800205;217.340168800205;217.340168800205;None;0;;C:\2023\REPSWITCH21092023\REPSWITCH_excgange\REPSWITCH_excgange\data/270102_REPSWITCH1_version1_list2_2023-12-04_16h09.51.777_micRespv1l2_recorded\recording_micRespv1l2_2023-12-04_16h13.24.785.wav;220.3683632002212;;None;220.3683632002212;220.3683632002212;220.3683632002212;220.3683632002212;220.3683632002212;220.3683632002212;;;;;;;270102;001;2023-12-04_16h09.51.777;REPSWITCH1_version1_list2;2022.2.4;143.94599220539422;
REPSWITCH1/PICTURE_381.png;fresa;type;darkblue;filler;1;F;2;3;2;1;Stim2_Set1;0;None;44;43;44;0;43;43;43;;;;;;;;;;;;;;;;;;;;;;;220.86842459999025;221.94493650039658;221.94493650039658;221.94493650039658;221.94493650039658;221.94493650039658;221.94493650039658;221.94493650039658;221.94493650039658;['f', 'r', 'e', 's', 'a'];0;fresa;C:\2023\REPSWITCH21092023\REPSWITCH_excgange\REPSWITCH_excgange\data/270102_REPSWITCH1_version1_list2_2023-12-04_16h09.51.777_micRespv1l2_recorded\recording_micRespv1l2_2023-12-04_16h13.29.390.wav;224.97312940005213;;None;224.97312940005213;224.97312940005213;224.97312940005213;224.97312940005213;224.97312940005213;224.97312940005213;[0.8265874995850027, 1.0069806994870305, 1.3675869996659458, 1.5369763993658125, 1.6785338995978236];;;;;;270102;001;2023-12-04_16h09.51.777;REPSWITCH1_version1_list2;2022.2.4;143.94599220539422;
REPSWITCH1/PICTURE_175.png;pintor;speak;gold;nontarget;2;NT;2;3;2;1;Stim1_Set2;1;switch;45;44;45;0;44;44;44;;;;;;;;;;;;;;;;;;;;;;;225.4731874000281;226.53582370001823;226.53582370001823;226.53582370001823;226.53582370001823;226.53582370001823;226.53582370001823;226.53582370001823;226.53582370001823;None;0;;C:\2023\REPSWITCH21092023\REPSWITCH_excgange\REPSWITCH_excgange\data/270102_REPSWITCH1_version1_list2_2023-12-04_16h09.51.777_micRespv1l2_recorded\recording_micRespv1l2_2023-12-04_16h13.33.981.wav;229.56401430023834;;None;229.56401430023834;229.56401430023834;229.56401430023834;229.56401430023834;229.56401430023834;229.56401430023834;;;;;;;270102;001;2023-12-04_16h09.51.777;REPSWITCH1_version1_list2;2022.2.4;143.94599220539422;
REPSWITCH1/PICTURE_175.png;pintor;speak;gold;repeat;2;T;2;3;2;1;Stim1_Set2;0;None;46;45;46;0;45;45;45;;;;;;;;;;;;;;;;;;;;;;;230.06406460003927;231.26561210025102;231.26561210025102;231.26561210025102;231.26561210025102;231.26561210025102;231.26561210025102;231.26561210025102;231.26561210025102;None;0;;C:\2023\REPSWITCH21092023\REPSWITCH_excgange\REPSWITCH_excgange\data/270102_REPSWITCH1_version1_list2_2023-12-04_16h09.51.777_micRespv1l2_recorded\recording_micRespv1l2_2023-12-04_16h13.38.710.wav;234.28686009999365;234.78689420036972;None;234.28686009999365;234.28686009999365;234.28686009999365;234.28686009999365;234.28686009999365;234.28686009999365;;;;;;;270102;001;2023-12-04_16h09.51.777;REPSWITCH1_version1_list2;2022.2.4;143.94599220539422;
REPSWITCH1/PICTURE_178.png;puente;type;darkblue;filler;1;F;2;3;2;1;Stim1_Set1;0;None;47;46;47;0;46;46;46;;;;;;;;;;;;;;;;;;;;;;;234.78689420036972;235.86346580041572;235.86346580041572;235.86346580041572;235.86346580041572;235.86346580041572;235.86346580041572;235.86346580041572;235.86346580041572;['p', 'u', 'e', 'n', 't', 'e'];0;puente;C:\2023\REPSWITCH21092023\REPSWITCH_excgange\REPSWITCH_excgange\data/270102_REPSWITCH1_version1_list2_2023-12-04_16h09.51.777_micRespv1l2_recorded\recording_micRespv1l2_2023-12-04_16h13.43.308.wav;238.89168340014294;;None;238.89168340014294;238.89168340014294;238.89168340014294;238.89168340014294;238.89168340014294;238.89168340014294;[0.8726435997523367, 1.1208134996704757, 1.1786273997277021, 1.3066013995558023, 1.4919273997657, 1.5387662998400629];;;;;;270102;001;2023-12-04_16h09.51.777;REPSWITCH1_version1_list2;2022.2.4;143.94599220539422;
REPSWITCH1/PICTURE_19.png;pavo;speak;gold;filler;2;F;2;3;2;1;Stim5_Set1;0;None;48;47;48;0;47;47;47;;;;;;;;;;;;;;;;;;;;;;;239.39169510034844;240.51690070005134;240.51690070005134;240.51690070005134;240.51690070005134;240.51690070005134;240.51690070005134;240.51690070005134;240.51690070005134;None;0;;C:\2023\REPSWITCH21092023\REPSWITCH_excgange\REPSWITCH_excgange\data/270102_REPSWITCH1_version1_list2_2023-12-04_16h09.51.777_micRespv1l2_recorded\recording_micRespv1l2_2023-12-04_16h13.47.962.wav;243.54511289997026;;None;243.54511289997026;243.54511289997026;243.54511289997026;243.54511289997026;243.54511289997026;243.54511289997026;;;;;;;270102;001;2023-12-04_16h09.51.777;REPSWITCH1_version1_list2;2022.2.4;143.94599220539422;
REPSWITCH1/PICTURE_264.png;mano;speak;gold;nontarget;2;NT;2;3;2;1;Stim3_Set2;1;repeat;49;48;49;0;48;48;48;;;;;;;;;;;;;;;;;;;;;;;244.0450732000172;245.07306320033967;245.07306320033967;245.07306320033967;245.07306320033967;245.07306320033967;245.07306320033967;245.07306320033967;245.07306320033967;None;0;;C:\2023\REPSWITCH21092023\REPSWITCH_excgange\REPSWITCH_excgange\data/270102_REPSWITCH1_version1_list2_2023-12-04_16h09.51.777_micRespv1l2_recorded\recording_micRespv1l2_2023-12-04_16h13.52.518.wav;248.1011730004102;;None;248.1011730004102;248.1011730004102;248.1011730004102;248.1011730004102;248.1011730004102;248.1011730004102;;;;;;;270102;001;2023-12-04_16h09.51.777;REPSWITCH1_version1_list2;2022.2.4;143.94599220539422;
REPSWITCH1/PICTURE_264.png;mano;type;darkblue;switch;1;T;2;3;2;1;Stim3_Set2;0;None;50;49;50;0;49;49;49;;;;;;;;;;;;;;;;;;;;;;;248.60123950010166;249.7541461000219;249.7541461000219;249.7541461000219;249.7541461000219;249.7541461000219;249.7541461000219;249.7541461000219;249.7541461000219;['m', 'a', 'n', 'o'];0;mano;C:\2023\REPSWITCH21092023\REPSWITCH_excgange\REPSWITCH_excgange\data/270102_REPSWITCH1_version1_list2_2023-12-04_16h09.51.777_micRespv1l2_recorded\recording_micRespv1l2_2023-12-04_16h13.57.199.wav;252.782344000414;253.2823931002058;None;252.782344000414;252.782344000414;252.782344000414;252.782344000414;252.782344000414;252.782344000414;[0.858630099799484, 0.9134416999295354, 1.1419362998567522, 1.3861273997463286];;;;;;270102;001;2023-12-04_16h09.51.777;REPSWITCH1_version1_list2;2022.2.4;143.94599220539422;
REPSWITCH1/PICTURE_446.png;cerdo;type;darkblue;filler;1;F;3;3;2;1;Stim7_Set2;0;None;51;50;51;0;50;50;50;;;;;;;;;;;;;;;;;;;;;;;253.2823931002058;254.3519737003371;254.3519737003371;254.3519737003371;254.3519737003371;254.3519737003371;254.3519737003371;254.3519737003371;254.3519737003371;['c', 'e', 'r', 'd', 'o'];0;cerdo;C:\2023\REPSWITCH21092023\REPSWITCH_excgange\REPSWITCH_excgange\data/270102_REPSWITCH1_version1_list2_2023-12-04_16h09.51.777_micRespv1l2_recorded\recording_micRespv1l2_2023-12-04_16h14.01.797.wav;257.37321580015123;257.87332620006055;space;257.37321580015123;257.37321580015123;257.37321580015123;257.37321580015123;257.37321580015123;257.37321580015123;[0.8938901997171342, 0.968623099848628, 1.068293099757284, 1.1739159999415278, 1.4125958997756243];257.87332620006055;257.87332620006055;15.992444299627095;;;270102;001;2023-12-04_16h09.51.777;REPSWITCH1_version1_list2;2022.2.4;143.94599220539422;
REPSWITCH1/PICTURE_235.png;aguja;type;darkblue;nontarget;1;NT;3;3;2;1;Stim4_Set3;1;repeat;52;51;52;0;51;51;51;;;;;;;;;;;;;;;;;;;;;;;273.8753945999779;274.91032220004126;274.91032220004126;274.91032220004126;274.91032220004126;274.91032220004126;274.91032220004126;274.91032220004126;274.91032220004126;['a', 'g', 'u', 'j', 'a'];0;aguja;C:\2023\REPSWITCH21092023\REPSWITCH_excgange\REPSWITCH_excgange\data/270102_REPSWITCH1_version1_list2_2023-12-04_16h09.51.777_micRespv1l2_recorded\recording_micRespv1l2_2023-12-04_16h14.22.355.wav;277.9314564000815;278.4315544003621;None;277.9314564000815;277.9314564000815;277.9314564000815;277.9314564000815;277.9314564000815;277.9314564000815;[1.0003981995396316, 1.1502543995156884, 1.3674886994995177, 1.5469178995117545, 1.6196830994449556];;;;;;270102;001;2023-12-04_16h09.51.777;REPSWITCH1_version1_list2;2022.2.4;143.94599220539422;
REPSWITCH1/PICTURE_235.png;aguja;speak;gold;switch;2;T;3;3;2;1;Stim4_Set3;0;None;53;52;53;0;52;52;52;;;;;;;;;;;;;;;;;;;;;;;278.4315544003621;279.61227719997987;279.61227719997987;279.61227719997987;279.61227719997987;279.61227719997987;279.61227719997987;279.61227719997987;279.61227719997987;None;0;;C:\2023\REPSWITCH21092023\REPSWITCH_excgange\REPSWITCH_excgange\data/270102_REPSWITCH1_version1_list2_2023-12-04_16h09.51.777_micRespv1l2_recorded\recording_micRespv1l2_2023-12-04_16h14.27.057.wav;282.6335124000907;283.13355210004374;None;282.6335124000907;282.6335124000907;282.6335124000907;282.6335124000907;282.6335124000907;282.6335124000907;;;;;;;270102;001;2023-12-04_16h09.51.777;REPSWITCH1_version1_list2;2022.2.4;143.94599220539422;
REPSWITCH1/PICTURE_552.png;manzana;speak;gold;filler;2;F;3;3;2;1;Stim6_Set2;0;None;54;53;54;0;53;53;53;;;;;;;;;;;;;;;;;;;;;;;283.13355210004374;284.30731380032375;284.30731380032375;284.30731380032375;284.30731380032375;284.30731380032375;284.30731380032375;284.30731380032375;284.30731380032375;None;0;;C:\2023\REPSWITCH21092023\REPSWITCH_excgange\REPSWITCH_excgange\data/270102_REPSWITCH1_version1_list2_2023-12-04_16h09.51.777_micRespv1l2_recorded\recording_micRespv1l2_2023-12-04_16h14.31.752.wav;287.3285520002246;287.82861760025844;None;287.3285520002246;287.3285520002246;287.3285520002246;287.3285520002246;287.3285520002246;287.3285520002246;;;;;;;270102;001;2023-12-04_16h09.51.777;REPSWITCH1_version1_list2;2022.2.4;143.94599220539422;
REPSWITCH1/PICTURE_271.png;conejo;speak;gold;nontarget;2;NT;3;3;2;1;Stim7_Set3;1;repeat;55;54;55;0;54;54;54;;;;;;;;;;;;;;;;;;;;;;;287.82861760025844;288.93985120020807;288.93985120020807;288.93985120020807;288.93985120020807;288.93985120020807;288.93985120020807;288.93985120020807;288.93985120020807;None;0;;C:\2023\REPSWITCH21092023\REPSWITCH_excgange\REPSWITCH_excgange\data/270102_REPSWITCH1_version1_list2_2023-12-04_16h09.51.777_micRespv1l2_recorded\recording_micRespv1l2_2023-12-04_16h14.36.385.wav;291.96804890036583;;None;291.96804890036583;291.96804890036583;291.96804890036583;291.96804890036583;291.96804890036583;291.96804890036583;;;;;;;270102;001;2023-12-04_16h09.51.777;REPSWITCH1_version1_list2;2022.2.4;143.94599220539422;
REPSWITCH1/PICTURE_271.png;conejo;type;darkblue;switch;1;T;3;3;2;1;Stim7_Set3;0;None;56;55;56;0;55;55;55;;;;;;;;;;;;;;;;;;;;;;;292.468098200392;293.6488404003903;293.6488404003903;293.6488404003903;293.6488404003903;293.6488404003903;293.6488404003903;293.6488404003903;293.6488404003903;['c', 'o', 'n', 'e', 'j', 'o'];0;conejo;C:\2023\REPSWITCH21092023\REPSWITCH_excgange\REPSWITCH_excgange\data/270102_REPSWITCH1_version1_list2_2023-12-04_16h09.51.777_micRespv1l2_recorded\recording_micRespv1l2_2023-12-04_16h14.41.093.wav;296.67005650000647;297.170191900339;None;296.67005650000647;296.67005650000647;296.67005650000647;296.67005650000647;296.67005650000647;296.67005650000647;[0.7211260995827615, 0.8688170993700624, 1.1552069992758334, 1.2748133996501565, 1.3755160993896425, 1.5473176995292306];;;;;;270102;001;2023-12-04_16h09.51.777;REPSWITCH1_version1_list2;2022.2.4;143.94599220539422;
REPSWITCH1/PICTURE_610.png;miel;type;darkblue;nontarget;1;NT;3;3;2;1;Stim2_Set3;1;repeat;57;56;57;0;56;56;56;;;;;;;;;;;;;;;;;;;;;;;297.170191900339;298.2744525000453;298.2744525000453;298.2744525000453;298.2744525000453;298.2744525000453;298.2744525000453;298.2744525000453;298.2744525000453;['m', 'i', 'e', 'l'];0;miel;C:\2023\REPSWITCH21092023\REPSWITCH_excgange\REPSWITCH_excgange\data/270102_REPSWITCH1_version1_list2_2023-12-04_16h09.51.777_micRespv1l2_recorded\recording_micRespv1l2_2023-12-04_16h14.45.719.wav;301.3026736001484;;None;301.3026736001484;301.3026736001484;301.3026736001484;301.3026736001484;301.3026736001484;301.3026736001484;[0.8168659997172654, 0.990204599685967, 1.1058125994168222, 1.2296219994314015];;;;;;270102;001;2023-12-04_16h09.51.777;REPSWITCH1_version1_list2;2022.2.4;143.94599220539422;
REPSWITCH1/PICTURE_610.png;miel;speak;gold;switch;2;T;3;3;2;1;Stim2_Set3;0;None;58;57;58;0;57;57;57;;;;;;;;;;;;;;;;;;;;;;;301.80265119997784;302.95558880036697;302.95558880036697;302.95558880036697;302.95558880036697;302.95558880036697;302.95558880036697;302.95558880036697;302.95558880036697;None;0;;C:\2023\REPSWITCH21092023\REPSWITCH_excgange\REPSWITCH_excgange\data/270102_REPSWITCH1_version1_list2_2023-12-04_16h09.51.777_micRespv1l2_recorded\recording_micRespv1l2_2023-12-04_16h14.50.401.wav;305.98374000005424;;None;305.98374000005424;305.98374000005424;305.98374000005424;305.98374000005424;305.98374000005424;305.98374000005424;;;;;;;270102;001;2023-12-04_16h09.51.777;REPSWITCH1_version1_list2;2022.2.4;143.94599220539422;
REPSWITCH1/PICTURE_199.png;falda;type;darkblue;filler;1;F;3;3;2;1;Stim8_Set2;0;None;59;58;59;0;58;58;58;;;;;;;;;;;;;;;;;;;;;;;306.48381939996034;307.5882286000997;307.5882286000997;307.5882286000997;307.5882286000997;307.5882286000997;307.5882286000997;307.5882286000997;307.5882286000997;['f', 'a', 'l', 'd', 'a'];0;falda;C:\2023\REPSWITCH21092023\REPSWITCH_excgange\REPSWITCH_excgange\data/270102_REPSWITCH1_version1_list2_2023-12-04_16h09.51.777_micRespv1l2_recorded\recording_micRespv1l2_2023-12-04_16h14.55.033.wav;310.6093787001446;311.1094526001252;None;310.6093787001446;310.6093787001446;310.6093787001446;310.6093787001446;310.6093787001446;310.6093787001446;[0.7144760997034609, 0.7932374998927116, 0.9955698000267148, 1.118951499927789, 1.2794073997065425];;;;;;270102;001;2023-12-04_16h09.51.777;REPSWITCH1_version1_list2;2022.2.4;143.94599220539422;
REPSWITCH1/PICTURE_464.png;goma;speak;gold;nontarget;2;NT;3;3;2;1;Stim6_Set3;1;switch;60;59;60;0;59;59;59;;;;;;;;;;;;;;;;;;;;;;;311.1094526001252;312.1304804002866;312.1304804002866;312.1304804002866;312.1304804002866;312.1304804002866;312.1304804002866;312.1304804002866;312.1304804002866;None;0;;C:\2023\REPSWITCH21092023\REPSWITCH_excgange\REPSWITCH_excgange\data/270102_REPSWITCH1_version1_list2_2023-12-04_16h09.51.777_micRespv1l2_recorded\recording_micRespv1l2_2023-12-04_16h14.59.574.wav;315.1516567002982;315.6516813002527;None;315.1516567002982;315.1516567002982;315.1516567002982;315.1516567002982;315.1516567002982;315.1516567002982;;;;;;;270102;001;2023-12-04_16h09.51.777;REPSWITCH1_version1_list2;2022.2.4;143.94599220539422;
REPSWITCH1/PICTURE_464.png;goma;speak;gold;repeat;2;T;3;3;2;1;Stim6_Set3;0;None;61;60;61;0;60;60;60;;;;;;;;;;;;;;;;;;;;;;;315.6516813002527;316.693518999964;316.693518999964;316.693518999964;316.693518999964;316.693518999964;316.693518999964;316.693518999964;316.693518999964;None;0;;C:\2023\REPSWITCH21092023\REPSWITCH_excgange\REPSWITCH_excgange\data/270102_REPSWITCH1_version1_list2_2023-12-04_16h09.51.777_micRespv1l2_recorded\recording_micRespv1l2_2023-12-04_16h15.04.137.wav;319.71472869999707;320.2148611000739;None;319.71472869999707;319.71472869999707;319.71472869999707;319.71472869999707;319.71472869999707;319.71472869999707;;;;;;;270102;001;2023-12-04_16h09.51.777;REPSWITCH1_version1_list2;2022.2.4;143.94599220539422;
REPSWITCH1/PICTURE_152.png;caracol;type;darkblue;filler;1;F;3;3;2;1;Stim2_Set2;0;None;62;61;62;0;61;61;61;;;;;;;;;;;;;;;;;;;;;;;320.2148611000739;321.27058650041;321.27058650041;321.27058650041;321.27058650041;321.27058650041;321.27058650041;321.27058650041;321.27058650041;['c', 'a', 'r', 'a', 'c', 'o', 'l'];0;caracol;C:\2023\REPSWITCH21092023\REPSWITCH_excgange\REPSWITCH_excgange\data/270102_REPSWITCH1_version1_list2_2023-12-04_16h09.51.777_micRespv1l2_recorded\recording_micRespv1l2_2023-12-04_16h15.08.715.wav;324.2917380002327;324.7917841002345;None;324.2917380002327;324.2917380002327;324.2917380002327;324.2917380002327;324.2917380002327;324.2917380002327;[0.85985739948228, 1.062160199508071, 1.1493045995011926, 1.8998001995496452, 2.0323561998084188, 2.318398999515921, 2.5316784996539354];;;;;;270102;001;2023-12-04_16h09.51.777;REPSWITCH1_version1_list2;2022.2.4;143.94599220539422;
REPSWITCH1/PICTURE_320.png;iglesia;speak;gold;nontarget;2;NT;3;3;2;1;Stim8_Set3;1;switch;63;62;63;0;62;62;62;;;;;;;;;;;;;;;;;;;;;;;324.7917841002345;326.0073161004111;326.0073161004111;326.0073161004111;326.0073161004111;326.0073161004111;326.0073161004111;326.0073161004111;326.0073161004111;None;0;;C:\2023\REPSWITCH21092023\REPSWITCH_excgange\REPSWITCH_excgange\data/270102_REPSWITCH1_version1_list2_2023-12-04_16h09.51.777_micRespv1l2_recorded\recording_micRespv1l2_2023-12-04_16h15.13.452.wav;329.02844300027937;329.5286077000201;None;329.02844300027937;329.02844300027937;329.02844300027937;329.02844300027937;329.02844300027937;329.02844300027937;;;;;;;270102;001;2023-12-04_16h09.51.777;REPSWITCH1_version1_list2;2022.2.4;143.94599220539422;
REPSWITCH1/PICTURE_320.png;iglesia;speak;gold;repeat;2;T;3;3;2;1;Stim8_Set3;0;None;64;63;64;0;63;63;63;;;;;;;;;;;;;;;;;;;;;;;329.5286077000201;330.6398153002374;330.6398153002374;330.6398153002374;330.6398153002374;330.6398153002374;330.6398153002374;330.6398153002374;330.6398153002374;None;0;;C:\2023\REPSWITCH21092023\REPSWITCH_excgange\REPSWITCH_excgange\data/270102_REPSWITCH1_version1_list2_2023-12-04_16h09.51.777_micRespv1l2_recorded\recording_micRespv1l2_2023-12-04_16h15.18.083.wav;333.6610316000879;334.1611670004204;None;333.6610316000879;333.6610316000879;333.6610316000879;333.6610316000879;333.6610316000879;333.6610316000879;;;;;;;270102;001;2023-12-04_16h09.51.777;REPSWITCH1_version1_list2;2022.2.4;143.94599220539422;
REPSWITCH1/PICTURE_35.png;oreja;speak;gold;nontarget;2;NT;3;3;2;1;Stim5_Set3;0;None;65;64;65;0;64;64;64;;;;;;;;;;;;;;;;;;;;;;;334.1611670004204;335.25846960023046;335.25846960023046;335.25846960023046;335.25846960023046;335.25846960023046;335.25846960023046;335.25846960023046;335.25846960023046;None;0;;C:\2023\REPSWITCH21092023\REPSWITCH_excgange\REPSWITCH_excgange\data/270102_REPSWITCH1_version1_list2_2023-12-04_16h09.51.777_micRespv1l2_recorded\recording_micRespv1l2_2023-12-04_16h15.22.703.wav;338.2796565000899;338.77973410021514;None;338.2796565000899;338.2796565000899;338.2796565000899;338.2796565000899;338.2796565000899;338.2796565000899;;;;;;;270102;001;2023-12-04_16h09.51.777;REPSWITCH1_version1_list2;2022.2.4;143.94599220539422;
REPSWITCH1/PICTURE_35.png;oreja;type;darkblue;switch;1;T;3;3;2;1;Stim5_Set3;0;None;66;65;66;0;65;65;65;;;;;;;;;;;;;;;;;;;;;;;338.77973410021514;339.87016910035163;339.87016910035163;339.87016910035163;339.87016910035163;339.87016910035163;339.87016910035163;339.87016910035163;339.87016910035163;['o', 'r', 'e', 'j', 'a'];0;oreja;C:\2023\REPSWITCH21092023\REPSWITCH_excgange\REPSWITCH_excgange\data/270102_REPSWITCH1_version1_list2_2023-12-04_16h09.51.777_micRespv1l2_recorded\recording_micRespv1l2_2023-12-04_16h15.27.315.wav;342.898360399995;;None;342.898360399995;342.898360399995;342.898360399995;342.898360399995;342.898360399995;342.898360399995;[1.0395757998339832, 1.2163109998218715, 1.399104899726808, 1.4816240998916328, 1.5819897996261716];;;;;;270102;001;2023-12-04_16h09.51.777;REPSWITCH1_version1_list2;2022.2.4;143.94599220539422;
REPSWITCH1/PICTURE_517.png;cuerda;speak;gold;filler;2;F;3;3;2;1;Stim4_Set2;0;None;67;66;67;0;66;66;66;;;;;;;;;;;;;;;;;;;;;;;343.398425700143;344.50279310019687;344.50279310019687;344.50279310019687;344.50279310019687;344.50279310019687;344.50279310019687;344.50279310019687;344.50279310019687;None;0;;C:\2023\REPSWITCH21092023\REPSWITCH_excgange\REPSWITCH_excgange\data/270102_REPSWITCH1_version1_list2_2023-12-04_16h09.51.777_micRespv1l2_recorded\recording_micRespv1l2_2023-12-04_16h15.31.947.wav;347.5308834002353;;None;347.5308834002353;347.5308834002353;347.5308834002353;347.5308834002353;347.5308834002353;347.5308834002353;;;;;;;270102;001;2023-12-04_16h09.51.777;REPSWITCH1_version1_list2;2022.2.4;143.94599220539422;
REPSWITCH1/PICTURE_30.png;granja;type;darkblue;filler;1;F;3;3;2;1;Stim5_Set2;1;switch;68;67;68;0;67;67;67;;;;;;;;;;;;;;;;;;;;;;;348.0309866000898;349.16310690017417;349.16310690017417;349.16310690017417;349.16310690017417;349.16310690017417;349.16310690017417;349.16310690017417;349.16310690017417;['g', 'r', 'a', 'n', 'j', 'a'];0;granja;C:\2023\REPSWITCH21092023\REPSWITCH_excgange\REPSWITCH_excgange\data/270102_REPSWITCH1_version1_list2_2023-12-04_16h09.51.777_micRespv1l2_recorded\recording_micRespv1l2_2023-12-04_16h15.36.609.wav;352.19124740036204;;None;352.19124740036204;352.19124740036204;352.19124740036204;352.19124740036204;352.19124740036204;352.19124740036204;[0.802524899598211, 0.9767538993619382, 1.0485902996733785, 1.245795399416238, 1.3985883994027972, 1.492416899651289];;;;;;270102;001;2023-12-04_16h09.51.777;REPSWITCH1_version1_list2;2022.2.4;143.94599220539422;
REPSWITCH1/PICTURE_242.png;cartero;type;darkblue;nontarget;1;NT;3;3;2;1;Stim3_Set3;0;None;69;68;69;0;68;68;68;;;;;;;;;;;;;;;;;;;;;;;352.6913092001341;353.85121079999954;353.85121079999954;353.85121079999954;353.85121079999954;353.85121079999954;353.85121079999954;353.85121079999954;353.85121079999954;['c', 'a', 'r', 't', 'e', 'r', 'r', 'o'];0;carterro;C:\2023\REPSWITCH21092023\REPSWITCH_excgange\REPSWITCH_excgange\data/270102_REPSWITCH1_version1_list2_2023-12-04_16h09.51.777_micRespv1l2_recorded\recording_micRespv1l2_2023-12-04_16h15.41.297.wav;356.8793729003519;357.37942730030045;None;356.8793729003519;356.8793729003519;356.8793729003519;356.8793729003519;356.8793729003519;356.8793729003519;[0.8962619993835688, 0.9600750994868577, 1.1135383998043835, 1.2629318996332586, 1.335678699426353, 1.5500447996892035, 1.6186416996642947, 1.7392744994722307];;;;;;270102;001;2023-12-04_16h09.51.777;REPSWITCH1_version1_list2;2022.2.4;143.94599220539422;
REPSWITCH1/PICTURE_242.png;cartero;type;darkblue;repeat;1;T;3;3;2;1;Stim3_Set3;0;None;70;69;70;0;69;69;69;;;;;;;;;;;;;;;;;;;;;;;357.37942730030045;358.4976925002411;358.4976925002411;358.4976925002411;358.4976925002411;358.4976925002411;358.4976925002411;358.4976925002411;358.4976925002411;['c', 'a', 'r', 't', 'e', 'r', 'o'];0;cartero;C:\2023\REPSWITCH21092023\REPSWITCH_excgange\REPSWITCH_excgange\data/270102_REPSWITCH1_version1_list2_2023-12-04_16h09.51.777_micRespv1l2_recorded\recording_micRespv1l2_2023-12-04_16h15.45.942.wav;361.525785300415;;None;361.525785300415;361.525785300415;361.525785300415;361.525785300415;361.525785300415;361.525785300415;[0.7234781994484365, 0.7842646995559335, 0.9148303996771574, 1.0588676994666457, 1.1415847996249795, 1.3262969995848835, 1.4722086996771395];;;;;;270102;001;2023-12-04_16h09.51.777;REPSWITCH1_version1_list2;2022.2.4;143.94599220539422;
REPSWITCH1/PICTURE_264.png;mano;speak;gold;filler;2;F;3;3;2;1;Stim3_Set2;1;switch;71;70;71;0;70;70;70;;;;;;;;;;;;;;;;;;;;;;;362.0258464002982;363.1440607002005;363.1440607002005;363.1440607002005;363.1440607002005;363.1440607002005;363.1440607002005;363.1440607002005;363.1440607002005;None;0;;C:\2023\REPSWITCH21092023\REPSWITCH_excgange\REPSWITCH_excgange\data/270102_REPSWITCH1_version1_list2_2023-12-04_16h09.51.777_micRespv1l2_recorded\recording_micRespv1l2_2023-12-04_16h15.50.588.wav;366.17225400032476;;None;366.17225400032476;366.17225400032476;366.17225400032476;366.17225400032476;366.17225400032476;366.17225400032476;;;;;;;270102;001;2023-12-04_16h09.51.777;REPSWITCH1_version1_list2;2022.2.4;143.94599220539422;
REPSWITCH1/PICTURE_576.png;guante;type;darkblue;nontarget;1;NT;3;3;2;1;Stim1_Set3;1;switch;72;71;72;0;71;71;71;;;;;;;;;;;;;;;;;;;;;;;366.6723132999614;367.7836286001839;367.7836286001839;367.7836286001839;367.7836286001839;367.7836286001839;367.7836286001839;367.7836286001839;367.7836286001839;['g', 'u', 'a', 'n', 't', 'e'];0;guante;C:\2023\REPSWITCH21092023\REPSWITCH_excgange\REPSWITCH_excgange\data/270102_REPSWITCH1_version1_list2_2023-12-04_16h09.51.777_micRespv1l2_recorded\recording_micRespv1l2_2023-12-04_16h15.55.228.wav;370.804768900387;371.30484570004046;None;370.804768900387;370.804768900387;370.804768900387;370.804768900387;370.804768900387;370.804768900387;[1.0440985998138785, 1.1606845995411277, 1.2653287998400629, 1.3998994999565184, 1.5932344999164343, 1.6779473996721208];;;;;;270102;001;2023-12-04_16h09.51.777;REPSWITCH1_version1_list2;2022.2.4;143.94599220539422;
REPSWITCH1/PICTURE_576.png;guante;type;darkblue;repeat;1;T;3;3;2;1;Stim1_Set3;0;None;73;72;73;0;72;72;72;;;;;;;;;;;;;;;;;;;;;;;371.30484570004046;372.3397780000232;372.3397780000232;372.3397780000232;372.3397780000232;372.3397780000232;372.3397780000232;372.3397780000232;372.3397780000232;['g', 'u', 'a', 'n', 't', 'e'];0;guante;C:\2023\REPSWITCH21092023\REPSWITCH_excgange\REPSWITCH_excgange\data/270102_REPSWITCH1_version1_list2_2023-12-04_16h09.51.777_micRespv1l2_recorded\recording_micRespv1l2_2023-12-04_16h15.59.784.wav;375.3678823001683;;None;375.3678823001683;375.3678823001683;375.3678823001683;375.3678823001683;375.3678823001683;375.3678823001683;[0.8988983994349837, 1.205508899409324, 1.413115999661386, 1.4937097993679345, 1.7279325993731618, 1.826079599559307];;;;;;270102;001;2023-12-04_16h09.51.777;REPSWITCH1_version1_list2;2022.2.4;143.94599220539422;
REPSWITCH1/PICTURE_175.png;pintor;speak;gold;filler;2;F;3;3;2;1;Stim1_Set2;0;None;74;73;74;0;73;73;73;;;;;;;;;;;;;;;;;;;;;;;375.86797350039706;376.9792825002223;376.9792825002223;376.9792825002223;376.9792825002223;376.9792825002223;376.9792825002223;376.9792825002223;376.9792825002223;None;0;;C:\2023\REPSWITCH21092023\REPSWITCH_excgange\REPSWITCH_excgange\data/270102_REPSWITCH1_version1_list2_2023-12-04_16h09.51.777_micRespv1l2_recorded\recording_micRespv1l2_2023-12-04_16h16.04.424.wav;380.00046460004523;380.50048590032384;None;380.00046460004523;380.00046460004523;380.00046460004523;380.00046460004523;380.00046460004523;380.00046460004523;;;;;;;270102;001;2023-12-04_16h09.51.777;REPSWITCH1_version1_list2;2022.2.4;143.94599220539422;
REPSWITCH1/PICTURE_498.png;taza;type;darkblue;nontarget;1;NT;4;3;2;1;Stim4_Set4;0;None;75;74;75;0;74;74;74;;;;;;;;;;;;;;;;;;;;;;;380.50048590032384;381.59790370007977;381.59790370007977;381.59790370007977;381.59790370007977;381.59790370007977;381.59790370007977;381.59790370007977;381.59790370007977;['t', 'a', 'z', 'a'];0;taza;C:\2023\REPSWITCH21092023\REPSWITCH_excgange\REPSWITCH_excgange\data/270102_REPSWITCH1_version1_list2_2023-12-04_16h09.51.777_micRespv1l2_recorded\recording_micRespv1l2_2023-12-04_16h16.09.042.wav;384.61913050012663;385.1191940000281;None;384.61913050012663;384.61913050012663;384.61913050012663;384.61913050012663;384.61913050012663;384.61913050012663;[0.8635801998898387, 0.9273604997433722, 1.197462999727577, 1.3340061996132135];;;;;;270102;001;2023-12-04_16h09.51.777;REPSWITCH1_version1_list2;2022.2.4;143.94599220539422;
REPSWITCH1/PICTURE_498.png;taza;type;darkblue;repeat;1;T;4;3;2;1;Stim4_Set4;0;None;76;75;76;0;75;75;75;;;;;;;;;;;;;;;;;;;;;;;385.1191940000281;386.2166014001705;386.2166014001705;386.2166014001705;386.2166014001705;386.2166014001705;386.2166014001705;386.2166014001705;386.2166014001705;['t', 'a', 'z', 'a'];0;taza;C:\2023\REPSWITCH21092023\REPSWITCH_excgange\REPSWITCH_excgange\data/270102_REPSWITCH1_version1_list2_2023-12-04_16h09.51.777_micRespv1l2_recorded\recording_micRespv1l2_2023-12-04_16h16.13.661.wav;389.2377610001713;389.73783570015803;None;389.2377610001713;389.2377610001713;389.2377610001713;389.2377610001713;389.2377610001713;389.2377610001713;[0.8669757996685803, 0.9470872995443642, 1.0943813994526863, 1.226938999723643];;;;;;270102;001;2023-12-04_16h09.51.777;REPSWITCH1_version1_list2;2022.2.4;143.94599220539422;
REPSWITCH1/PICTURE_235.png;aguja;speak;gold;filler;2;F;4;3;2;1;Stim4_Set3;0;None;77;76;77;0;76;76;76;;;;;;;;;;;;;;;;;;;;;;;389.73783570015803;390.8421662002802;390.8421662002802;390.8421662002802;390.8421662002802;390.8421662002802;390.8421662002802;390.8421662002802;390.8421662002802;None;0;;C:\2023\REPSWITCH21092023\REPSWITCH_excgange\REPSWITCH_excgange\data/270102_REPSWITCH1_version1_list2_2023-12-04_16h09.51.777_micRespv1l2_recorded\recording_micRespv1l2_2023-12-04_16h16.18.287.wav;393.8633810002357;394.3635279000737;None;393.8633810002357;393.8633810002357;393.8633810002357;393.8633810002357;393.8633810002357;393.8633810002357;;;;;;;270102;001;2023-12-04_16h09.51.777;REPSWITCH1_version1_list2;2022.2.4;143.94599220539422;
REPSWITCH1/PICTURE_338.png;regalo;type;darkblue;nontarget;1;NT;4;3;2;1;Stim6_Set4;1;switch;78;77;78;0;77;77;77;;;;;;;;;;;;;;;;;;;;;;;394.3635279000737;395.5858633001335;395.5858633001335;395.5858633001335;395.5858633001335;395.5858633001335;395.5858633001335;395.5858633001335;395.5858633001335;['r', 'e', 'g', 'a', 'l', 'o'];0;regalo;C:\2023\REPSWITCH21092023\REPSWITCH_excgange\REPSWITCH_excgange\data/270102_REPSWITCH1_version1_list2_2023-12-04_16h09.51.777_micRespv1l2_recorded\recording_micRespv1l2_2023-12-04_16h16.23.030.wav;398.6070892000571;399.1071337000467;None;398.6070892000571;398.6070892000571;398.6070892000571;398.6070892000571;398.6070892000571;398.6070892000571;[0.8418246996589005, 0.8937402996234596, 1.0431752996519208, 1.1607700996100903, 1.3302170992828906, 1.4886780995875597];;;;;;270102;001;2023-12-04_16h09.51.777;REPSWITCH1_version1_list2;2022.2.4;143.94599220539422;
REPSWITCH1/PICTURE_338.png;regalo;speak;gold;switch;2;T;4;3;2;1;Stim6_Set4;0;None;79;78;79;0;78;78;78;;;;;;;;;;;;;;;;;;;;;;;399.1071337000467;400.1559546003118;400.1559546003118;400.1559546003118;400.1559546003118;400.1559546003118;400.1559546003118;400.1559546003118;400.1559546003118;None;0;;C:\2023\REPSWITCH21092023\REPSWITCH_excgange\REPSWITCH_excgange\data/270102_REPSWITCH1_version1_list2_2023-12-04_16h09.51.777_micRespv1l2_recorded\recording_micRespv1l2_2023-12-04_16h16.27.600.wav;403.1771903000772;403.67716840002686;None;403.1771903000772;403.1771903000772;403.1771903000772;403.1771903000772;403.1771903000772;403.1771903000772;;;;;;;270102;001;2023-12-04_16h09.51.777;REPSWITCH1_version1_list2;2022.2.4;143.94599220539422;
REPSWITCH1/PICTURE_719.png;baño;speak;gold;nontarget;2;NT;4;3;2;1;Stim2_Set4;1;repeat;80;79;80;0;79;79;79;;;;;;;;;;;;;;;;;;;;;;;403.67716840002686;404.7814700002782;404.7814700002782;404.7814700002782;404.7814700002782;404.7814700002782;404.7814700002782;404.7814700002782;404.7814700002782;None;0;;C:\2023\REPSWITCH21092023\REPSWITCH_excgange\REPSWITCH_excgange\data/270102_REPSWITCH1_version1_list2_2023-12-04_16h09.51.777_micRespv1l2_recorded\recording_micRespv1l2_2023-12-04_16h16.32.227.wav;407.80964280012995;;None;407.80964280012995;407.80964280012995;407.80964280012995;407.80964280012995;407.80964280012995;407.80964280012995;;;;;;;270102;001;2023-12-04_16h09.51.777;REPSWITCH1_version1_list2;2022.2.4;143.94599220539422;
REPSWITCH1/PICTURE_719.png;baño;speak;gold;repeat;2;T;4;3;2;1;Stim2_Set4;0;None;81;80;81;0;80;80;80;;;;;;;;;;;;;;;;;;;;;;;408.30971040017903;409.45571300014853;409.45571300014853;409.45571300014853;409.45571300014853;409.45571300014853;409.45571300014853;409.45571300014853;409.45571300014853;None;0;;C:\2023\REPSWITCH21092023\REPSWITCH_excgange\REPSWITCH_excgange\data/270102_REPSWITCH1_version1_list2_2023-12-04_16h09.51.777_micRespv1l2_recorded\recording_micRespv1l2_2023-12-04_16h16.36.900.wav;412.48387200012803;;None;412.48387200012803;412.48387200012803;412.48387200012803;412.48387200012803;412.48387200012803;412.48387200012803;;;;;;;270102;001;2023-12-04_16h09.51.777;REPSWITCH1_version1_list2;2022.2.4;143.94599220539422;
REPSWITCH1/PICTURE_271.png;conejo;type;darkblue;filler;1;F;4;3;2;1;Stim7_Set3;0;None;82;81;82;0;81;81;81;;;;;;;;;;;;;;;;;;;;;;;412.98396009998396;414.0049213003367;414.0049213003367;414.0049213003367;414.0049213003367;414.0049213003367;414.0049213003367;414.0049213003367;414.0049213003367;['c', 'o', 'n', 'e', 'j', 'o'];0;conejo;C:\2023\REPSWITCH21092023\REPSWITCH_excgange\REPSWITCH_excgange\data/270102_REPSWITCH1_version1_list2_2023-12-04_16h09.51.777_micRespv1l2_recorded\recording_micRespv1l2_2023-12-04_16h16.41.449.wav;417.03310750005767;417.53316970029846;None;417.03310750005767;417.03310750005767;417.03310750005767;417.03310750005767;417.03310750005767;417.03310750005767;[0.8685706998221576, 0.9540209998376667, 1.21973259979859, 1.3144102995283902, 1.4801244996488094, 1.6744738998822868];;;;;;270102;001;2023-12-04_16h09.51.777;REPSWITCH1_version1_list2;2022.2.4;143.94599220539422;
REPSWITCH1/PICTURE_610.png;miel;speak;gold;filler;2;F;4;3;2;1;Stim2_Set3;0;None;83;82;83;0;82;82;82;;;;;;;;;;;;;;;;;;;;;;;417.53316970029846;418.58191190008074;418.58191190008074;418.58191190008074;418.58191190008074;418.58191190008074;418.58191190008074;418.58191190008074;418.58191190008074;None;0;;C:\2023\REPSWITCH21092023\REPSWITCH_excgange\REPSWITCH_excgange\data/270102_REPSWITCH1_version1_list2_2023-12-04_16h09.51.777_micRespv1l2_recorded\recording_micRespv1l2_2023-12-04_16h16.46.026.wav;421.6100627002306;;None;421.6100627002306;421.6100627002306;421.6100627002306;421.6100627002306;421.6100627002306;421.6100627002306;;;;;;;270102;001;2023-12-04_16h09.51.777;REPSWITCH1_version1_list2;2022.2.4;143.94599220539422;
REPSWITCH1/PICTURE_687.png;camisa;speak;gold;nontarget;2;NT;4;3;2;1;Stim5_Set4;1;repeat;84;83;84;0;83;83;83;;;;;;;;;;;;;;;;;;;;;;;422.1101987999864;423.29093250026926;423.29093250026926;423.29093250026926;423.29093250026926;423.29093250026926;423.29093250026926;423.29093250026926;423.29093250026926;None;0;;C:\2023\REPSWITCH21092023\REPSWITCH_excgange\REPSWITCH_excgange\data/270102_REPSWITCH1_version1_list2_2023-12-04_16h09.51.777_micRespv1l2_recorded\recording_micRespv1l2_2023-12-04_16h16.50.736.wav;426.31906410027295;426.81909999996424;None;426.31906410027295;426.31906410027295;426.31906410027295;426.31906410027295;426.31906410027295;426.31906410027295;;;;;;;270102;001;2023-12-04_16h09.51.777;REPSWITCH1_version1_list2;2022.2.4;143.94599220539422;
REPSWITCH1/PICTURE_687.png;camisa;type;darkblue;switch;1;T;4;3;2;1;Stim5_Set4;0;None;85;84;85;0;84;84;84;;;;;;;;;;;;;;;;;;;;;;;426.81909999996424;427.9165062000975;427.9165062000975;427.9165062000975;427.9165062000975;427.9165062000975;427.9165062000975;427.9165062000975;427.9165062000975;['c', 'a', 'm', 'i', 's', 'a'];0;camisa;C:\2023\REPSWITCH21092023\REPSWITCH_excgange\REPSWITCH_excgange\data/270102_REPSWITCH1_version1_list2_2023-12-04_16h09.51.777_micRespv1l2_recorded\recording_micRespv1l2_2023-12-04_16h16.55.360.wav;430.94464160036296;;None;430.94464160036296;430.94464160036296;430.94464160036296;430.94464160036296;430.94464160036296;430.94464160036296;[0.9651427995413542, 1.1435333993285894, 1.2342271995730698, 1.4265861995518208, 1.4893665993586183, 1.5840738993138075];;;;;;270102;001;2023-12-04_16h09.51.777;REPSWITCH1_version1_list2;2022.2.4;143.94599220539422;
REPSWITCH1/PICTURE_319.png;vaca;type;darkblue;nontarget;1;NT;4;3;2;1;Stim1_Set4;0;None;86;85;86;0;85;85;85;;;;;;;;;;;;;;;;;;;;;;;431.444700000342;432.5282232002355;432.5282232002355;432.5282232002355;432.5282232002355;432.5282232002355;432.5282232002355;432.5282232002355;432.5282232002355;['v', 'a', 'c', 'a'];0;vaca;C:\2023\REPSWITCH21092023\REPSWITCH_excgange\REPSWITCH_excgange\data/270102_REPSWITCH1_version1_list2_2023-12-04_16h09.51.777_micRespv1l2_recorded\recording_micRespv1l2_2023-12-04_16h16.59.973.wav;435.55637520039454;;None;435.55637520039454;435.55637520039454;435.55637520039454;435.55637520039454;435.55637520039454;435.55637520039454;[0.7598034995608032, 0.8056144998408854, 1.0129343997687101, 1.0568045997060835];;;;;;270102;001;2023-12-04_16h09.51.777;REPSWITCH1_version1_list2;2022.2.4;143.94599220539422;
REPSWITCH1/PICTURE_319.png;vaca;speak;gold;switch;2;T;4;3;2;1;Stim1_Set4;0;None;87;86;87;0;86;86;86;;;;;;;;;;;;;;;;;;;;;;;436.0565120000392;437.10517920041457;437.10517920041457;437.10517920041457;437.10517920041457;437.10517920041457;437.10517920041457;437.10517920041457;437.10517920041457;None;0;;C:\2023\REPSWITCH21092023\REPSWITCH_excgange\REPSWITCH_excgange\data/270102_REPSWITCH1_version1_list2_2023-12-04_16h09.51.777_micRespv1l2_recorded\recording_micRespv1l2_2023-12-04_16h17.04.550.wav;440.1333660003729;;None;440.1333660003729;440.1333660003729;440.1333660003729;440.1333660003729;440.1333660003729;440.1333660003729;;;;;;;270102;001;2023-12-04_16h09.51.777;REPSWITCH1_version1_list2;2022.2.4;143.94599220539422;
REPSWITCH1/PICTURE_464.png;goma;type;darkblue;filler;1;F;4;3;2;1;Stim6_Set3;1;switch;88;87;88;0;87;87;87;;;;;;;;;;;;;;;;;;;;;;;440.6334596001543;441.7586700003594;441.7586700003594;441.7586700003594;441.7586700003594;441.7586700003594;441.7586700003594;441.7586700003594;441.7586700003594;['g', 'o', 'a', 'backspace', 'm', 'a'];0;goma;C:\2023\REPSWITCH21092023\REPSWITCH_excgange\REPSWITCH_excgange\data/270102_REPSWITCH1_version1_list2_2023-12-04_16h09.51.777_micRespv1l2_recorded\recording_micRespv1l2_2023-12-04_16h17.09.203.wav;444.7797870002687;445.2798707000911;None;444.7797870002687;444.7797870002687;444.7797870002687;444.7797870002687;444.7797870002687;444.7797870002687;[0.8425619998015463, 0.9109845994971693, 1.1421216996386647, 1.7538849995471537, 2.0910767996683717, 2.1488982997834682];;;;;;270102;001;2023-12-04_16h09.51.777;REPSWITCH1_version1_list2;2022.2.4;143.94599220539422;
REPSWITCH1/PICTURE_728.png;pulpo;speak;gold;nontarget;2;NT;4;3;2;1;Stim8_Set4;1;switch;89;88;89;0;88;88;88;;;;;;;;;;;;;;;;;;;;;;;445.2798707000911;446.37725130002946;446.37725130002946;446.37725130002946;446.37725130002946;446.37725130002946;446.37725130002946;446.37725130002946;446.37725130002946;None;0;;C:\2023\REPSWITCH21092023\REPSWITCH_excgange\REPSWITCH_excgange\data/270102_REPSWITCH1_version1_list2_2023-12-04_16h09.51.777_micRespv1l2_recorded\recording_micRespv1l2_2023-12-04_16h17.13.823.wav;449.4054127000272;;None;449.4054127000272;449.4054127000272;449.4054127000272;449.4054127000272;449.4054127000272;449.4054127000272;;;;;;;270102;001;2023-12-04_16h09.51.777;REPSWITCH1_version1_list2;2022.2.4;143.94599220539422;
REPSWITCH1/PICTURE_728.png;pulpo;speak;gold;repeat;2;T;4;3;2;1;Stim8_Set4;0;None;90;89;90;0;89;89;89;;;;;;;;;;;;;;;;;;;;;;;449.90548360021785;450.92644629999995;450.92644629999995;450.92644629999995;450.92644629999995;450.92644629999995;450.92644629999995;450.92644629999995;450.92644629999995;None;0;;C:\2023\REPSWITCH21092023\REPSWITCH_excgange\REPSWITCH_excgange\data/270102_REPSWITCH1_version1_list2_2023-12-04_16h09.51.777_micRespv1l2_recorded\recording_micRespv1l2_2023-12-04_16h17.18.372.wav;453.95459340000525;;None;453.95459340000525;453.95459340000525;453.95459340000525;453.95459340000525;453.95459340000525;453.95459340000525;;;;;;;270102;001;2023-12-04_16h09.51.777;REPSWITCH1_version1_list2;2022.2.4;143.94599220539422;
REPSWITCH1/PICTURE_320.png;iglesia;type;darkblue;filler;1;F;4;3;2;1;Stim8_Set3;0;None;91;90;91;0;90;90;90;;;;;;;;;;;;;;;;;;;;;;;454.45466460008174;455.5451244004071;455.5451244004071;455.5451244004071;455.5451244004071;455.5451244004071;455.5451244004071;455.5451244004071;455.5451244004071;['i', 'g', 'l', 'e', 's', 'i', 'a'];0;iglesia;C:\2023\REPSWITCH21092023\REPSWITCH_excgange\REPSWITCH_excgange\data/270102_REPSWITCH1_version1_list2_2023-12-04_16h09.51.777_micRespv1l2_recorded\recording_micRespv1l2_2023-12-04_16h17.22.989.wav;458.56634520040825;459.06640770006925;None;458.56634520040825;458.56634520040825;458.56634520040825;458.56634520040825;458.56634520040825;458.56634520040825;[0.9291136995889246, 1.189222999382764, 1.428286999464035, 1.4850902995094657, 1.666604099329561, 1.774271899368614, 1.878947599325329];;;;;;270102;001;2023-12-04_16h09.51.777;REPSWITCH1_version1_list2;2022.2.4;143.94599220539422;
REPSWITCH1/PICTURE_576.png;guante;speak;gold;filler;2;F;4;3;2;1;Stim1_Set3;0;None;92;91;92;0;91;91;91;;;;;;;;;;;;;;;;;;;;;;;459.06640770006925;460.2124105002731;460.2124105002731;460.2124105002731;460.2124105002731;460.2124105002731;460.2124105002731;460.2124105002731;460.2124105002731;None;0;;C:\2023\REPSWITCH21092023\REPSWITCH_excgange\REPSWITCH_excgange\data/270102_REPSWITCH1_version1_list2_2023-12-04_16h09.51.777_micRespv1l2_recorded\recording_micRespv1l2_2023-12-04_16h17.27.657.wav;463.24058340024203;;None;463.24058340024203;463.24058340024203;463.24058340024203;463.24058340024203;463.24058340024203;463.24058340024203;;;;;;;270102;001;2023-12-04_16h09.51.777;REPSWITCH1_version1_list2;2022.2.4;143.94599220539422;
REPSWITCH1/PICTURE_8.png;pierna;speak;gold;nontarget;2;NT;4;3;2;1;Stim3_Set4;1;repeat;93;92;93;0;92;92;92;;;;;;;;;;;;;;;;;;;;;;;463.740619300399;464.8866337002255;464.8866337002255;464.8866337002255;464.8866337002255;464.8866337002255;464.8866337002255;464.8866337002255;464.8866337002255;None;0;;C:\2023\REPSWITCH21092023\REPSWITCH_excgange\REPSWITCH_excgange\data/270102_REPSWITCH1_version1_list2_2023-12-04_16h09.51.777_micRespv1l2_recorded\recording_micRespv1l2_2023-12-04_16h17.32.331.wav;467.90789020014927;468.40799110010266;None;467.90789020014927;467.90789020014927;467.90789020014927;467.90789020014927;467.90789020014927;467.90789020014927;;;;;;;270102;001;2023-12-04_16h09.51.777;REPSWITCH1_version1_list2;2022.2.4;143.94599220539422;
REPSWITCH1/PICTURE_8.png;pierna;type;darkblue;switch;1;T;4;3;2;1;Stim3_Set4;0;None;94;93;94;0;93;93;93;;;;;;;;;;;;;;;;;;;;;;;468.40799110010266;469.51221460010856;469.51221460010856;469.51221460010856;469.51221460010856;469.51221460010856;469.51221460010856;469.51221460010856;469.51221460010856;['p', 'i', 'e', 'r', 'n', 'a'];0;pierna;C:\2023\REPSWITCH21092023\REPSWITCH_excgange\REPSWITCH_excgange\data/270102_REPSWITCH1_version1_list2_2023-12-04_16h09.51.777_micRespv1l2_recorded\recording_micRespv1l2_2023-12-04_16h17.36.957.wav;472.53343690000474;473.03359920019284;None;472.53343690000474;472.53343690000474;472.53343690000474;472.53343690000474;472.53343690000474;472.53343690000474;[0.7324504996649921, 0.9513534996658564, 1.009388799779117, 1.2086934996768832, 1.4773762999102473, 1.6158933998085558];;;;;;270102;001;2023-12-04_16h09.51.777;REPSWITCH1_version1_list2;2022.2.4;143.94599220539422;
REPSWITCH1/PICTURE_673.png;tenedor;speak;gold;filler;2;F;4;3;2;1;Extra5;0;None;95;94;95;0;94;94;94;;;;;;;;;;;;;;;;;;;;;;;473.03359920019284;474.0545078003779;474.0545078003779;474.0545078003779;474.0545078003779;474.0545078003779;474.0545078003779;474.0545078003779;474.0545078003779;None;0;;C:\2023\REPSWITCH21092023\REPSWITCH_excgange\REPSWITCH_excgange\data/270102_REPSWITCH1_version1_list2_2023-12-04_16h09.51.777_micRespv1l2_recorded\recording_micRespv1l2_2023-12-04_16h17.41.499.wav;477.0826453999616;;None;477.0826453999616;477.0826453999616;477.0826453999616;477.0826453999616;477.0826453999616;477.0826453999616;;;;;;;270102;001;2023-12-04_16h09.51.777;REPSWITCH1_version1_list2;2022.2.4;143.94599220539422;
REPSWITCH1/PICTURE_35.png;oreja;type;darkblue;filler;1;F;4;3;2;1;Stim5_Set3;1;switch;96;95;96;0;95;95;95;;;;;;;;;;;;;;;;;;;;;;;477.58277550013736;478.6523819002323;478.6523819002323;478.6523819002323;478.6523819002323;478.6523819002323;478.6523819002323;478.6523819002323;478.6523819002323;['o', 'r', 'e', 'j', 'a'];0;oreja;C:\2023\REPSWITCH21092023\REPSWITCH_excgange\REPSWITCH_excgange\data/270102_REPSWITCH1_version1_list2_2023-12-04_16h09.51.777_micRespv1l2_recorded\recording_micRespv1l2_2023-12-04_16h17.46.097.wav;481.6735558002256;482.1735965004191;None;481.6735558002256;481.6735558002256;481.6735558002256;481.6735558002256;481.6735558002256;481.6735558002256;[0.7717247996479273, 0.9022712996229529, 1.0820249994285405, 1.1856749998405576, 1.2723746998235583];;;;;;270102;001;2023-12-04_16h09.51.777;REPSWITCH1_version1_list2;2022.2.4;143.94599220539422;
REPSWITCH1/PICTURE_663.png;columna;speak;gold;filler;2;F;4;3;2;1;Extra6;0;None;97;96;97;0;96;96;96;;;;;;;;;;;;;;;;;;;;;;;482.1735965004191;483.2084543001838;483.2084543001838;483.2084543001838;483.2084543001838;483.2084543001838;483.2084543001838;483.2084543001838;483.2084543001838;None;0;;C:\2023\REPSWITCH21092023\REPSWITCH_excgange\REPSWITCH_excgange\data/270102_REPSWITCH1_version1_list2_2023-12-04_16h09.51.777_micRespv1l2_recorded\recording_micRespv1l2_2023-12-04_16h17.50.653.wav;486.229682400357;486.7297474001534;None;486.229682400357;486.229682400357;486.229682400357;486.229682400357;486.229682400357;486.229682400357;;;;;;;270102;001;2023-12-04_16h09.51.777;REPSWITCH1_version1_list2;2022.2.4;143.94599220539422;
REPSWITCH1/PICTURE_242.png;cartero;type;darkblue;filler;1;F;4;3;2;1;Stim3_Set3;1;switch;98;97;98;0;97;97;97;;;;;;;;;;;;;;;;;;;;;;;486.7297474001534;487.8618511003442;487.8618511003442;487.8618511003442;487.8618511003442;487.8618511003442;487.8618511003442;487.8618511003442;487.8618511003442;['c', 'a', 'r', 't', 'e', 'r', 'o'];0;cartero;C:\2023\REPSWITCH21092023\REPSWITCH_excgange\REPSWITCH_excgange\data/270102_REPSWITCH1_version1_list2_2023-12-04_16h09.51.777_micRespv1l2_recorded\recording_micRespv1l2_2023-12-04_16h17.55.306.wav;490.88315010024235;491.38323020003736;None;490.88315010024235;490.88315010024235;490.88315010024235;490.88315010024235;490.88315010024235;490.88315010024235;[0.9195693000219762, 1.0181991998106241, 1.1228107996284962, 1.2826430997811258, 1.3278166996315122, 1.4911504997871816, 1.6049869996495545];;;;;;270102;001;2023-12-04_16h09.51.777;REPSWITCH1_version1_list2;2022.2.4;143.94599220539422;
REPSWITCH1/PICTURE_48.png;bombero;type;darkblue;nontarget;1;NT;4;3;2;1;Stim7_Set4;1;repeat;99;98;99;0;98;98;98;;;;;;;;;;;;;;;;;;;;;;;491.38323020003736;492.40419260039926;492.40419260039926;492.40419260039926;492.40419260039926;492.40419260039926;492.40419260039926;492.40419260039926;492.40419260039926;['b', 'o', 'm', 'b', 'e', 'r', 'i', 'backspace', 'p'];0;bomberp;C:\2023\REPSWITCH21092023\REPSWITCH_excgange\REPSWITCH_excgange\data/270102_REPSWITCH1_version1_list2_2023-12-04_16h09.51.777_micRespv1l2_recorded\recording_micRespv1l2_2023-12-04_16h17.59.849.wav;495.42532300017774;495.92550000036135;None;495.42532300017774;495.42532300017774;495.42532300017774;495.42532300017774;495.42532300017774;495.42532300017774;[0.9191530994139612, 1.0098455995321274, 1.4666413995437324, 1.6769386995583773, 1.7397278994321823, 1.8917591995559633, 1.981445599347353, 2.6412539994344115, 2.9249705993570387];;;;;;270102;001;2023-12-04_16h09.51.777;REPSWITCH1_version1_list2;2022.2.4;143.94599220539422;
REPSWITCH1/PICTURE_48.png;bombero;type;darkblue;repeat;1;T;4;3;2;1;Stim7_Set4;0;None;100;99;100;0;99;99;99;;;;;;;;;;;;;;;;;;;;;;;495.92550000036135;496.9950190000236;496.9950190000236;496.9950190000236;496.9950190000236;496.9950190000236;496.9950190000236;496.9950190000236;496.9950190000236;['b', 'o', 'm', 'b', 'e', 'r', 'o'];0;bombero;C:\2023\REPSWITCH21092023\REPSWITCH_excgange\REPSWITCH_excgange\data/270102_REPSWITCH1_version1_list2_2023-12-04_16h09.51.777_micRespv1l2_recorded\recording_micRespv1l2_2023-12-04_16h18.04.440.wav;500.0231914999895;;None;500.0231914999895;500.0231914999895;500.0231914999895;500.0231914999895;500.0231914999895;500.0231914999895;[1.0865776995196939, 1.2829920994117856, 1.4938875995576382, 1.7620628993026912, 1.8376746992580593, 2.00810829969123, 2.085120499599725];;;;;;270102;001;2023-12-04_16h09.51.777;REPSWITCH1_version1_list2;2022.2.4;143.94599220539422;
REPSWITCH1/PICTURE_391.png;cadena;speak;gold;filler;2;F;4;3;2;1;Extra2;0;None;101;100;101;0;100;100;100;;;;;;;;;;;;;;;;;;;;;;;500.52323679998517;501.63453530007973;501.63453530007973;501.63453530007973;501.63453530007973;501.63453530007973;501.63453530007973;501.63453530007973;501.63453530007973;None;0;;C:\2023\REPSWITCH21092023\REPSWITCH_excgange\REPSWITCH_excgange\data/270102_REPSWITCH1_version1_list2_2023-12-04_16h09.51.777_micRespv1l2_recorded\recording_micRespv1l2_2023-12-04_16h18.09.080.wav;504.6556982002221;505.15578140038997;None;504.6556982002221;504.6556982002221;504.6556982002221;504.6556982002221;504.6556982002221;504.6556982002221;;;;;;;270102;001;2023-12-04_16h09.51.777;REPSWITCH1_version1_list2;2022.2.4;143.94599220539422;
REPSWITCH1/PICTURE_590.png;escoba;type;darkblue;filler;1;F;4;3;2;1;Extra3;0;None;102;101;102;0;101;101;101;;;;;;;;;;;;;;;;;;;;;;;505.15578140038997;506.26705460017547;506.26705460017547;506.26705460017547;506.26705460017547;506.26705460017547;506.26705460017547;506.26705460017547;506.26705460017547;['e', 's', 'c', 'o', 'b', 'a'];0;escoba;C:\2023\REPSWITCH21092023\REPSWITCH_excgange\REPSWITCH_excgange\data/270102_REPSWITCH1_version1_list2_2023-12-04_16h09.51.777_micRespv1l2_recorded\recording_micRespv1l2_2023-12-04_16h18.13.712.wav;509.2883852003142;509.78835840011016;space;509.2883852003142;509.2883852003142;509.2883852003142;509.2883852003142;509.2883852003142;509.2883852003142;[0.8517405996099114, 1.0065313996747136, 1.1911793993785977, 1.3113950993865728, 1.5406243996694684, 1.6098727993667126];509.78835840011016;509.78835840011016;21.123040999751538;;;270102;001;2023-12-04_16h09.51.777;REPSWITCH1_version1_list2;2022.2.4;143.94599220539422;
REPSWITCH1/PICTURE_340.png;espejo;type;darkblue;filler;1;F;1;1;2;1;Extra1;0;None;103;102;1;0;102;102;102;;;;;;;;;;;;;;;;;;;;;;;530.92314490024;531.9649036000483;531.9649036000483;531.9649036000483;531.9649036000483;531.9649036000483;531.9649036000483;531.9649036000483;531.9649036000483;['e', 's', 'p', 'e', 'j', 'o'];0;espejo;C:\2023\REPSWITCH21092023\REPSWITCH_excgange\REPSWITCH_excgange\data/270102_REPSWITCH1_version1_list2_2023-12-04_16h09.51.777_micRespv1l2_recorded\recording_micRespv1l2_2023-12-04_16h18.39.410.wav;534.9931351002306;;None;534.9931351002306;534.9931351002306;534.9931351002306;534.9931351002306;534.9931351002306;534.9931351002306;[0.7631839998066425, 0.9256377997808158, 1.0073273996822536, 1.097049799747765, 1.8065969995222986, 1.9361925995908678];;;;;;270102;001;2023-12-04_16h09.51.777;REPSWITCH1_version1_list2;2022.2.4;143.94599220539422;
REPSWITCH1/PICTURE_391.png;cadena;speak;gold;filler;2;F;1;1;2;1;Extra2;0;None;104;103;2;0;103;103;103;;;;;;;;;;;;;;;;;;;;;;;535.493131400086;536.5835714000277;536.5835714000277;536.5835714000277;536.5835714000277;536.5835714000277;536.5835714000277;536.5835714000277;536.5835714000277;None;0;;C:\2023\REPSWITCH21092023\REPSWITCH_excgange\REPSWITCH_excgange\data/270102_REPSWITCH1_version1_list2_2023-12-04_16h09.51.777_micRespv1l2_recorded\recording_micRespv1l2_2023-12-04_16h18.44.029.wav;539.6117215002887;;None;539.6117215002887;539.6117215002887;539.6117215002887;539.6117215002887;539.6117215002887;539.6117215002887;;;;;;;270102;001;2023-12-04_16h09.51.777;REPSWITCH1_version1_list2;2022.2.4;143.94599220539422;
REPSWITCH1/PICTURE_178.png;puente;speak;gold;nontarget;2;NT;1;1;2;1;Stim1_Set1;1;repeat;105;104;3;0;104;104;104;;;;;;;;;;;;;;;;;;;;;;;540.1117639001459;541.2508587003686;541.2508587003686;541.2508587003686;541.2508587003686;541.2508587003686;541.2508587003686;541.2508587003686;541.2508587003686;None;0;;C:\2023\REPSWITCH21092023\REPSWITCH_excgange\REPSWITCH_excgange\data/270102_REPSWITCH1_version1_list2_2023-12-04_16h09.51.777_micRespv1l2_recorded\recording_micRespv1l2_2023-12-04_16h18.48.695.wav;544.2720505003817;544.7721950002015;None;544.2720505003817;544.2720505003817;544.2720505003817;544.2720505003817;544.2720505003817;544.2720505003817;;;;;;;270102;001;2023-12-04_16h09.51.777;REPSWITCH1_version1_list2;2022.2.4;143.94599220539422;
REPSWITCH1/PICTURE_178.png;puente;speak;gold;repeat;2;T;1;1;2;1;Stim1_Set1;0;None;106;105;4;0;105;105;105;;;;;;;;;;;;;;;;;;;;;;;544.7721950002015;545.8764681001194;545.8764681001194;545.8764681001194;545.8764681001194;545.8764681001194;545.8764681001194;545.8764681001194;545.8764681001194;None;0;;C:\2023\REPSWITCH21092023\REPSWITCH_excgange\REPSWITCH_excgange\data/270102_REPSWITCH1_version1_list2_2023-12-04_16h09.51.777_micRespv1l2_recorded\recording_micRespv1l2_2023-12-04_16h18.53.322.wav;548.9046479002573;;None;548.9046479002573;548.9046479002573;548.9046479002573;548.9046479002573;548.9046479002573;548.9046479002573;;;;;;;270102;001;2023-12-04_16h09.51.777;REPSWITCH1_version1_list2;2022.2.4;143.94599220539422;
REPSWITCH1/PICTURE_319.png;vaca;type;darkblue;filler;1;F;1;1;2;1;Stim1_Set4;0;None;107;106;5;0;106;106;106;;;;;;;;;;;;;;;;;;;;;;;549.4046557000838;550.4534582002088;550.4534582002088;550.4534582002088;550.4534582002088;550.4534582002088;550.4534582002088;550.4534582002088;550.4534582002088;['v', 'a', 'c', 'a'];0;vaca;C:\2023\REPSWITCH21092023\REPSWITCH_excgange\REPSWITCH_excgange\data/270102_REPSWITCH1_version1_list2_2023-12-04_16h09.51.777_micRespv1l2_recorded\recording_micRespv1l2_2023-12-04_16h18.57.898.wav;553.4815849000588;;None;553.4815849000588;553.4815849000588;553.4815849000588;553.4815849000588;553.4815849000588;553.4815849000588;[0.7741751996800303, 0.8459510994143784, 0.9840743993408978, 1.0448712995275855];;;;;;270102;001;2023-12-04_16h09.51.777;REPSWITCH1_version1_list2;2022.2.4;143.94599220539422;
REPSWITCH1/PICTURE_381.png;fresa;speak;gold;nontarget;2;NT;1;1;2;1;Stim2_Set1;1;switch;108;107;6;0;107;107;107;;;;;;;;;;;;;;;;;;;;;;;553.9817163003609;555.1346544004045;555.1346544004045;555.1346544004045;555.1346544004045;555.1346544004045;555.1346544004045;555.1346544004045;555.1346544004045;None;0;;C:\2023\REPSWITCH21092023\REPSWITCH_excgange\REPSWITCH_excgange\data/270102_REPSWITCH1_version1_list2_2023-12-04_16h09.51.777_micRespv1l2_recorded\recording_micRespv1l2_2023-12-04_16h19.02.579.wav;558.1558230002411;558.6558938003145;None;558.1558230002411;558.1558230002411;558.1558230002411;558.1558230002411;558.1558230002411;558.1558230002411;;;;;;;270102;001;2023-12-04_16h09.51.777;REPSWITCH1_version1_list2;2022.2.4;143.94599220539422;
REPSWITCH1/PICTURE_381.png;fresa;speak;gold;repeat;2;T;1;1;2;1;Stim2_Set1;0;None;109;108;7;0;108;108;108;;;;;;;;;;;;;;;;;;;;;;;558.6558938003145;559.8296944000758;559.8296944000758;559.8296944000758;559.8296944000758;559.8296944000758;559.8296944000758;559.8296944000758;559.8296944000758;None;0;;C:\2023\REPSWITCH21092023\REPSWITCH_excgange\REPSWITCH_excgange\data/270102_REPSWITCH1_version1_list2_2023-12-04_16h09.51.777_micRespv1l2_recorded\recording_micRespv1l2_2023-12-04_16h19.07.274.wav;562.8508573002182;563.3510242002085;None;562.8508573002182;562.8508573002182;562.8508573002182;562.8508573002182;562.8508573002182;562.8508573002182;;;;;;;270102;001;2023-12-04_16h09.51.777;REPSWITCH1_version1_list2;2022.2.4;143.94599220539422;
REPSWITCH1/PICTURE_719.png;baño;type;darkblue;filler;1;F;1;1;2;1;Stim2_Set4;1;switch;110;109;8;0;109;109;109;;;;;;;;;;;;;;;;;;;;;;;563.3510242002085;564.3858067002147;564.3858067002147;564.3858067002147;564.3858067002147;564.3858067002147;564.3858067002147;564.3858067002147;564.3858067002147;['b', 'a', 'ñ', 'o'];0;baño;C:\2023\REPSWITCH21092023\REPSWITCH_excgange\REPSWITCH_excgange\data/270102_REPSWITCH1_version1_list2_2023-12-04_16h09.51.777_micRespv1l2_recorded\recording_micRespv1l2_2023-12-04_16h19.11.831.wav;567.4070116002113;567.9071112000383;None;567.4070116002113;567.4070116002113;567.4070116002113;567.4070116002113;567.4070116002113;567.4070116002113;[0.8556365999393165, 0.9064547996968031, 1.1519319997169077, 1.338926499709487];;;;;;270102;001;2023-12-04_16h09.51.777;REPSWITCH1_version1_list2;2022.2.4;143.94599220539422;
REPSWITCH1/PICTURE_135.png;traje;speak;gold;nontarget;2;NT;1;1;2;1;Stim3_Set1;0;None;111;110;9;0;110;110;110;;;;;;;;;;;;;;;;;;;;;;;567.9071112000383;568.983629300259;568.983629300259;568.983629300259;568.983629300259;568.983629300259;568.983629300259;568.983629300259;568.983629300259;None;0;;C:\2023\REPSWITCH21092023\REPSWITCH_excgange\REPSWITCH_excgange\data/270102_REPSWITCH1_version1_list2_2023-12-04_16h09.51.777_micRespv1l2_recorded\recording_micRespv1l2_2023-12-04_16h19.16.428.wav;572.0117937000468;;None;572.0117937000468;572.0117937000468;572.0117937000468;572.0117937000468;572.0117937000468;572.0117937000468;;;;;;;270102;001;2023-12-04_16h09.51.777;REPSWITCH1_version1_list2;2022.2.4;143.94599220539422;
REPSWITCH1/PICTURE_135.png;traje;type;darkblue;switch;1;T;1;1;2;1;Stim3_Set1;0;None;112;111;10;0;111;111;111;;;;;;;;;;;;;;;;;;;;;;;572.5118837002665;573.699555600062;573.699555600062;573.699555600062;573.699555600062;573.699555600062;573.699555600062;573.699555600062;573.699555600062;['t', 'r', 'a', 'j', 'e'];0;traje;C:\2023\REPSWITCH21092023\REPSWITCH_excgange\REPSWITCH_excgange\data/270102_REPSWITCH1_version1_list2_2023-12-04_16h09.51.777_micRespv1l2_recorded\recording_micRespv1l2_2023-12-04_16h19.21.144.wav;576.7208217000589;577.2208436001092;None;576.7208217000589;576.7208217000589;576.7208217000589;576.7208217000589;576.7208217000589;576.7208217000589;[0.9238687995821238, 1.0610710997134447, 1.1348485997878015, 1.3950697998516262, 1.509980899747461];;;;;;270102;001;2023-12-04_16h09.51.777;REPSWITCH1_version1_list2;2022.2.4;143.94599220539422;
REPSWITCH1/PICTURE_687.png;camisa;speak;gold;filler;2;F;1;1;2;1;Stim5_Set4;0;None;113;112;11;0;112;112;112;;;;;;;;;;;;;;;;;;;;;;;577.2208436001092;578.318263400346;578.318263400346;578.318263400346;578.318263400346;578.318263400346;578.318263400346;578.318263400346;578.318263400346;None;0;;C:\2023\REPSWITCH21092023\REPSWITCH_excgange\REPSWITCH_excgange\data/270102_REPSWITCH1_version1_list2_2023-12-04_16h09.51.777_micRespv1l2_recorded\recording_micRespv1l2_2023-12-04_16h19.25.763.wav;581.3394726002589;581.8395020002499;None;581.3394726002589;581.3394726002589;581.3394726002589;581.3394726002589;581.3394726002589;581.3394726002589;;;;;;;270102;001;2023-12-04_16h09.51.777;REPSWITCH1_version1_list2;2022.2.4;143.94599220539422;
REPSWITCH1/PICTURE_128.png;muñeca;type;darkblue;nontarget;1;NT;1;1;2;1;Stim4_Set1;1;switch;114;113;12;0;113;113;113;;;;;;;;;;;;;;;;;;;;;;;581.8395020002499;582.9160431004129;582.9160431004129;582.9160431004129;582.9160431004129;582.9160431004129;582.9160431004129;582.9160431004129;582.9160431004129;['m', 'u', 'ñ', 'e', 'c', 'a'];0;muñeca;C:\2023\REPSWITCH21092023\REPSWITCH_excgange\REPSWITCH_excgange\data/270102_REPSWITCH1_version1_list2_2023-12-04_16h09.51.777_micRespv1l2_recorded\recording_micRespv1l2_2023-12-04_16h19.30.361.wav;585.9442781000398;;None;585.9442781000398;585.9442781000398;585.9442781000398;585.9442781000398;585.9442781000398;585.9442781000398;[0.7675303993746638, 0.9868443994782865, 1.2617293992079794, 2.1517114993184805, 2.324049999471754, 2.4038121993653476];;;;;;270102;001;2023-12-04_16h09.51.777;REPSWITCH1_version1_list2;2022.2.4;143.94599220539422;
REPSWITCH1/PICTURE_128.png;muñeca;speak;gold;switch;2;T;1;1;2;1;Stim4_Set1;0;None;115;114;13;0;114;114;114;;;;;;;;;;;;;;;;;;;;;;;586.4442596002482;587.6527750999667;587.6527750999667;587.6527750999667;587.6527750999667;587.6527750999667;587.6527750999667;587.6527750999667;587.6527750999667;None;0;;C:\2023\REPSWITCH21092023\REPSWITCH_excgange\REPSWITCH_excgange\data/270102_REPSWITCH1_version1_list2_2023-12-04_16h09.51.777_micRespv1l2_recorded\recording_micRespv1l2_2023-12-04_16h19.35.098.wav;590.6809326000512;;None;590.6809326000512;590.6809326000512;590.6809326000512;590.6809326000512;590.6809326000512;590.6809326000512;;;;;;;270102;001;2023-12-04_16h09.51.777;REPSWITCH1_version1_list2;2022.2.4;143.94599220539422;
REPSWITCH1/PICTURE_8.png;pierna;speak;gold;filler;2;F;1;1;2;1;Stim3_Set4;0;None;116;115;14;0;115;115;115;;;;;;;;;;;;;;;;;;;;;;;591.1810107002966;592.3200572002679;592.3200572002679;592.3200572002679;592.3200572002679;592.3200572002679;592.3200572002679;592.3200572002679;592.3200572002679;None;0;;C:\2023\REPSWITCH21092023\REPSWITCH_excgange\REPSWITCH_excgange\data/270102_REPSWITCH1_version1_list2_2023-12-04_16h09.51.777_micRespv1l2_recorded\recording_micRespv1l2_2023-12-04_16h19.39.764.wav;595.3412715001032;595.8413513000123;None;595.3412715001032;595.3412715001032;595.3412715001032;595.3412715001032;595.3412715001032;595.3412715001032;;;;;;;270102;001;2023-12-04_16h09.51.777;REPSWITCH1_version1_list2;2022.2.4;143.94599220539422;
REPSWITCH1/PICTURE_19.png;pavo;speak;gold;nontarget;2;NT;1;1;2;1;Stim5_Set1;0;None;117;116;15;0;116;116;116;;;;;;;;;;;;;;;;;;;;;;;595.8413513000123;596.890152500011;596.890152500011;596.890152500011;596.890152500011;596.890152500011;596.890152500011;596.890152500011;596.890152500011;None;0;;C:\2023\REPSWITCH21092023\REPSWITCH_excgange\REPSWITCH_excgange\data/270102_REPSWITCH1_version1_list2_2023-12-04_16h09.51.777_micRespv1l2_recorded\recording_micRespv1l2_2023-12-04_16h19.44.335.wav;599.9182746000588;;None;599.9182746000588;599.9182746000588;599.9182746000588;599.9182746000588;599.9182746000588;599.9182746000588;;;;;;;270102;001;2023-12-04_16h09.51.777;REPSWITCH1_version1_list2;2022.2.4;143.94599220539422;
REPSWITCH1/PICTURE_19.png;pavo;type;darkblue;switch;1;T;1;1;2;1;Stim5_Set1;0;None;118;117;16;0;117;117;117;;;;;;;;;;;;;;;;;;;;;;;600.4183420003392;601.5365232001059;601.5365232001059;601.5365232001059;601.5365232001059;601.5365232001059;601.5365232001059;601.5365232001059;601.5365232001059;['a', 'v', 'o', 'backspace', 'backspace', 'backspace'];0;;C:\2023\REPSWITCH21092023\REPSWITCH_excgange\REPSWITCH_excgange\data/270102_REPSWITCH1_version1_list2_2023-12-04_16h09.51.777_micRespv1l2_recorded\recording_micRespv1l2_2023-12-04_16h19.48.981.wav;604.5646866001189;;None;604.5646866001189;604.5646866001189;604.5646866001189;604.5646866001189;604.5646866001189;604.5646866001189;[0.984776399563998, 1.2368518994189799, 1.459141199477017, 2.645047499332577, 2.785912999417633, 2.9034877996891737];;;;;;270102;001;2023-12-04_16h09.51.777;REPSWITCH1_version1_list2;2022.2.4;143.94599220539422;
REPSWITCH1/PICTURE_16.png;cazador;type;darkblue;nontarget;1;NT;1;1;2;1;Stim6_Set1;1;switch;119;118;17;0;118;118;118;;;;;;;;;;;;;;;;;;;;;;;605.0647556004114;606.1483086002991;606.1483086002991;606.1483086002991;606.1483086002991;606.1483086002991;606.1483086002991;606.1483086002991;606.1483086002991;['c', 'a', 'z', 'a', 'd', 'o', 'r'];0;cazador;C:\2023\REPSWITCH21092023\REPSWITCH_excgange\REPSWITCH_excgange\data/270102_REPSWITCH1_version1_list2_2023-12-04_16h09.51.777_micRespv1l2_recorded\recording_micRespv1l2_2023-12-04_16h19.53.593.wav;609.1764278002083;;None;609.1764278002083;609.1764278002083;609.1764278002083;609.1764278002083;609.1764278002083;609.1764278002083;[0.8938123993575573, 1.1106578996405005, 1.3205941994674504, 1.4302145997062325, 1.6837283996865153, 1.8611238994635642, 1.9877350996248424];;;;;;270102;001;2023-12-04_16h09.51.777;REPSWITCH1_version1_list2;2022.2.4;143.94599220539422;
REPSWITCH1/PICTURE_16.png;cazador;type;darkblue;repeat;1;T;1;1;2;1;Stim6_Set1;0;None;120;119;18;0;119;119;119;;;;;;;;;;;;;;;;;;;;;;;609.6764930002391;610.7877895003185;610.7877895003185;610.7877895003185;610.7877895003185;610.7877895003185;610.7877895003185;610.7877895003185;610.7877895003185;['c', 'a', 'z', 'a', 'd', 'o', 'r'];0;cazador;C:\2023\REPSWITCH21092023\REPSWITCH_excgange\REPSWITCH_excgange\data/270102_REPSWITCH1_version1_list2_2023-12-04_16h09.51.777_micRespv1l2_recorded\recording_micRespv1l2_2023-12-04_16h19.58.232.wav;613.8089535003528;614.3090542000718;None;613.8089535003528;613.8089535003528;613.8089535003528;613.8089535003528;613.8089535003528;613.8089535003528;[0.7154944995418191, 0.8874004995450377, 1.0661070994101465, 1.1670204997062683, 1.3699025996029377, 1.5333221997134387, 1.6190069993026555];;;;;;270102;001;2023-12-04_16h09.51.777;REPSWITCH1_version1_list2;2022.2.4;143.94599220539422;
REPSWITCH1/PICTURE_498.png;taza;speak;gold;filler;2;F;1;1;2;1;Stim4_Set4;0;None;121;120;19;0;120;120;120;;;;;;;;;;;;;;;;;;;;;;;614.3090542000718;615.3647806001827;615.3647806001827;615.3647806001827;615.3647806001827;615.3647806001827;615.3647806001827;615.3647806001827;615.3647806001827;None;0;;C:\2023\REPSWITCH21092023\REPSWITCH_excgange\REPSWITCH_excgange\data/270102_REPSWITCH1_version1_list2_2023-12-04_16h09.51.777_micRespv1l2_recorded\recording_micRespv1l2_2023-12-04_16h20.02.809.wav;618.385980900377;618.8860401003622;None;618.385980900377;618.385980900377;618.385980900377;618.385980900377;618.385980900377;618.385980900377;;;;;;;270102;001;2023-12-04_16h09.51.777;REPSWITCH1_version1_list2;2022.2.4;143.94599220539422;
