image,correctAns,respModal,frameColor,repSwitch,sequence,target,set,block,list,exp_version,stimulus,baseline,baseline_condition,trial_no,psychopy_trial,Column1,trialsREPSWITCH.thisRepN,trialsREPSWITCH.thisTrialN,trialsREPSWITCH.thisN,trialsREPSWITCH.thisIndex,textWelcome.started,textboxInstrMain1.started,textboxInstrMain1_2.started,textboxInstrMain1_3.started,keyInstrMain.started,keyInstrMain.keys,keyInstrMain.rt,textboxInstrMain2.started,textboxInstrMain2_2.started,textboxInstrMain2_3.started,textboxInstrMain2_4.started,textboxInstrMain2_5.started,textboxInstrMain2_6.started,textboxInstrMain2_7.started,textboxInstrMain2_8.started,textboxInstrMain2_9.started,textboxInstrMain2_10.started,textboxInstrMain2_11.started,textboxInstrMain2_12.started,keyInstrMain2.started,keyInstrMain2.keys,keyInstrMain2.rt,fixationITI.started,fixationITI.stopped,polygonColour.started,polygonWhite.started,imageObject.started,polygonType.started,textInput.started,keyResp.started,micRespv2l2.started,keyResp.keys,keyResp.corr,subjResponse,micRespv2l2.clip,textBlankLoop.started,textBlankLoop.stopped,keyPause.keys,polygonColour.stopped,polygonWhite.stopped,imageObject.stopped,polygonType.stopped,textInput.stopped,keyResp.stopped,keyResp.rt,textboxPause.started,keyPause.started,keyPause.rt,textboxGoodbye.started,textboxGoodbye.stopped,participant,session,date,expName,psychopyVersion,frameRate,
,,,,,,,,,,,,,,,,,,,,,9.519988999934867,12.01969550002832,12.01969550002832,12.01969550002832,12.01969550002832,space,9.283972200006247,,,,,,,,,,,,,,,,,,,,,,,,,,,,,,,,,,,,,,,,,,,,040202,001,2023-11-16_12h09.03.371,REPSWITCH1_version2_list2,2022.2.4,143.96422792530453,
,,,,,,,,,,,,,,,,,,,,,,,,,,,,21.319528999971226,21.319528999971226,21.319528999971226,21.319528999971226,21.319528999971226,21.319528999971226,21.319528999971226,21.319528999971226,21.319528999971226,21.319528999971226,21.319528999971226,21.319528999971226,21.319528999971226,space,6.1063558999449015,,,,,,,,,,,,,,,,,,,,,,,,,,,,,040202,001,2023-11-16_12h09.03.371,REPSWITCH1_version2_list2,2022.2.4,143.96422792530453,
REPSWITCH1/PICTURE_646.png,tronco,speak,darkblue,filler,2,F,1,3,2,2,Extra4,0,None,1,0,1,0,0,0,0,,,,,,,,,,,,,,,,,,,,,,,27.52874959993642,28.73717380000744,28.73717380000744,28.73717380000744,28.73717380000744,28.73717380000744,28.73717380000744,28.73717380000744,28.73717380000744,None,0,,C:\2023\REPSWITCH21092023\REPSWITCH_excgange\REPSWITCH_excgange\data/040202_REPSWITCH1_version2_list2_2023-11-16_12h09.03.371_micRespv2l2_recorded\recording_micRespv2l2_2023-11-16_12h09.27.464.wav,31.75847000000067,32.25842470000498,None,,,,,,,,,,,,,040202,001,2023-11-16_12h09.03.371,REPSWITCH1_version2_list2,2022.2.4,143.96422792530453,
REPSWITCH1/PICTURE_340.png,espejo,type,gold,filler,1,F,1,3,2,2,Extra1,0,None,2,1,2,0,1,1,1,,,,,,,,,,,,,,,,,,,,,,,32.25842470000498,33.43222620000597,33.43222620000597,33.43222620000597,33.43222620000597,33.43222620000597,33.43222620000597,33.43222620000597,33.43222620000597,"['e', 's', 'p', 'e', 'o', 'backspace']",0,espe,C:\2023\REPSWITCH21092023\REPSWITCH_excgange\REPSWITCH_excgange\data/040202_REPSWITCH1_version2_list2_2023-11-16_12h09.03.371_micRespv2l2_recorded\recording_micRespv2l2_2023-11-16_12h09.32.162.wav,36.46040679991711,,None,36.46040679991711,36.46040679991711,36.46040679991711,36.46040679991711,36.46040679991711,36.46040679991711,"[0.7890795000130311, 0.9772544999141246, 1.079899000003934, 1.168203099980019, 1.4830287999939173, 2.724503199919127]",,,,,,040202,001,2023-11-16_12h09.03.371,REPSWITCH1_version2_list2,2022.2.4,143.96422792530453,
REPSWITCH1/PICTURE_338.png,regalo,speak,darkblue,filler,2,F,1,3,2,2,Stim6_Set4,0,None,3,2,3,0,2,2,2,,,,,,,,,,,,,,,,,,,,,,,36.96046319999732,38.016227799933404,38.016227799933404,38.016227799933404,38.016227799933404,38.016227799933404,38.016227799933404,38.016227799933404,38.016227799933404,None,0,,C:\2023\REPSWITCH21092023\REPSWITCH_excgange\REPSWITCH_excgange\data/040202_REPSWITCH1_version2_list2_2023-11-16_12h09.03.371_micRespv2l2_recorded\recording_micRespv2l2_2023-11-16_12h09.36.747.wav,41.044332599965855,,None,41.044332599965855,41.044332599965855,41.044332599965855,41.044332599965855,41.044332599965855,41.044332599965855,,,,,,,040202,001,2023-11-16_12h09.03.371,REPSWITCH1_version2_list2,2022.2.4,143.96422792530453,
REPSWITCH1/PICTURE_142.png,vaso,speak,darkblue,nontarget,2,NT,1,3,2,2,Stim7_Set1,1,repeat,4,3,4,0,3,3,3,,,,,,,,,,,,,,,,,,,,,,,41.54446449992247,42.61401130002923,42.61401130002923,42.61401130002923,42.61401130002923,42.61401130002923,42.61401130002923,42.61401130002923,42.61401130002923,None,0,,C:\2023\REPSWITCH21092023\REPSWITCH_excgange\REPSWITCH_excgange\data/040202_REPSWITCH1_version2_list2_2023-11-16_12h09.03.371_micRespv2l2_recorded\recording_micRespv2l2_2023-11-16_12h09.41.344.wav,45.63520589994732,46.13535110000521,None,45.63520589994732,45.63520589994732,45.63520589994732,45.63520589994732,45.63520589994732,45.63520589994732,,,,,,,040202,001,2023-11-16_12h09.03.371,REPSWITCH1_version2_list2,2022.2.4,143.96422792530453,
REPSWITCH1/PICTURE_142.png,vaso,speak,darkblue,repeat,2,T,1,3,2,2,Stim7_Set1,0,None,5,4,5,0,4,4,4,,,,,,,,,,,,,,,,,,,,,,,46.13535110000521,47.232671799953096,47.232671799953096,47.232671799953096,47.232671799953096,47.232671799953096,47.232671799953096,47.232671799953096,47.232671799953096,None,0,,C:\2023\REPSWITCH21092023\REPSWITCH_excgange\REPSWITCH_excgange\data/040202_REPSWITCH1_version2_list2_2023-11-16_12h09.03.371_micRespv2l2_recorded\recording_micRespv2l2_2023-11-16_12h09.45.963.wav,50.26085750001948,,None,50.26085750001948,50.26085750001948,50.26085750001948,50.26085750001948,50.26085750001948,50.26085750001948,,,,,,,040202,001,2023-11-16_12h09.03.371,REPSWITCH1_version2_list2,2022.2.4,143.96422792530453,
REPSWITCH1/PICTURE_498.png,taza,type,gold,filler,1,F,1,3,2,2,Stim4_Set4,0,None,6,5,6,0,5,5,5,,,,,,,,,,,,,,,,,,,,,,,50.760838699992746,51.85135409992654,51.85135409992654,51.85135409992654,51.85135409992654,51.85135409992654,51.85135409992654,51.85135409992654,51.85135409992654,"['t', 'a', 'z', 'a', 'a', 'backspace']",0,taza,C:\2023\REPSWITCH21092023\REPSWITCH_excgange\REPSWITCH_excgange\data/040202_REPSWITCH1_version2_list2_2023-11-16_12h09.03.371_micRespv2l2_recorded\recording_micRespv2l2_2023-11-16_12h09.50.581.wav,54.87251549994107,55.37259239994455,None,54.87251549994107,54.87251549994107,54.87251549994107,54.87251549994107,54.87251549994107,54.87251549994107,"[1.0125456999521703, 1.090367899974808, 1.2840566999511793, 1.4744194999802858, 1.4853708998998627, 2.03175649989862]",,,,,,040202,001,2023-11-16_12h09.03.371,REPSWITCH1_version2_list2,2022.2.4,143.96422792530453,
REPSWITCH1/PICTURE_16.png,cazador,speak,darkblue,nontarget,2,NT,1,3,2,2,Stim6_Set1,1,switch,7,6,7,0,6,6,6,,,,,,,,,,,,,,,,,,,,,,,55.37259239994455,56.45609879994299,56.45609879994299,56.45609879994299,56.45609879994299,56.45609879994299,56.45609879994299,56.45609879994299,56.45609879994299,None,0,,C:\2023\REPSWITCH21092023\REPSWITCH_excgange\REPSWITCH_excgange\data/040202_REPSWITCH1_version2_list2_2023-11-16_12h09.03.371_micRespv2l2_recorded\recording_micRespv2l2_2023-11-16_12h09.55.188.wav,59.48424369993154,59.98436789994594,None,59.48424369993154,59.48424369993154,59.48424369993154,59.48424369993154,59.48424369993154,59.48424369993154,,,,,,,040202,001,2023-11-16_12h09.03.371,REPSWITCH1_version2_list2,2022.2.4,143.96422792530453,
REPSWITCH1/PICTURE_16.png,cazador,speak,darkblue,repeat,2,T,1,3,2,2,Stim6_Set1,0,None,8,7,8,0,7,7,7,,,,,,,,,,,,,,,,,,,,,,,59.98436789994594,61.10945789993275,61.10945789993275,61.10945789993275,61.10945789993275,61.10945789993275,61.10945789993275,61.10945789993275,61.10945789993275,None,0,,C:\2023\REPSWITCH21092023\REPSWITCH_excgange\REPSWITCH_excgange\data/040202_REPSWITCH1_version2_list2_2023-11-16_12h09.03.371_micRespv2l2_recorded\recording_micRespv2l2_2023-11-16_12h09.59.839.wav,64.1306436000159,64.63077799999155,None,64.1306436000159,64.1306436000159,64.1306436000159,64.1306436000159,64.1306436000159,64.1306436000159,,,,,,,040202,001,2023-11-16_12h09.03.371,REPSWITCH1_version2_list2,2022.2.4,143.96422792530453,
REPSWITCH1/PICTURE_719.png,baño,type,gold,filler,1,F,1,3,2,2,Stim2_Set4,0,None,9,8,9,0,8,8,8,,,,,,,,,,,,,,,,,,,,,,,64.63077799999155,65.71419179998338,65.71419179998338,65.71419179998338,65.71419179998338,65.71419179998338,65.71419179998338,65.71419179998338,65.71419179998338,"['b', 'a', 'ñ', 'o']",0,baño,C:\2023\REPSWITCH21092023\REPSWITCH_excgange\REPSWITCH_excgange\data/040202_REPSWITCH1_version2_list2_2023-11-16_12h09.03.371_micRespv2l2_recorded\recording_micRespv2l2_2023-11-16_12h10.04.446.wav,68.74239299993496,69.2424562999513,None,68.74239299993496,68.74239299993496,68.74239299993496,68.74239299993496,68.74239299993496,68.74239299993496,"[1.1356810999568552, 1.2602969000581652, 1.8465711999451742, 2.1279197999974713]",,,,,,040202,001,2023-11-16_12h09.03.371,REPSWITCH1_version2_list2,2022.2.4,143.96422792530453,
REPSWITCH1/PICTURE_169.png,espalda,speak,darkblue,nontarget,2,NT,1,3,2,2,Stim8_Set1,0,None,10,9,10,0,9,9,9,,,,,,,,,,,,,,,,,,,,,,,69.2424562999513,70.4579098999966,70.4579098999966,70.4579098999966,70.4579098999966,70.4579098999966,70.4579098999966,70.4579098999966,70.4579098999966,None,0,,C:\2023\REPSWITCH21092023\REPSWITCH_excgange\REPSWITCH_excgange\data/040202_REPSWITCH1_version2_list2_2023-11-16_12h09.03.371_micRespv2l2_recorded\recording_micRespv2l2_2023-11-16_12h10.09.189.wav,73.48613520001527,,None,73.48613520001527,73.48613520001527,73.48613520001527,73.48613520001527,73.48613520001527,73.48613520001527,,,,,,,040202,001,2023-11-16_12h09.03.371,REPSWITCH1_version2_list2,2022.2.4,143.96422792530453,
REPSWITCH1/PICTURE_169.png,espalda,type,gold,switch,1,T,1,3,2,2,Stim8_Set1,0,None,11,10,11,0,10,10,10,,,,,,,,,,,,,,,,,,,,,,,73.98613450000994,75.06265279999934,75.06265279999934,75.06265279999934,75.06265279999934,75.06265279999934,75.06265279999934,75.06265279999934,75.06265279999934,"['e', 's', 'p', 'a', 'l', 'd', 'a']",0,espalda,C:\2023\REPSWITCH21092023\REPSWITCH_excgange\REPSWITCH_excgange\data/040202_REPSWITCH1_version2_list2_2023-11-16_12h09.03.371_micRespv2l2_recorded\recording_micRespv2l2_2023-11-16_12h10.13.793.wav,78.08387790003326,78.5839999000309,None,78.08387790003326,78.08387790003326,78.08387790003326,78.08387790003326,78.08387790003326,78.08387790003326,"[1.2916392999468371, 1.4690470999339595, 1.5714042999316007, 1.6660906999604777, 1.7936645000008866, 1.937185899936594, 2.094673299929127]",,,,,,040202,001,2023-11-16_12h09.03.371,REPSWITCH1_version2_list2,2022.2.4,143.96422792530453,
REPSWITCH1/PICTURE_687.png,camisa,type,gold,filler,1,F,1,3,2,2,Stim5_Set4,0,None,12,11,12,0,11,11,11,,,,,,,,,,,,,,,,,,,,,,,78.5839999000309,79.79250670003239,79.79250670003239,79.79250670003239,79.79250670003239,79.79250670003239,79.79250670003239,79.79250670003239,79.79250670003239,"['c', 'a', 'm', 'i', 's', 'a']",0,camisa,C:\2023\REPSWITCH21092023\REPSWITCH_excgange\REPSWITCH_excgange\data/040202_REPSWITCH1_version2_list2_2023-11-16_12h09.03.371_micRespv2l2_recorded\recording_micRespv2l2_2023-11-16_12h10.18.523.wav,82.82062639994547,,None,82.82062639994547,82.82062639994547,82.82062639994547,82.82062639994547,82.82062639994547,82.82062639994547,"[1.3733951000031084, 1.562670600018464, 1.6902809999883175, 1.8657762000802904, 1.9041320000542328, 1.9846031999913976]",,,,,,040202,001,2023-11-16_12h09.03.371,REPSWITCH1_version2_list2,2022.2.4,143.96422792530453,
REPSWITCH1/PICTURE_178.png,puente,type,gold,nontarget,1,NT,1,3,2,2,Stim1_Set1,1,repeat,13,12,13,0,12,12,12,,,,,,,,,,,,,,,,,,,,,,,83.32068539992906,84.41806519997772,84.41806519997772,84.41806519997772,84.41806519997772,84.41806519997772,84.41806519997772,84.41806519997772,84.41806519997772,"['p', 'u', 'e', 'n', 't', 'e']",0,puente,C:\2023\REPSWITCH21092023\REPSWITCH_excgange\REPSWITCH_excgange\data/040202_REPSWITCH1_version2_list2_2023-11-16_12h09.03.371_micRespv2l2_recorded\recording_micRespv2l2_2023-11-16_12h10.23.149.wav,87.4462183000287,87.94628929998726,None,87.4462183000287,87.4462183000287,87.4462183000287,87.4462183000287,87.4462183000287,87.4462183000287,"[1.0927544999867678, 1.3268757000332698, 1.4185898000141606, 1.5212187999859452, 1.6355905999662355, 1.7302663000300527]",,,,,,040202,001,2023-11-16_12h09.03.371,REPSWITCH1_version2_list2,2022.2.4,143.96422792530453,
REPSWITCH1/PICTURE_178.png,puente,speak,darkblue,switch,2,T,1,3,2,2,Stim1_Set1,0,None,14,13,14,0,13,13,13,,,,,,,,,,,,,,,,,,,,,,,87.94628929998726,89.16872219997458,89.16872219997458,89.16872219997458,89.16872219997458,89.16872219997458,89.16872219997458,89.16872219997458,89.16872219997458,None,0,,C:\2023\REPSWITCH21092023\REPSWITCH_excgange\REPSWITCH_excgange\data/040202_REPSWITCH1_version2_list2_2023-11-16_12h09.03.371_micRespv2l2_recorded\recording_micRespv2l2_2023-11-16_12h10.27.899.wav,92.1968205999583,,None,92.1968205999583,92.1968205999583,92.1968205999583,92.1968205999583,92.1968205999583,92.1968205999583,,,,,,,040202,001,2023-11-16_12h09.03.371,REPSWITCH1_version2_list2,2022.2.4,143.96422792530453,
REPSWITCH1/PICTURE_128.png,muñeca,speak,darkblue,nontarget,2,NT,1,3,2,2,Stim4_Set1,1,repeat,15,14,15,0,14,14,14,,,,,,,,,,,,,,,,,,,,,,,92.69696009997278,93.8915356999496,93.8915356999496,93.8915356999496,93.8915356999496,93.8915356999496,93.8915356999496,93.8915356999496,93.8915356999496,None,0,,C:\2023\REPSWITCH21092023\REPSWITCH_excgange\REPSWITCH_excgange\data/040202_REPSWITCH1_version2_list2_2023-11-16_12h09.03.371_micRespv2l2_recorded\recording_micRespv2l2_2023-11-16_12h10.32.622.wav,96.9196866999846,,None,96.9196866999846,96.9196866999846,96.9196866999846,96.9196866999846,96.9196866999846,96.9196866999846,,,,,,,040202,001,2023-11-16_12h09.03.371,REPSWITCH1_version2_list2,2022.2.4,143.96422792530453,
REPSWITCH1/PICTURE_128.png,muñeca,type,gold,switch,1,T,1,3,2,2,Stim4_Set1,0,None,16,15,16,0,15,15,15,,,,,,,,,,,,,,,,,,,,,,,97.41981430002488,98.47542799997609,98.47542799997609,98.47542799997609,98.47542799997609,98.47542799997609,98.47542799997609,98.47542799997609,98.47542799997609,"['m', 'u', 'ñ', 'e', 'c', 'a']",0,muñeca,C:\2023\REPSWITCH21092023\REPSWITCH_excgange\REPSWITCH_excgange\data/040202_REPSWITCH1_version2_list2_2023-11-16_12h09.03.371_micRespv2l2_recorded\recording_micRespv2l2_2023-11-16_12h10.37.206.wav,101.50362219999079,,None,101.50362219999079,101.50362219999079,101.50362219999079,101.50362219999079,101.50362219999079,101.50362219999079,"[0.7882484999718145, 1.0045087999897078, 1.3817805000580847, 1.4833978000096977, 1.7804385999916121, 1.9481677999719977]",,,,,,040202,001,2023-11-16_12h09.03.371,REPSWITCH1_version2_list2,2022.2.4,143.96422792530453,
REPSWITCH1/PICTURE_319.png,vaca,speak,darkblue,filler,2,F,1,3,2,2,Stim1_Set4,1,switch,17,16,17,0,16,16,16,,,,,,,,,,,,,,,,,,,,,,,102.003757199971,103.12190339993685,103.12190339993685,103.12190339993685,103.12190339993685,103.12190339993685,103.12190339993685,103.12190339993685,103.12190339993685,None,0,,C:\2023\REPSWITCH21092023\REPSWITCH_excgange\REPSWITCH_excgange\data/040202_REPSWITCH1_version2_list2_2023-11-16_12h09.03.371_micRespv2l2_recorded\recording_micRespv2l2_2023-11-16_12h10.41.853.wav,106.14308109995909,106.64318419992924,None,106.14308109995909,106.14308109995909,106.14308109995909,106.14308109995909,106.14308109995909,106.14308109995909,,,,,,,040202,001,2023-11-16_12h09.03.371,REPSWITCH1_version2_list2,2022.2.4,143.96422792530453,
REPSWITCH1/PICTURE_728.png,pulpo,speak,darkblue,filler,2,F,1,3,2,2,Stim8_Set4,0,None,18,17,18,0,17,17,17,,,,,,,,,,,,,,,,,,,,,,,106.64318419992924,107.66413199994713,107.66413199994713,107.66413199994713,107.66413199994713,107.66413199994713,107.66413199994713,107.66413199994713,107.66413199994713,None,0,,C:\2023\REPSWITCH21092023\REPSWITCH_excgange\REPSWITCH_excgange\data/040202_REPSWITCH1_version2_list2_2023-11-16_12h09.03.371_micRespv2l2_recorded\recording_micRespv2l2_2023-11-16_12h10.46.395.wav,110.69231630000286,,None,110.69231630000286,110.69231630000286,110.69231630000286,110.69231630000286,110.69231630000286,110.69231630000286,,,,,,,040202,001,2023-11-16_12h09.03.371,REPSWITCH1_version2_list2,2022.2.4,143.96422792530453,
REPSWITCH1/PICTURE_381.png,fresa,type,gold,nontarget,1,NT,1,3,2,2,Stim2_Set1,1,switch,19,18,19,0,18,18,18,,,,,,,,,,,,,,,,,,,,,,,111.1923862999538,112.31059739994816,112.31059739994816,112.31059739994816,112.31059739994816,112.31059739994816,112.31059739994816,112.31059739994816,112.31059739994816,"['f', 'r', 'e', 's', 'a']",0,fresa,C:\2023\REPSWITCH21092023\REPSWITCH_excgange\REPSWITCH_excgange\data/040202_REPSWITCH1_version2_list2_2023-11-16_12h09.03.371_micRespv2l2_recorded\recording_micRespv2l2_2023-11-16_12h10.51.041.wav,115.33875430002809,115.83880109991878,None,115.33875430002809,115.33875430002809,115.33875430002809,115.33875430002809,115.33875430002809,115.33875430002809,"[0.9341262000380084, 1.0637204999802634, 1.1604091000044718, 1.3597247999859974, 1.643793800030835]",,,,,,040202,001,2023-11-16_12h09.03.371,REPSWITCH1_version2_list2,2022.2.4,143.96422792530453,
REPSWITCH1/PICTURE_381.png,fresa,type,gold,repeat,1,T,1,3,2,2,Stim2_Set1,0,None,20,19,20,0,19,19,19,,,,,,,,,,,,,,,,,,,,,,,115.83880109991878,116.87370410002768,116.87370410002768,116.87370410002768,116.87370410002768,116.87370410002768,116.87370410002768,116.87370410002768,116.87370410002768,"['f', 'r', 'e', 's', 'a']",0,fresa,C:\2023\REPSWITCH21092023\REPSWITCH_excgange\REPSWITCH_excgange\data/040202_REPSWITCH1_version2_list2_2023-11-16_12h09.03.371_micRespv2l2_recorded\recording_micRespv2l2_2023-11-16_12h10.55.604.wav,119.90184059995227,,None,119.90184059995227,119.90184059995227,119.90184059995227,119.90184059995227,119.90184059995227,119.90184059995227,"[1.3572880000574514, 1.6256449000211433, 1.7403073000023142, 1.9715170999988914, 2.1637312000384554]",,,,,,040202,001,2023-11-16_12h09.03.371,REPSWITCH1_version2_list2,2022.2.4,143.96422792530453,
REPSWITCH1/PICTURE_8.png,pierna,speak,darkblue,filler,2,F,1,3,2,2,Stim3_Set4,0,None,21,20,21,0,20,20,20,,,,,,,,,,,,,,,,,,,,,,,120.40189620002639,121.54797439998947,121.54797439998947,121.54797439998947,121.54797439998947,121.54797439998947,121.54797439998947,121.54797439998947,121.54797439998947,None,0,,C:\2023\REPSWITCH21092023\REPSWITCH_excgange\REPSWITCH_excgange\data/040202_REPSWITCH1_version2_list2_2023-11-16_12h09.03.371_micRespv2l2_recorded\recording_micRespv2l2_2023-11-16_12h11.00.278.wav,124.57605459995102,,None,124.57605459995102,124.57605459995102,124.57605459995102,124.57605459995102,124.57605459995102,124.57605459995102,,,,,,,040202,001,2023-11-16_12h09.03.371,REPSWITCH1_version2_list2,2022.2.4,143.96422792530453,
REPSWITCH1/PICTURE_48.png,bombero,speak,darkblue,filler,2,F,1,3,2,2,Stim7_Set4,0,None,22,21,22,0,21,21,21,,,,,,,,,,,,,,,,,,,,,,,125.0761420999188,126.11793069995474,126.11793069995474,126.11793069995474,126.11793069995474,126.11793069995474,126.11793069995474,126.11793069995474,126.11793069995474,None,0,,C:\2023\REPSWITCH21092023\REPSWITCH_excgange\REPSWITCH_excgange\data/040202_REPSWITCH1_version2_list2_2023-11-16_12h09.03.371_micRespv2l2_recorded\recording_micRespv2l2_2023-11-16_12h11.04.849.wav,129.14617740001995,,None,129.14617740001995,129.14617740001995,129.14617740001995,129.14617740001995,129.14617740001995,129.14617740001995,,,,,,,040202,001,2023-11-16_12h09.03.371,REPSWITCH1_version2_list2,2022.2.4,143.96422792530453,
REPSWITCH1/PICTURE_135.png,traje,type,gold,nontarget,1,NT,1,3,2,2,Stim3_Set1,1,switch,23,22,23,0,22,22,22,,,,,,,,,,,,,,,,,,,,,,,129.6461712999735,130.74355659994762,130.74355659994762,130.74355659994762,130.74355659994762,130.74355659994762,130.74355659994762,130.74355659994762,130.74355659994762,"['t', 'r', 'a', 'j', 'e']",0,traje,C:\2023\REPSWITCH21092023\REPSWITCH_excgange\REPSWITCH_excgange\data/040202_REPSWITCH1_version2_list2_2023-11-16_12h09.03.371_micRespv2l2_recorded\recording_micRespv2l2_2023-11-16_12h11.09.474.wav,133.76475809991825,134.2648063999368,None,133.76475809991825,133.76475809991825,133.76475809991825,133.76475809991825,133.76475809991825,133.76475809991825,"[1.2836548000341281, 1.4151660000206903, 1.507267800043337, 1.8131542999763042, 1.8939116999972612]",,,,,,040202,001,2023-11-16_12h09.03.371,REPSWITCH1_version2_list2,2022.2.4,143.96422792530453,
REPSWITCH1/PICTURE_135.png,traje,type,gold,repeat,1,T,1,3,2,2,Stim3_Set1,0,None,24,23,24,0,23,23,23,,,,,,,,,,,,,,,,,,,,,,,134.2648063999368,135.3205354999518,135.3205354999518,135.3205354999518,135.3205354999518,135.3205354999518,135.3205354999518,135.3205354999518,135.3205354999518,"['t', 'r', 'a', 'j', 'e']",0,traje,C:\2023\REPSWITCH21092023\REPSWITCH_excgange\REPSWITCH_excgange\data/040202_REPSWITCH1_version2_list2_2023-11-16_12h09.03.371_micRespv2l2_recorded\recording_micRespv2l2_2023-11-16_12h11.14.051.wav,138.34181150002405,138.8418851000024,None,138.34181150002405,138.34181150002405,138.34181150002405,138.34181150002405,138.34181150002405,138.34181150002405,"[1.2434323000488803, 1.4009370000567287, 1.476681400090456, 1.8686363000888377, 1.9663031999953091]",,,,,,040202,001,2023-11-16_12h09.03.371,REPSWITCH1_version2_list2,2022.2.4,143.96422792530453,
REPSWITCH1/PICTURE_19.png,pavo,type,gold,nontarget,1,NT,1,3,2,2,Stim5_Set1,1,repeat,25,24,25,0,24,24,24,,,,,,,,,,,,,,,,,,,,,,,138.8418851000024,140.0225382000208,140.0225382000208,140.0225382000208,140.0225382000208,140.0225382000208,140.0225382000208,140.0225382000208,140.0225382000208,"['p', 'a', 'v', 'o']",0,pavo,C:\2023\REPSWITCH21092023\REPSWITCH_excgange\REPSWITCH_excgange\data/040202_REPSWITCH1_version2_list2_2023-11-16_12h09.03.371_micRespv2l2_recorded\recording_micRespv2l2_2023-11-16_12h11.18.754.wav,143.0507201999426,143.55075910000596,None,143.0507201999426,143.0507201999426,143.0507201999426,143.0507201999426,143.0507201999426,143.0507201999426,"[1.801507500000298, 1.8991776999318972, 2.0966090000001714, 2.1932369999121875]",,,,,,040202,001,2023-11-16_12h09.03.371,REPSWITCH1_version2_list2,2022.2.4,143.96422792530453,
REPSWITCH1/PICTURE_19.png,pavo,speak,darkblue,switch,2,T,1,3,2,2,Stim5_Set1,0,None,26,25,26,0,25,25,25,,,,,,,,,,,,,,,,,,,,,,,143.55075910000596,144.66899109992664,144.66899109992664,144.66899109992664,144.66899109992664,144.66899109992664,144.66899109992664,144.66899109992664,144.66899109992664,None,0,,C:\2023\REPSWITCH21092023\REPSWITCH_excgange\REPSWITCH_excgange\data/040202_REPSWITCH1_version2_list2_2023-11-16_12h09.03.371_micRespv2l2_recorded\recording_micRespv2l2_2023-11-16_12h11.23.400.wav,147.6971505000256,,None,147.6971505000256,147.6971505000256,147.6971505000256,147.6971505000256,147.6971505000256,147.6971505000256,,,,,,,040202,001,2023-11-16_12h09.03.371,REPSWITCH1_version2_list2,2022.2.4,143.96422792530453,
REPSWITCH1/PICTURE_142.png,vaso,speak,darkblue,filler,2,F,2,3,2,2,Stim7_Set1,0,None,27,26,27,0,26,26,26,,,,,,,,,,,,,,,,,,,,,,,148.19722610001918,149.25289959996007,149.25289959996007,149.25289959996007,149.25289959996007,149.25289959996007,149.25289959996007,149.25289959996007,149.25289959996007,None,0,,C:\2023\REPSWITCH21092023\REPSWITCH_excgange\REPSWITCH_excgange\data/040202_REPSWITCH1_version2_list2_2023-11-16_12h09.03.371_micRespv2l2_recorded\recording_micRespv2l2_2023-11-16_12h11.27.984.wav,152.27414709993172,152.7742057000287,None,152.27414709993172,152.27414709993172,152.27414709993172,152.27414709993172,152.27414709993172,152.27414709993172,,,,,,,040202,001,2023-11-16_12h09.03.371,REPSWITCH1_version2_list2,2022.2.4,143.96422792530453,
REPSWITCH1/PICTURE_135.png,traje,type,gold,filler,1,F,2,3,2,2,Stim3_Set1,0,None,28,27,28,0,27,27,27,,,,,,,,,,,,,,,,,,,,,,,152.7742057000287,153.92018899996765,153.92018899996765,153.92018899996765,153.92018899996765,153.92018899996765,153.92018899996765,153.92018899996765,153.92018899996765,"['t', 'r', 'a', 'j', 'e']",0,traje,C:\2023\REPSWITCH21092023\REPSWITCH_excgange\REPSWITCH_excgange\data/040202_REPSWITCH1_version2_list2_2023-11-16_12h09.03.371_micRespv2l2_recorded\recording_micRespv2l2_2023-11-16_12h11.32.650.wav,156.9414289999986,157.44148379995022,None,156.9414289999986,156.9414289999986,156.9414289999986,156.9414289999986,156.9414289999986,156.9414289999986,"[1.096938299946487, 1.2725877000484616, 1.3413518000161275, 1.5544969000620767, 1.6073550999863073]",,,,,,040202,001,2023-11-16_12h09.03.371,REPSWITCH1_version2_list2,2022.2.4,143.96422792530453,
REPSWITCH1/PICTURE_446.png,cerdo,type,gold,nontarget,1,NT,2,3,2,2,Stim7_Set2,0,None,29,28,29,0,28,28,28,,,,,,,,,,,,,,,,,,,,,,,157.44148379995022,158.58749910001643,158.58749910001643,158.58749910001643,158.58749910001643,158.58749910001643,158.58749910001643,158.58749910001643,158.58749910001643,"['c', 'e', 'r', 'd', 'o']",0,cerdo,C:\2023\REPSWITCH21092023\REPSWITCH_excgange\REPSWITCH_excgange\data/040202_REPSWITCH1_version2_list2_2023-11-16_12h09.03.371_micRespv2l2_recorded\recording_micRespv2l2_2023-11-16_12h11.37.319.wav,161.61569190002047,,None,161.61569190002047,161.61569190002047,161.61569190002047,161.61569190002047,161.61569190002047,161.61569190002047,"[0.7772812999319285, 0.9656693999422714, 1.0435028999345377, 1.208191999932751, 1.3089374999981374]",,,,,,040202,001,2023-11-16_12h09.03.371,REPSWITCH1_version2_list2,2022.2.4,143.96422792530453,
REPSWITCH1/PICTURE_446.png,cerdo,type,gold,repeat,1,T,2,3,2,2,Stim7_Set2,0,None,30,29,30,0,29,29,29,,,,,,,,,,,,,,,,,,,,,,,162.11578120000195,163.2547793999547,163.2547793999547,163.2547793999547,163.2547793999547,163.2547793999547,163.2547793999547,163.2547793999547,163.2547793999547,"['c', 'e', 'r', 'd', 'o']",0,cerdo,C:\2023\REPSWITCH21092023\REPSWITCH_excgange\REPSWITCH_excgange\data/040202_REPSWITCH1_version2_list2_2023-11-16_12h09.03.371_micRespv2l2_recorded\recording_micRespv2l2_2023-11-16_12h11.41.985.wav,166.27597009995952,166.7760585999349,None,166.27597009995952,166.27597009995952,166.27597009995952,166.27597009995952,166.27597009995952,166.27597009995952,"[0.9506777999922633, 1.1251578000374138, 1.2118479000637308, 1.3955274000763893, 1.5227878000587225]",,,,,,040202,001,2023-11-16_12h09.03.371,REPSWITCH1_version2_list2,2022.2.4,143.96422792530453,
REPSWITCH1/PICTURE_16.png,cazador,speak,darkblue,filler,2,F,2,3,2,2,Stim6_Set1,0,None,31,30,31,0,30,30,30,,,,,,,,,,,,,,,,,,,,,,,166.7760585999349,167.7901167999953,167.7901167999953,167.7901167999953,167.7901167999953,167.7901167999953,167.7901167999953,167.7901167999953,167.7901167999953,None,0,,C:\2023\REPSWITCH21092023\REPSWITCH_excgange\REPSWITCH_excgange\data/040202_REPSWITCH1_version2_list2_2023-11-16_12h09.03.371_micRespv2l2_recorded\recording_micRespv2l2_2023-11-16_12h11.46.521.wav,170.81823139998596,,None,170.81823139998596,170.81823139998596,170.81823139998596,170.81823139998596,170.81823139998596,170.81823139998596,,,,,,,040202,001,2023-11-16_12h09.03.371,REPSWITCH1_version2_list2,2022.2.4,143.96422792530453,
REPSWITCH1/PICTURE_552.png,manzana,type,gold,nontarget,1,NT,2,3,2,2,Stim6_Set2,1,switch,32,31,32,0,31,31,31,,,,,,,,,,,,,,,,,,,,,,,171.31828250002582,172.38091529998928,172.38091529998928,172.38091529998928,172.38091529998928,172.38091529998928,172.38091529998928,172.38091529998928,172.38091529998928,"['m', 'a', 'n', 'z', 'a', 'n', 'a']",0,manzana,C:\2023\REPSWITCH21092023\REPSWITCH_excgange\REPSWITCH_excgange\data/040202_REPSWITCH1_version2_list2_2023-11-16_12h09.03.371_micRespv2l2_recorded\recording_micRespv2l2_2023-11-16_12h11.51.112.wav,175.40910879999865,,None,175.40910879999865,175.40910879999865,175.40910879999865,175.40910879999865,175.40910879999865,175.40910879999865,"[1.1399201999884099, 1.2079467000439763, 1.3514623999362811, 1.4780294999945909, 1.6325888000428677, 1.7279274000320584, 1.8478668000316247]",,,,,,040202,001,2023-11-16_12h09.03.371,REPSWITCH1_version2_list2,2022.2.4,143.96422792530453,
REPSWITCH1/PICTURE_552.png,manzana,type,gold,repeat,1,T,2,3,2,2,Stim6_Set2,0,None,33,32,33,0,32,32,32,,,,,,,,,,,,,,,,,,,,,,,175.90925449994393,176.97180489997845,176.97180489997845,176.97180489997845,176.97180489997845,176.97180489997845,176.97180489997845,176.97180489997845,176.97180489997845,"['m', 'a', 'n', 'z', 'a', 'n', 'a']",0,manzana,C:\2023\REPSWITCH21092023\REPSWITCH_excgange\REPSWITCH_excgange\data/040202_REPSWITCH1_version2_list2_2023-11-16_12h09.03.371_micRespv2l2_recorded\recording_micRespv2l2_2023-11-16_12h11.55.703.wav,180.0000400999561,,None,180.0000400999561,180.0000400999561,180.0000400999561,180.0000400999561,180.0000400999561,180.0000400999561,"[0.9918591999448836, 1.095503899967298, 1.198162499931641, 1.3197573999641463, 1.488076000008732, 1.6305897999554873, 1.882913799956441]",,,,,,040202,001,2023-11-16_12h09.03.371,REPSWITCH1_version2_list2,2022.2.4,143.96422792530453,
REPSWITCH1/PICTURE_517.png,cuerda,type,gold,nontarget,1,NT,2,3,2,2,Stim4_Set2,0,None,34,33,34,0,33,33,33,,,,,,,,,,,,,,,,,,,,,,,180.5001290999353,181.53489869995974,181.53489869995974,181.53489869995974,181.53489869995974,181.53489869995974,181.53489869995974,181.53489869995974,181.53489869995974,"['c', 'u', 'e', 'r', 'd', 'a']",0,cuerda,C:\2023\REPSWITCH21092023\REPSWITCH_excgange\REPSWITCH_excgange\data/040202_REPSWITCH1_version2_list2_2023-11-16_12h09.03.371_micRespv2l2_recorded\recording_micRespv2l2_2023-11-16_12h12.00.266.wav,184.56305899994913,,None,184.56305899994913,184.56305899994913,184.56305899994913,184.56305899994913,184.56305899994913,184.56305899994913,"[0.7754469000501558, 0.8781036000000313, 0.9807693000184372, 1.058494900004007, 1.2528445000061765, 1.3903843000298366]",,,,,,040202,001,2023-11-16_12h09.03.371,REPSWITCH1_version2_list2,2022.2.4,143.96422792530453,
REPSWITCH1/PICTURE_517.png,cuerda,speak,darkblue,switch,2,T,2,3,2,2,Stim4_Set2,0,None,35,34,35,0,34,34,34,,,,,,,,,,,,,,,,,,,,,,,185.06322429992724,186.22304620000068,186.22304620000068,186.22304620000068,186.22304620000068,186.22304620000068,186.22304620000068,186.22304620000068,186.22304620000068,None,0,,C:\2023\REPSWITCH21092023\REPSWITCH_excgange\REPSWITCH_excgange\data/040202_REPSWITCH1_version2_list2_2023-11-16_12h09.03.371_micRespv2l2_recorded\recording_micRespv2l2_2023-11-16_12h12.04.954.wav,189.25120119994972,,None,189.25120119994972,189.25120119994972,189.25120119994972,189.25120119994972,189.25120119994972,189.25120119994972,,,,,,,040202,001,2023-11-16_12h09.03.371,REPSWITCH1_version2_list2,2022.2.4,143.96422792530453,
REPSWITCH1/PICTURE_169.png,espalda,speak,darkblue,filler,2,F,2,3,2,2,Stim8_Set1,1,repeat,36,35,36,0,35,35,35,,,,,,,,,,,,,,,,,,,,,,,189.7512698000064,190.93200629996136,190.93200629996136,190.93200629996136,190.93200629996136,190.93200629996136,190.93200629996136,190.93200629996136,190.93200629996136,None,0,,C:\2023\REPSWITCH21092023\REPSWITCH_excgange\REPSWITCH_excgange\data/040202_REPSWITCH1_version2_list2_2023-11-16_12h09.03.371_micRespv2l2_recorded\recording_micRespv2l2_2023-11-16_12h12.09.662.wav,193.95320759993047,194.45327129994985,None,193.95320759993047,193.95320759993047,193.95320759993047,193.95320759993047,193.95320759993047,193.95320759993047,,,,,,,040202,001,2023-11-16_12h09.03.371,REPSWITCH1_version2_list2,2022.2.4,143.96422792530453,
REPSWITCH1/PICTURE_30.png,granja,speak,darkblue,nontarget,2,NT,2,3,2,2,Stim5_Set2,1,repeat,37,36,37,0,36,36,36,,,,,,,,,,,,,,,,,,,,,,,194.45327129994985,195.5089407999767,195.5089407999767,195.5089407999767,195.5089407999767,195.5089407999767,195.5089407999767,195.5089407999767,195.5089407999767,None,0,,C:\2023\REPSWITCH21092023\REPSWITCH_excgange\REPSWITCH_excgange\data/040202_REPSWITCH1_version2_list2_2023-11-16_12h09.03.371_micRespv2l2_recorded\recording_micRespv2l2_2023-11-16_12h12.14.240.wav,198.53720969997812,,None,198.53720969997812,198.53720969997812,198.53720969997812,198.53720969997812,198.53720969997812,198.53720969997812,,,,,,,040202,001,2023-11-16_12h09.03.371,REPSWITCH1_version2_list2,2022.2.4,143.96422792530453,
REPSWITCH1/PICTURE_30.png,granja,type,gold,switch,1,T,2,3,2,2,Stim5_Set2,0,None,38,37,38,0,37,37,37,,,,,,,,,,,,,,,,,,,,,,,199.03719750000164,200.1762148999842,200.1762148999842,200.1762148999842,200.1762148999842,200.1762148999842,200.1762148999842,200.1762148999842,200.1762148999842,"['g', 'r', 'a', 'n', 'j', 'a']",0,granja,C:\2023\REPSWITCH21092023\REPSWITCH_excgange\REPSWITCH_excgange\data/040202_REPSWITCH1_version2_list2_2023-11-16_12h09.03.371_micRespv2l2_recorded\recording_micRespv2l2_2023-11-16_12h12.18.908.wav,203.204412400024,,None,203.204412400024,203.204412400024,203.204412400024,203.204412400024,203.204412400024,203.204412400024,"[0.7923700000392273, 0.8959798000287265, 1.0381762000033632, 1.1827436999883503, 1.3709894999628887, 1.4191282000392675]",,,,,,040202,001,2023-11-16_12h09.03.371,REPSWITCH1_version2_list2,2022.2.4,143.96422792530453,
REPSWITCH1/PICTURE_128.png,muñeca,type,gold,filler,1,F,2,3,2,2,Stim4_Set1,1,repeat,39,38,39,0,38,38,38,,,,,,,,,,,,,,,,,,,,,,,203.70447470003273,204.84349609992933,204.84349609992933,204.84349609992933,204.84349609992933,204.84349609992933,204.84349609992933,204.84349609992933,204.84349609992933,"['m', 'u', 'ñ', 'e', 'c', 'a']",0,muñeca,C:\2023\REPSWITCH21092023\REPSWITCH_excgange\REPSWITCH_excgange\data/040202_REPSWITCH1_version2_list2_2023-11-16_12h09.03.371_micRespv2l2_recorded\recording_micRespv2l2_2023-11-16_12h12.23.574.wav,207.87169509998057,,None,207.87169509998057,207.87169509998057,207.87169509998057,207.87169509998057,207.87169509998057,207.87169509998057,"[0.9847694000927731, 1.190067500108853, 1.4830925000132993, 1.6067990000592545, 1.819140800042078, 1.9675879999995232]",,,,,,040202,001,2023-11-16_12h09.03.371,REPSWITCH1_version2_list2,2022.2.4,143.96422792530453,
REPSWITCH1/PICTURE_199.png,falda,type,gold,nontarget,1,NT,2,3,2,2,Stim8_Set2,0,None,40,39,40,0,39,39,39,,,,,,,,,,,,,,,,,,,,,,,208.37173070001882,209.42743639997207,209.42743639997207,209.42743639997207,209.42743639997207,209.42743639997207,209.42743639997207,209.42743639997207,209.42743639997207,"['f', 'a', 'l', 'd', 'd', 'a', 'backspace', 'backspace', 'a']",0,falda,C:\2023\REPSWITCH21092023\REPSWITCH_excgange\REPSWITCH_excgange\data/040202_REPSWITCH1_version2_list2_2023-11-16_12h09.03.371_micRespv2l2_recorded\recording_micRespv2l2_2023-11-16_12h12.28.158.wav,212.455695200013,,None,212.455695200013,212.455695200013,212.455695200013,212.455695200013,212.455695200013,212.455695200013,"[0.8123754999833182, 0.9688382999738678, 1.1095785000361502, 1.195300200022757, 1.2182005000067875, 1.310899000032805, 2.0532378000207245, 2.218272399972193, 2.4028683999786153]",,,,,,040202,001,2023-11-16_12h09.03.371,REPSWITCH1_version2_list2,2022.2.4,143.96422792530453,
REPSWITCH1/PICTURE_199.png,falda,speak,darkblue,switch,2,T,2,3,2,2,Stim8_Set2,0,None,41,40,41,0,40,40,40,,,,,,,,,,,,,,,,,,,,,,,212.95568679994904,214.02529419993516,214.02529419993516,214.02529419993516,214.02529419993516,214.02529419993516,214.02529419993516,214.02529419993516,214.02529419993516,None,0,,C:\2023\REPSWITCH21092023\REPSWITCH_excgange\REPSWITCH_excgange\data/040202_REPSWITCH1_version2_list2_2023-11-16_12h09.03.371_micRespv2l2_recorded\recording_micRespv2l2_2023-11-16_12h12.32.756.wav,217.0535081999842,,None,217.0535081999842,217.0535081999842,217.0535081999842,217.0535081999842,217.0535081999842,217.0535081999842,,,,,,,040202,001,2023-11-16_12h09.03.371,REPSWITCH1_version2_list2,2022.2.4,143.96422792530453,
REPSWITCH1/PICTURE_152.png,caracol,speak,darkblue,nontarget,2,NT,2,3,2,2,Stim2_Set2,1,switch,42,41,42,0,41,41,41,,,,,,,,,,,,,,,,,,,,,,,217.5534979000222,218.5675099999644,218.5675099999644,218.5675099999644,218.5675099999644,218.5675099999644,218.5675099999644,218.5675099999644,218.5675099999644,None,0,,C:\2023\REPSWITCH21092023\REPSWITCH_excgange\REPSWITCH_excgange\data/040202_REPSWITCH1_version2_list2_2023-11-16_12h09.03.371_micRespv2l2_recorded\recording_micRespv2l2_2023-11-16_12h12.37.299.wav,221.59576489997562,,None,221.59576489997562,221.59576489997562,221.59576489997562,221.59576489997562,221.59576489997562,221.59576489997562,,,,,,,040202,001,2023-11-16_12h09.03.371,REPSWITCH1_version2_list2,2022.2.4,143.96422792530453,
REPSWITCH1/PICTURE_152.png,caracol,speak,darkblue,repeat,2,T,2,3,2,2,Stim2_Set2,0,None,43,42,43,0,42,42,42,,,,,,,,,,,,,,,,,,,,,,,222.0957341999747,223.15842009999324,223.15842009999324,223.15842009999324,223.15842009999324,223.15842009999324,223.15842009999324,223.15842009999324,223.15842009999324,None,0,,C:\2023\REPSWITCH21092023\REPSWITCH_excgange\REPSWITCH_excgange\data/040202_REPSWITCH1_version2_list2_2023-11-16_12h09.03.371_micRespv2l2_recorded\recording_micRespv2l2_2023-11-16_12h12.41.889.wav,226.17964450002182,226.6797006999841,None,226.17964450002182,226.17964450002182,226.17964450002182,226.17964450002182,226.17964450002182,226.17964450002182,,,,,,,040202,001,2023-11-16_12h09.03.371,REPSWITCH1_version2_list2,2022.2.4,143.96422792530453,
REPSWITCH1/PICTURE_381.png,fresa,type,gold,filler,1,F,2,3,2,2,Stim2_Set1,0,None,44,43,44,0,43,43,43,,,,,,,,,,,,,,,,,,,,,,,226.6797006999841,227.8257103000069,227.8257103000069,227.8257103000069,227.8257103000069,227.8257103000069,227.8257103000069,227.8257103000069,227.8257103000069,"['f', 'r', 'e', 's', 's', 'a', 'backspace', 'backspace', 'backspace', 'a', 'backspace', 's', 'a']",0,fresa,C:\2023\REPSWITCH21092023\REPSWITCH_excgange\REPSWITCH_excgange\data/040202_REPSWITCH1_version2_list2_2023-11-16_12h09.03.371_micRespv2l2_recorded\recording_micRespv2l2_2023-11-16_12h12.46.557.wav,230.853860000032,,None,230.853860000032,230.853860000032,230.853860000032,230.853860000032,230.853860000032,230.853860000032,"[0.9022141000023112, 0.9800297999754548, 1.0577491000294685, 1.2525337999686599, 1.4425040000351146, 1.518184099928476, 1.8497073999606073, 2.0271025999682024, 2.118758999975398, 2.1803787000244483, 2.6040965999709442, 2.7359858999261633, 2.8115534000098705]",,,,,,040202,001,2023-11-16_12h09.03.371,REPSWITCH1_version2_list2,2022.2.4,143.96422792530453,
REPSWITCH1/PICTURE_175.png,pintor,speak,darkblue,nontarget,2,NT,2,3,2,2,Stim1_Set2,1,switch,45,44,45,0,44,44,44,,,,,,,,,,,,,,,,,,,,,,,231.3539795000106,232.46518689999357,232.46518689999357,232.46518689999357,232.46518689999357,232.46518689999357,232.46518689999357,232.46518689999357,232.46518689999357,None,0,,C:\2023\REPSWITCH21092023\REPSWITCH_excgange\REPSWITCH_excgange\data/040202_REPSWITCH1_version2_list2_2023-11-16_12h09.03.371_micRespv2l2_recorded\recording_micRespv2l2_2023-11-16_12h12.51.196.wav,235.48637559998315,235.98647809994873,None,235.48637559998315,235.48637559998315,235.48637559998315,235.48637559998315,235.48637559998315,235.48637559998315,,,,,,,040202,001,2023-11-16_12h09.03.371,REPSWITCH1_version2_list2,2022.2.4,143.96422792530453,
REPSWITCH1/PICTURE_175.png,pintor,speak,darkblue,repeat,2,T,2,3,2,2,Stim1_Set2,0,None,46,45,46,0,45,45,45,,,,,,,,,,,,,,,,,,,,,,,235.98647809994873,237.09080270002596,237.09080270002596,237.09080270002596,237.09080270002596,237.09080270002596,237.09080270002596,237.09080270002596,237.09080270002596,None,0,,C:\2023\REPSWITCH21092023\REPSWITCH_excgange\REPSWITCH_excgange\data/040202_REPSWITCH1_version2_list2_2023-11-16_12h09.03.371_micRespv2l2_recorded\recording_micRespv2l2_2023-11-16_12h12.55.821.wav,240.11208370001987,240.61215790000279,None,240.11208370001987,240.11208370001987,240.11208370001987,240.11208370001987,240.11208370001987,240.11208370001987,,,,,,,040202,001,2023-11-16_12h09.03.371,REPSWITCH1_version2_list2,2022.2.4,143.96422792530453,
REPSWITCH1/PICTURE_178.png,puente,type,gold,filler,1,F,2,3,2,2,Stim1_Set1,0,None,47,46,47,0,46,46,46,,,,,,,,,,,,,,,,,,,,,,,240.61215790000279,241.7094334999565,241.7094334999565,241.7094334999565,241.7094334999565,241.7094334999565,241.7094334999565,241.7094334999565,241.7094334999565,"['p', 'u', 'e', 'n', 't', 'e']",0,puente,C:\2023\REPSWITCH21092023\REPSWITCH_excgange\REPSWITCH_excgange\data/040202_REPSWITCH1_version2_list2_2023-11-16_12h09.03.371_micRespv2l2_recorded\recording_micRespv2l2_2023-11-16_12h13.00.440.wav,244.73064349999186,245.2307972999988,None,244.73064349999186,244.73064349999186,244.73064349999186,244.73064349999186,244.73064349999186,244.73064349999186,"[0.9654595999745652, 1.2026090000290424, 1.2763155000284314, 1.4069106000242755, 1.4777459000470117, 1.5774255000287667]",,,,,,040202,001,2023-11-16_12h09.03.371,REPSWITCH1_version2_list2,2022.2.4,143.96422792530453,
REPSWITCH1/PICTURE_19.png,pavo,speak,darkblue,filler,2,F,2,3,2,2,Stim5_Set1,0,None,48,47,48,0,47,47,47,,,,,,,,,,,,,,,,,,,,,,,245.2307972999988,246.30042019998655,246.30042019998655,246.30042019998655,246.30042019998655,246.30042019998655,246.30042019998655,246.30042019998655,246.30042019998655,None,0,,C:\2023\REPSWITCH21092023\REPSWITCH_excgange\REPSWITCH_excgange\data/040202_REPSWITCH1_version2_list2_2023-11-16_12h09.03.371_micRespv2l2_recorded\recording_micRespv2l2_2023-11-16_12h13.05.031.wav,249.32851989998017,,None,249.32851989998017,249.32851989998017,249.32851989998017,249.32851989998017,249.32851989998017,249.32851989998017,,,,,,,040202,001,2023-11-16_12h09.03.371,REPSWITCH1_version2_list2,2022.2.4,143.96422792530453,
REPSWITCH1/PICTURE_264.png,mano,speak,darkblue,nontarget,2,NT,2,3,2,2,Stim3_Set2,1,repeat,49,48,49,0,48,48,48,,,,,,,,,,,,,,,,,,,,,,,249.82856469997205,250.99545819999184,250.99545819999184,250.99545819999184,250.99545819999184,250.99545819999184,250.99545819999184,250.99545819999184,250.99545819999184,None,0,,C:\2023\REPSWITCH21092023\REPSWITCH_excgange\REPSWITCH_excgange\data/040202_REPSWITCH1_version2_list2_2023-11-16_12h09.03.371_micRespv2l2_recorded\recording_micRespv2l2_2023-11-16_12h13.09.726.wav,254.02362360002007,,None,254.02362360002007,254.02362360002007,254.02362360002007,254.02362360002007,254.02362360002007,254.02362360002007,,,,,,,040202,001,2023-11-16_12h09.03.371,REPSWITCH1_version2_list2,2022.2.4,143.96422792530453,
REPSWITCH1/PICTURE_264.png,mano,type,gold,switch,1,T,2,3,2,2,Stim3_Set2,0,None,50,49,50,0,49,49,49,,,,,,,,,,,,,,,,,,,,,,,254.52362340001855,255.6557278999826,255.6557278999826,255.6557278999826,255.6557278999826,255.6557278999826,255.6557278999826,255.6557278999826,255.6557278999826,"['m', 'a', 'n', 'o']",0,mano,C:\2023\REPSWITCH21092023\REPSWITCH_excgange\REPSWITCH_excgange\data/040202_REPSWITCH1_version2_list2_2023-11-16_12h09.03.371_micRespv2l2_recorded\recording_micRespv2l2_2023-11-16_12h13.14.386.wav,258.6769143999554,259.17700379993767,None,258.6769143999554,258.6769143999554,258.6769143999554,258.6769143999554,258.6769143999554,258.6769143999554,"[0.9366882999893278, 1.0396628000307828, 1.140292500029318, 1.336676900042221]",,,,,,040202,001,2023-11-16_12h09.03.371,REPSWITCH1_version2_list2,2022.2.4,143.96422792530453,
REPSWITCH1/PICTURE_446.png,cerdo,type,gold,filler,1,F,3,3,2,2,Stim7_Set2,0,None,51,50,51,0,50,50,50,,,,,,,,,,,,,,,,,,,,,,,259.17700379993767,260.2604643999366,260.2604643999366,260.2604643999366,260.2604643999366,260.2604643999366,260.2604643999366,260.2604643999366,260.2604643999366,"['c', 'e', 'r', 'd', 'o']",0,cerdo,C:\2023\REPSWITCH21092023\REPSWITCH_excgange\REPSWITCH_excgange\data/040202_REPSWITCH1_version2_list2_2023-11-16_12h09.03.371_micRespv2l2_recorded\recording_micRespv2l2_2023-11-16_12h13.18.991.wav,263.28866239998024,,space,263.28866239998024,263.28866239998024,263.28866239998024,263.28866239998024,263.28866239998024,263.28866239998024,"[0.7453254000283778, 0.9331136000109836, 1.0075224000029266, 1.169289999990724, 1.2709501000354066]",263.7887019999325,263.7887019999325,5.479076399933547,,,040202,001,2023-11-16_12h09.03.371,REPSWITCH1_version2_list2,2022.2.4,143.96422792530453,
REPSWITCH1/PICTURE_235.png,aguja,type,gold,nontarget,1,NT,3,3,2,2,Stim4_Set3,1,repeat,52,51,52,0,51,51,51,,,,,,,,,,,,,,,,,,,,,,,269.27555140003096,270.36596979992464,270.36596979992464,270.36596979992464,270.36596979992464,270.36596979992464,270.36596979992464,270.36596979992464,270.36596979992464,"['a', 'g', 'u', 'j', 'a']",0,aguja,C:\2023\REPSWITCH21092023\REPSWITCH_excgange\REPSWITCH_excgange\data/040202_REPSWITCH1_version2_list2_2023-11-16_12h09.03.371_micRespv2l2_recorded\recording_micRespv2l2_2023-11-16_12h13.29.097.wav,273.3871691999957,273.88727379997727,None,273.3871691999957,273.3871691999957,273.3871691999957,273.3871691999957,273.3871691999957,273.3871691999957,"[0.8501612999243662, 0.9272406999953091, 1.610705400002189, 1.79906089999713, 1.9197614999720827]",,,,,,040202,001,2023-11-16_12h09.03.371,REPSWITCH1_version2_list2,2022.2.4,143.96422792530453,
REPSWITCH1/PICTURE_235.png,aguja,speak,darkblue,switch,2,T,3,3,2,2,Stim4_Set3,0,None,53,52,53,0,52,52,52,,,,,,,,,,,,,,,,,,,,,,,273.88727379997727,274.92214649997186,274.92214649997186,274.92214649997186,274.92214649997186,274.92214649997186,274.92214649997186,274.92214649997186,274.92214649997186,None,0,,C:\2023\REPSWITCH21092023\REPSWITCH_excgange\REPSWITCH_excgange\data/040202_REPSWITCH1_version2_list2_2023-11-16_12h09.03.371_micRespv2l2_recorded\recording_micRespv2l2_2023-11-16_12h13.33.652.wav,277.9433603999205,278.4434131999733,None,277.9433603999205,277.9433603999205,277.9433603999205,277.9433603999205,277.9433603999205,277.9433603999205,,,,,,,040202,001,2023-11-16_12h09.03.371,REPSWITCH1_version2_list2,2022.2.4,143.96422792530453,
REPSWITCH1/PICTURE_552.png,manzana,speak,darkblue,filler,2,F,3,3,2,2,Stim6_Set2,0,None,54,53,54,0,53,53,53,,,,,,,,,,,,,,,,,,,,,,,278.4434131999733,279.4504794999957,279.4504794999957,279.4504794999957,279.4504794999957,279.4504794999957,279.4504794999957,279.4504794999957,279.4504794999957,None,0,,C:\2023\REPSWITCH21092023\REPSWITCH_excgange\REPSWITCH_excgange\data/040202_REPSWITCH1_version2_list2_2023-11-16_12h09.03.371_micRespv2l2_recorded\recording_micRespv2l2_2023-11-16_12h13.38.181.wav,282.4717020000098,282.97175499994773,None,282.4717020000098,282.4717020000098,282.4717020000098,282.4717020000098,282.4717020000098,282.4717020000098,,,,,,,040202,001,2023-11-16_12h09.03.371,REPSWITCH1_version2_list2,2022.2.4,143.96422792530453,
REPSWITCH1/PICTURE_271.png,conejo,speak,darkblue,nontarget,2,NT,3,3,2,2,Stim7_Set3,1,repeat,55,54,55,0,54,54,54,,,,,,,,,,,,,,,,,,,,,,,282.97175499994773,284.1038750000298,284.1038750000298,284.1038750000298,284.1038750000298,284.1038750000298,284.1038750000298,284.1038750000298,284.1038750000298,None,0,,C:\2023\REPSWITCH21092023\REPSWITCH_excgange\REPSWITCH_excgange\data/040202_REPSWITCH1_version2_list2_2023-11-16_12h09.03.371_micRespv2l2_recorded\recording_micRespv2l2_2023-11-16_12h13.42.835.wav,287.1251531000016,287.6251820999896,None,287.1251531000016,287.1251531000016,287.1251531000016,287.1251531000016,287.1251531000016,287.1251531000016,,,,,,,040202,001,2023-11-16_12h09.03.371,REPSWITCH1_version2_list2,2022.2.4,143.96422792530453,
REPSWITCH1/PICTURE_271.png,conejo,type,gold,switch,1,T,3,3,2,2,Stim7_Set3,0,None,56,55,56,0,55,55,55,,,,,,,,,,,,,,,,,,,,,,,287.6251820999896,288.6600516999606,288.6600516999606,288.6600516999606,288.6600516999606,288.6600516999606,288.6600516999606,288.6600516999606,288.6600516999606,"['c', 'o', 'n', 'e', 'j', 'o']",0,conejo,C:\2023\REPSWITCH21092023\REPSWITCH_excgange\REPSWITCH_excgange\data/040202_REPSWITCH1_version2_list2_2023-11-16_12h09.03.371_micRespv2l2_recorded\recording_micRespv2l2_2023-11-16_12h13.47.391.wav,291.6882111999439,,None,291.6882111999439,291.6882111999439,291.6882111999439,291.6882111999439,291.6882111999439,291.6882111999439,"[0.7139472000999376, 0.8654173000250012, 1.0918904000427574, 1.1574613000266254, 1.3089605000568554, 1.4688279000110924]",,,,,,040202,001,2023-11-16_12h09.03.371,REPSWITCH1_version2_list2,2022.2.4,143.96422792530453,
REPSWITCH1/PICTURE_610.png,miel,type,gold,nontarget,1,NT,3,3,2,2,Stim2_Set3,1,repeat,57,56,57,0,56,56,56,,,,,,,,,,,,,,,,,,,,,,,292.1883356999606,293.38293319998775,293.38293319998775,293.38293319998775,293.38293319998775,293.38293319998775,293.38293319998775,293.38293319998775,293.38293319998775,"['m', 'i', 'e', 'l']",0,miel,C:\2023\REPSWITCH21092023\REPSWITCH_excgange\REPSWITCH_excgange\data/040202_REPSWITCH1_version2_list2_2023-11-16_12h09.03.371_micRespv2l2_recorded\recording_micRespv2l2_2023-11-16_12h13.52.114.wav,296.4110570999328,,None,296.4110570999328,296.4110570999328,296.4110570999328,296.4110570999328,296.4110570999328,296.4110570999328,"[0.9120872999774292, 1.117779599968344, 1.202798999962397, 1.3333948999643326]",,,,,,040202,001,2023-11-16_12h09.03.371,REPSWITCH1_version2_list2,2022.2.4,143.96422792530453,
REPSWITCH1/PICTURE_610.png,miel,speak,darkblue,switch,2,T,3,3,2,2,Stim2_Set3,0,None,58,57,58,0,57,57,57,,,,,,,,,,,,,,,,,,,,,,,296.91117530001793,297.973811200005,297.973811200005,297.973811200005,297.973811200005,297.973811200005,297.973811200005,297.973811200005,297.973811200005,None,0,,C:\2023\REPSWITCH21092023\REPSWITCH_excgange\REPSWITCH_excgange\data/040202_REPSWITCH1_version2_list2_2023-11-16_12h09.03.371_micRespv2l2_recorded\recording_micRespv2l2_2023-11-16_12h13.56.704.wav,300.9950124999741,301.49512310000136,None,300.9950124999741,300.9950124999741,300.9950124999741,300.9950124999741,300.9950124999741,300.9950124999741,,,,,,,040202,001,2023-11-16_12h09.03.371,REPSWITCH1_version2_list2,2022.2.4,143.96422792530453,
REPSWITCH1/PICTURE_199.png,falda,type,gold,filler,1,F,3,3,2,2,Stim8_Set2,0,None,59,58,59,0,58,58,58,,,,,,,,,,,,,,,,,,,,,,,301.49512310000136,302.58547579997685,302.58547579997685,302.58547579997685,302.58547579997685,302.58547579997685,302.58547579997685,302.58547579997685,302.58547579997685,"['f', 'a', 'l', 'd', 'a']",0,falda,C:\2023\REPSWITCH21092023\REPSWITCH_excgange\REPSWITCH_excgange\data/040202_REPSWITCH1_version2_list2_2023-11-16_12h09.03.371_micRespv2l2_recorded\recording_micRespv2l2_2023-11-16_12h14.01.316.wav,305.6066713000182,306.10674149997067,None,305.6066713000182,305.6066713000182,305.6066713000182,305.6066713000182,305.6066713000182,305.6066713000182,"[0.9843384999549016, 1.1537738000042737, 1.2703480999916792, 1.3402142999693751, 1.4502265000483021]",,,,,,040202,001,2023-11-16_12h09.03.371,REPSWITCH1_version2_list2,2022.2.4,143.96422792530453,
REPSWITCH1/PICTURE_464.png,goma,speak,darkblue,nontarget,2,NT,3,3,2,2,Stim6_Set3,1,switch,60,59,60,0,59,59,59,,,,,,,,,,,,,,,,,,,,,,,306.10674149997067,307.2735875999788,307.2735875999788,307.2735875999788,307.2735875999788,307.2735875999788,307.2735875999788,307.2735875999788,307.2735875999788,None,0,,C:\2023\REPSWITCH21092023\REPSWITCH_excgange\REPSWITCH_excgange\data/040202_REPSWITCH1_version2_list2_2023-11-16_12h09.03.371_micRespv2l2_recorded\recording_micRespv2l2_2023-11-16_12h14.06.004.wav,310.2947870999342,310.7948504999513,None,310.2947870999342,310.2947870999342,310.2947870999342,310.2947870999342,310.2947870999342,310.2947870999342,,,,,,,040202,001,2023-11-16_12h09.03.371,REPSWITCH1_version2_list2,2022.2.4,143.96422792530453,
REPSWITCH1/PICTURE_464.png,goma,speak,darkblue,repeat,2,T,3,3,2,2,Stim6_Set3,0,None,61,60,61,0,60,60,60,,,,,,,,,,,,,,,,,,,,,,,310.7948504999513,311.9547456,311.9547456,311.9547456,311.9547456,311.9547456,311.9547456,311.9547456,311.9547456,None,0,,C:\2023\REPSWITCH21092023\REPSWITCH_excgange\REPSWITCH_excgange\data/040202_REPSWITCH1_version2_list2_2023-11-16_12h09.03.371_micRespv2l2_recorded\recording_micRespv2l2_2023-11-16_12h14.10.685.wav,314.9759482999798,315.4760506999446,None,314.9759482999798,314.9759482999798,314.9759482999798,314.9759482999798,314.9759482999798,314.9759482999798,,,,,,,040202,001,2023-11-16_12h09.03.371,REPSWITCH1_version2_list2,2022.2.4,143.96422792530453,
REPSWITCH1/PICTURE_152.png,caracol,type,gold,filler,1,F,3,3,2,2,Stim2_Set2,0,None,62,61,62,0,61,61,61,,,,,,,,,,,,,,,,,,,,,,,315.4760506999446,316.5386756999651,316.5386756999651,316.5386756999651,316.5386756999651,316.5386756999651,316.5386756999651,316.5386756999651,316.5386756999651,"['c', 'a', 'r', 'a', 'c', 'o', 'l']",0,caracol,C:\2023\REPSWITCH21092023\REPSWITCH_excgange\REPSWITCH_excgange\data/040202_REPSWITCH1_version2_list2_2023-11-16_12h09.03.371_micRespv2l2_recorded\recording_micRespv2l2_2023-11-16_12h14.15.270.wav,319.56682730000466,,None,319.56682730000466,319.56682730000466,319.56682730000466,319.56682730000466,319.56682730000466,319.56682730000466,"[0.6900080000050366, 0.8584375999635085, 0.9837333000032231, 1.081410999991931, 1.2411687000421807, 1.9517913999734446, 2.1541207999689505]",,,,,,040202,001,2023-11-16_12h09.03.371,REPSWITCH1_version2_list2,2022.2.4,143.96422792530453,
REPSWITCH1/PICTURE_320.png,iglesia,speak,darkblue,nontarget,2,NT,3,3,2,2,Stim8_Set3,1,switch,63,62,63,0,62,62,62,,,,,,,,,,,,,,,,,,,,,,,320.066905100015,321.2337505000178,321.2337505000178,321.2337505000178,321.2337505000178,321.2337505000178,321.2337505000178,321.2337505000178,321.2337505000178,None,0,,C:\2023\REPSWITCH21092023\REPSWITCH_excgange\REPSWITCH_excgange\data/040202_REPSWITCH1_version2_list2_2023-11-16_12h09.03.371_micRespv2l2_recorded\recording_micRespv2l2_2023-11-16_12h14.19.964.wav,324.26196619996335,,None,324.26196619996335,324.26196619996335,324.26196619996335,324.26196619996335,324.26196619996335,324.26196619996335,,,,,,,040202,001,2023-11-16_12h09.03.371,REPSWITCH1_version2_list2,2022.2.4,143.96422792530453,
REPSWITCH1/PICTURE_320.png,iglesia,speak,darkblue,repeat,2,T,3,3,2,2,Stim8_Set3,0,None,64,63,64,0,63,63,63,,,,,,,,,,,,,,,,,,,,,,,324.76197140000295,325.79682129994035,325.79682129994035,325.79682129994035,325.79682129994035,325.79682129994035,325.79682129994035,325.79682129994035,325.79682129994035,None,0,,C:\2023\REPSWITCH21092023\REPSWITCH_excgange\REPSWITCH_excgange\data/040202_REPSWITCH1_version2_list2_2023-11-16_12h09.03.371_micRespv2l2_recorded\recording_micRespv2l2_2023-11-16_12h14.24.528.wav,328.82502709992696,,None,328.82502709992696,328.82502709992696,328.82502709992696,328.82502709992696,328.82502709992696,328.82502709992696,,,,,,,040202,001,2023-11-16_12h09.03.371,REPSWITCH1_version2_list2,2022.2.4,143.96422792530453,
REPSWITCH1/PICTURE_35.png,oreja,speak,darkblue,nontarget,2,NT,3,3,2,2,Stim5_Set3,0,None,65,64,65,0,64,64,64,,,,,,,,,,,,,,,,,,,,,,,329.3250789999729,330.3807520000264,330.3807520000264,330.3807520000264,330.3807520000264,330.3807520000264,330.3807520000264,330.3807520000264,330.3807520000264,None,0,,C:\2023\REPSWITCH21092023\REPSWITCH_excgange\REPSWITCH_excgange\data/040202_REPSWITCH1_version2_list2_2023-11-16_12h09.03.371_micRespv2l2_recorded\recording_micRespv2l2_2023-11-16_12h14.29.112.wav,333.4020251999609,333.9020723999711,None,333.4020251999609,333.4020251999609,333.4020251999609,333.4020251999609,333.4020251999609,333.4020251999609,,,,,,,040202,001,2023-11-16_12h09.03.371,REPSWITCH1_version2_list2,2022.2.4,143.96422792530453,
REPSWITCH1/PICTURE_35.png,oreja,type,gold,switch,1,T,3,3,2,2,Stim5_Set3,0,None,66,65,66,0,65,65,65,,,,,,,,,,,,,,,,,,,,,,,333.9020723999711,334.96471369999927,334.96471369999927,334.96471369999927,334.96471369999927,334.96471369999927,334.96471369999927,334.96471369999927,334.96471369999927,"['o', 'r', 'e', 'j', 'a']",0,oreja,C:\2023\REPSWITCH21092023\REPSWITCH_excgange\REPSWITCH_excgange\data/040202_REPSWITCH1_version2_list2_2023-11-16_12h09.03.371_micRespv2l2_recorded\recording_micRespv2l2_2023-11-16_12h14.33.695.wav,337.9859029999934,338.4860025999369,None,337.9859029999934,337.9859029999934,337.9859029999934,337.9859029999934,337.9859029999934,337.9859029999934,"[0.7751195000018924, 0.8489067000336945, 0.9385653999634087, 1.0691483999835327, 1.1987054999917746]",,,,,,040202,001,2023-11-16_12h09.03.371,REPSWITCH1_version2_list2,2022.2.4,143.96422792530453,
REPSWITCH1/PICTURE_517.png,cuerda,speak,darkblue,filler,2,F,3,3,2,2,Stim4_Set2,0,None,67,66,67,0,66,66,66,,,,,,,,,,,,,,,,,,,,,,,338.4860025999369,339.6528118000133,339.6528118000133,339.6528118000133,339.6528118000133,339.6528118000133,339.6528118000133,339.6528118000133,339.6528118000133,None,0,,C:\2023\REPSWITCH21092023\REPSWITCH_excgange\REPSWITCH_excgange\data/040202_REPSWITCH1_version2_list2_2023-11-16_12h09.03.371_micRespv2l2_recorded\recording_micRespv2l2_2023-11-16_12h14.38.384.wav,342.6809958999511,,None,342.6809958999511,342.6809958999511,342.6809958999511,342.6809958999511,342.6809958999511,342.6809958999511,,,,,,,040202,001,2023-11-16_12h09.03.371,REPSWITCH1_version2_list2,2022.2.4,143.96422792530453,
REPSWITCH1/PICTURE_30.png,granja,type,gold,filler,1,F,3,3,2,2,Stim5_Set2,1,switch,68,67,68,0,67,67,67,,,,,,,,,,,,,,,,,,,,,,,343.1810626999941,344.292334400001,344.292334400001,344.292334400001,344.292334400001,344.292334400001,344.292334400001,344.292334400001,344.292334400001,"['g', 'r', 'a', 'n', 'j', 'a']",0,granja,C:\2023\REPSWITCH21092023\REPSWITCH_excgange\REPSWITCH_excgange\data/040202_REPSWITCH1_version2_list2_2023-11-16_12h09.03.371_micRespv2l2_recorded\recording_micRespv2l2_2023-11-16_12h14.43.023.wav,347.31361599999946,347.8136569999624,None,347.31361599999946,347.31361599999946,347.31361599999946,347.31361599999946,347.31361599999946,347.31361599999946,"[0.896301900036633, 0.9631421000231057, 1.1275726000312716, 1.2601630999706686, 1.465440799947828, 1.5303105999482796]",,,,,,040202,001,2023-11-16_12h09.03.371,REPSWITCH1_version2_list2,2022.2.4,143.96422792530453,
REPSWITCH1/PICTURE_242.png,cartero,type,gold,nontarget,1,NT,3,3,2,2,Stim3_Set3,0,None,69,68,69,0,68,68,68,,,,,,,,,,,,,,,,,,,,,,,347.8136569999624,349.0360227000201,349.0360227000201,349.0360227000201,349.0360227000201,349.0360227000201,349.0360227000201,349.0360227000201,349.0360227000201,"['c', 'a', 'r', 't', 'e', 'r', 'o']",0,cartero,C:\2023\REPSWITCH21092023\REPSWITCH_excgange\REPSWITCH_excgange\data/040202_REPSWITCH1_version2_list2_2023-11-16_12h09.03.371_micRespv2l2_recorded\recording_micRespv2l2_2023-11-16_12h14.47.767.wav,352.0641710999189,,None,352.0641710999189,352.0641710999189,352.0641710999189,352.0641710999189,352.0641710999189,352.0641710999189,"[1.1776007000589743, 1.3071947999997064, 1.3859360000351444, 1.569326200056821, 1.602994800079614, 1.7150227000238374, 1.9053807000163943]",,,,,,040202,001,2023-11-16_12h09.03.371,REPSWITCH1_version2_list2,2022.2.4,143.96422792530453,
REPSWITCH1/PICTURE_242.png,cartero,type,gold,repeat,1,T,3,3,2,2,Stim3_Set3,0,None,70,69,70,0,69,69,69,,,,,,,,,,,,,,,,,,,,,,,352.5642338999314,353.69638450001366,353.69638450001366,353.69638450001366,353.69638450001366,353.69638450001366,353.69638450001366,353.69638450001366,353.69638450001366,"['c', 'a', 'r', 't', 'e', 'r', 'o']",0,cartero,C:\2023\REPSWITCH21092023\REPSWITCH_excgange\REPSWITCH_excgange\data/040202_REPSWITCH1_version2_list2_2023-11-16_12h09.03.371_micRespv2l2_recorded\recording_micRespv2l2_2023-11-16_12h14.52.427.wav,356.71751470002346,357.21762309991755,None,356.71751470002346,356.71751470002346,356.71751470002346,356.71751470002346,356.71751470002346,356.71751470002346,"[0.7005179999396205, 0.8551007999340072, 0.9459861000068486, 1.095211899955757, 1.170222399989143, 1.253013400011696, 1.421192199923098]",,,,,,040202,001,2023-11-16_12h09.03.371,REPSWITCH1_version2_list2,2022.2.4,143.96422792530453,
REPSWITCH1/PICTURE_264.png,mano,speak,darkblue,filler,2,F,3,3,2,2,Stim3_Set2,1,switch,71,70,71,0,70,70,70,,,,,,,,,,,,,,,,,,,,,,,357.21762309991755,358.2385698999278,358.2385698999278,358.2385698999278,358.2385698999278,358.2385698999278,358.2385698999278,358.2385698999278,358.2385698999278,None,0,,C:\2023\REPSWITCH21092023\REPSWITCH_excgange\REPSWITCH_excgange\data/040202_REPSWITCH1_version2_list2_2023-11-16_12h09.03.371_micRespv2l2_recorded\recording_micRespv2l2_2023-11-16_12h14.56.970.wav,361.25980020000134,361.75984650000464,None,361.25980020000134,361.25980020000134,361.25980020000134,361.25980020000134,361.25980020000134,361.25980020000134,,,,,,,040202,001,2023-11-16_12h09.03.371,REPSWITCH1_version2_list2,2022.2.4,143.96422792530453,
REPSWITCH1/PICTURE_576.png,guante,type,gold,nontarget,1,NT,3,3,2,2,Stim1_Set3,1,switch,72,71,72,0,71,71,71,,,,,,,,,,,,,,,,,,,,,,,361.75984650000464,362.78090270003304,362.78090270003304,362.78090270003304,362.78090270003304,362.78090270003304,362.78090270003304,362.78090270003304,362.78090270003304,"['g', 'u', 'a', 'n', 't', 'e']",0,guante,C:\2023\REPSWITCH21092023\REPSWITCH_excgange\REPSWITCH_excgange\data/040202_REPSWITCH1_version2_list2_2023-11-16_12h09.03.371_micRespv2l2_recorded\recording_micRespv2l2_2023-11-16_12h15.01.511.wav,365.80209180002566,366.3021405999316,None,365.80209180002566,365.80209180002566,365.80209180002566,365.80209180002566,365.80209180002566,365.80209180002566,"[1.216835999977775, 1.4260726999491453, 1.4948295999784023, 1.627359899925068, 1.9336649999022484, 2.054261800018139]",,,,,,040202,001,2023-11-16_12h09.03.371,REPSWITCH1_version2_list2,2022.2.4,143.96422792530453,
REPSWITCH1/PICTURE_576.png,guante,type,gold,repeat,1,T,3,3,2,2,Stim1_Set3,0,None,73,72,73,0,72,72,72,,,,,,,,,,,,,,,,,,,,,,,366.3021405999316,367.4342936000321,367.4342936000321,367.4342936000321,367.4342936000321,367.4342936000321,367.4342936000321,367.4342936000321,367.4342936000321,"['g', 'u', 'a', 'n', 't', 'e']",0,guante,C:\2023\REPSWITCH21092023\REPSWITCH_excgange\REPSWITCH_excgange\data/040202_REPSWITCH1_version2_list2_2023-11-16_12h09.03.371_micRespv2l2_recorded\recording_micRespv2l2_2023-11-16_12h15.06.165.wav,370.4554400999332,370.95552449999377,None,370.4554400999332,370.4554400999332,370.4554400999332,370.4554400999332,370.4554400999332,370.4554400999332,"[0.7588877999223769, 0.8698195999022573, 0.9945646999403834, 1.0832499999087304, 1.292998099932447, 1.377669099951163]",,,,,,040202,001,2023-11-16_12h09.03.371,REPSWITCH1_version2_list2,2022.2.4,143.96422792530453,
REPSWITCH1/PICTURE_175.png,pintor,speak,darkblue,filler,2,F,3,3,2,2,Stim1_Set2,0,None,74,73,74,0,73,73,73,,,,,,,,,,,,,,,,,,,,,,,370.95552449999377,372.0320408999687,372.0320408999687,372.0320408999687,372.0320408999687,372.0320408999687,372.0320408999687,372.0320408999687,372.0320408999687,None,0,,C:\2023\REPSWITCH21092023\REPSWITCH_excgange\REPSWITCH_excgange\data/040202_REPSWITCH1_version2_list2_2023-11-16_12h09.03.371_micRespv2l2_recorded\recording_micRespv2l2_2023-11-16_12h15.10.762.wav,375.05324859998655,375.5533537999727,None,375.05324859998655,375.05324859998655,375.05324859998655,375.05324859998655,375.05324859998655,375.05324859998655,,,,,,,040202,001,2023-11-16_12h09.03.371,REPSWITCH1_version2_list2,2022.2.4,143.96422792530453,
REPSWITCH1/PICTURE_498.png,taza,type,gold,nontarget,1,NT,4,3,2,2,Stim4_Set4,0,None,75,74,75,0,74,74,74,,,,,,,,,,,,,,,,,,,,,,,375.5533537999727,376.6229296999518,376.6229296999518,376.6229296999518,376.6229296999518,376.6229296999518,376.6229296999518,376.6229296999518,376.6229296999518,"['t', 'a', 'z', 'a']",0,taza,C:\2023\REPSWITCH21092023\REPSWITCH_excgange\REPSWITCH_excgange\data/040202_REPSWITCH1_version2_list2_2023-11-16_12h09.03.371_micRespv2l2_recorded\recording_micRespv2l2_2023-11-16_12h15.15.353.wav,379.6442100999411,380.1442371000303,None,379.6442100999411,379.6442100999411,379.6442100999411,379.6442100999411,379.6442100999411,379.6442100999411,"[0.8041148000629619, 0.8828441000077873, 1.063232499989681, 1.2376455999910831]",,,,,,040202,001,2023-11-16_12h09.03.371,REPSWITCH1_version2_list2,2022.2.4,143.96422792530453,
REPSWITCH1/PICTURE_498.png,taza,type,gold,repeat,1,T,4,3,2,2,Stim4_Set4,0,None,76,75,76,0,75,75,75,,,,,,,,,,,,,,,,,,,,,,,380.1442371000303,381.1930657000048,381.1930657000048,381.1930657000048,381.1930657000048,381.1930657000048,381.1930657000048,381.1930657000048,381.1930657000048,"['t', 'a', 'z', 'a']",0,taza,C:\2023\REPSWITCH21092023\REPSWITCH_excgange\REPSWITCH_excgange\data/040202_REPSWITCH1_version2_list2_2023-11-16_12h09.03.371_micRespv2l2_recorded\recording_micRespv2l2_2023-11-16_12h15.19.923.wav,384.2141714999452,384.7142664999701,None,384.2141714999452,384.2141714999452,384.2141714999452,384.2141714999452,384.2141714999452,384.2141714999452,"[0.643346400000155, 0.7562404000200331, 0.9441107999300584, 1.1354845999740064]",,,,,,040202,001,2023-11-16_12h09.03.371,REPSWITCH1_version2_list2,2022.2.4,143.96422792530453,
REPSWITCH1/PICTURE_235.png,aguja,speak,darkblue,filler,2,F,4,3,2,2,Stim4_Set3,0,None,77,76,77,0,76,76,76,,,,,,,,,,,,,,,,,,,,,,,384.7142664999701,385.7491164000239,385.7491164000239,385.7491164000239,385.7491164000239,385.7491164000239,385.7491164000239,385.7491164000239,385.7491164000239,None,0,,C:\2023\REPSWITCH21092023\REPSWITCH_excgange\REPSWITCH_excgange\data/040202_REPSWITCH1_version2_list2_2023-11-16_12h09.03.371_micRespv2l2_recorded\recording_micRespv2l2_2023-11-16_12h15.24.480.wav,388.77729749993887,,None,388.77729749993887,388.77729749993887,388.77729749993887,388.77729749993887,388.77729749993887,388.77729749993887,,,,,,,040202,001,2023-11-16_12h09.03.371,REPSWITCH1_version2_list2,2022.2.4,143.96422792530453,
REPSWITCH1/PICTURE_338.png,regalo,type,gold,nontarget,1,NT,4,3,2,2,Stim6_Set4,1,switch,78,77,78,0,77,77,77,,,,,,,,,,,,,,,,,,,,,,,389.2774272999959,390.42340129998047,390.42340129998047,390.42340129998047,390.42340129998047,390.42340129998047,390.42340129998047,390.42340129998047,390.42340129998047,"['r', 'e', 'g', 'a', 'l', 'o']",0,regalo,C:\2023\REPSWITCH21092023\REPSWITCH_excgange\REPSWITCH_excgange\data/040202_REPSWITCH1_version2_list2_2023-11-16_12h09.03.371_micRespv2l2_recorded\recording_micRespv2l2_2023-11-16_12h15.29.154.wav,393.444625300006,393.9446325999452,None,393.444625300006,393.444625300006,393.444625300006,393.444625300006,393.444625300006,393.444625300006,"[0.8844948000041768, 0.9562290000030771, 1.0698164999485016, 1.2123496000422165, 1.4067165000597015, 1.5611852000001818]",,,,,,040202,001,2023-11-16_12h09.03.371,REPSWITCH1_version2_list2,2022.2.4,143.96422792530453,
REPSWITCH1/PICTURE_338.png,regalo,speak,darkblue,switch,2,T,4,3,2,2,Stim6_Set4,0,None,79,78,79,0,78,78,78,,,,,,,,,,,,,,,,,,,,,,,393.9446325999452,395.13228479993995,395.13228479993995,395.13228479993995,395.13228479993995,395.13228479993995,395.13228479993995,395.13228479993995,395.13228479993995,None,0,,C:\2023\REPSWITCH21092023\REPSWITCH_excgange\REPSWITCH_excgange\data/040202_REPSWITCH1_version2_list2_2023-11-16_12h09.03.371_micRespv2l2_recorded\recording_micRespv2l2_2023-11-16_12h15.33.862.wav,398.1535300000105,398.65359899995383,None,398.1535300000105,398.1535300000105,398.1535300000105,398.1535300000105,398.1535300000105,398.1535300000105,,,,,,,040202,001,2023-11-16_12h09.03.371,REPSWITCH1_version2_list2,2022.2.4,143.96422792530453,
REPSWITCH1/PICTURE_719.png,baño,speak,darkblue,nontarget,2,NT,4,3,2,2,Stim2_Set4,1,repeat,80,79,80,0,79,79,79,,,,,,,,,,,,,,,,,,,,,,,398.65359899995383,399.74407609994523,399.74407609994523,399.74407609994523,399.74407609994523,399.74407609994523,399.74407609994523,399.74407609994523,399.74407609994523,None,0,,C:\2023\REPSWITCH21092023\REPSWITCH_excgange\REPSWITCH_excgange\data/040202_REPSWITCH1_version2_list2_2023-11-16_12h09.03.371_micRespv2l2_recorded\recording_micRespv2l2_2023-11-16_12h15.38.475.wav,402.77218770002946,,None,402.77218770002946,402.77218770002946,402.77218770002946,402.77218770002946,402.77218770002946,402.77218770002946,,,,,,,040202,001,2023-11-16_12h09.03.371,REPSWITCH1_version2_list2,2022.2.4,143.96422792530453,
REPSWITCH1/PICTURE_719.png,baño,speak,darkblue,repeat,2,T,4,3,2,2,Stim2_Set4,0,None,81,80,81,0,80,80,80,,,,,,,,,,,,,,,,,,,,,,,403.27225859998725,404.37662829994224,404.37662829994224,404.37662829994224,404.37662829994224,404.37662829994224,404.37662829994224,404.37662829994224,404.37662829994224,None,0,,C:\2023\REPSWITCH21092023\REPSWITCH_excgange\REPSWITCH_excgange\data/040202_REPSWITCH1_version2_list2_2023-11-16_12h09.03.371_micRespv2l2_recorded\recording_micRespv2l2_2023-11-16_12h15.43.107.wav,407.3977651000023,407.89790929993615,None,407.3977651000023,407.3977651000023,407.3977651000023,407.3977651000023,407.3977651000023,407.3977651000023,,,,,,,040202,001,2023-11-16_12h09.03.371,REPSWITCH1_version2_list2,2022.2.4,143.96422792530453,
REPSWITCH1/PICTURE_271.png,conejo,type,gold,filler,1,F,4,3,2,2,Stim7_Set3,0,None,82,81,82,0,81,81,81,,,,,,,,,,,,,,,,,,,,,,,407.89790929993615,408.97441389993764,408.97441389993764,408.97441389993764,408.97441389993764,408.97441389993764,408.97441389993764,408.97441389993764,408.97441389993764,"['c', 'o', 'n', 'e', 'j', 'o']",0,conejo,C:\2023\REPSWITCH21092023\REPSWITCH_excgange\REPSWITCH_excgange\data/040202_REPSWITCH1_version2_list2_2023-11-16_12h09.03.371_micRespv2l2_recorded\recording_micRespv2l2_2023-11-16_12h15.47.705.wav,411.9955823000055,412.49566509993747,None,411.9955823000055,411.9955823000055,411.9955823000055,411.9955823000055,411.9955823000055,411.9955823000055,"[0.6324106000829488, 0.8007788000395522, 1.0125715000322089, 1.104504800052382, 1.2131272000260651, 1.3665091000730172]",,,,,,040202,001,2023-11-16_12h09.03.371,REPSWITCH1_version2_list2,2022.2.4,143.96422792530453,
REPSWITCH1/PICTURE_610.png,miel,speak,darkblue,filler,2,F,4,3,2,2,Stim2_Set3,0,None,83,82,83,0,82,82,82,,,,,,,,,,,,,,,,,,,,,,,412.49566509993747,413.6486452999525,413.6486452999525,413.6486452999525,413.6486452999525,413.6486452999525,413.6486452999525,413.6486452999525,413.6486452999525,None,0,,C:\2023\REPSWITCH21092023\REPSWITCH_excgange\REPSWITCH_excgange\data/040202_REPSWITCH1_version2_list2_2023-11-16_12h09.03.371_micRespv2l2_recorded\recording_micRespv2l2_2023-11-16_12h15.52.379.wav,416.66980689996853,417.16990959993564,None,416.66980689996853,416.66980689996853,416.66980689996853,416.66980689996853,416.66980689996853,416.66980689996853,,,,,,,040202,001,2023-11-16_12h09.03.371,REPSWITCH1_version2_list2,2022.2.4,143.96422792530453,
REPSWITCH1/PICTURE_687.png,camisa,speak,darkblue,nontarget,2,NT,4,3,2,2,Stim5_Set4,1,repeat,84,83,84,0,83,83,83,,,,,,,,,,,,,,,,,,,,,,,417.16990959993564,418.21171219996177,418.21171219996177,418.21171219996177,418.21171219996177,418.21171219996177,418.21171219996177,418.21171219996177,418.21171219996177,None,0,,C:\2023\REPSWITCH21092023\REPSWITCH_excgange\REPSWITCH_excgange\data/040202_REPSWITCH1_version2_list2_2023-11-16_12h09.03.371_micRespv2l2_recorded\recording_micRespv2l2_2023-11-16_12h15.56.942.wav,421.23985929996707,,None,421.23985929996707,421.23985929996707,421.23985929996707,421.23985929996707,421.23985929996707,421.23985929996707,,,,,,,040202,001,2023-11-16_12h09.03.371,REPSWITCH1_version2_list2,2022.2.4,143.96422792530453,
REPSWITCH1/PICTURE_687.png,camisa,type,gold,switch,1,T,4,3,2,2,Stim5_Set4,0,None,85,84,85,0,84,84,84,,,,,,,,,,,,,,,,,,,,,,,421.73994290002156,422.8095379000297,422.8095379000297,422.8095379000297,422.8095379000297,422.8095379000297,422.8095379000297,422.8095379000297,422.8095379000297,"['c', 'a', 'm', 'i', 's', 'a']",0,camisa,C:\2023\REPSWITCH21092023\REPSWITCH_excgange\REPSWITCH_excgange\data/040202_REPSWITCH1_version2_list2_2023-11-16_12h09.03.371_micRespv2l2_recorded\recording_micRespv2l2_2023-11-16_12h16.01.539.wav,425.83074389991816,426.3308712999569,None,425.83074389991816,425.83074389991816,425.83074389991816,425.83074389991816,425.83074389991816,425.83074389991816,"[0.7491732999915257, 0.8927239999175072, 0.9708636999130249, 1.140313999960199, 1.1911416999064386, 1.2559261999558657]",,,,,,040202,001,2023-11-16_12h09.03.371,REPSWITCH1_version2_list2,2022.2.4,143.96422792530453,
REPSWITCH1/PICTURE_319.png,vaca,type,gold,nontarget,1,NT,4,3,2,2,Stim1_Set4,0,None,86,85,86,0,85,85,85,,,,,,,,,,,,,,,,,,,,,,,426.3308712999569,427.3865991999628,427.3865991999628,427.3865991999628,427.3865991999628,427.3865991999628,427.3865991999628,427.3865991999628,427.3865991999628,"['v', 'a', 'c', 'a']",0,vaca,C:\2023\REPSWITCH21092023\REPSWITCH_excgange\REPSWITCH_excgange\data/040202_REPSWITCH1_version2_list2_2023-11-16_12h09.03.371_micRespv2l2_recorded\recording_micRespv2l2_2023-11-16_12h16.06.118.wav,430.41467530000955,,None,430.41467530000955,430.41467530000955,430.41467530000955,430.41467530000955,430.41467530000955,430.41467530000955,"[0.8546131000621244, 0.9293698000255972, 1.2134481000248343, 1.3985556999687105]",,,,,,040202,001,2023-11-16_12h09.03.371,REPSWITCH1_version2_list2,2022.2.4,143.96422792530453,
REPSWITCH1/PICTURE_319.png,vaca,speak,darkblue,switch,2,T,4,3,2,2,Stim1_Set4,0,None,87,86,87,0,86,86,86,,,,,,,,,,,,,,,,,,,,,,,430.914728899952,431.99831609998364,431.99831609998364,431.99831609998364,431.99831609998364,431.99831609998364,431.99831609998364,431.99831609998364,431.99831609998364,None,0,,C:\2023\REPSWITCH21092023\REPSWITCH_excgange\REPSWITCH_excgange\data/040202_REPSWITCH1_version2_list2_2023-11-16_12h09.03.371_micRespv2l2_recorded\recording_micRespv2l2_2023-11-16_12h16.10.729.wav,435.026400999981,,None,435.026400999981,435.026400999981,435.026400999981,435.026400999981,435.026400999981,435.026400999981,,,,,,,040202,001,2023-11-16_12h09.03.371,REPSWITCH1_version2_list2,2022.2.4,143.96422792530453,
REPSWITCH1/PICTURE_464.png,goma,type,gold,filler,1,F,4,3,2,2,Stim6_Set3,1,switch,88,87,88,0,87,87,87,,,,,,,,,,,,,,,,,,,,,,,435.5264809000073,436.5821780000115,436.5821780000115,436.5821780000115,436.5821780000115,436.5821780000115,436.5821780000115,436.5821780000115,436.5821780000115,"['f', 'g', 'backspace', 'g', 'o', 'm', 'a']",0,goma,C:\2023\REPSWITCH21092023\REPSWITCH_excgange\REPSWITCH_excgange\data/040202_REPSWITCH1_version2_list2_2023-11-16_12h09.03.371_micRespv2l2_recorded\recording_micRespv2l2_2023-11-16_12h16.15.313.wav,439.6034079999663,440.10347329999786,None,439.6034079999663,439.6034079999663,439.6034079999663,439.6034079999663,439.6034079999663,439.6034079999663,"[0.8021275999490172, 0.8031153000192717, 1.2535188000183553, 1.5933438999345526, 1.8534779000328854, 2.0199318999657407, 2.079725999967195]",,,,,,040202,001,2023-11-16_12h09.03.371,REPSWITCH1_version2_list2,2022.2.4,143.96422792530453,
REPSWITCH1/PICTURE_728.png,pulpo,speak,darkblue,nontarget,2,NT,4,3,2,2,Stim8_Set4,1,switch,89,88,89,0,88,88,88,,,,,,,,,,,,,,,,,,,,,,,440.10347329999786,441.20776299992576,441.20776299992576,441.20776299992576,441.20776299992576,441.20776299992576,441.20776299992576,441.20776299992576,441.20776299992576,None,0,,C:\2023\REPSWITCH21092023\REPSWITCH_excgange\REPSWITCH_excgange\data/040202_REPSWITCH1_version2_list2_2023-11-16_12h09.03.371_micRespv2l2_recorded\recording_micRespv2l2_2023-11-16_12h16.19.939.wav,444.2359527000226,,None,444.2359527000226,444.2359527000226,444.2359527000226,444.2359527000226,444.2359527000226,444.2359527000226,,,,,,,040202,001,2023-11-16_12h09.03.371,REPSWITCH1_version2_list2,2022.2.4,143.96422792530453,
REPSWITCH1/PICTURE_728.png,pulpo,speak,darkblue,repeat,2,T,4,3,2,2,Stim8_Set4,0,None,90,89,90,0,89,89,89,,,,,,,,,,,,,,,,,,,,,,,444.73601879994385,445.8473471000325,445.8473471000325,445.8473471000325,445.8473471000325,445.8473471000325,445.8473471000325,445.8473471000325,445.8473471000325,None,0,,C:\2023\REPSWITCH21092023\REPSWITCH_excgange\REPSWITCH_excgange\data/040202_REPSWITCH1_version2_list2_2023-11-16_12h09.03.371_micRespv2l2_recorded\recording_micRespv2l2_2023-11-16_12h16.24.578.wav,448.8754458000185,,None,448.8754458000185,448.8754458000185,448.8754458000185,448.8754458000185,448.8754458000185,448.8754458000185,,,,,,,040202,001,2023-11-16_12h09.03.371,REPSWITCH1_version2_list2,2022.2.4,143.96422792530453,
REPSWITCH1/PICTURE_320.png,iglesia,type,gold,filler,1,F,4,3,2,2,Stim8_Set3,0,None,91,90,91,0,90,90,90,,,,,,,,,,,,,,,,,,,,,,,449.37551289994735,450.48682550003286,450.48682550003286,450.48682550003286,450.48682550003286,450.48682550003286,450.48682550003286,450.48682550003286,450.48682550003286,"['i', 'g', 'l', 'e', 's', 'i', 'a']",0,iglesia,C:\2023\REPSWITCH21092023\REPSWITCH_excgange\REPSWITCH_excgange\data/040202_REPSWITCH1_version2_list2_2023-11-16_12h09.03.371_micRespv2l2_recorded\recording_micRespv2l2_2023-11-16_12h16.29.217.wav,453.508075300022,454.00807470001746,None,453.508075300022,453.508075300022,453.508075300022,453.508075300022,453.508075300022,453.508075300022,"[1.0608437999617308, 1.1614690999267623, 1.2780447999248281, 1.364765099948272, 1.5378726999042556, 1.6276118999812752, 1.7591664999490604]",,,,,,040202,001,2023-11-16_12h09.03.371,REPSWITCH1_version2_list2,2022.2.4,143.96422792530453,
REPSWITCH1/PICTURE_576.png,guante,speak,darkblue,filler,2,F,4,3,2,2,Stim1_Set3,0,None,92,91,92,0,91,91,91,,,,,,,,,,,,,,,,,,,,,,,454.00807470001746,455.18884109996725,455.18884109996725,455.18884109996725,455.18884109996725,455.18884109996725,455.18884109996725,455.18884109996725,455.18884109996725,None,0,,C:\2023\REPSWITCH21092023\REPSWITCH_excgange\REPSWITCH_excgange\data/040202_REPSWITCH1_version2_list2_2023-11-16_12h09.03.371_micRespv2l2_recorded\recording_micRespv2l2_2023-11-16_12h16.33.919.wav,458.2099847999634,458.71003489999566,None,458.2099847999634,458.2099847999634,458.2099847999634,458.2099847999634,458.2099847999634,458.2099847999634,,,,,,,040202,001,2023-11-16_12h09.03.371,REPSWITCH1_version2_list2,2022.2.4,143.96422792530453,
REPSWITCH1/PICTURE_8.png,pierna,speak,darkblue,nontarget,2,NT,4,3,2,2,Stim3_Set4,1,repeat,93,92,93,0,92,92,92,,,,,,,,,,,,,,,,,,,,,,,458.71003489999566,459.82131179992575,459.82131179992575,459.82131179992575,459.82131179992575,459.82131179992575,459.82131179992575,459.82131179992575,459.82131179992575,None,0,,C:\2023\REPSWITCH21092023\REPSWITCH_excgange\REPSWITCH_excgange\data/040202_REPSWITCH1_version2_list2_2023-11-16_12h09.03.371_micRespv2l2_recorded\recording_micRespv2l2_2023-11-16_12h16.38.551.wav,462.8425631999271,463.34259619994555,None,462.8425631999271,462.8425631999271,462.8425631999271,462.8425631999271,462.8425631999271,462.8425631999271,,,,,,,040202,001,2023-11-16_12h09.03.371,REPSWITCH1_version2_list2,2022.2.4,143.96422792530453,
REPSWITCH1/PICTURE_8.png,pierna,type,gold,switch,1,T,4,3,2,2,Stim3_Set4,0,None,94,93,94,0,93,93,93,,,,,,,,,,,,,,,,,,,,,,,463.34259619994555,464.3705620999681,464.3705620999681,464.3705620999681,464.3705620999681,464.3705620999681,464.3705620999681,464.3705620999681,464.3705620999681,"['p', 'i', 'e', 'r', 'n', 'a']",0,pierna,C:\2023\REPSWITCH21092023\REPSWITCH_excgange\REPSWITCH_excgange\data/040202_REPSWITCH1_version2_list2_2023-11-16_12h09.03.371_micRespv2l2_recorded\recording_micRespv2l2_2023-11-16_12h16.43.101.wav,467.39172650000546,467.8918032000074,None,467.39172650000546,467.39172650000546,467.39172650000546,467.39172650000546,467.39172650000546,467.39172650000546,"[0.738974199979566, 0.9433876000111923, 1.0184728000313044, 1.091195399989374, 1.266640100046061, 1.3663111999630928]",,,,,,040202,001,2023-11-16_12h09.03.371,REPSWITCH1_version2_list2,2022.2.4,143.96422792530453,
REPSWITCH1/PICTURE_673.png,tenedor,speak,darkblue,filler,2,F,4,3,2,2,Extra5,0,None,95,94,95,0,94,94,94,,,,,,,,,,,,,,,,,,,,,,,467.8918032000074,469.0586218999233,469.0586218999233,469.0586218999233,469.0586218999233,469.0586218999233,469.0586218999233,469.0586218999233,469.0586218999233,None,0,,C:\2023\REPSWITCH21092023\REPSWITCH_excgange\REPSWITCH_excgange\data/040202_REPSWITCH1_version2_list2_2023-11-16_12h09.03.371_micRespv2l2_recorded\recording_micRespv2l2_2023-11-16_12h16.47.790.wav,472.08679760002997,,None,472.08679760002997,472.08679760002997,472.08679760002997,472.08679760002997,472.08679760002997,472.08679760002997,,,,,,,040202,001,2023-11-16_12h09.03.371,REPSWITCH1_version2_list2,2022.2.4,143.96422792530453,
REPSWITCH1/PICTURE_35.png,oreja,type,gold,filler,1,F,4,3,2,2,Stim5_Set3,1,switch,96,95,96,0,95,95,95,,,,,,,,,,,,,,,,,,,,,,,472.5868854,473.6842431999976,473.6842431999976,473.6842431999976,473.6842431999976,473.6842431999976,473.6842431999976,473.6842431999976,473.6842431999976,"['o', 'r', 'e', 'j', 'a']",0,oreja,C:\2023\REPSWITCH21092023\REPSWITCH_excgange\REPSWITCH_excgange\data/040202_REPSWITCH1_version2_list2_2023-11-16_12h09.03.371_micRespv2l2_recorded\recording_micRespv2l2_2023-11-16_12h16.52.415.wav,476.70548569993116,477.20557270001154,None,476.70548569993116,476.70548569993116,476.70548569993116,476.70548569993116,476.70548569993116,476.70548569993116,"[1.1178186000324786, 1.1776228999951854, 1.2624906999990344, 1.373173699947074, 1.5205623999936506]",,,,,,040202,001,2023-11-16_12h09.03.371,REPSWITCH1_version2_list2,2022.2.4,143.96422792530453,
REPSWITCH1/PICTURE_663.png,columna,speak,darkblue,filler,2,F,4,3,2,2,Extra6,0,None,97,96,97,0,96,96,96,,,,,,,,,,,,,,,,,,,,,,,477.20557270001154,478.3029677999439,478.3029677999439,478.3029677999439,478.3029677999439,478.3029677999439,478.3029677999439,478.3029677999439,478.3029677999439,None,0,,C:\2023\REPSWITCH21092023\REPSWITCH_excgange\REPSWITCH_excgange\data/040202_REPSWITCH1_version2_list2_2023-11-16_12h09.03.371_micRespv2l2_recorded\recording_micRespv2l2_2023-11-16_12h16.57.033.wav,481.32414179993793,481.8242924999213,None,481.32414179993793,481.32414179993793,481.32414179993793,481.32414179993793,481.32414179993793,481.32414179993793,,,,,,,040202,001,2023-11-16_12h09.03.371,REPSWITCH1_version2_list2,2022.2.4,143.96422792530453,
REPSWITCH1/PICTURE_242.png,cartero,type,gold,filler,1,F,4,3,2,2,Stim3_Set3,1,switch,98,97,98,0,97,97,97,,,,,,,,,,,,,,,,,,,,,,,481.8242924999213,482.92162209993694,482.92162209993694,482.92162209993694,482.92162209993694,482.92162209993694,482.92162209993694,482.92162209993694,482.92162209993694,"['c', 'a', 'r', 't', 'e', 'r', 'o']",0,cartero,C:\2023\REPSWITCH21092023\REPSWITCH_excgange\REPSWITCH_excgange\data/040202_REPSWITCH1_version2_list2_2023-11-16_12h09.03.371_micRespv2l2_recorded\recording_micRespv2l2_2023-11-16_12h17.01.653.wav,485.94281439995393,486.44284389994573,None,485.94281439995393,485.94281439995393,485.94281439995393,485.94281439995393,485.94281439995393,485.94281439995393,"[1.1284803000744432, 1.293357500107959, 1.3622280000708997, 1.52560680010356, 1.5764493000460789, 1.6664175000041723, 1.8331388001097366]",,,,,,040202,001,2023-11-16_12h09.03.371,REPSWITCH1_version2_list2,2022.2.4,143.96422792530453,
REPSWITCH1/PICTURE_48.png,bombero,type,gold,nontarget,1,NT,4,3,2,2,Stim7_Set4,1,repeat,99,98,99,0,98,98,98,,,,,,,,,,,,,,,,,,,,,,,486.44284389994573,487.60975730000064,487.60975730000064,487.60975730000064,487.60975730000064,487.60975730000064,487.60975730000064,487.60975730000064,487.60975730000064,"['b', 'o', 'm', 'b', 'e', 'r', 'o']",0,bombero,C:\2023\REPSWITCH21092023\REPSWITCH_excgange\REPSWITCH_excgange\data/040202_REPSWITCH1_version2_list2_2023-11-16_12h09.03.371_micRespv2l2_recorded\recording_micRespv2l2_2023-11-16_12h17.06.341.wav,490.6378437000094,,None,490.6378437000094,490.6378437000094,490.6378437000094,490.6378437000094,490.6378437000094,490.6378437000094,"[0.7746383999474347, 1.00383179995697, 1.212168199941516, 1.4364183000288904, 1.516484700026922, 1.594223599997349, 1.6959303999319673]",,,,,,040202,001,2023-11-16_12h09.03.371,REPSWITCH1_version2_list2,2022.2.4,143.96422792530453,
REPSWITCH1/PICTURE_48.png,bombero,type,gold,repeat,1,T,4,3,2,2,Stim7_Set4,0,None,100,99,100,0,99,99,99,,,,,,,,,,,,,,,,,,,,,,,491.1379289999604,492.2074940999737,492.2074940999737,492.2074940999737,492.2074940999737,492.2074940999737,492.2074940999737,492.2074940999737,492.2074940999737,"['b', 'o', 'm', 'b', 'e', 'r', 'o']",0,bombero,C:\2023\REPSWITCH21092023\REPSWITCH_excgange\REPSWITCH_excgange\data/040202_REPSWITCH1_version2_list2_2023-11-16_12h09.03.371_micRespv2l2_recorded\recording_micRespv2l2_2023-11-16_12h17.10.937.wav,495.22871779999696,495.72884589992464,None,495.22871779999696,495.22871779999696,495.22871779999696,495.22871779999696,495.22871779999696,495.22871779999696,"[0.9012512000044808, 1.027822699979879, 1.225934199988842, 1.4212482000002638, 1.5299260000465438, 1.5767306999769062, 1.7063861000351608]",,,,,,040202,001,2023-11-16_12h09.03.371,REPSWITCH1_version2_list2,2022.2.4,143.96422792530453,
REPSWITCH1/PICTURE_391.png,cadena,speak,darkblue,filler,2,F,4,3,2,2,Extra2,0,None,101,100,101,0,100,100,100,,,,,,,,,,,,,,,,,,,,,,,495.72884589992464,496.74977320001926,496.74977320001926,496.74977320001926,496.74977320001926,496.74977320001926,496.74977320001926,496.74977320001926,496.74977320001926,None,0,,C:\2023\REPSWITCH21092023\REPSWITCH_excgange\REPSWITCH_excgange\data/040202_REPSWITCH1_version2_list2_2023-11-16_12h09.03.371_micRespv2l2_recorded\recording_micRespv2l2_2023-11-16_12h17.15.481.wav,499.77794960001484,,None,499.77794960001484,499.77794960001484,499.77794960001484,499.77794960001484,499.77794960001484,499.77794960001484,,,,,,,040202,001,2023-11-16_12h09.03.371,REPSWITCH1_version2_list2,2022.2.4,143.96422792530453,
REPSWITCH1/PICTURE_590.png,escoba,type,gold,filler,1,F,4,3,2,2,Extra3,0,None,102,101,102,0,101,101,101,,,,,,,,,,,,,,,,,,,,,,,500.27802039997187,501.3059410999995,501.3059410999995,501.3059410999995,501.3059410999995,501.3059410999995,501.3059410999995,501.3059410999995,501.3059410999995,"['e', 's', 'c', 'o', 'b', 'a']",0,escoba,C:\2023\REPSWITCH21092023\REPSWITCH_excgange\REPSWITCH_excgange\data/040202_REPSWITCH1_version2_list2_2023-11-16_12h09.03.371_micRespv2l2_recorded\recording_micRespv2l2_2023-11-16_12h17.20.037.wav,504.33410350000486,,space,504.33410350000486,504.33410350000486,504.33410350000486,504.33410350000486,504.33410350000486,504.33410350000486,"[0.7324023999972269, 0.8898383999476209, 1.223720800015144, 1.8195792000042275, 2.1276852999581024, 2.263173499959521]",504.83423859998584,504.83423859998584,4.172538100043312,,,040202,001,2023-11-16_12h09.03.371,REPSWITCH1_version2_list2,2022.2.4,143.96422792530453,
REPSWITCH1/PICTURE_340.png,espejo,type,gold,filler,1,F,1,1,2,2,Extra1,0,None,103,102,1,0,102,102,102,,,,,,,,,,,,,,,,,,,,,,,509.0152678999584,510.0779213999631,510.0779213999631,510.0779213999631,510.0779213999631,510.0779213999631,510.0779213999631,510.0779213999631,510.0779213999631,"['e', 's', 'p', 'e', 'j', 'o']",0,espejo,C:\2023\REPSWITCH21092023\REPSWITCH_excgange\REPSWITCH_excgange\data/040202_REPSWITCH1_version2_list2_2023-11-16_12h09.03.371_micRespv2l2_recorded\recording_micRespv2l2_2023-11-16_12h17.28.809.wav,513.0992077999981,513.5992040999699,None,513.0992077999981,513.0992077999981,513.0992077999981,513.0992077999981,513.0992077999981,513.0992077999981,"[0.6650925000431016, 0.8256532000377774, 0.9233122000005096, 1.032533899997361, 1.4505858999909833, 1.7046945000765845]",,,,,,040202,001,2023-11-16_12h09.03.371,REPSWITCH1_version2_list2,2022.2.4,143.96422792530453,
REPSWITCH1/PICTURE_391.png,cadena,speak,darkblue,filler,2,F,1,1,2,2,Extra2,0,None,104,103,2,0,103,103,103,,,,,,,,,,,,,,,,,,,,,,,513.5992040999699,514.6410864000209,514.6410864000209,514.6410864000209,514.6410864000209,514.6410864000209,514.6410864000209,514.6410864000209,514.6410864000209,None,0,,C:\2023\REPSWITCH21092023\REPSWITCH_excgange\REPSWITCH_excgange\data/040202_REPSWITCH1_version2_list2_2023-11-16_12h09.03.371_micRespv2l2_recorded\recording_micRespv2l2_2023-11-16_12h17.33.372.wav,517.6691832999932,,None,517.6691832999932,517.6691832999932,517.6691832999932,517.6691832999932,517.6691832999932,517.6691832999932,,,,,,,040202,001,2023-11-16_12h09.03.371,REPSWITCH1_version2_list2,2022.2.4,143.96422792530453,
REPSWITCH1/PICTURE_178.png,puente,speak,darkblue,nontarget,2,NT,1,1,2,2,Stim1_Set1,1,repeat,105,104,3,0,104,104,104,,,,,,,,,,,,,,,,,,,,,,,518.1692539999494,519.3152387000155,519.3152387000155,519.3152387000155,519.3152387000155,519.3152387000155,519.3152387000155,519.3152387000155,519.3152387000155,None,0,,C:\2023\REPSWITCH21092023\REPSWITCH_excgange\REPSWITCH_excgange\data/040202_REPSWITCH1_version2_list2_2023-11-16_12h09.03.371_micRespv2l2_recorded\recording_micRespv2l2_2023-11-16_12h17.38.046.wav,522.3434107999783,,None,522.3434107999783,522.3434107999783,522.3434107999783,522.3434107999783,522.3434107999783,522.3434107999783,,,,,,,040202,001,2023-11-16_12h09.03.371,REPSWITCH1_version2_list2,2022.2.4,143.96422792530453,
REPSWITCH1/PICTURE_178.png,puente,speak,darkblue,repeat,2,T,1,1,2,2,Stim1_Set1,0,None,106,105,4,0,105,105,105,,,,,,,,,,,,,,,,,,,,,,,522.8434670999413,523.9477968999417,523.9477968999417,523.9477968999417,523.9477968999417,523.9477968999417,523.9477968999417,523.9477968999417,523.9477968999417,None,0,,C:\2023\REPSWITCH21092023\REPSWITCH_excgange\REPSWITCH_excgange\data/040202_REPSWITCH1_version2_list2_2023-11-16_12h09.03.371_micRespv2l2_recorded\recording_micRespv2l2_2023-11-16_12h17.42.678.wav,526.9760300000198,,None,526.9760300000198,526.9760300000198,526.9760300000198,526.9760300000198,526.9760300000198,526.9760300000198,,,,,,,040202,001,2023-11-16_12h09.03.371,REPSWITCH1_version2_list2,2022.2.4,143.96422792530453,
REPSWITCH1/PICTURE_319.png,vaca,type,gold,filler,1,F,1,1,2,2,Stim1_Set4,0,None,107,106,5,0,106,106,106,,,,,,,,,,,,,,,,,,,,,,,527.4760882999981,528.5872660999885,528.5872660999885,528.5872660999885,528.5872660999885,528.5872660999885,528.5872660999885,528.5872660999885,528.5872660999885,"['v', 'a', 'c', 'a']",0,vaca,C:\2023\REPSWITCH21092023\REPSWITCH_excgange\REPSWITCH_excgange\data/040202_REPSWITCH1_version2_list2_2023-11-16_12h09.03.371_micRespv2l2_recorded\recording_micRespv2l2_2023-11-16_12h17.47.317.wav,531.6085937999887,532.1085598999634,None,531.6085937999887,531.6085937999887,531.6085937999887,531.6085937999887,531.6085937999887,531.6085937999887,"[0.7671703000087291, 0.8419131999835372, 0.9535426000365987, 1.0542275999905542]",,,,,,040202,001,2023-11-16_12h09.03.371,REPSWITCH1_version2_list2,2022.2.4,143.96422792530453,
REPSWITCH1/PICTURE_381.png,fresa,speak,darkblue,nontarget,2,NT,1,1,2,2,Stim2_Set1,1,switch,108,107,6,0,107,107,107,,,,,,,,,,,,,,,,,,,,,,,532.1085598999634,533.2684622999514,533.2684622999514,533.2684622999514,533.2684622999514,533.2684622999514,533.2684622999514,533.2684622999514,533.2684622999514,None,0,,C:\2023\REPSWITCH21092023\REPSWITCH_excgange\REPSWITCH_excgange\data/040202_REPSWITCH1_version2_list2_2023-11-16_12h09.03.371_micRespv2l2_recorded\recording_micRespv2l2_2023-11-16_12h17.52.000.wav,536.296591799939,,None,536.296591799939,536.296591799939,536.296591799939,536.296591799939,536.296591799939,536.296591799939,,,,,,,040202,001,2023-11-16_12h09.03.371,REPSWITCH1_version2_list2,2022.2.4,143.96422792530453,
REPSWITCH1/PICTURE_381.png,fresa,speak,darkblue,repeat,2,T,1,1,2,2,Stim2_Set1,0,None,109,108,7,0,108,108,108,,,,,,,,,,,,,,,,,,,,,,,536.7966466000071,537.9288015000056,537.9288015000056,537.9288015000056,537.9288015000056,537.9288015000056,537.9288015000056,537.9288015000056,537.9288015000056,None,0,,C:\2023\REPSWITCH21092023\REPSWITCH_excgange\REPSWITCH_excgange\data/040202_REPSWITCH1_version2_list2_2023-11-16_12h09.03.371_micRespv2l2_recorded\recording_micRespv2l2_2023-11-16_12h17.56.659.wav,540.9500068000052,541.4500767999562,None,540.9500068000052,540.9500068000052,540.9500068000052,540.9500068000052,540.9500068000052,540.9500068000052,,,,,,,040202,001,2023-11-16_12h09.03.371,REPSWITCH1_version2_list2,2022.2.4,143.96422792530453,
REPSWITCH1/PICTURE_719.png,baño,type,gold,filler,1,F,1,1,2,2,Stim2_Set4,1,switch,110,109,8,0,109,109,109,,,,,,,,,,,,,,,,,,,,,,,541.4500767999562,542.5613375999965,542.5613375999965,542.5613375999965,542.5613375999965,542.5613375999965,542.5613375999965,542.5613375999965,542.5613375999965,"['b', 'a', 'ñ', 'o']",0,baño,C:\2023\REPSWITCH21092023\REPSWITCH_excgange\REPSWITCH_excgange\data/040202_REPSWITCH1_version2_list2_2023-11-16_12h09.03.371_micRespv2l2_recorded\recording_micRespv2l2_2023-11-16_12h18.01.292.wav,545.5825384999625,546.0825954999309,None,545.5825384999625,545.5825384999625,545.5825384999625,545.5825384999625,545.5825384999625,545.5825384999625,"[0.8004861000226811, 0.8912630999693647, 1.1393909000325948, 1.34221259993501]",,,,,,040202,001,2023-11-16_12h09.03.371,REPSWITCH1_version2_list2,2022.2.4,143.96422792530453,
REPSWITCH1/PICTURE_135.png,traje,speak,darkblue,nontarget,2,NT,1,1,2,2,Stim3_Set1,0,None,111,110,9,0,110,110,110,,,,,,,,,,,,,,,,,,,,,,,546.0825954999309,547.1383339000167,547.1383339000167,547.1383339000167,547.1383339000167,547.1383339000167,547.1383339000167,547.1383339000167,547.1383339000167,None,0,,C:\2023\REPSWITCH21092023\REPSWITCH_excgange\REPSWITCH_excgange\data/040202_REPSWITCH1_version2_list2_2023-11-16_12h09.03.371_micRespv2l2_recorded\recording_micRespv2l2_2023-11-16_12h18.05.869.wav,550.1595519999973,550.6596038999269,None,550.1595519999973,550.1595519999973,550.1595519999973,550.1595519999973,550.1595519999973,550.1595519999973,,,,,,,040202,001,2023-11-16_12h09.03.371,REPSWITCH1_version2_list2,2022.2.4,143.96422792530453,
REPSWITCH1/PICTURE_135.png,traje,type,gold,switch,1,T,1,1,2,2,Stim3_Set1,0,None,112,111,10,0,111,111,111,,,,,,,,,,,,,,,,,,,,,,,550.6596038999269,551.8472684000153,551.8472684000153,551.8472684000153,551.8472684000153,551.8472684000153,551.8472684000153,551.8472684000153,551.8472684000153,"['t', 'r', 'a', 'j', 'e']",0,traje,C:\2023\REPSWITCH21092023\REPSWITCH_excgange\REPSWITCH_excgange\data/040202_REPSWITCH1_version2_list2_2023-11-16_12h09.03.371_micRespv2l2_recorded\recording_micRespv2l2_2023-11-16_12h18.10.577.wav,554.8684980999678,555.3685411999468,None,554.8684980999678,554.8684980999678,554.8684980999678,554.8684980999678,554.8684980999678,554.8684980999678,"[0.7879320000065491, 0.9404137999517843, 1.0141459999140352, 1.3004647999769077, 1.3812259999103844]",,,,,,040202,001,2023-11-16_12h09.03.371,REPSWITCH1_version2_list2,2022.2.4,143.96422792530453,
REPSWITCH1/PICTURE_687.png,camisa,speak,darkblue,filler,2,F,1,1,2,2,Stim5_Set4,0,None,113,112,11,0,112,112,112,,,,,,,,,,,,,,,,,,,,,,,555.3685411999468,556.4868292999454,556.4868292999454,556.4868292999454,556.4868292999454,556.4868292999454,556.4868292999454,556.4868292999454,556.4868292999454,None,0,,C:\2023\REPSWITCH21092023\REPSWITCH_excgange\REPSWITCH_excgange\data/040202_REPSWITCH1_version2_list2_2023-11-16_12h09.03.371_micRespv2l2_recorded\recording_micRespv2l2_2023-11-16_12h18.15.218.wav,559.5150052999379,,None,559.5150052999379,559.5150052999379,559.5150052999379,559.5150052999379,559.5150052999379,559.5150052999379,,,,,,,040202,001,2023-11-16_12h09.03.371,REPSWITCH1_version2_list2,2022.2.4,143.96422792530453,
REPSWITCH1/PICTURE_128.png,muñeca,type,gold,nontarget,1,NT,1,1,2,2,Stim4_Set1,1,switch,114,113,12,0,113,113,113,,,,,,,,,,,,,,,,,,,,,,,560.0150357999373,561.1679552999558,561.1679552999558,561.1679552999558,561.1679552999558,561.1679552999558,561.1679552999558,561.1679552999558,561.1679552999558,"['m', 'u', 'ñ', 'e', 'c', 'a']",0,muñeca,C:\2023\REPSWITCH21092023\REPSWITCH_excgange\REPSWITCH_excgange\data/040202_REPSWITCH1_version2_list2_2023-11-16_12h09.03.371_micRespv2l2_recorded\recording_micRespv2l2_2023-11-16_12h18.19.898.wav,564.1891238000244,564.6892371999566,None,564.1891238000244,564.1891238000244,564.1891238000244,564.1891238000244,564.1891238000244,564.1891238000244,"[0.906675299978815, 1.1090411000186577, 1.36418659996707, 1.4626947999931872, 1.6530268000205979, 1.7915540999965742]",,,,,,040202,001,2023-11-16_12h09.03.371,REPSWITCH1_version2_list2,2022.2.4,143.96422792530453,
REPSWITCH1/PICTURE_128.png,muñeca,speak,darkblue,switch,2,T,1,1,2,2,Stim4_Set1,0,None,115,114,13,0,114,114,114,,,,,,,,,,,,,,,,,,,,,,,564.6892371999566,565.7797238000203,565.7797238000203,565.7797238000203,565.7797238000203,565.7797238000203,565.7797238000203,565.7797238000203,565.7797238000203,None,0,,C:\2023\REPSWITCH21092023\REPSWITCH_excgange\REPSWITCH_excgange\data/040202_REPSWITCH1_version2_list2_2023-11-16_12h09.03.371_micRespv2l2_recorded\recording_micRespv2l2_2023-11-16_12h18.24.510.wav,568.800902399933,569.300945200026,None,568.800902399933,568.800902399933,568.800902399933,568.800902399933,568.800902399933,568.800902399933,,,,,,,040202,001,2023-11-16_12h09.03.371,REPSWITCH1_version2_list2,2022.2.4,143.96422792530453,
REPSWITCH1/PICTURE_8.png,pierna,speak,darkblue,filler,2,F,1,1,2,2,Stim3_Set4,0,None,116,115,14,0,115,115,115,,,,,,,,,,,,,,,,,,,,,,,569.300945200026,570.5024878999684,570.5024878999684,570.5024878999684,570.5024878999684,570.5024878999684,570.5024878999684,570.5024878999684,570.5024878999684,None,0,,C:\2023\REPSWITCH21092023\REPSWITCH_excgange\REPSWITCH_excgange\data/040202_REPSWITCH1_version2_list2_2023-11-16_12h09.03.371_micRespv2l2_recorded\recording_micRespv2l2_2023-11-16_12h18.29.233.wav,573.523679099977,574.0237575999927,None,573.523679099977,573.523679099977,573.523679099977,573.523679099977,573.523679099977,573.523679099977,,,,,,,040202,001,2023-11-16_12h09.03.371,REPSWITCH1_version2_list2,2022.2.4,143.96422792530453,
REPSWITCH1/PICTURE_19.png,pavo,speak,darkblue,nontarget,2,NT,1,1,2,2,Stim5_Set1,0,None,117,116,15,0,116,116,116,,,,,,,,,,,,,,,,,,,,,,,574.0237575999927,575.1697579999454,575.1697579999454,575.1697579999454,575.1697579999454,575.1697579999454,575.1697579999454,575.1697579999454,575.1697579999454,None,0,,C:\2023\REPSWITCH21092023\REPSWITCH_excgange\REPSWITCH_excgange\data/040202_REPSWITCH1_version2_list2_2023-11-16_12h09.03.371_micRespv2l2_recorded\recording_micRespv2l2_2023-11-16_12h18.33.900.wav,578.1910299999872,578.6910639000125,None,578.1910299999872,578.1910299999872,578.1910299999872,578.1910299999872,578.1910299999872,578.1910299999872,,,,,,,040202,001,2023-11-16_12h09.03.371,REPSWITCH1_version2_list2,2022.2.4,143.96422792530453,
REPSWITCH1/PICTURE_19.png,pavo,type,gold,switch,1,T,1,1,2,2,Stim5_Set1,0,None,118,117,16,0,117,117,117,,,,,,,,,,,,,,,,,,,,,,,578.6910639000125,579.7607094999403,579.7607094999403,579.7607094999403,579.7607094999403,579.7607094999403,579.7607094999403,579.7607094999403,579.7607094999403,"['p', 'a', 'v', 'o']",0,pavo,C:\2023\REPSWITCH21092023\REPSWITCH_excgange\REPSWITCH_excgange\data/040202_REPSWITCH1_version2_list2_2023-11-16_12h09.03.371_micRespv2l2_recorded\recording_micRespv2l2_2023-11-16_12h18.38.491.wav,582.7888650000095,,None,582.7888650000095,582.7888650000095,582.7888650000095,582.7888650000095,582.7888650000095,582.7888650000095,"[0.8378866000566632, 0.8905873000621796, 1.0841745999641716, 1.1230403999798]",,,,,,040202,001,2023-11-16_12h09.03.371,REPSWITCH1_version2_list2,2022.2.4,143.96422792530453,
REPSWITCH1/PICTURE_16.png,cazador,type,gold,nontarget,1,NT,1,1,2,2,Stim6_Set1,1,switch,119,118,17,0,118,118,118,,,,,,,,,,,,,,,,,,,,,,,583.2888862999389,584.6015419999603,584.6015419999603,584.6015419999603,584.6015419999603,584.6015419999603,584.6015419999603,584.6015419999603,584.6015419999603,"['c', 'a', 'z', 'a', 'd', 'o', 'r']",0,cazador,C:\2023\REPSWITCH21092023\REPSWITCH_excgange\REPSWITCH_excgange\data/040202_REPSWITCH1_version2_list2_2023-11-16_12h09.03.371_micRespv2l2_recorded\recording_micRespv2l2_2023-11-16_12h18.43.332.wav,587.6297128000297,,None,587.6297128000297,587.6297128000297,587.6297128000297,587.6297128000297,587.6297128000297,587.6297128000297,"[0.7790970000205562, 0.9265960999764502, 1.2016787000466138, 1.4150431000161916, 1.6800189000787213, 1.823015599977225, 1.9452693000202999]",,,,,,040202,001,2023-11-16_12h09.03.371,REPSWITCH1_version2_list2,2022.2.4,143.96422792530453,
REPSWITCH1/PICTURE_16.png,cazador,type,gold,repeat,1,T,1,1,2,2,Stim6_Set1,0,None,120,119,18,0,119,119,119,,,,,,,,,,,,,,,,,,,,,,,588.1297702000011,589.2063655999955,589.2063655999955,589.2063655999955,589.2063655999955,589.2063655999955,589.2063655999955,589.2063655999955,589.2063655999955,"['c', 'a', 'z', 'a', 'd', 'o', 'r']",0,cazador,C:\2023\REPSWITCH21092023\REPSWITCH_excgange\REPSWITCH_excgange\data/040202_REPSWITCH1_version2_list2_2023-11-16_12h09.03.371_micRespv2l2_recorded\recording_micRespv2l2_2023-11-16_12h18.47.938.wav,592.2345969999442,,None,592.2345969999442,592.2345969999442,592.2345969999442,592.2345969999442,592.2345969999442,592.2345969999442,"[0.5260910999495536, 0.6938233999535441, 0.9358553999336436, 1.1161948000080884, 1.2534508999669924, 1.405722999945283, 1.505399000016041]",,,,,,040202,001,2023-11-16_12h09.03.371,REPSWITCH1_version2_list2,2022.2.4,143.96422792530453,
REPSWITCH1/PICTURE_498.png,taza,speak,darkblue,filler,2,F,1,1,2,2,Stim4_Set4,0,None,121,120,19,0,120,120,120,,,,,,,,,,,,,,,,,,,,,,,592.7346135999542,593.9847737000091,593.9847737000091,593.9847737000091,593.9847737000091,593.9847737000091,593.9847737000091,593.9847737000091,593.9847737000091,None,0,,C:\2023\REPSWITCH21092023\REPSWITCH_excgange\REPSWITCH_excgange\data/040202_REPSWITCH1_version2_list2_2023-11-16_12h09.03.371_micRespv2l2_recorded\recording_micRespv2l2_2023-11-16_12h18.52.716.wav,597.0129799999995,,None,597.0129799999995,597.0129799999995,597.0129799999995,597.0129799999995,597.0129799999995,597.0129799999995,,,,,,,040202,001,2023-11-16_12h09.03.371,REPSWITCH1_version2_list2,2022.2.4,143.96422792530453,
