image;correctAns;respModal;frameColor;repSwitch;sequence;target;set;block;list;exp_version;stimulus;baseline;baseline_condition;trial_no;psychopy_trial;Column1;trialsREPSWITCH.thisRepN;trialsREPSWITCH.thisTrialN;trialsREPSWITCH.thisN;trialsREPSWITCH.thisIndex;textWelcome.started;textboxInstrMain1.started;textboxInstrMain1_2.started;textboxInstrMain1_3.started;keyInstrMain.started;keyInstrMain.keys;keyInstrMain.rt;textboxInstrMain2.started;textboxInstrMain2_2.started;textboxInstrMain2_3.started;textboxInstrMain2_4.started;textboxInstrMain2_5.started;textboxInstrMain2_6.started;textboxInstrMain2_7.started;textboxInstrMain2_8.started;textboxInstrMain2_9.started;textboxInstrMain2_10.started;textboxInstrMain2_11.started;textboxInstrMain2_12.started;keyInstrMain2.started;keyInstrMain2.keys;keyInstrMain2.rt;fixationITI.started;fixationITI.stopped;polygonColour.started;polygonWhite.started;imageObject.started;polygonType.started;textInput.started;keyResp.started;micRespv2l4.started;polygonColour.stopped;polygonWhite.stopped;imageObject.stopped;polygonType.stopped;textInput.stopped;keyResp.stopped;keyResp.keys;keyResp.corr;keyResp.rt;subjResponse;micRespv2l4.clip;textBlankLoop.started;textBlankLoop.stopped;keyPause.keys;textboxPause.started;keyPause.started;keyPause.rt;textboxGoodbye.started;textboxGoodbye.stopped;participant;session;date;expName;psychopyVersion;frameRate;Column2
;;;;;;;;;;;;;;;;;;;;;8.991539999842644;11.48765489924699;11.48765489924699;11.48765489924699;11.48765489924699;space;5.973002600483596;;;;;;;;;;;;;;;;;;;;;;;;;;;;;;;;;;;;;;;;;;;;480204;001;2024-01-26_11h17.24.971;REPSWITCH1_version2_list4;2022.2.4;143.90166424496803;
;;;;;;;;;;;;;;;;;;;;;;;;;;;;17.474607799202204;17.474607799202204;17.474607799202204;17.474607799202204;17.474607799202204;17.474607799202204;17.474607799202204;17.474607799202204;17.474607799202204;17.474607799202204;17.474607799202204;17.474607799202204;17.474607799202204;space;2.070030700415373;;;;;;;;;;;;;;;;;;;;;;;;;;;;;480204;001;2024-01-26_11h17.24.971;REPSWITCH1_version2_list4;2022.2.4;143.90166424496803;
REPSWITCH1/PICTURE_8.png;pierna;type;gold;filler;1;F;1;4;4;2;Stim3_Set4;0;None;1;0;1;0;0;0;0;;;;;;;;;;;;;;;;;;;;;;;19.6415087999776;20.738854099996388;20.738854099996388;20.738854099996388;20.738854099996388;20.738854099996388;20.738854099996388;20.738854099996388;20.738854099996388;23.76703599933535;23.76703599933535;23.76703599933535;23.76703599933535;23.76703599933535;23.76703599933535;['p', 'i', 'e', 'r', 'n', 'm', 'a', 'backspace', 'backspace'];0;[1.238705299794674, 1.296509899199009, 1.405536899343133, 1.5649971999228, 1.6895759999752045, 1.690560800023377, 1.771262999624014, 2.3397809993475676, 2.4802719997242093];pier;C:\2023\REPSWITCH21092023\REPSWITCH_excgange\REPSWITCH_excgange\data/480204_REPSWITCH1_version2_list4_2024-01-26_11h17.24.971_micRespv2l4_recorded\recording_micRespv2l4_2024-01-26_11h17.41.502.wav;23.76703599933535;24.26709959935397;None;;;;;;480204;001;2024-01-26_11h17.24.971;REPSWITCH1_version2_list4;2022.2.4;143.90166424496803;
REPSWITCH1/PICTURE_498.png;taza;speak;darkblue;filler;2;F;1;4;4;2;Stim4_Set4;0;None;2;1;2;0;1;1;1;;;;;;;;;;;;;;;;;;;;;;;24.26709959935397;25.40615339949727;25.40615339949727;25.40615339949727;25.40615339949727;25.40615339949727;25.40615339949727;25.40615339949727;25.40615339949727;28.4343350995332;28.4343350995332;28.4343350995332;28.4343350995332;28.4343350995332;28.4343350995332;None;0;;;C:\2023\REPSWITCH21092023\REPSWITCH_excgange\REPSWITCH_excgange\data/480204_REPSWITCH1_version2_list4_2024-01-26_11h17.24.971_micRespv2l4_recorded\recording_micRespv2l4_2024-01-26_11h17.46.167.wav;28.4343350995332;;None;;;;;;480204;001;2024-01-26_11h17.24.971;REPSWITCH1_version2_list4;2022.2.4;143.90166424496803;
REPSWITCH1/PICTURE_19.png;pavo;speak;darkblue;nontarget;2;NT;1;4;4;2;Stim5_Set1;1;repeat;3;2;3;0;2;2;2;;;;;;;;;;;;;;;;;;;;;;;28.934408499859273;30.017854999750853;30.017854999750853;30.017854999750853;30.017854999750853;30.017854999750853;30.017854999750853;30.017854999750853;30.017854999750853;33.03908440005034;33.03908440005034;33.03908440005034;33.03908440005034;33.03908440005034;33.03908440005034;None;0;;;C:\2023\REPSWITCH21092023\REPSWITCH_excgange\REPSWITCH_excgange\data/480204_REPSWITCH1_version2_list4_2024-01-26_11h17.24.971_micRespv2l4_recorded\recording_micRespv2l4_2024-01-26_11h17.50.779.wav;33.03908440005034;33.53914909996092;None;;;;;;480204;001;2024-01-26_11h17.24.971;REPSWITCH1_version2_list4;2022.2.4;143.90166424496803;
REPSWITCH1/PICTURE_19.png;pavo;speak;darkblue;repeat;2;T;1;4;4;2;Stim5_Set1;0;None;4;3;4;0;3;3;3;;;;;;;;;;;;;;;;;;;;;;;33.53914909996092;34.62264879979193;34.62264879979193;34.62264879979193;34.62264879979193;34.62264879979193;34.62264879979193;34.62264879979193;34.62264879979193;37.65089590009302;37.65089590009302;37.65089590009302;37.65089590009302;37.65089590009302;37.65089590009302;None;0;;;C:\2023\REPSWITCH21092023\REPSWITCH_excgange\REPSWITCH_excgange\data/480204_REPSWITCH1_version2_list4_2024-01-26_11h17.24.971_micRespv2l4_recorded\recording_micRespv2l4_2024-01-26_11h17.55.384.wav;37.65089590009302;;None;;;;;;480204;001;2024-01-26_11h17.24.971;REPSWITCH1_version2_list4;2022.2.4;143.90166424496803;
REPSWITCH1/PICTURE_319.png;vaca;type;gold;filler;1;F;1;4;4;2;Stim1_Set4;1;repeat;5;4;5;0;4;4;4;;;;;;;;;;;;;;;;;;;;;;;38.15089609939605;39.24131289962679;39.24131289962679;39.24131289962679;39.24131289962679;39.24131289962679;39.24131289962679;39.24131289962679;39.24131289962679;42.26952470000833;42.26952470000833;42.26952470000833;42.26952470000833;42.26952470000833;42.26952470000833;['v', 'a', 'c', 'a'];0;[0.9584135003387928, 1.130697499960661, 1.3071317998692393, 1.3808246003463864];vaca;C:\2023\REPSWITCH21092023\REPSWITCH_excgange\REPSWITCH_excgange\data/480204_REPSWITCH1_version2_list4_2024-01-26_11h17.24.971_micRespv2l4_recorded\recording_micRespv2l4_2024-01-26_11h18.00.002.wav;42.26952470000833;;None;;;;;;480204;001;2024-01-26_11h17.24.971;REPSWITCH1_version2_list4;2022.2.4;143.90166424496803;
REPSWITCH1/PICTURE_169.png;espalda;speak;darkblue;nontarget;2;NT;1;4;4;2;Stim8_Set1;1;switch;6;5;6;0;5;5;5;;;;;;;;;;;;;;;;;;;;;;;42.769556699320674;43.853082600049675;43.853082600049675;43.853082600049675;43.853082600049675;43.853082600049675;43.853082600049675;43.853082600049675;43.853082600049675;46.87425039988011;46.87425039988011;46.87425039988011;46.87425039988011;46.87425039988011;46.87425039988011;None;0;;;C:\2023\REPSWITCH21092023\REPSWITCH_excgange\REPSWITCH_excgange\data/480204_REPSWITCH1_version2_list4_2024-01-26_11h17.24.971_micRespv2l4_recorded\recording_micRespv2l4_2024-01-26_11h18.04.614.wav;46.87425039988011;47.37432840000838;None;;;;;;480204;001;2024-01-26_11h17.24.971;REPSWITCH1_version2_list4;2022.2.4;143.90166424496803;
REPSWITCH1/PICTURE_169.png;espalda;speak;darkblue;repeat;2;T;1;4;4;2;Stim8_Set1;0;None;7;6;7;0;6;6;6;;;;;;;;;;;;;;;;;;;;;;;47.37432840000838;48.52723729982972;48.52723729982972;48.52723729982972;48.52723729982972;48.52723729982972;48.52723729982972;48.52723729982972;48.52723729982972;51.55550169944763;51.55550169944763;51.55550169944763;51.55550169944763;51.55550169944763;51.55550169944763;None;0;;;C:\2023\REPSWITCH21092023\REPSWITCH_excgange\REPSWITCH_excgange\data/480204_REPSWITCH1_version2_list4_2024-01-26_11h17.24.971_micRespv2l4_recorded\recording_micRespv2l4_2024-01-26_11h18.09.288.wav;51.55550169944763;;None;;;;;;480204;001;2024-01-26_11h17.24.971;REPSWITCH1_version2_list4;2022.2.4;143.90166424496803;
REPSWITCH1/PICTURE_728.png;pulpo;type;gold;filler;1;F;1;4;4;2;Stim8_Set4;0;None;8;7;8;0;7;7;7;;;;;;;;;;;;;;;;;;;;;;;52.05556319933385;53.208411700092256;53.208411700092256;53.208411700092256;53.208411700092256;53.208411700092256;53.208411700092256;53.208411700092256;53.208411700092256;56.22963029984385;56.22963029984385;56.22963029984385;56.22963029984385;56.22963029984385;56.22963029984385;['p', 'i', 'u', 'l', 'p', 'o', 'backspace', 'backspace', 'backspace', 'backspace'];0;[0.8785664001479745, 1.4164006002247334, 1.4472983004525304, 1.6221574004739523, 1.8684201007708907, 1.9121796004474163, 2.519342500716448, 2.664916600100696, 2.7846527006477118, 2.9192049000412226];pi;C:\2023\REPSWITCH21092023\REPSWITCH_excgange\REPSWITCH_excgange\data/480204_REPSWITCH1_version2_list4_2024-01-26_11h17.24.971_micRespv2l4_recorded\recording_micRespv2l4_2024-01-26_11h18.13.969.wav;56.22963029984385;56.72971679922193;None;;;;;;480204;001;2024-01-26_11h17.24.971;REPSWITCH1_version2_list4;2022.2.4;143.90166424496803;
REPSWITCH1/PICTURE_142.png;vaso;speak;darkblue;nontarget;2;NT;1;4;4;2;Stim7_Set1;1;switch;9;8;9;0;8;8;8;;;;;;;;;;;;;;;;;;;;;;;56.72971679922193;57.90345529932529;57.90345529932529;57.90345529932529;57.90345529932529;57.90345529932529;57.90345529932529;57.90345529932529;57.90345529932529;60.931663299910724;60.931663299910724;60.931663299910724;60.931663299910724;60.931663299910724;60.931663299910724;None;0;;;C:\2023\REPSWITCH21092023\REPSWITCH_excgange\REPSWITCH_excgange\data/480204_REPSWITCH1_version2_list4_2024-01-26_11h17.24.971_micRespv2l4_recorded\recording_micRespv2l4_2024-01-26_11h18.18.665.wav;60.931663299910724;;None;;;;;;480204;001;2024-01-26_11h17.24.971;REPSWITCH1_version2_list4;2022.2.4;143.90166424496803;
REPSWITCH1/PICTURE_142.png;vaso;type;gold;switch;1;T;1;4;4;2;Stim7_Set1;0;None;10;9;10;0;9;9;9;;;;;;;;;;;;;;;;;;;;;;;61.43171659950167;62.50823889952153;62.50823889952153;62.50823889952153;62.50823889952153;62.50823889952153;62.50823889952153;62.50823889952153;62.50823889952153;65.52947769965976;65.52947769965976;65.52947769965976;65.52947769965976;65.52947769965976;65.52947769965976;['v', 'a', 's', 'o'];0;[0.8176306001842022, 1.0236344998702407, 1.0853719003498554, 1.154325400479138];vaso;C:\2023\REPSWITCH21092023\REPSWITCH_excgange\REPSWITCH_excgange\data/480204_REPSWITCH1_version2_list4_2024-01-26_11h17.24.971_micRespv2l4_recorded\recording_micRespv2l4_2024-01-26_11h18.23.269.wav;65.52947769965976;66.02955269999802;None;;;;;;480204;001;2024-01-26_11h17.24.971;REPSWITCH1_version2_list4;2022.2.4;143.90166424496803;
REPSWITCH1/PICTURE_338.png;regalo;type;gold;filler;1;F;1;4;4;2;Stim6_Set4;1;repeat;11;10;11;0;10;10;10;;;;;;;;;;;;;;;;;;;;;;;66.02955269999802;67.16162599995732;67.16162599995732;67.16162599995732;67.16162599995732;67.16162599995732;67.16162599995732;67.16162599995732;67.16162599995732;70.18291709944606;70.18291709944606;70.18291709944606;70.18291709944606;70.18291709944606;70.18291709944606;['r', 'e', 'g', 'a', 'l', 'o'];0;[0.943189499899745, 1.0079719005152583, 1.1455182004719973, 1.4333396004512906, 1.5709295999258757, 1.697227600030601];regalo;C:\2023\REPSWITCH21092023\REPSWITCH_excgange\REPSWITCH_excgange\data/480204_REPSWITCH1_version2_list4_2024-01-26_11h17.24.971_micRespv2l4_recorded\recording_micRespv2l4_2024-01-26_11h18.27.922.wav;70.18291709944606;70.68297969922423;None;;;;;;480204;001;2024-01-26_11h17.24.971;REPSWITCH1_version2_list4;2022.2.4;143.90166424496803;
REPSWITCH1/PICTURE_135.png;traje;type;gold;nontarget;1;NT;1;4;4;2;Stim3_Set1;1;repeat;12;11;12;0;11;11;11;;;;;;;;;;;;;;;;;;;;;;;70.68297969922423;71.80115639977157;71.80115639977157;71.80115639977157;71.80115639977157;71.80115639977157;71.80115639977157;71.80115639977157;71.80115639977157;74.82933579944074;74.82933579944074;74.82933579944074;74.82933579944074;74.82933579944074;74.82933579944074;['t', 'r', 'a', 'j', 'e'];0;[0.8735311003401875, 1.0768086006864905, 1.1346451006829739, 1.6425339002162218, 1.7800524001941085];traje;C:\2023\REPSWITCH21092023\REPSWITCH_excgange\REPSWITCH_excgange\data/480204_REPSWITCH1_version2_list4_2024-01-26_11h17.24.971_micRespv2l4_recorded\recording_micRespv2l4_2024-01-26_11h18.32.563.wav;74.82933579944074;;None;;;;;;480204;001;2024-01-26_11h17.24.971;REPSWITCH1_version2_list4;2022.2.4;143.90166424496803;
REPSWITCH1/PICTURE_135.png;traje;speak;darkblue;switch;2;T;1;4;4;2;Stim3_Set1;0;None;13;12;13;0;12;12;12;;;;;;;;;;;;;;;;;;;;;;;75.3293886994943;76.40589409973472;76.40589409973472;76.40589409973472;76.40589409973472;76.40589409973472;76.40589409973472;76.40589409973472;76.40589409973472;79.42711969930679;79.42711969930679;79.42711969930679;79.42711969930679;79.42711969930679;79.42711969930679;None;0;;;C:\2023\REPSWITCH21092023\REPSWITCH_excgange\REPSWITCH_excgange\data/480204_REPSWITCH1_version2_list4_2024-01-26_11h17.24.971_micRespv2l4_recorded\recording_micRespv2l4_2024-01-26_11h18.37.166.wav;79.42711969930679;79.92725849989802;None;;;;;;480204;001;2024-01-26_11h17.24.971;REPSWITCH1_version2_list4;2022.2.4;143.90166424496803;
REPSWITCH1/PICTURE_381.png;fresa;speak;darkblue;nontarget;2;NT;1;4;4;2;Stim2_Set1;1;repeat;14;13;14;0;13;13;13;;;;;;;;;;;;;;;;;;;;;;;79.92725849989802;80.98983389977366;80.98983389977366;80.98983389977366;80.98983389977366;80.98983389977366;80.98983389977366;80.98983389977366;80.98983389977366;84.01105429977179;84.01105429977179;84.01105429977179;84.01105429977179;84.01105429977179;84.01105429977179;None;0;;;C:\2023\REPSWITCH21092023\REPSWITCH_excgange\REPSWITCH_excgange\data/480204_REPSWITCH1_version2_list4_2024-01-26_11h17.24.971_micRespv2l4_recorded\recording_micRespv2l4_2024-01-26_11h18.41.751.wav;84.01105429977179;84.51119079999626;None;;;;;;480204;001;2024-01-26_11h17.24.971;REPSWITCH1_version2_list4;2022.2.4;143.90166424496803;
REPSWITCH1/PICTURE_381.png;fresa;type;gold;switch;1;T;1;4;4;2;Stim2_Set1;0;None;15;14;15;0;14;14;14;;;;;;;;;;;;;;;;;;;;;;;84.51119079999626;85.61551789939404;85.61551789939404;85.61551789939404;85.61551789939404;85.61551789939404;85.61551789939404;85.61551789939404;85.61551789939404;88.63665969949216;88.63665969949216;88.63665969949216;88.63665969949216;88.63665969949216;88.63665969949216;['f', 'r', 'e', 's', 'a'];0;[0.7139285998418927, 0.9252115003764629, 1.0408204002305865, 1.2642291998490691, 1.3157120998948812];fresa;C:\2023\REPSWITCH21092023\REPSWITCH_excgange\REPSWITCH_excgange\data/480204_REPSWITCH1_version2_list4_2024-01-26_11h17.24.971_micRespv2l4_recorded\recording_micRespv2l4_2024-01-26_11h18.46.375.wav;88.63665969949216;89.13674989994615;None;;;;;;480204;001;2024-01-26_11h17.24.971;REPSWITCH1_version2_list4;2022.2.4;143.90166424496803;
REPSWITCH1/PICTURE_48.png;bombero;type;gold;filler;1;F;1;4;4;2;Stim7_Set4;0;None;16;15;16;0;15;15;15;;;;;;;;;;;;;;;;;;;;;;;89.13674989994615;90.19944729935378;90.19944729935378;90.19944729935378;90.19944729935378;90.19944729935378;90.19944729935378;90.19944729935378;90.19944729935378;93.22763129975647;93.22763129975647;93.22763129975647;93.22763129975647;93.22763129975647;93.22763129975647;['b', 'o', 'm', 'b', 'e', 'r', 'o'];0;[1.1253964994102716, 1.3571852995082736, 1.575475899502635, 1.8625766998156905, 1.9631768995895982, 2.039059999398887, 2.1357506001368165];bombero;C:\2023\REPSWITCH21092023\REPSWITCH_excgange\REPSWITCH_excgange\data/480204_REPSWITCH1_version2_list4_2024-01-26_11h17.24.971_micRespv2l4_recorded\recording_micRespv2l4_2024-01-26_11h18.50.961.wav;93.22763129975647;;None;;;;;;480204;001;2024-01-26_11h17.24.971;REPSWITCH1_version2_list4;2022.2.4;143.90166424496803;
REPSWITCH1/PICTURE_687.png;camisa;speak;darkblue;filler;2;F;1;4;4;2;Stim5_Set4;0;None;17;16;17;0;16;16;16;;;;;;;;;;;;;;;;;;;;;;;93.72770699951798;94.82501289993525;94.82501289993525;94.82501289993525;94.82501289993525;94.82501289993525;94.82501289993525;94.82501289993525;94.82501289993525;97.8531525991857;97.8531525991857;97.8531525991857;97.8531525991857;97.8531525991857;97.8531525991857;None;0;;;C:\2023\REPSWITCH21092023\REPSWITCH_excgange\REPSWITCH_excgange\data/480204_REPSWITCH1_version2_list4_2024-01-26_11h17.24.971_micRespv2l4_recorded\recording_micRespv2l4_2024-01-26_11h18.55.586.wav;97.8531525991857;;None;;;;;;480204;001;2024-01-26_11h17.24.971;REPSWITCH1_version2_list4;2022.2.4;143.90166424496803;
REPSWITCH1/PICTURE_128.png;muñeca;type;gold;nontarget;1;NT;1;4;4;2;Stim4_Set1;0;None;18;17;18;0;17;17;17;;;;;;;;;;;;;;;;;;;;;;;98.35323539935052;99.48531669937074;99.48531669937074;99.48531669937074;99.48531669937074;99.48531669937074;99.48531669937074;99.48531669937074;99.48531669937074;102.51353999972343;102.51353999972343;102.51353999972343;102.51353999972343;102.51353999972343;102.51353999972343;['m', 'u', 'ñ', 'e', 'c', 'a'];0;[1.0801012003794312, 1.316508600488305, 1.6992414006963372, 1.7460857005789876, 1.907523900270462, 2.2667740005999804];muñeca;C:\2023\REPSWITCH21092023\REPSWITCH_excgange\REPSWITCH_excgange\data/480204_REPSWITCH1_version2_list4_2024-01-26_11h17.24.971_micRespv2l4_recorded\recording_micRespv2l4_2024-01-26_11h19.00.247.wav;102.51353999972343;103.01357549987733;None;;;;;;480204;001;2024-01-26_11h17.24.971;REPSWITCH1_version2_list4;2022.2.4;143.90166424496803;
REPSWITCH1/PICTURE_128.png;muñeca;type;gold;repeat;1;T;1;4;4;2;Stim4_Set1;0;None;19;18;19;0;18;18;18;;;;;;;;;;;;;;;;;;;;;;;103.01357549987733;104.11789939925075;104.11789939925075;104.11789939925075;104.11789939925075;104.11789939925075;104.11789939925075;104.11789939925075;104.11789939925075;107.14609639998525;107.14609639998525;107.14609639998525;107.14609639998525;107.14609639998525;107.14609639998525;['m', 'u', 'ñ', 'e', 'c', 'a'];0;[0.864334600046277, 1.0766310999169946, 1.361999500542879, 1.4079795004799962, 1.5635385001078248, 1.6940716002136469];muñeca;C:\2023\REPSWITCH21092023\REPSWITCH_excgange\REPSWITCH_excgange\data/480204_REPSWITCH1_version2_list4_2024-01-26_11h17.24.971_micRespv2l4_recorded\recording_micRespv2l4_2024-01-26_11h19.04.879.wav;107.14609639998525;;None;;;;;;480204;001;2024-01-26_11h17.24.971;REPSWITCH1_version2_list4;2022.2.4;143.90166424496803;
REPSWITCH1/PICTURE_719.png;baño;speak;darkblue;filler;2;F;1;4;4;2;Stim2_Set4;1;switch;20;19;20;0;19;19;19;;;;;;;;;;;;;;;;;;;;;;;107.64611000008881;108.91018059942871;108.91018059942871;108.91018059942871;108.91018059942871;108.91018059942871;108.91018059942871;108.91018059942871;108.91018059942871;111.931421299465;111.931421299465;111.931421299465;111.931421299465;111.931421299465;111.931421299465;None;0;;;C:\2023\REPSWITCH21092023\REPSWITCH_excgange\REPSWITCH_excgange\data/480204_REPSWITCH1_version2_list4_2024-01-26_11h17.24.971_micRespv2l4_recorded\recording_micRespv2l4_2024-01-26_11h19.09.671.wav;111.931421299465;112.43154489994049;None;;;;;;480204;001;2024-01-26_11h17.24.971;REPSWITCH1_version2_list4;2022.2.4;143.90166424496803;
REPSWITCH1/PICTURE_178.png;puente;type;gold;nontarget;1;NT;1;4;4;2;Stim1_Set1;1;switch;21;20;21;0;20;20;20;;;;;;;;;;;;;;;;;;;;;;;112.43154489994049;113.49410119932145;113.49410119932145;113.49410119932145;113.49410119932145;113.49410119932145;113.49410119932145;113.49410119932145;113.49410119932145;116.52229980006814;116.52229980006814;116.52229980006814;116.52229980006814;116.52229980006814;116.52229980006814;['p', 'u', 'i', 'e', 'n', 't', 'e', 'backspace', 'backspace', 'backspace', 'backspace', 'backspace', 'u', 'e', 'n', 'm'];0;[1.0655301995575428, 1.1604490000754595, 1.1634336998686194, 1.268712899647653, 1.3886684998869896, 1.5222161998972297, 1.5909676998853683, 1.8172233998775482, 1.9550671000033617, 2.076195899397135, 2.1970811001956463, 2.3206855999305844, 2.5129822995513678, 2.7329380000010133, 2.8703638995066285, 2.878276400268078, 2.981898699887097];puenmt;C:\2023\REPSWITCH21092023\REPSWITCH_excgange\REPSWITCH_excgange\data/480204_REPSWITCH1_version2_list4_2024-01-26_11h17.24.971_micRespv2l4_recorded\recording_micRespv2l4_2024-01-26_11h19.14.255.wav;116.52229980006814;;None;;;;;;480204;001;2024-01-26_11h17.24.971;REPSWITCH1_version2_list4;2022.2.4;143.90166424496803;
REPSWITCH1/PICTURE_178.png;puente;type;gold;repeat;1;T;1;4;4;2;Stim1_Set1;0;None;22;21;22;0;21;21;21;;;;;;;;;;;;;;;;;;;;;;;117.0223589995876;118.1266497997567;118.1266497997567;118.1266497997567;118.1266497997567;118.1266497997567;118.1266497997567;118.1266497997567;118.1266497997567;121.14797049947083;121.14797049947083;121.14797049947083;121.14797049947083;121.14797049947083;121.14797049947083;['p', 'u', 'e', 'n', 't', 'e'];0;[0.9224879005923867, 1.0530437007546425, 1.258669700473547, 1.3703028000891209, 1.447341300547123, 1.5242169005796313];puente;C:\2023\REPSWITCH21092023\REPSWITCH_excgange\REPSWITCH_excgange\data/480204_REPSWITCH1_version2_list4_2024-01-26_11h17.24.971_micRespv2l4_recorded\recording_micRespv2l4_2024-01-26_11h19.18.887.wav;121.14797049947083;121.64794329926372;None;;;;;;480204;001;2024-01-26_11h17.24.971;REPSWITCH1_version2_list4;2022.2.4;143.90166424496803;
REPSWITCH1/PICTURE_16.png;cazador;type;gold;nontarget;1;NT;1;4;4;2;Stim6_Set1;1;repeat;23;22;23;0;22;22;22;;;;;;;;;;;;;;;;;;;;;;;121.64794329926372;122.71757899969816;122.71757899969816;122.71757899969816;122.71757899969816;122.71757899969816;122.71757899969816;122.71757899969816;122.71757899969816;125.74572569970042;125.74572569970042;125.74572569970042;125.74572569970042;125.74572569970042;125.74572569970042;['c', 'a', 'z', 'a', 'd', 'o', 'r'];0;[0.9962639007717371, 1.1330661000683904, 1.3223714008927345, 1.3845431003719568, 1.509085800498724, 1.5845429003238678, 1.6573900002986193];cazador;C:\2023\REPSWITCH21092023\REPSWITCH_excgange\REPSWITCH_excgange\data/480204_REPSWITCH1_version2_list4_2024-01-26_11h17.24.971_micRespv2l4_recorded\recording_micRespv2l4_2024-01-26_11h19.23.478.wav;125.74572569970042;;None;;;;;;480204;001;2024-01-26_11h17.24.971;REPSWITCH1_version2_list4;2022.2.4;143.90166424496803;
REPSWITCH1/PICTURE_16.png;cazador;speak;darkblue;switch;2;T;1;4;4;2;Stim6_Set1;0;None;24;23;24;0;23;23;23;;;;;;;;;;;;;;;;;;;;;;;126.2457916000858;127.30149429943413;127.30149429943413;127.30149429943413;127.30149429943413;127.30149429943413;127.30149429943413;127.30149429943413;127.30149429943413;130.32966289948672;130.32966289948672;130.32966289948672;130.32966289948672;130.32966289948672;130.32966289948672;None;0;;;C:\2023\REPSWITCH21092023\REPSWITCH_excgange\REPSWITCH_excgange\data/480204_REPSWITCH1_version2_list4_2024-01-26_11h17.24.971_micRespv2l4_recorded\recording_micRespv2l4_2024-01-26_11h19.28.063.wav;130.32966289948672;;None;;;;;;480204;001;2024-01-26_11h17.24.971;REPSWITCH1_version2_list4;2022.2.4;143.90166424496803;
REPSWITCH1/PICTURE_19.png;pavo;type;gold;filler;1;F;2;4;4;2;Stim5_Set1;0;None;25;24;25;0;24;24;24;;;;;;;;;;;;;;;;;;;;;;;130.82968709990382;131.87150839995593;131.87150839995593;131.87150839995593;131.87150839995593;131.87150839995593;131.87150839995593;131.87150839995593;131.87150839995593;134.89970800001174;134.89970800001174;134.89970800001174;134.89970800001174;134.89970800001174;134.89970800001174;['p', 'a', 'v', 'o'];0;[1.2060097996145487, 1.2591520994901657, 1.4684560997411609, 1.522311200387776];pavo;C:\2023\REPSWITCH21092023\REPSWITCH_excgange\REPSWITCH_excgange\data/480204_REPSWITCH1_version2_list4_2024-01-26_11h17.24.971_micRespv2l4_recorded\recording_micRespv2l4_2024-01-26_11h19.32.633.wav;134.89970800001174;;None;;;;;;480204;001;2024-01-26_11h17.24.971;REPSWITCH1_version2_list4;2022.2.4;143.90166424496803;
REPSWITCH1/PICTURE_199.png;falda;type;gold;nontarget;1;NT;2;4;4;2;Stim8_Set2;1;repeat;26;25;26;0;25;25;25;;;;;;;;;;;;;;;;;;;;;;;135.39984049927443;136.5457785995677;136.5457785995677;136.5457785995677;136.5457785995677;136.5457785995677;136.5457785995677;136.5457785995677;136.5457785995677;139.57400099933147;139.57400099933147;139.57400099933147;139.57400099933147;139.57400099933147;139.57400099933147;['f', 'a', 'l', 'd', 'a'];0;[0.7951739002019167, 0.9347043000161648, 1.049316399730742, 1.1711849002167583, 1.2145018000155687];falda;C:\2023\REPSWITCH21092023\REPSWITCH_excgange\REPSWITCH_excgange\data/480204_REPSWITCH1_version2_list4_2024-01-26_11h17.24.971_micRespv2l4_recorded\recording_micRespv2l4_2024-01-26_11h19.37.307.wav;139.57400099933147;;None;;;;;;480204;001;2024-01-26_11h17.24.971;REPSWITCH1_version2_list4;2022.2.4;143.90166424496803;
REPSWITCH1/PICTURE_199.png;falda;type;gold;repeat;1;T;2;4;4;2;Stim8_Set2;0;None;27;26;27;0;26;26;26;;;;;;;;;;;;;;;;;;;;;;;140.07395919971168;141.15752759948373;141.15752759948373;141.15752759948373;141.15752759948373;141.15752759948373;141.15752759948373;141.15752759948373;141.15752759948373;144.18564729951322;144.18564729951322;144.18564729951322;144.18564729951322;144.18564729951322;144.18564729951322;['f', 'a', 'l', 'd', 'a'];0;[0.5374557003378868, 0.6690418999642134, 0.7731596007943153, 0.9174707001075149, 0.9726723004132509];falda;C:\2023\REPSWITCH21092023\REPSWITCH_excgange\REPSWITCH_excgange\data/480204_REPSWITCH1_version2_list4_2024-01-26_11h17.24.971_micRespv2l4_recorded\recording_micRespv2l4_2024-01-26_11h19.41.919.wav;144.18564729951322;;None;;;;;;480204;001;2024-01-26_11h17.24.971;REPSWITCH1_version2_list4;2022.2.4;143.90166424496803;
REPSWITCH1/PICTURE_178.png;puente;speak;darkblue;filler;2;F;2;4;4;2;Stim1_Set1;1;switch;28;27;28;0;27;27;27;;;;;;;;;;;;;;;;;;;;;;;144.68573299981654;145.69971849955618;145.69971849955618;145.69971849955618;145.69971849955618;145.69971849955618;145.69971849955618;145.69971849955618;145.69971849955618;148.72798689920455;148.72798689920455;148.72798689920455;148.72798689920455;148.72798689920455;148.72798689920455;None;0;;;C:\2023\REPSWITCH21092023\REPSWITCH_excgange\REPSWITCH_excgange\data/480204_REPSWITCH1_version2_list4_2024-01-26_11h17.24.971_micRespv2l4_recorded\recording_micRespv2l4_2024-01-26_11h19.46.461.wav;148.72798689920455;;None;;;;;;480204;001;2024-01-26_11h17.24.971;REPSWITCH1_version2_list4;2022.2.4;143.90166424496803;
REPSWITCH1/PICTURE_517.png;cuerda;type;gold;nontarget;1;NT;2;4;4;2;Stim4_Set2;1;switch;29;28;29;0;28;28;28;;;;;;;;;;;;;;;;;;;;;;;149.2279519001022;150.3253599992022;150.3253599992022;150.3253599992022;150.3253599992022;150.3253599992022;150.3253599992022;150.3253599992022;150.3253599992022;153.34654719941318;153.34654719941318;153.34654719941318;153.34654719941318;153.34654719941318;153.34654719941318;['c', 'u', 'e', 'r', 'x', 'a', 'backspace', 'backspace', 'd', 'a'];0;[1.2423278000205755, 1.403727199882269, 1.4954300001263618, 1.5660615004599094, 1.7473862003535032, 1.8440698003396392, 2.1339309997856617, 2.264460099861026, 2.3042930997908115, 2.355057700537145];cuerda;C:\2023\REPSWITCH21092023\REPSWITCH_excgange\REPSWITCH_excgange\data/480204_REPSWITCH1_version2_list4_2024-01-26_11h17.24.971_micRespv2l4_recorded\recording_micRespv2l4_2024-01-26_11h19.51.086.wav;153.34654719941318;153.8466412993148;None;;;;;;480204;001;2024-01-26_11h17.24.971;REPSWITCH1_version2_list4;2022.2.4;143.90166424496803;
REPSWITCH1/PICTURE_517.png;cuerda;type;gold;repeat;1;T;2;4;4;2;Stim4_Set2;0;None;30;29;30;0;29;29;29;;;;;;;;;;;;;;;;;;;;;;;153.8466412993148;154.9648642996326;154.9648642996326;154.9648642996326;154.9648642996326;154.9648642996326;154.9648642996326;154.9648642996326;154.9648642996326;157.9930650992319;157.9930650992319;157.9930650992319;157.9930650992319;157.9930650992319;157.9930650992319;['c', 'u', 'e', 'r', 'd', 'a'];0;[0.5410168999806046, 0.7801995994523168, 0.8958057994022965, 1.0345042999833822, 1.1849956000223756, 1.2448046999052167];cuerda;C:\2023\REPSWITCH21092023\REPSWITCH_excgange\REPSWITCH_excgange\data/480204_REPSWITCH1_version2_list4_2024-01-26_11h17.24.971_micRespv2l4_recorded\recording_micRespv2l4_2024-01-26_11h19.55.726.wav;157.9930650992319;;None;;;;;;480204;001;2024-01-26_11h17.24.971;REPSWITCH1_version2_list4;2022.2.4;143.90166424496803;
REPSWITCH1/PICTURE_169.png;espalda;type;gold;filler;1;F;2;4;4;2;Stim8_Set1;0;None;31;30;31;0;30;30;30;;;;;;;;;;;;;;;;;;;;;;;158.49307649955153;159.59738209936768;159.59738209936768;159.59738209936768;159.59738209936768;159.59738209936768;159.59738209936768;159.59738209936768;159.59738209936768;162.61860849987715;162.61860849987715;162.61860849987715;162.61860849987715;162.61860849987715;162.61860849987715;['e', 's', 'p', 'a', 'l', 'd', 'a'];0;[0.6587821003049612, 0.8321152003481984, 0.9507942004129291, 1.0516665000468493, 1.314287600107491, 1.4089603004977107, 1.4587520007044077];espalda;C:\2023\REPSWITCH21092023\REPSWITCH_excgange\REPSWITCH_excgange\data/480204_REPSWITCH1_version2_list4_2024-01-26_11h17.24.971_micRespv2l4_recorded\recording_micRespv2l4_2024-01-26_11h20.00.358.wav;162.61860849987715;163.11868899967521;None;;;;;;480204;001;2024-01-26_11h17.24.971;REPSWITCH1_version2_list4;2022.2.4;143.90166424496803;
REPSWITCH1/PICTURE_673.png;tenedor;speak;darkblue;filler;2;F;2;4;4;2;Extra5;0;None;32;31;32;0;31;31;31;;;;;;;;;;;;;;;;;;;;;;;163.11868899967521;164.2577147996053;164.2577147996053;164.2577147996053;164.2577147996053;164.2577147996053;164.2577147996053;164.2577147996053;164.2577147996053;167.27893059980124;167.27893059980124;167.27893059980124;167.27893059980124;167.27893059980124;167.27893059980124;None;0;;;C:\2023\REPSWITCH21092023\REPSWITCH_excgange\REPSWITCH_excgange\data/480204_REPSWITCH1_version2_list4_2024-01-26_11h17.24.971_micRespv2l4_recorded\recording_micRespv2l4_2024-01-26_11h20.05.018.wav;167.27893059980124;167.77899789996445;None;;;;;;480204;001;2024-01-26_11h17.24.971;REPSWITCH1_version2_list4;2022.2.4;143.90166424496803;
REPSWITCH1/PICTURE_142.png;vaso;type;gold;filler;1;F;2;4;4;2;Stim7_Set1;1;switch;33;32;33;0;32;32;32;;;;;;;;;;;;;;;;;;;;;;;167.77899789996445;168.8277914999053;168.8277914999053;168.8277914999053;168.8277914999053;168.8277914999053;168.8277914999053;168.8277914999053;168.8277914999053;171.84897919930518;171.84897919930518;171.84897919930518;171.84897919930518;171.84897919930518;171.84897919930518;['v', 'a', 's', 'o'];0;[0.8041898002848029, 1.002568100579083, 1.0683015007525682, 1.127135400660336];vaso;C:\2023\REPSWITCH21092023\REPSWITCH_excgange\REPSWITCH_excgange\data/480204_REPSWITCH1_version2_list4_2024-01-26_11h17.24.971_micRespv2l4_recorded\recording_micRespv2l4_2024-01-26_11h20.09.589.wav;171.84897919930518;172.3490670993924;None;;;;;;480204;001;2024-01-26_11h17.24.971;REPSWITCH1_version2_list4;2022.2.4;143.90166424496803;
REPSWITCH1/PICTURE_552.png;manzana;type;gold;nontarget;1;NT;2;4;4;2;Stim6_Set2;1;repeat;34;33;34;0;33;33;33;;;;;;;;;;;;;;;;;;;;;;;172.3490670993924;173.39085769932717;173.39085769932717;173.39085769932717;173.39085769932717;173.39085769932717;173.39085769932717;173.39085769932717;173.39085769932717;176.41902079991996;176.41902079991996;176.41902079991996;176.41902079991996;176.41902079991996;176.41902079991996;['m', 'n', 'backspace', 'a', 'n', 'z', 'a', 'd', 'a', 'backspace', 'backspace', 'a'];0;[0.8313910001888871, 1.0137815000489354, 1.2968256995081902, 1.347625999711454, 1.518211499787867, 1.6157686999067664, 1.6944875996559858, 1.8180423993617296, 1.875853699631989, 2.319670000113547, 2.4392013996839523, 2.914593099616468];manzaa;C:\2023\REPSWITCH21092023\REPSWITCH_excgange\REPSWITCH_excgange\data/480204_REPSWITCH1_version2_list4_2024-01-26_11h17.24.971_micRespv2l4_recorded\recording_micRespv2l4_2024-01-26_11h20.14.153.wav;176.41902079991996;176.91909059975296;None;;;;;;480204;001;2024-01-26_11h17.24.971;REPSWITCH1_version2_list4;2022.2.4;143.90166424496803;
REPSWITCH1/PICTURE_552.png;manzana;speak;darkblue;switch;1;T;2;4;4;2;Stim6_Set2;0;None;35;34;35;0;34;34;34;;;;;;;;;;;;;;;;;;;;;;;176.91909059975296;178.15536449942738;178.15536449942738;178.15536449942738;178.15536449942738;178.15536449942738;178.15536449942738;178.15536449942738;178.15536449942738;181.18358739931136;181.18358739931136;181.18358739931136;181.18358739931136;181.18358739931136;181.18358739931136;None;0;;;C:\2023\REPSWITCH21092023\REPSWITCH_excgange\REPSWITCH_excgange\data/480204_REPSWITCH1_version2_list4_2024-01-26_11h17.24.971_micRespv2l4_recorded\recording_micRespv2l4_2024-01-26_11h20.18.917.wav;181.18358739931136;;None;;;;;;480204;001;2024-01-26_11h17.24.971;REPSWITCH1_version2_list4;2022.2.4;143.90166424496803;
REPSWITCH1/PICTURE_135.png;traje;speak;darkblue;filler;2;F;2;4;4;2;Stim3_Set1;0;None;36;35;36;0;35;35;35;;;;;;;;;;;;;;;;;;;;;;;181.68366919923574;182.83657959941775;182.83657959941775;182.83657959941775;182.83657959941775;182.83657959941775;182.83657959941775;182.83657959941775;182.83657959941775;185.85785879939795;185.85785879939795;185.85785879939795;185.85785879939795;185.85785879939795;185.85785879939795;None;0;;;C:\2023\REPSWITCH21092023\REPSWITCH_excgange\REPSWITCH_excgange\data/480204_REPSWITCH1_version2_list4_2024-01-26_11h17.24.971_micRespv2l4_recorded\recording_micRespv2l4_2024-01-26_11h20.23.597.wav;185.85785879939795;186.3578502992168;None;;;;;;480204;001;2024-01-26_11h17.24.971;REPSWITCH1_version2_list4;2022.2.4;143.90166424496803;
REPSWITCH1/PICTURE_152.png;caracol;speak;darkblue;nontarget;2;NT;2;4;4;2;Stim2_Set2;1;repeat;37;36;37;0;36;36;36;;;;;;;;;;;;;;;;;;;;;;;186.3578502992168;187.51778759993613;187.51778759993613;187.51778759993613;187.51778759993613;187.51778759993613;187.51778759993613;187.51778759993613;187.51778759993613;190.54591179918498;190.54591179918498;190.54591179918498;190.54591179918498;190.54591179918498;190.54591179918498;None;0;;;C:\2023\REPSWITCH21092023\REPSWITCH_excgange\REPSWITCH_excgange\data/480204_REPSWITCH1_version2_list4_2024-01-26_11h17.24.971_micRespv2l4_recorded\recording_micRespv2l4_2024-01-26_11h20.28.278.wav;190.54591179918498;;None;;;;;;480204;001;2024-01-26_11h17.24.971;REPSWITCH1_version2_list4;2022.2.4;143.90166424496803;
REPSWITCH1/PICTURE_152.png;caracol;type;gold;switch;1;T;2;4;4;2;Stim2_Set2;0;None;38;37;38;0;37;37;37;;;;;;;;;;;;;;;;;;;;;;;191.0459431996569;192.1711136000231;192.1711136000231;192.1711136000231;192.1711136000231;192.1711136000231;192.1711136000231;192.1711136000231;192.1711136000231;195.19931379985064;195.19931379985064;195.19931379985064;195.19931379985064;195.19931379985064;195.19931379985064;['c', 'a', 'r', 'a', 'c', 'o', 'l'];0;[0.628460499458015, 0.7718781996518373, 0.9014462996274233, 0.9821827001869678, 1.1555600995197892, 1.4762550992891192, 1.6655813995748758];caracol;C:\2023\REPSWITCH21092023\REPSWITCH_excgange\REPSWITCH_excgange\data/480204_REPSWITCH1_version2_list4_2024-01-26_11h17.24.971_micRespv2l4_recorded\recording_micRespv2l4_2024-01-26_11h20.32.932.wav;195.19931379985064;;None;;;;;;480204;001;2024-01-26_11h17.24.971;REPSWITCH1_version2_list4;2022.2.4;143.90166424496803;
REPSWITCH1/PICTURE_381.png;fresa;type;gold;filler;1;F;2;4;4;2;Stim2_Set1;0;None;39;38;39;0;38;38;38;;;;;;;;;;;;;;;;;;;;;;;195.6994268000126;196.72724339924753;196.72724339924753;196.72724339924753;196.72724339924753;196.72724339924753;196.72724339924753;196.72724339924753;196.72724339924753;199.75545419938862;199.75545419938862;199.75545419938862;199.75545419938862;199.75545419938862;199.75545419938862;['f', 'r', 'e', 's', 'a'];0;[0.7657017996534705, 0.9761862996965647, 1.0602040002122521, 1.2538273995742202, 1.3249078001827002];fresa;C:\2023\REPSWITCH21092023\REPSWITCH_excgange\REPSWITCH_excgange\data/480204_REPSWITCH1_version2_list4_2024-01-26_11h17.24.971_micRespv2l4_recorded\recording_micRespv2l4_2024-01-26_11h20.37.489.wav;199.75545419938862;200.25552649982274;None;;;;;;480204;001;2024-01-26_11h17.24.971;REPSWITCH1_version2_list4;2022.2.4;143.90166424496803;
REPSWITCH1/PICTURE_446.png;cerdo;type;gold;nontarget;1;NT;2;4;4;2;Stim7_Set2;1;repeat;40;39;40;0;39;39;39;;;;;;;;;;;;;;;;;;;;;;;200.25552649982274;201.38767579942942;201.38767579942942;201.38767579942942;201.38767579942942;201.38767579942942;201.38767579942942;201.38767579942942;201.38767579942942;204.415780399926;204.415780399926;204.415780399926;204.415780399926;204.415780399926;204.415780399926;['c', 'e', 'r', 'd', 'o'];0;[0.8242691000923514, 1.047096200287342, 1.1088899001479149, 1.3072158005088568, 1.3879488008096814];cerdo;C:\2023\REPSWITCH21092023\REPSWITCH_excgange\REPSWITCH_excgange\data/480204_REPSWITCH1_version2_list4_2024-01-26_11h17.24.971_micRespv2l4_recorded\recording_micRespv2l4_2024-01-26_11h20.42.149.wav;204.415780399926;;None;;;;;;480204;001;2024-01-26_11h17.24.971;REPSWITCH1_version2_list4;2022.2.4;143.90166424496803;
REPSWITCH1/PICTURE_446.png;cerdo;speak;darkblue;switch;2;T;2;4;4;2;Stim7_Set2;0;None;41;40;41;0;40;40;40;;;;;;;;;;;;;;;;;;;;;;;204.9158346997574;205.96461629960686;205.96461629960686;205.96461629960686;205.96461629960686;205.96461629960686;205.96461629960686;205.96461629960686;205.96461629960686;208.98587289918214;208.98587289918214;208.98587289918214;208.98587289918214;208.98587289918214;208.98587289918214;None;0;;;C:\2023\REPSWITCH21092023\REPSWITCH_excgange\REPSWITCH_excgange\data/480204_REPSWITCH1_version2_list4_2024-01-26_11h17.24.971_micRespv2l4_recorded\recording_micRespv2l4_2024-01-26_11h20.46.725.wav;208.98587289918214;209.48589209932834;None;;;;;;480204;001;2024-01-26_11h17.24.971;REPSWITCH1_version2_list4;2022.2.4;143.90166424496803;
REPSWITCH1/PICTURE_264.png;mano;speak;darkblue;nontarget;2;NT;2;4;4;2;Stim3_Set2;0;None;42;41;42;0;41;41;41;;;;;;;;;;;;;;;;;;;;;;;209.48589209932834;210.5902068996802;210.5902068996802;210.5902068996802;210.5902068996802;210.5902068996802;210.5902068996802;210.5902068996802;210.5902068996802;213.61837140005082;213.61837140005082;213.61837140005082;213.61837140005082;213.61837140005082;213.61837140005082;None;0;;;C:\2023\REPSWITCH21092023\REPSWITCH_excgange\REPSWITCH_excgange\data/480204_REPSWITCH1_version2_list4_2024-01-26_11h17.24.971_micRespv2l4_recorded\recording_micRespv2l4_2024-01-26_11h20.51.352.wav;213.61837140005082;;None;;;;;;480204;001;2024-01-26_11h17.24.971;REPSWITCH1_version2_list4;2022.2.4;143.90166424496803;
REPSWITCH1/PICTURE_264.png;mano;speak;darkblue;repeat;2;T;2;4;4;2;Stim3_Set2;0;None;43;42;43;0;42;42;42;;;;;;;;;;;;;;;;;;;;;;;214.11844189930707;215.27143849991262;215.27143849991262;215.27143849991262;215.27143849991262;215.27143849991262;215.27143849991262;215.27143849991262;215.27143849991262;218.29955009929836;218.29955009929836;218.29955009929836;218.29955009929836;218.29955009929836;218.29955009929836;None;0;;;C:\2023\REPSWITCH21092023\REPSWITCH_excgange\REPSWITCH_excgange\data/480204_REPSWITCH1_version2_list4_2024-01-26_11h17.24.971_micRespv2l4_recorded\recording_micRespv2l4_2024-01-26_11h20.56.032.wav;218.29955009929836;;None;;;;;;480204;001;2024-01-26_11h17.24.971;REPSWITCH1_version2_list4;2022.2.4;143.90166424496803;
REPSWITCH1/PICTURE_128.png;muñeca;type;gold;filler;1;F;2;4;4;2;Stim4_Set1;0;None;44;43;44;0;43;43;43;;;;;;;;;;;;;;;;;;;;;;;218.79961699992418;219.89696729928255;219.89696729928255;219.89696729928255;219.89696729928255;219.89696729928255;219.89696729928255;219.89696729928255;219.89696729928255;222.91822759993374;222.91822759993374;222.91822759993374;222.91822759993374;222.91822759993374;222.91822759993374;['m', 'u', 'ñ', 'e', 'c', 'a'];0;[0.8233965998515487, 1.0585921006277204, 1.3238631002604961, 1.3826109999790788, 1.6506756003946066, 1.7995873000472784];muñeca;C:\2023\REPSWITCH21092023\REPSWITCH_excgange\REPSWITCH_excgange\data/480204_REPSWITCH1_version2_list4_2024-01-26_11h17.24.971_micRespv2l4_recorded\recording_micRespv2l4_2024-01-26_11h21.00.657.wav;222.91822759993374;223.41835849918425;None;;;;;;480204;001;2024-01-26_11h17.24.971;REPSWITCH1_version2_list4;2022.2.4;143.90166424496803;
REPSWITCH1/PICTURE_30.png;granja;speak;darkblue;nontarget;2;NT;2;4;4;2;Stim5_Set2;1;switch;45;44;45;0;44;44;44;;;;;;;;;;;;;;;;;;;;;;;223.41835849918425;224.46005819924176;224.46005819924176;224.46005819924176;224.46005819924176;224.46005819924176;224.46005819924176;224.46005819924176;224.46005819924176;227.48827599920332;227.48827599920332;227.48827599920332;227.48827599920332;227.48827599920332;227.48827599920332;None;0;;;C:\2023\REPSWITCH21092023\REPSWITCH_excgange\REPSWITCH_excgange\data/480204_REPSWITCH1_version2_list4_2024-01-26_11h17.24.971_micRespv2l4_recorded\recording_micRespv2l4_2024-01-26_11h21.05.222.wav;227.48827599920332;;None;;;;;;480204;001;2024-01-26_11h17.24.971;REPSWITCH1_version2_list4;2022.2.4;143.90166424496803;
REPSWITCH1/PICTURE_30.png;granja;speak;darkblue;repeat;2;T;2;4;4;2;Stim5_Set2;0;None;46;45;46;0;45;45;45;;;;;;;;;;;;;;;;;;;;;;;227.98832959961146;229.06487719994038;229.06487719994038;229.06487719994038;229.06487719994038;229.06487719994038;229.06487719994038;229.06487719994038;229.06487719994038;232.0860511995852;232.0860511995852;232.0860511995852;232.0860511995852;232.0860511995852;232.0860511995852;None;0;;;C:\2023\REPSWITCH21092023\REPSWITCH_excgange\REPSWITCH_excgange\data/480204_REPSWITCH1_version2_list4_2024-01-26_11h17.24.971_micRespv2l4_recorded\recording_micRespv2l4_2024-01-26_11h21.09.826.wav;232.0860511995852;232.58612319920212;None;;;;;;480204;001;2024-01-26_11h17.24.971;REPSWITCH1_version2_list4;2022.2.4;143.90166424496803;
REPSWITCH1/PICTURE_646.png;tronco;type;gold;filler;1;F;2;4;4;2;Extra4;0;None;47;46;47;0;46;46;46;;;;;;;;;;;;;;;;;;;;;;;232.58612319920212;233.61411719955504;233.61411719955504;233.61411719955504;233.61411719955504;233.61411719955504;233.61411719955504;233.61411719955504;233.61411719955504;236.63530239928514;236.63530239928514;236.63530239928514;236.63530239928514;236.63530239928514;236.63530239928514;['t', 'r', 'o', 'c', 'n', 'o', 'backspace', 'backspace', 'backspace'];0;[1.5006132004782557, 1.7039008000865579, 1.7886531008407474, 1.9770836001262069, 2.083033500239253, 2.2284642001613975, 2.607959200628102, 2.7235568007454276, 2.8690674006938934];tro;C:\2023\REPSWITCH21092023\REPSWITCH_excgange\REPSWITCH_excgange\data/480204_REPSWITCH1_version2_list4_2024-01-26_11h17.24.971_micRespv2l4_recorded\recording_micRespv2l4_2024-01-26_11h21.14.375.wav;236.63530239928514;237.13535799924284;None;;;;;;480204;001;2024-01-26_11h17.24.971;REPSWITCH1_version2_list4;2022.2.4;143.90166424496803;
REPSWITCH1/PICTURE_16.png;cazador;speak;darkblue;filler;2;F;2;4;4;2;Stim6_Set1;0;None;48;47;48;0;47;47;47;;;;;;;;;;;;;;;;;;;;;;;237.13535799924284;238.23270369973034;238.23270369973034;238.23270369973034;238.23270369973034;238.23270369973034;238.23270369973034;238.23270369973034;238.23270369973034;241.26096209976822;241.26096209976822;241.26096209976822;241.26096209976822;241.26096209976822;241.26096209976822;None;0;;;C:\2023\REPSWITCH21092023\REPSWITCH_excgange\REPSWITCH_excgange\data/480204_REPSWITCH1_version2_list4_2024-01-26_11h17.24.971_micRespv2l4_recorded\recording_micRespv2l4_2024-01-26_11h21.18.994.wav;241.26096209976822;;None;;;;;;480204;001;2024-01-26_11h17.24.971;REPSWITCH1_version2_list4;2022.2.4;143.90166424496803;
REPSWITCH1/PICTURE_175.png;pintor;speak;darkblue;nontarget;2;NT;2;4;4;2;Stim1_Set2;1;repeat;49;48;49;0;48;48;48;;;;;;;;;;;;;;;;;;;;;;;241.7609373992309;242.93479589931667;242.93479589931667;242.93479589931667;242.93479589931667;242.93479589931667;242.93479589931667;242.93479589931667;242.93479589931667;245.96293969918042;245.96293969918042;245.96293969918042;245.96293969918042;245.96293969918042;245.96293969918042;None;0;;;C:\2023\REPSWITCH21092023\REPSWITCH_excgange\REPSWITCH_excgange\data/480204_REPSWITCH1_version2_list4_2024-01-26_11h17.24.971_micRespv2l4_recorded\recording_micRespv2l4_2024-01-26_11h21.23.696.wav;245.96293969918042;;None;;;;;;480204;001;2024-01-26_11h17.24.971;REPSWITCH1_version2_list4;2022.2.4;143.90166424496803;
REPSWITCH1/PICTURE_175.png;pintor;type;gold;switch;1;T;2;4;4;2;Stim1_Set2;0;None;50;49;50;0;49;49;49;;;;;;;;;;;;;;;;;;;;;;;246.46294800005853;247.546431299299;247.546431299299;247.546431299299;247.546431299299;247.546431299299;247.546431299299;247.546431299299;247.546431299299;250.56767649948597;250.56767649948597;250.56767649948597;250.56767649948597;250.56767649948597;250.56767649948597;['p', 'i', 'n', 't', 'o', 'r'];0;[1.0210413997992873, 1.1217501992359757, 1.3499579997733235, 1.423710299655795, 1.5333391996100545, 1.592144399881363];pintor;C:\2023\REPSWITCH21092023\REPSWITCH_excgange\REPSWITCH_excgange\data/480204_REPSWITCH1_version2_list4_2024-01-26_11h17.24.971_micRespv2l4_recorded\recording_micRespv2l4_2024-01-26_11h21.28.307.wav;250.56767649948597;251.06774999946356;None;;;;;;480204;001;2024-01-26_11h17.24.971;REPSWITCH1_version2_list4;2022.2.4;143.90166424496803;
REPSWITCH1/PICTURE_663.png;columna;speak;darkblue;filler;2;F;4;4;4;2;Extra6;0;None;51;50;51;0;50;50;50;;;;;;;;;;;;;;;;;;;;;;;251.06774999946356;252.15121119935066;252.15121119935066;252.15121119935066;252.15121119935066;252.15121119935066;252.15121119935066;252.15121119935066;252.15121119935066;255.1793778995052;255.1793778995052;255.1793778995052;255.1793778995052;255.1793778995052;255.1793778995052;None;0;;;C:\2023\REPSWITCH21092023\REPSWITCH_excgange\REPSWITCH_excgange\data/480204_REPSWITCH1_version2_list4_2024-01-26_11h17.24.971_micRespv2l4_recorded\recording_micRespv2l4_2024-01-26_11h21.32.912.wav;255.1793778995052;;space;255.67945949919522;255.67945949919522;11.932174700312316;;;480204;001;2024-01-26_11h17.24.971;REPSWITCH1_version2_list4;2022.2.4;143.90166424496803;
REPSWITCH1/PICTURE_35.png;oreja;type;gold;nontarget;1;NT;3;4;4;2;Stim5_Set3;0;None;52;51;52;0;51;51;51;;;;;;;;;;;;;;;;;;;;;;;267.6186028998345;268.6742906998843;268.6742906998843;268.6742906998843;268.6742906998843;268.6742906998843;268.6742906998843;268.6742906998843;268.6742906998843;271.69545239955187;271.69545239955187;271.69545239955187;271.69545239955187;271.69545239955187;271.69545239955187;['o', 'r', 'e', 'k', 'a', 'backspace', 'backspace', 'j', 'a'];0;[0.7936332998797297, 0.9142477996647358, 0.980107500217855, 1.1106032999232411, 1.1763746999204159, 1.5372858000919223, 1.652904199436307, 1.871170999482274, 1.9369493992999196];oreja;C:\2023\REPSWITCH21092023\REPSWITCH_excgange\REPSWITCH_excgange\data/480204_REPSWITCH1_version2_list4_2024-01-26_11h17.24.971_micRespv2l4_recorded\recording_micRespv2l4_2024-01-26_11h21.49.435.wav;271.69545239955187;272.19552280008793;None;;;;;;480204;001;2024-01-26_11h17.24.971;REPSWITCH1_version2_list4;2022.2.4;143.90166424496803;
REPSWITCH1/PICTURE_35.png;oreja;speak;darkblue;switch;2;T;3;4;4;2;Stim5_Set3;0;None;53;52;53;0;52;52;52;;;;;;;;;;;;;;;;;;;;;;;272.19552280008793;273.3137055998668;273.3137055998668;273.3137055998668;273.3137055998668;273.3137055998668;273.3137055998668;273.3137055998668;273.3137055998668;276.3418696997687;276.3418696997687;276.3418696997687;276.3418696997687;276.3418696997687;276.3418696997687;None;0;;;C:\2023\REPSWITCH21092023\REPSWITCH_excgange\REPSWITCH_excgange\data/480204_REPSWITCH1_version2_list4_2024-01-26_11h17.24.971_micRespv2l4_recorded\recording_micRespv2l4_2024-01-26_11h21.54.074.wav;276.3418696997687;;None;;;;;;480204;001;2024-01-26_11h17.24.971;REPSWITCH1_version2_list4;2022.2.4;143.90166424496803;
REPSWITCH1/PICTURE_199.png;falda;speak;darkblue;filler;2;F;3;4;4;2;Stim8_Set2;0;None;54;53;54;0;53;53;53;;;;;;;;;;;;;;;;;;;;;;;276.8420142997056;277.9254535995424;277.9254535995424;277.9254535995424;277.9254535995424;277.9254535995424;277.9254535995424;277.9254535995424;277.9254535995424;280.95367310009897;280.95367310009897;280.95367310009897;280.95367310009897;280.95367310009897;280.95367310009897;None;0;;;C:\2023\REPSWITCH21092023\REPSWITCH_excgange\REPSWITCH_excgange\data/480204_REPSWITCH1_version2_list4_2024-01-26_11h17.24.971_micRespv2l4_recorded\recording_micRespv2l4_2024-01-26_11h21.58.687.wav;280.95367310009897;;None;;;;;;480204;001;2024-01-26_11h17.24.971;REPSWITCH1_version2_list4;2022.2.4;143.90166424496803;
REPSWITCH1/PICTURE_576.png;guante;speak;darkblue;nontarget;2;NT;3;4;4;2;Stim1_Set3;1;repeat;55;54;55;0;54;54;54;;;;;;;;;;;;;;;;;;;;;;;281.45369149930775;282.55800399929285;282.55800399929285;282.55800399929285;282.55800399929285;282.55800399929285;282.55800399929285;282.55800399929285;282.55800399929285;285.579229099676;285.579229099676;285.579229099676;285.579229099676;285.579229099676;285.579229099676;None;0;;;C:\2023\REPSWITCH21092023\REPSWITCH_excgange\REPSWITCH_excgange\data/480204_REPSWITCH1_version2_list4_2024-01-26_11h17.24.971_micRespv2l4_recorded\recording_micRespv2l4_2024-01-26_11h22.03.319.wav;285.579229099676;286.07929189968854;None;;;;;;480204;001;2024-01-26_11h17.24.971;REPSWITCH1_version2_list4;2022.2.4;143.90166424496803;
REPSWITCH1/PICTURE_576.png;guante;type;gold;switch;1;T;3;4;4;2;Stim1_Set3;0;None;56;55;56;0;55;55;55;;;;;;;;;;;;;;;;;;;;;;;286.07929189968854;287.16971640009433;287.16971640009433;287.16971640009433;287.16971640009433;287.16971640009433;287.16971640009433;287.16971640009433;287.16971640009433;290.1978666000068;290.1978666000068;290.1978666000068;290.1978666000068;290.1978666000068;290.1978666000068;['g', 'u', 'a', 'n', 't', 'e'];0;[0.8773878002539277, 1.0236694002524018, 1.1115412004292011, 1.2421905007213354, 1.3601712007075548, 1.4030006006360054];guante;C:\2023\REPSWITCH21092023\REPSWITCH_excgange\REPSWITCH_excgange\data/480204_REPSWITCH1_version2_list4_2024-01-26_11h17.24.971_micRespv2l4_recorded\recording_micRespv2l4_2024-01-26_11h22.07.931.wav;290.1978666000068;;None;;;;;;480204;001;2024-01-26_11h17.24.971;REPSWITCH1_version2_list4;2022.2.4;143.90166424496803;
REPSWITCH1/PICTURE_517.png;cuerda;type;gold;filler;1;F;3;4;4;2;Stim4_Set2;1;repeat;57;56;57;0;56;56;56;;;;;;;;;;;;;;;;;;;;;;;290.6979283997789;291.73278829921037;291.73278829921037;291.73278829921037;291.73278829921037;291.73278829921037;291.73278829921037;291.73278829921037;291.73278829921037;294.7609623000026;294.7609623000026;294.7609623000026;294.7609623000026;294.7609623000026;294.7609623000026;['c', 'u', 'e', 'r', 'd', 'a'];0;[0.7179013006389141, 0.8594268998131156, 0.9281950006261468, 0.9889889005571604, 1.166788499802351, 1.256427200511098];cuerda;C:\2023\REPSWITCH21092023\REPSWITCH_excgange\REPSWITCH_excgange\data/480204_REPSWITCH1_version2_list4_2024-01-26_11h17.24.971_micRespv2l4_recorded\recording_micRespv2l4_2024-01-26_11h22.12.494.wav;294.7609623000026;;None;;;;;;480204;001;2024-01-26_11h17.24.971;REPSWITCH1_version2_list4;2022.2.4;143.90166424496803;
REPSWITCH1/PICTURE_271.png;conejo;type;gold;nontarget;1;NT;3;4;4;2;Stim7_Set3;1;repeat;58;57;58;0;57;57;57;;;;;;;;;;;;;;;;;;;;;;;295.2610305994749;296.32376099936664;296.32376099936664;296.32376099936664;296.32376099936664;296.32376099936664;296.32376099936664;296.32376099936664;296.32376099936664;299.3448890997097;299.3448890997097;299.3448890997097;299.3448890997097;299.3448890997097;299.3448890997097;['c', 'o', 'n', 'e', 'j', 'o'];0;[0.5718020992353559, 1.448956599459052, 1.62039399985224, 1.7051278995350003, 1.8756954995915294, 1.913561699911952];conejo;C:\2023\REPSWITCH21092023\REPSWITCH_excgange\REPSWITCH_excgange\data/480204_REPSWITCH1_version2_list4_2024-01-26_11h17.24.971_micRespv2l4_recorded\recording_micRespv2l4_2024-01-26_11h22.17.085.wav;299.3448890997097;299.8449671994895;None;;;;;;480204;001;2024-01-26_11h17.24.971;REPSWITCH1_version2_list4;2022.2.4;143.90166424496803;
REPSWITCH1/PICTURE_271.png;conejo;speak;darkblue;switch;2;T;3;4;4;2;Stim7_Set3;0;None;59;58;59;0;58;58;58;;;;;;;;;;;;;;;;;;;;;;;299.8449671994895;300.95625169947743;300.95625169947743;300.95625169947743;300.95625169947743;300.95625169947743;300.95625169947743;300.95625169947743;300.95625169947743;303.9774390999228;303.9774390999228;303.9774390999228;303.9774390999228;303.9774390999228;303.9774390999228;None;0;;;C:\2023\REPSWITCH21092023\REPSWITCH_excgange\REPSWITCH_excgange\data/480204_REPSWITCH1_version2_list4_2024-01-26_11h17.24.971_micRespv2l4_recorded\recording_micRespv2l4_2024-01-26_11h22.21.717.wav;303.9774390999228;304.47760329954326;None;;;;;;480204;001;2024-01-26_11h17.24.971;REPSWITCH1_version2_list4;2022.2.4;143.90166424496803;
REPSWITCH1/PICTURE_552.png;manzana;type;gold;filler;1;F;3;4;4;2;Stim6_Set2;0;None;60;59;60;0;59;59;59;;;;;;;;;;;;;;;;;;;;;;;304.47760329954326;305.56796599924564;305.56796599924564;305.56796599924564;305.56796599924564;305.56796599924564;305.56796599924564;305.56796599924564;305.56796599924564;308.58919919934124;308.58919919934124;308.58919919934124;308.58919919934124;308.58919919934124;308.58919919934124;['m', 'a', 'n', 'z', 'a', 'n', 'a'];0;[0.9402649002149701, 1.0229763006791472, 1.1495641004294157, 1.2548414003103971, 1.3186113005504012, 1.3863891009241343, 1.4907276006415486];manzana;C:\2023\REPSWITCH21092023\REPSWITCH_excgange\REPSWITCH_excgange\data/480204_REPSWITCH1_version2_list4_2024-01-26_11h17.24.971_micRespv2l4_recorded\recording_micRespv2l4_2024-01-26_11h22.26.328.wav;308.58919919934124;309.08933829981834;None;;;;;;480204;001;2024-01-26_11h17.24.971;REPSWITCH1_version2_list4;2022.2.4;143.90166424496803;
REPSWITCH1/PICTURE_242.png;cartero;speak;darkblue;nontarget;2;NT;3;4;4;2;Stim3_Set3;1;switch;61;60;61;0;60;60;60;;;;;;;;;;;;;;;;;;;;;;;309.08933829981834;310.1866237996146;310.1866237996146;310.1866237996146;310.1866237996146;310.1866237996146;310.1866237996146;310.1866237996146;310.1866237996146;313.20792649965733;313.20792649965733;313.20792649965733;313.20792649965733;313.20792649965733;313.20792649965733;None;0;;;C:\2023\REPSWITCH21092023\REPSWITCH_excgange\REPSWITCH_excgange\data/480204_REPSWITCH1_version2_list4_2024-01-26_11h17.24.971_micRespv2l4_recorded\recording_micRespv2l4_2024-01-26_11h22.30.947.wav;313.20792649965733;313.7078975997865;None;;;;;;480204;001;2024-01-26_11h17.24.971;REPSWITCH1_version2_list4;2022.2.4;143.90166424496803;
REPSWITCH1/PICTURE_242.png;cartero;speak;darkblue;repeat;2;T;3;4;4;2;Stim3_Set3;0;None;62;61;62;0;61;61;61;;;;;;;;;;;;;;;;;;;;;;;313.7078975997865;314.8053168999031;314.8053168999031;314.8053168999031;314.8053168999031;314.8053168999031;314.8053168999031;314.8053168999031;314.8053168999031;317.8335258997977;317.8335258997977;317.8335258997977;317.8335258997977;317.8335258997977;317.8335258997977;None;0;;;C:\2023\REPSWITCH21092023\REPSWITCH_excgange\REPSWITCH_excgange\data/480204_REPSWITCH1_version2_list4_2024-01-26_11h17.24.971_micRespv2l4_recorded\recording_micRespv2l4_2024-01-26_11h22.35.566.wav;317.8335258997977;;None;;;;;;480204;001;2024-01-26_11h17.24.971;REPSWITCH1_version2_list4;2022.2.4;143.90166424496803;
REPSWITCH1/PICTURE_152.png;caracol;speak;darkblue;filler;2;F;3;4;4;2;Stim2_Set2;0;None;63;62;63;0;62;62;62;;;;;;;;;;;;;;;;;;;;;;;318.3335962994024;319.49342709966004;319.49342709966004;319.49342709966004;319.49342709966004;319.49342709966004;319.49342709966004;319.49342709966004;319.49342709966004;322.5146902995184;322.5146902995184;322.5146902995184;322.5146902995184;322.5146902995184;322.5146902995184;None;0;;;C:\2023\REPSWITCH21092023\REPSWITCH_excgange\REPSWITCH_excgange\data/480204_REPSWITCH1_version2_list4_2024-01-26_11h17.24.971_micRespv2l4_recorded\recording_micRespv2l4_2024-01-26_11h22.40.254.wav;322.5146902995184;323.01469669956714;None;;;;;;480204;001;2024-01-26_11h17.24.971;REPSWITCH1_version2_list4;2022.2.4;143.90166424496803;
REPSWITCH1/PICTURE_446.png;cerdo;type;gold;filler;1;F;3;4;4;2;Stim7_Set2;1;switch;64;63;64;0;63;63;63;;;;;;;;;;;;;;;;;;;;;;;323.01469669956714;324.1328986994922;324.1328986994922;324.1328986994922;324.1328986994922;324.1328986994922;324.1328986994922;324.1328986994922;324.1328986994922;327.15413649939;327.15413649939;327.15413649939;327.15413649939;327.15413649939;327.15413649939;['c', 'e', 'r', 'd', 'o'];0;[0.7063637999817729, 0.9725524000823498, 1.0551442997530103, 1.233368900604546, 1.3051314000040293];cerdo;C:\2023\REPSWITCH21092023\REPSWITCH_excgange\REPSWITCH_excgange\data/480204_REPSWITCH1_version2_list4_2024-01-26_11h17.24.971_micRespv2l4_recorded\recording_micRespv2l4_2024-01-26_11h22.44.894.wav;327.15413649939;327.65420069918036;None;;;;;;480204;001;2024-01-26_11h17.24.971;REPSWITCH1_version2_list4;2022.2.4;143.90166424496803;
REPSWITCH1/PICTURE_610.png;miel;speak;darkblue;nontarget;2;NT;3;4;4;2;Stim2_Set3;1;switch;65;64;65;0;64;64;64;;;;;;;;;;;;;;;;;;;;;;;327.65420069918036;328.7099111992866;328.7099111992866;328.7099111992866;328.7099111992866;328.7099111992866;328.7099111992866;328.7099111992866;328.7099111992866;331.7310906993225;331.7310906993225;331.7310906993225;331.7310906993225;331.7310906993225;331.7310906993225;None;0;;;C:\2023\REPSWITCH21092023\REPSWITCH_excgange\REPSWITCH_excgange\data/480204_REPSWITCH1_version2_list4_2024-01-26_11h17.24.971_micRespv2l4_recorded\recording_micRespv2l4_2024-01-26_11h22.49.470.wav;331.7310906993225;332.2312209997326;None;;;;;;480204;001;2024-01-26_11h17.24.971;REPSWITCH1_version2_list4;2022.2.4;143.90166424496803;
REPSWITCH1/PICTURE_610.png;miel;speak;darkblue;repeat;2;T;3;4;4;2;Stim2_Set3;0;None;66;65;66;0;65;65;65;;;;;;;;;;;;;;;;;;;;;;;332.2312209997326;333.2522043995559;333.2522043995559;333.2522043995559;333.2522043995559;333.2522043995559;333.2522043995559;333.2522043995559;333.2522043995559;336.2734129000455;336.2734129000455;336.2734129000455;336.2734129000455;336.2734129000455;336.2734129000455;None;0;;;C:\2023\REPSWITCH21092023\REPSWITCH_excgange\REPSWITCH_excgange\data/480204_REPSWITCH1_version2_list4_2024-01-26_11h17.24.971_micRespv2l4_recorded\recording_micRespv2l4_2024-01-26_11h22.54.012.wav;336.2734129000455;336.77345739956945;None;;;;;;480204;001;2024-01-26_11h17.24.971;REPSWITCH1_version2_list4;2022.2.4;143.90166424496803;
REPSWITCH1/PICTURE_320.png;iglesia;speak;darkblue;nontarget;2;NT;3;4;4;2;Stim8_Set3;1;repeat;67;66;67;0;66;66;66;;;;;;;;;;;;;;;;;;;;;;;336.77345739956945;337.8361522993073;337.8361522993073;337.8361522993073;337.8361522993073;337.8361522993073;337.8361522993073;337.8361522993073;337.8361522993073;340.85732639953494;340.85732639953494;340.85732639953494;340.85732639953494;340.85732639953494;340.85732639953494;None;0;;;C:\2023\REPSWITCH21092023\REPSWITCH_excgange\REPSWITCH_excgange\data/480204_REPSWITCH1_version2_list4_2024-01-26_11h17.24.971_micRespv2l4_recorded\recording_micRespv2l4_2024-01-26_11h22.58.597.wav;340.85732639953494;341.3573922999203;None;;;;;;480204;001;2024-01-26_11h17.24.971;REPSWITCH1_version2_list4;2022.2.4;143.90166424496803;
REPSWITCH1/PICTURE_320.png;iglesia;type;gold;switch;1;T;3;4;4;2;Stim8_Set3;0;None;68;67;68;0;67;67;67;;;;;;;;;;;;;;;;;;;;;;;341.3573922999203;342.413083399646;342.413083399646;342.413083399646;342.413083399646;342.413083399646;342.413083399646;342.413083399646;342.413083399646;345.4342890996486;345.4342890996486;345.4342890996486;345.4342890996486;345.4342890996486;345.4342890996486;['i', 'g', 'l', 'e', 's', 'i', 'a'];0;[0.8455930994823575, 0.9583102995529771, 1.0830282997339964, 1.1858332995325327, 1.3351266998797655, 1.4058876996859908, 1.5025491993874311];iglesia;C:\2023\REPSWITCH21092023\REPSWITCH_excgange\REPSWITCH_excgange\data/480204_REPSWITCH1_version2_list4_2024-01-26_11h17.24.971_micRespv2l4_recorded\recording_micRespv2l4_2024-01-26_11h23.03.174.wav;345.4342890996486;345.93437539972365;None;;;;;;480204;001;2024-01-26_11h17.24.971;REPSWITCH1_version2_list4;2022.2.4;143.90166424496803;
REPSWITCH1/PICTURE_30.png;granja;speak;darkblue;filler;2;F;3;4;4;2;Stim5_Set2;0;None;69;68;69;0;68;68;68;;;;;;;;;;;;;;;;;;;;;;;345.93437539972365;347.01784530002624;347.01784530002624;347.01784530002624;347.01784530002624;347.01784530002624;347.01784530002624;347.01784530002624;347.01784530002624;350.0460631996393;350.0460631996393;350.0460631996393;350.0460631996393;350.0460631996393;350.0460631996393;None;0;;;C:\2023\REPSWITCH21092023\REPSWITCH_excgange\REPSWITCH_excgange\data/480204_REPSWITCH1_version2_list4_2024-01-26_11h17.24.971_micRespv2l4_recorded\recording_micRespv2l4_2024-01-26_11h23.07.779.wav;350.0460631996393;;None;;;;;;480204;001;2024-01-26_11h17.24.971;REPSWITCH1_version2_list4;2022.2.4;143.90166424496803;
REPSWITCH1/PICTURE_264.png;mano;type;gold;filler;1;F;3;4;4;2;Stim3_Set2;0;None;70;69;70;0;69;69;69;;;;;;;;;;;;;;;;;;;;;;;350.5461511993781;351.712898099795;351.712898099795;351.712898099795;351.712898099795;351.712898099795;351.712898099795;351.712898099795;351.712898099795;354.7341460995376;354.7341460995376;354.7341460995376;354.7341460995376;354.7341460995376;354.7341460995376;['m', 'a', 'n', 'o'];0;[0.8504417007789016, 0.9430813007056713, 1.0467862002551556, 1.1635718001052737];mano;C:\2023\REPSWITCH21092023\REPSWITCH_excgange\REPSWITCH_excgange\data/480204_REPSWITCH1_version2_list4_2024-01-26_11h17.24.971_micRespv2l4_recorded\recording_micRespv2l4_2024-01-26_11h23.12.474.wav;354.7341460995376;355.2342123994604;None;;;;;;480204;001;2024-01-26_11h17.24.971;REPSWITCH1_version2_list4;2022.2.4;143.90166424496803;
REPSWITCH1/PICTURE_464.png;goma;type;gold;nontarget;1;NT;3;4;4;2;Stim6_Set3;0;None;71;70;71;0;70;70;70;;;;;;;;;;;;;;;;;;;;;;;355.2342123994604;356.33160399924964;356.33160399924964;356.33160399924964;356.33160399924964;356.33160399924964;356.33160399924964;356.33160399924964;356.33160399924964;359.3528036996722;359.3528036996722;359.3528036996722;359.3528036996722;359.3528036996722;359.3528036996722;['g', 'o', 'm', 'a'];0;[0.8414345998317003, 0.9402438998222351, 1.057778500020504, 1.1474802996963263];goma;C:\2023\REPSWITCH21092023\REPSWITCH_excgange\REPSWITCH_excgange\data/480204_REPSWITCH1_version2_list4_2024-01-26_11h17.24.971_micRespv2l4_recorded\recording_micRespv2l4_2024-01-26_11h23.17.092.wav;359.3528036996722;359.85284349974245;None;;;;;;480204;001;2024-01-26_11h17.24.971;REPSWITCH1_version2_list4;2022.2.4;143.90166424496803;
REPSWITCH1/PICTURE_464.png;goma;type;gold;repeat;1;T;3;4;4;2;Stim6_Set3;0;None;72;71;72;0;71;71;71;;;;;;;;;;;;;;;;;;;;;;;359.85284349974245;360.95720480009913;360.95720480009913;360.95720480009913;360.95720480009913;360.95720480009913;360.95720480009913;360.95720480009913;360.95720480009913;363.9853796996176;363.9853796996176;363.9853796996176;363.9853796996176;363.9853796996176;363.9853796996176;['g', 'o', 'm', 'a'];0;[0.45537340082228184, 0.5780982002615929, 0.6760943001136184, 0.9500592006370425];goma;C:\2023\REPSWITCH21092023\REPSWITCH_excgange\REPSWITCH_excgange\data/480204_REPSWITCH1_version2_list4_2024-01-26_11h17.24.971_micRespv2l4_recorded\recording_micRespv2l4_2024-01-26_11h23.21.718.wav;363.9853796996176;;None;;;;;;480204;001;2024-01-26_11h17.24.971;REPSWITCH1_version2_list4;2022.2.4;143.90166424496803;
REPSWITCH1/PICTURE_175.png;pintor;speak;darkblue;filler;2;F;3;4;4;2;Stim1_Set2;0;None;73;72;73;0;72;72;72;;;;;;;;;;;;;;;;;;;;;;;364.4854381000623;365.6939356997609;365.6939356997609;365.6939356997609;365.6939356997609;365.6939356997609;365.6939356997609;365.6939356997609;365.6939356997609;368.7151529993862;368.7151529993862;368.7151529993862;368.7151529993862;368.7151529993862;368.7151529993862;None;0;;;C:\2023\REPSWITCH21092023\REPSWITCH_excgange\REPSWITCH_excgange\data/480204_REPSWITCH1_version2_list4_2024-01-26_11h17.24.971_micRespv2l4_recorded\recording_micRespv2l4_2024-01-26_11h23.26.455.wav;368.7151529993862;369.215218199417;None;;;;;;480204;001;2024-01-26_11h17.24.971;REPSWITCH1_version2_list4;2022.2.4;143.90166424496803;
REPSWITCH1/PICTURE_235.png;aguja;type;gold;nontarget;1;NT;3;4;4;2;Stim4_Set3;1;switch;74;73;74;0;73;73;73;;;;;;;;;;;;;;;;;;;;;;;369.215218199417;370.2917845994234;370.2917845994234;370.2917845994234;370.2917845994234;370.2917845994234;370.2917845994234;370.2917845994234;370.2917845994234;373.31294269952923;373.31294269952923;373.31294269952923;373.31294269952923;373.31294269952923;373.31294269952923;['a', 'g', 'u', 'j', 'a'];0;[1.198593900538981, 1.4746692003682256, 1.627207800745964, 1.8121873009949923, 1.9058781005442142];aguja;C:\2023\REPSWITCH21092023\REPSWITCH_excgange\REPSWITCH_excgange\data/480204_REPSWITCH1_version2_list4_2024-01-26_11h17.24.971_micRespv2l4_recorded\recording_micRespv2l4_2024-01-26_11h23.31.052.wav;373.31294269952923;373.8130073994398;None;;;;;;480204;001;2024-01-26_11h17.24.971;REPSWITCH1_version2_list4;2022.2.4;143.90166424496803;
REPSWITCH1/PICTURE_235.png;aguja;type;gold;repeat;1;T;3;4;4;2;Stim4_Set3;0;None;75;74;75;0;74;74;74;;;;;;;;;;;;;;;;;;;;;;;373.8130073994398;374.9174212999642;374.9174212999642;374.9174212999642;374.9174212999642;374.9174212999642;374.9174212999642;374.9174212999642;374.9174212999642;377.9455397995189;377.9455397995189;377.9455397995189;377.9455397995189;377.9455397995189;377.9455397995189;['a', 'u', 'g', 'u', 'j', 'a'];0;[0.6274116998538375, 0.9423683993518353, 1.681178099475801, 1.8028095997869968, 1.987155199982226, 2.0550026996061206];auguja;C:\2023\REPSWITCH21092023\REPSWITCH_excgange\REPSWITCH_excgange\data/480204_REPSWITCH1_version2_list4_2024-01-26_11h17.24.971_micRespv2l4_recorded\recording_micRespv2l4_2024-01-26_11h23.35.679.wav;377.9455397995189;;None;;;;;;480204;001;2024-01-26_11h17.24.971;REPSWITCH1_version2_list4;2022.2.4;143.90166424496803;
REPSWITCH1/PICTURE_576.png;guante;type;gold;filler;1;F;4;4;4;2;Stim1_Set3;1;repeat;76;75;76;0;75;75;75;;;;;;;;;;;;;;;;;;;;;;;378.44559199921787;379.50131819956005;379.50131819956005;379.50131819956005;379.50131819956005;379.50131819956005;379.50131819956005;379.50131819956005;379.50131819956005;382.52946259919554;382.52946259919554;382.52946259919554;382.52946259919554;382.52946259919554;382.52946259919554;['g', 'u', 'a', 'n', 't', 'e'];0;[0.9281128998845816, 1.026770600117743, 1.1145449997857213, 1.2151528997346759, 1.3436886994168162, 1.3895239997655153];guante;C:\2023\REPSWITCH21092023\REPSWITCH_excgange\REPSWITCH_excgange\data/480204_REPSWITCH1_version2_list4_2024-01-26_11h17.24.971_micRespv2l4_recorded\recording_micRespv2l4_2024-01-26_11h23.40.263.wav;382.52946259919554;;None;;;;;;480204;001;2024-01-26_11h17.24.971;REPSWITCH1_version2_list4;2022.2.4;143.90166424496803;
REPSWITCH1/PICTURE_340.png;espejo;speak;darkblue;filler;2;F;4;4;4;2;Extra1;0;None;77;76;77;0;76;76;76;;;;;;;;;;;;;;;;;;;;;;;383.0295358998701;384.0922085996717;384.0922085996717;384.0922085996717;384.0922085996717;384.0922085996717;384.0922085996717;384.0922085996717;384.0922085996717;387.1133874999359;387.1133874999359;387.1133874999359;387.1133874999359;387.1133874999359;387.1133874999359;None;0;;;C:\2023\REPSWITCH21092023\REPSWITCH_excgange\REPSWITCH_excgange\data/480204_REPSWITCH1_version2_list4_2024-01-26_11h17.24.971_micRespv2l4_recorded\recording_micRespv2l4_2024-01-26_11h23.44.853.wav;387.1133874999359;387.6135436994955;None;;;;;;480204;001;2024-01-26_11h17.24.971;REPSWITCH1_version2_list4;2022.2.4;143.90166424496803;
REPSWITCH1/PICTURE_464.png;goma;speak;darkblue;filler;2;F;4;4;4;2;Stim6_Set3;1;repeat;78;77;78;0;77;77;77;;;;;;;;;;;;;;;;;;;;;;;387.6135436994955;388.7386121992022;388.7386121992022;388.7386121992022;388.7386121992022;388.7386121992022;388.7386121992022;388.7386121992022;388.7386121992022;391.7598390998319;391.7598390998319;391.7598390998319;391.7598390998319;391.7598390998319;391.7598390998319;None;0;;;C:\2023\REPSWITCH21092023\REPSWITCH_excgange\REPSWITCH_excgange\data/480204_REPSWITCH1_version2_list4_2024-01-26_11h17.24.971_micRespv2l4_recorded\recording_micRespv2l4_2024-01-26_11h23.49.498.wav;391.7598390998319;392.2598918993026;None;;;;;;480204;001;2024-01-26_11h17.24.971;REPSWITCH1_version2_list4;2022.2.4;143.90166424496803;
REPSWITCH1/PICTURE_338.png;regalo;type;gold;nontarget;1;NT;4;4;4;2;Stim6_Set4;0;None;79;78;79;0;78;78;78;;;;;;;;;;;;;;;;;;;;;;;392.2598918993026;393.35730309970677;393.35730309970677;393.35730309970677;393.35730309970677;393.35730309970677;393.35730309970677;393.35730309970677;393.35730309970677;396.3785812994465;396.3785812994465;396.3785812994465;396.3785812994465;396.3785812994465;396.3785812994465;['r', 'e', 'g', 'a', 'l', 'o'];0;[0.8853910006582737, 0.9508292004466057, 1.0992490006610751, 1.248992600478232, 1.5724178003147244, 1.7317150002345443];regalo;C:\2023\REPSWITCH21092023\REPSWITCH_excgange\REPSWITCH_excgange\data/480204_REPSWITCH1_version2_list4_2024-01-26_11h17.24.971_micRespv2l4_recorded\recording_micRespv2l4_2024-01-26_11h23.54.117.wav;396.3785812994465;396.87857589963824;None;;;;;;480204;001;2024-01-26_11h17.24.971;REPSWITCH1_version2_list4;2022.2.4;143.90166424496803;
REPSWITCH1/PICTURE_338.png;regalo;type;gold;repeat;1;T;4;4;4;2;Stim6_Set4;0;None;80;79;80;0;79;79;79;;;;;;;;;;;;;;;;;;;;;;;396.87857589963824;398.0037139998749;398.0037139998749;398.0037139998749;398.0037139998749;398.0037139998749;398.0037139998749;398.0037139998749;398.0037139998749;401.0318792993203;401.0318792993203;401.0318792993203;401.0318792993203;401.0318792993203;401.0318792993203;['r', 'e', 'g', 'a', 'l', 'o'];0;[0.8469146005809307, 0.8997266003862023, 1.0631477003917098, 1.1917511001229286, 1.2764646001160145, 1.4239497007802129];regalo;C:\2023\REPSWITCH21092023\REPSWITCH_excgange\REPSWITCH_excgange\data/480204_REPSWITCH1_version2_list4_2024-01-26_11h17.24.971_micRespv2l4_recorded\recording_micRespv2l4_2024-01-26_11h23.58.765.wav;401.0318792993203;;None;;;;;;480204;001;2024-01-26_11h17.24.971;REPSWITCH1_version2_list4;2022.2.4;143.90166424496803;
REPSWITCH1/PICTURE_8.png;pierna;type;gold;nontarget;1;NT;4;4;4;2;Stim3_Set4;1;repeat;81;80;81;0;80;80;80;;;;;;;;;;;;;;;;;;;;;;;401.53192979935557;402.64324319921434;402.64324319921434;402.64324319921434;402.64324319921434;402.64324319921434;402.64324319921434;402.64324319921434;402.64324319921434;405.66443589981645;405.66443589981645;405.66443589981645;405.66443589981645;405.66443589981645;405.66443589981645;['p', 'i', 'e', 'r', 'n', 'a'];0;[1.0659535005688667, 1.1636355007067323, 1.256674600765109, 1.3982826005667448, 1.5417639007791877, 1.6305703008547425];pierna;C:\2023\REPSWITCH21092023\REPSWITCH_excgange\REPSWITCH_excgange\data/480204_REPSWITCH1_version2_list4_2024-01-26_11h17.24.971_micRespv2l4_recorded\recording_micRespv2l4_2024-01-26_11h24.03.404.wav;405.66443589981645;406.1645212993026;None;;;;;;480204;001;2024-01-26_11h17.24.971;REPSWITCH1_version2_list4;2022.2.4;143.90166424496803;
REPSWITCH1/PICTURE_8.png;pierna;speak;darkblue;switch;2;T;4;4;4;2;Stim3_Set4;0;None;82;81;82;0;81;81;81;;;;;;;;;;;;;;;;;;;;;;;406.1645212993026;407.19939369987696;407.19939369987696;407.19939369987696;407.19939369987696;407.19939369987696;407.19939369987696;407.19939369987696;407.19939369987696;410.2205895995721;410.2205895995721;410.2205895995721;410.2205895995721;410.2205895995721;410.2205895995721;None;0;;;C:\2023\REPSWITCH21092023\REPSWITCH_excgange\REPSWITCH_excgange\data/480204_REPSWITCH1_version2_list4_2024-01-26_11h17.24.971_micRespv2l4_recorded\recording_micRespv2l4_2024-01-26_11h24.07.960.wav;410.2205895995721;410.7206747997552;None;;;;;;480204;001;2024-01-26_11h17.24.971;REPSWITCH1_version2_list4;2022.2.4;143.90166424496803;
REPSWITCH1/PICTURE_271.png;conejo;type;gold;filler;1;F;4;4;4;2;Stim7_Set3;0;None;83;82;83;0;82;82;82;;;;;;;;;;;;;;;;;;;;;;;410.7206747997552;411.8249838994816;411.8249838994816;411.8249838994816;411.8249838994816;411.8249838994816;411.8249838994816;411.8249838994816;411.8249838994816;414.85323929972947;414.85323929972947;414.85323929972947;414.85323929972947;414.85323929972947;414.85323929972947;['c', 'o', 'n', 'e', 'j', 'o'];0;[0.9427644005045295, 1.0790779003873467, 1.256755000911653, 1.3211536007001996, 1.4616154003888369, 1.5431237006559968];conejo;C:\2023\REPSWITCH21092023\REPSWITCH_excgange\REPSWITCH_excgange\data/480204_REPSWITCH1_version2_list4_2024-01-26_11h17.24.971_micRespv2l4_recorded\recording_micRespv2l4_2024-01-26_11h24.12.587.wav;414.85323929972947;;None;;;;;;480204;001;2024-01-26_11h17.24.971;REPSWITCH1_version2_list4;2022.2.4;143.90166424496803;
REPSWITCH1/PICTURE_687.png;camisa;speak;darkblue;nontarget;2;NT;4;4;4;2;Stim5_Set4;1;switch;84;83;84;0;83;83;83;;;;;;;;;;;;;;;;;;;;;;;415.3532336000353;416.4228194998577;416.4228194998577;416.4228194998577;416.4228194998577;416.4228194998577;416.4228194998577;416.4228194998577;416.4228194998577;419.44411219935864;419.44411219935864;419.44411219935864;419.44411219935864;419.44411219935864;419.44411219935864;None;0;;;C:\2023\REPSWITCH21092023\REPSWITCH_excgange\REPSWITCH_excgange\data/480204_REPSWITCH1_version2_list4_2024-01-26_11h17.24.971_micRespv2l4_recorded\recording_micRespv2l4_2024-01-26_11h24.17.183.wav;419.44411219935864;419.9441019995138;None;;;;;;480204;001;2024-01-26_11h17.24.971;REPSWITCH1_version2_list4;2022.2.4;143.90166424496803;
REPSWITCH1/PICTURE_687.png;camisa;speak;darkblue;repeat;2;T;4;4;4;2;Stim5_Set4;0;None;85;84;85;0;84;84;84;;;;;;;;;;;;;;;;;;;;;;;419.9441019995138;421.09008099976927;421.09008099976927;421.09008099976927;421.09008099976927;421.09008099976927;421.09008099976927;421.09008099976927;421.09008099976927;424.1113294996321;424.1113294996321;424.1113294996321;424.1113294996321;424.1113294996321;424.1113294996321;None;0;;;C:\2023\REPSWITCH21092023\REPSWITCH_excgange\REPSWITCH_excgange\data/480204_REPSWITCH1_version2_list4_2024-01-26_11h17.24.971_micRespv2l4_recorded\recording_micRespv2l4_2024-01-26_11h24.21.850.wav;424.1113294996321;424.61146039981395;None;;;;;;480204;001;2024-01-26_11h17.24.971;REPSWITCH1_version2_list4;2022.2.4;143.90166424496803;
REPSWITCH1/PICTURE_319.png;vaca;speak;darkblue;nontarget;2;NT;4;4;4;2;Stim1_Set4;0;None;86;85;86;0;85;85;85;;;;;;;;;;;;;;;;;;;;;;;424.61146039981395;425.68794819992036;425.68794819992036;425.68794819992036;425.68794819992036;425.68794819992036;425.68794819992036;425.68794819992036;425.68794819992036;428.70911869965494;428.70911869965494;428.70911869965494;428.70911869965494;428.70911869965494;428.70911869965494;None;0;;;C:\2023\REPSWITCH21092023\REPSWITCH_excgange\REPSWITCH_excgange\data/480204_REPSWITCH1_version2_list4_2024-01-26_11h17.24.971_micRespv2l4_recorded\recording_micRespv2l4_2024-01-26_11h24.26.448.wav;428.70911869965494;429.20928750000894;None;;;;;;480204;001;2024-01-26_11h17.24.971;REPSWITCH1_version2_list4;2022.2.4;143.90166424496803;
REPSWITCH1/PICTURE_319.png;vaca;type;gold;switch;1;T;4;4;4;2;Stim1_Set4;0;None;87;86;87;0;86;86;86;;;;;;;;;;;;;;;;;;;;;;;429.20928750000894;430.3621902000159;430.3621902000159;430.3621902000159;430.3621902000159;430.3621902000159;430.3621902000159;430.3621902000159;430.3621902000159;433.38338689971715;433.38338689971715;433.38338689971715;433.38338689971715;433.38338689971715;433.38338689971715;['v', 'a', 'c', 'a'];0;[0.9079999998211861, 1.0685018999502063, 1.2060260996222496, 1.317654499784112];vaca;C:\2023\REPSWITCH21092023\REPSWITCH_excgange\REPSWITCH_excgange\data/480204_REPSWITCH1_version2_list4_2024-01-26_11h17.24.971_micRespv2l4_recorded\recording_micRespv2l4_2024-01-26_11h24.31.123.wav;433.38338689971715;433.88343499973416;None;;;;;;480204;001;2024-01-26_11h17.24.971;REPSWITCH1_version2_list4;2022.2.4;143.90166424496803;
REPSWITCH1/PICTURE_242.png;cartero;speak;darkblue;filler;2;F;4;4;4;2;Stim3_Set3;0;None;88;87;88;0;87;87;87;;;;;;;;;;;;;;;;;;;;;;;433.88343499973416;435.0294100996107;435.0294100996107;435.0294100996107;435.0294100996107;435.0294100996107;435.0294100996107;435.0294100996107;435.0294100996107;438.05760649964213;438.05760649964213;438.05760649964213;438.05760649964213;438.05760649964213;438.05760649964213;None;0;;;C:\2023\REPSWITCH21092023\REPSWITCH_excgange\REPSWITCH_excgange\data/480204_REPSWITCH1_version2_list4_2024-01-26_11h17.24.971_micRespv2l4_recorded\recording_micRespv2l4_2024-01-26_11h24.35.790.wav;438.05760649964213;;None;;;;;;480204;001;2024-01-26_11h17.24.971;REPSWITCH1_version2_list4;2022.2.4;143.90166424496803;
REPSWITCH1/PICTURE_498.png;taza;type;gold;nontarget;1;NT;4;4;4;2;Stim4_Set4;1;switch;89;88;89;0;88;88;88;;;;;;;;;;;;;;;;;;;;;;;438.55767669994384;439.6411397000775;439.6411397000775;439.6411397000775;439.6411397000775;439.6411397000775;439.6411397000775;439.6411397000775;439.6411397000775;442.66238039918244;442.66238039918244;442.66238039918244;442.66238039918244;442.66238039918244;442.66238039918244;['t', 'a', 'z', 'a'];0;[0.8048158995807171, 0.9682751996442676, 1.2037754002958536, 1.255558899603784];taza;C:\2023\REPSWITCH21092023\REPSWITCH_excgange\REPSWITCH_excgange\data/480204_REPSWITCH1_version2_list4_2024-01-26_11h17.24.971_micRespv2l4_recorded\recording_micRespv2l4_2024-01-26_11h24.40.402.wav;442.66238039918244;443.16244219988585;None;;;;;;480204;001;2024-01-26_11h17.24.971;REPSWITCH1_version2_list4;2022.2.4;143.90166424496803;
REPSWITCH1/PICTURE_498.png;taza;speak;darkblue;switch;2;T;4;4;4;2;Stim4_Set4;0;None;90;89;90;0;89;89;89;;;;;;;;;;;;;;;;;;;;;;;443.16244219988585;444.30843219999224;444.30843219999224;444.30843219999224;444.30843219999224;444.30843219999224;444.30843219999224;444.30843219999224;444.30843219999224;447.336606499739;447.336606499739;447.336606499739;447.336606499739;447.336606499739;447.336606499739;None;0;;;C:\2023\REPSWITCH21092023\REPSWITCH_excgange\REPSWITCH_excgange\data/480204_REPSWITCH1_version2_list4_2024-01-26_11h17.24.971_micRespv2l4_recorded\recording_micRespv2l4_2024-01-26_11h24.45.070.wav;447.336606499739;;None;;;;;;480204;001;2024-01-26_11h17.24.971;REPSWITCH1_version2_list4;2022.2.4;143.90166424496803;
REPSWITCH1/PICTURE_391.png;cadena;type;gold;filler;1;F;4;4;4;2;Extra2;0;None;91;90;91;0;90;90;90;;;;;;;;;;;;;;;;;;;;;;;447.836667499505;448.99656029976904;448.99656029976904;448.99656029976904;448.99656029976904;448.99656029976904;448.99656029976904;448.99656029976904;448.99656029976904;452.0247745998204;452.0247745998204;452.0247745998204;452.0247745998204;452.0247745998204;452.0247745998204;['c', 'a', 'd', 'e', 'n', 'a'];0;[0.6567238997668028, 0.8381647001951933, 0.9618533002212644, 1.1445452002808452, 1.251680700108409, 1.3742432994768023];cadena;C:\2023\REPSWITCH21092023\REPSWITCH_excgange\REPSWITCH_excgange\data/480204_REPSWITCH1_version2_list4_2024-01-26_11h17.24.971_micRespv2l4_recorded\recording_micRespv2l4_2024-01-26_11h24.49.757.wav;452.0247745998204;;None;;;;;;480204;001;2024-01-26_11h17.24.971;REPSWITCH1_version2_list4;2022.2.4;143.90166424496803;
REPSWITCH1/PICTURE_610.png;miel;speak;darkblue;filler;2;F;4;4;4;2;Stim2_Set3;0;None;92;91;92;0;91;91;91;;;;;;;;;;;;;;;;;;;;;;;452.52477279957384;453.608241699636;453.608241699636;453.608241699636;453.608241699636;453.608241699636;453.608241699636;453.608241699636;453.608241699636;456.62949309963733;456.62949309963733;456.62949309963733;456.62949309963733;456.62949309963733;456.62949309963733;None;0;;;C:\2023\REPSWITCH21092023\REPSWITCH_excgange\REPSWITCH_excgange\data/480204_REPSWITCH1_version2_list4_2024-01-26_11h17.24.971_micRespv2l4_recorded\recording_micRespv2l4_2024-01-26_11h24.54.369.wav;456.62949309963733;457.12954379990697;None;;;;;;480204;001;2024-01-26_11h17.24.971;REPSWITCH1_version2_list4;2022.2.4;143.90166424496803;
REPSWITCH1/PICTURE_48.png;bombero;speak;darkblue;nontarget;2;NT;4;4;4;2;Stim7_Set4;1;repeat;93;92;93;0;92;92;92;;;;;;;;;;;;;;;;;;;;;;;457.12954379990697;458.1713776998222;458.1713776998222;458.1713776998222;458.1713776998222;458.1713776998222;458.1713776998222;458.1713776998222;458.1713776998222;461.19263379927725;461.19263379927725;461.19263379927725;461.19263379927725;461.19263379927725;461.19263379927725;None;0;;;C:\2023\REPSWITCH21092023\REPSWITCH_excgange\REPSWITCH_excgange\data/480204_REPSWITCH1_version2_list4_2024-01-26_11h17.24.971_micRespv2l4_recorded\recording_micRespv2l4_2024-01-26_11h24.58.932.wav;461.19263379927725;461.6926569994539;None;;;;;;480204;001;2024-01-26_11h17.24.971;REPSWITCH1_version2_list4;2022.2.4;143.90166424496803;
REPSWITCH1/PICTURE_48.png;bombero;speak;darkblue;repeat;2;T;4;4;4;2;Stim7_Set4;0;None;94;93;94;0;93;93;93;;;;;;;;;;;;;;;;;;;;;;;461.6926569994539;462.7553129000589;462.7553129000589;462.7553129000589;462.7553129000589;462.7553129000589;462.7553129000589;462.7553129000589;462.7553129000589;465.77649240009487;465.77649240009487;465.77649240009487;465.77649240009487;465.77649240009487;465.77649240009487;None;0;;;C:\2023\REPSWITCH21092023\REPSWITCH_excgange\REPSWITCH_excgange\data/480204_REPSWITCH1_version2_list4_2024-01-26_11h17.24.971_micRespv2l4_recorded\recording_micRespv2l4_2024-01-26_11h25.03.516.wav;465.77649240009487;466.2765806997195;None;;;;;;480204;001;2024-01-26_11h17.24.971;REPSWITCH1_version2_list4;2022.2.4;143.90166424496803;
REPSWITCH1/PICTURE_320.png;iglesia;type;gold;filler;1;F;4;4;4;2;Stim8_Set3;1;switch;95;94;95;0;94;94;94;;;;;;;;;;;;;;;;;;;;;;;466.2765806997195;467.2906152000651;467.2906152000651;467.2906152000651;467.2906152000651;467.2906152000651;467.2906152000651;467.2906152000651;467.2906152000651;470.31879079993814;470.31879079993814;470.31879079993814;470.31879079993814;470.31879079993814;470.31879079993814;['i', 'g', 'l', 'e', 's', 'i', 'a'];0;[0.9762744000181556, 1.0580267999321222, 1.2516876002773643, 1.3333764001727104, 1.4842296000570059, 1.5260845003649592, 1.6486905002966523];iglesia;C:\2023\REPSWITCH21092023\REPSWITCH_excgange\REPSWITCH_excgange\data/480204_REPSWITCH1_version2_list4_2024-01-26_11h17.24.971_micRespv2l4_recorded\recording_micRespv2l4_2024-01-26_11h25.08.052.wav;470.31879079993814;;None;;;;;;480204;001;2024-01-26_11h17.24.971;REPSWITCH1_version2_list4;2022.2.4;143.90166424496803;
REPSWITCH1/PICTURE_35.png;oreja;speak;darkblue;filler;2;F;4;4;4;2;Stim5_Set3;0;None;96;95;96;0;95;95;95;;;;;;;;;;;;;;;;;;;;;;;470.81883389968425;471.85369599983096;471.85369599983096;471.85369599983096;471.85369599983096;471.85369599983096;471.85369599983096;471.85369599983096;471.85369599983096;474.87492419965565;474.87492419965565;474.87492419965565;474.87492419965565;474.87492419965565;474.87492419965565;None;0;;;C:\2023\REPSWITCH21092023\REPSWITCH_excgange\REPSWITCH_excgange\data/480204_REPSWITCH1_version2_list4_2024-01-26_11h17.24.971_micRespv2l4_recorded\recording_micRespv2l4_2024-01-26_11h25.12.615.wav;474.87492419965565;475.374973599799;None;;;;;;480204;001;2024-01-26_11h17.24.971;REPSWITCH1_version2_list4;2022.2.4;143.90166424496803;
REPSWITCH1/PICTURE_728.png;pulpo;speak;darkblue;nontarget;2;NT;4;4;4;2;Stim8_Set4;1;repeat;97;96;97;0;96;96;96;;;;;;;;;;;;;;;;;;;;;;;475.374973599799;476.4794095000252;476.4794095000252;476.4794095000252;476.4794095000252;476.4794095000252;476.4794095000252;476.4794095000252;476.4794095000252;479.5074875000864;479.5074875000864;479.5074875000864;479.5074875000864;479.5074875000864;479.5074875000864;None;0;;;C:\2023\REPSWITCH21092023\REPSWITCH_excgange\REPSWITCH_excgange\data/480204_REPSWITCH1_version2_list4_2024-01-26_11h17.24.971_micRespv2l4_recorded\recording_micRespv2l4_2024-01-26_11h25.17.241.wav;479.5074875000864;;None;;;;;;480204;001;2024-01-26_11h17.24.971;REPSWITCH1_version2_list4;2022.2.4;143.90166424496803;
REPSWITCH1/PICTURE_728.png;pulpo;type;gold;switch;1;T;4;4;4;2;Stim8_Set4;0;None;98;97;98;0;97;97;97;;;;;;;;;;;;;;;;;;;;;;;480.0075685000047;481.07023089937866;481.07023089937866;481.07023089937866;481.07023089937866;481.07023089937866;481.07023089937866;481.07023089937866;481.07023089937866;484.09144299943;484.09144299943;484.09144299943;484.09144299943;484.09144299943;484.09144299943;['p', 'u', 'k', 'backspace', 'l', 'p', 'o'];0;[0.8551402995362878, 0.9468652000650764, 1.1990122999995947, 1.653783599846065, 1.8969872994348407, 2.103346399962902, 2.436103000305593];pulpo;C:\2023\REPSWITCH21092023\REPSWITCH_excgange\REPSWITCH_excgange\data/480204_REPSWITCH1_version2_list4_2024-01-26_11h17.24.971_micRespv2l4_recorded\recording_micRespv2l4_2024-01-26_11h25.21.831.wav;484.09144299943;484.59150619991124;None;;;;;;480204;001;2024-01-26_11h17.24.971;REPSWITCH1_version2_list4;2022.2.4;143.90166424496803;
REPSWITCH1/PICTURE_590.png;escoba;speak;darkblue;filler;2;F;4;4;4;2;Extra3;0;None;99;98;99;0;98;98;98;;;;;;;;;;;;;;;;;;;;;;;484.59150619991124;485.7513786992058;485.7513786992058;485.7513786992058;485.7513786992058;485.7513786992058;485.7513786992058;485.7513786992058;485.7513786992058;488.7795437993482;488.7795437993482;488.7795437993482;488.7795437993482;488.7795437993482;488.7795437993482;None;0;;;C:\2023\REPSWITCH21092023\REPSWITCH_excgange\REPSWITCH_excgange\data/480204_REPSWITCH1_version2_list4_2024-01-26_11h17.24.971_micRespv2l4_recorded\recording_micRespv2l4_2024-01-26_11h25.26.513.wav;488.7795437993482;;None;;;;;;480204;001;2024-01-26_11h17.24.971;REPSWITCH1_version2_list4;2022.2.4;143.90166424496803;
REPSWITCH1/PICTURE_235.png;aguja;type;gold;filler;1;F;4;4;4;2;Stim4_Set3;0;None;100;99;100;0;99;99;99;;;;;;;;;;;;;;;;;;;;;;;489.27961879968643;490.35616269987077;490.35616269987077;490.35616269987077;490.35616269987077;490.35616269987077;490.35616269987077;490.35616269987077;490.35616269987077;493.3773924000561;493.3773924000561;493.3773924000561;493.3773924000561;493.3773924000561;493.3773924000561;['a', 'g', 'u', 'a', 'backspace', 'j', 'a'];0;[0.8067028000950813, 1.022006600163877, 1.1346367998048663, 1.42066500056535, 1.6735546002164483, 1.8779524005949497, 1.9548938004299998];aguja;C:\2023\REPSWITCH21092023\REPSWITCH_excgange\REPSWITCH_excgange\data/480204_REPSWITCH1_version2_list4_2024-01-26_11h17.24.971_micRespv2l4_recorded\recording_micRespv2l4_2024-01-26_11h25.31.117.wav;493.3773924000561;493.8775138994679;None;;;;;;480204;001;2024-01-26_11h17.24.971;REPSWITCH1_version2_list4;2022.2.4;143.90166424496803;
REPSWITCH1/PICTURE_719.png;baño;type;gold;nontarget;1;NT;4;4;4;2;Stim2_Set4;1;repeat;101;100;101;0;100;100;100;;;;;;;;;;;;;;;;;;;;;;;493.8775138994679;494.96093059983104;494.96093059983104;494.96093059983104;494.96093059983104;494.96093059983104;494.96093059983104;494.96093059983104;494.96093059983104;497.98911600001156;497.98911600001156;497.98911600001156;497.98911600001156;497.98911600001156;497.98911600001156;['b', 'a', 'ñ', 'o'];0;[0.8915162002667785, 1.1062334002926946, 1.3862859001383185, 1.538702099584043];baño;C:\2023\REPSWITCH21092023\REPSWITCH_excgange\REPSWITCH_excgange\data/480204_REPSWITCH1_version2_list4_2024-01-26_11h17.24.971_micRespv2l4_recorded\recording_micRespv2l4_2024-01-26_11h25.35.722.wav;497.98911600001156;;None;;;;;;480204;001;2024-01-26_11h17.24.971;REPSWITCH1_version2_list4;2022.2.4;143.90166424496803;
REPSWITCH1/PICTURE_719.png;baño;type;gold;repeat;1;T;4;4;4;2;Stim2_Set4;0;None;102;101;102;0;101;101;101;;;;;;;;;;;;;;;;;;;;;;;498.48923719953746;499.5517829991877;499.5517829991877;499.5517829991877;499.5517829991877;499.5517829991877;499.5517829991877;499.5517829991877;499.5517829991877;502.5799623997882;502.5799623997882;502.5799623997882;502.5799623997882;502.5799623997882;502.5799623997882;['b', 'a', 'ñ', 'o'];0;[0.5143423993140459, 0.6528790993615985, 0.7974299993366003, 0.9977437993511558];baño;C:\2023\REPSWITCH21092023\REPSWITCH_excgange\REPSWITCH_excgange\data/480204_REPSWITCH1_version2_list4_2024-01-26_11h17.24.971_micRespv2l4_recorded\recording_micRespv2l4_2024-01-26_11h25.40.313.wav;502.5799623997882;;space;503.0800292994827;503.0800292994827;12.480786500498652;;;480204;001;2024-01-26_11h17.24.971;REPSWITCH1_version2_list4;2022.2.4;143.90166424496803;
REPSWITCH1/PICTURE_646.png;tronco;speak;darkblue;filler;2;F;1;3;4;2;Extra4;0;None;103;102;1;0;102;102;102;;;;;;;;;;;;;;;;;;;;;;;515.5677823992446;516.6512500997633;516.6512500997633;516.6512500997633;516.6512500997633;516.6512500997633;516.6512500997633;516.6512500997633;516.6512500997633;519.6795041998848;519.6795041998848;519.6795041998848;519.6795041998848;519.6795041998848;519.6795041998848;None;0;;;C:\2023\REPSWITCH21092023\REPSWITCH_excgange\REPSWITCH_excgange\data/480204_REPSWITCH1_version2_list4_2024-01-26_11h17.24.971_micRespv2l4_recorded\recording_micRespv2l4_2024-01-26_11h25.57.412.wav;519.6795041998848;;None;;;;;;480204;001;2024-01-26_11h17.24.971;REPSWITCH1_version2_list4;2022.2.4;143.90166424496803;
REPSWITCH1/PICTURE_340.png;espejo;type;gold;filler;1;F;1;3;4;2;Extra1;0;None;104;103;2;0;103;103;103;;;;;;;;;;;;;;;;;;;;;;;520.1794918999076;521.2907628994435;521.2907628994435;521.2907628994435;521.2907628994435;521.2907628994435;521.2907628994435;521.2907628994435;521.2907628994435;524.3119828999043;524.3119828999043;524.3119828999043;524.3119828999043;524.3119828999043;524.3119828999043;['e', 'w', 's', 'p', 'backspace', 'backspace', 'backspace', 's', 'p', 'e', 'j', 'o'];0;[0.9070704998448491, 1.1004018001258373, 1.1303505999967456, 1.1931163994595408, 1.618304600007832, 1.739933899603784, 1.8585517993196845, 1.927436599507928, 2.104466799646616, 2.1912313997745514, 2.3148163994774222, 2.4004124999046326];espejo;C:\2023\REPSWITCH21092023\REPSWITCH_excgange\REPSWITCH_excgange\data/480204_REPSWITCH1_version2_list4_2024-01-26_11h17.24.971_micRespv2l4_recorded\recording_micRespv2l4_2024-01-26_11h26.02.052.wav;524.3119828999043;524.812066799961;None;;;;;;480204;001;2024-01-26_11h17.24.971;REPSWITCH1_version2_list4;2022.2.4;143.90166424496803;
REPSWITCH1/PICTURE_338.png;regalo;speak;darkblue;filler;2;F;1;3;4;2;Stim6_Set4;0;None;105;104;3;0;104;104;104;;;;;;;;;;;;;;;;;;;;;;;524.812066799961;525.9719289001077;525.9719289001077;525.9719289001077;525.9719289001077;525.9719289001077;525.9719289001077;525.9719289001077;525.9719289001077;529.0001861993223;529.0001861993223;529.0001861993223;529.0001861993223;529.0001861993223;529.0001861993223;None;0;;;C:\2023\REPSWITCH21092023\REPSWITCH_excgange\REPSWITCH_excgange\data/480204_REPSWITCH1_version2_list4_2024-01-26_11h17.24.971_micRespv2l4_recorded\recording_micRespv2l4_2024-01-26_11h26.06.733.wav;529.0001861993223;;None;;;;;;480204;001;2024-01-26_11h17.24.971;REPSWITCH1_version2_list4;2022.2.4;143.90166424496803;
REPSWITCH1/PICTURE_142.png;vaso;speak;darkblue;nontarget;2;NT;1;3;4;2;Stim7_Set1;1;repeat;106;105;4;0;105;105;105;;;;;;;;;;;;;;;;;;;;;;;529.500184699893;530.5419805999845;530.5419805999845;530.5419805999845;530.5419805999845;530.5419805999845;530.5419805999845;530.5419805999845;530.5419805999845;533.5632291994989;533.5632291994989;533.5632291994989;533.5632291994989;533.5632291994989;533.5632291994989;None;0;;;C:\2023\REPSWITCH21092023\REPSWITCH_excgange\REPSWITCH_excgange\data/480204_REPSWITCH1_version2_list4_2024-01-26_11h17.24.971_micRespv2l4_recorded\recording_micRespv2l4_2024-01-26_11h26.11.303.wav;533.5632291994989;534.0632829992101;None;;;;;;480204;001;2024-01-26_11h17.24.971;REPSWITCH1_version2_list4;2022.2.4;143.90166424496803;
REPSWITCH1/PICTURE_142.png;vaso;speak;darkblue;repeat;2;T;1;3;4;2;Stim7_Set1;0;None;107;106;5;0;106;106;106;;;;;;;;;;;;;;;;;;;;;;;534.0632829992101;535.1954212998971;535.1954212998971;535.1954212998971;535.1954212998971;535.1954212998971;535.1954212998971;535.1954212998971;535.1954212998971;538.2166125997901;538.2166125997901;538.2166125997901;538.2166125997901;538.2166125997901;538.2166125997901;None;0;;;C:\2023\REPSWITCH21092023\REPSWITCH_excgange\REPSWITCH_excgange\data/480204_REPSWITCH1_version2_list4_2024-01-26_11h17.24.971_micRespv2l4_recorded\recording_micRespv2l4_2024-01-26_11h26.15.956.wav;538.2166125997901;538.7166661992669;None;;;;;;480204;001;2024-01-26_11h17.24.971;REPSWITCH1_version2_list4;2022.2.4;143.90166424496803;
REPSWITCH1/PICTURE_498.png;taza;type;gold;filler;1;F;1;3;4;2;Stim4_Set4;0;None;108;107;6;0;107;107;107;;;;;;;;;;;;;;;;;;;;;;;538.7166661992669;539.8973999992013;539.8973999992013;539.8973999992013;539.8973999992013;539.8973999992013;539.8973999992013;539.8973999992013;539.8973999992013;542.9185949992388;542.9185949992388;542.9185949992388;542.9185949992388;542.9185949992388;542.9185949992388;['t', 'a', 'z', 'a'];0;[0.6360435001552105, 0.8234338006004691, 1.0297463005408645, 1.1237015007063746];taza;C:\2023\REPSWITCH21092023\REPSWITCH_excgange\REPSWITCH_excgange\data/480204_REPSWITCH1_version2_list4_2024-01-26_11h17.24.971_micRespv2l4_recorded\recording_micRespv2l4_2024-01-26_11h26.20.657.wav;542.9185949992388;543.418680999428;None;;;;;;480204;001;2024-01-26_11h17.24.971;REPSWITCH1_version2_list4;2022.2.4;143.90166424496803;
REPSWITCH1/PICTURE_16.png;cazador;speak;darkblue;nontarget;2;NT;1;3;4;2;Stim6_Set1;1;switch;109;108;7;0;108;108;108;;;;;;;;;;;;;;;;;;;;;;;543.418680999428;544.4882848998532;544.4882848998532;544.4882848998532;544.4882848998532;544.4882848998532;544.4882848998532;544.4882848998532;544.4882848998532;547.5095023000613;547.5095023000613;547.5095023000613;547.5095023000613;547.5095023000613;547.5095023000613;None;0;;;C:\2023\REPSWITCH21092023\REPSWITCH_excgange\REPSWITCH_excgange\data/480204_REPSWITCH1_version2_list4_2024-01-26_11h17.24.971_micRespv2l4_recorded\recording_micRespv2l4_2024-01-26_11h26.25.249.wav;547.5095023000613;548.009562799707;None;;;;;;480204;001;2024-01-26_11h17.24.971;REPSWITCH1_version2_list4;2022.2.4;143.90166424496803;
REPSWITCH1/PICTURE_16.png;cazador;speak;darkblue;repeat;2;T;1;3;4;2;Stim6_Set1;0;None;110;109;8;0;109;109;109;;;;;;;;;;;;;;;;;;;;;;;548.009562799707;549.1903411000967;549.1903411000967;549.1903411000967;549.1903411000967;549.1903411000967;549.1903411000967;549.1903411000967;549.1903411000967;552.2115546995774;552.2115546995774;552.2115546995774;552.2115546995774;552.2115546995774;552.2115546995774;None;0;;;C:\2023\REPSWITCH21092023\REPSWITCH_excgange\REPSWITCH_excgange\data/480204_REPSWITCH1_version2_list4_2024-01-26_11h17.24.971_micRespv2l4_recorded\recording_micRespv2l4_2024-01-26_11h26.29.951.wav;552.2115546995774;552.7115910993889;None;;;;;;480204;001;2024-01-26_11h17.24.971;REPSWITCH1_version2_list4;2022.2.4;143.90166424496803;
REPSWITCH1/PICTURE_719.png;baño;type;gold;filler;1;F;1;3;4;2;Stim2_Set4;0;None;111;110;9;0;110;110;110;;;;;;;;;;;;;;;;;;;;;;;552.7115910993889;553.8020123997703;553.8020123997703;553.8020123997703;553.8020123997703;553.8020123997703;553.8020123997703;553.8020123997703;553.8020123997703;556.8302290998399;556.8302290998399;556.8302290998399;556.8302290998399;556.8302290998399;556.8302290998399;['b', 'a', 'ñ', 'o'];0;[0.9729298995807767, 1.0695596002042294, 1.323743600398302, 2.0478371996432543];baño;C:\2023\REPSWITCH21092023\REPSWITCH_excgange\REPSWITCH_excgange\data/480204_REPSWITCH1_version2_list4_2024-01-26_11h17.24.971_micRespv2l4_recorded\recording_micRespv2l4_2024-01-26_11h26.34.563.wav;556.8302290998399;;None;;;;;;480204;001;2024-01-26_11h17.24.971;REPSWITCH1_version2_list4;2022.2.4;143.90166424496803;
REPSWITCH1/PICTURE_169.png;espalda;speak;darkblue;nontarget;2;NT;1;3;4;2;Stim8_Set1;0;None;112;111;10;0;111;111;111;;;;;;;;;;;;;;;;;;;;;;;557.3302229000255;558.5803836993873;558.5803836993873;558.5803836993873;558.5803836993873;558.5803836993873;558.5803836993873;558.5803836993873;558.5803836993873;561.6015952993184;561.6015952993184;561.6015952993184;561.6015952993184;561.6015952993184;561.6015952993184;['e', 'backspace'];0;[0.7849137997254729, 1.2137761004269123];;C:\2023\REPSWITCH21092023\REPSWITCH_excgange\REPSWITCH_excgange\data/480204_REPSWITCH1_version2_list4_2024-01-26_11h17.24.971_micRespv2l4_recorded\recording_micRespv2l4_2024-01-26_11h26.39.341.wav;561.6015952993184;562.1017010994256;None;;;;;;480204;001;2024-01-26_11h17.24.971;REPSWITCH1_version2_list4;2022.2.4;143.90166424496803;
REPSWITCH1/PICTURE_169.png;espalda;type;gold;switch;1;T;1;3;4;2;Stim8_Set1;0;None;113;112;11;0;112;112;112;;;;;;;;;;;;;;;;;;;;;;;562.1017010994256;563.2268587993458;563.2268587993458;563.2268587993458;563.2268587993458;563.2268587993458;563.2268587993458;563.2268587993458;563.2268587993458;566.2481611995026;566.2481611995026;566.2481611995026;566.2481611995026;566.2481611995026;566.2481611995026;['e', 's', 'p', 'a', 'l', 'd', 'a'];0;[0.9380510998889804, 1.0995426001027226, 1.2390413004904985, 1.3350415006279945, 1.4496859004721045, 1.580248000100255, 1.6280844006687403];espalda;C:\2023\REPSWITCH21092023\REPSWITCH_excgange\REPSWITCH_excgange\data/480204_REPSWITCH1_version2_list4_2024-01-26_11h17.24.971_micRespv2l4_recorded\recording_micRespv2l4_2024-01-26_11h26.43.987.wav;566.2481611995026;566.7481416994706;None;;;;;;480204;001;2024-01-26_11h17.24.971;REPSWITCH1_version2_list4;2022.2.4;143.90166424496803;
REPSWITCH1/PICTURE_687.png;camisa;type;gold;filler;1;F;1;3;4;2;Stim5_Set4;0;None;114;113;12;0;113;113;113;;;;;;;;;;;;;;;;;;;;;;;566.7481416994706;567.8177570998669;567.8177570998669;567.8177570998669;567.8177570998669;567.8177570998669;567.8177570998669;567.8177570998669;567.8177570998669;570.8389200000092;570.8389200000092;570.8389200000092;570.8389200000092;570.8389200000092;570.8389200000092;['c', 'a', 'm', 'i', 's', 'a'];0;[1.0384197998791933, 1.170958699658513, 1.2845732998102903, 1.355324000120163, 1.4470426999032497, 1.4946391005069017];camisa;C:\2023\REPSWITCH21092023\REPSWITCH_excgange\REPSWITCH_excgange\data/480204_REPSWITCH1_version2_list4_2024-01-26_11h17.24.971_micRespv2l4_recorded\recording_micRespv2l4_2024-01-26_11h26.48.578.wav;570.8389200000092;571.3390101995319;None;;;;;;480204;001;2024-01-26_11h17.24.971;REPSWITCH1_version2_list4;2022.2.4;143.90166424496803;
REPSWITCH1/PICTURE_178.png;puente;type;gold;nontarget;1;NT;1;3;4;2;Stim1_Set1;1;repeat;115;114;13;0;114;114;114;;;;;;;;;;;;;;;;;;;;;;;571.3390101995319;572.5127888992429;572.5127888992429;572.5127888992429;572.5127888992429;572.5127888992429;572.5127888992429;572.5127888992429;572.5127888992429;575.5340538993478;575.5340538993478;575.5340538993478;575.5340538993478;575.5340538993478;575.5340538993478;['p', 'u', 'e', 'n', 't', 'e'];0;[1.2974052000790834, 1.3740260004997253, 1.5115685006603599, 1.6600456004962325, 1.7697743009775877, 1.8265228001400828];puente;C:\2023\REPSWITCH21092023\REPSWITCH_excgange\REPSWITCH_excgange\data/480204_REPSWITCH1_version2_list4_2024-01-26_11h17.24.971_micRespv2l4_recorded\recording_micRespv2l4_2024-01-26_11h26.53.273.wav;575.5340538993478;576.034070099704;None;;;;;;480204;001;2024-01-26_11h17.24.971;REPSWITCH1_version2_list4;2022.2.4;143.90166424496803;
REPSWITCH1/PICTURE_178.png;puente;speak;darkblue;switch;2;T;1;3;4;2;Stim1_Set1;0;None;116;115;14;0;115;115;115;;;;;;;;;;;;;;;;;;;;;;;576.034070099704;577.0828123996034;577.0828123996034;577.0828123996034;577.0828123996034;577.0828123996034;577.0828123996034;577.0828123996034;577.0828123996034;580.1040272992104;580.1040272992104;580.1040272992104;580.1040272992104;580.1040272992104;580.1040272992104;None;0;;;C:\2023\REPSWITCH21092023\REPSWITCH_excgange\REPSWITCH_excgange\data/480204_REPSWITCH1_version2_list4_2024-01-26_11h17.24.971_micRespv2l4_recorded\recording_micRespv2l4_2024-01-26_11h26.57.843.wav;580.1040272992104;580.6041266992688;None;;;;;;480204;001;2024-01-26_11h17.24.971;REPSWITCH1_version2_list4;2022.2.4;143.90166424496803;
REPSWITCH1/PICTURE_128.png;muñeca;speak;darkblue;nontarget;2;NT;1;3;4;2;Stim4_Set1;1;repeat;117;116;15;0;116;116;116;;;;;;;;;;;;;;;;;;;;;;;580.6041266992688;581.6320498995483;581.6320498995483;581.6320498995483;581.6320498995483;581.6320498995483;581.6320498995483;581.6320498995483;581.6320498995483;584.6533223995939;584.6533223995939;584.6533223995939;584.6533223995939;584.6533223995939;584.6533223995939;None;0;;;C:\2023\REPSWITCH21092023\REPSWITCH_excgange\REPSWITCH_excgange\data/480204_REPSWITCH1_version2_list4_2024-01-26_11h17.24.971_micRespv2l4_recorded\recording_micRespv2l4_2024-01-26_11h27.02.393.wav;584.6533223995939;585.1533356998116;None;;;;;;480204;001;2024-01-26_11h17.24.971;REPSWITCH1_version2_list4;2022.2.4;143.90166424496803;
REPSWITCH1/PICTURE_128.png;muñeca;type;gold;switch;1;T;1;3;4;2;Stim4_Set1;0;None;118;117;16;0;117;117;117;;;;;;;;;;;;;;;;;;;;;;;585.1533356998116;586.3410008996725;586.3410008996725;586.3410008996725;586.3410008996725;586.3410008996725;586.3410008996725;586.3410008996725;586.3410008996725;589.362191199325;589.362191199325;589.362191199325;589.362191199325;589.362191199325;589.362191199325;['m', 'u', 'ñ', 'e', 'c', 'a'];0;[0.7202329998835921, 1.003647900186479, 1.3539009997621179, 1.4464801996946335, 2.21731820050627, 2.41666470002383];muñeca;C:\2023\REPSWITCH21092023\REPSWITCH_excgange\REPSWITCH_excgange\data/480204_REPSWITCH1_version2_list4_2024-01-26_11h17.24.971_micRespv2l4_recorded\recording_micRespv2l4_2024-01-26_11h27.07.102.wav;589.362191199325;589.8622963000089;None;;;;;;480204;001;2024-01-26_11h17.24.971;REPSWITCH1_version2_list4;2022.2.4;143.90166424496803;
REPSWITCH1/PICTURE_319.png;vaca;speak;darkblue;filler;2;F;1;3;4;2;Stim1_Set4;1;switch;119;118;17;0;118;118;118;;;;;;;;;;;;;;;;;;;;;;;589.8622963000089;590.9249106999487;590.9249106999487;590.9249106999487;590.9249106999487;590.9249106999487;590.9249106999487;590.9249106999487;590.9249106999487;593.9461244996637;593.9461244996637;593.9461244996637;593.9461244996637;593.9461244996637;593.9461244996637;None;0;;;C:\2023\REPSWITCH21092023\REPSWITCH_excgange\REPSWITCH_excgange\data/480204_REPSWITCH1_version2_list4_2024-01-26_11h17.24.971_micRespv2l4_recorded\recording_micRespv2l4_2024-01-26_11h27.11.685.wav;593.9461244996637;594.446226099506;None;;;;;;480204;001;2024-01-26_11h17.24.971;REPSWITCH1_version2_list4;2022.2.4;143.90166424496803;
