image;correctAns;respModal;frameColor;repSwitch;sequence;target;set;block;list;exp_version;stimulus;baseline;baseline_condition;trial_no;psychopy_trial;Column1;trialsREPSWITCH.thisRepN;trialsREPSWITCH.thisTrialN;trialsREPSWITCH.thisN;trialsREPSWITCH.thisIndex;textWelcome.started;textboxInstrMain1.started;textboxInstrMain1_2.started;textboxInstrMain1_3.started;keyInstrMain.started;keyInstrMain.keys;keyInstrMain.rt;textboxInstrMain2.started;textboxInstrMain2_2.started;textboxInstrMain2_3.started;textboxInstrMain2_4.started;textboxInstrMain2_5.started;textboxInstrMain2_6.started;textboxInstrMain2_7.started;textboxInstrMain2_8.started;textboxInstrMain2_9.started;textboxInstrMain2_10.started;textboxInstrMain2_11.started;textboxInstrMain2_12.started;keyInstrMain2.started;keyInstrMain2.keys;keyInstrMain2.rt;fixationITI.started;fixationITI.stopped;polygonColour.started;polygonWhite.started;imageObject.started;polygonType.started;textInput.started;keyResp.started;micRespv1l1.started;keyResp.keys;keyResp.corr;keyResp.rt;subjResponse;micRespv1l1.clip;textBlankLoop.started;textBlankLoop.stopped;keyPause.keys;polygonColour.stopped;polygonWhite.stopped;imageObject.stopped;polygonType.stopped;textInput.stopped;keyResp.stopped;textboxPause.started;keyPause.started;keyPause.rt;textboxGoodbye.started;textboxGoodbye.stopped;participant;session;date;expName;psychopyVersion;frameRate;Column2
;;;;;;;;;;;;;;;;;;;;;9.0915096;11.5877295;11.5877295;11.5877295;11.5877295;space;8.7834991;;;;;;;;;;;;;;;;;;;;;;;;;;;;;;;;;;;;;;;;;;;;10101;1;2023-11-10_13h54.48.695;REPSWITCH1_version1_list1;2022.2.4;143.9951157;
;;;;;;;;;;;;;;;;;;;;;;;;;;;;20.3874333;20.3874333;20.3874333;20.3874333;20.3874333;20.3874333;20.3874333;20.3874333;20.3874333;20.3874333;20.3874333;20.3874333;20.3874333;space;4.8987794;;;;;;;;;;;;;;;;;;;;;;;;;;;;;10101;1;2023-11-10_13h54.48.695;REPSWITCH1_version1_list1;2022.2.4;143.9951157;
REPSWITCH1/PICTURE_340.png;espejo;type;darkblue;filler;1;F;1;1;1;1;Extra1;0;None;1;0;1;0;0;0;0;;;;;;;;;;;;;;;;;;;;;;;25.3811475;26.5341118;26.5341118;26.5341118;26.5341118;26.5341118;26.5341118;26.5341118;26.5341118;['s', 'p', 'e', 'j', 'o'];0;[1.5486688000091817, 1.929457399994135, 2.1230640999856405, 2.5258161000092514, 2.5945866999973077];spejo;C:\2023\REPSWITCH21092023\REPSWITCH_excgange\REPSWITCH_excgange\data/010101_REPSWITCH1_version1_list1_2023-11-10_13h54.48.695_micRespv1l1_recorded\recording_micRespv1l1_2023-11-10_13h55.10.928.wav;29.5553025;30.0553822;None;;;;;;;;;;;;10101;1;2023-11-10_13h54.48.695;REPSWITCH1_version1_list1;2022.2.4;143.9951157;
REPSWITCH1/PICTURE_391.png;cadena;speak;gold;filler;2;F;1;1;1;1;Extra2;0;None;2;1;2;0;1;1;1;;;;;;;;;;;;;;;;;;;;;;;30.0553822;31.194433;31.194433;31.194433;31.194433;31.194433;31.194433;31.194433;31.194433;None;0;;;C:\2023\REPSWITCH21092023\REPSWITCH_excgange\REPSWITCH_excgange\data/010101_REPSWITCH1_version1_list1_2023-11-10_13h54.48.695_micRespv1l1_recorded\recording_micRespv1l1_2023-11-10_13h55.15.592.wav;34.2226255;34.722686;None;34.2226255;34.2226255;34.2226255;34.2226255;34.2226255;34.2226255;;;;;;10101;1;2023-11-10_13h54.48.695;REPSWITCH1_version1_list1;2022.2.4;143.9951157;
REPSWITCH1/PICTURE_178.png;puente;speak;gold;nontarget;2;NT;1;1;1;1;Stim1_Set1;1;repeat;3;2;3;0;2;2;2;;;;;;;;;;;;;;;;;;;;;;;34.722686;35.8825277;35.8825277;35.8825277;35.8825277;35.8825277;35.8825277;35.8825277;35.8825277;None;0;;;C:\2023\REPSWITCH21092023\REPSWITCH_excgange\REPSWITCH_excgange\data/010101_REPSWITCH1_version1_list1_2023-11-10_13h54.48.695_micRespv1l1_recorded\recording_micRespv1l1_2023-11-10_13h55.20.279.wav;38.9107292;39.4107925;None;38.9107292;38.9107292;38.9107292;38.9107292;38.9107292;38.9107292;;;;;;10101;1;2023-11-10_13h54.48.695;REPSWITCH1_version1_list1;2022.2.4;143.9951157;
REPSWITCH1/PICTURE_178.png;puente;speak;gold;repeat;2;T;1;1;1;1;Stim1_Set1;0;None;4;3;4;0;3;3;3;;;;;;;;;;;;;;;;;;;;;;;39.4107925;40.5706694;40.5706694;40.5706694;40.5706694;40.5706694;40.5706694;40.5706694;40.5706694;None;0;;;C:\2023\REPSWITCH21092023\REPSWITCH_excgange\REPSWITCH_excgange\data/010101_REPSWITCH1_version1_list1_2023-11-10_13h54.48.695_micRespv1l1_recorded\recording_micRespv1l1_2023-11-10_13h55.24.966.wav;43.591879;44.0919382;None;43.591879;43.591879;43.591879;43.591879;43.591879;43.591879;;;;;;10101;1;2023-11-10_13h54.48.695;REPSWITCH1_version1_list1;2022.2.4;143.9951157;
REPSWITCH1/PICTURE_319.png;vaca;type;darkblue;filler;1;F;1;1;1;1;Stim1_Set4;0;None;5;4;5;0;4;4;4;;;;;;;;;;;;;;;;;;;;;;;44.0919382;45.1615174;45.1615174;45.1615174;45.1615174;45.1615174;45.1615174;45.1615174;45.1615174;['v', 'a', 'c', 'a'];0;[1.2281668999930844, 1.3786553000099957, 1.5205078000144567, 1.6620326999982353];vaca;C:\2023\REPSWITCH21092023\REPSWITCH_excgange\REPSWITCH_excgange\data/010101_REPSWITCH1_version1_list1_2023-11-10_13h54.48.695_micRespv1l1_recorded\recording_micRespv1l1_2023-11-10_13h55.29.559.wav;48.1896856;48.6897847;None;48.1896856;48.1896856;48.1896856;48.1896856;48.1896856;48.1896856;;;;;;10101;1;2023-11-10_13h54.48.695;REPSWITCH1_version1_list1;2022.2.4;143.9951157;
REPSWITCH1/PICTURE_381.png;fresa;speak;gold;nontarget;2;NT;1;1;1;1;Stim2_Set1;1;switch;6;5;6;0;5;5;5;;;;;;;;;;;;;;;;;;;;;;;48.6897847;49.8149468;49.8149468;49.8149468;49.8149468;49.8149468;49.8149468;49.8149468;49.8149468;None;0;;;C:\2023\REPSWITCH21092023\REPSWITCH_excgange\REPSWITCH_excgange\data/010101_REPSWITCH1_version1_list1_2023-11-10_13h54.48.695_micRespv1l1_recorded\recording_micRespv1l1_2023-11-10_13h55.34.212.wav;52.8431099;;None;52.8431099;52.8431099;52.8431099;52.8431099;52.8431099;52.8431099;;;;;;10101;1;2023-11-10_13h54.48.695;REPSWITCH1_version1_list1;2022.2.4;143.9951157;
REPSWITCH1/PICTURE_381.png;fresa;speak;gold;repeat;2;T;1;1;1;1;Stim2_Set1;0;None;7;6;7;0;6;6;6;;;;;;;;;;;;;;;;;;;;;;;53.343169;54.4127594;54.4127594;54.4127594;54.4127594;54.4127594;54.4127594;54.4127594;54.4127594;None;0;;;C:\2023\REPSWITCH21092023\REPSWITCH_excgange\REPSWITCH_excgange\data/010101_REPSWITCH1_version1_list1_2023-11-10_13h54.48.695_micRespv1l1_recorded\recording_micRespv1l1_2023-11-10_13h55.38.809.wav;57.4339729;57.9340488;None;57.4339729;57.4339729;57.4339729;57.4339729;57.4339729;57.4339729;;;;;;10101;1;2023-11-10_13h54.48.695;REPSWITCH1_version1_list1;2022.2.4;143.9951157;
REPSWITCH1/PICTURE_719.png;baño;type;darkblue;filler;1;F;1;1;1;1;Stim2_Set4;1;switch;8;7;8;0;7;7;7;;;;;;;;;;;;;;;;;;;;;;;57.9340488;59.0522104;59.0522104;59.0522104;59.0522104;59.0522104;59.0522104;59.0522104;59.0522104;['b', 'a', 'n', 'o'];0;[1.3170134000247344, 1.5053740000003017, 2.753269000008004, 2.822257300023921];bano;C:\2023\REPSWITCH21092023\REPSWITCH_excgange\REPSWITCH_excgange\data/010101_REPSWITCH1_version1_list1_2023-11-10_13h54.48.695_micRespv1l1_recorded\recording_micRespv1l1_2023-11-10_13h55.43.449.wav;62.0804122;;None;62.0804122;62.0804122;62.0804122;62.0804122;62.0804122;62.0804122;;;;;;10101;1;2023-11-10_13h54.48.695;REPSWITCH1_version1_list1;2022.2.4;143.9951157;
REPSWITCH1/PICTURE_135.png;traje;speak;gold;nontarget;2;NT;1;1;1;1;Stim3_Set1;0;None;9;8;9;0;8;8;8;;;;;;;;;;;;;;;;;;;;;;;62.5805378;63.6848488;63.6848488;63.6848488;63.6848488;63.6848488;63.6848488;63.6848488;63.6848488;None;0;;;C:\2023\REPSWITCH21092023\REPSWITCH_excgange\REPSWITCH_excgange\data/010101_REPSWITCH1_version1_list1_2023-11-10_13h54.48.695_micRespv1l1_recorded\recording_micRespv1l1_2023-11-10_13h55.48.082.wav;66.713005;67.2131167;None;66.713005;66.713005;66.713005;66.713005;66.713005;66.713005;;;;;;10101;1;2023-11-10_13h54.48.695;REPSWITCH1_version1_list1;2022.2.4;143.9951157;
REPSWITCH1/PICTURE_135.png;traje;type;darkblue;switch;1;T;1;1;1;1;Stim3_Set1;0;None;10;9;10;0;9;9;9;;;;;;;;;;;;;;;;;;;;;;;67.2131167;68.275694;68.275694;68.275694;68.275694;68.275694;68.275694;68.275694;68.275694;['t', 'r', 'a', 'j', 'e'];0;[1.2480166000023019, 1.4064944000274409, 1.590841300028842, 1.8154232000233606, 1.933024000027217];traje;C:\2023\REPSWITCH21092023\REPSWITCH_excgange\REPSWITCH_excgange\data/010101_REPSWITCH1_version1_list1_2023-11-10_13h54.48.695_micRespv1l1_recorded\recording_micRespv1l1_2023-11-10_13h55.52.671.wav;71.296913;71.7969784;None;71.296913;71.296913;71.296913;71.296913;71.296913;71.296913;;;;;;10101;1;2023-11-10_13h54.48.695;REPSWITCH1_version1_list1;2022.2.4;143.9951157;
REPSWITCH1/PICTURE_687.png;camisa;speak;gold;filler;2;F;1;1;1;1;Stim5_Set4;0;None;11;10;11;0;10;10;10;;;;;;;;;;;;;;;;;;;;;;;71.7969784;72.9360452;72.9360452;72.9360452;72.9360452;72.9360452;72.9360452;72.9360452;72.9360452;None;0;;;C:\2023\REPSWITCH21092023\REPSWITCH_excgange\REPSWITCH_excgange\data/010101_REPSWITCH1_version1_list1_2023-11-10_13h54.48.695_micRespv1l1_recorded\recording_micRespv1l1_2023-11-10_13h55.57.334.wav;75.9641861;76.464239;None;75.9641861;75.9641861;75.9641861;75.9641861;75.9641861;75.9641861;;;;;;10101;1;2023-11-10_13h54.48.695;REPSWITCH1_version1_list1;2022.2.4;143.9951157;
REPSWITCH1/PICTURE_128.png;muñeca;type;darkblue;nontarget;1;NT;1;1;1;1;Stim4_Set1;1;switch;12;11;12;0;11;11;11;;;;;;;;;;;;;;;;;;;;;;;76.464239;77.5824444;77.5824444;77.5824444;77.5824444;77.5824444;77.5824444;77.5824444;77.5824444;['m', 'u', 'n', 'e', 'c', 'a'];0;[1.039519800018752, 1.2557876000064425, 1.5528557000216097, 1.748435600020457, 2.343440800003009, 2.43051900001592];muneca;C:\2023\REPSWITCH21092023\REPSWITCH_excgange\REPSWITCH_excgange\data/010101_REPSWITCH1_version1_list1_2023-11-10_13h54.48.695_micRespv1l1_recorded\recording_micRespv1l1_2023-11-10_13h56.01.979.wav;80.610707;;None;80.610707;80.610707;80.610707;80.610707;80.610707;80.610707;;;;;;10101;1;2023-11-10_13h54.48.695;REPSWITCH1_version1_list1;2022.2.4;143.9951157;
REPSWITCH1/PICTURE_128.png;muñeca;speak;gold;switch;2;T;1;1;1;1;Stim4_Set1;0;None;13;12;13;0;12;12;12;;;;;;;;;;;;;;;;;;;;;;;81.1107742;82.2150251;82.2150251;82.2150251;82.2150251;82.2150251;82.2150251;82.2150251;82.2150251;None;0;;;C:\2023\REPSWITCH21092023\REPSWITCH_excgange\REPSWITCH_excgange\data/010101_REPSWITCH1_version1_list1_2023-11-10_13h54.48.695_micRespv1l1_recorded\recording_micRespv1l1_2023-11-10_13h56.06.612.wav;85.2362163;85.7363477;None;85.2362163;85.2362163;85.2362163;85.2362163;85.2362163;85.2362163;;;;;;10101;1;2023-11-10_13h54.48.695;REPSWITCH1_version1_list1;2022.2.4;143.9951157;
REPSWITCH1/PICTURE_8.png;pierna;speak;gold;filler;2;F;1;1;1;1;Stim3_Set4;0;None;14;13;14;0;13;13;13;;;;;;;;;;;;;;;;;;;;;;;85.7363477;86.8475547;86.8475547;86.8475547;86.8475547;86.8475547;86.8475547;86.8475547;86.8475547;None;0;;;C:\2023\REPSWITCH21092023\REPSWITCH_excgange\REPSWITCH_excgange\data/010101_REPSWITCH1_version1_list1_2023-11-10_13h54.48.695_micRespv1l1_recorded\recording_micRespv1l1_2023-11-10_13h56.11.244.wav;89.8757579;;None;89.8757579;89.8757579;89.8757579;89.8757579;89.8757579;89.8757579;;;;;;10101;1;2023-11-10_13h54.48.695;REPSWITCH1_version1_list1;2022.2.4;143.9951157;
REPSWITCH1/PICTURE_19.png;pavo;speak;gold;nontarget;2;NT;1;1;1;1;Stim5_Set1;0;None;15;14;15;0;14;14;14;;;;;;;;;;;;;;;;;;;;;;;90.3757946;91.4593127;91.4593127;91.4593127;91.4593127;91.4593127;91.4593127;91.4593127;91.4593127;None;0;;;C:\2023\REPSWITCH21092023\REPSWITCH_excgange\REPSWITCH_excgange\data/010101_REPSWITCH1_version1_list1_2023-11-10_13h54.48.695_micRespv1l1_recorded\recording_micRespv1l1_2023-11-10_13h56.15.857.wav;94.4874238;94.9874908;None;94.4874238;94.4874238;94.4874238;94.4874238;94.4874238;94.4874238;;;;;;10101;1;2023-11-10_13h54.48.695;REPSWITCH1_version1_list1;2022.2.4;143.9951157;
REPSWITCH1/PICTURE_19.png;pavo;type;darkblue;switch;1;T;1;1;1;1;Stim5_Set1;0;None;16;15;16;0;15;15;15;;;;;;;;;;;;;;;;;;;;;;;94.9874908;96.1682028;96.1682028;96.1682028;96.1682028;96.1682028;96.1682028;96.1682028;96.1682028;['p', 'a', 'v', 'o'];0;[0.9589226999960374, 1.0675898999907076, 1.302794699993683, 1.4672124999924563];pavo;C:\2023\REPSWITCH21092023\REPSWITCH_excgange\REPSWITCH_excgange\data/010101_REPSWITCH1_version1_list1_2023-11-10_13h54.48.695_micRespv1l1_recorded\recording_micRespv1l1_2023-11-10_13h56.20.564.wav;99.1964338;;None;99.1964338;99.1964338;99.1964338;99.1964338;99.1964338;99.1964338;;;;;;10101;1;2023-11-10_13h54.48.695;REPSWITCH1_version1_list1;2022.2.4;143.9951157;
REPSWITCH1/PICTURE_16.png;cazador;type;darkblue;nontarget;1;NT;1;1;1;1;Stim6_Set1;1;switch;17;16;17;0;16;16;16;;;;;;;;;;;;;;;;;;;;;;;99.6964343;100.8354882;100.8354882;100.8354882;100.8354882;100.8354882;100.8354882;100.8354882;100.8354882;['c', 'a', 'z', 'a', 'd', 'o', 'r'];0;[1.4858970000059344, 1.6078211000130977, 1.8709146000037435, 1.9722669000038877, 2.2066914000024553, 2.403036100004101, 2.589416100003291];cazador;C:\2023\REPSWITCH21092023\REPSWITCH_excgange\REPSWITCH_excgange\data/010101_REPSWITCH1_version1_list1_2023-11-10_13h54.48.695_micRespv1l1_recorded\recording_micRespv1l1_2023-11-10_13h56.25.232.wav;103.8636736;104.3637245;None;103.8636736;103.8636736;103.8636736;103.8636736;103.8636736;103.8636736;;;;;;10101;1;2023-11-10_13h54.48.695;REPSWITCH1_version1_list1;2022.2.4;143.9951157;
REPSWITCH1/PICTURE_16.png;cazador;type;darkblue;repeat;1;T;1;1;1;1;Stim6_Set1;0;None;18;17;18;0;17;17;17;;;;;;;;;;;;;;;;;;;;;;;104.3637245;105.4403376;105.4403376;105.4403376;105.4403376;105.4403376;105.4403376;105.4403376;105.4403376;['c', 'a', 'z', 'a', 'd', 'o', 'r'];0;[1.021748099999968, 1.192201700003352, 1.3795816999918316, 1.485860999993747, 1.7605604999989737, 1.8861129000142682, 2.02367699999013];cazador;C:\2023\REPSWITCH21092023\REPSWITCH_excgange\REPSWITCH_excgange\data/010101_REPSWITCH1_version1_list1_2023-11-10_13h54.48.695_micRespv1l1_recorded\recording_micRespv1l1_2023-11-10_13h56.29.836.wav;108.4684773;;None;108.4684773;108.4684773;108.4684773;108.4684773;108.4684773;108.4684773;;;;;;10101;1;2023-11-10_13h54.48.695;REPSWITCH1_version1_list1;2022.2.4;143.9951157;
REPSWITCH1/PICTURE_498.png;taza;speak;gold;filler;2;F;1;1;1;1;Stim4_Set4;0;None;19;18;19;0;18;18;18;;;;;;;;;;;;;;;;;;;;;;;108.9684991;110.0658718;110.0658718;110.0658718;110.0658718;110.0658718;110.0658718;110.0658718;110.0658718;None;0;;;C:\2023\REPSWITCH21092023\REPSWITCH_excgange\REPSWITCH_excgange\data/010101_REPSWITCH1_version1_list1_2023-11-10_13h54.48.695_micRespv1l1_recorded\recording_micRespv1l1_2023-11-10_13h56.34.462.wav;113.0870694;113.5871621;None;113.0870694;113.0870694;113.0870694;113.0870694;113.0870694;113.0870694;;;;;;10101;1;2023-11-10_13h54.48.695;REPSWITCH1_version1_list1;2022.2.4;143.9951157;
REPSWITCH1/PICTURE_48.png;bombero;type;darkblue;filler;1;F;1;1;1;1;Stim7_Set4;0;None;20;19;20;0;19;19;19;;;;;;;;;;;;;;;;;;;;;;;113.5871621;114.7262044;114.7262044;114.7262044;114.7262044;114.7262044;114.7262044;114.7262044;114.7262044;['b', 'o', 'm', 'b', 'e', 'r', 'o'];0;[1.0675634000217542, 1.206191500008572, 1.4109263000136707, 1.5823957000102382, 1.68733010001597, 2.1918421000009403, 2.341199900023639];bombero;C:\2023\REPSWITCH21092023\REPSWITCH_excgange\REPSWITCH_excgange\data/010101_REPSWITCH1_version1_list1_2023-11-10_13h54.48.695_micRespv1l1_recorded\recording_micRespv1l1_2023-11-10_13h56.39.123.wav;117.7543587;118.2544203;None;117.7543587;117.7543587;117.7543587;117.7543587;117.7543587;117.7543587;;;;;;10101;1;2023-11-10_13h54.48.695;REPSWITCH1_version1_list1;2022.2.4;143.9951157;
REPSWITCH1/PICTURE_142.png;vaso;type;darkblue;nontarget;1;NT;1;1;1;1;Stim7_Set1;1;repeat;21;20;21;0;20;20;20;;;;;;;;;;;;;;;;;;;;;;;118.2544203;119.3309711;119.3309711;119.3309711;119.3309711;119.3309711;119.3309711;119.3309711;119.3309711;['v', 'a', 's', 'o'];0;[1.0627853999903891, 1.164423899987014, 1.375958399992669, 1.599290199985262];vaso;C:\2023\REPSWITCH21092023\REPSWITCH_excgange\REPSWITCH_excgange\data/010101_REPSWITCH1_version1_list1_2023-11-10_13h54.48.695_micRespv1l1_recorded\recording_micRespv1l1_2023-11-10_13h56.43.728.wav;122.3591572;122.8592042;None;122.3591572;122.3591572;122.3591572;122.3591572;122.3591572;122.3591572;;;;;;10101;1;2023-11-10_13h54.48.695;REPSWITCH1_version1_list1;2022.2.4;143.9951157;
REPSWITCH1/PICTURE_142.png;vaso;type;darkblue;repeat;1;T;1;1;1;1;Stim7_Set1;0;None;22;21;22;0;21;21;21;;;;;;;;;;;;;;;;;;;;;;;122.8592042;123.942671;123.942671;123.942671;123.942671;123.942671;123.942671;123.942671;123.942671;['v', 'a', 's', 'o'];0;[1.0650230000028387, 1.1603085999959148, 1.349694999982603, 1.5181274999922607];vaso;C:\2023\REPSWITCH21092023\REPSWITCH_excgange\REPSWITCH_excgange\data/010101_REPSWITCH1_version1_list1_2023-11-10_13h54.48.695_micRespv1l1_recorded\recording_micRespv1l1_2023-11-10_13h56.48.339.wav;126.9708637;;None;126.9708637;126.9708637;126.9708637;126.9708637;126.9708637;126.9708637;;;;;;10101;1;2023-11-10_13h54.48.695;REPSWITCH1_version1_list1;2022.2.4;143.9951157;
REPSWITCH1/PICTURE_338.png;regalo;speak;gold;filler;2;F;1;1;1;1;Stim6_Set4;1;switch;23;22;23;0;22;22;22;;;;;;;;;;;;;;;;;;;;;;;127.4709168;128.57521;128.57521;128.57521;128.57521;128.57521;128.57521;128.57521;128.57521;None;0;;;C:\2023\REPSWITCH21092023\REPSWITCH_excgange\REPSWITCH_excgange\data/010101_REPSWITCH1_version1_list1_2023-11-10_13h54.48.695_micRespv1l1_recorded\recording_micRespv1l1_2023-11-10_13h56.52.973.wav;131.6033946;132.1035074;None;131.6033946;131.6033946;131.6033946;131.6033946;131.6033946;131.6033946;;;;;;10101;1;2023-11-10_13h54.48.695;REPSWITCH1_version1_list1;2022.2.4;143.9951157;
REPSWITCH1/PICTURE_728.png;pulpo;type;darkblue;filler;1;F;1;1;1;1;Stim8_Set4;1;switch;24;23;24;0;23;23;23;;;;;;;;;;;;;;;;;;;;;;;132.1035074;133.2008068;133.2008068;133.2008068;133.2008068;133.2008068;133.2008068;133.2008068;133.2008068;['p', 'u', 'l', 'p', 'o'];0;[1.5634233000164386, 1.8593495000095572, 2.1178367000247817, 2.6420494000194594, 2.7958161999995355];pulpo;C:\2023\REPSWITCH21092023\REPSWITCH_excgange\REPSWITCH_excgange\data/010101_REPSWITCH1_version1_list1_2023-11-10_13h54.48.695_micRespv1l1_recorded\recording_micRespv1l1_2023-11-10_13h56.57.597.wav;136.2290219;;None;136.2290219;136.2290219;136.2290219;136.2290219;136.2290219;136.2290219;;;;;;10101;1;2023-11-10_13h54.48.695;REPSWITCH1_version1_list1;2022.2.4;143.9951157;
REPSWITCH1/PICTURE_169.png;espalda;type;darkblue;nontarget;1;NT;1;1;1;1;Stim8_Set1;1;repeat;25;24;25;0;24;24;24;;;;;;;;;;;;;;;;;;;;;;;136.7291606;137.8056154;137.8056154;137.8056154;137.8056154;137.8056154;137.8056154;137.8056154;137.8056154;['e', 's', 'p', 'a', 'l', 'd', 'a'];0;[0.9870307999954093, 1.1877146000042558, 1.3432091000140645, 1.4837020999984816, 1.6167405000014696, 2.082681200001389, 2.188310099998489];espalda;C:\2023\REPSWITCH21092023\REPSWITCH_excgange\REPSWITCH_excgange\data/010101_REPSWITCH1_version1_list1_2023-11-10_13h54.48.695_micRespv1l1_recorded\recording_micRespv1l1_2023-11-10_13h57.02.204.wav;140.8337961;141.3338573;None;140.8337961;140.8337961;140.8337961;140.8337961;140.8337961;140.8337961;;;;;;10101;1;2023-11-10_13h54.48.695;REPSWITCH1_version1_list1;2022.2.4;143.9951157;
REPSWITCH1/PICTURE_169.png;espalda;speak;gold;switch;2;T;1;1;1;1;Stim8_Set1;0;None;26;25;26;0;25;25;25;;;;;;;;;;;;;;;;;;;;;;;141.3338573;142.4798906;142.4798906;142.4798906;142.4798906;142.4798906;142.4798906;142.4798906;142.4798906;None;0;;;C:\2023\REPSWITCH21092023\REPSWITCH_excgange\REPSWITCH_excgange\data/010101_REPSWITCH1_version1_list1_2023-11-10_13h54.48.695_micRespv1l1_recorded\recording_micRespv1l1_2023-11-10_13h57.06.876.wav;145.5010756;146.0011917;None;145.5010756;145.5010756;145.5010756;145.5010756;145.5010756;145.5010756;;;;;;10101;1;2023-11-10_13h54.48.695;REPSWITCH1_version1_list1;2022.2.4;143.9951157;
REPSWITCH1/PICTURE_178.png;puente;speak;gold;filler;2;F;2;1;1;1;Stim1_Set1;0;None;27;26;27;0;26;26;26;;;;;;;;;;;;;;;;;;;;;;;146.0011917;147.1819241;147.1819241;147.1819241;147.1819241;147.1819241;147.1819241;147.1819241;147.1819241;None;0;;;C:\2023\REPSWITCH21092023\REPSWITCH_excgange\REPSWITCH_excgange\data/010101_REPSWITCH1_version1_list1_2023-11-10_13h54.48.695_micRespv1l1_recorded\recording_micRespv1l1_2023-11-10_13h57.11.578.wav;150.2030964;150.7031327;None;150.2030964;150.2030964;150.2030964;150.2030964;150.2030964;150.2030964;;;;;;10101;1;2023-11-10_13h54.48.695;REPSWITCH1_version1_list1;2022.2.4;143.9951157;
REPSWITCH1/PICTURE_175.png;pintor;type;darkblue;nontarget;1;NT;2;1;1;1;Stim1_Set2;1;switch;28;27;28;0;27;27;27;;;;;;;;;;;;;;;;;;;;;;;150.7031327;151.800504;151.800504;151.800504;151.800504;151.800504;151.800504;151.800504;151.800504;['p', 'i', 'n', 't', 'o', 'r'];0;[1.165097400022205, 1.3845587000250816, 1.565263300028164, 1.7276738000218756, 1.8747473000257742, 1.9924247000017203];pintor;C:\2023\REPSWITCH21092023\REPSWITCH_excgange\REPSWITCH_excgange\data/010101_REPSWITCH1_version1_list1_2023-11-10_13h54.48.695_micRespv1l1_recorded\recording_micRespv1l1_2023-11-10_13h57.16.197.wav;154.828682;155.3287403;None;154.828682;154.828682;154.828682;154.828682;154.828682;154.828682;;;;;;10101;1;2023-11-10_13h54.48.695;REPSWITCH1_version1_list1;2022.2.4;143.9951157;
REPSWITCH1/PICTURE_175.png;pintor;type;darkblue;repeat;1;T;2;1;1;1;Stim1_Set2;0;None;29;28;29;0;28;28;28;;;;;;;;;;;;;;;;;;;;;;;155.3287403;156.3983298;156.3983298;156.3983298;156.3983298;156.3983298;156.3983298;156.3983298;156.3983298;['p', 'i', 'n', 't', 'o', 'r'];0;[1.3767351999995299, 1.6407671999768354, 1.8401629999862053, 2.100288699992234, 2.2149221999861766, 2.320516999985557];pintor;C:\2023\REPSWITCH21092023\REPSWITCH_excgange\REPSWITCH_excgange\data/010101_REPSWITCH1_version1_list1_2023-11-10_13h54.48.695_micRespv1l1_recorded\recording_micRespv1l1_2023-11-10_13h57.20.795.wav;159.426504;;None;159.426504;159.426504;159.426504;159.426504;159.426504;159.426504;;;;;;10101;1;2023-11-10_13h54.48.695;REPSWITCH1_version1_list1;2022.2.4;143.9951157;
REPSWITCH1/PICTURE_381.png;fresa;speak;gold;filler;2;F;2;1;1;1;Stim2_Set1;0;None;30;29;30;0;29;29;29;;;;;;;;;;;;;;;;;;;;;;;159.9265633;161.05871;161.05871;161.05871;161.05871;161.05871;161.05871;161.05871;161.05871;None;0;;;C:\2023\REPSWITCH21092023\REPSWITCH_excgange\REPSWITCH_excgange\data/010101_REPSWITCH1_version1_list1_2023-11-10_13h54.48.695_micRespv1l1_recorded\recording_micRespv1l1_2023-11-10_13h57.25.454.wav;164.0798891;164.579957;None;164.0798891;164.0798891;164.0798891;164.0798891;164.0798891;164.0798891;;;;;;10101;1;2023-11-10_13h54.48.695;REPSWITCH1_version1_list1;2022.2.4;143.9951157;
REPSWITCH1/PICTURE_152.png;caracol;type;darkblue;nontarget;1;NT;2;1;1;1;Stim2_Set2;1;switch;31;30;31;0;30;30;30;;;;;;;;;;;;;;;;;;;;;;;164.579957;165.6495377;165.6495377;165.6495377;165.6495377;165.6495377;165.6495377;165.6495377;165.6495377;['c', 'a', 'r', 'a', 'c', 'o', 'l'];0;[1.1384986000193749, 1.1952903000055812, 1.416399800014915, 1.5393692000070587, 1.707080499996664, 1.919976700010011, 2.118340500019258];caracol;C:\2023\REPSWITCH21092023\REPSWITCH_excgange\REPSWITCH_excgange\data/010101_REPSWITCH1_version1_list1_2023-11-10_13h54.48.695_micRespv1l1_recorded\recording_micRespv1l1_2023-11-10_13h57.30.047.wav;168.677714;169.1777773;None;168.677714;168.677714;168.677714;168.677714;168.677714;168.677714;;;;;;10101;1;2023-11-10_13h54.48.695;REPSWITCH1_version1_list1;2022.2.4;143.9951157;
REPSWITCH1/PICTURE_152.png;caracol;type;darkblue;repeat;1;T;2;1;1;1;Stim2_Set2;0;None;32;31;32;0;31;31;31;;;;;;;;;;;;;;;;;;;;;;;169.1777773;170.198821;170.198821;170.198821;170.198821;170.198821;170.198821;170.198821;170.198821;['c', 'a', 'r', 'a', 'c', 'o', 'l'];0;[1.3278826999885496, 1.4379032999859191, 1.6761369000014383, 1.783783199993195, 2.0810600999975577, 2.2713801999925636, 2.4278870999987703];caracol;C:\2023\REPSWITCH21092023\REPSWITCH_excgange\REPSWITCH_excgange\data/010101_REPSWITCH1_version1_list1_2023-11-10_13h54.48.695_micRespv1l1_recorded\recording_micRespv1l1_2023-11-10_13h57.34.595.wav;173.2269231;;None;173.2269231;173.2269231;173.2269231;173.2269231;173.2269231;173.2269231;;;;;;10101;1;2023-11-10_13h54.48.695;REPSWITCH1_version1_list1;2022.2.4;143.9951157;
REPSWITCH1/PICTURE_128.png;muñeca;speak;gold;filler;2;F;2;1;1;1;Stim4_Set1;0;None;33;32;33;0;32;32;32;;;;;;;;;;;;;;;;;;;;;;;173.7269843;174.7618644;174.7618644;174.7618644;174.7618644;174.7618644;174.7618644;174.7618644;174.7618644;None;0;;;C:\2023\REPSWITCH21092023\REPSWITCH_excgange\REPSWITCH_excgange\data/010101_REPSWITCH1_version1_list1_2023-11-10_13h54.48.695_micRespv1l1_recorded\recording_micRespv1l1_2023-11-10_13h57.39.158.wav;177.7900187;;None;177.7900187;177.7900187;177.7900187;177.7900187;177.7900187;177.7900187;;;;;;10101;1;2023-11-10_13h54.48.695;REPSWITCH1_version1_list1;2022.2.4;143.9951157;
REPSWITCH1/PICTURE_264.png;mano;type;darkblue;nontarget;1;NT;2;1;1;1;Stim3_Set2;0;None;34;33;34;0;33;33;33;;;;;;;;;;;;;;;;;;;;;;;178.2900647;179.4082875;179.4082875;179.4082875;179.4082875;179.4082875;179.4082875;179.4082875;179.4082875;['m', 'a', 'n', 'o'];0;[0.8509941000083927, 0.9766084000002593, 1.1400583000213373, 1.226729999994859];mano;C:\2023\REPSWITCH21092023\REPSWITCH_excgange\REPSWITCH_excgange\data/010101_REPSWITCH1_version1_list1_2023-11-10_13h54.48.695_micRespv1l1_recorded\recording_micRespv1l1_2023-11-10_13h57.43.806.wav;182.4365204;182.9365155;None;182.4365204;182.4365204;182.4365204;182.4365204;182.4365204;182.4365204;;;;;;10101;1;2023-11-10_13h54.48.695;REPSWITCH1_version1_list1;2022.2.4;143.9951157;
REPSWITCH1/PICTURE_264.png;mano;speak;gold;switch;2;T;2;1;1;1;Stim3_Set2;0;None;35;34;35;0;34;34;34;;;;;;;;;;;;;;;;;;;;;;;182.9365155;184.0616935;184.0616935;184.0616935;184.0616935;184.0616935;184.0616935;184.0616935;184.0616935;None;0;;;C:\2023\REPSWITCH21092023\REPSWITCH_excgange\REPSWITCH_excgange\data/010101_REPSWITCH1_version1_list1_2023-11-10_13h54.48.695_micRespv1l1_recorded\recording_micRespv1l1_2023-11-10_13h57.48.457.wav;187.0829693;187.5829619;None;187.0829693;187.0829693;187.0829693;187.0829693;187.0829693;187.0829693;;;;;;10101;1;2023-11-10_13h54.48.695;REPSWITCH1_version1_list1;2022.2.4;143.9951157;
REPSWITCH1/PICTURE_517.png;cuerda;speak;gold;nontarget;2;NT;2;1;1;1;Stim4_Set2;1;repeat;36;35;36;0;35;35;35;;;;;;;;;;;;;;;;;;;;;;;187.5829619;188.6386248;188.6386248;188.6386248;188.6386248;188.6386248;188.6386248;188.6386248;188.6386248;None;0;;;C:\2023\REPSWITCH21092023\REPSWITCH_excgange\REPSWITCH_excgange\data/010101_REPSWITCH1_version1_list1_2023-11-10_13h54.48.695_micRespv1l1_recorded\recording_micRespv1l1_2023-11-10_13h57.53.035.wav;191.6668529;;None;191.6668529;191.6668529;191.6668529;191.6668529;191.6668529;191.6668529;;;;;;10101;1;2023-11-10_13h54.48.695;REPSWITCH1_version1_list1;2022.2.4;143.9951157;
REPSWITCH1/PICTURE_517.png;cuerda;type;darkblue;switch;1;T;2;1;1;1;Stim4_Set2;0;None;37;36;37;0;36;36;36;;;;;;;;;;;;;;;;;;;;;;;192.1668837;193.2851567;193.2851567;193.2851567;193.2851567;193.2851567;193.2851567;193.2851567;193.2851567;['c', 'u', 'e', 'r', 'd', 'a'];0;[1.2200647000281606, 1.3637368000054266, 1.4544293000071775, 1.6487804000207689, 1.886603400023887, 2.0899215000099503];cuerda;C:\2023\REPSWITCH21092023\REPSWITCH_excgange\REPSWITCH_excgange\data/010101_REPSWITCH1_version1_list1_2023-11-10_13h54.48.695_micRespv1l1_recorded\recording_micRespv1l1_2023-11-10_13h57.57.680.wav;196.3063261;196.806354;None;196.3063261;196.3063261;196.3063261;196.3063261;196.3063261;196.3063261;;;;;;10101;1;2023-11-10_13h54.48.695;REPSWITCH1_version1_list1;2022.2.4;143.9951157;
REPSWITCH1/PICTURE_135.png;traje;type;darkblue;filler;1;F;2;1;1;1;Stim3_Set1;0;None;38;37;38;0;37;37;37;;;;;;;;;;;;;;;;;;;;;;;196.806354;197.9454148;197.9454148;197.9454148;197.9454148;197.9454148;197.9454148;197.9454148;197.9454148;['t', 'r', 'a', 'j', 'e'];0;[1.0008628999930806, 1.1774045999918599, 1.3817280999792274, 1.6860273999918718, 1.8091776999935973];traje;C:\2023\REPSWITCH21092023\REPSWITCH_excgange\REPSWITCH_excgange\data/010101_REPSWITCH1_version1_list1_2023-11-10_13h54.48.695_micRespv1l1_recorded\recording_micRespv1l1_2023-11-10_13h58.02.342.wav;200.9736801;;None;200.9736801;200.9736801;200.9736801;200.9736801;200.9736801;200.9736801;;;;;;10101;1;2023-11-10_13h54.48.695;REPSWITCH1_version1_list1;2022.2.4;143.9951157;
REPSWITCH1/PICTURE_30.png;granja;type;darkblue;nontarget;1;NT;2;1;1;1;Stim5_Set2;1;repeat;39;38;39;0;38;38;38;;;;;;;;;;;;;;;;;;;;;;;201.4737456;202.536299;202.536299;202.536299;202.536299;202.536299;202.536299;202.536299;202.536299;['g', 'r', 'a', 'n', 'j', 'a'];0;[2.1991522000171244, 2.376200600003358, 2.4609104999981355, 2.7111080000177026, 2.872509800014086, 2.9552138000144623];granja;C:\2023\REPSWITCH21092023\REPSWITCH_excgange\REPSWITCH_excgange\data/010101_REPSWITCH1_version1_list1_2023-11-10_13h54.48.695_micRespv1l1_recorded\recording_micRespv1l1_2023-11-10_13h58.06.934.wav;205.5644746;206.0645341;None;205.5644746;205.5644746;205.5644746;205.5644746;205.5644746;205.5644746;;;;;;10101;1;2023-11-10_13h54.48.695;REPSWITCH1_version1_list1;2022.2.4;143.9951157;
REPSWITCH1/PICTURE_30.png;granja;speak;gold;switch;2;T;2;1;1;1;Stim5_Set2;0;None;40;39;40;0;39;39;39;;;;;;;;;;;;;;;;;;;;;;;206.0645341;207.2175069;207.2175069;207.2175069;207.2175069;207.2175069;207.2175069;207.2175069;207.2175069;None;0;;;C:\2023\REPSWITCH21092023\REPSWITCH_excgange\REPSWITCH_excgange\data/010101_REPSWITCH1_version1_list1_2023-11-10_13h54.48.695_micRespv1l1_recorded\recording_micRespv1l1_2023-11-10_13h58.11.613.wav;210.2386842;210.7387807;None;210.2386842;210.2386842;210.2386842;210.2386842;210.2386842;210.2386842;;;;;;10101;1;2023-11-10_13h54.48.695;REPSWITCH1_version1_list1;2022.2.4;143.9951157;
REPSWITCH1/PICTURE_142.png;vaso;type;darkblue;filler;1;F;2;1;1;1;Stim7_Set1;0;None;41;40;41;0;40;40;40;;;;;;;;;;;;;;;;;;;;;;;210.7387807;211.8708503;211.8708503;211.8708503;211.8708503;211.8708503;211.8708503;211.8708503;211.8708503;['v', 'a', 's', 'o'];0;[1.1518602999858558, 1.2677624999778345, 1.4867015999916475, 1.6252753000007942];vaso;C:\2023\REPSWITCH21092023\REPSWITCH_excgange\REPSWITCH_excgange\data/010101_REPSWITCH1_version1_list1_2023-11-10_13h54.48.695_micRespv1l1_recorded\recording_micRespv1l1_2023-11-10_13h58.16.267.wav;214.8920979;215.3921445;None;214.8920979;214.8920979;214.8920979;214.8920979;214.8920979;214.8920979;;;;;;10101;1;2023-11-10_13h54.48.695;REPSWITCH1_version1_list1;2022.2.4;143.9951157;
REPSWITCH1/PICTURE_19.png;pavo;speak;gold;filler;2;F;2;1;1;1;Stim5_Set1;1;switch;42;41;42;0;41;41;41;;;;;;;;;;;;;;;;;;;;;;;215.3921445;216.4478291;216.4478291;216.4478291;216.4478291;216.4478291;216.4478291;216.4478291;216.4478291;None;0;;;C:\2023\REPSWITCH21092023\REPSWITCH_excgange\REPSWITCH_excgange\data/010101_REPSWITCH1_version1_list1_2023-11-10_13h54.48.695_micRespv1l1_recorded\recording_micRespv1l1_2023-11-10_13h58.20.844.wav;219.4760939;;None;219.4760939;219.4760939;219.4760939;219.4760939;219.4760939;219.4760939;;;;;;10101;1;2023-11-10_13h54.48.695;REPSWITCH1_version1_list1;2022.2.4;143.9951157;
REPSWITCH1/PICTURE_552.png;manzana;speak;gold;nontarget;2;NT;2;1;1;1;Stim6_Set2;1;repeat;43;42;43;0;42;42;42;;;;;;;;;;;;;;;;;;;;;;;219.9761357;221.1081701;221.1081701;221.1081701;221.1081701;221.1081701;221.1081701;221.1081701;221.1081701;None;0;;;C:\2023\REPSWITCH21092023\REPSWITCH_excgange\REPSWITCH_excgange\data/010101_REPSWITCH1_version1_list1_2023-11-10_13h54.48.695_micRespv1l1_recorded\recording_micRespv1l1_2023-11-10_13h58.25.505.wav;224.1363359;;None;224.1363359;224.1363359;224.1363359;224.1363359;224.1363359;224.1363359;;;;;;10101;1;2023-11-10_13h54.48.695;REPSWITCH1_version1_list1;2022.2.4;143.9951157;
REPSWITCH1/PICTURE_552.png;manzana;speak;gold;repeat;2;T;2;1;1;1;Stim6_Set2;0;None;44;43;44;0;43;43;43;;;;;;;;;;;;;;;;;;;;;;;224.6364011;225.77551;225.77551;225.77551;225.77551;225.77551;225.77551;225.77551;225.77551;None;0;;;C:\2023\REPSWITCH21092023\REPSWITCH_excgange\REPSWITCH_excgange\data/010101_REPSWITCH1_version1_list1_2023-11-10_13h54.48.695_micRespv1l1_recorded\recording_micRespv1l1_2023-11-10_13h58.30.171.wav;228.7967674;229.2967606;None;228.7967674;228.7967674;228.7967674;228.7967674;228.7967674;228.7967674;;;;;;10101;1;2023-11-10_13h54.48.695;REPSWITCH1_version1_list1;2022.2.4;143.9951157;
REPSWITCH1/PICTURE_16.png;cazador;type;darkblue;filler;1;F;2;1;1;1;Stim6_Set1;0;None;45;44;45;0;44;44;44;;;;;;;;;;;;;;;;;;;;;;;229.2967606;230.3594602;230.3594602;230.3594602;230.3594602;230.3594602;230.3594602;230.3594602;230.3594602;['c', 'a', 'z', 'a', 'd', 'o', 'r'];0;[1.0380085000069812, 1.1695609000162221, 1.4386802000226453, 1.544304800016107, 1.7845126000174787, 2.004798900015885, 2.1453244000149425];cazador;C:\2023\REPSWITCH21092023\REPSWITCH_excgange\REPSWITCH_excgange\data/010101_REPSWITCH1_version1_list1_2023-11-10_13h54.48.695_micRespv1l1_recorded\recording_micRespv1l1_2023-11-10_13h58.34.755.wav;233.3806395;233.8806952;None;233.3806395;233.3806395;233.3806395;233.3806395;233.3806395;233.3806395;;;;;;10101;1;2023-11-10_13h54.48.695;REPSWITCH1_version1_list1;2022.2.4;143.9951157;
REPSWITCH1/PICTURE_446.png;cerdo;speak;gold;nontarget;2;NT;2;1;1;1;Stim7_Set2;1;switch;46;45;46;0;45;45;45;;;;;;;;;;;;;;;;;;;;;;;233.8806952;235.0613985;235.0613985;235.0613985;235.0613985;235.0613985;235.0613985;235.0613985;235.0613985;None;0;;;C:\2023\REPSWITCH21092023\REPSWITCH_excgange\REPSWITCH_excgange\data/010101_REPSWITCH1_version1_list1_2023-11-10_13h54.48.695_micRespv1l1_recorded\recording_micRespv1l1_2023-11-10_13h58.39.459.wav;238.0895482;238.5896391;None;238.0895482;238.0895482;238.0895482;238.0895482;238.0895482;238.0895482;;;;;;10101;1;2023-11-10_13h54.48.695;REPSWITCH1_version1_list1;2022.2.4;143.9951157;
REPSWITCH1/PICTURE_446.png;cerdo;speak;gold;repeat;2;T;2;1;1;1;Stim7_Set2;0;None;47;46;47;0;46;46;46;;;;;;;;;;;;;;;;;;;;;;;238.5896391;239.6662604;239.6662604;239.6662604;239.6662604;239.6662604;239.6662604;239.6662604;239.6662604;None;0;;;C:\2023\REPSWITCH21092023\REPSWITCH_excgange\REPSWITCH_excgange\data/010101_REPSWITCH1_version1_list1_2023-11-10_13h54.48.695_micRespv1l1_recorded\recording_micRespv1l1_2023-11-10_13h58.44.061.wav;242.6873764;243.1874589;None;242.6873764;242.6873764;242.6873764;242.6873764;242.6873764;242.6873764;;;;;;10101;1;2023-11-10_13h54.48.695;REPSWITCH1_version1_list1;2022.2.4;143.9951157;
REPSWITCH1/PICTURE_590.png;escoba;type;darkblue;filler;1;F;2;1;1;1;Extra3;0;None;48;47;48;0;47;47;47;;;;;;;;;;;;;;;;;;;;;;;243.1874589;244.3125923;244.3125923;244.3125923;244.3125923;244.3125923;244.3125923;244.3125923;244.3125923;['e', 's', 'c', 'o', 'b', 'a'];0;[0.9151315999915823, 1.165528199984692, 1.477521099994192, 1.7060555999923963, 2.0550617999979295, 2.192644199996721];escoba;C:\2023\REPSWITCH21092023\REPSWITCH_excgange\REPSWITCH_excgange\data/010101_REPSWITCH1_version1_list1_2023-11-10_13h54.48.695_micRespv1l1_recorded\recording_micRespv1l1_2023-11-10_13h58.48.708.wav;247.333834;247.8339079;None;247.333834;247.333834;247.333834;247.333834;247.333834;247.333834;;;;;;10101;1;2023-11-10_13h54.48.695;REPSWITCH1_version1_list1;2022.2.4;143.9951157;
REPSWITCH1/PICTURE_169.png;espalda;speak;gold;filler;2;F;2;1;1;1;Stim8_Set1;0;None;49;48;49;0;48;48;48;;;;;;;;;;;;;;;;;;;;;;;247.8339079;248.8895866;248.8895866;248.8895866;248.8895866;248.8895866;248.8895866;248.8895866;248.8895866;None;0;;;C:\2023\REPSWITCH21092023\REPSWITCH_excgange\REPSWITCH_excgange\data/010101_REPSWITCH1_version1_list1_2023-11-10_13h54.48.695_micRespv1l1_recorded\recording_micRespv1l1_2023-11-10_13h58.53.285.wav;251.9108301;252.4108945;None;251.9108301;251.9108301;251.9108301;251.9108301;251.9108301;251.9108301;;;;;;10101;1;2023-11-10_13h54.48.695;REPSWITCH1_version1_list1;2022.2.4;143.9951157;
REPSWITCH1/PICTURE_199.png;falda;speak;gold;nontarget;2;NT;2;1;1;1;Stim8_Set2;1;repeat;50;49;50;0;49;49;49;;;;;;;;;;;;;;;;;;;;;;;252.4108945;253.4388091;253.4388091;253.4388091;253.4388091;253.4388091;253.4388091;253.4388091;253.4388091;None;0;;;C:\2023\REPSWITCH21092023\REPSWITCH_excgange\REPSWITCH_excgange\data/010101_REPSWITCH1_version1_list1_2023-11-10_13h54.48.695_micRespv1l1_recorded\recording_micRespv1l1_2023-11-10_13h58.57.835.wav;256.4669847;;None;256.4669847;256.4669847;256.4669847;256.4669847;256.4669847;256.4669847;;;;;;10101;1;2023-11-10_13h54.48.695;REPSWITCH1_version1_list1;2022.2.4;143.9951157;
REPSWITCH1/PICTURE_199.png;falda;type;darkblue;switch;1;T;2;1;1;1;Stim8_Set2;0;None;51;50;51;0;50;50;50;;;;;;;;;;;;;;;;;;;;;;;256.9671209;258.0852635;258.0852635;258.0852635;258.0852635;258.0852635;258.0852635;258.0852635;258.0852635;['f', 'a', 'l', 'd', 'a'];0;[1.2895913000102155, 1.3896053000062238, 1.6657199999899603, 1.8102300000027753, 1.897155799990287];falda;C:\2023\REPSWITCH21092023\REPSWITCH_excgange\REPSWITCH_excgange\data/010101_REPSWITCH1_version1_list1_2023-11-10_13h54.48.695_micRespv1l1_recorded\recording_micRespv1l1_2023-11-10_13h59.02.480.wav;261.1064892;261.6065446;space;261.1064892;261.1064892;261.1064892;261.1064892;261.1064892;261.1064892;261.6065446;261.6065446;75.1227129;;;10101;1;2023-11-10_13h54.48.695;REPSWITCH1_version1_list1;2022.2.4;143.9951157;
REPSWITCH1/PICTURE_576.png;guante;type;darkblue;nontarget;1;NT;3;1;1;1;Stim1_Set3;0;None;52;51;52;0;51;51;51;;;;;;;;;;;;;;;;;;;;;;;336.7413487;337.776215;337.776215;337.776215;337.776215;337.776215;337.776215;337.776215;337.776215;['g', 'u', 'a', 'n', 't', 'e'];0;[1.6609010000247508, 1.755486700014444, 1.8770424000103958, 2.01263540002401, 2.2119342000223696, 2.3245802000164986];guante;C:\2023\REPSWITCH21092023\REPSWITCH_excgange\REPSWITCH_excgange\data/010101_REPSWITCH1_version1_list1_2023-11-10_13h54.48.695_micRespv1l1_recorded\recording_micRespv1l1_2023-11-10_14h00.22.174.wav;340.8044244;;None;340.8044244;340.8044244;340.8044244;340.8044244;340.8044244;340.8044244;;;;;;10101;1;2023-11-10_13h54.48.695;REPSWITCH1_version1_list1;2022.2.4;143.9951157;
REPSWITCH1/PICTURE_576.png;guante;speak;gold;switch;2;T;3;1;1;1;Stim1_Set3;0;None;53;52;53;0;52;52;52;;;;;;;;;;;;;;;;;;;;;;;341.304482;342.3254286;342.3254286;342.3254286;342.3254286;342.3254286;342.3254286;342.3254286;342.3254286;None;0;;;C:\2023\REPSWITCH21092023\REPSWITCH_excgange\REPSWITCH_excgange\data/010101_REPSWITCH1_version1_list1_2023-11-10_13h54.48.695_micRespv1l1_recorded\recording_micRespv1l1_2023-11-10_14h00.26.721.wav;345.3466809;345.8467465;None;345.3466809;345.3466809;345.3466809;345.3466809;345.3466809;345.3466809;;;;;;10101;1;2023-11-10_13h54.48.695;REPSWITCH1_version1_list1;2022.2.4;143.9951157;
REPSWITCH1/PICTURE_646.png;tronco;speak;gold;filler;2;F;3;1;1;1;Extra4;0;None;54;53;54;0;53;53;53;;;;;;;;;;;;;;;;;;;;;;;345.8467465;346.951027;346.951027;346.951027;346.951027;346.951027;346.951027;346.951027;346.951027;None;0;;;C:\2023\REPSWITCH21092023\REPSWITCH_excgange\REPSWITCH_excgange\data/010101_REPSWITCH1_version1_list1_2023-11-10_13h54.48.695_micRespv1l1_recorded\recording_micRespv1l1_2023-11-10_14h00.31.348.wav;349.9792112;350.4792714;None;349.9792112;349.9792112;349.9792112;349.9792112;349.9792112;349.9792112;;;;;;10101;1;2023-11-10_13h54.48.695;REPSWITCH1_version1_list1;2022.2.4;143.9951157;
REPSWITCH1/PICTURE_610.png;miel;speak;gold;nontarget;2;NT;3;1;1;1;Stim2_Set3;1;repeat;55;54;55;0;54;54;54;;;;;;;;;;;;;;;;;;;;;;;350.4792714;351.6182923;351.6182923;351.6182923;351.6182923;351.6182923;351.6182923;351.6182923;351.6182923;None;0;;;C:\2023\REPSWITCH21092023\REPSWITCH_excgange\REPSWITCH_excgange\data/010101_REPSWITCH1_version1_list1_2023-11-10_13h54.48.695_micRespv1l1_recorded\recording_micRespv1l1_2023-11-10_14h00.36.015.wav;354.646513;;None;354.646513;354.646513;354.646513;354.646513;354.646513;354.646513;;;;;;10101;1;2023-11-10_13h54.48.695;REPSWITCH1_version1_list1;2022.2.4;143.9951157;
REPSWITCH1/PICTURE_610.png;miel;type;darkblue;switch;1;T;3;1;1;1;Stim2_Set3;0;None;56;55;56;0;55;55;55;;;;;;;;;;;;;;;;;;;;;;;355.1465809;356.188403;356.188403;356.188403;356.188403;356.188403;356.188403;356.188403;356.188403;['m', 'i', 'e', 'l'];0;[0.9075369000202045, 1.0550360000052024, 1.3054892000218388, 1.4264869000180624];miel;C:\2023\REPSWITCH21092023\REPSWITCH_excgange\REPSWITCH_excgange\data/010101_REPSWITCH1_version1_list1_2023-11-10_13h54.48.695_micRespv1l1_recorded\recording_micRespv1l1_2023-11-10_14h00.40.584.wav;359.2095703;359.7096704;None;359.2095703;359.2095703;359.2095703;359.2095703;359.2095703;359.2095703;;;;;;10101;1;2023-11-10_13h54.48.695;REPSWITCH1_version1_list1;2022.2.4;143.9951157;
REPSWITCH1/PICTURE_175.png;pintor;type;darkblue;filler;1;F;3;1;1;1;Stim1_Set2;1;repeat;57;56;57;0;56;56;56;;;;;;;;;;;;;;;;;;;;;;;359.7096704;360.7792653;360.7792653;360.7792653;360.7792653;360.7792653;360.7792653;360.7792653;360.7792653;['p', 'i', 'n', 't', 'o', 'r'];0;[1.2843343999993522, 1.4852308999979869, 1.6428916000004392, 1.782634400005918, 1.9281493999878876, 2.0397040999960154];pintor;C:\2023\REPSWITCH21092023\REPSWITCH_excgange\REPSWITCH_excgange\data/010101_REPSWITCH1_version1_list1_2023-11-10_13h54.48.695_micRespv1l1_recorded\recording_micRespv1l1_2023-11-10_14h00.45.175.wav;363.8004925;364.3005551;None;363.8004925;363.8004925;363.8004925;363.8004925;363.8004925;363.8004925;;;;;;10101;1;2023-11-10_13h54.48.695;REPSWITCH1_version1_list1;2022.2.4;143.9951157;
REPSWITCH1/PICTURE_242.png;cartero;type;darkblue;nontarget;1;NT;3;1;1;1;Stim3_Set3;1;repeat;58;57;58;0;57;57;57;;;;;;;;;;;;;;;;;;;;;;;364.3005551;365.3770652;365.3770652;365.3770652;365.3770652;365.3770652;365.3770652;365.3770652;365.3770652;['c', 'a', 'r', 't', 'e', 'r', 'o'];0;[1.35660289999214, 1.4503427000017837, 1.6117171999940183, 1.7721857999858912, 1.8700818000070285, 2.047112800006289, 2.1766746999928728];cartero;C:\2023\REPSWITCH21092023\REPSWITCH_excgange\REPSWITCH_excgange\data/010101_REPSWITCH1_version1_list1_2023-11-10_13h54.48.695_micRespv1l1_recorded\recording_micRespv1l1_2023-11-10_14h00.49.774.wav;368.4052324;368.9053272;None;368.4052324;368.4052324;368.4052324;368.4052324;368.4052324;368.4052324;;;;;;10101;1;2023-11-10_13h54.48.695;REPSWITCH1_version1_list1;2022.2.4;143.9951157;
REPSWITCH1/PICTURE_242.png;cartero;speak;gold;switch;2;T;3;1;1;1;Stim3_Set3;0;None;59;58;59;0;58;58;58;;;;;;;;;;;;;;;;;;;;;;;368.9053272;369.9818801;369.9818801;369.9818801;369.9818801;369.9818801;369.9818801;369.9818801;369.9818801;None;0;;;C:\2023\REPSWITCH21092023\REPSWITCH_excgange\REPSWITCH_excgange\data/010101_REPSWITCH1_version1_list1_2023-11-10_13h54.48.695_micRespv1l1_recorded\recording_micRespv1l1_2023-11-10_14h00.54.377.wav;373.0030436;373.5031183;None;373.0030436;373.0030436;373.0030436;373.0030436;373.0030436;373.0030436;;;;;;10101;1;2023-11-10_13h54.48.695;REPSWITCH1_version1_list1;2022.2.4;143.9951157;
REPSWITCH1/PICTURE_152.png;caracol;speak;gold;filler;2;F;3;1;1;1;Stim2_Set2;0;None;60;59;60;0;59;59;59;;;;;;;;;;;;;;;;;;;;;;;373.5031183;374.6005025;374.6005025;374.6005025;374.6005025;374.6005025;374.6005025;374.6005025;374.6005025;None;0;;;C:\2023\REPSWITCH21092023\REPSWITCH_excgange\REPSWITCH_excgange\data/010101_REPSWITCH1_version1_list1_2023-11-10_13h54.48.695_micRespv1l1_recorded\recording_micRespv1l1_2023-11-10_14h00.58.996.wav;377.6217409;378.1218164;None;377.6217409;377.6217409;377.6217409;377.6217409;377.6217409;377.6217409;;;;;;10101;1;2023-11-10_13h54.48.695;REPSWITCH1_version1_list1;2022.2.4;143.9951157;
REPSWITCH1/PICTURE_517.png;cuerda;type;darkblue;filler;1;F;3;1;1;1;Stim4_Set2;0;None;61;60;61;0;60;60;60;;;;;;;;;;;;;;;;;;;;;;;378.1218164;379.3094791;379.3094791;379.3094791;379.3094791;379.3094791;379.3094791;379.3094791;379.3094791;['c', 'u', 'e', 'r', 'd', 'a'];0;[1.054319699993357, 1.2280608000000939, 1.3366276000160724, 1.5200269000197295, 1.7462387999985367, 1.942450500006089];cuerda;C:\2023\REPSWITCH21092023\REPSWITCH_excgange\REPSWITCH_excgange\data/010101_REPSWITCH1_version1_list1_2023-11-10_13h54.48.695_micRespv1l1_recorded\recording_micRespv1l1_2023-11-10_14h01.03.705.wav;382.3306906;382.8308282;None;382.3306906;382.3306906;382.3306906;382.3306906;382.3306906;382.3306906;;;;;;10101;1;2023-11-10_13h54.48.695;REPSWITCH1_version1_list1;2022.2.4;143.9951157;
REPSWITCH1/PICTURE_235.png;aguja;speak;gold;nontarget;2;NT;3;1;1;1;Stim4_Set3;1;switch;62;61;62;0;61;61;61;;;;;;;;;;;;;;;;;;;;;;;382.8308282;383.9350492;383.9350492;383.9350492;383.9350492;383.9350492;383.9350492;383.9350492;383.9350492;None;0;;;C:\2023\REPSWITCH21092023\REPSWITCH_excgange\REPSWITCH_excgange\data/010101_REPSWITCH1_version1_list1_2023-11-10_13h54.48.695_micRespv1l1_recorded\recording_micRespv1l1_2023-11-10_14h01.08.332.wav;386.9632285;;None;386.9632285;386.9632285;386.9632285;386.9632285;386.9632285;386.9632285;;;;;;10101;1;2023-11-10_13h54.48.695;REPSWITCH1_version1_list1;2022.2.4;143.9951157;
REPSWITCH1/PICTURE_235.png;aguja;speak;gold;repeat;2;T;3;1;1;1;Stim4_Set3;0;None;63;62;63;0;62;62;62;;;;;;;;;;;;;;;;;;;;;;;387.4633558;388.6370898;388.6370898;388.6370898;388.6370898;388.6370898;388.6370898;388.6370898;388.6370898;None;0;;;C:\2023\REPSWITCH21092023\REPSWITCH_excgange\REPSWITCH_excgange\data/010101_REPSWITCH1_version1_list1_2023-11-10_13h54.48.695_micRespv1l1_recorded\recording_micRespv1l1_2023-11-10_14h01.13.032.wav;391.658278;392.1583301;None;391.658278;391.658278;391.658278;391.658278;391.658278;391.658278;;;;;;10101;1;2023-11-10_13h54.48.695;REPSWITCH1_version1_list1;2022.2.4;143.9951157;
REPSWITCH1/PICTURE_30.png;granja;type;darkblue;filler;1;F;3;1;1;1;Stim5_Set2;0;None;64;63;64;0;63;63;63;;;;;;;;;;;;;;;;;;;;;;;392.1583301;393.3251791;393.3251791;393.3251791;393.3251791;393.3251791;393.3251791;393.3251791;393.3251791;['g', 'r', 'a', 'n', 'j', 'a'];0;[1.026982000010321, 1.2363375000131782, 1.3358986000239383, 1.602387600025395, 1.7873886000015773, 2.0116487000195775];granja;C:\2023\REPSWITCH21092023\REPSWITCH_excgange\REPSWITCH_excgange\data/010101_REPSWITCH1_version1_list1_2023-11-10_13h54.48.695_micRespv1l1_recorded\recording_micRespv1l1_2023-11-10_14h01.17.721.wav;396.3464077;396.8464806;None;396.3464077;396.3464077;396.3464077;396.3464077;396.3464077;396.3464077;;;;;;10101;1;2023-11-10_13h54.48.695;REPSWITCH1_version1_list1;2022.2.4;143.9951157;
REPSWITCH1/PICTURE_552.png;manzana;speak;gold;filler;2;F;3;1;1;1;Stim6_Set2;1;switch;65;64;65;0;64;64;64;;;;;;;;;;;;;;;;;;;;;;;396.8464806;397.9785703;397.9785703;397.9785703;397.9785703;397.9785703;397.9785703;397.9785703;397.9785703;None;0;;;C:\2023\REPSWITCH21092023\REPSWITCH_excgange\REPSWITCH_excgange\data/010101_REPSWITCH1_version1_list1_2023-11-10_13h54.48.695_micRespv1l1_recorded\recording_micRespv1l1_2023-11-10_14h01.22.375.wav;400.9997798;401.4999427;None;400.9997798;400.9997798;400.9997798;400.9997798;400.9997798;400.9997798;;;;;;10101;1;2023-11-10_13h54.48.695;REPSWITCH1_version1_list1;2022.2.4;143.9951157;
REPSWITCH1/PICTURE_35.png;oreja;speak;gold;nontarget;2;NT;3;1;1;1;Stim5_Set3;1;repeat;66;65;66;0;65;65;65;;;;;;;;;;;;;;;;;;;;;;;401.4999427;402.638914;402.638914;402.638914;402.638914;402.638914;402.638914;402.638914;402.638914;None;0;;;C:\2023\REPSWITCH21092023\REPSWITCH_excgange\REPSWITCH_excgange\data/010101_REPSWITCH1_version1_list1_2023-11-10_13h54.48.695_micRespv1l1_recorded\recording_micRespv1l1_2023-11-10_14h01.27.037.wav;405.6670831;406.1671232;None;405.6670831;405.6670831;405.6670831;405.6670831;405.6670831;405.6670831;;;;;;10101;1;2023-11-10_13h54.48.695;REPSWITCH1_version1_list1;2022.2.4;143.9951157;
REPSWITCH1/PICTURE_35.png;oreja;speak;gold;repeat;2;T;3;1;1;1;Stim5_Set3;0;None;67;66;67;0;66;66;66;;;;;;;;;;;;;;;;;;;;;;;406.1671232;407.2993069;407.2993069;407.2993069;407.2993069;407.2993069;407.2993069;407.2993069;407.2993069;None;0;;;C:\2023\REPSWITCH21092023\REPSWITCH_excgange\REPSWITCH_excgange\data/010101_REPSWITCH1_version1_list1_2023-11-10_13h54.48.695_micRespv1l1_recorded\recording_micRespv1l1_2023-11-10_14h01.31.694.wav;410.3204694;410.8205381;None;410.3204694;410.3204694;410.3204694;410.3204694;410.3204694;410.3204694;;;;;;10101;1;2023-11-10_13h54.48.695;REPSWITCH1_version1_list1;2022.2.4;143.9951157;
REPSWITCH1/PICTURE_673.png;tenedor;type;darkblue;filler;1;F;3;1;1;1;Extra5;0;None;68;67;68;0;67;67;67;;;;;;;;;;;;;;;;;;;;;;;410.8205381;411.8554609;411.8554609;411.8554609;411.8554609;411.8554609;411.8554609;411.8554609;411.8554609;['t', 'e', 'n', 'd', 'e', 'o', 'r'];0;[0.9756815000146162, 1.1187223000160884, 1.331033499998739, 1.5051274000143167, 1.6107366000069305, 2.0100606000050902, 2.120592099992791];tendeor;C:\2023\REPSWITCH21092023\REPSWITCH_excgange\REPSWITCH_excgange\data/010101_REPSWITCH1_version1_list1_2023-11-10_13h54.48.695_micRespv1l1_recorded\recording_micRespv1l1_2023-11-10_14h01.36.253.wav;414.8835737;;None;414.8835737;414.8835737;414.8835737;414.8835737;414.8835737;414.8835737;;;;;;10101;1;2023-11-10_13h54.48.695;REPSWITCH1_version1_list1;2022.2.4;143.9951157;
REPSWITCH1/PICTURE_464.png;goma;speak;gold;nontarget;2;NT;3;1;1;1;Stim6_Set3;0;None;69;68;69;0;68;68;68;;;;;;;;;;;;;;;;;;;;;;;415.3837026;416.4462451;416.4462451;416.4462451;416.4462451;416.4462451;416.4462451;416.4462451;416.4462451;None;0;;;C:\2023\REPSWITCH21092023\REPSWITCH_excgange\REPSWITCH_excgange\data/010101_REPSWITCH1_version1_list1_2023-11-10_13h54.48.695_micRespv1l1_recorded\recording_micRespv1l1_2023-11-10_14h01.40.844.wav;419.474448;419.9744946;None;419.474448;419.474448;419.474448;419.474448;419.474448;419.474448;;;;;;10101;1;2023-11-10_13h54.48.695;REPSWITCH1_version1_list1;2022.2.4;143.9951157;
REPSWITCH1/PICTURE_464.png;goma;type;darkblue;switch;1;T;3;1;1;1;Stim6_Set3;0;None;70;69;70;0;69;69;69;;;;;;;;;;;;;;;;;;;;;;;419.9744946;421.0302094;421.0302094;421.0302094;421.0302094;421.0302094;421.0302094;421.0302094;421.0302094;['g', 'o', 'm', 'a'];0;[1.1229281999985687, 1.243411700008437, 1.4407977999944706, 1.5265086999861524];goma;C:\2023\REPSWITCH21092023\REPSWITCH_excgange\REPSWITCH_excgange\data/010101_REPSWITCH1_version1_list1_2023-11-10_13h54.48.695_micRespv1l1_recorded\recording_micRespv1l1_2023-11-10_14h01.45.425.wav;424.0514364;424.5514875;None;424.0514364;424.0514364;424.0514364;424.0514364;424.0514364;424.0514364;;;;;;10101;1;2023-11-10_13h54.48.695;REPSWITCH1_version1_list1;2022.2.4;143.9951157;
REPSWITCH1/PICTURE_264.png;mano;speak;gold;filler;2;F;3;1;1;1;Stim3_Set2;0;None;71;70;71;0;70;70;70;;;;;;;;;;;;;;;;;;;;;;;424.5514875;425.6071918;425.6071918;425.6071918;425.6071918;425.6071918;425.6071918;425.6071918;425.6071918;None;0;;;C:\2023\REPSWITCH21092023\REPSWITCH_excgange\REPSWITCH_excgange\data/010101_REPSWITCH1_version1_list1_2023-11-10_13h54.48.695_micRespv1l1_recorded\recording_micRespv1l1_2023-11-10_14h01.50.002.wav;428.6284231;429.1284908;None;428.6284231;428.6284231;428.6284231;428.6284231;428.6284231;428.6284231;;;;;;10101;1;2023-11-10_13h54.48.695;REPSWITCH1_version1_list1;2022.2.4;143.9951157;
REPSWITCH1/PICTURE_271.png;conejo;type;darkblue;nontarget;1;NT;3;1;1;1;Stim7_Set3;1;switch;72;71;72;0;71;71;71;;;;;;;;;;;;;;;;;;;;;;;429.1284908;430.3022992;430.3022992;430.3022992;430.3022992;430.3022992;430.3022992;430.3022992;430.3022992;['c', 'o', 'n', 'e', 'j', 'o'];0;[1.0305898000078741, 1.1751550000044517, 1.3565502999990713, 1.4980656999978237, 1.6668735000130255, 1.7595763999852352];conejo;C:\2023\REPSWITCH21092023\REPSWITCH_excgange\REPSWITCH_excgange\data/010101_REPSWITCH1_version1_list1_2023-11-10_13h54.48.695_micRespv1l1_recorded\recording_micRespv1l1_2023-11-10_14h01.54.700.wav;433.3304339;433.8304796;None;433.3304339;433.3304339;433.3304339;433.3304339;433.3304339;433.3304339;;;;;;10101;1;2023-11-10_13h54.48.695;REPSWITCH1_version1_list1;2022.2.4;143.9951157;
REPSWITCH1/PICTURE_271.png;conejo;type;darkblue;repeat;1;T;3;1;1;1;Stim7_Set3;0;None;73;72;73;0;72;72;72;;;;;;;;;;;;;;;;;;;;;;;433.8304796;434.9486802;434.9486802;434.9486802;434.9486802;434.9486802;434.9486802;434.9486802;434.9486802;['c', 'o', 'n', 'e', 'j', 'o'];0;[0.8144423000048846, 0.9443729999766219, 1.1586792999878526, 1.2606760999769904, 1.4413620999839623, 1.540080599981593];conejo;C:\2023\REPSWITCH21092023\REPSWITCH_excgange\REPSWITCH_excgange\data/010101_REPSWITCH1_version1_list1_2023-11-10_13h54.48.695_micRespv1l1_recorded\recording_micRespv1l1_2023-11-10_14h01.59.345.wav;437.9769408;;None;437.9769408;437.9769408;437.9769408;437.9769408;437.9769408;437.9769408;;;;;;10101;1;2023-11-10_13h54.48.695;REPSWITCH1_version1_list1;2022.2.4;143.9951157;
REPSWITCH1/PICTURE_446.png;cerdo;speak;gold;filler;2;F;3;1;1;1;Stim7_Set2;0;None;74;73;74;0;73;73;73;;;;;;;;;;;;;;;;;;;;;;;438.4770025;439.6159883;439.6159883;439.6159883;439.6159883;439.6159883;439.6159883;439.6159883;439.6159883;None;0;;;C:\2023\REPSWITCH21092023\REPSWITCH_excgange\REPSWITCH_excgange\data/010101_REPSWITCH1_version1_list1_2023-11-10_13h54.48.695_micRespv1l1_recorded\recording_micRespv1l1_2023-11-10_14h02.04.012.wav;442.6441242;;None;442.6441242;442.6441242;442.6441242;442.6441242;442.6441242;442.6441242;;;;;;10101;1;2023-11-10_13h54.48.695;REPSWITCH1_version1_list1;2022.2.4;143.9951157;
REPSWITCH1/PICTURE_199.png;falda;type;darkblue;filler;1;F;3;1;1;1;Stim8_Set2;1;switch;75;74;75;0;74;74;74;;;;;;;;;;;;;;;;;;;;;;;443.14418;444.2138087;444.2138087;444.2138087;444.2138087;444.2138087;444.2138087;444.2138087;444.2138087;['f', 'a', 'l', 'd', 'a'];0;[1.1675181000027806, 1.3100368000159506, 1.6346790000097826, 1.7683948000194505, 1.8501179000013508];falda;C:\2023\REPSWITCH21092023\REPSWITCH_excgange\REPSWITCH_excgange\data/010101_REPSWITCH1_version1_list1_2023-11-10_13h54.48.695_micRespv1l1_recorded\recording_micRespv1l1_2023-11-10_14h02.08.609.wav;447.2350998;447.7350831;None;447.2350998;447.2350998;447.2350998;447.2350998;447.2350998;447.2350998;;;;;;10101;1;2023-11-10_13h54.48.695;REPSWITCH1_version1_list1;2022.2.4;143.9951157;
REPSWITCH1/PICTURE_320.png;iglesia;type;darkblue;nontarget;1;NT;3;1;1;1;Stim8_Set3;1;repeat;76;75;76;0;75;75;75;;;;;;;;;;;;;;;;;;;;;;;447.7350831;448.8880358;448.8880358;448.8880358;448.8880358;448.8880358;448.8880358;448.8880358;448.8880358;['i', 'g', 'l', 'e', 's', 'i', 'a'];0;[1.1409541000030003, 1.465823199978331, 1.7721326999890152, 1.8668327999766916, 2.073452999989968, 2.2233475999964867, 2.3499855999834836];iglesia;C:\2023\REPSWITCH21092023\REPSWITCH_excgange\REPSWITCH_excgange\data/010101_REPSWITCH1_version1_list1_2023-11-10_13h54.48.695_micRespv1l1_recorded\recording_micRespv1l1_2023-11-10_14h02.13.286.wav;451.9161758;452.4163005;None;451.9161758;451.9161758;451.9161758;451.9161758;451.9161758;451.9161758;;;;;;10101;1;2023-11-10_13h54.48.695;REPSWITCH1_version1_list1;2022.2.4;143.9951157;
REPSWITCH1/PICTURE_320.png;iglesia;type;darkblue;repeat;1;T;3;1;1;1;Stim8_Set3;0;None;77;76;77;0;76;76;76;;;;;;;;;;;;;;;;;;;;;;;452.4163005;453.5414812;453.5414812;453.5414812;453.5414812;453.5414812;453.5414812;453.5414812;453.5414812;['i', 'g', 'l', 'e', 's', 'i', 'a'];0;[0.8997002999822143, 1.1881266999989748, 1.397460099979071, 1.5080875999992713, 1.7831717999943066, 1.953565699979663, 2.0771887000009883];iglesia;C:\2023\REPSWITCH21092023\REPSWITCH_excgange\REPSWITCH_excgange\data/010101_REPSWITCH1_version1_list1_2023-11-10_13h54.48.695_micRespv1l1_recorded\recording_micRespv1l1_2023-11-10_14h02.17.937.wav;456.5626297;457.062706;None;456.5626297;456.5626297;456.5626297;456.5626297;456.5626297;456.5626297;;;;;;10101;1;2023-11-10_13h54.48.695;REPSWITCH1_version1_list1;2022.2.4;143.9951157;
REPSWITCH1/PICTURE_576.png;guante;speak;gold;filler;2;F;4;1;1;1;Stim1_Set3;0;None;78;77;78;0;77;77;77;;;;;;;;;;;;;;;;;;;;;;;457.062706;458.1392144;458.1392144;458.1392144;458.1392144;458.1392144;458.1392144;458.1392144;458.1392144;None;0;;;C:\2023\REPSWITCH21092023\REPSWITCH_excgange\REPSWITCH_excgange\data/010101_REPSWITCH1_version1_list1_2023-11-10_13h54.48.695_micRespv1l1_recorded\recording_micRespv1l1_2023-11-10_14h02.22.535.wav;461.1604287;461.660529;None;461.1604287;461.1604287;461.1604287;461.1604287;461.1604287;461.1604287;;;;;;10101;1;2023-11-10_13h54.48.695;REPSWITCH1_version1_list1;2022.2.4;143.9951157;
REPSWITCH1/PICTURE_319.png;vaca;type;darkblue;nontarget;1;NT;4;1;1;1;Stim1_Set4;1;switch;79;78;79;0;78;78;78;;;;;;;;;;;;;;;;;;;;;;;461.660529;462.7926931;462.7926931;462.7926931;462.7926931;462.7926931;462.7926931;462.7926931;462.7926931;['v', 'a', 'c', 'a'];0;[1.0898631000018213, 1.2223068000166677, 1.3468774000066333, 1.4578050000127405];vaca;C:\2023\REPSWITCH21092023\REPSWITCH_excgange\REPSWITCH_excgange\data/010101_REPSWITCH1_version1_list1_2023-11-10_13h54.48.695_micRespv1l1_recorded\recording_micRespv1l1_2023-11-10_14h02.27.188.wav;465.8139033;466.3139017;None;465.8139033;465.8139033;465.8139033;465.8139033;465.8139033;465.8139033;;;;;;10101;1;2023-11-10_13h54.48.695;REPSWITCH1_version1_list1;2022.2.4;143.9951157;
REPSWITCH1/PICTURE_319.png;vaca;type;darkblue;repeat;1;T;4;1;1;1;Stim1_Set4;0;None;80;79;80;0;79;79;79;;;;;;;;;;;;;;;;;;;;;;;466.3139017;467.3974043;467.3974043;467.3974043;467.3974043;467.3974043;467.3974043;467.3974043;467.3974043;['v', 'a', 'c', 'a'];0;[0.9132591999950819, 1.067102300003171, 1.2019132999994326, 1.352372800000012];vaca;C:\2023\REPSWITCH21092023\REPSWITCH_excgange\REPSWITCH_excgange\data/010101_REPSWITCH1_version1_list1_2023-11-10_13h54.48.695_micRespv1l1_recorded\recording_micRespv1l1_2023-11-10_14h02.31.794.wav;470.4255692;;None;470.4255692;470.4255692;470.4255692;470.4255692;470.4255692;470.4255692;;;;;;10101;1;2023-11-10_13h54.48.695;REPSWITCH1_version1_list1;2022.2.4;143.9951157;
REPSWITCH1/PICTURE_719.png;baño;type;darkblue;nontarget;1;NT;4;1;1;1;Stim2_Set4;0;None;81;80;81;0;80;80;80;;;;;;;;;;;;;;;;;;;;;;;470.9256336;472.0299392;472.0299392;472.0299392;472.0299392;472.0299392;472.0299392;472.0299392;472.0299392;['b', 'a', 'ñ', 'o'];0;[0.9747752000112087, 1.1876116000057664, 1.8458399999944959, 2.0930267999938224];baño;C:\2023\REPSWITCH21092023\REPSWITCH_excgange\REPSWITCH_excgange\data/010101_REPSWITCH1_version1_list1_2023-11-10_13h54.48.695_micRespv1l1_recorded\recording_micRespv1l1_2023-11-10_14h02.36.425.wav;475.0511809;475.5512024;None;475.0511809;475.0511809;475.0511809;475.0511809;475.0511809;475.0511809;;;;;;10101;1;2023-11-10_13h54.48.695;REPSWITCH1_version1_list1;2022.2.4;143.9951157;
REPSWITCH1/PICTURE_719.png;baño;speak;gold;switch;2;T;4;1;1;1;Stim2_Set4;0;None;82;81;82;0;81;81;81;;;;;;;;;;;;;;;;;;;;;;;475.5512024;476.6347047;476.6347047;476.6347047;476.6347047;476.6347047;476.6347047;476.6347047;476.6347047;None;0;;;C:\2023\REPSWITCH21092023\REPSWITCH_excgange\REPSWITCH_excgange\data/010101_REPSWITCH1_version1_list1_2023-11-10_13h54.48.695_micRespv1l1_recorded\recording_micRespv1l1_2023-11-10_14h02.41.030.wav;479.6559582;480.1560092;None;479.6559582;479.6559582;479.6559582;479.6559582;479.6559582;479.6559582;;;;;;10101;1;2023-11-10_13h54.48.695;REPSWITCH1_version1_list1;2022.2.4;143.9951157;
REPSWITCH1/PICTURE_242.png;cartero;speak;gold;filler;2;F;4;1;1;1;Stim3_Set3;1;repeat;83;82;83;0;82;82;82;;;;;;;;;;;;;;;;;;;;;;;480.1560092;481.3506074;481.3506074;481.3506074;481.3506074;481.3506074;481.3506074;481.3506074;481.3506074;None;0;;;C:\2023\REPSWITCH21092023\REPSWITCH_excgange\REPSWITCH_excgange\data/010101_REPSWITCH1_version1_list1_2023-11-10_13h54.48.695_micRespv1l1_recorded\recording_micRespv1l1_2023-11-10_14h02.45.746.wav;484.371918;484.8719702;None;484.371918;484.371918;484.371918;484.371918;484.371918;484.371918;;;;;;10101;1;2023-11-10_13h54.48.695;REPSWITCH1_version1_list1;2022.2.4;143.9951157;
REPSWITCH1/PICTURE_610.png;miel;type;darkblue;filler;1;F;4;1;1;1;Stim2_Set3;0;None;84;83;84;0;83;83;83;;;;;;;;;;;;;;;;;;;;;;;484.8719702;486.0178818;486.0178818;486.0178818;486.0178818;486.0178818;486.0178818;486.0178818;486.0178818;['m', 'i', 'e', 'l'];0;[0.9076241000148002, 1.076012300007278, 1.2135925000184216, 1.368073200021172];miel;C:\2023\REPSWITCH21092023\REPSWITCH_excgange\REPSWITCH_excgange\data/010101_REPSWITCH1_version1_list1_2023-11-10_13h54.48.695_micRespv1l1_recorded\recording_micRespv1l1_2023-11-10_14h02.50.414.wav;489.0390807;489.5391622;None;489.0390807;489.0390807;489.0390807;489.0390807;489.0390807;489.0390807;;;;;;10101;1;2023-11-10_13h54.48.695;REPSWITCH1_version1_list1;2022.2.4;143.9951157;
REPSWITCH1/PICTURE_8.png;pierna;speak;gold;nontarget;2;NT;4;1;1;1;Stim3_Set4;1;switch;85;84;85;0;84;84;84;;;;;;;;;;;;;;;;;;;;;;;489.5391622;490.6227464;490.6227464;490.6227464;490.6227464;490.6227464;490.6227464;490.6227464;490.6227464;None;0;;;C:\2023\REPSWITCH21092023\REPSWITCH_excgange\REPSWITCH_excgange\data/010101_REPSWITCH1_version1_list1_2023-11-10_13h54.48.695_micRespv1l1_recorded\recording_micRespv1l1_2023-11-10_14h02.55.018.wav;493.643891;494.1439575;None;493.643891;493.643891;493.643891;493.643891;493.643891;493.643891;;;;;;10101;1;2023-11-10_13h54.48.695;REPSWITCH1_version1_list1;2022.2.4;143.9951157;
REPSWITCH1/PICTURE_8.png;pierna;speak;gold;repeat;2;T;4;1;1;1;Stim3_Set4;0;None;86;85;86;0;85;85;85;;;;;;;;;;;;;;;;;;;;;;;494.1439575;495.2135303;495.2135303;495.2135303;495.2135303;495.2135303;495.2135303;495.2135303;495.2135303;None;0;;;C:\2023\REPSWITCH21092023\REPSWITCH_excgange\REPSWITCH_excgange\data/010101_REPSWITCH1_version1_list1_2023-11-10_13h54.48.695_micRespv1l1_recorded\recording_micRespv1l1_2023-11-10_14h02.59.609.wav;498.234844;498.734828;None;498.234844;498.234844;498.234844;498.234844;498.234844;498.234844;;;;;;10101;1;2023-11-10_13h54.48.695;REPSWITCH1_version1_list1;2022.2.4;143.9951157;
REPSWITCH1/PICTURE_498.png;taza;speak;gold;nontarget;2;NT;4;1;1;1;Stim4_Set4;1;repeat;87;86;87;0;86;86;86;;;;;;;;;;;;;;;;;;;;;;;498.734828;499.8044645;499.8044645;499.8044645;499.8044645;499.8044645;499.8044645;499.8044645;499.8044645;None;0;;;C:\2023\REPSWITCH21092023\REPSWITCH_excgange\REPSWITCH_excgange\data/010101_REPSWITCH1_version1_list1_2023-11-10_13h54.48.695_micRespv1l1_recorded\recording_micRespv1l1_2023-11-10_14h03.04.200.wav;502.8256129;503.3257156;None;502.8256129;502.8256129;502.8256129;502.8256129;502.8256129;502.8256129;;;;;;10101;1;2023-11-10_13h54.48.695;REPSWITCH1_version1_list1;2022.2.4;143.9951157;
REPSWITCH1/PICTURE_498.png;taza;type;darkblue;switch;1;T;4;1;1;1;Stim4_Set4;0;None;88;87;88;0;87;87;87;;;;;;;;;;;;;;;;;;;;;;;503.3257156;504.4231011;504.4231011;504.4231011;504.4231011;504.4231011;504.4231011;504.4231011;504.4231011;['t', 'a', 'z', 'a'];0;[1.128629800019553, 1.268130700016627, 1.5260584000207018, 1.6584708000009414];taza;C:\2023\REPSWITCH21092023\REPSWITCH_excgange\REPSWITCH_excgange\data/010101_REPSWITCH1_version1_list1_2023-11-10_13h54.48.695_micRespv1l1_recorded\recording_micRespv1l1_2023-11-10_14h03.08.818.wav;507.4442733;507.9443745;None;507.4442733;507.4442733;507.4442733;507.4442733;507.4442733;507.4442733;;;;;;10101;1;2023-11-10_13h54.48.695;REPSWITCH1_version1_list1;2022.2.4;143.9951157;
REPSWITCH1/PICTURE_235.png;aguja;speak;gold;filler;2;F;4;1;1;1;Stim4_Set3;0;None;89;88;89;0;88;88;88;;;;;;;;;;;;;;;;;;;;;;;507.9443745;509.0418105;509.0418105;509.0418105;509.0418105;509.0418105;509.0418105;509.0418105;509.0418105;None;0;;;C:\2023\REPSWITCH21092023\REPSWITCH_excgange\REPSWITCH_excgange\data/010101_REPSWITCH1_version1_list1_2023-11-10_13h54.48.695_micRespv1l1_recorded\recording_micRespv1l1_2023-11-10_14h03.13.437.wav;512.0630118;512.5630158;None;512.0630118;512.0630118;512.0630118;512.0630118;512.0630118;512.0630118;;;;;;10101;1;2023-11-10_13h54.48.695;REPSWITCH1_version1_list1;2022.2.4;143.9951157;
REPSWITCH1/PICTURE_35.png;oreja;type;darkblue;filler;1;F;4;1;1;1;Stim5_Set3;0;None;90;89;90;0;89;89;89;;;;;;;;;;;;;;;;;;;;;;;512.5630158;513.688167;513.688167;513.688167;513.688167;513.688167;513.688167;513.688167;513.688167;['o', 'r', 'e', 'j', 'a'];0;[1.2334886000026017, 1.4477679000119679, 1.4886438000248745, 1.698652300023241, 1.8062429999990854];oreja;C:\2023\REPSWITCH21092023\REPSWITCH_excgange\REPSWITCH_excgange\data/010101_REPSWITCH1_version1_list1_2023-11-10_13h54.48.695_micRespv1l1_recorded\recording_micRespv1l1_2023-11-10_14h03.18.084.wav;516.7094123;517.2094745;None;516.7094123;516.7094123;516.7094123;516.7094123;516.7094123;516.7094123;;;;;;10101;1;2023-11-10_13h54.48.695;REPSWITCH1_version1_list1;2022.2.4;143.9951157;
REPSWITCH1/PICTURE_687.png;camisa;type;darkblue;nontarget;1;NT;4;1;1;1;Stim5_Set4;1;repeat;91;90;91;0;90;90;90;;;;;;;;;;;;;;;;;;;;;;;517.2094745;518.3069138;518.3069138;518.3069138;518.3069138;518.3069138;518.3069138;518.3069138;518.3069138;['c', 'a', 'm', 'i', 's', 'a'];0;[1.1169621000008192, 1.1757665000041015, 1.384065999998711, 1.453823599993484, 1.6242588000022806, 1.688011100020958];camisa;C:\2023\REPSWITCH21092023\REPSWITCH_excgange\REPSWITCH_excgange\data/010101_REPSWITCH1_version1_list1_2023-11-10_13h54.48.695_micRespv1l1_recorded\recording_micRespv1l1_2023-11-10_14h03.22.702.wav;521.3280436;521.8281142;None;521.3280436;521.3280436;521.3280436;521.3280436;521.3280436;521.3280436;;;;;;10101;1;2023-11-10_13h54.48.695;REPSWITCH1_version1_list1;2022.2.4;143.9951157;
REPSWITCH1/PICTURE_687.png;camisa;speak;gold;switch;2;T;4;1;1;1;Stim5_Set4;0;None;92;91;92;0;91;91;91;;;;;;;;;;;;;;;;;;;;;;;521.8281142;522.9394529;522.9394529;522.9394529;522.9394529;522.9394529;522.9394529;522.9394529;522.9394529;None;0;;;C:\2023\REPSWITCH21092023\REPSWITCH_excgange\REPSWITCH_excgange\data/010101_REPSWITCH1_version1_list1_2023-11-10_13h54.48.695_micRespv1l1_recorded\recording_micRespv1l1_2023-11-10_14h03.27.335.wav;525.960629;526.4606921;None;525.960629;525.960629;525.960629;525.960629;525.960629;525.960629;;;;;;10101;1;2023-11-10_13h54.48.695;REPSWITCH1_version1_list1;2022.2.4;143.9951157;
REPSWITCH1/PICTURE_338.png;regalo;speak;gold;nontarget;2;NT;4;1;1;1;Stim6_Set4;0;None;93;92;93;0;92;92;92;;;;;;;;;;;;;;;;;;;;;;;526.4606921;527.5233487;527.5233487;527.5233487;527.5233487;527.5233487;527.5233487;527.5233487;527.5233487;None;0;;;C:\2023\REPSWITCH21092023\REPSWITCH_excgange\REPSWITCH_excgange\data/010101_REPSWITCH1_version1_list1_2023-11-10_13h54.48.695_micRespv1l1_recorded\recording_micRespv1l1_2023-11-10_14h03.31.919.wav;530.5445593;531.0446111;None;530.5445593;530.5445593;530.5445593;530.5445593;530.5445593;530.5445593;;;;;;10101;1;2023-11-10_13h54.48.695;REPSWITCH1_version1_list1;2022.2.4;143.9951157;
REPSWITCH1/PICTURE_338.png;regalo;speak;gold;repeat;2;T;4;1;1;1;Stim6_Set4;0;None;94;93;94;0;93;93;93;;;;;;;;;;;;;;;;;;;;;;;531.0446111;532.1350671;532.1350671;532.1350671;532.1350671;532.1350671;532.1350671;532.1350671;532.1350671;None;0;;;C:\2023\REPSWITCH21092023\REPSWITCH_excgange\REPSWITCH_excgange\data/010101_REPSWITCH1_version1_list1_2023-11-10_13h54.48.695_micRespv1l1_recorded\recording_micRespv1l1_2023-11-10_14h03.36.531.wav;535.156308;535.6563845;None;535.156308;535.156308;535.156308;535.156308;535.156308;535.156308;;;;;;10101;1;2023-11-10_13h54.48.695;REPSWITCH1_version1_list1;2022.2.4;143.9951157;
REPSWITCH1/PICTURE_663.png;columna;type;darkblue;filler;1;F;4;1;1;1;Extra6;0;None;95;94;95;0;94;94;94;;;;;;;;;;;;;;;;;;;;;;;535.6563845;536.7884058;536.7884058;536.7884058;536.7884058;536.7884058;536.7884058;536.7884058;536.7884058;['c', 'o', 'l', 'u', 'm', 'n', 'a'];0;[1.6220009999815375, 1.787439199979417, 2.014638199994806, 2.2161882999935187, 2.4243884999887086, 2.6038215000007767, 2.766339199995855];columna;C:\2023\REPSWITCH21092023\REPSWITCH_excgange\REPSWITCH_excgange\data/010101_REPSWITCH1_version1_list1_2023-11-10_13h54.48.695_micRespv1l1_recorded\recording_micRespv1l1_2023-11-10_14h03.41.185.wav;539.8166572;;None;539.8166572;539.8166572;539.8166572;539.8166572;539.8166572;539.8166572;;;;;;10101;1;2023-11-10_13h54.48.695;REPSWITCH1_version1_list1;2022.2.4;143.9951157;
REPSWITCH1/PICTURE_271.png;conejo;speak;gold;filler;2;F;4;1;1;1;Stim7_Set3;0;None;96;95;96;0;95;95;95;;;;;;;;;;;;;;;;;;;;;;;540.316675;541.4210873;541.4210873;541.4210873;541.4210873;541.4210873;541.4210873;541.4210873;541.4210873;None;0;;;C:\2023\REPSWITCH21092023\REPSWITCH_excgange\REPSWITCH_excgange\data/010101_REPSWITCH1_version1_list1_2023-11-10_13h54.48.695_micRespv1l1_recorded\recording_micRespv1l1_2023-11-10_14h03.45.817.wav;544.4421904;544.9422552;None;544.4421904;544.4421904;544.4421904;544.4421904;544.4421904;544.4421904;;;;;;10101;1;2023-11-10_13h54.48.695;REPSWITCH1_version1_list1;2022.2.4;143.9951157;
REPSWITCH1/PICTURE_48.png;bombero;speak;gold;nontarget;2;NT;4;1;1;1;Stim7_Set4;0;None;97;96;97;0;96;96;96;;;;;;;;;;;;;;;;;;;;;;;544.9422552;545.9979578;545.9979578;545.9979578;545.9979578;545.9979578;545.9979578;545.9979578;545.9979578;None;0;;;C:\2023\REPSWITCH21092023\REPSWITCH_excgange\REPSWITCH_excgange\data/010101_REPSWITCH1_version1_list1_2023-11-10_13h54.48.695_micRespv1l1_recorded\recording_micRespv1l1_2023-11-10_14h03.50.393.wav;549.0192008;549.5192442;None;549.0192008;549.0192008;549.0192008;549.0192008;549.0192008;549.0192008;;;;;;10101;1;2023-11-10_13h54.48.695;REPSWITCH1_version1_list1;2022.2.4;143.9951157;
REPSWITCH1/PICTURE_48.png;bombero;type;darkblue;switch;1;T;4;1;1;1;Stim7_Set4;0;None;98;97;98;0;97;97;97;;;;;;;;;;;;;;;;;;;;;;;549.5192442;550.5332794;550.5332794;550.5332794;550.5332794;550.5332794;550.5332794;550.5332794;550.5332794;['b', 'o', 'm', 'b', 'e', 'r', 'o'];0;[1.1714234999963082, 1.2979680999997072, 1.4874367000011262, 1.59500040000421, 1.7547142999828793, 1.9749885999772232, 2.12973939999938];bombero;C:\2023\REPSWITCH21092023\REPSWITCH_excgange\REPSWITCH_excgange\data/010101_REPSWITCH1_version1_list1_2023-11-10_13h54.48.695_micRespv1l1_recorded\recording_micRespv1l1_2023-11-10_14h03.54.929.wav;553.5614475;;None;553.5614475;553.5614475;553.5614475;553.5614475;553.5614475;553.5614475;;;;;;10101;1;2023-11-10_13h54.48.695;REPSWITCH1_version1_list1;2022.2.4;143.9951157;
REPSWITCH1/PICTURE_728.png;pulpo;type;darkblue;nontarget;1;NT;4;1;1;1;Stim8_Set4;0;None;99;98;99;0;98;98;98;;;;;;;;;;;;;;;;;;;;;;;554.0615302;555.2283526;555.2283526;555.2283526;555.2283526;555.2283526;555.2283526;555.2283526;555.2283526;['p', 'u', 'l', 'p', 'o'];0;[0.9536843000096269, 1.2436901000037324, 1.4849986000044737, 1.6813030000193976, 1.8578120000020135];pulpo;C:\2023\REPSWITCH21092023\REPSWITCH_excgange\REPSWITCH_excgange\data/010101_REPSWITCH1_version1_list1_2023-11-10_13h54.48.695_micRespv1l1_recorded\recording_micRespv1l1_2023-11-10_14h03.59.624.wav;558.2495848;558.7496271;None;558.2495848;558.2495848;558.2495848;558.2495848;558.2495848;558.2495848;;;;;;10101;1;2023-11-10_13h54.48.695;REPSWITCH1_version1_list1;2022.2.4;143.9951157;
REPSWITCH1/PICTURE_728.png;pulpo;type;darkblue;repeat;1;T;4;1;1;1;Stim8_Set4;0;None;100;99;100;0;99;99;99;;;;;;;;;;;;;;;;;;;;;;;558.7496271;559.8470352;559.8470352;559.8470352;559.8470352;559.8470352;559.8470352;559.8470352;559.8470352;['o', 'u', 'l', 'p', 'o'];0;[0.8870504999940749, 1.1940171000023838, 1.4649459999927785, 1.654240400006529, 1.8455232999986038];oulpo;C:\2023\REPSWITCH21092023\REPSWITCH_excgange\REPSWITCH_excgange\data/010101_REPSWITCH1_version1_list1_2023-11-10_13h54.48.695_micRespv1l1_recorded\recording_micRespv1l1_2023-11-10_14h04.04.242.wav;562.8682117;563.3682793;None;562.8682117;562.8682117;562.8682117;562.8682117;562.8682117;562.8682117;;;;;;10101;1;2023-11-10_13h54.48.695;REPSWITCH1_version1_list1;2022.2.4;143.9951157;
REPSWITCH1/PICTURE_320.png;iglesia;speak;gold;filler;1;F;4;1;1;1;Stim8_Set3;0;None;101;100;101;0;100;100;100;;;;;;;;;;;;;;;;;;;;;;;563.3682793;564.4587569;564.4587569;564.4587569;564.4587569;564.4587569;564.4587569;564.4587569;564.4587569;None;0;;;C:\2023\REPSWITCH21092023\REPSWITCH_excgange\REPSWITCH_excgange\data/010101_REPSWITCH1_version1_list1_2023-11-10_13h54.48.695_micRespv1l1_recorded\recording_micRespv1l1_2023-11-10_14h04.08.855.wav;567.4800165;567.980017;None;567.4800165;567.4800165;567.4800165;567.4800165;567.4800165;567.4800165;;;;;;10101;1;2023-11-10_13h54.48.695;REPSWITCH1_version1_list1;2022.2.4;143.9951157;
REPSWITCH1/PICTURE_464.png;goma;type;darkblue;filler;1;F;4;1;1;1;Stim6_Set3;0;None;102;101;102;0;101;101;101;;;;;;;;;;;;;;;;;;;;;;;567.980017;569.1538531;569.1538531;569.1538531;569.1538531;569.1538531;569.1538531;569.1538531;569.1538531;['g', 'o', 'm', 'a'];0;[1.4031998999998905, 1.537773499992909, 1.714153200009605, 1.8458886000153143];goma;C:\2023\REPSWITCH21092023\REPSWITCH_excgange\REPSWITCH_excgange\data/010101_REPSWITCH1_version1_list1_2023-11-10_13h54.48.695_micRespv1l1_recorded\recording_micRespv1l1_2023-11-10_14h04.13.550.wav;572.1750163;572.6750431;space;572.1750163;572.1750163;572.1750163;572.1750163;572.1750163;572.1750163;572.6750431;572.6750431;15.7420684;;;10101;1;2023-11-10_13h54.48.695;REPSWITCH1_version1_list1;2022.2.4;143.9951157;
REPSWITCH1/PICTURE_663.png;columna;type;darkblue;filler;1;F;1;2;1;1;Extra6;0;None;103;102;1;0;102;102;102;;;;;;;;;;;;;;;;;;;;;;;588.4271025;589.5106249;589.5106249;589.5106249;589.5106249;589.5106249;589.5106249;589.5106249;589.5106249;['c', 'o', 'l', 'u', 'm', 'n', 'a'];0;[1.0919016000116244, 1.240400899987435, 1.727053899987368, 1.9751827000000048, 2.172530400013784, 2.3519527000025846, 2.459563000011258];columna;C:\2023\REPSWITCH21092023\REPSWITCH_excgange\REPSWITCH_excgange\data/010101_REPSWITCH1_version1_list1_2023-11-10_13h54.48.695_micRespv1l1_recorded\recording_micRespv1l1_2023-11-10_14h04.33.906.wav;592.5319161;593.0318972;None;592.5319161;592.5319161;592.5319161;592.5319161;592.5319161;592.5319161;;;;;;10101;1;2023-11-10_13h54.48.695;REPSWITCH1_version1_list1;2022.2.4;143.9951157;
REPSWITCH1/PICTURE_128.png;muñeca;speak;gold;nontarget;2;NT;1;2;1;1;Stim4_Set1;1;switch;104;103;2;0;103;103;103;;;;;;;;;;;;;;;;;;;;;;;593.0318972;594.1709355;594.1709355;594.1709355;594.1709355;594.1709355;594.1709355;594.1709355;594.1709355;None;0;;;C:\2023\REPSWITCH21092023\REPSWITCH_excgange\REPSWITCH_excgange\data/010101_REPSWITCH1_version1_list1_2023-11-10_13h54.48.695_micRespv1l1_recorded\recording_micRespv1l1_2023-11-10_14h04.38.567.wav;597.1991005;;None;597.1991005;597.1991005;597.1991005;597.1991005;597.1991005;597.1991005;;;;;;10101;1;2023-11-10_13h54.48.695;REPSWITCH1_version1_list1;2022.2.4;143.9951157;
REPSWITCH1/PICTURE_128.png;muñeca;speak;gold;repeat;2;T;1;2;1;1;Stim4_Set1;0;None;105;104;3;0;104;104;104;;;;;;;;;;;;;;;;;;;;;;;597.6991707;598.8244058;598.8244058;598.8244058;598.8244058;598.8244058;598.8244058;598.8244058;598.8244058;None;0;;;C:\2023\REPSWITCH21092023\REPSWITCH_excgange\REPSWITCH_excgange\data/010101_REPSWITCH1_version1_list1_2023-11-10_13h54.48.695_micRespv1l1_recorded\recording_micRespv1l1_2023-11-10_14h04.43.221.wav;601.8525136;;None;601.8525136;601.8525136;601.8525136;601.8525136;601.8525136;601.8525136;;;;;;10101;1;2023-11-10_13h54.48.695;REPSWITCH1_version1_list1;2022.2.4;143.9951157;
REPSWITCH1/PICTURE_8.png;pierna;type;darkblue;filler;1;F;1;2;1;1;Stim3_Set4;0;None;106;105;4;0;105;105;105;;;;;;;;;;;;;;;;;;;;;;;602.3526054;603.4430305;603.4430305;603.4430305;603.4430305;603.4430305;603.4430305;603.4430305;603.4430305;['p', 'i', 'e', 'r', 'n', 'a'];0;[1.2335439000162296, 1.4956660000025295, 1.6531091000069864, 1.857453800010262, 2.0354637000127696, 2.2029416000004858];pierna;C:\2023\REPSWITCH21092023\REPSWITCH_excgange\REPSWITCH_excgange\data/010101_REPSWITCH1_version1_list1_2023-11-10_13h54.48.695_micRespv1l1_recorded\recording_micRespv1l1_2023-11-10_14h04.47.838.wav;606.4642057;606.9642874;None;606.4642057;606.4642057;606.4642057;606.4642057;606.4642057;606.4642057;;;;;;10101;1;2023-11-10_13h54.48.695;REPSWITCH1_version1_list1;2022.2.4;143.9951157;
REPSWITCH1/PICTURE_135.png;traje;speak;gold;nontarget;2;NT;1;2;1;1;Stim3_Set1;1;switch;107;106;5;0;106;106;106;;;;;;;;;;;;;;;;;;;;;;;606.9642874;607.9853257;607.9853257;607.9853257;607.9853257;607.9853257;607.9853257;607.9853257;607.9853257;None;0;;;C:\2023\REPSWITCH21092023\REPSWITCH_excgange\REPSWITCH_excgange\data/010101_REPSWITCH1_version1_list1_2023-11-10_13h54.48.695_micRespv1l1_recorded\recording_micRespv1l1_2023-11-10_14h04.52.381.wav;611.0065303;611.5065423;None;611.0065303;611.0065303;611.0065303;611.0065303;611.0065303;611.0065303;;;;;;10101;1;2023-11-10_13h54.48.695;REPSWITCH1_version1_list1;2022.2.4;143.9951157;
REPSWITCH1/PICTURE_135.png;traje;speak;gold;repeat;2;T;1;2;1;1;Stim3_Set1;0;None;108;107;6;0;107;107;107;;;;;;;;;;;;;;;;;;;;;;;611.5065423;612.6039189;612.6039189;612.6039189;612.6039189;612.6039189;612.6039189;612.6039189;612.6039189;None;0;;;C:\2023\REPSWITCH21092023\REPSWITCH_excgange\REPSWITCH_excgange\data/010101_REPSWITCH1_version1_list1_2023-11-10_13h54.48.695_micRespv1l1_recorded\recording_micRespv1l1_2023-11-10_14h04.56.999.wav;615.6251306;616.1251936;None;615.6251306;615.6251306;615.6251306;615.6251306;615.6251306;615.6251306;;;;;;10101;1;2023-11-10_13h54.48.695;REPSWITCH1_version1_list1;2022.2.4;143.9951157;
REPSWITCH1/PICTURE_673.png;tenedor;type;darkblue;filler;1;F;1;2;1;1;Extra5;0;None;109;108;7;0;108;108;108;;;;;;;;;;;;;;;;;;;;;;;616.1251936;617.2295162;617.2295162;617.2295162;617.2295162;617.2295162;617.2295162;617.2295162;617.2295162;['t', 'e', 'n', 'e', 'd', 'o', 'r'];0;[0.981012100004591, 1.139444700005697, 1.364190399996005, 1.496753199986415, 1.7594351999869104, 1.9696264000085648, 2.0913105999934487];tenedor;C:\2023\REPSWITCH21092023\REPSWITCH_excgange\REPSWITCH_excgange\data/010101_REPSWITCH1_version1_list1_2023-11-10_13h54.48.695_micRespv1l1_recorded\recording_micRespv1l1_2023-11-10_14h05.01.625.wav;620.2507604;620.750799;None;620.2507604;620.2507604;620.2507604;620.2507604;620.2507604;620.2507604;;;;;;10101;1;2023-11-10_13h54.48.695;REPSWITCH1_version1_list1;2022.2.4;143.9951157;
REPSWITCH1/PICTURE_728.png;pulpo;speak;gold;filler;2;F;1;2;1;1;Stim8_Set4;0;None;110;109;8;0;109;109;109;;;;;;;;;;;;;;;;;;;;;;;620.750799;621.8413078;621.8413078;621.8413078;621.8413078;621.8413078;621.8413078;621.8413078;621.8413078;None;0;;;C:\2023\REPSWITCH21092023\REPSWITCH_excgange\REPSWITCH_excgange\data/010101_REPSWITCH1_version1_list1_2023-11-10_13h54.48.695_micRespv1l1_recorded\recording_micRespv1l1_2023-11-10_14h05.06.237.wav;624.8624786;625.3625058;None;624.8624786;624.8624786;624.8624786;624.8624786;624.8624786;624.8624786;;;;;;10101;1;2023-11-10_13h54.48.695;REPSWITCH1_version1_list1;2022.2.4;143.9951157;
REPSWITCH1/PICTURE_16.png;cazador;speak;gold;nontarget;2;NT;1;2;1;1;Stim6_Set1;1;repeat;111;110;9;0;110;110;110;;;;;;;;;;;;;;;;;;;;;;;625.3625058;626.4251712;626.4251712;626.4251712;626.4251712;626.4251712;626.4251712;626.4251712;626.4251712;None;0;;;C:\2023\REPSWITCH21092023\REPSWITCH_excgange\REPSWITCH_excgange\data/010101_REPSWITCH1_version1_list1_2023-11-10_13h54.48.695_micRespv1l1_recorded\recording_micRespv1l1_2023-11-10_14h05.10.821.wav;629.4464011;629.9464732;None;629.4464011;629.4464011;629.4464011;629.4464011;629.4464011;629.4464011;;;;;;10101;1;2023-11-10_13h54.48.695;REPSWITCH1_version1_list1;2022.2.4;143.9951157;
REPSWITCH1/PICTURE_16.png;cazador;type;darkblue;switch;1;T;1;2;1;1;Stim6_Set1;0;None;112;111;10;0;111;111;111;;;;;;;;;;;;;;;;;;;;;;;629.9464732;630.960476;630.960476;630.960476;630.960476;630.960476;630.960476;630.960476;630.960476;['c', 'a', 'z', 'a', 'd', 'o', 'r'];0;[1.2132066000194754, 1.351165600004606, 1.5859363000199664, 1.6825723000220023, 1.9179761000268627, 2.0645602000295185, 2.2129805000149645];cazador;C:\2023\REPSWITCH21092023\REPSWITCH_excgange\REPSWITCH_excgange\data/010101_REPSWITCH1_version1_list1_2023-11-10_13h54.48.695_micRespv1l1_recorded\recording_micRespv1l1_2023-11-10_14h05.15.357.wav;633.9886903;;None;633.9886903;633.9886903;633.9886903;633.9886903;633.9886903;633.9886903;;;;;;10101;1;2023-11-10_13h54.48.695;REPSWITCH1_version1_list1;2022.2.4;143.9951157;
REPSWITCH1/PICTURE_498.png;taza;type;darkblue;filler;1;F;1;2;1;1;Stim4_Set4;1;repeat;113;112;11;0;112;112;112;;;;;;;;;;;;;;;;;;;;;;;634.4887196;635.6208941;635.6208941;635.6208941;635.6208941;635.6208941;635.6208941;635.6208941;635.6208941;['t', 'a', 'z', 'a'];0;[0.9451738999923691, 1.0660100000095554, 1.2924735999840777, 1.4987781000090763];taza;C:\2023\REPSWITCH21092023\REPSWITCH_excgange\REPSWITCH_excgange\data/010101_REPSWITCH1_version1_list1_2023-11-10_13h54.48.695_micRespv1l1_recorded\recording_micRespv1l1_2023-11-10_14h05.20.017.wav;638.6420361;639.1421683;None;638.6420361;638.6420361;638.6420361;638.6420361;638.6420361;638.6420361;;;;;;10101;1;2023-11-10_13h54.48.695;REPSWITCH1_version1_list1;2022.2.4;143.9951157;
REPSWITCH1/PICTURE_381.png;fresa;type;darkblue;nontarget;1;NT;1;2;1;1;Stim2_Set1;1;repeat;114;113;12;0;113;113;113;;;;;;;;;;;;;;;;;;;;;;;639.1421683;640.2186985;640.2186985;640.2186985;640.2186985;640.2186985;640.2186985;640.2186985;640.2186985;['f', 'r', 'e', 's', 'a'];0;[1.0868194000213407, 1.2662144000059925, 1.3658660000073723, 1.5960703000018839, 1.7509521000029054];fresa;C:\2023\REPSWITCH21092023\REPSWITCH_excgange\REPSWITCH_excgange\data/010101_REPSWITCH1_version1_list1_2023-11-10_13h54.48.695_micRespv1l1_recorded\recording_micRespv1l1_2023-11-10_14h05.24.615.wav;643.246888;;None;643.246888;643.246888;643.246888;643.246888;643.246888;643.246888;;;;;;10101;1;2023-11-10_13h54.48.695;REPSWITCH1_version1_list1;2022.2.4;143.9951157;
REPSWITCH1/PICTURE_381.png;fresa;speak;gold;switch;2;T;1;2;1;1;Stim2_Set1;0;None;115;114;13;0;114;114;114;;;;;;;;;;;;;;;;;;;;;;;643.7468967;644.8026067;644.8026067;644.8026067;644.8026067;644.8026067;644.8026067;644.8026067;644.8026067;None;0;;;C:\2023\REPSWITCH21092023\REPSWITCH_excgange\REPSWITCH_excgange\data/010101_REPSWITCH1_version1_list1_2023-11-10_13h54.48.695_micRespv1l1_recorded\recording_micRespv1l1_2023-11-10_14h05.29.198.wav;647.8238221;648.3238857;None;647.8238221;647.8238221;647.8238221;647.8238221;647.8238221;647.8238221;;;;;;10101;1;2023-11-10_13h54.48.695;REPSWITCH1_version1_list1;2022.2.4;143.9951157;
REPSWITCH1/PICTURE_178.png;puente;speak;gold;nontarget;2;NT;1;2;1;1;Stim1_Set1;0;None;116;115;14;0;115;115;115;;;;;;;;;;;;;;;;;;;;;;;648.3238857;649.4212562;649.4212562;649.4212562;649.4212562;649.4212562;649.4212562;649.4212562;649.4212562;None;0;;;C:\2023\REPSWITCH21092023\REPSWITCH_excgange\REPSWITCH_excgange\data/010101_REPSWITCH1_version1_list1_2023-11-10_13h54.48.695_micRespv1l1_recorded\recording_micRespv1l1_2023-11-10_14h05.33.817.wav;652.4424826;652.9425459;None;652.4424826;652.4424826;652.4424826;652.4424826;652.4424826;652.4424826;;;;;;10101;1;2023-11-10_13h54.48.695;REPSWITCH1_version1_list1;2022.2.4;143.9951157;
REPSWITCH1/PICTURE_178.png;puente;type;darkblue;switch;1;T;1;2;1;1;Stim1_Set1;0;None;117;116;15;0;116;116;116;;;;;;;;;;;;;;;;;;;;;;;652.9425459;654.0676696;654.0676696;654.0676696;654.0676696;654.0676696;654.0676696;654.0676696;654.0676696;['p', 'u', 'e', 'n', 't', 'e'];0;[1.3360657000157516, 1.6061545000120532, 1.7805716000148095, 1.9011513000004925, 2.1463005999976303, 2.2659938000142574];puente;C:\2023\REPSWITCH21092023\REPSWITCH_excgange\REPSWITCH_excgange\data/010101_REPSWITCH1_version1_list1_2023-11-10_13h54.48.695_micRespv1l1_recorded\recording_micRespv1l1_2023-11-10_14h05.38.463.wav;657.0889248;657.5890436;None;657.0889248;657.0889248;657.0889248;657.0889248;657.0889248;657.0889248;;;;;;10101;1;2023-11-10_13h54.48.695;REPSWITCH1_version1_list1;2022.2.4;143.9951157;
REPSWITCH1/PICTURE_719.png;baño;speak;gold;filler;2;F;1;2;1;1;Stim2_Set4;0;None;118;117;16;0;117;117;117;;;;;;;;;;;;;;;;;;;;;;;657.5890436;658.6308063;658.6308063;658.6308063;658.6308063;658.6308063;658.6308063;658.6308063;658.6308063;None;0;;;C:\2023\REPSWITCH21092023\REPSWITCH_excgange\REPSWITCH_excgange\data/010101_REPSWITCH1_version1_list1_2023-11-10_13h54.48.695_micRespv1l1_recorded\recording_micRespv1l1_2023-11-10_14h05.43.027.wav;661.6589871;;None;661.6589871;661.6589871;661.6589871;661.6589871;661.6589871;661.6589871;;;;;;10101;1;2023-11-10_13h54.48.695;REPSWITCH1_version1_list1;2022.2.4;143.9951157;
REPSWITCH1/PICTURE_169.png;espalda;type;darkblue;nontarget;1;NT;1;2;1;1;Stim8_Set1;1;switch;119;118;17;0;118;118;118;;;;;;;;;;;;;;;;;;;;;;;662.1590034;663.2147211;663.2147211;663.2147211;663.2147211;663.2147211;663.2147211;663.2147211;663.2147211;['e', 's', 'p', 'a', 'l', 'd', 'a'];0;[0.9051396999857388, 1.14369369999622, 1.3679398999956902, 1.5053414999856614, 1.6439292000140995, 1.8193046000087634, 1.881113200011896];espalda;C:\2023\REPSWITCH21092023\REPSWITCH_excgange\REPSWITCH_excgange\data/010101_REPSWITCH1_version1_list1_2023-11-10_13h54.48.695_micRespv1l1_recorded\recording_micRespv1l1_2023-11-10_14h05.47.610.wav;666.236034;666.7359956;None;666.236034;666.236034;666.236034;666.236034;666.236034;666.236034;;;;;;10101;1;2023-11-10_13h54.48.695;REPSWITCH1_version1_list1;2022.2.4;143.9951157;
REPSWITCH1/PICTURE_169.png;espalda;type;darkblue;repeat;1;T;1;2;1;1;Stim8_Set1;0;None;120;119;18;0;119;119;119;;;;;;;;;;;;;;;;;;;;;;;666.7359956;667.7917251;667.7917251;667.7917251;667.7917251;667.7917251;667.7917251;667.7917251;667.7917251;['e', 's', 'p', 'a', 'l', 'd', 'a'];0;[0.975616900017485, 1.1738980000081938, 1.3533010999963153, 1.4679488000110723, 1.609445100009907, 1.73705520000658, 1.8147987000120338];espalda;C:\2023\REPSWITCH21092023\REPSWITCH_excgange\REPSWITCH_excgange\data/010101_REPSWITCH1_version1_list1_2023-11-10_13h54.48.695_micRespv1l1_recorded\recording_micRespv1l1_2023-11-10_14h05.52.187.wav;670.81294;671.3130642;None;670.81294;670.81294;670.81294;670.81294;670.81294;670.81294;;;;;;10101;1;2023-11-10_13h54.48.695;REPSWITCH1_version1_list1;2022.2.4;143.9951157;
REPSWITCH1/PICTURE_48.png;bombero;speak;gold;filler;2;F;1;2;1;1;Stim7_Set4;1;switch;121;120;19;0;120;120;120;;;;;;;;;;;;;;;;;;;;;;;671.3130642;672.4103681;672.4103681;672.4103681;672.4103681;672.4103681;672.4103681;672.4103681;672.4103681;None;0;;;C:\2023\REPSWITCH21092023\REPSWITCH_excgange\REPSWITCH_excgange\data/010101_REPSWITCH1_version1_list1_2023-11-10_13h54.48.695_micRespv1l1_recorded\recording_micRespv1l1_2023-11-10_14h05.56.806.wav;675.438611;;None;675.438611;675.438611;675.438611;675.438611;675.438611;675.438611;;;;;;10101;1;2023-11-10_13h54.48.695;REPSWITCH1_version1_list1;2022.2.4;143.9951157;
REPSWITCH1/PICTURE_19.png;pavo;type;darkblue;nontarget;1;NT;1;2;1;1;Stim5_Set1;1;switch;122;121;20;0;121;121;121;;;;;;;;;;;;;;;;;;;;;;;675.9386139;676.9804408;676.9804408;676.9804408;676.9804408;676.9804408;676.9804408;676.9804408;676.9804408;['p', 'a', 'v', 'o'];0;[1.1362021999957506, 1.2478551999956835, 1.5244637000141665, 1.6327955000160728];pavo;C:\2023\REPSWITCH21092023\REPSWITCH_excgange\REPSWITCH_excgange\data/010101_REPSWITCH1_version1_list1_2023-11-10_13h54.48.695_micRespv1l1_recorded\recording_micRespv1l1_2023-11-10_14h06.01.376.wav;680.0085917;;None;680.0085917;680.0085917;680.0085917;680.0085917;680.0085917;680.0085917;;;;;;10101;1;2023-11-10_13h54.48.695;REPSWITCH1_version1_list1;2022.2.4;143.9951157;
REPSWITCH1/PICTURE_19.png;pavo;type;darkblue;repeat;1;T;1;2;1;1;Stim5_Set1;0;None;123;122;21;0;122;122;122;;;;;;;;;;;;;;;;;;;;;;;680.5087187;681.7032601;681.7032601;681.7032601;681.7032601;681.7032601;681.7032601;681.7032601;681.7032601;['p', 'a', 'v', 'o'];0;[1.0068611000024248, 1.1164430999779142, 1.4208207999763545, 1.6081986999779474];pavo;C:\2023\REPSWITCH21092023\REPSWITCH_excgange\REPSWITCH_excgange\data/010101_REPSWITCH1_version1_list1_2023-11-10_13h54.48.695_micRespv1l1_recorded\recording_micRespv1l1_2023-11-10_14h06.06.100.wav;684.7314948;;None;684.7314948;684.7314948;684.7314948;684.7314948;684.7314948;684.7314948;;;;;;10101;1;2023-11-10_13h54.48.695;REPSWITCH1_version1_list1;2022.2.4;143.9951157;
REPSWITCH1/PICTURE_319.png;vaca;speak;gold;filler;2;F;1;2;1;1;Stim1_Set4;0;None;124;123;22;0;123;123;123;;;;;;;;;;;;;;;;;;;;;;;685.2314969;686.4122338;686.4122338;686.4122338;686.4122338;686.4122338;686.4122338;686.4122338;686.4122338;None;0;;;C:\2023\REPSWITCH21092023\REPSWITCH_excgange\REPSWITCH_excgange\data/010101_REPSWITCH1_version1_list1_2023-11-10_13h54.48.695_micRespv1l1_recorded\recording_micRespv1l1_2023-11-10_14h06.10.808.wav;689.4334013;689.9334981;None;689.4334013;689.4334013;689.4334013;689.4334013;689.4334013;689.4334013;;;;;;10101;1;2023-11-10_13h54.48.695;REPSWITCH1_version1_list1;2022.2.4;143.9951157;
REPSWITCH1/PICTURE_338.png;regalo;type;darkblue;filler;1;F;1;2;1;1;Stim6_Set4;0;None;125;124;23;0;124;124;124;;;;;;;;;;;;;;;;;;;;;;;689.9334981;691.1628605;691.1628605;691.1628605;691.1628605;691.1628605;691.1628605;691.1628605;691.1628605;['r', 'e', 'g', 'a', 'l', 'o'];0;[1.080564499978209, 1.2240217999788001, 1.4296071999997366, 1.589123899990227, 1.7994252999778837, 1.993747499975143];regalo;C:\2023\REPSWITCH21092023\REPSWITCH_excgange\REPSWITCH_excgange\data/010101_REPSWITCH1_version1_list1_2023-11-10_13h54.48.695_micRespv1l1_recorded\recording_micRespv1l1_2023-11-10_14h06.15.559.wav;694.1910553;694.6910484;None;694.1910553;694.1910553;694.1910553;694.1910553;694.1910553;694.1910553;;;;;;10101;1;2023-11-10_13h54.48.695;REPSWITCH1_version1_list1;2022.2.4;143.9951157;
REPSWITCH1/PICTURE_142.png;vaso;type;darkblue;nontarget;1;NT;1;2;1;1;Stim7_Set1;0;None;126;125;24;0;125;125;125;;;;;;;;;;;;;;;;;;;;;;;694.6910484;695.8301113;695.8301113;695.8301113;695.8301113;695.8301113;695.8301113;695.8301113;695.8301113;['v', 'a', 's', 'o'];0;[1.2212488999939524, 1.4733614000142552, 1.7108621000079438, 2.0828204000135884];vaso;C:\2023\REPSWITCH21092023\REPSWITCH_excgange\REPSWITCH_excgange\data/010101_REPSWITCH1_version1_list1_2023-11-10_13h54.48.695_micRespv1l1_recorded\recording_micRespv1l1_2023-11-10_14h06.20.226.wav;698.8513463;699.3514096;None;698.8513463;698.8513463;698.8513463;698.8513463;698.8513463;698.8513463;;;;;;10101;1;2023-11-10_13h54.48.695;REPSWITCH1_version1_list1;2022.2.4;143.9951157;
REPSWITCH1/PICTURE_142.png;vaso;speak;gold;switch;2;T;1;2;1;1;Stim7_Set1;0;None;127;126;25;0;126;126;126;;;;;;;;;;;;;;;;;;;;;;;699.3514096;700.490431;700.490431;700.490431;700.490431;700.490431;700.490431;700.490431;700.490431;None;0;;;C:\2023\REPSWITCH21092023\REPSWITCH_excgange\REPSWITCH_excgange\data/010101_REPSWITCH1_version1_list1_2023-11-10_13h54.48.695_micRespv1l1_recorded\recording_micRespv1l1_2023-11-10_14h06.24.886.wav;703.5117329;704.0117373;None;703.5117329;703.5117329;703.5117329;703.5117329;703.5117329;703.5117329;;;;;;10101;1;2023-11-10_13h54.48.695;REPSWITCH1_version1_list1;2022.2.4;143.9951157;
REPSWITCH1/PICTURE_687.png;camisa;type;darkblue;filler;1;F;1;2;1;1;Stim5_Set4;1;switch;128;127;26;0;127;127;127;;;;;;;;;;;;;;;;;;;;;;;704.0117373;705.1090875;705.1090875;705.1090875;705.1090875;705.1090875;705.1090875;705.1090875;705.1090875;['c', 'a', 'm', 'i', 's', 'a'];0;[1.4632924000034109, 1.518107299983967, 1.7393600000068545, 1.8170682000054512, 1.9537065000040457, 2.0124539000098594];camisa;C:\2023\REPSWITCH21092023\REPSWITCH_excgange\REPSWITCH_excgange\data/010101_REPSWITCH1_version1_list1_2023-11-10_13h54.48.695_micRespv1l1_recorded\recording_micRespv1l1_2023-11-10_14h06.29.505.wav;708.130322;708.6303961;None;708.130322;708.130322;708.130322;708.130322;708.130322;708.130322;;;;;;10101;1;2023-11-10_13h54.48.695;REPSWITCH1_version1_list1;2022.2.4;143.9951157;
REPSWITCH1/PICTURE_30.png;granja;type;darkblue;nontarget;1;NT;2;2;1;1;Stim5_Set2;0;None;129;128;27;0;128;128;128;;;;;;;;;;;;;;;;;;;;;;;708.6303961;709.658281;709.658281;709.658281;709.658281;709.658281;709.658281;709.658281;709.658281;['g', 'r', 'a', 'n', 'j', 'a'];0;[0.9926127000071574, 1.2029067000257783, 1.3208138000045437, 1.5719544000166934, 1.7368187000101898, 1.8798232999979518];granja;C:\2023\REPSWITCH21092023\REPSWITCH_excgange\REPSWITCH_excgange\data/010101_REPSWITCH1_version1_list1_2023-11-10_13h54.48.695_micRespv1l1_recorded\recording_micRespv1l1_2023-11-10_14h06.34.054.wav;712.679555;713.1796103;None;712.679555;712.679555;712.679555;712.679555;712.679555;712.679555;;;;;;10101;1;2023-11-10_13h54.48.695;REPSWITCH1_version1_list1;2022.2.4;143.9951157;
REPSWITCH1/PICTURE_30.png;granja;type;darkblue;repeat;1;T;2;2;1;1;Stim5_Set2;0;None;130;129;28;0;129;129;129;;;;;;;;;;;;;;;;;;;;;;;713.1796103;714.2214212;714.2214212;714.2214212;714.2214212;714.2214212;714.2214212;714.2214212;714.2214212;['g', 'r', 'a', 'n', 'j', 'a'];0;[1.0081897999916691, 1.2230839999974705, 1.3995651000004727, 1.6307586999901105, 1.8108974999922793, 1.96138749999227];granja;C:\2023\REPSWITCH21092023\REPSWITCH_excgange\REPSWITCH_excgange\data/010101_REPSWITCH1_version1_list1_2023-11-10_13h54.48.695_micRespv1l1_recorded\recording_micRespv1l1_2023-11-10_14h06.38.618.wav;717.2425999;717.7426886;None;717.2425999;717.2425999;717.2425999;717.2425999;717.2425999;717.2425999;;;;;;10101;1;2023-11-10_13h54.48.695;REPSWITCH1_version1_list1;2022.2.4;143.9951157;
REPSWITCH1/PICTURE_128.png;muñeca;speak;gold;filler;2;F;2;2;1;1;Stim4_Set1;0;None;131;130;29;0;130;130;130;;;;;;;;;;;;;;;;;;;;;;;717.7426886;718.9234099;718.9234099;718.9234099;718.9234099;718.9234099;718.9234099;718.9234099;718.9234099;None;0;;;C:\2023\REPSWITCH21092023\REPSWITCH_excgange\REPSWITCH_excgange\data/010101_REPSWITCH1_version1_list1_2023-11-10_13h54.48.695_micRespv1l1_recorded\recording_micRespv1l1_2023-11-10_14h06.43.319.wav;721.9446259;722.4447088;None;721.9446259;721.9446259;721.9446259;721.9446259;721.9446259;721.9446259;;;;;;10101;1;2023-11-10_13h54.48.695;REPSWITCH1_version1_list1;2022.2.4;143.9951157;
REPSWITCH1/PICTURE_264.png;mano;type;darkblue;nontarget;1;NT;2;2;1;1;Stim3_Set2;1;switch;132;131;30;0;131;131;131;;;;;;;;;;;;;;;;;;;;;;;722.4447088;723.4587664;723.4587664;723.4587664;723.4587664;723.4587664;723.4587664;723.4587664;723.4587664;['m', 'a', 'n', 'o'];0;[0.9337798999913502, 1.0753026000165846, 1.2607470999937505, 1.5402683000138495];mano;C:\2023\REPSWITCH21092023\REPSWITCH_excgange\REPSWITCH_excgange\data/010101_REPSWITCH1_version1_list1_2023-11-10_13h54.48.695_micRespv1l1_recorded\recording_micRespv1l1_2023-11-10_14h06.47.855.wav;726.4799553;726.9799856;None;726.4799553;726.4799553;726.4799553;726.4799553;726.4799553;726.4799553;;;;;;10101;1;2023-11-10_13h54.48.695;REPSWITCH1_version1_list1;2022.2.4;143.9951157;
REPSWITCH1/PICTURE_264.png;mano;type;darkblue;repeat;1;T;2;2;1;1;Stim3_Set2;0;None;133;132;31;0;132;132;132;;;;;;;;;;;;;;;;;;;;;;;726.9799856;728.0843168;728.0843168;728.0843168;728.0843168;728.0843168;728.0843168;728.0843168;728.0843168;['m', 'a', 'n', 'o'];0;[0.9573399999935646, 1.1177643999981228, 1.3191242000029888, 1.392102599987993];mano;C:\2023\REPSWITCH21092023\REPSWITCH_excgange\REPSWITCH_excgange\data/010101_REPSWITCH1_version1_list1_2023-11-10_13h54.48.695_micRespv1l1_recorded\recording_micRespv1l1_2023-11-10_14h06.52.481.wav;731.1125873;;None;731.1125873;731.1125873;731.1125873;731.1125873;731.1125873;731.1125873;;;;;;10101;1;2023-11-10_13h54.48.695;REPSWITCH1_version1_list1;2022.2.4;143.9951157;
REPSWITCH1/PICTURE_175.png;pintor;type;darkblue;nontarget;1;NT;2;2;1;1;Stim1_Set2;0;None;134;133;32;0;133;133;133;;;;;;;;;;;;;;;;;;;;;;;731.6125743;732.6890837;732.6890837;732.6890837;732.6890837;732.6890837;732.6890837;732.6890837;732.6890837;['p', 'i', 'n', 't', 'o', 'r'];0;[1.026335200003814, 1.2795758000283968, 1.4780509000120219, 1.6663782000250649, 1.7630606000020634, 1.9046827000274789];pintor;C:\2023\REPSWITCH21092023\REPSWITCH_excgange\REPSWITCH_excgange\data/010101_REPSWITCH1_version1_list1_2023-11-10_13h54.48.695_micRespv1l1_recorded\recording_micRespv1l1_2023-11-10_14h06.57.085.wav;735.7172887;;None;735.7172887;735.7172887;735.7172887;735.7172887;735.7172887;735.7172887;;;;;;10101;1;2023-11-10_13h54.48.695;REPSWITCH1_version1_list1;2022.2.4;143.9951157;
REPSWITCH1/PICTURE_175.png;pintor;speak;gold;switch;2;T;2;2;1;1;Stim1_Set2;0;None;135;134;33;0;134;134;134;;;;;;;;;;;;;;;;;;;;;;;736.2174238;737.3634036;737.3634036;737.3634036;737.3634036;737.3634036;737.3634036;737.3634036;737.3634036;None;0;;;C:\2023\REPSWITCH21092023\REPSWITCH_excgange\REPSWITCH_excgange\data/010101_REPSWITCH1_version1_list1_2023-11-10_13h54.48.695_micRespv1l1_recorded\recording_micRespv1l1_2023-11-10_14h07.01.759.wav;740.3845505;740.8846281;None;740.3845505;740.3845505;740.3845505;740.3845505;740.3845505;740.3845505;;;;;;10101;1;2023-11-10_13h54.48.695;REPSWITCH1_version1_list1;2022.2.4;143.9951157;
REPSWITCH1/PICTURE_135.png;traje;speak;gold;filler;2;F;2;2;1;1;Stim3_Set1;1;repeat;136;135;34;0;135;135;135;;;;;;;;;;;;;;;;;;;;;;;740.8846281;741.9126048;741.9126048;741.9126048;741.9126048;741.9126048;741.9126048;741.9126048;741.9126048;None;0;;;C:\2023\REPSWITCH21092023\REPSWITCH_excgange\REPSWITCH_excgange\data/010101_REPSWITCH1_version1_list1_2023-11-10_13h54.48.695_micRespv1l1_recorded\recording_micRespv1l1_2023-11-10_14h07.06.308.wav;744.9337577;745.4338292;None;744.9337577;744.9337577;744.9337577;744.9337577;744.9337577;744.9337577;;;;;;10101;1;2023-11-10_13h54.48.695;REPSWITCH1_version1_list1;2022.2.4;143.9951157;
REPSWITCH1/PICTURE_446.png;cerdo;speak;gold;nontarget;2;NT;2;2;1;1;Stim7_Set2;1;repeat;137;136;35;0;136;136;136;;;;;;;;;;;;;;;;;;;;;;;745.4338292;746.5450801;746.5450801;746.5450801;746.5450801;746.5450801;746.5450801;746.5450801;746.5450801;None;0;;;C:\2023\REPSWITCH21092023\REPSWITCH_excgange\REPSWITCH_excgange\data/010101_REPSWITCH1_version1_list1_2023-11-10_13h54.48.695_micRespv1l1_recorded\recording_micRespv1l1_2023-11-10_14h07.10.941.wav;749.5662809;750.0664558;None;749.5662809;749.5662809;749.5662809;749.5662809;749.5662809;749.5662809;;;;;;10101;1;2023-11-10_13h54.48.695;REPSWITCH1_version1_list1;2022.2.4;143.9951157;
REPSWITCH1/PICTURE_446.png;cerdo;type;darkblue;switch;1;T;2;2;1;1;Stim7_Set2;0;None;138;137;36;0;137;137;137;;;;;;;;;;;;;;;;;;;;;;;750.0664558;751.1220642;751.1220642;751.1220642;751.1220642;751.1220642;751.1220642;751.1220642;751.1220642;['c', 'e', 'r', 'd', 'o'];0;[1.1480882999894675, 1.3135311999940313, 1.4423982999869622, 1.5819197999953758, 1.802482200000668];cerdo;C:\2023\REPSWITCH21092023\REPSWITCH_excgange\REPSWITCH_excgange\data/010101_REPSWITCH1_version1_list1_2023-11-10_13h54.48.695_micRespv1l1_recorded\recording_micRespv1l1_2023-11-10_14h07.15.518.wav;754.1433138;754.6433735;None;754.1433138;754.1433138;754.1433138;754.1433138;754.1433138;754.1433138;;;;;;10101;1;2023-11-10_13h54.48.695;REPSWITCH1_version1_list1;2022.2.4;143.9951157;
REPSWITCH1/PICTURE_152.png;caracol;type;darkblue;nontarget;1;NT;2;2;1;1;Stim2_Set2;1;repeat;139;138;37;0;138;138;138;;;;;;;;;;;;;;;;;;;;;;;754.6433735;755.7129676;755.7129676;755.7129676;755.7129676;755.7129676;755.7129676;755.7129676;755.7129676;['c', 'a', 'r', 'a', 'c', 'o', 'l'];0;[1.0063977000245359, 1.1645789000031073, 1.3474897000123747, 1.4551061000092886, 1.6448361000220757, 1.9767276000056881, 2.1441311000089627];caracol;C:\2023\REPSWITCH21092023\REPSWITCH_excgange\REPSWITCH_excgange\data/010101_REPSWITCH1_version1_list1_2023-11-10_13h54.48.695_micRespv1l1_recorded\recording_micRespv1l1_2023-11-10_14h07.20.109.wav;758.7411084;;None;758.7411084;758.7411084;758.7411084;758.7411084;758.7411084;758.7411084;;;;;;10101;1;2023-11-10_13h54.48.695;REPSWITCH1_version1_list1;2022.2.4;143.9951157;
REPSWITCH1/PICTURE_152.png;caracol;speak;gold;switch;2;T;2;2;1;1;Stim2_Set2;0;None;140;139;38;0;139;139;139;;;;;;;;;;;;;;;;;;;;;;;759.2411739;760.3246956;760.3246956;760.3246956;760.3246956;760.3246956;760.3246956;760.3246956;760.3246956;None;0;;;C:\2023\REPSWITCH21092023\REPSWITCH_excgange\REPSWITCH_excgange\data/010101_REPSWITCH1_version1_list1_2023-11-10_13h54.48.695_micRespv1l1_recorded\recording_micRespv1l1_2023-11-10_14h07.24.720.wav;763.3459284;763.8459503;None;763.3459284;763.3459284;763.3459284;763.3459284;763.3459284;763.3459284;;;;;;10101;1;2023-11-10_13h54.48.695;REPSWITCH1_version1_list1;2022.2.4;143.9951157;
REPSWITCH1/PICTURE_16.png;cazador;type;darkblue;filler;1;F;2;2;1;1;Stim6_Set1;0;None;141;140;39;0;140;140;140;;;;;;;;;;;;;;;;;;;;;;;763.8459503;765.005905;765.005905;765.005905;765.005905;765.005905;765.005905;765.005905;765.005905;['c', 'a', 'z', 'a', 'd', 'o', 'r'];0;[1.1725998999900185, 1.3081384999968577, 1.544770000007702, 1.6481915999902412, 1.8702064999961294, 2.006773400004022, 2.164250300003914];cazador;C:\2023\REPSWITCH21092023\REPSWITCH_excgange\REPSWITCH_excgange\data/010101_REPSWITCH1_version1_list1_2023-11-10_13h54.48.695_micRespv1l1_recorded\recording_micRespv1l1_2023-11-10_14h07.29.401.wav;768.0271163;768.5270984;None;768.0271163;768.0271163;768.0271163;768.0271163;768.0271163;768.0271163;;;;;;10101;1;2023-11-10_13h54.48.695;REPSWITCH1_version1_list1;2022.2.4;143.9951157;
REPSWITCH1/PICTURE_381.png;fresa;speak;gold;filler;2;F;2;2;1;1;Stim2_Set1;0;None;142;141;40;0;141;141;141;;;;;;;;;;;;;;;;;;;;;;;768.5270984;769.6522888;769.6522888;769.6522888;769.6522888;769.6522888;769.6522888;769.6522888;769.6522888;None;0;;;C:\2023\REPSWITCH21092023\REPSWITCH_excgange\REPSWITCH_excgange\data/010101_REPSWITCH1_version1_list1_2023-11-10_13h54.48.695_micRespv1l1_recorded\recording_micRespv1l1_2023-11-10_14h07.34.048.wav;772.673475;773.1735801;None;772.673475;772.673475;772.673475;772.673475;772.673475;772.673475;;;;;;10101;1;2023-11-10_13h54.48.695;REPSWITCH1_version1_list1;2022.2.4;143.9951157;
