image,correctAns,respModal,frameColor,repSwitch,sequence,target,set,block,list,exp_version,stimulus,baseline,baseline_condition,trial_no,psychopy_trial,Column1,trialsREPSWITCH.thisRepN,trialsREPSWITCH.thisTrialN,trialsREPSWITCH.thisN,trialsREPSWITCH.thisIndex,textWelcome.started,textboxInstrMain1.started,textboxInstrMain1_2.started,textboxInstrMain1_3.started,keyInstrMain.started,keyInstrMain.keys,keyInstrMain.rt,textboxInstrMain2.started,textboxInstrMain2_2.started,textboxInstrMain2_3.started,textboxInstrMain2_4.started,textboxInstrMain2_5.started,textboxInstrMain2_6.started,textboxInstrMain2_7.started,textboxInstrMain2_8.started,textboxInstrMain2_9.started,textboxInstrMain2_10.started,textboxInstrMain2_11.started,textboxInstrMain2_12.started,keyInstrMain2.started,keyInstrMain2.keys,keyInstrMain2.rt,fixationITI.started,fixationITI.stopped,polygonColour.started,polygonWhite.started,imageObject.started,polygonType.started,textInput.started,keyResp.started,micRespv2l4.started,keyResp.keys,keyResp.corr,keyResp.rt,subjResponse,micRespv2l4.clip,textBlankLoop.started,textBlankLoop.stopped,keyPause.keys,polygonColour.stopped,polygonWhite.stopped,imageObject.stopped,polygonType.stopped,textInput.stopped,keyResp.stopped,textboxPause.started,keyPause.started,keyPause.rt,textboxGoodbye.started,textboxGoodbye.stopped,participant,session,date,expName,psychopyVersion,frameRate,
,,,,,,,,,,,,,,,,,,,,,9.196500399848446,11.695052600000054,11.695052600000054,11.695052600000054,11.695052600000054,space,6.925286400131881,,,,,,,,,,,,,,,,,,,,,,,,,,,,,,,,,,,,,,,,,,,,080204,001,2023-11-21_12h09.29.714,REPSWITCH1_version2_list4,2022.2.4,143.94516290347855,
,,,,,,,,,,,,,,,,,,,,,,,,,,,,18.640434799948707,18.640434799948707,18.640434799948707,18.640434799948707,18.640434799948707,18.640434799948707,18.640434799948707,18.640434799948707,18.640434799948707,18.640434799948707,18.640434799948707,18.640434799948707,18.640434799948707,space,1.0213558999821544,,,,,,,,,,,,,,,,,,,,,,,,,,,,,080204,001,2023-11-21_12h09.29.714,REPSWITCH1_version2_list4,2022.2.4,143.94516290347855,
REPSWITCH1/PICTURE_8.png,pierna,type,gold,filler,1,F,1,4,4,2,Stim3_Set4,0,None,1,0,1,0,0,0,0,,,,,,,,,,,,,,,,,,,,,,,19.758631499949843,20.849084899993613,20.849084899993613,20.849084899993613,20.849084899993613,20.849084899993613,20.849084899993613,20.849084899993613,20.849084899993613,"['o', 'e', 'r', 'backspace', 'backspace', 'backspace']",0,"[1.4102759000379592, 1.763123600045219, 1.8637512000277638, 2.5454053001012653, 2.7526539999525994, 2.8782312001567334]",,C:\2023\REPSWITCH21092023\REPSWITCH_excgange\REPSWITCH_excgange\data/080204_REPSWITCH1_version2_list4_2023-11-21_12h09.29.714_micRespv2l4_recorded\recording_micRespv2l4_2023-11-21_12h09.46.240.wav,23.87025859998539,24.370344899827614,None,,,,,,,,,,,,080204,001,2023-11-21_12h09.29.714,REPSWITCH1_version2_list4,2022.2.4,143.94516290347855,
REPSWITCH1/PICTURE_498.png,taza,speak,darkblue,filler,2,F,1,4,4,2,Stim4_Set4,0,None,2,1,2,0,1,1,1,,,,,,,,,,,,,,,,,,,,,,,24.370344899827614,25.55803529988043,25.55803529988043,25.55803529988043,25.55803529988043,25.55803529988043,25.55803529988043,25.55803529988043,25.55803529988043,None,0,,,C:\2023\REPSWITCH21092023\REPSWITCH_excgange\REPSWITCH_excgange\data/080204_REPSWITCH1_version2_list4_2023-11-21_12h09.29.714_micRespv2l4_recorded\recording_micRespv2l4_2023-11-21_12h09.50.953.wav,28.586189499823377,,None,28.586189499823377,28.586189499823377,28.586189499823377,28.586189499823377,28.586189499823377,28.586189499823377,,,,,,080204,001,2023-11-21_12h09.29.714,REPSWITCH1_version2_list4,2022.2.4,143.94516290347855,
REPSWITCH1/PICTURE_19.png,pavo,speak,darkblue,nontarget,2,NT,1,4,4,2,Stim5_Set1,1,repeat,3,2,3,0,2,2,2,,,,,,,,,,,,,,,,,,,,,,,29.086241099983454,30.14199070003815,30.14199070003815,30.14199070003815,30.14199070003815,30.14199070003815,30.14199070003815,30.14199070003815,30.14199070003815,None,0,,,C:\2023\REPSWITCH21092023\REPSWITCH_excgange\REPSWITCH_excgange\data/080204_REPSWITCH1_version2_list4_2023-11-21_12h09.29.714_micRespv2l4_recorded\recording_micRespv2l4_2023-11-21_12h09.55.537.wav,33.170126899844036,33.67017299984582,None,33.170126899844036,33.170126899844036,33.170126899844036,33.170126899844036,33.170126899844036,33.170126899844036,,,,,,080204,001,2023-11-21_12h09.29.714,REPSWITCH1_version2_list4,2022.2.4,143.94516290347855,
REPSWITCH1/PICTURE_19.png,pavo,speak,darkblue,repeat,2,T,1,4,4,2,Stim5_Set1,0,None,4,3,4,0,3,3,3,,,,,,,,,,,,,,,,,,,,,,,33.67017299984582,34.7536616998259,34.7536616998259,34.7536616998259,34.7536616998259,34.7536616998259,34.7536616998259,34.7536616998259,34.7536616998259,None,0,,,C:\2023\REPSWITCH21092023\REPSWITCH_excgange\REPSWITCH_excgange\data/080204_REPSWITCH1_version2_list4_2023-11-21_12h09.29.714_micRespv2l4_recorded\recording_micRespv2l4_2023-11-21_12h10.00.148.wav,37.78181690000929,,None,37.78181690000929,37.78181690000929,37.78181690000929,37.78181690000929,37.78181690000929,37.78181690000929,,,,,,080204,001,2023-11-21_12h09.29.714,REPSWITCH1_version2_list4,2022.2.4,143.94516290347855,
REPSWITCH1/PICTURE_319.png,vaca,type,gold,filler,1,F,1,4,4,2,Stim1_Set4,1,repeat,5,4,5,0,4,4,4,,,,,,,,,,,,,,,,,,,,,,,38.28186480002478,39.337583399843425,39.337583399843425,39.337583399843425,39.337583399843425,39.337583399843425,39.337583399843425,39.337583399843425,39.337583399843425,"['v', 'a', 'c', 'a']",0,"[0.9035972002893686, 1.004917000187561, 1.1623987001366913, 1.282636800315231]",vaca,C:\2023\REPSWITCH21092023\REPSWITCH_excgange\REPSWITCH_excgange\data/080204_REPSWITCH1_version2_list4_2023-11-21_12h09.29.714_micRespv2l4_recorded\recording_micRespv2l4_2023-11-21_12h10.04.732.wav,42.3657680999022,,None,42.3657680999022,42.3657680999022,42.3657680999022,42.3657680999022,42.3657680999022,42.3657680999022,,,,,,080204,001,2023-11-21_12h09.29.714,REPSWITCH1_version2_list4,2022.2.4,143.94516290347855,
REPSWITCH1/PICTURE_169.png,espalda,speak,darkblue,nontarget,2,NT,1,4,4,2,Stim8_Set1,1,switch,6,5,6,0,5,5,5,,,,,,,,,,,,,,,,,,,,,,,42.86582039995119,43.99099999992177,43.99099999992177,43.99099999992177,43.99099999992177,43.99099999992177,43.99099999992177,43.99099999992177,43.99099999992177,None,0,,,C:\2023\REPSWITCH21092023\REPSWITCH_excgange\REPSWITCH_excgange\data/080204_REPSWITCH1_version2_list4_2023-11-21_12h09.29.714_micRespv2l4_recorded\recording_micRespv2l4_2023-11-21_12h10.09.386.wav,47.01224790001288,47.51226079999469,None,47.01224790001288,47.01224790001288,47.01224790001288,47.01224790001288,47.01224790001288,47.01224790001288,,,,,,080204,001,2023-11-21_12h09.29.714,REPSWITCH1_version2_list4,2022.2.4,143.94516290347855,
REPSWITCH1/PICTURE_169.png,espalda,speak,darkblue,repeat,2,T,1,4,4,2,Stim8_Set1,0,None,7,6,7,0,6,6,6,,,,,,,,,,,,,,,,,,,,,,,47.51226079999469,48.6235401998274,48.6235401998274,48.6235401998274,48.6235401998274,48.6235401998274,48.6235401998274,48.6235401998274,48.6235401998274,None,0,,,C:\2023\REPSWITCH21092023\REPSWITCH_excgange\REPSWITCH_excgange\data/080204_REPSWITCH1_version2_list4_2023-11-21_12h09.29.714_micRespv2l4_recorded\recording_micRespv2l4_2023-11-21_12h10.14.018.wav,51.64476399985142,52.14482559985481,None,51.64476399985142,51.64476399985142,51.64476399985142,51.64476399985142,51.64476399985142,51.64476399985142,,,,,,080204,001,2023-11-21_12h09.29.714,REPSWITCH1_version2_list4,2022.2.4,143.94516290347855,
REPSWITCH1/PICTURE_728.png,pulpo,type,gold,filler,1,F,1,4,4,2,Stim8_Set4,0,None,8,7,8,0,7,7,7,,,,,,,,,,,,,,,,,,,,,,,52.14482559985481,53.214388999855146,53.214388999855146,53.214388999855146,53.214388999855146,53.214388999855146,53.214388999855146,53.214388999855146,53.214388999855146,"['p', 'u', 'l', 'p', 'o']",0,"[0.9888701001182199, 1.269917800091207, 1.5189247999805957, 1.7252015001140535, 1.8192110999953002]",pulpo,C:\2023\REPSWITCH21092023\REPSWITCH_excgange\REPSWITCH_excgange\data/080204_REPSWITCH1_version2_list4_2023-11-21_12h09.29.714_micRespv2l4_recorded\recording_micRespv2l4_2023-11-21_12h10.18.608.wav,56.23563789995387,56.73569819983095,None,56.23563789995387,56.23563789995387,56.23563789995387,56.23563789995387,56.23563789995387,56.23563789995387,,,,,,080204,001,2023-11-21_12h09.29.714,REPSWITCH1_version2_list4,2022.2.4,143.94516290347855,
REPSWITCH1/PICTURE_142.png,vaso,speak,darkblue,nontarget,2,NT,1,4,4,2,Stim7_Set1,1,switch,9,8,9,0,8,8,8,,,,,,,,,,,,,,,,,,,,,,,56.73569819983095,57.77056929981336,57.77056929981336,57.77056929981336,57.77056929981336,57.77056929981336,57.77056929981336,57.77056929981336,57.77056929981336,None,0,,,C:\2023\REPSWITCH21092023\REPSWITCH_excgange\REPSWITCH_excgange\data/080204_REPSWITCH1_version2_list4_2023-11-21_12h09.29.714_micRespv2l4_recorded\recording_micRespv2l4_2023-11-21_12h10.23.165.wav,60.79874140000902,,None,60.79874140000902,60.79874140000902,60.79874140000902,60.79874140000902,60.79874140000902,60.79874140000902,,,,,,080204,001,2023-11-21_12h09.29.714,REPSWITCH1_version2_list4,2022.2.4,143.94516290347855,
REPSWITCH1/PICTURE_142.png,vaso,type,gold,switch,1,T,1,4,4,2,Stim7_Set1,0,None,10,9,10,0,9,9,9,,,,,,,,,,,,,,,,,,,,,,,61.29886560002342,62.535071099875495,62.535071099875495,62.535071099875495,62.535071099875495,62.535071099875495,62.535071099875495,62.535071099875495,62.535071099875495,"['v', 'a', 's', 'o']",0,"[0.7509501001331955, 0.9054247001186013, 0.9831654001027346, 1.1346549002919346]",vaso,C:\2023\REPSWITCH21092023\REPSWITCH_excgange\REPSWITCH_excgange\data/080204_REPSWITCH1_version2_list4_2023-11-21_12h09.29.714_micRespv2l4_recorded\recording_micRespv2l4_2023-11-21_12h10.27.929.wav,65.56325119989924,,None,65.56325119989924,65.56325119989924,65.56325119989924,65.56325119989924,65.56325119989924,65.56325119989924,,,,,,080204,001,2023-11-21_12h09.29.714,REPSWITCH1_version2_list4,2022.2.4,143.94516290347855,
REPSWITCH1/PICTURE_338.png,regalo,type,gold,filler,1,F,1,4,4,2,Stim6_Set4,1,repeat,11,10,11,0,10,10,10,,,,,,,,,,,,,,,,,,,,,,,66.06338319997303,67.15371999982744,67.15371999982744,67.15371999982744,67.15371999982744,67.15371999982744,67.15371999982744,67.15371999982744,67.15371999982744,"['r', 'e', 'g', 'a', 'l', 'o']",0,"[0.8197539001703262, 0.887571600265801, 1.1197941002901644, 1.2344133001752198, 1.35607730015181, 1.5390917002223432]",regalo,C:\2023\REPSWITCH21092023\REPSWITCH_excgange\REPSWITCH_excgange\data/080204_REPSWITCH1_version2_list4_2023-11-21_12h09.29.714_micRespv2l4_recorded\recording_micRespv2l4_2023-11-21_12h10.32.549.wav,70.18188529997133,,None,70.18188529997133,70.18188529997133,70.18188529997133,70.18188529997133,70.18188529997133,70.18188529997133,,,,,,080204,001,2023-11-21_12h09.29.714,REPSWITCH1_version2_list4,2022.2.4,143.94516290347855,
REPSWITCH1/PICTURE_135.png,traje,type,gold,nontarget,1,NT,1,4,4,2,Stim3_Set1,1,repeat,12,11,12,0,11,11,11,,,,,,,,,,,,,,,,,,,,,,,70.68194749997929,71.87656020000577,71.87656020000577,71.87656020000577,71.87656020000577,71.87656020000577,71.87656020000577,71.87656020000577,71.87656020000577,"['t', 'r', 'a', 'j', 'e']",0,"[0.8976164001505822, 0.9793376000598073, 1.1308174000587314, 1.361058000009507, 1.4746857001446187]",traje,C:\2023\REPSWITCH21092023\REPSWITCH_excgange\REPSWITCH_excgange\data/080204_REPSWITCH1_version2_list4_2023-11-21_12h09.29.714_micRespv2l4_recorded\recording_micRespv2l4_2023-11-21_12h10.37.270.wav,74.90475649992004,,None,74.90475649992004,74.90475649992004,74.90475649992004,74.90475649992004,74.90475649992004,74.90475649992004,,,,,,080204,001,2023-11-21_12h09.29.714,REPSWITCH1_version2_list4,2022.2.4,143.94516290347855,
REPSWITCH1/PICTURE_135.png,traje,speak,darkblue,switch,2,T,1,4,4,2,Stim3_Set1,0,None,13,12,13,0,12,12,12,,,,,,,,,,,,,,,,,,,,,,,75.40479649999179,76.55777019984089,76.55777019984089,76.55777019984089,76.55777019984089,76.55777019984089,76.55777019984089,76.55777019984089,76.55777019984089,None,0,,,C:\2023\REPSWITCH21092023\REPSWITCH_excgange\REPSWITCH_excgange\data/080204_REPSWITCH1_version2_list4_2023-11-21_12h09.29.714_micRespv2l4_recorded\recording_micRespv2l4_2023-11-21_12h10.41.952.wav,79.58589389990084,,None,79.58589389990084,79.58589389990084,79.58589389990084,79.58589389990084,79.58589389990084,79.58589389990084,,,,,,080204,001,2023-11-21_12h09.29.714,REPSWITCH1_version2_list4,2022.2.4,143.94516290347855,
REPSWITCH1/PICTURE_381.png,fresa,speak,darkblue,nontarget,2,NT,1,4,4,2,Stim2_Set1,1,repeat,14,13,14,0,13,13,13,,,,,,,,,,,,,,,,,,,,,,,80.0859438998159,81.14169249986298,81.14169249986298,81.14169249986298,81.14169249986298,81.14169249986298,81.14169249986298,81.14169249986298,81.14169249986298,None,0,,,C:\2023\REPSWITCH21092023\REPSWITCH_excgange\REPSWITCH_excgange\data/080204_REPSWITCH1_version2_list4_2023-11-21_12h09.29.714_micRespv2l4_recorded\recording_micRespv2l4_2023-11-21_12h10.46.536.wav,84.16988469986245,,None,84.16988469986245,84.16988469986245,84.16988469986245,84.16988469986245,84.16988469986245,84.16988469986245,,,,,,080204,001,2023-11-21_12h09.29.714,REPSWITCH1_version2_list4,2022.2.4,143.94516290347855,
REPSWITCH1/PICTURE_381.png,fresa,type,gold,switch,1,T,1,4,4,2,Stim2_Set1,0,None,15,14,15,0,14,14,14,,,,,,,,,,,,,,,,,,,,,,,84.6698876998853,85.7881527999416,85.7881527999416,85.7881527999416,85.7881527999416,85.7881527999416,85.7881527999416,85.7881527999416,85.7881527999416,"['f', 'r', 'e', 's', 'a']",0,"[0.7271068999543786, 0.9175829000305384, 1.019172899890691, 1.3321527000516653, 1.5633712001144886]",fresa,C:\2023\REPSWITCH21092023\REPSWITCH_excgange\REPSWITCH_excgange\data/080204_REPSWITCH1_version2_list4_2023-11-21_12h09.29.714_micRespv2l4_recorded\recording_micRespv2l4_2023-11-21_12h10.51.182.wav,88.809321800014,89.30948469997384,None,88.809321800014,88.809321800014,88.809321800014,88.809321800014,88.809321800014,88.809321800014,,,,,,080204,001,2023-11-21_12h09.29.714,REPSWITCH1_version2_list4,2022.2.4,143.94516290347855,
REPSWITCH1/PICTURE_48.png,bombero,type,gold,filler,1,F,1,4,4,2,Stim7_Set4,0,None,16,15,16,0,15,15,15,,,,,,,,,,,,,,,,,,,,,,,89.30948469997384,90.55262540001422,90.55262540001422,90.55262540001422,90.55262540001422,90.55262540001422,90.55262540001422,90.55262540001422,90.55262540001422,"['b', 'o', 'm', 'b', 'e', 'r', 'i', 'backspace', 'o']",0,"[1.242162800161168, 1.3508264000993222, 1.5521200001239777, 1.788631500210613, 1.883630400057882, 1.9689186001196504, 2.1564119001850486, 2.615177100058645, 2.7770849000662565]",bombero,C:\2023\REPSWITCH21092023\REPSWITCH_excgange\REPSWITCH_excgange\data/080204_REPSWITCH1_version2_list4_2023-11-21_12h09.29.714_micRespv2l4_recorded\recording_micRespv2l4_2023-11-21_12h10.55.947.wav,93.5807931998279,94.08084569987841,None,93.5807931998279,93.5807931998279,93.5807931998279,93.5807931998279,93.5807931998279,93.5807931998279,,,,,,080204,001,2023-11-21_12h09.29.714,REPSWITCH1_version2_list4,2022.2.4,143.94516290347855,
REPSWITCH1/PICTURE_687.png,camisa,speak,darkblue,filler,2,F,1,4,4,2,Stim5_Set4,0,None,17,16,17,0,16,16,16,,,,,,,,,,,,,,,,,,,,,,,94.08084569987841,95.1643449999392,95.1643449999392,95.1643449999392,95.1643449999392,95.1643449999392,95.1643449999392,95.1643449999392,95.1643449999392,None,0,,,C:\2023\REPSWITCH21092023\REPSWITCH_excgange\REPSWITCH_excgange\data/080204_REPSWITCH1_version2_list4_2023-11-21_12h09.29.714_micRespv2l4_recorded\recording_micRespv2l4_2023-11-21_12h11.00.559.wav,98.19252040004358,,None,98.19252040004358,98.19252040004358,98.19252040004358,98.19252040004358,98.19252040004358,98.19252040004358,,,,,,080204,001,2023-11-21_12h09.29.714,REPSWITCH1_version2_list4,2022.2.4,143.94516290347855,
REPSWITCH1/PICTURE_128.png,muñeca,type,gold,nontarget,1,NT,1,4,4,2,Stim4_Set1,0,None,18,17,18,0,17,17,17,,,,,,,,,,,,,,,,,,,,,,,98.69256619992666,99.71356229996309,99.71356229996309,99.71356229996309,99.71356229996309,99.71356229996309,99.71356229996309,99.71356229996309,99.71356229996309,"['m', 'u', 'ñ', 'e', 'c', 'a']",0,"[0.9908755000215024, 1.1037791999988258, 1.6077408001292497, 1.8080647999886423, 2.1412719001527876, 2.306705200113356]",muñeca,C:\2023\REPSWITCH21092023\REPSWITCH_excgange\REPSWITCH_excgange\data/080204_REPSWITCH1_version2_list4_2023-11-21_12h09.29.714_micRespv2l4_recorded\recording_micRespv2l4_2023-11-21_12h11.05.108.wav,102.74178769998252,,None,102.74178769998252,102.74178769998252,102.74178769998252,102.74178769998252,102.74178769998252,102.74178769998252,,,,,,080204,001,2023-11-21_12h09.29.714,REPSWITCH1_version2_list4,2022.2.4,143.94516290347855,
REPSWITCH1/PICTURE_128.png,muñeca,type,gold,repeat,1,T,1,4,4,2,Stim4_Set1,0,None,19,18,19,0,18,18,18,,,,,,,,,,,,,,,,,,,,,,,103.2417782000266,104.39479269995354,104.39479269995354,104.39479269995354,104.39479269995354,104.39479269995354,104.39479269995354,104.39479269995354,104.39479269995354,"['m', 'u', 'ñ', 'e', 'c', 'a']",0,"[0.6904086002614349, 0.9266022001393139, 1.2006759003270417, 1.3622408001683652, 1.643378000240773, 1.778421200113371]",muñeca,C:\2023\REPSWITCH21092023\REPSWITCH_excgange\REPSWITCH_excgange\data/080204_REPSWITCH1_version2_list4_2023-11-21_12h09.29.714_micRespv2l4_recorded\recording_micRespv2l4_2023-11-21_12h11.09.790.wav,107.42293769982643,,None,107.42293769982643,107.42293769982643,107.42293769982643,107.42293769982643,107.42293769982643,107.42293769982643,,,,,,080204,001,2023-11-21_12h09.29.714,REPSWITCH1_version2_list4,2022.2.4,143.94516290347855,
REPSWITCH1/PICTURE_719.png,baño,speak,darkblue,filler,2,F,1,4,4,2,Stim2_Set4,1,switch,20,19,20,0,19,19,19,,,,,,,,,,,,,,,,,,,,,,,107.92291540000588,108.95782019989565,108.95782019989565,108.95782019989565,108.95782019989565,108.95782019989565,108.95782019989565,108.95782019989565,108.95782019989565,None,0,,,C:\2023\REPSWITCH21092023\REPSWITCH_excgange\REPSWITCH_excgange\data/080204_REPSWITCH1_version2_list4_2023-11-21_12h09.29.714_micRespv2l4_recorded\recording_micRespv2l4_2023-11-21_12h11.14.353.wav,111.98596209986135,,None,111.98596209986135,111.98596209986135,111.98596209986135,111.98596209986135,111.98596209986135,111.98596209986135,,,,,,080204,001,2023-11-21_12h09.29.714,REPSWITCH1_version2_list4,2022.2.4,143.94516290347855,
REPSWITCH1/PICTURE_178.png,puente,type,gold,nontarget,1,NT,1,4,4,2,Stim1_Set1,1,switch,21,20,21,0,20,20,20,,,,,,,,,,,,,,,,,,,,,,,112.48602789989673,113.50708279991522,113.50708279991522,113.50708279991522,113.50708279991522,113.50708279991522,113.50708279991522,113.50708279991522,113.50708279991522,"['p', 'u', 'e', 'n', 't', 'e']",0,"[1.0280081003438681, 1.2453073002398014, 1.3688545001205057, 1.5791957001201808, 1.711199900135398, 1.7929806001484394]",puente,C:\2023\REPSWITCH21092023\REPSWITCH_excgange\REPSWITCH_excgange\data/080204_REPSWITCH1_version2_list4_2023-11-21_12h09.29.714_micRespv2l4_recorded\recording_micRespv2l4_2023-11-21_12h11.18.901.wav,116.53518410003744,,None,116.53518410003744,116.53518410003744,116.53518410003744,116.53518410003744,116.53518410003744,116.53518410003744,,,,,,080204,001,2023-11-21_12h09.29.714,REPSWITCH1_version2_list4,2022.2.4,143.94516290347855,
REPSWITCH1/PICTURE_178.png,puente,type,gold,repeat,1,T,1,4,4,2,Stim1_Set1,0,None,22,21,22,0,21,21,21,,,,,,,,,,,,,,,,,,,,,,,117.03525849990547,118.13259950000793,118.13259950000793,118.13259950000793,118.13259950000793,118.13259950000793,118.13259950000793,118.13259950000793,118.13259950000793,"['p', 'u', 'e', 'n', 't', 'e']",0,"[0.7349012000486255, 0.9402127000503242, 1.0508385000284761, 1.1883786001708359, 1.2820647000335157, 1.370020000031218]",puente,C:\2023\REPSWITCH21092023\REPSWITCH_excgange\REPSWITCH_excgange\data/080204_REPSWITCH1_version2_list4_2023-11-21_12h09.29.714_micRespv2l4_recorded\recording_micRespv2l4_2023-11-21_12h11.23.528.wav,121.16078789997846,,None,121.16078789997846,121.16078789997846,121.16078789997846,121.16078789997846,121.16078789997846,121.16078789997846,,,,,,080204,001,2023-11-21_12h09.29.714,REPSWITCH1_version2_list4,2022.2.4,143.94516290347855,
REPSWITCH1/PICTURE_16.png,cazador,type,gold,nontarget,1,NT,1,4,4,2,Stim6_Set1,1,repeat,23,22,23,0,22,22,22,,,,,,,,,,,,,,,,,,,,,,,121.66089559998363,122.72357229981571,122.72357229981571,122.72357229981571,122.72357229981571,122.72357229981571,122.72357229981571,122.72357229981571,122.72357229981571,"['c', 'a', 'z', 'a', 'd', 'o', 'r']",0,"[1.0868108000140637, 1.1934066000394523, 1.407685900107026, 1.5696352000813931, 1.7160501000471413, 1.9284006000962108, 2.0184724000282586]",cazador,C:\2023\REPSWITCH21092023\REPSWITCH_excgange\REPSWITCH_excgange\data/080204_REPSWITCH1_version2_list4_2023-11-21_12h09.29.714_micRespv2l4_recorded\recording_micRespv2l4_2023-11-21_12h11.28.118.wav,125.7517635000404,,None,125.7517635000404,125.7517635000404,125.7517635000404,125.7517635000404,125.7517635000404,125.7517635000404,,,,,,080204,001,2023-11-21_12h09.29.714,REPSWITCH1_version2_list4,2022.2.4,143.94516290347855,
REPSWITCH1/PICTURE_16.png,cazador,speak,darkblue,switch,2,T,1,4,4,2,Stim6_Set1,0,None,24,23,24,0,23,23,23,,,,,,,,,,,,,,,,,,,,,,,126.25173889985308,127.39770590001717,127.39770590001717,127.39770590001717,127.39770590001717,127.39770590001717,127.39770590001717,127.39770590001717,127.39770590001717,None,0,,,C:\2023\REPSWITCH21092023\REPSWITCH_excgange\REPSWITCH_excgange\data/080204_REPSWITCH1_version2_list4_2023-11-21_12h09.29.714_micRespv2l4_recorded\recording_micRespv2l4_2023-11-21_12h11.32.793.wav,130.41899030003697,130.9189834999852,None,130.41899030003697,130.41899030003697,130.41899030003697,130.41899030003697,130.41899030003697,130.41899030003697,,,,,,080204,001,2023-11-21_12h09.29.714,REPSWITCH1_version2_list4,2022.2.4,143.94516290347855,
REPSWITCH1/PICTURE_19.png,pavo,type,gold,filler,1,F,2,4,4,2,Stim5_Set1,0,None,25,24,25,0,24,24,24,,,,,,,,,,,,,,,,,,,,,,,130.9189834999852,131.92611979995854,131.92611979995854,131.92611979995854,131.92611979995854,131.92611979995854,131.92611979995854,131.92611979995854,131.92611979995854,"['p', 'a', 'o', 'backspace', 'v', 'o']",0,"[0.778901900164783, 0.8818188000004739, 1.183673599967733, 1.7473443001508713, 2.246666300110519, 2.3513172999955714]",pavo,C:\2023\REPSWITCH21092023\REPSWITCH_excgange\REPSWITCH_excgange\data/080204_REPSWITCH1_version2_list4_2023-11-21_12h09.29.714_micRespv2l4_recorded\recording_micRespv2l4_2023-11-21_12h11.37.321.wav,134.95428659999743,,None,134.95428659999743,134.95428659999743,134.95428659999743,134.95428659999743,134.95428659999743,134.95428659999743,,,,,,080204,001,2023-11-21_12h09.29.714,REPSWITCH1_version2_list4,2022.2.4,143.94516290347855,
REPSWITCH1/PICTURE_199.png,falda,type,gold,nontarget,1,NT,2,4,4,2,Stim8_Set2,1,repeat,26,25,26,0,25,25,25,,,,,,,,,,,,,,,,,,,,,,,135.45433830004185,136.57253589993343,136.57253589993343,136.57253589993343,136.57253589993343,136.57253589993343,136.57253589993343,136.57253589993343,136.57253589993343,"['f', 'a', 'l', 'd', 'a']",0,"[0.9334329001139849, 1.055974300019443, 1.1995419999584556, 1.5005079000256956, 1.6051475999411196]",falda,C:\2023\REPSWITCH21092023\REPSWITCH_excgange\REPSWITCH_excgange\data/080204_REPSWITCH1_version2_list4_2023-11-21_12h09.29.714_micRespv2l4_recorded\recording_micRespv2l4_2023-11-21_12h11.41.967.wav,139.59380949987099,140.0938047999516,None,139.59380949987099,139.59380949987099,139.59380949987099,139.59380949987099,139.59380949987099,139.59380949987099,,,,,,080204,001,2023-11-21_12h09.29.714,REPSWITCH1_version2_list4,2022.2.4,143.94516290347855,
REPSWITCH1/PICTURE_199.png,falda,type,gold,repeat,1,T,2,4,4,2,Stim8_Set2,0,None,27,26,27,0,26,26,26,,,,,,,,,,,,,,,,,,,,,,,140.0938047999516,141.14957579993643,141.14957579993643,141.14957579993643,141.14957579993643,141.14957579993643,141.14957579993643,141.14957579993643,141.14957579993643,"['f', 'a', 'l', 'd', 'a']",0,"[0.8287686998955905, 1.0679138000123203, 1.2681579999625683, 1.4057008000090718, 1.514427199959755]",falda,C:\2023\REPSWITCH21092023\REPSWITCH_excgange\REPSWITCH_excgange\data/080204_REPSWITCH1_version2_list4_2023-11-21_12h09.29.714_micRespv2l4_recorded\recording_micRespv2l4_2023-11-21_12h11.46.544.wav,144.17770090000704,,None,144.17770090000704,144.17770090000704,144.17770090000704,144.17770090000704,144.17770090000704,144.17770090000704,,,,,,080204,001,2023-11-21_12h09.29.714,REPSWITCH1_version2_list4,2022.2.4,143.94516290347855,
REPSWITCH1/PICTURE_178.png,puente,speak,darkblue,filler,2,F,2,4,4,2,Stim1_Set1,1,switch,28,27,28,0,27,27,27,,,,,,,,,,,,,,,,,,,,,,,144.6777649000287,145.72651299997233,145.72651299997233,145.72651299997233,145.72651299997233,145.72651299997233,145.72651299997233,145.72651299997233,145.72651299997233,None,0,,,C:\2023\REPSWITCH21092023\REPSWITCH_excgange\REPSWITCH_excgange\data/080204_REPSWITCH1_version2_list4_2023-11-21_12h09.29.714_micRespv2l4_recorded\recording_micRespv2l4_2023-11-21_12h11.51.121.wav,148.7547593000345,,None,148.7547593000345,148.7547593000345,148.7547593000345,148.7547593000345,148.7547593000345,148.7547593000345,,,,,,080204,001,2023-11-21_12h09.29.714,REPSWITCH1_version2_list4,2022.2.4,143.94516290347855,
REPSWITCH1/PICTURE_517.png,cuerda,type,gold,nontarget,1,NT,2,4,4,2,Stim4_Set2,1,switch,29,28,29,0,28,28,28,,,,,,,,,,,,,,,,,,,,,,,149.25475079985335,150.2896749000065,150.2896749000065,150.2896749000065,150.2896749000065,150.2896749000065,150.2896749000065,150.2896749000065,150.2896749000065,"['c', 'u', 'e', 'r', 'd', 'a']",0,"[0.8059002999216318, 1.028574600117281, 1.1367141001392156, 1.2413697999436408, 1.4498342999722809, 1.597303899936378]",cuerda,C:\2023\REPSWITCH21092023\REPSWITCH_excgange\REPSWITCH_excgange\data/080204_REPSWITCH1_version2_list4_2023-11-21_12h09.29.714_micRespv2l4_recorded\recording_micRespv2l4_2023-11-21_12h11.55.685.wav,153.317797599826,,None,153.317797599826,153.317797599826,153.317797599826,153.317797599826,153.317797599826,153.317797599826,,,,,,080204,001,2023-11-21_12h09.29.714,REPSWITCH1_version2_list4,2022.2.4,143.94516290347855,
REPSWITCH1/PICTURE_517.png,cuerda,type,gold,repeat,1,T,2,4,4,2,Stim4_Set2,0,None,30,29,30,0,29,29,29,,,,,,,,,,,,,,,,,,,,,,,153.81788809993304,154.83882780000567,154.83882780000567,154.83882780000567,154.83882780000567,154.83882780000567,154.83882780000567,154.83882780000567,154.83882780000567,"['c', 'u', 'e', 'r', 'd', 'a']",0,"[0.6319040001835674, 0.9036456001922488, 0.9724838002584875, 1.0750685001257807, 1.3003160001244396, 1.4338690000586212]",cuerda,C:\2023\REPSWITCH21092023\REPSWITCH_excgange\REPSWITCH_excgange\data/080204_REPSWITCH1_version2_list4_2023-11-21_12h09.29.714_micRespv2l4_recorded\recording_micRespv2l4_2023-11-21_12h12.00.234.wav,157.86696220003068,,None,157.86696220003068,157.86696220003068,157.86696220003068,157.86696220003068,157.86696220003068,157.86696220003068,,,,,,080204,001,2023-11-21_12h09.29.714,REPSWITCH1_version2_list4,2022.2.4,143.94516290347855,
REPSWITCH1/PICTURE_169.png,espalda,type,gold,filler,1,F,2,4,4,2,Stim8_Set1,0,None,31,30,31,0,30,30,30,,,,,,,,,,,,,,,,,,,,,,,158.36703530000523,159.39502119994722,159.39502119994722,159.39502119994722,159.39502119994722,159.39502119994722,159.39502119994722,159.39502119994722,159.39502119994722,"['e', 's', 'p', 'a', 'l', 'd', 'a']",0,"[0.6962766000069678, 0.9015883000101894, 1.0443656002171338, 1.145439200103283, 1.2987732000183314, 1.3904858001042157, 1.5030531000811607]",espalda,C:\2023\REPSWITCH21092023\REPSWITCH_excgange\REPSWITCH_excgange\data/080204_REPSWITCH1_version2_list4_2023-11-21_12h09.29.714_micRespv2l4_recorded\recording_micRespv2l4_2023-11-21_12h12.04.790.wav,162.42314089997672,,None,162.42314089997672,162.42314089997672,162.42314089997672,162.42314089997672,162.42314089997672,162.42314089997672,,,,,,080204,001,2023-11-21_12h09.29.714,REPSWITCH1_version2_list4,2022.2.4,143.94516290347855,
REPSWITCH1/PICTURE_673.png,tenedor,speak,darkblue,filler,2,F,2,4,4,2,Extra5,0,None,32,31,32,0,31,31,31,,,,,,,,,,,,,,,,,,,,,,,162.92319389991462,164.01361140003428,164.01361140003428,164.01361140003428,164.01361140003428,164.01361140003428,164.01361140003428,164.01361140003428,164.01361140003428,None,0,,,C:\2023\REPSWITCH21092023\REPSWITCH_excgange\REPSWITCH_excgange\data/080204_REPSWITCH1_version2_list4_2023-11-21_12h09.29.714_micRespv2l4_recorded\recording_micRespv2l4_2023-11-21_12h12.09.409.wav,167.04176869988441,,None,167.04176869988441,167.04176869988441,167.04176869988441,167.04176869988441,167.04176869988441,167.04176869988441,,,,,,080204,001,2023-11-21_12h09.29.714,REPSWITCH1_version2_list4,2022.2.4,143.94516290347855,
REPSWITCH1/PICTURE_142.png,vaso,type,gold,filler,1,F,2,4,4,2,Stim7_Set1,1,switch,33,32,33,0,32,32,32,,,,,,,,,,,,,,,,,,,,,,,167.5418414999731,168.5697812999133,168.5697812999133,168.5697812999133,168.5697812999133,168.5697812999133,168.5697812999133,168.5697812999133,168.5697812999133,"['v', 'a', 's', 'o']",0,"[0.8526071000378579, 1.0438812000211328, 1.1545051001012325, 1.3049667999148369]",vaso,C:\2023\REPSWITCH21092023\REPSWITCH_excgange\REPSWITCH_excgange\data/080204_REPSWITCH1_version2_list4_2023-11-21_12h09.29.714_micRespv2l4_recorded\recording_micRespv2l4_2023-11-21_12h12.13.963.wav,171.59098570002243,172.09107899991795,None,171.59098570002243,171.59098570002243,171.59098570002243,171.59098570002243,171.59098570002243,171.59098570002243,,,,,,080204,001,2023-11-21_12h09.29.714,REPSWITCH1_version2_list4,2022.2.4,143.94516290347855,
REPSWITCH1/PICTURE_552.png,manzana,type,gold,nontarget,1,NT,2,4,4,2,Stim6_Set2,1,repeat,34,33,34,0,33,33,33,,,,,,,,,,,,,,,,,,,,,,,172.09107899991795,173.18151679984294,173.18151679984294,173.18151679984294,173.18151679984294,173.18151679984294,173.18151679984294,173.18151679984294,173.18151679984294,"['m', 'a', 'n', 'z', 'a', 'n', 'a']",0,"[0.9119439001660794, 1.0225662000011653, 1.1640832000412047, 1.348471699981019, 1.5407799000386149, 1.6713059002067894, 1.7854362002108246]",manzana,C:\2023\REPSWITCH21092023\REPSWITCH_excgange\REPSWITCH_excgange\data/080204_REPSWITCH1_version2_list4_2023-11-21_12h09.29.714_micRespv2l4_recorded\recording_micRespv2l4_2023-11-21_12h12.18.577.wav,176.2096571000293,176.7097348999232,None,176.2096571000293,176.2096571000293,176.2096571000293,176.2096571000293,176.2096571000293,176.2096571000293,,,,,,080204,001,2023-11-21_12h09.29.714,REPSWITCH1_version2_list4,2022.2.4,143.94516290347855,
REPSWITCH1/PICTURE_552.png,manzana,speak,darkblue,switch,1,T,2,4,4,2,Stim6_Set2,0,None,35,34,35,0,34,34,34,,,,,,,,,,,,,,,,,,,,,,,176.7097348999232,177.7515618999023,177.7515618999023,177.7515618999023,177.7515618999023,177.7515618999023,177.7515618999023,177.7515618999023,177.7515618999023,None,0,,,C:\2023\REPSWITCH21092023\REPSWITCH_excgange\REPSWITCH_excgange\data/080204_REPSWITCH1_version2_list4_2023-11-21_12h09.29.714_micRespv2l4_recorded\recording_micRespv2l4_2023-11-21_12h12.23.146.wav,180.77972059999593,181.27975549991243,None,180.77972059999593,180.77972059999593,180.77972059999593,180.77972059999593,180.77972059999593,180.77972059999593,,,,,,080204,001,2023-11-21_12h09.29.714,REPSWITCH1_version2_list4,2022.2.4,143.94516290347855,
REPSWITCH1/PICTURE_135.png,traje,speak,darkblue,filler,2,F,2,4,4,2,Stim3_Set1,0,None,36,35,36,0,35,35,35,,,,,,,,,,,,,,,,,,,,,,,181.27975549991243,182.349344199989,182.349344199989,182.349344199989,182.349344199989,182.349344199989,182.349344199989,182.349344199989,182.349344199989,None,0,,,C:\2023\REPSWITCH21092023\REPSWITCH_excgange\REPSWITCH_excgange\data/080204_REPSWITCH1_version2_list4_2023-11-21_12h09.29.714_micRespv2l4_recorded\recording_micRespv2l4_2023-11-21_12h12.27.743.wav,185.37751979986206,,None,185.37751979986206,185.37751979986206,185.37751979986206,185.37751979986206,185.37751979986206,185.37751979986206,,,,,,080204,001,2023-11-21_12h09.29.714,REPSWITCH1_version2_list4,2022.2.4,143.94516290347855,
REPSWITCH1/PICTURE_152.png,caracol,speak,darkblue,nontarget,2,NT,2,4,4,2,Stim2_Set2,1,repeat,37,36,37,0,36,36,36,,,,,,,,,,,,,,,,,,,,,,,185.87759879999794,186.9263343999628,186.9263343999628,186.9263343999628,186.9263343999628,186.9263343999628,186.9263343999628,186.9263343999628,186.9263343999628,None,0,,,C:\2023\REPSWITCH21092023\REPSWITCH_excgange\REPSWITCH_excgange\data/080204_REPSWITCH1_version2_list4_2023-11-21_12h09.29.714_micRespv2l4_recorded\recording_micRespv2l4_2023-11-21_12h12.32.321.wav,189.94758319994435,190.44763369997963,None,189.94758319994435,189.94758319994435,189.94758319994435,189.94758319994435,189.94758319994435,189.94758319994435,,,,,,080204,001,2023-11-21_12h09.29.714,REPSWITCH1_version2_list4,2022.2.4,143.94516290347855,
REPSWITCH1/PICTURE_152.png,caracol,type,gold,switch,1,T,2,4,4,2,Stim2_Set2,0,None,38,37,38,0,37,37,37,,,,,,,,,,,,,,,,,,,,,,,190.44763369997963,191.6075930998195,191.6075930998195,191.6075930998195,191.6075930998195,191.6075930998195,191.6075930998195,191.6075930998195,191.6075930998195,"['c', 'a', 'r', 'a', 'c', 'o', 'l']",0,"[0.644867000170052, 0.8062865000683814, 0.9471548001747578, 1.0697039000224322, 1.314918200019747, 1.4505415000021458, 1.702635900117457]",caracol,C:\2023\REPSWITCH21092023\REPSWITCH_excgange\REPSWITCH_excgange\data/080204_REPSWITCH1_version2_list4_2023-11-21_12h09.29.714_micRespv2l4_recorded\recording_micRespv2l4_2023-11-21_12h12.37.002.wav,194.63571970001794,,None,194.63571970001794,194.63571970001794,194.63571970001794,194.63571970001794,194.63571970001794,194.63571970001794,,,,,,080204,001,2023-11-21_12h09.29.714,REPSWITCH1_version2_list4,2022.2.4,143.94516290347855,
REPSWITCH1/PICTURE_381.png,fresa,type,gold,filler,1,F,2,4,4,2,Stim2_Set1,0,None,39,38,39,0,38,38,38,,,,,,,,,,,,,,,,,,,,,,,195.13581709982827,196.1775674999226,196.1775674999226,196.1775674999226,196.1775674999226,196.1775674999226,196.1775674999226,196.1775674999226,196.1775674999226,"['f', 'r', 'e', 's', 'a']",0,"[0.7544229000341147, 0.9966323000844568, 1.018546300008893, 1.3055839000735432, 1.5421054000034928]",fresa,C:\2023\REPSWITCH21092023\REPSWITCH_excgange\REPSWITCH_excgange\data/080204_REPSWITCH1_version2_list4_2023-11-21_12h09.29.714_micRespv2l4_recorded\recording_micRespv2l4_2023-11-21_12h12.41.573.wav,199.19875239999965,199.6988339999225,None,199.19875239999965,199.19875239999965,199.19875239999965,199.19875239999965,199.19875239999965,199.19875239999965,,,,,,080204,001,2023-11-21_12h09.29.714,REPSWITCH1_version2_list4,2022.2.4,143.94516290347855,
REPSWITCH1/PICTURE_446.png,cerdo,type,gold,nontarget,1,NT,2,4,4,2,Stim7_Set2,1,repeat,40,39,40,0,39,39,39,,,,,,,,,,,,,,,,,,,,,,,199.6988339999225,200.7684394000098,200.7684394000098,200.7684394000098,200.7684394000098,200.7684394000098,200.7684394000098,200.7684394000098,200.7684394000098,"['c', 'e', 'r', 'd', 'o']",0,"[0.7227094999980181, 0.8673394001089036, 0.9952249000780284, 1.3063081000000238, 1.4351790000218898]",cerdo,C:\2023\REPSWITCH21092023\REPSWITCH_excgange\REPSWITCH_excgange\data/080204_REPSWITCH1_version2_list4_2023-11-21_12h09.29.714_micRespv2l4_recorded\recording_micRespv2l4_2023-11-21_12h12.46.163.wav,203.79660809994675,,None,203.79660809994675,203.79660809994675,203.79660809994675,203.79660809994675,203.79660809994675,203.79660809994675,,,,,,080204,001,2023-11-21_12h09.29.714,REPSWITCH1_version2_list4,2022.2.4,143.94516290347855,
REPSWITCH1/PICTURE_446.png,cerdo,speak,darkblue,switch,2,T,2,4,4,2,Stim7_Set2,0,None,41,40,41,0,40,40,40,,,,,,,,,,,,,,,,,,,,,,,204.29666220000945,205.47737740003504,205.47737740003504,205.47737740003504,205.47737740003504,205.47737740003504,205.47737740003504,205.47737740003504,205.47737740003504,None,0,,,C:\2023\REPSWITCH21092023\REPSWITCH_excgange\REPSWITCH_excgange\data/080204_REPSWITCH1_version2_list4_2023-11-21_12h09.29.714_micRespv2l4_recorded\recording_micRespv2l4_2023-11-21_12h12.50.872.wav,208.5055688000284,,None,208.5055688000284,208.5055688000284,208.5055688000284,208.5055688000284,208.5055688000284,208.5055688000284,,,,,,080204,001,2023-11-21_12h09.29.714,REPSWITCH1_version2_list4,2022.2.4,143.94516290347855,
REPSWITCH1/PICTURE_264.png,mano,speak,darkblue,nontarget,2,NT,2,4,4,2,Stim3_Set2,0,None,42,41,42,0,41,41,41,,,,,,,,,,,,,,,,,,,,,,,209.00563140003942,210.10301780002192,210.10301780002192,210.10301780002192,210.10301780002192,210.10301780002192,210.10301780002192,210.10301780002192,210.10301780002192,None,0,,,C:\2023\REPSWITCH21092023\REPSWITCH_excgange\REPSWITCH_excgange\data/080204_REPSWITCH1_version2_list4_2023-11-21_12h09.29.714_micRespv2l4_recorded\recording_micRespv2l4_2023-11-21_12h12.55.497.wav,213.12418849999085,213.6243604000192,None,213.12418849999085,213.12418849999085,213.12418849999085,213.12418849999085,213.12418849999085,213.12418849999085,,,,,,080204,001,2023-11-21_12h09.29.714,REPSWITCH1_version2_list4,2022.2.4,143.94516290347855,
REPSWITCH1/PICTURE_264.png,mano,speak,darkblue,repeat,2,T,2,4,4,2,Stim3_Set2,0,None,43,42,43,0,42,42,42,,,,,,,,,,,,,,,,,,,,,,,213.6243604000192,214.87449049996212,214.87449049996212,214.87449049996212,214.87449049996212,214.87449049996212,214.87449049996212,214.87449049996212,214.87449049996212,None,0,,,C:\2023\REPSWITCH21092023\REPSWITCH_excgange\REPSWITCH_excgange\data/080204_REPSWITCH1_version2_list4_2023-11-21_12h09.29.714_micRespv2l4_recorded\recording_micRespv2l4_2023-11-21_12h13.00.268.wav,217.8956848999951,218.39573189988732,None,217.8956848999951,217.8956848999951,217.8956848999951,217.8956848999951,217.8956848999951,217.8956848999951,,,,,,080204,001,2023-11-21_12h09.29.714,REPSWITCH1_version2_list4,2022.2.4,143.94516290347855,
REPSWITCH1/PICTURE_128.png,muñeca,type,gold,filler,1,F,2,4,4,2,Stim4_Set1,0,None,44,43,44,0,43,43,43,,,,,,,,,,,,,,,,,,,,,,,218.39573189988732,219.4375545999501,219.4375545999501,219.4375545999501,219.4375545999501,219.4375545999501,219.4375545999501,219.4375545999501,219.4375545999501,"['m', 'u', 'ñ', 'e', 'c', 'a']",0,"[0.8122613001614809, 1.0923280001152307, 1.5511644000653177, 1.6671634002123028, 2.0050712001975626, 2.1465580000076443]",muñeca,C:\2023\REPSWITCH21092023\REPSWITCH_excgange\REPSWITCH_excgange\data/080204_REPSWITCH1_version2_list4_2023-11-21_12h09.29.714_micRespv2l4_recorded\recording_micRespv2l4_2023-11-21_12h13.04.832.wav,222.458754299907,222.95882099983282,None,222.458754299907,222.458754299907,222.458754299907,222.458754299907,222.458754299907,222.458754299907,,,,,,080204,001,2023-11-21_12h09.29.714,REPSWITCH1_version2_list4,2022.2.4,143.94516290347855,
REPSWITCH1/PICTURE_30.png,granja,speak,darkblue,nontarget,2,NT,2,4,4,2,Stim5_Set2,1,switch,45,44,45,0,44,44,44,,,,,,,,,,,,,,,,,,,,,,,222.95882099983282,224.02153549995273,224.02153549995273,224.02153549995273,224.02153549995273,224.02153549995273,224.02153549995273,224.02153549995273,224.02153549995273,None,0,,,C:\2023\REPSWITCH21092023\REPSWITCH_excgange\REPSWITCH_excgange\data/080204_REPSWITCH1_version2_list4_2023-11-21_12h09.29.714_micRespv2l4_recorded\recording_micRespv2l4_2023-11-21_12h13.09.416.wav,227.04965880000964,,None,227.04965880000964,227.04965880000964,227.04965880000964,227.04965880000964,227.04965880000964,227.04965880000964,,,,,,080204,001,2023-11-21_12h09.29.714,REPSWITCH1_version2_list4,2022.2.4,143.94516290347855,
REPSWITCH1/PICTURE_30.png,granja,speak,darkblue,repeat,2,T,2,4,4,2,Stim5_Set2,0,None,46,45,46,0,45,45,45,,,,,,,,,,,,,,,,,,,,,,,227.5497081000358,228.69568939995952,228.69568939995952,228.69568939995952,228.69568939995952,228.69568939995952,228.69568939995952,228.69568939995952,228.69568939995952,None,0,,,C:\2023\REPSWITCH21092023\REPSWITCH_excgange\REPSWITCH_excgange\data/080204_REPSWITCH1_version2_list4_2023-11-21_12h09.29.714_micRespv2l4_recorded\recording_micRespv2l4_2023-11-21_12h13.14.091.wav,231.71691669989377,232.2169561998453,None,231.71691669989377,231.71691669989377,231.71691669989377,231.71691669989377,231.71691669989377,231.71691669989377,,,,,,080204,001,2023-11-21_12h09.29.714,REPSWITCH1_version2_list4,2022.2.4,143.94516290347855,
REPSWITCH1/PICTURE_646.png,tronco,type,gold,filler,1,F,2,4,4,2,Extra4,0,None,47,46,47,0,46,46,46,,,,,,,,,,,,,,,,,,,,,,,232.2169561998453,233.34916029986925,233.34916029986925,233.34916029986925,233.34916029986925,233.34916029986925,233.34916029986925,233.34916029986925,233.34916029986925,"['t', 'r', 'o', 'n', 'c', 'o']",0,"[0.9305171000305563, 1.0025339000858366, 1.310724399983883, 1.4582625001203269, 1.5878897001966834, 1.7280294001102448]",tronco,C:\2023\REPSWITCH21092023\REPSWITCH_excgange\REPSWITCH_excgange\data/080204_REPSWITCH1_version2_list4_2023-11-21_12h09.29.714_micRespv2l4_recorded\recording_micRespv2l4_2023-11-21_12h13.18.743.wav,236.3702838998288,236.8704046998173,None,236.3702838998288,236.3702838998288,236.3702838998288,236.3702838998288,236.3702838998288,236.3702838998288,,,,,,080204,001,2023-11-21_12h09.29.714,REPSWITCH1_version2_list4,2022.2.4,143.94516290347855,
REPSWITCH1/PICTURE_16.png,cazador,speak,darkblue,filler,2,F,2,4,4,2,Stim6_Set1,0,None,48,47,48,0,47,47,47,,,,,,,,,,,,,,,,,,,,,,,236.8704046998173,237.9607877000235,237.9607877000235,237.9607877000235,237.9607877000235,237.9607877000235,237.9607877000235,237.9607877000235,237.9607877000235,None,0,,,C:\2023\REPSWITCH21092023\REPSWITCH_excgange\REPSWITCH_excgange\data/080204_REPSWITCH1_version2_list4_2023-11-21_12h09.29.714_micRespv2l4_recorded\recording_micRespv2l4_2023-11-21_12h13.23.356.wav,240.9889566998463,,None,240.9889566998463,240.9889566998463,240.9889566998463,240.9889566998463,240.9889566998463,240.9889566998463,,,,,,080204,001,2023-11-21_12h09.29.714,REPSWITCH1_version2_list4,2022.2.4,143.94516290347855,
REPSWITCH1/PICTURE_175.png,pintor,speak,darkblue,nontarget,2,NT,2,4,4,2,Stim1_Set2,1,repeat,49,48,49,0,48,48,48,,,,,,,,,,,,,,,,,,,,,,,241.4890457999427,242.57952759996988,242.57952759996988,242.57952759996988,242.57952759996988,242.57952759996988,242.57952759996988,242.57952759996988,242.57952759996988,None,0,,,C:\2023\REPSWITCH21092023\REPSWITCH_excgange\REPSWITCH_excgange\data/080204_REPSWITCH1_version2_list4_2023-11-21_12h09.29.714_micRespv2l4_recorded\recording_micRespv2l4_2023-11-21_12h13.27.974.wav,245.6076290998608,,None,245.6076290998608,245.6076290998608,245.6076290998608,245.6076290998608,245.6076290998608,245.6076290998608,,,,,,080204,001,2023-11-21_12h09.29.714,REPSWITCH1_version2_list4,2022.2.4,143.94516290347855,
REPSWITCH1/PICTURE_175.png,pintor,type,gold,switch,1,T,2,4,4,2,Stim1_Set2,0,None,50,49,50,0,49,49,49,,,,,,,,,,,,,,,,,,,,,,,246.1077182998415,247.14952389989048,247.14952389989048,247.14952389989048,247.14952389989048,247.14952389989048,247.14952389989048,247.14952389989048,247.14952389989048,"['p', 'i', 'n', 't', 'o', 'r']",0,"[1.163387400098145, 1.634652400156483, 1.8519270999822766, 2.025625300128013, 2.1362714001443237, 2.2608295001555234]",pintor,C:\2023\REPSWITCH21092023\REPSWITCH_excgange\REPSWITCH_excgange\data/080204_REPSWITCH1_version2_list4_2023-11-21_12h09.29.714_micRespv2l4_recorded\recording_micRespv2l4_2023-11-21_12h13.32.544.wav,250.1776745999232,,None,250.1776745999232,250.1776745999232,250.1776745999232,250.1776745999232,250.1776745999232,250.1776745999232,,,,,,080204,001,2023-11-21_12h09.29.714,REPSWITCH1_version2_list4,2022.2.4,143.94516290347855,
REPSWITCH1/PICTURE_663.png,columna,speak,darkblue,filler,2,F,4,4,4,2,Extra6,0,None,51,50,51,0,50,50,50,,,,,,,,,,,,,,,,,,,,,,,250.6777241998352,251.86549169989303,251.86549169989303,251.86549169989303,251.86549169989303,251.86549169989303,251.86549169989303,251.86549169989303,251.86549169989303,None,0,,,C:\2023\REPSWITCH21092023\REPSWITCH_excgange\REPSWITCH_excgange\data/080204_REPSWITCH1_version2_list4_2023-11-21_12h09.29.714_micRespv2l4_recorded\recording_micRespv2l4_2023-11-21_12h13.37.260.wav,254.8936605998315,,space,254.8936605998315,254.8936605998315,254.8936605998315,254.8936605998315,254.8936605998315,254.8936605998315,255.39363329997286,255.39363329997286,1.7419379001948982,,,080204,001,2023-11-21_12h09.29.714,REPSWITCH1_version2_list4,2022.2.4,143.94516290347855,
REPSWITCH1/PICTURE_35.png,oreja,type,gold,nontarget,1,NT,3,4,4,2,Stim5_Set3,0,None,52,51,52,0,51,51,51,,,,,,,,,,,,,,,,,,,,,,,257.14384829998016,258.29679669998586,258.29679669998586,258.29679669998586,258.29679669998586,258.29679669998586,258.29679669998586,258.29679669998586,258.29679669998586,"['p', 'r', 'e', 'j', 'a', 'backspace', 'backspace', 'backspace', 'backspace', 'backspace']",0,"[0.8082946001086384, 0.9342157002538443, 1.0179278003051877, 1.181384300114587, 1.3179212003014982, 1.773238600231707, 2.0893109003081918, 2.243754800176248, 2.393291500164196, 2.567694300087169]",,C:\2023\REPSWITCH21092023\REPSWITCH_excgange\REPSWITCH_excgange\data/080204_REPSWITCH1_version2_list4_2023-11-21_12h09.29.714_micRespv2l4_recorded\recording_micRespv2l4_2023-11-21_12h13.43.691.wav,261.31801049993373,261.8180972998962,None,261.31801049993373,261.31801049993373,261.31801049993373,261.31801049993373,261.31801049993373,261.31801049993373,,,,,,080204,001,2023-11-21_12h09.29.714,REPSWITCH1_version2_list4,2022.2.4,143.94516290347855,
REPSWITCH1/PICTURE_35.png,oreja,speak,darkblue,switch,2,T,3,4,4,2,Stim5_Set3,0,None,53,52,53,0,52,52,52,,,,,,,,,,,,,,,,,,,,,,,261.8180972998962,262.9432281998452,262.9432281998452,262.9432281998452,262.9432281998452,262.9432281998452,262.9432281998452,262.9432281998452,262.9432281998452,None,0,,,C:\2023\REPSWITCH21092023\REPSWITCH_excgange\REPSWITCH_excgange\data/080204_REPSWITCH1_version2_list4_2023-11-21_12h09.29.714_micRespv2l4_recorded\recording_micRespv2l4_2023-11-21_12h13.48.337.wav,265.96445139986463,266.4645240998361,None,265.96445139986463,265.96445139986463,265.96445139986463,265.96445139986463,265.96445139986463,265.96445139986463,,,,,,080204,001,2023-11-21_12h09.29.714,REPSWITCH1_version2_list4,2022.2.4,143.94516290347855,
REPSWITCH1/PICTURE_199.png,falda,speak,darkblue,filler,2,F,3,4,4,2,Stim8_Set2,0,None,54,53,54,0,53,53,53,,,,,,,,,,,,,,,,,,,,,,,266.4645240998361,267.4994129999541,267.4994129999541,267.4994129999541,267.4994129999541,267.4994129999541,267.4994129999541,267.4994129999541,267.4994129999541,None,0,,,C:\2023\REPSWITCH21092023\REPSWITCH_excgange\REPSWITCH_excgange\data/080204_REPSWITCH1_version2_list4_2023-11-21_12h09.29.714_micRespv2l4_recorded\recording_micRespv2l4_2023-11-21_12h13.52.893.wav,270.52062859991565,271.0206964998506,None,270.52062859991565,270.52062859991565,270.52062859991565,270.52062859991565,270.52062859991565,270.52062859991565,,,,,,080204,001,2023-11-21_12h09.29.714,REPSWITCH1_version2_list4,2022.2.4,143.94516290347855,
REPSWITCH1/PICTURE_576.png,guante,speak,darkblue,nontarget,2,NT,3,4,4,2,Stim1_Set3,1,repeat,55,54,55,0,54,54,54,,,,,,,,,,,,,,,,,,,,,,,271.0206964998506,272.04165939986706,272.04165939986706,272.04165939986706,272.04165939986706,272.04165939986706,272.04165939986706,272.04165939986706,272.04165939986706,None,0,,,C:\2023\REPSWITCH21092023\REPSWITCH_excgange\REPSWITCH_excgange\data/080204_REPSWITCH1_version2_list4_2023-11-21_12h09.29.714_micRespv2l4_recorded\recording_micRespv2l4_2023-11-21_12h13.57.437.wav,275.06980369985104,,None,275.06980369985104,275.06980369985104,275.06980369985104,275.06980369985104,275.06980369985104,275.06980369985104,,,,,,080204,001,2023-11-21_12h09.29.714,REPSWITCH1_version2_list4,2022.2.4,143.94516290347855,
REPSWITCH1/PICTURE_576.png,guante,type,gold,switch,1,T,3,4,4,2,Stim1_Set3,0,None,56,55,56,0,55,55,55,,,,,,,,,,,,,,,,,,,,,,,275.569864399964,276.7645157999359,276.7645157999359,276.7645157999359,276.7645157999359,276.7645157999359,276.7645157999359,276.7645157999359,276.7645157999359,"['g', 'u', 'a', 'n', 't', 'e']",0,"[1.0867799001280218, 1.2416274000424892, 1.5047913000453264, 1.7410107001196593, 1.9263928001746535, 2.0101118001621217]",guante,C:\2023\REPSWITCH21092023\REPSWITCH_excgange\REPSWITCH_excgange\data/080204_REPSWITCH1_version2_list4_2023-11-21_12h09.29.714_micRespv2l4_recorded\recording_micRespv2l4_2023-11-21_12h14.02.159.wav,279.785778200021,280.2857725999784,None,279.785778200021,279.785778200021,279.785778200021,279.785778200021,279.785778200021,279.785778200021,,,,,,080204,001,2023-11-21_12h09.29.714,REPSWITCH1_version2_list4,2022.2.4,143.94516290347855,
REPSWITCH1/PICTURE_517.png,cuerda,type,gold,filler,1,F,3,4,4,2,Stim4_Set2,1,repeat,57,56,57,0,56,56,56,,,,,,,,,,,,,,,,,,,,,,,280.2857725999784,281.3693247998599,281.3693247998599,281.3693247998599,281.3693247998599,281.3693247998599,281.3693247998599,281.3693247998599,281.3693247998599,"['c', 'u', 'e', 'r', 'd', 'a']",0,"[1.1967776000965387, 1.363212700234726, 1.4710390002001077, 1.5440431002061814, 1.767594300210476, 1.8842092002741992]",cuerda,C:\2023\REPSWITCH21092023\REPSWITCH_excgange\REPSWITCH_excgange\data/080204_REPSWITCH1_version2_list4_2023-11-21_12h09.29.714_micRespv2l4_recorded\recording_micRespv2l4_2023-11-21_12h14.06.763.wav,284.39046179992147,284.8905678000301,None,284.39046179992147,284.39046179992147,284.39046179992147,284.39046179992147,284.39046179992147,284.39046179992147,,,,,,080204,001,2023-11-21_12h09.29.714,REPSWITCH1_version2_list4,2022.2.4,143.94516290347855,
REPSWITCH1/PICTURE_271.png,conejo,type,gold,nontarget,1,NT,3,4,4,2,Stim7_Set3,1,repeat,58,57,58,0,57,57,57,,,,,,,,,,,,,,,,,,,,,,,284.8905678000301,285.9323732999619,285.9323732999619,285.9323732999619,285.9323732999619,285.9323732999619,285.9323732999619,285.9323732999619,285.9323732999619,"['c', 'o', 'n', 'e', 'j', 'o']",0,"[0.8456811001524329, 1.0523284003138542, 1.1968271001242101, 1.2844913001172245, 1.4970436003059149, 1.5518382003065199]",conejo,C:\2023\REPSWITCH21092023\REPSWITCH_excgange\REPSWITCH_excgange\data/080204_REPSWITCH1_version2_list4_2023-11-21_12h09.29.714_micRespv2l4_recorded\recording_micRespv2l4_2023-11-21_12h14.11.327.wav,288.95356519985944,289.4536603000015,None,288.95356519985944,288.95356519985944,288.95356519985944,288.95356519985944,288.95356519985944,288.95356519985944,,,,,,080204,001,2023-11-21_12h09.29.714,REPSWITCH1_version2_list4,2022.2.4,143.94516290347855,
REPSWITCH1/PICTURE_271.png,conejo,speak,darkblue,switch,2,T,3,4,4,2,Stim7_Set3,0,None,59,58,59,0,58,58,58,,,,,,,,,,,,,,,,,,,,,,,289.4536603000015,290.71777400001884,290.71777400001884,290.71777400001884,290.71777400001884,290.71777400001884,290.71777400001884,290.71777400001884,290.71777400001884,None,0,,,C:\2023\REPSWITCH21092023\REPSWITCH_excgange\REPSWITCH_excgange\data/080204_REPSWITCH1_version2_list4_2023-11-21_12h09.29.714_micRespv2l4_recorded\recording_micRespv2l4_2023-11-21_12h14.16.112.wav,293.73891890002415,294.2390089998953,None,293.73891890002415,293.73891890002415,293.73891890002415,293.73891890002415,293.73891890002415,293.73891890002415,,,,,,080204,001,2023-11-21_12h09.29.714,REPSWITCH1_version2_list4,2022.2.4,143.94516290347855,
REPSWITCH1/PICTURE_552.png,manzana,type,gold,filler,1,F,3,4,4,2,Stim6_Set2,0,None,60,59,60,0,59,59,59,,,,,,,,,,,,,,,,,,,,,,,294.2390089998953,295.2530445000157,295.2530445000157,295.2530445000157,295.2530445000157,295.2530445000157,295.2530445000157,295.2530445000157,295.2530445000157,"['m', 'a', 'n', 'z', 'a', 'n', 'a']",0,"[0.8546882001683116, 0.9703237002249807, 1.108865800080821, 1.249383400194347, 1.4148069000802934, 1.6151609001681209, 1.6779664002824575]",manzana,C:\2023\REPSWITCH21092023\REPSWITCH_excgange\REPSWITCH_excgange\data/080204_REPSWITCH1_version2_list4_2023-11-21_12h09.29.714_micRespv2l4_recorded\recording_micRespv2l4_2023-11-21_12h14.20.648.wav,298.28120870003477,,None,298.28120870003477,298.28120870003477,298.28120870003477,298.28120870003477,298.28120870003477,298.28120870003477,,,,,,080204,001,2023-11-21_12h09.29.714,REPSWITCH1_version2_list4,2022.2.4,143.94516290347855,
REPSWITCH1/PICTURE_242.png,cartero,speak,darkblue,nontarget,2,NT,3,4,4,2,Stim3_Set3,1,switch,61,60,61,0,60,60,60,,,,,,,,,,,,,,,,,,,,,,,298.78126509999856,299.86478199996054,299.86478199996054,299.86478199996054,299.86478199996054,299.86478199996054,299.86478199996054,299.86478199996054,299.86478199996054,None,0,,,C:\2023\REPSWITCH21092023\REPSWITCH_excgange\REPSWITCH_excgange\data/080204_REPSWITCH1_version2_list4_2023-11-21_12h09.29.714_micRespv2l4_recorded\recording_micRespv2l4_2023-11-21_12h14.25.260.wav,302.8859389999416,303.3860480999574,None,302.8859389999416,302.8859389999416,302.8859389999416,302.8859389999416,302.8859389999416,302.8859389999416,,,,,,080204,001,2023-11-21_12h09.29.714,REPSWITCH1_version2_list4,2022.2.4,143.94516290347855,
REPSWITCH1/PICTURE_242.png,cartero,speak,darkblue,repeat,2,T,3,4,4,2,Stim3_Set3,0,None,62,61,62,0,61,61,61,,,,,,,,,,,,,,,,,,,,,,,303.3860480999574,304.40004740003496,304.40004740003496,304.40004740003496,304.40004740003496,304.40004740003496,304.40004740003496,304.40004740003496,304.40004740003496,None,0,,,C:\2023\REPSWITCH21092023\REPSWITCH_excgange\REPSWITCH_excgange\data/080204_REPSWITCH1_version2_list4_2023-11-21_12h09.29.714_micRespv2l4_recorded\recording_micRespv2l4_2023-11-21_12h14.29.794.wav,307.42137110000476,307.92141689988784,None,307.42137110000476,307.42137110000476,307.42137110000476,307.42137110000476,307.42137110000476,307.42137110000476,,,,,,080204,001,2023-11-21_12h09.29.714,REPSWITCH1_version2_list4,2022.2.4,143.94516290347855,
REPSWITCH1/PICTURE_152.png,caracol,speak,darkblue,filler,2,F,3,4,4,2,Stim2_Set2,0,None,63,62,63,0,62,62,62,,,,,,,,,,,,,,,,,,,,,,,307.92141689988784,308.9978789000306,308.9978789000306,308.9978789000306,308.9978789000306,308.9978789000306,308.9978789000306,308.9978789000306,308.9978789000306,None,0,,,C:\2023\REPSWITCH21092023\REPSWITCH_excgange\REPSWITCH_excgange\data/080204_REPSWITCH1_version2_list4_2023-11-21_12h09.29.714_micRespv2l4_recorded\recording_micRespv2l4_2023-11-21_12h14.34.392.wav,312.0190967998933,312.5191868999973,None,312.0190967998933,312.0190967998933,312.0190967998933,312.0190967998933,312.0190967998933,312.0190967998933,,,,,,080204,001,2023-11-21_12h09.29.714,REPSWITCH1_version2_list4,2022.2.4,143.94516290347855,
REPSWITCH1/PICTURE_446.png,cerdo,type,gold,filler,1,F,3,4,4,2,Stim7_Set2,1,switch,64,63,64,0,63,63,63,,,,,,,,,,,,,,,,,,,,,,,312.5191868999973,313.64431230002083,313.64431230002083,313.64431230002083,313.64431230002083,313.64431230002083,313.64431230002083,313.64431230002083,313.64431230002083,"['c', 'e', 'r', 'd', 'o']",0,"[0.7166075999848545, 0.8920660000294447, 0.9938952000811696, 1.164565300103277, 1.2885521999560297]",cerdo,C:\2023\REPSWITCH21092023\REPSWITCH_excgange\REPSWITCH_excgange\data/080204_REPSWITCH1_version2_list4_2023-11-21_12h09.29.714_micRespv2l4_recorded\recording_micRespv2l4_2023-11-21_12h14.39.038.wav,316.6656315999571,317.16563929989934,None,316.6656315999571,316.6656315999571,316.6656315999571,316.6656315999571,316.6656315999571,316.6656315999571,,,,,,080204,001,2023-11-21_12h09.29.714,REPSWITCH1_version2_list4,2022.2.4,143.94516290347855,
REPSWITCH1/PICTURE_610.png,miel,speak,darkblue,nontarget,2,NT,3,4,4,2,Stim2_Set3,1,switch,65,64,65,0,64,64,64,,,,,,,,,,,,,,,,,,,,,,,317.16563929989934,318.29775729984976,318.29775729984976,318.29775729984976,318.29775729984976,318.29775729984976,318.29775729984976,318.29775729984976,318.29775729984976,None,0,,,C:\2023\REPSWITCH21092023\REPSWITCH_excgange\REPSWITCH_excgange\data/080204_REPSWITCH1_version2_list4_2023-11-21_12h09.29.714_micRespv2l4_recorded\recording_micRespv2l4_2023-11-21_12h14.43.692.wav,321.32586520002224,,None,321.32586520002224,321.32586520002224,321.32586520002224,321.32586520002224,321.32586520002224,321.32586520002224,,,,,,080204,001,2023-11-21_12h09.29.714,REPSWITCH1_version2_list4,2022.2.4,143.94516290347855,
REPSWITCH1/PICTURE_610.png,miel,speak,darkblue,repeat,2,T,3,4,4,2,Stim2_Set3,0,None,66,65,66,0,65,65,65,,,,,,,,,,,,,,,,,,,,,,,321.82592689991,322.9650467999745,322.9650467999745,322.9650467999745,322.9650467999745,322.9650467999745,322.9650467999745,322.9650467999745,322.9650467999745,None,0,,,C:\2023\REPSWITCH21092023\REPSWITCH_excgange\REPSWITCH_excgange\data/080204_REPSWITCH1_version2_list4_2023-11-21_12h09.29.714_micRespv2l4_recorded\recording_micRespv2l4_2023-11-21_12h14.48.359.wav,325.99316899990663,,None,325.99316899990663,325.99316899990663,325.99316899990663,325.99316899990663,325.99316899990663,325.99316899990663,,,,,,080204,001,2023-11-21_12h09.29.714,REPSWITCH1_version2_list4,2022.2.4,143.94516290347855,
REPSWITCH1/PICTURE_320.png,iglesia,speak,darkblue,nontarget,2,NT,3,4,4,2,Stim8_Set3,1,repeat,67,66,67,0,66,66,66,,,,,,,,,,,,,,,,,,,,,,,326.4932339999359,327.5628039999865,327.5628039999865,327.5628039999865,327.5628039999865,327.5628039999865,327.5628039999865,327.5628039999865,327.5628039999865,None,0,,,C:\2023\REPSWITCH21092023\REPSWITCH_excgange\REPSWITCH_excgange\data/080204_REPSWITCH1_version2_list4_2023-11-21_12h09.29.714_micRespv2l4_recorded\recording_micRespv2l4_2023-11-21_12h14.52.957.wav,330.59101999993436,,None,330.59101999993436,330.59101999993436,330.59101999993436,330.59101999993436,330.59101999993436,330.59101999993436,,,,,,080204,001,2023-11-21_12h09.29.714,REPSWITCH1_version2_list4,2022.2.4,143.94516290347855,
REPSWITCH1/PICTURE_320.png,iglesia,type,gold,switch,1,T,3,4,4,2,Stim8_Set3,0,None,68,67,68,0,67,67,67,,,,,,,,,,,,,,,,,,,,,,,331.0910570998676,332.2648422999773,332.2648422999773,332.2648422999773,332.2648422999773,332.2648422999773,332.2648422999773,332.2648422999773,332.2648422999773,"['i', 'g', 'l', 'e', 's', 'i', 'a']",0,"[0.6075095001142472, 0.7798756000120193, 1.2188460000324994, 1.3284169000107795, 1.535857600159943, 1.6925408001989126, 1.8120769001543522]",iglesia,C:\2023\REPSWITCH21092023\REPSWITCH_excgange\REPSWITCH_excgange\data/080204_REPSWITCH1_version2_list4_2023-11-21_12h09.29.714_micRespv2l4_recorded\recording_micRespv2l4_2023-11-21_12h14.57.658.wav,335.2860562999267,335.7861191998236,None,335.2860562999267,335.2860562999267,335.2860562999267,335.2860562999267,335.2860562999267,335.2860562999267,,,,,,080204,001,2023-11-21_12h09.29.714,REPSWITCH1_version2_list4,2022.2.4,143.94516290347855,
REPSWITCH1/PICTURE_30.png,granja,speak,darkblue,filler,2,F,3,4,4,2,Stim5_Set2,0,None,69,68,69,0,68,68,68,,,,,,,,,,,,,,,,,,,,,,,335.7861191998236,336.89040939998813,336.89040939998813,336.89040939998813,336.89040939998813,336.89040939998813,336.89040939998813,336.89040939998813,336.89040939998813,None,0,,,C:\2023\REPSWITCH21092023\REPSWITCH_excgange\REPSWITCH_excgange\data/080204_REPSWITCH1_version2_list4_2023-11-21_12h09.29.714_micRespv2l4_recorded\recording_micRespv2l4_2023-11-21_12h15.02.286.wav,339.9186102999374,340.4186568998266,None,339.9186102999374,339.9186102999374,339.9186102999374,339.9186102999374,339.9186102999374,339.9186102999374,,,,,,080204,001,2023-11-21_12h09.29.714,REPSWITCH1_version2_list4,2022.2.4,143.94516290347855,
REPSWITCH1/PICTURE_264.png,mano,type,gold,filler,1,F,3,4,4,2,Stim3_Set2,0,None,70,69,70,0,69,69,69,,,,,,,,,,,,,,,,,,,,,,,340.4186568998266,341.46740760002285,341.46740760002285,341.46740760002285,341.46740760002285,341.46740760002285,341.46740760002285,341.46740760002285,341.46740760002285,"['m', 'a', 'n', 'o']",0,"[0.7879302001092583, 0.8995486001949757, 1.0312892000656575, 1.1190808000974357]",mano,C:\2023\REPSWITCH21092023\REPSWITCH_excgange\REPSWITCH_excgange\data/080204_REPSWITCH1_version2_list4_2023-11-21_12h09.29.714_micRespv2l4_recorded\recording_micRespv2l4_2023-11-21_12h15.06.862.wav,344.4886260998901,344.9887010999955,None,344.4886260998901,344.4886260998901,344.4886260998901,344.4886260998901,344.4886260998901,344.4886260998901,,,,,,080204,001,2023-11-21_12h09.29.714,REPSWITCH1_version2_list4,2022.2.4,143.94516290347855,
REPSWITCH1/PICTURE_464.png,goma,type,gold,nontarget,1,NT,3,4,4,2,Stim6_Set3,0,None,71,70,71,0,70,70,70,,,,,,,,,,,,,,,,,,,,,,,344.9887010999955,346.0444618000183,346.0444618000183,346.0444618000183,346.0444618000183,346.0444618000183,346.0444618000183,346.0444618000183,346.0444618000183,"['g', 'o', 'm', 'a']",0,"[0.9708571000955999, 1.116363300010562, 1.2309783000964671, 1.3613944000098854]",goma,C:\2023\REPSWITCH21092023\REPSWITCH_excgange\REPSWITCH_excgange\data/080204_REPSWITCH1_version2_list4_2023-11-21_12h09.29.714_micRespv2l4_recorded\recording_micRespv2l4_2023-11-21_12h15.11.439.wav,349.0725787000265,,None,349.0725787000265,349.0725787000265,349.0725787000265,349.0725787000265,349.0725787000265,349.0725787000265,,,,,,080204,001,2023-11-21_12h09.29.714,REPSWITCH1_version2_list4,2022.2.4,143.94516290347855,
REPSWITCH1/PICTURE_464.png,goma,type,gold,repeat,1,T,3,4,4,2,Stim6_Set3,0,None,72,71,72,0,71,71,71,,,,,,,,,,,,,,,,,,,,,,,349.5726481999736,350.62842379999347,350.62842379999347,350.62842379999347,350.62842379999347,350.62842379999347,350.62842379999347,350.62842379999347,350.62842379999347,"['g', 'o', 'm', 'a']",0,"[0.9172424001153558, 1.1608327000867575, 1.2196343000978231, 1.426172000123188]",goma,C:\2023\REPSWITCH21092023\REPSWITCH_excgange\REPSWITCH_excgange\data/080204_REPSWITCH1_version2_list4_2023-11-21_12h09.29.714_micRespv2l4_recorded\recording_micRespv2l4_2023-11-21_12h15.16.024.wav,353.65659439982846,,None,353.65659439982846,353.65659439982846,353.65659439982846,353.65659439982846,353.65659439982846,353.65659439982846,,,,,,080204,001,2023-11-21_12h09.29.714,REPSWITCH1_version2_list4,2022.2.4,143.94516290347855,
REPSWITCH1/PICTURE_175.png,pintor,speak,darkblue,filler,2,F,3,4,4,2,Stim1_Set2,0,None,73,72,73,0,72,72,72,,,,,,,,,,,,,,,,,,,,,,,354.15657919994555,355.2261512000114,355.2261512000114,355.2261512000114,355.2261512000114,355.2261512000114,355.2261512000114,355.2261512000114,355.2261512000114,None,0,,,C:\2023\REPSWITCH21092023\REPSWITCH_excgange\REPSWITCH_excgange\data/080204_REPSWITCH1_version2_list4_2023-11-21_12h09.29.714_micRespv2l4_recorded\recording_micRespv2l4_2023-11-21_12h15.20.621.wav,358.25435029994696,,None,358.25435029994696,358.25435029994696,358.25435029994696,358.25435029994696,358.25435029994696,358.25435029994696,,,,,,080204,001,2023-11-21_12h09.29.714,REPSWITCH1_version2_list4,2022.2.4,143.94516290347855,
REPSWITCH1/PICTURE_235.png,aguja,type,gold,nontarget,1,NT,3,4,4,2,Stim4_Set3,1,switch,74,73,74,0,73,73,73,,,,,,,,,,,,,,,,,,,,,,,358.7544024998788,359.81704119988717,359.81704119988717,359.81704119988717,359.81704119988717,359.81704119988717,359.81704119988717,359.81704119988717,359.81704119988717,"['a', 'g', 'u', 'j', 'a']",0,"[0.900867500109598, 1.20471250009723, 1.3357314001768827, 1.5629727002233267, 1.7089679001364857]",aguja,C:\2023\REPSWITCH21092023\REPSWITCH_excgange\REPSWITCH_excgange\data/080204_REPSWITCH1_version2_list4_2023-11-21_12h09.29.714_micRespv2l4_recorded\recording_micRespv2l4_2023-11-21_12h15.25.211.wav,362.84519919985905,,None,362.84519919985905,362.84519919985905,362.84519919985905,362.84519919985905,362.84519919985905,362.84519919985905,,,,,,080204,001,2023-11-21_12h09.29.714,REPSWITCH1_version2_list4,2022.2.4,143.94516290347855,
REPSWITCH1/PICTURE_235.png,aguja,type,gold,repeat,1,T,3,4,4,2,Stim4_Set3,0,None,75,74,75,0,74,74,74,,,,,,,,,,,,,,,,,,,,,,,363.34535550000146,364.4565220999066,364.4565220999066,364.4565220999066,364.4565220999066,364.4565220999066,364.4565220999066,364.4565220999066,364.4565220999066,"['a', 'g', 'u', 'j', 'a']",0,"[0.7669879000168294, 1.0171406001318246, 1.1367991000879556, 1.3071576000656933, 1.863613300025463]",aguja,C:\2023\REPSWITCH21092023\REPSWITCH_excgange\REPSWITCH_excgange\data/080204_REPSWITCH1_version2_list4_2023-11-21_12h09.29.714_micRespv2l4_recorded\recording_micRespv2l4_2023-11-21_12h15.29.850.wav,367.4777359999716,367.9778076999355,None,367.4777359999716,367.4777359999716,367.4777359999716,367.4777359999716,367.4777359999716,367.4777359999716,,,,,,080204,001,2023-11-21_12h09.29.714,REPSWITCH1_version2_list4,2022.2.4,143.94516290347855,
REPSWITCH1/PICTURE_576.png,guante,type,gold,filler,1,F,4,4,4,2,Stim1_Set3,1,repeat,76,75,76,0,75,75,75,,,,,,,,,,,,,,,,,,,,,,,367.9778076999355,369.06830259994604,369.06830259994604,369.06830259994604,369.06830259994604,369.06830259994604,369.06830259994604,369.06830259994604,369.06830259994604,"['g', 'u', 'a', 'n', 't', 'e']",0,"[1.030732000246644, 1.1236662003211677, 1.2251521002035588, 1.4063008001539856, 1.5574082001112401, 1.6374029002618045]",guante,C:\2023\REPSWITCH21092023\REPSWITCH_excgange\REPSWITCH_excgange\data/080204_REPSWITCH1_version2_list4_2023-11-21_12h09.29.714_micRespv2l4_recorded\recording_micRespv2l4_2023-11-21_12h15.34.463.wav,372.09643110004254,,None,372.09643110004254,372.09643110004254,372.09643110004254,372.09643110004254,372.09643110004254,372.09643110004254,,,,,,080204,001,2023-11-21_12h09.29.714,REPSWITCH1_version2_list4,2022.2.4,143.94516290347855,
REPSWITCH1/PICTURE_340.png,espejo,speak,darkblue,filler,2,F,4,4,4,2,Extra1,0,None,77,76,77,0,76,76,76,,,,,,,,,,,,,,,,,,,,,,,372.59649439994246,373.7702239998616,373.7702239998616,373.7702239998616,373.7702239998616,373.7702239998616,373.7702239998616,373.7702239998616,373.7702239998616,None,0,,,C:\2023\REPSWITCH21092023\REPSWITCH_excgange\REPSWITCH_excgange\data/080204_REPSWITCH1_version2_list4_2023-11-21_12h09.29.714_micRespv2l4_recorded\recording_micRespv2l4_2023-11-21_12h15.39.166.wav,376.7984392000362,377.2984843000304,None,376.7984392000362,376.7984392000362,376.7984392000362,376.7984392000362,376.7984392000362,376.7984392000362,,,,,,080204,001,2023-11-21_12h09.29.714,REPSWITCH1_version2_list4,2022.2.4,143.94516290347855,
REPSWITCH1/PICTURE_464.png,goma,speak,darkblue,filler,2,F,4,4,4,2,Stim6_Set3,1,repeat,78,77,78,0,77,77,77,,,,,,,,,,,,,,,,,,,,,,,377.2984843000304,378.319458700018,378.319458700018,378.319458700018,378.319458700018,378.319458700018,378.319458700018,378.319458700018,378.319458700018,None,0,,,C:\2023\REPSWITCH21092023\REPSWITCH_excgange\REPSWITCH_excgange\data/080204_REPSWITCH1_version2_list4_2023-11-21_12h09.29.714_micRespv2l4_recorded\recording_micRespv2l4_2023-11-21_12h15.43.714.wav,381.34763309988193,,None,381.34763309988193,381.34763309988193,381.34763309988193,381.34763309988193,381.34763309988193,381.34763309988193,,,,,,080204,001,2023-11-21_12h09.29.714,REPSWITCH1_version2_list4,2022.2.4,143.94516290347855,
REPSWITCH1/PICTURE_338.png,regalo,type,gold,nontarget,1,NT,4,4,4,2,Stim6_Set4,0,None,79,78,79,0,78,78,78,,,,,,,,,,,,,,,,,,,,,,,381.8476835000329,382.95898339990526,382.95898339990526,382.95898339990526,382.95898339990526,382.95898339990526,382.95898339990526,382.95898339990526,382.95898339990526,"['r', 'e', 'g', 'a', 'l', 'o']",0,"[0.8028021000791341, 0.8704032001551241, 1.1346135002095252, 1.2476547001861036, 1.3672322002239525, 1.5689808002207428]",regalo,C:\2023\REPSWITCH21092023\REPSWITCH_excgange\REPSWITCH_excgange\data/080204_REPSWITCH1_version2_list4_2023-11-21_12h09.29.714_micRespv2l4_recorded\recording_micRespv2l4_2023-11-21_12h15.48.354.wav,385.9871427998878,,None,385.9871427998878,385.9871427998878,385.9871427998878,385.9871427998878,385.9871427998878,385.9871427998878,,,,,,080204,001,2023-11-21_12h09.29.714,REPSWITCH1_version2_list4,2022.2.4,143.94516290347855,
REPSWITCH1/PICTURE_338.png,regalo,type,gold,repeat,1,T,4,4,4,2,Stim6_Set4,0,None,80,79,80,0,79,79,79,,,,,,,,,,,,,,,,,,,,,,,386.4872051998973,387.5568056998309,387.5568056998309,387.5568056998309,387.5568056998309,387.5568056998309,387.5568056998309,387.5568056998309,387.5568056998309,"['r', 'e', 'g', 'a', 'l', 'o']",0,"[1.416965400101617, 1.5026739002205431, 1.7239188002422452, 1.873764900257811, 1.970432500122115, 2.202659600181505]",regalo,C:\2023\REPSWITCH21092023\REPSWITCH_excgange\REPSWITCH_excgange\data/080204_REPSWITCH1_version2_list4_2023-11-21_12h09.29.714_micRespv2l4_recorded\recording_micRespv2l4_2023-11-21_12h15.52.951.wav,390.58496549981646,391.08503880002536,None,390.58496549981646,390.58496549981646,390.58496549981646,390.58496549981646,390.58496549981646,390.58496549981646,,,,,,080204,001,2023-11-21_12h09.29.714,REPSWITCH1_version2_list4,2022.2.4,143.94516290347855,
REPSWITCH1/PICTURE_8.png,pierna,type,gold,nontarget,1,NT,4,4,4,2,Stim3_Set4,1,repeat,81,80,81,0,80,80,80,,,,,,,,,,,,,,,,,,,,,,,391.08503880002536,392.1754244999029,392.1754244999029,392.1754244999029,392.1754244999029,392.1754244999029,392.1754244999029,392.1754244999029,392.1754244999029,"['i', 'e', 'r', 'n', 'a', 'backspace', 'backspace', 'backspace', 'backspace']",0,"[1.0295214001089334, 1.1969521001446992, 1.2881301001179963, 1.488037999952212, 1.6526460000313818, 2.004014200065285, 2.194680399959907, 2.3082115999422967, 2.4518043000716716]",i,C:\2023\REPSWITCH21092023\REPSWITCH_excgange\REPSWITCH_excgange\data/080204_REPSWITCH1_version2_list4_2023-11-21_12h09.29.714_micRespv2l4_recorded\recording_micRespv2l4_2023-11-21_12h15.57.570.wav,395.20363150001504,,None,395.20363150001504,395.20363150001504,395.20363150001504,395.20363150001504,395.20363150001504,395.20363150001504,,,,,,080204,001,2023-11-21_12h09.29.714,REPSWITCH1_version2_list4,2022.2.4,143.94516290347855,
REPSWITCH1/PICTURE_8.png,pierna,speak,darkblue,switch,2,T,4,4,4,2,Stim3_Set4,0,None,82,81,82,0,81,81,81,,,,,,,,,,,,,,,,,,,,,,,395.70367489987984,396.7871667998843,396.7871667998843,396.7871667998843,396.7871667998843,396.7871667998843,396.7871667998843,396.7871667998843,396.7871667998843,None,0,,,C:\2023\REPSWITCH21092023\REPSWITCH_excgange\REPSWITCH_excgange\data/080204_REPSWITCH1_version2_list4_2023-11-21_12h09.29.714_micRespv2l4_recorded\recording_micRespv2l4_2023-11-21_12h16.02.182.wav,399.81538669997826,,None,399.81538669997826,399.81538669997826,399.81538669997826,399.81538669997826,399.81538669997826,399.81538669997826,,,,,,080204,001,2023-11-21_12h09.29.714,REPSWITCH1_version2_list4,2022.2.4,143.94516290347855,
REPSWITCH1/PICTURE_271.png,conejo,type,gold,filler,1,F,4,4,4,2,Stim7_Set3,0,None,83,82,83,0,82,82,82,,,,,,,,,,,,,,,,,,,,,,,400.31539399991743,401.52395919989794,401.52395919989794,401.52395919989794,401.52395919989794,401.52395919989794,401.52395919989794,401.52395919989794,401.52395919989794,"['c', 'o', 'n', 'e', 'j', 'o']",0,"[0.9837765002157539, 1.1832332001067698, 1.3357274001464248, 1.5373413001652807, 1.737675400217995, 1.8661049001384526]",conejo,C:\2023\REPSWITCH21092023\REPSWITCH_excgange\REPSWITCH_excgange\data/080204_REPSWITCH1_version2_list4_2023-11-21_12h09.29.714_micRespv2l4_recorded\recording_micRespv2l4_2023-11-21_12h16.06.918.wav,404.54512949986383,405.0451940000057,None,404.54512949986383,404.54512949986383,404.54512949986383,404.54512949986383,404.54512949986383,404.54512949986383,,,,,,080204,001,2023-11-21_12h09.29.714,REPSWITCH1_version2_list4,2022.2.4,143.94516290347855,
REPSWITCH1/PICTURE_687.png,camisa,speak,darkblue,nontarget,2,NT,4,4,4,2,Stim5_Set4,1,switch,84,83,84,0,83,83,83,,,,,,,,,,,,,,,,,,,,,,,405.0451940000057,406.17730710003525,406.17730710003525,406.17730710003525,406.17730710003525,406.17730710003525,406.17730710003525,406.17730710003525,406.17730710003525,None,0,,,C:\2023\REPSWITCH21092023\REPSWITCH_excgange\REPSWITCH_excgange\data/080204_REPSWITCH1_version2_list4_2023-11-21_12h09.29.714_micRespv2l4_recorded\recording_micRespv2l4_2023-11-21_12h16.11.572.wav,409.2054588999599,,None,409.2054588999599,409.2054588999599,409.2054588999599,409.2054588999599,409.2054588999599,409.2054588999599,,,,,,080204,001,2023-11-21_12h09.29.714,REPSWITCH1_version2_list4,2022.2.4,143.94516290347855,
REPSWITCH1/PICTURE_687.png,camisa,speak,darkblue,repeat,2,T,4,4,4,2,Stim5_Set4,0,None,85,84,85,0,84,84,84,,,,,,,,,,,,,,,,,,,,,,,409.7055211998522,410.7195683999453,410.7195683999453,410.7195683999453,410.7195683999453,410.7195683999453,410.7195683999453,410.7195683999453,410.7195683999453,None,0,,,C:\2023\REPSWITCH21092023\REPSWITCH_excgange\REPSWITCH_excgange\data/080204_REPSWITCH1_version2_list4_2023-11-21_12h09.29.714_micRespv2l4_recorded\recording_micRespv2l4_2023-11-21_12h16.16.114.wav,413.7477009999566,,None,413.7477009999566,413.7477009999566,413.7477009999566,413.7477009999566,413.7477009999566,413.7477009999566,,,,,,080204,001,2023-11-21_12h09.29.714,REPSWITCH1_version2_list4,2022.2.4,143.94516290347855,
REPSWITCH1/PICTURE_319.png,vaca,speak,darkblue,nontarget,2,NT,4,4,4,2,Stim1_Set4,0,None,86,85,86,0,85,85,85,,,,,,,,,,,,,,,,,,,,,,,414.2477547999006,415.39374969992787,415.39374969992787,415.39374969992787,415.39374969992787,415.39374969992787,415.39374969992787,415.39374969992787,415.39374969992787,None,0,,,C:\2023\REPSWITCH21092023\REPSWITCH_excgange\REPSWITCH_excgange\data/080204_REPSWITCH1_version2_list4_2023-11-21_12h09.29.714_micRespv2l4_recorded\recording_micRespv2l4_2023-11-21_12h16.20.788.wav,418.4149682999123,418.91505980002694,None,418.4149682999123,418.4149682999123,418.4149682999123,418.4149682999123,418.4149682999123,418.4149682999123,,,,,,080204,001,2023-11-21_12h09.29.714,REPSWITCH1_version2_list4,2022.2.4,143.94516290347855,
REPSWITCH1/PICTURE_319.png,vaca,type,gold,switch,1,T,4,4,4,2,Stim1_Set4,0,None,87,86,87,0,86,86,86,,,,,,,,,,,,,,,,,,,,,,,418.91505980002694,420.13745719986036,420.13745719986036,420.13745719986036,420.13745719986036,420.13745719986036,420.13745719986036,420.13745719986036,420.13745719986036,"['v', 'a', 'c', 'a']",0,"[0.7896088000852615, 0.8884636000730097, 1.0243571000173688, 1.138976400019601]",vaca,C:\2023\REPSWITCH21092023\REPSWITCH_excgange\REPSWITCH_excgange\data/080204_REPSWITCH1_version2_list4_2023-11-21_12h09.29.714_micRespv2l4_recorded\recording_micRespv2l4_2023-11-21_12h16.25.531.wav,423.15865519992076,423.65879549994133,None,423.15865519992076,423.15865519992076,423.15865519992076,423.15865519992076,423.15865519992076,423.15865519992076,,,,,,080204,001,2023-11-21_12h09.29.714,REPSWITCH1_version2_list4,2022.2.4,143.94516290347855,
REPSWITCH1/PICTURE_242.png,cartero,speak,darkblue,filler,2,F,4,4,4,2,Stim3_Set3,0,None,88,87,88,0,87,87,87,,,,,,,,,,,,,,,,,,,,,,,423.65879549994133,424.742197799962,424.742197799962,424.742197799962,424.742197799962,424.742197799962,424.742197799962,424.742197799962,424.742197799962,None,0,,,C:\2023\REPSWITCH21092023\REPSWITCH_excgange\REPSWITCH_excgange\data/080204_REPSWITCH1_version2_list4_2023-11-21_12h09.29.714_micRespv2l4_recorded\recording_micRespv2l4_2023-11-21_12h16.30.136.wav,427.77046069991775,,None,427.77046069991775,427.77046069991775,427.77046069991775,427.77046069991775,427.77046069991775,427.77046069991775,,,,,,080204,001,2023-11-21_12h09.29.714,REPSWITCH1_version2_list4,2022.2.4,143.94516290347855,
REPSWITCH1/PICTURE_498.png,taza,type,gold,nontarget,1,NT,4,4,4,2,Stim4_Set4,1,switch,89,88,89,0,88,88,88,,,,,,,,,,,,,,,,,,,,,,,428.2704533999786,429.2914268998429,429.2914268998429,429.2914268998429,429.2914268998429,429.2914268998429,429.2914268998429,429.2914268998429,429.2914268998429,"['a', 'backspace', 't', 'a', 'z', 'a']",0,"[1.1071613000240177, 1.6164532001130283, 2.1051029001828283, 2.242651900043711, 2.4350015001837164, 2.5765270001720637]",taza,C:\2023\REPSWITCH21092023\REPSWITCH_excgange\REPSWITCH_excgange\data/080204_REPSWITCH1_version2_list4_2023-11-21_12h09.29.714_micRespv2l4_recorded\recording_micRespv2l4_2023-11-21_12h16.34.685.wav,432.31261159991845,432.81271589989774,None,432.31261159991845,432.31261159991845,432.31261159991845,432.31261159991845,432.31261159991845,432.31261159991845,,,,,,080204,001,2023-11-21_12h09.29.714,REPSWITCH1_version2_list4,2022.2.4,143.94516290347855,
REPSWITCH1/PICTURE_498.png,taza,speak,darkblue,switch,2,T,4,4,4,2,Stim4_Set4,0,None,90,89,90,0,89,89,89,,,,,,,,,,,,,,,,,,,,,,,432.81271589989774,433.9657152998261,433.9657152998261,433.9657152998261,433.9657152998261,433.9657152998261,433.9657152998261,433.9657152998261,433.9657152998261,None,0,,,C:\2023\REPSWITCH21092023\REPSWITCH_excgange\REPSWITCH_excgange\data/080204_REPSWITCH1_version2_list4_2023-11-21_12h09.29.714_micRespv2l4_recorded\recording_micRespv2l4_2023-11-21_12h16.39.359.wav,436.98685209988616,437.4869354998227,None,436.98685209988616,436.98685209988616,436.98685209988616,436.98685209988616,436.98685209988616,436.98685209988616,,,,,,080204,001,2023-11-21_12h09.29.714,REPSWITCH1_version2_list4,2022.2.4,143.94516290347855,
REPSWITCH1/PICTURE_391.png,cadena,type,gold,filler,1,F,4,4,4,2,Extra2,0,None,91,90,91,0,90,90,90,,,,,,,,,,,,,,,,,,,,,,,437.4869354998227,438.56345089990646,438.56345089990646,438.56345089990646,438.56345089990646,438.56345089990646,438.56345089990646,438.56345089990646,438.56345089990646,"['c', 'a', 'd', 'e', 'n', 'a']",0,"[0.7343013000208884, 0.9056035000830889, 1.02850649994798, 1.2039515001233667, 1.3016091000754386, 1.441043799975887]",cadena,C:\2023\REPSWITCH21092023\REPSWITCH_excgange\REPSWITCH_excgange\data/080204_REPSWITCH1_version2_list4_2023-11-21_12h09.29.714_micRespv2l4_recorded\recording_micRespv2l4_2023-11-21_12h16.43.957.wav,441.5846784999594,442.084814599948,None,441.5846784999594,441.5846784999594,441.5846784999594,441.5846784999594,441.5846784999594,441.5846784999594,,,,,,080204,001,2023-11-21_12h09.29.714,REPSWITCH1_version2_list4,2022.2.4,143.94516290347855,
REPSWITCH1/PICTURE_610.png,miel,speak,darkblue,filler,2,F,4,4,4,2,Stim2_Set3,0,None,92,91,92,0,91,91,91,,,,,,,,,,,,,,,,,,,,,,,442.084814599948,443.17517079995014,443.17517079995014,443.17517079995014,443.17517079995014,443.17517079995014,443.17517079995014,443.17517079995014,443.17517079995014,None,0,,,C:\2023\REPSWITCH21092023\REPSWITCH_excgange\REPSWITCH_excgange\data/080204_REPSWITCH1_version2_list4_2023-11-21_12h09.29.714_micRespv2l4_recorded\recording_micRespv2l4_2023-11-21_12h16.48.570.wav,446.1963827998843,446.6964759998955,None,446.1963827998843,446.1963827998843,446.1963827998843,446.1963827998843,446.1963827998843,446.1963827998843,,,,,,080204,001,2023-11-21_12h09.29.714,REPSWITCH1_version2_list4,2022.2.4,143.94516290347855,
REPSWITCH1/PICTURE_48.png,bombero,speak,darkblue,nontarget,2,NT,4,4,4,2,Stim7_Set4,1,repeat,93,92,93,0,92,92,92,,,,,,,,,,,,,,,,,,,,,,,446.6964759998955,447.7799696000293,447.7799696000293,447.7799696000293,447.7799696000293,447.7799696000293,447.7799696000293,447.7799696000293,447.7799696000293,None,0,,,C:\2023\REPSWITCH21092023\REPSWITCH_excgange\REPSWITCH_excgange\data/080204_REPSWITCH1_version2_list4_2023-11-21_12h09.29.714_micRespv2l4_recorded\recording_micRespv2l4_2023-11-21_12h16.53.174.wav,450.8011582000181,451.3013219998684,None,450.8011582000181,450.8011582000181,450.8011582000181,450.8011582000181,450.8011582000181,450.8011582000181,,,,,,080204,001,2023-11-21_12h09.29.714,REPSWITCH1_version2_list4,2022.2.4,143.94516290347855,
REPSWITCH1/PICTURE_48.png,bombero,speak,darkblue,repeat,2,T,4,4,4,2,Stim7_Set4,0,None,94,93,94,0,93,93,93,,,,,,,,,,,,,,,,,,,,,,,451.3013219998684,452.44726539985277,452.44726539985277,452.44726539985277,452.44726539985277,452.44726539985277,452.44726539985277,452.44726539985277,452.44726539985277,None,0,,,C:\2023\REPSWITCH21092023\REPSWITCH_excgange\REPSWITCH_excgange\data/080204_REPSWITCH1_version2_list4_2023-11-21_12h09.29.714_micRespv2l4_recorded\recording_micRespv2l4_2023-11-21_12h16.57.843.wav,455.4754100998398,,None,455.4754100998398,455.4754100998398,455.4754100998398,455.4754100998398,455.4754100998398,455.4754100998398,,,,,,080204,001,2023-11-21_12h09.29.714,REPSWITCH1_version2_list4,2022.2.4,143.94516290347855,
REPSWITCH1/PICTURE_320.png,iglesia,type,gold,filler,1,F,4,4,4,2,Stim8_Set3,1,switch,95,94,95,0,94,94,94,,,,,,,,,,,,,,,,,,,,,,,455.97547179996036,457.1075667999685,457.1075667999685,457.1075667999685,457.1075667999685,457.1075667999685,457.1075667999685,457.1075667999685,457.1075667999685,"['i', 'g', 'l', 'e', 's', 'i', 'a']",0,"[0.9286772001069039, 1.1542672000359744, 1.457744900137186, 1.555493500083685, 1.7637180001474917, 1.8920313001144677, 1.9877469001803547]",iglesia,C:\2023\REPSWITCH21092023\REPSWITCH_excgange\REPSWITCH_excgange\data/080204_REPSWITCH1_version2_list4_2023-11-21_12h09.29.714_micRespv2l4_recorded\recording_micRespv2l4_2023-11-21_12h17.02.502.wav,460.1287990999408,460.62890739995055,None,460.1287990999408,460.1287990999408,460.1287990999408,460.1287990999408,460.1287990999408,460.1287990999408,,,,,,080204,001,2023-11-21_12h09.29.714,REPSWITCH1_version2_list4,2022.2.4,143.94516290347855,
REPSWITCH1/PICTURE_35.png,oreja,speak,darkblue,filler,2,F,4,4,4,2,Stim5_Set3,0,None,96,95,96,0,95,95,95,,,,,,,,,,,,,,,,,,,,,,,460.62890739995055,461.6706798998639,461.6706798998639,461.6706798998639,461.6706798998639,461.6706798998639,461.6706798998639,461.6706798998639,461.6706798998639,None,0,,,C:\2023\REPSWITCH21092023\REPSWITCH_excgange\REPSWITCH_excgange\data/080204_REPSWITCH1_version2_list4_2023-11-21_12h09.29.714_micRespv2l4_recorded\recording_micRespv2l4_2023-11-21_12h17.07.066.wav,464.6918667999562,465.19203269993886,None,464.6918667999562,464.6918667999562,464.6918667999562,464.6918667999562,464.6918667999562,464.6918667999562,,,,,,080204,001,2023-11-21_12h09.29.714,REPSWITCH1_version2_list4,2022.2.4,143.94516290347855,
REPSWITCH1/PICTURE_728.png,pulpo,speak,darkblue,nontarget,2,NT,4,4,4,2,Stim8_Set4,1,repeat,97,96,97,0,96,96,96,,,,,,,,,,,,,,,,,,,,,,,465.19203269993886,466.2545872000046,466.2545872000046,466.2545872000046,466.2545872000046,466.2545872000046,466.2545872000046,466.2545872000046,466.2545872000046,None,0,,,C:\2023\REPSWITCH21092023\REPSWITCH_excgange\REPSWITCH_excgange\data/080204_REPSWITCH1_version2_list4_2023-11-21_12h09.29.714_micRespv2l4_recorded\recording_micRespv2l4_2023-11-21_12h17.11.649.wav,469.28281249990687,,None,469.28281249990687,469.28281249990687,469.28281249990687,469.28281249990687,469.28281249990687,469.28281249990687,,,,,,080204,001,2023-11-21_12h09.29.714,REPSWITCH1_version2_list4,2022.2.4,143.94516290347855,
REPSWITCH1/PICTURE_728.png,pulpo,type,gold,switch,1,T,4,4,4,2,Stim8_Set4,0,None,98,97,98,0,97,97,97,,,,,,,,,,,,,,,,,,,,,,,469.78281180001795,470.88020849996246,470.88020849996246,470.88020849996246,470.88020849996246,470.88020849996246,470.88020849996246,470.88020849996246,470.88020849996246,"['p', 'u', 'l', 'p', 'o']",0,"[0.7663656000513583, 1.0616820000577718, 1.2689979001879692, 1.5131710001733154, 1.6148320001084358]",pulpo,C:\2023\REPSWITCH21092023\REPSWITCH_excgange\REPSWITCH_excgange\data/080204_REPSWITCH1_version2_list4_2023-11-21_12h09.29.714_micRespv2l4_recorded\recording_micRespv2l4_2023-11-21_12h17.16.274.wav,473.90146599989384,474.40153269981965,None,473.90146599989384,473.90146599989384,473.90146599989384,473.90146599989384,473.90146599989384,473.90146599989384,,,,,,080204,001,2023-11-21_12h09.29.714,REPSWITCH1_version2_list4,2022.2.4,143.94516290347855,
REPSWITCH1/PICTURE_590.png,escoba,speak,darkblue,filler,2,F,4,4,4,2,Extra3,0,None,99,98,99,0,98,98,98,,,,,,,,,,,,,,,,,,,,,,,474.40153269981965,475.54055259982124,475.54055259982124,475.54055259982124,475.54055259982124,475.54055259982124,475.54055259982124,475.54055259982124,475.54055259982124,None,0,,,C:\2023\REPSWITCH21092023\REPSWITCH_excgange\REPSWITCH_excgange\data/080204_REPSWITCH1_version2_list4_2023-11-21_12h09.29.714_micRespv2l4_recorded\recording_micRespv2l4_2023-11-21_12h17.20.935.wav,478.56174569996074,479.0617943999823,None,478.56174569996074,478.56174569996074,478.56174569996074,478.56174569996074,478.56174569996074,478.56174569996074,,,,,,080204,001,2023-11-21_12h09.29.714,REPSWITCH1_version2_list4,2022.2.4,143.94516290347855,
REPSWITCH1/PICTURE_235.png,aguja,type,gold,filler,1,F,4,4,4,2,Stim4_Set3,0,None,100,99,100,0,99,99,99,,,,,,,,,,,,,,,,,,,,,,,479.0617943999823,480.2147935000248,480.2147935000248,480.2147935000248,480.2147935000248,480.2147935000248,480.2147935000248,480.2147935000248,480.2147935000248,"['a', 'g', 'u', 'j', 'a']",0,"[1.0282361002173275, 1.2803431001957506, 1.3879492001142353, 1.631165600148961, 1.7587586001027375]",aguja,C:\2023\REPSWITCH21092023\REPSWITCH_excgange\REPSWITCH_excgange\data/080204_REPSWITCH1_version2_list4_2023-11-21_12h09.29.714_micRespv2l4_recorded\recording_micRespv2l4_2023-11-21_12h17.25.608.wav,483.2360103998799,483.73607450001873,None,483.2360103998799,483.2360103998799,483.2360103998799,483.2360103998799,483.2360103998799,483.2360103998799,,,,,,080204,001,2023-11-21_12h09.29.714,REPSWITCH1_version2_list4,2022.2.4,143.94516290347855,
REPSWITCH1/PICTURE_719.png,baño,type,gold,nontarget,1,NT,4,4,4,2,Stim2_Set4,1,repeat,101,100,101,0,100,100,100,,,,,,,,,,,,,,,,,,,,,,,483.73607450001873,484.78478949982673,484.78478949982673,484.78478949982673,484.78478949982673,484.78478949982673,484.78478949982673,484.78478949982673,484.78478949982673,"['b', 'a', 'ñ', 'o']",0,"[0.9301599003374577, 1.0780905003193766, 1.4103920003399253, 1.521983700338751]",baño,C:\2023\REPSWITCH21092023\REPSWITCH_excgange\REPSWITCH_excgange\data/080204_REPSWITCH1_version2_list4_2023-11-21_12h09.29.714_micRespv2l4_recorded\recording_micRespv2l4_2023-11-21_12h17.30.179.wav,487.8130407000426,,None,487.8130407000426,487.8130407000426,487.8130407000426,487.8130407000426,487.8130407000426,487.8130407000426,,,,,,080204,001,2023-11-21_12h09.29.714,REPSWITCH1_version2_list4,2022.2.4,143.94516290347855,
REPSWITCH1/PICTURE_719.png,baño,type,gold,repeat,1,T,4,4,4,2,Stim2_Set4,0,None,102,101,102,0,101,101,101,,,,,,,,,,,,,,,,,,,,,,,488.3131250999868,489.34787659998983,489.34787659998983,489.34787659998983,489.34787659998983,489.34787659998983,489.34787659998983,489.34787659998983,489.34787659998983,"['b', 'a', 'ñ', 'o']",0,"[0.9901177000720054, 1.1427957001142204, 1.287349299993366, 1.3451609001494944]",baño,C:\2023\REPSWITCH21092023\REPSWITCH_excgange\REPSWITCH_excgange\data/080204_REPSWITCH1_version2_list4_2023-11-21_12h09.29.714_micRespv2l4_recorded\recording_micRespv2l4_2023-11-21_12h17.34.743.wav,492.3761427998543,,space,492.3761427998543,492.3761427998543,492.3761427998543,492.3761427998543,492.3761427998543,492.3761427998543,492.87615299993195,492.87615299993195,0.9104774000588804,,,080204,001,2023-11-21_12h09.29.714,REPSWITCH1_version2_list4,2022.2.4,143.94516290347855,
REPSWITCH1/PICTURE_646.png,tronco,speak,darkblue,filler,2,F,1,3,4,2,Extra4,0,None,103,102,1,0,102,102,102,,,,,,,,,,,,,,,,,,,,,,,493.7998334998265,494.8555618999526,494.8555618999526,494.8555618999526,494.8555618999526,494.8555618999526,494.8555618999526,494.8555618999526,494.8555618999526,None,0,,,C:\2023\REPSWITCH21092023\REPSWITCH_excgange\REPSWITCH_excgange\data/080204_REPSWITCH1_version2_list4_2023-11-21_12h09.29.714_micRespv2l4_recorded\recording_micRespv2l4_2023-11-21_12h17.40.250.wav,497.8767605999019,498.3769111998845,None,497.8767605999019,497.8767605999019,497.8767605999019,497.8767605999019,497.8767605999019,497.8767605999019,,,,,,080204,001,2023-11-21_12h09.29.714,REPSWITCH1_version2_list4,2022.2.4,143.94516290347855,
REPSWITCH1/PICTURE_340.png,espejo,type,gold,filler,1,F,1,3,4,2,Extra1,0,None,104,103,2,0,103,103,103,,,,,,,,,,,,,,,,,,,,,,,498.3769111998845,499.41864990000613,499.41864990000613,499.41864990000613,499.41864990000613,499.41864990000613,499.41864990000613,499.41864990000613,499.41864990000613,"['e', 's', 'p', 'e', 'j', 'o']",0,"[0.707274500047788, 0.9188932999968529, 1.0723634001333266, 1.2576944001484662, 1.3932745000347495, 1.4999620001763105]",espejo,C:\2023\REPSWITCH21092023\REPSWITCH_excgange\REPSWITCH_excgange\data/080204_REPSWITCH1_version2_list4_2023-11-21_12h09.29.714_micRespv2l4_recorded\recording_micRespv2l4_2023-11-21_12h17.44.813.wav,502.43989949999377,502.9399603998754,None,502.43989949999377,502.43989949999377,502.43989949999377,502.43989949999377,502.43989949999377,502.43989949999377,,,,,,080204,001,2023-11-21_12h09.29.714,REPSWITCH1_version2_list4,2022.2.4,143.94516290347855,
REPSWITCH1/PICTURE_338.png,regalo,speak,darkblue,filler,2,F,1,3,4,2,Stim6_Set4,0,None,105,104,3,0,104,104,104,,,,,,,,,,,,,,,,,,,,,,,502.9399603998754,504.0651226998307,504.0651226998307,504.0651226998307,504.0651226998307,504.0651226998307,504.0651226998307,504.0651226998307,504.0651226998307,None,0,,,C:\2023\REPSWITCH21092023\REPSWITCH_excgange\REPSWITCH_excgange\data/080204_REPSWITCH1_version2_list4_2023-11-21_12h09.29.714_micRespv2l4_recorded\recording_micRespv2l4_2023-11-21_12h17.49.460.wav,507.0932960999198,,None,507.0932960999198,507.0932960999198,507.0932960999198,507.0932960999198,507.0932960999198,507.0932960999198,,,,,,080204,001,2023-11-21_12h09.29.714,REPSWITCH1_version2_list4,2022.2.4,143.94516290347855,
REPSWITCH1/PICTURE_142.png,vaso,speak,darkblue,nontarget,2,NT,1,3,4,2,Stim7_Set1,1,repeat,106,105,4,0,105,105,105,,,,,,,,,,,,,,,,,,,,,,,507.59341789991595,508.69070589984767,508.69070589984767,508.69070589984767,508.69070589984767,508.69070589984767,508.69070589984767,508.69070589984767,508.69070589984767,None,0,,,C:\2023\REPSWITCH21092023\REPSWITCH_excgange\REPSWITCH_excgange\data/080204_REPSWITCH1_version2_list4_2023-11-21_12h09.29.714_micRespv2l4_recorded\recording_micRespv2l4_2023-11-21_12h17.54.085.wav,511.7119084999431,512.2120144998189,None,511.7119084999431,511.7119084999431,511.7119084999431,511.7119084999431,511.7119084999431,511.7119084999431,,,,,,080204,001,2023-11-21_12h09.29.714,REPSWITCH1_version2_list4,2022.2.4,143.94516290347855,
REPSWITCH1/PICTURE_142.png,vaso,speak,darkblue,repeat,2,T,1,3,4,2,Stim7_Set1,0,None,107,106,5,0,106,106,106,,,,,,,,,,,,,,,,,,,,,,,512.2120144998189,513.3302233999129,513.3302233999129,513.3302233999129,513.3302233999129,513.3302233999129,513.3302233999129,513.3302233999129,513.3302233999129,None,0,,,C:\2023\REPSWITCH21092023\REPSWITCH_excgange\REPSWITCH_excgange\data/080204_REPSWITCH1_version2_list4_2023-11-21_12h09.29.714_micRespv2l4_recorded\recording_micRespv2l4_2023-11-21_12h17.58.724.wav,516.3514407998882,516.8515788000077,None,516.3514407998882,516.3514407998882,516.3514407998882,516.3514407998882,516.3514407998882,516.3514407998882,,,,,,080204,001,2023-11-21_12h09.29.714,REPSWITCH1_version2_list4,2022.2.4,143.94516290347855,
REPSWITCH1/PICTURE_498.png,taza,type,gold,filler,1,F,1,3,4,2,Stim4_Set4,0,None,108,107,6,0,107,107,107,,,,,,,,,,,,,,,,,,,,,,,516.8515788000077,517.9627570000011,517.9627570000011,517.9627570000011,517.9627570000011,517.9627570000011,517.9627570000011,517.9627570000011,517.9627570000011,"['t', 'a', 'a', 'backspace', 'z', 'a']",0,"[0.9562523001804948, 1.1067407000809908, 1.3738460002932698, 2.1198808001354337, 2.2461339002475142, 2.4139071002136916]",taza,C:\2023\REPSWITCH21092023\REPSWITCH_excgange\REPSWITCH_excgange\data/080204_REPSWITCH1_version2_list4_2023-11-21_12h09.29.714_micRespv2l4_recorded\recording_micRespv2l4_2023-11-21_12h18.03.357.wav,520.9839800000191,521.4840738999192,None,520.9839800000191,520.9839800000191,520.9839800000191,520.9839800000191,520.9839800000191,520.9839800000191,,,,,,080204,001,2023-11-21_12h09.29.714,REPSWITCH1_version2_list4,2022.2.4,143.94516290347855,
REPSWITCH1/PICTURE_16.png,cazador,speak,darkblue,nontarget,2,NT,1,3,4,2,Stim6_Set1,1,switch,109,108,7,0,108,108,108,,,,,,,,,,,,,,,,,,,,,,,521.4840738999192,522.6369989998639,522.6369989998639,522.6369989998639,522.6369989998639,522.6369989998639,522.6369989998639,522.6369989998639,522.6369989998639,None,0,,,C:\2023\REPSWITCH21092023\REPSWITCH_excgange\REPSWITCH_excgange\data/080204_REPSWITCH1_version2_list4_2023-11-21_12h09.29.714_micRespv2l4_recorded\recording_micRespv2l4_2023-11-21_12h18.08.031.wav,525.6582144999411,526.1582748999353,None,525.6582144999411,525.6582144999411,525.6582144999411,525.6582144999411,525.6582144999411,525.6582144999411,,,,,,080204,001,2023-11-21_12h09.29.714,REPSWITCH1_version2_list4,2022.2.4,143.94516290347855,
REPSWITCH1/PICTURE_16.png,cazador,speak,darkblue,repeat,2,T,1,3,4,2,Stim6_Set1,0,None,110,109,8,0,109,109,109,,,,,,,,,,,,,,,,,,,,,,,526.1582748999353,527.3042713999748,527.3042713999748,527.3042713999748,527.3042713999748,527.3042713999748,527.3042713999748,527.3042713999748,527.3042713999748,None,0,,,C:\2023\REPSWITCH21092023\REPSWITCH_excgange\REPSWITCH_excgange\data/080204_REPSWITCH1_version2_list4_2023-11-21_12h09.29.714_micRespv2l4_recorded\recording_micRespv2l4_2023-11-21_12h18.12.698.wav,530.3254962000065,530.8255588000175,None,530.3254962000065,530.3254962000065,530.3254962000065,530.3254962000065,530.3254962000065,530.3254962000065,,,,,,080204,001,2023-11-21_12h09.29.714,REPSWITCH1_version2_list4,2022.2.4,143.94516290347855,
REPSWITCH1/PICTURE_719.png,baño,type,gold,filler,1,F,1,3,4,2,Stim2_Set4,0,None,111,110,9,0,110,110,110,,,,,,,,,,,,,,,,,,,,,,,530.8255588000175,531.9715642998926,531.9715642998926,531.9715642998926,531.9715642998926,531.9715642998926,531.9715642998926,531.9715642998926,531.9715642998926,"['b', 'a', 'ñ', 'o']",0,"[0.8544364001136273, 0.960181700065732, 1.1707105999812484, 1.253442000132054]",baño,C:\2023\REPSWITCH21092023\REPSWITCH_excgange\REPSWITCH_excgange\data/080204_REPSWITCH1_version2_list4_2023-11-21_12h09.29.714_micRespv2l4_recorded\recording_micRespv2l4_2023-11-21_12h18.17.366.wav,534.9927600999363,535.49281039997,None,534.9927600999363,534.9927600999363,534.9927600999363,534.9927600999363,534.9927600999363,534.9927600999363,,,,,,080204,001,2023-11-21_12h09.29.714,REPSWITCH1_version2_list4,2022.2.4,143.94516290347855,
REPSWITCH1/PICTURE_169.png,espalda,speak,darkblue,nontarget,2,NT,1,3,4,2,Stim8_Set1,0,None,112,111,10,0,111,111,111,,,,,,,,,,,,,,,,,,,,,,,535.49281039997,536.5902688999195,536.5902688999195,536.5902688999195,536.5902688999195,536.5902688999195,536.5902688999195,536.5902688999195,536.5902688999195,"['e', 's', 'p', 'a', 'l', 'f', 'a']",0,"[0.8114000000059605, 1.0011044000275433, 1.1645129001699388, 1.383466600207612, 1.5768080002162606, 2.449363100109622, 2.5719491001218557]",espalfa,C:\2023\REPSWITCH21092023\REPSWITCH_excgange\REPSWITCH_excgange\data/080204_REPSWITCH1_version2_list4_2023-11-21_12h09.29.714_micRespv2l4_recorded\recording_micRespv2l4_2023-11-21_12h18.21.985.wav,539.6114340999629,540.1114959998522,None,539.6114340999629,539.6114340999629,539.6114340999629,539.6114340999629,539.6114340999629,539.6114340999629,,,,,,080204,001,2023-11-21_12h09.29.714,REPSWITCH1_version2_list4,2022.2.4,143.94516290347855,
REPSWITCH1/PICTURE_169.png,espalda,type,gold,switch,1,T,1,3,4,2,Stim8_Set1,0,None,113,112,11,0,112,112,112,,,,,,,,,,,,,,,,,,,,,,,540.1114959998522,541.2089264998212,541.2089264998212,541.2089264998212,541.2089264998212,541.2089264998212,541.2089264998212,541.2089264998212,541.2089264998212,"['e', 's', 'p', 'a', 'l', 'd', 'a']",0,"[0.7499830001033843, 0.9752286002039909, 1.1267196000553668, 1.2523720001336187, 1.3509599000681192, 1.4765328001230955, 1.5891690000426024]",espalda,C:\2023\REPSWITCH21092023\REPSWITCH_excgange\REPSWITCH_excgange\data/080204_REPSWITCH1_version2_list4_2023-11-21_12h09.29.714_micRespv2l4_recorded\recording_micRespv2l4_2023-11-21_12h18.26.604.wav,544.2370309999678,,None,544.2370309999678,544.2370309999678,544.2370309999678,544.2370309999678,544.2370309999678,544.2370309999678,,,,,,080204,001,2023-11-21_12h09.29.714,REPSWITCH1_version2_list4,2022.2.4,143.94516290347855,
REPSWITCH1/PICTURE_687.png,camisa,type,gold,filler,1,F,1,3,4,2,Stim5_Set4,0,None,114,113,12,0,113,113,113,,,,,,,,,,,,,,,,,,,,,,,544.7370994999073,546.0289376999717,546.0289376999717,546.0289376999717,546.0289376999717,546.0289376999717,546.0289376999717,546.0289376999717,546.0289376999717,"['c', 'a', 'm', 'i', 's', 'a']",0,"[0.7879441000986844, 0.9503825001884252, 1.1021829000674188, 1.2526816001627594, 1.3782726000063121, 1.504828300094232]",camisa,C:\2023\REPSWITCH21092023\REPSWITCH_excgange\REPSWITCH_excgange\data/080204_REPSWITCH1_version2_list4_2023-11-21_12h09.29.714_micRespv2l4_recorded\recording_micRespv2l4_2023-11-21_12h18.31.424.wav,549.0571162998676,,None,549.0571162998676,549.0571162998676,549.0571162998676,549.0571162998676,549.0571162998676,549.0571162998676,,,,,,080204,001,2023-11-21_12h09.29.714,REPSWITCH1_version2_list4,2022.2.4,143.94516290347855,
REPSWITCH1/PICTURE_178.png,puente,type,gold,nontarget,1,NT,1,3,4,2,Stim1_Set1,1,repeat,115,114,13,0,114,114,114,,,,,,,,,,,,,,,,,,,,,,,549.557176399976,550.6893203998916,550.6893203998916,550.6893203998916,550.6893203998916,550.6893203998916,550.6893203998916,550.6893203998916,550.6893203998916,"['u', 'e', 'n', 't', 'e', 'backspace', 'backspace', 'backspace', 'backspace', 'backspace', 'p']",0,"[1.1096981002483517, 1.2404713002033532, 1.3805140000768006, 1.4632524002809078, 1.5718727002386004, 1.8368954001925886, 2.009740700246766, 2.15453980024904, 2.271111700218171, 2.4166024001315236, 2.829065800178796]",p,C:\2023\REPSWITCH21092023\REPSWITCH_excgange\REPSWITCH_excgange\data/080204_REPSWITCH1_version2_list4_2023-11-21_12h09.29.714_micRespv2l4_recorded\recording_micRespv2l4_2023-11-21_12h18.36.085.wav,553.7174352000002,,None,553.7174352000002,553.7174352000002,553.7174352000002,553.7174352000002,553.7174352000002,553.7174352000002,,,,,,080204,001,2023-11-21_12h09.29.714,REPSWITCH1_version2_list4,2022.2.4,143.94516290347855,
REPSWITCH1/PICTURE_178.png,puente,speak,darkblue,switch,2,T,1,3,4,2,Stim1_Set1,0,None,116,115,14,0,115,115,115,,,,,,,,,,,,,,,,,,,,,,,554.2175123000052,555.342661799863,555.342661799863,555.342661799863,555.342661799863,555.342661799863,555.342661799863,555.342661799863,555.342661799863,None,0,,,C:\2023\REPSWITCH21092023\REPSWITCH_excgange\REPSWITCH_excgange\data/080204_REPSWITCH1_version2_list4_2023-11-21_12h09.29.714_micRespv2l4_recorded\recording_micRespv2l4_2023-11-21_12h18.40.737.wav,558.3638651999645,558.8639531999361,None,558.3638651999645,558.3638651999645,558.3638651999645,558.3638651999645,558.3638651999645,558.3638651999645,,,,,,080204,001,2023-11-21_12h09.29.714,REPSWITCH1_version2_list4,2022.2.4,143.94516290347855,
REPSWITCH1/PICTURE_128.png,muñeca,speak,darkblue,nontarget,2,NT,1,3,4,2,Stim4_Set1,1,repeat,117,116,15,0,116,116,116,,,,,,,,,,,,,,,,,,,,,,,558.8639531999361,559.9335492998362,559.9335492998362,559.9335492998362,559.9335492998362,559.9335492998362,559.9335492998362,559.9335492998362,559.9335492998362,None,0,,,C:\2023\REPSWITCH21092023\REPSWITCH_excgange\REPSWITCH_excgange\data/080204_REPSWITCH1_version2_list4_2023-11-21_12h09.29.714_micRespv2l4_recorded\recording_micRespv2l4_2023-11-21_12h18.45.328.wav,562.9617617998738,,None,562.9617617998738,562.9617617998738,562.9617617998738,562.9617617998738,562.9617617998738,562.9617617998738,,,,,,080204,001,2023-11-21_12h09.29.714,REPSWITCH1_version2_list4,2022.2.4,143.94516290347855,
REPSWITCH1/PICTURE_128.png,muñeca,type,gold,switch,1,T,1,3,4,2,Stim4_Set1,0,None,118,117,16,0,117,117,117,,,,,,,,,,,,,,,,,,,,,,,563.461754999822,564.5313438000157,564.5313438000157,564.5313438000157,564.5313438000157,564.5313438000157,564.5313438000157,564.5313438000157,564.5313438000157,"['m', 'u', 'ñ', 'e', 'c', 'a']",0,"[0.6577379002701491, 0.881982000079006, 1.2806733001489192, 1.3595928002614528, 1.6210985002107918, 1.911654100054875]",muñeca,C:\2023\REPSWITCH21092023\REPSWITCH_excgange\REPSWITCH_excgange\data/080204_REPSWITCH1_version2_list4_2023-11-21_12h09.29.714_micRespv2l4_recorded\recording_micRespv2l4_2023-11-21_12h18.49.926.wav,567.5525718999561,568.0526339998469,None,567.5525718999561,567.5525718999561,567.5525718999561,567.5525718999561,567.5525718999561,567.5525718999561,,,,,,080204,001,2023-11-21_12h09.29.714,REPSWITCH1_version2_list4,2022.2.4,143.94516290347855,
REPSWITCH1/PICTURE_319.png,vaca,speak,darkblue,filler,2,F,1,3,4,2,Stim1_Set4,1,switch,119,118,17,0,118,118,118,,,,,,,,,,,,,,,,,,,,,,,568.0526339998469,569.1014254000038,569.1014254000038,569.1014254000038,569.1014254000038,569.1014254000038,569.1014254000038,569.1014254000038,569.1014254000038,None,0,,,C:\2023\REPSWITCH21092023\REPSWITCH_excgange\REPSWITCH_excgange\data/080204_REPSWITCH1_version2_list4_2023-11-21_12h09.29.714_micRespv2l4_recorded\recording_micRespv2l4_2023-11-21_12h18.54.496.wav,572.1226400998421,572.6226778000128,None,572.1226400998421,572.1226400998421,572.1226400998421,572.1226400998421,572.1226400998421,572.1226400998421,,,,,,080204,001,2023-11-21_12h09.29.714,REPSWITCH1_version2_list4,2022.2.4,143.94516290347855,
REPSWITCH1/PICTURE_728.png,pulpo,speak,darkblue,filler,2,F,1,3,4,2,Stim8_Set4,0,None,120,119,18,0,119,119,119,,,,,,,,,,,,,,,,,,,,,,,572.6226778000128,573.8589873998426,573.8589873998426,573.8589873998426,573.8589873998426,573.8589873998426,573.8589873998426,573.8589873998426,573.8589873998426,None,0,,,C:\2023\REPSWITCH21092023\REPSWITCH_excgange\REPSWITCH_excgange\data/080204_REPSWITCH1_version2_list4_2023-11-21_12h09.29.714_micRespv2l4_recorded\recording_micRespv2l4_2023-11-21_12h18.59.254.wav,576.880256399978,577.3802714999765,None,576.880256399978,576.880256399978,576.880256399978,576.880256399978,576.880256399978,576.880256399978,,,,,,080204,001,2023-11-21_12h09.29.714,REPSWITCH1_version2_list4,2022.2.4,143.94516290347855,
