image;correctAns;respModal;frameColor;repSwitch;sequence;target;set;block;list;exp_version;stimulus;baseline;baseline_condition;trial_no;psychopy_trial;Column1;trialsREPSWITCH.thisRepN;trialsREPSWITCH.thisTrialN;trialsREPSWITCH.thisN;trialsREPSWITCH.thisIndex;textWelcome.started;textboxInstrMain1.started;textboxInstrMain1_2.started;textboxInstrMain1_3.started;keyInstrMain.started;keyInstrMain.keys;keyInstrMain.rt;textboxInstrMain2.started;textboxInstrMain2_2.started;textboxInstrMain2_3.started;textboxInstrMain2_4.started;textboxInstrMain2_5.started;textboxInstrMain2_6.started;textboxInstrMain2_7.started;textboxInstrMain2_8.started;textboxInstrMain2_9.started;textboxInstrMain2_10.started;textboxInstrMain2_11.started;textboxInstrMain2_12.started;keyInstrMain2.started;keyInstrMain2.keys;keyInstrMain2.rt;fixationITI.started;fixationITI.stopped;polygonColour.started;polygonWhite.started;imageObject.started;polygonType.started;textInput.started;keyResp.started;micRespv2l1.started;keyResp.keys;keyResp.corr;subjResponse;micRespv2l1.clip;textBlankLoop.started;textBlankLoop.stopped;keyPause.keys;polygonColour.stopped;polygonWhite.stopped;imageObject.stopped;polygonType.stopped;textInput.stopped;keyResp.stopped;keyResp.rt;textboxPause.started;keyPause.started;keyPause.rt;textboxGoodbye.started;textboxGoodbye.stopped;participant;session;date;expName;psychopyVersion;frameRate;Column2
;;;;;;;;;;;;;;;;;;;;;9.96898079989478;12.46745299990289;12.46745299990289;12.46745299990289;12.46745299990289;space;4.982543800026178;;;;;;;;;;;;;;;;;;;;;;;;;;;;;;;;;;;;;;;;;;;;100201;001;2023-11-23_12h46.02.229;REPSWITCH1_version2_list1;2022.2.4;143.9418477210003;
;;;;;;;;;;;;;;;;;;;;;;;;;;;;17.46817939984612;17.46817939984612;17.46817939984612;17.46817939984612;17.46817939984612;17.46817939984612;17.46817939984612;17.46817939984612;17.46817939984612;17.46817939984612;17.46817939984612;17.46817939984612;17.46817939984612;space;4.485582400113344;;;;;;;;;;;;;;;;;;;;;;;;;;;;;100201;001;2023-11-23_12h46.02.229;REPSWITCH1_version2_list1;2022.2.4;143.9418477210003;
REPSWITCH1/PICTURE_340.png;espejo;type;gold;filler;1;F;1;1;1;2;Extra1;0;None;1;0;1;0;0;0;0;;;;;;;;;;;;;;;;;;;;;;;22.04517409997061;23.073029899969697;23.073029899969697;23.073029899969697;23.073029899969697;23.073029899969697;23.073029899969697;23.073029899969697;23.073029899969697;None;0;;C:\2023\REPSWITCH21092023\REPSWITCH_excgange\REPSWITCH_excgange\data/100201_REPSWITCH1_version2_list1_2023-11-23_12h46.02.229_micRespv2l1_recorded\recording_micRespv2l1_2023-11-23_12h46.20.211.wav;26.094248599838465;26.59430080000311;None;;;;;;;;;;;;;100201;001;2023-11-23_12h46.02.229;REPSWITCH1_version2_list1;2022.2.4;143.9418477210003;
REPSWITCH1/PICTURE_391.png;cadena;speak;darkblue;filler;2;F;1;1;1;2;Extra2;0;None;2;1;2;0;1;1;1;;;;;;;;;;;;;;;;;;;;;;;26.59430080000311;27.649979499867186;27.649979499867186;27.649979499867186;27.649979499867186;27.649979499867186;27.649979499867186;27.649979499867186;27.649979499867186;None;0;;C:\2023\REPSWITCH21092023\REPSWITCH_excgange\REPSWITCH_excgange\data/100201_REPSWITCH1_version2_list1_2023-11-23_12h46.02.229_micRespv2l1_recorded\recording_micRespv2l1_2023-11-23_12h46.24.792.wav;30.671230299863964;31.171358599793166;None;30.671230299863964;30.671230299863964;30.671230299863964;30.671230299863964;30.671230299863964;30.671230299863964;;;;;;;100201;001;2023-11-23_12h46.02.229;REPSWITCH1_version2_list1;2022.2.4;143.9418477210003;
REPSWITCH1/PICTURE_178.png;puente;speak;darkblue;nontarget;2;NT;1;1;1;2;Stim1_Set1;1;repeat;3;2;3;0;2;2;2;;;;;;;;;;;;;;;;;;;;;;;31.171358599793166;32.268661599839106;32.268661599839106;32.268661599839106;32.268661599839106;32.268661599839106;32.268661599839106;32.268661599839106;32.268661599839106;None;0;;C:\2023\REPSWITCH21092023\REPSWITCH_excgange\REPSWITCH_excgange\data/100201_REPSWITCH1_version2_list1_2023-11-23_12h46.02.229_micRespv2l1_recorded\recording_micRespv2l1_2023-11-23_12h46.29.412.wav;35.296802199911326;;None;35.296802199911326;35.296802199911326;35.296802199911326;35.296802199911326;35.296802199911326;35.296802199911326;;;;;;;100201;001;2023-11-23_12h46.02.229;REPSWITCH1_version2_list1;2022.2.4;143.9418477210003;
REPSWITCH1/PICTURE_178.png;puente;speak;darkblue;repeat;2;T;1;1;1;2;Stim1_Set1;0;None;4;3;4;0;3;3;3;;;;;;;;;;;;;;;;;;;;;;;35.79686679993756;36.82482280000113;36.82482280000113;36.82482280000113;36.82482280000113;36.82482280000113;36.82482280000113;36.82482280000113;36.82482280000113;None;0;;C:\2023\REPSWITCH21092023\REPSWITCH_excgange\REPSWITCH_excgange\data/100201_REPSWITCH1_version2_list1_2023-11-23_12h46.02.229_micRespv2l1_recorded\recording_micRespv2l1_2023-11-23_12h46.33.968.wav;39.84599779988639;40.346105800010264;None;39.84599779988639;39.84599779988639;39.84599779988639;39.84599779988639;39.84599779988639;39.84599779988639;;;;;;;100201;001;2023-11-23_12h46.02.229;REPSWITCH1_version2_list1;2022.2.4;143.9418477210003;
REPSWITCH1/PICTURE_319.png;vaca;type;gold;filler;1;F;1;1;1;2;Stim1_Set4;0;None;5;4;5;0;4;4;4;;;;;;;;;;;;;;;;;;;;;;;40.346105800010264;41.45734600001015;41.45734600001015;41.45734600001015;41.45734600001015;41.45734600001015;41.45734600001015;41.45734600001015;41.45734600001015;['v', 'a', 'c', 'a'];0;vaca;C:\2023\REPSWITCH21092023\REPSWITCH_excgange\REPSWITCH_excgange\data/100201_REPSWITCH1_version2_list1_2023-11-23_12h46.02.229_micRespv2l1_recorded\recording_micRespv2l1_2023-11-23_12h46.38.600.wav;44.4785540997982;44.97865769988857;None;44.4785540997982;44.4785540997982;44.4785540997982;44.4785540997982;44.4785540997982;44.4785540997982;[0.789494700031355, 0.8423011999111623, 1.4363548001274467, 1.5353399999439716];;;;;;100201;001;2023-11-23_12h46.02.229;REPSWITCH1_version2_list1;2022.2.4;143.9418477210003;
REPSWITCH1/PICTURE_381.png;fresa;speak;darkblue;nontarget;2;NT;1;1;1;2;Stim2_Set1;1;switch;6;5;6;0;5;5;5;;;;;;;;;;;;;;;;;;;;;;;44.97865769988857;46.04127489984967;46.04127489984967;46.04127489984967;46.04127489984967;46.04127489984967;46.04127489984967;46.04127489984967;46.04127489984967;None;0;;C:\2023\REPSWITCH21092023\REPSWITCH_excgange\REPSWITCH_excgange\data/100201_REPSWITCH1_version2_list1_2023-11-23_12h46.02.229_micRespv2l1_recorded\recording_micRespv2l1_2023-11-23_12h46.43.184.wav;49.06258079991676;49.56258339993656;None;49.06258079991676;49.06258079991676;49.06258079991676;49.06258079991676;49.06258079991676;49.06258079991676;;;;;;;100201;001;2023-11-23_12h46.02.229;REPSWITCH1_version2_list1;2022.2.4;143.9418477210003;
REPSWITCH1/PICTURE_381.png;fresa;speak;darkblue;repeat;2;T;1;1;1;2;Stim2_Set1;0;None;7;6;7;0;6;6;6;;;;;;;;;;;;;;;;;;;;;;;49.56258339993656;50.63224529987201;50.63224529987201;50.63224529987201;50.63224529987201;50.63224529987201;50.63224529987201;50.63224529987201;50.63224529987201;None;0;;C:\2023\REPSWITCH21092023\REPSWITCH_excgange\REPSWITCH_excgange\data/100201_REPSWITCH1_version2_list1_2023-11-23_12h46.02.229_micRespv2l1_recorded\recording_micRespv2l1_2023-11-23_12h46.47.775.wav;53.65339919994585;54.15346209984273;None;53.65339919994585;53.65339919994585;53.65339919994585;53.65339919994585;53.65339919994585;53.65339919994585;;;;;;;100201;001;2023-11-23_12h46.02.229;REPSWITCH1_version2_list1;2022.2.4;143.9418477210003;
REPSWITCH1/PICTURE_719.png;baño;type;gold;filler;1;F;1;1;1;2;Stim2_Set4;1;switch;8;7;8;0;7;7;7;;;;;;;;;;;;;;;;;;;;;;;54.15346209984273;55.26478490000591;55.26478490000591;55.26478490000591;55.26478490000591;55.26478490000591;55.26478490000591;55.26478490000591;55.26478490000591;['b', 'a', 'ñ', 'p', 'backspace', 'o'];0;baño;C:\2023\REPSWITCH21092023\REPSWITCH_excgange\REPSWITCH_excgange\data/100201_REPSWITCH1_version2_list1_2023-11-23_12h46.02.229_micRespv2l1_recorded\recording_micRespv2l1_2023-11-23_12h46.52.408.wav;58.2928760999348;;None;58.2928760999348;58.2928760999348;58.2928760999348;58.2928760999348;58.2928760999348;58.2928760999348;[0.8712525002192706, 0.9579465000424534, 1.574055900098756, 1.8078015001956373, 2.3346981001086533, 2.843961700098589];;;;;;100201;001;2023-11-23_12h46.02.229;REPSWITCH1_version2_list1;2022.2.4;143.9418477210003;
REPSWITCH1/PICTURE_135.png;traje;speak;darkblue;nontarget;2;NT;1;1;1;2;Stim3_Set1;0;None;9;8;9;0;8;8;8;;;;;;;;;;;;;;;;;;;;;;;58.79293449991383;59.85557149979286;59.85557149979286;59.85557149979286;59.85557149979286;59.85557149979286;59.85557149979286;59.85557149979286;59.85557149979286;None;0;;C:\2023\REPSWITCH21092023\REPSWITCH_excgange\REPSWITCH_excgange\data/100201_REPSWITCH1_version2_list1_2023-11-23_12h46.02.229_micRespv2l1_recorded\recording_micRespv2l1_2023-11-23_12h46.56.999.wav;62.88374999980442;;None;62.88374999980442;62.88374999980442;62.88374999980442;62.88374999980442;62.88374999980442;62.88374999980442;;;;;;;100201;001;2023-11-23_12h46.02.229;REPSWITCH1_version2_list1;2022.2.4;143.9418477210003;
REPSWITCH1/PICTURE_135.png;traje;type;gold;switch;1;T;1;1;1;2;Stim3_Set1;0;None;10;9;10;0;9;9;9;;;;;;;;;;;;;;;;;;;;;;;63.383817499969155;64.59232739987783;64.59232739987783;64.59232739987783;64.59232739987783;64.59232739987783;64.59232739987783;64.59232739987783;64.59232739987783;['t', 'r', 'a', 'j', 'e'];0;traje;C:\2023\REPSWITCH21092023\REPSWITCH_excgange\REPSWITCH_excgange\data/100201_REPSWITCH1_version2_list1_2023-11-23_12h46.02.229_micRespv2l1_recorded\recording_micRespv2l1_2023-11-23_12h47.01.736.wav;67.61357309995219;68.11364519991912;None;67.61357309995219;67.61357309995219;67.61357309995219;67.61357309995219;67.61357309995219;67.61357309995219;[0.8427516000811011, 1.1819683001376688, 1.622288300190121, 1.9887497001327574, 2.066423000069335];;;;;;100201;001;2023-11-23_12h46.02.229;REPSWITCH1_version2_list1;2022.2.4;143.9418477210003;
REPSWITCH1/PICTURE_687.png;camisa;speak;darkblue;filler;2;F;1;1;1;2;Stim5_Set4;0;None;11;10;11;0;10;10;10;;;;;;;;;;;;;;;;;;;;;;;68.11364519991912;69.2179310999345;69.2179310999345;69.2179310999345;69.2179310999345;69.2179310999345;69.2179310999345;69.2179310999345;69.2179310999345;None;0;;C:\2023\REPSWITCH21092023\REPSWITCH_excgange\REPSWITCH_excgange\data/100201_REPSWITCH1_version2_list1_2023-11-23_12h46.02.229_micRespv2l1_recorded\recording_micRespv2l1_2023-11-23_12h47.06.361.wav;72.23923519998789;72.73921949998476;None;72.23923519998789;72.23923519998789;72.23923519998789;72.23923519998789;72.23923519998789;72.23923519998789;;;;;;;100201;001;2023-11-23_12h46.02.229;REPSWITCH1_version2_list1;2022.2.4;143.9418477210003;
REPSWITCH1/PICTURE_128.png;muñeca;type;gold;nontarget;1;NT;1;1;1;2;Stim4_Set1;1;switch;12;11;12;0;11;11;11;;;;;;;;;;;;;;;;;;;;;;;72.73921949998476;73.86437859991565;73.86437859991565;73.86437859991565;73.86437859991565;73.86437859991565;73.86437859991565;73.86437859991565;73.86437859991565;['m', 'u'];0;mu;C:\2023\REPSWITCH21092023\REPSWITCH_excgange\REPSWITCH_excgange\data/100201_REPSWITCH1_version2_list1_2023-11-23_12h46.02.229_micRespv2l1_recorded\recording_micRespv2l1_2023-11-23_12h47.11.007.wav;76.89254699996673;;None;76.89254699996673;76.89254699996673;76.89254699996673;76.89254699996673;76.89254699996673;76.89254699996673;[0.9745925001334399, 1.2387012001127005];;;;;;100201;001;2023-11-23_12h46.02.229;REPSWITCH1_version2_list1;2022.2.4;143.9418477210003;
REPSWITCH1/PICTURE_128.png;muñeca;speak;darkblue;switch;2;T;1;1;1;2;Stim4_Set1;0;None;13;12;13;0;12;12;12;;;;;;;;;;;;;;;;;;;;;;;77.39262589998543;78.45523969992064;78.45523969992064;78.45523969992064;78.45523969992064;78.45523969992064;78.45523969992064;78.45523969992064;78.45523969992064;None;0;;C:\2023\REPSWITCH21092023\REPSWITCH_excgange\REPSWITCH_excgange\data/100201_REPSWITCH1_version2_list1_2023-11-23_12h46.02.229_micRespv2l1_recorded\recording_micRespv2l1_2023-11-23_12h47.15.599.wav;81.48343469994143;;None;81.48343469994143;81.48343469994143;81.48343469994143;81.48343469994143;81.48343469994143;81.48343469994143;;;;;;;100201;001;2023-11-23_12h46.02.229;REPSWITCH1_version2_list1;2022.2.4;143.9418477210003;
REPSWITCH1/PICTURE_8.png;pierna;speak;darkblue;filler;2;F;1;1;1;2;Stim3_Set4;0;None;14;13;14;0;13;13;13;;;;;;;;;;;;;;;;;;;;;;;81.98356469999999;83.08781900000758;83.08781900000758;83.08781900000758;83.08781900000758;83.08781900000758;83.08781900000758;83.08781900000758;83.08781900000758;None;0;;C:\2023\REPSWITCH21092023\REPSWITCH_excgange\REPSWITCH_excgange\data/100201_REPSWITCH1_version2_list1_2023-11-23_12h46.02.229_micRespv2l1_recorded\recording_micRespv2l1_2023-11-23_12h47.20.230.wav;86.10906039993279;86.60910339979455;None;86.10906039993279;86.10906039993279;86.10906039993279;86.10906039993279;86.10906039993279;86.10906039993279;;;;;;;100201;001;2023-11-23_12h46.02.229;REPSWITCH1_version2_list1;2022.2.4;143.9418477210003;
REPSWITCH1/PICTURE_19.png;pavo;speak;darkblue;nontarget;2;NT;1;1;1;2;Stim5_Set1;0;None;15;14;15;0;14;14;14;;;;;;;;;;;;;;;;;;;;;;;86.60910339979455;87.72732810000889;87.72732810000889;87.72732810000889;87.72732810000889;87.72732810000889;87.72732810000889;87.72732810000889;87.72732810000889;None;0;;C:\2023\REPSWITCH21092023\REPSWITCH_excgange\REPSWITCH_excgange\data/100201_REPSWITCH1_version2_list1_2023-11-23_12h46.02.229_micRespv2l1_recorded\recording_micRespv2l1_2023-11-23_12h47.24.871.wav;90.75548319984227;91.25560579984449;None;90.75548319984227;90.75548319984227;90.75548319984227;90.75548319984227;90.75548319984227;90.75548319984227;;;;;;;100201;001;2023-11-23_12h46.02.229;REPSWITCH1_version2_list1;2022.2.4;143.9418477210003;
REPSWITCH1/PICTURE_19.png;pavo;type;gold;switch;1;T;1;1;1;2;Stim5_Set1;0;None;16;15;16;0;15;15;15;;;;;;;;;;;;;;;;;;;;;;;91.25560579984449;92.31126029998995;92.31126029998995;92.31126029998995;92.31126029998995;92.31126029998995;92.31126029998995;92.31126029998995;92.31126029998995;['p', 'v', 'o', 'backspace', 'backspace', 'a'];0;pa;C:\2023\REPSWITCH21092023\REPSWITCH_excgange\REPSWITCH_excgange\data/100201_REPSWITCH1_version2_list1_2023-11-23_12h46.02.229_micRespv2l1_recorded\recording_micRespv2l1_2023-11-23_12h47.29.454.wav;95.33243939979002;95.83259319979697;None;95.33243939979002;95.33243939979002;95.33243939979002;95.33243939979002;95.33243939979002;95.33243939979002;[0.9278911000583321, 1.2630591001361609, 1.4294541000854224, 2.332500500138849, 2.514190800022334, 2.8394095001276582];;;;;;100201;001;2023-11-23_12h46.02.229;REPSWITCH1_version2_list1;2022.2.4;143.9418477210003;
REPSWITCH1/PICTURE_16.png;cazador;type;gold;nontarget;1;NT;1;1;1;2;Stim6_Set1;1;switch;17;16;17;0;16;16;16;;;;;;;;;;;;;;;;;;;;;;;95.83259319979697;96.85349289979786;96.85349289979786;96.85349289979786;96.85349289979786;96.85349289979786;96.85349289979786;96.85349289979786;96.85349289979786;['c', 'a', 'z', 'a', 'd', 'o', 'r'];0;cazador;C:\2023\REPSWITCH21092023\REPSWITCH_excgange\REPSWITCH_excgange\data/100201_REPSWITCH1_version2_list1_2023-11-23_12h46.02.229_micRespv2l1_recorded\recording_micRespv2l1_2023-11-23_12h47.33.997.wav;99.88167439983226;100.38171279989183;None;99.88167439983226;99.88167439983226;99.88167439983226;99.88167439983226;99.88167439983226;99.88167439983226;[0.9708447000011802, 1.1085394001565874, 1.313313800143078, 1.5206240999978036, 1.6852739001624286, 1.891257000155747, 2.0108924000523984];;;;;;100201;001;2023-11-23_12h46.02.229;REPSWITCH1_version2_list1;2022.2.4;143.9418477210003;
REPSWITCH1/PICTURE_16.png;cazador;type;gold;repeat;1;T;1;1;1;2;Stim6_Set1;0;None;18;17;18;0;17;17;17;;;;;;;;;;;;;;;;;;;;;;;100.38171279989183;101.5138522000052;101.5138522000052;101.5138522000052;101.5138522000052;101.5138522000052;101.5138522000052;101.5138522000052;101.5138522000052;['c', 'a', 'z', 'a', 'd', 'o', 'r'];0;cazador;C:\2023\REPSWITCH21092023\REPSWITCH_excgange\REPSWITCH_excgange\data/100201_REPSWITCH1_version2_list1_2023-11-23_12h46.02.229_micRespv2l1_recorded\recording_micRespv2l1_2023-11-23_12h47.38.657.wav;104.54207089985721;;None;104.54207089985721;104.54207089985721;104.54207089985721;104.54207089985721;104.54207089985721;104.54207089985721;[1.2305684001185, 1.3690663001034409, 1.631545500131324, 1.7959908999036998, 2.0381887000985444, 2.249004099983722, 2.3606603001244366];;;;;;100201;001;2023-11-23_12h46.02.229;REPSWITCH1_version2_list1;2022.2.4;143.9418477210003;
REPSWITCH1/PICTURE_498.png;taza;speak;darkblue;filler;2;F;1;1;1;2;Stim4_Set4;0;None;19;18;19;0;18;18;18;;;;;;;;;;;;;;;;;;;;;;;105.04207279998809;106.17420889995992;106.17420889995992;106.17420889995992;106.17420889995992;106.17420889995992;106.17420889995992;106.17420889995992;106.17420889995992;None;0;;C:\2023\REPSWITCH21092023\REPSWITCH_excgange\REPSWITCH_excgange\data/100201_REPSWITCH1_version2_list1_2023-11-23_12h46.02.229_micRespv2l1_recorded\recording_micRespv2l1_2023-11-23_12h47.43.318.wav;109.20230569993146;;None;109.20230569993146;109.20230569993146;109.20230569993146;109.20230569993146;109.20230569993146;109.20230569993146;;;;;;;100201;001;2023-11-23_12h46.02.229;REPSWITCH1_version2_list1;2022.2.4;143.9418477210003;
REPSWITCH1/PICTURE_48.png;bombero;type;gold;filler;1;F;1;1;1;2;Stim7_Set4;0;None;20;19;20;0;19;19;19;;;;;;;;;;;;;;;;;;;;;;;109.70239220000803;110.75113329989836;110.75113329989836;110.75113329989836;110.75113329989836;110.75113329989836;110.75113329989836;110.75113329989836;110.75113329989836;['b', 'o', 'm', 'b', 'r', 'e', 'o'];0;bombreo;C:\2023\REPSWITCH21092023\REPSWITCH_excgange\REPSWITCH_excgange\data/100201_REPSWITCH1_version2_list1_2023-11-23_12h46.02.229_micRespv2l1_recorded\recording_micRespv2l1_2023-11-23_12h47.47.894.wav;113.77933970000595;;None;113.77933970000595;113.77933970000595;113.77933970000595;113.77933970000595;113.77933970000595;113.77933970000595;[0.798123000189662, 1.1272338000126183, 1.3571959000546485, 1.6282335000578314, 1.879391900030896, 1.898329900112003, 2.2292279000394046];;;;;;100201;001;2023-11-23_12h46.02.229;REPSWITCH1_version2_list1;2022.2.4;143.9418477210003;
REPSWITCH1/PICTURE_142.png;vaso;type;gold;nontarget;1;NT;1;1;1;2;Stim7_Set1;1;repeat;21;20;21;0;20;20;20;;;;;;;;;;;;;;;;;;;;;;;114.27938669989817;115.34898739983328;115.34898739983328;115.34898739983328;115.34898739983328;115.34898739983328;115.34898739983328;115.34898739983328;115.34898739983328;['v', 'a', 's', 'o'];0;vaso;C:\2023\REPSWITCH21092023\REPSWITCH_excgange\REPSWITCH_excgange\data/100201_REPSWITCH1_version2_list1_2023-11-23_12h46.02.229_micRespv2l1_recorded\recording_micRespv2l1_2023-11-23_12h47.52.493.wav;118.37715739989653;118.87723779981025;None;118.37715739989653;118.37715739989653;118.37715739989653;118.37715739989653;118.37715739989653;118.37715739989653;[0.826729099964723, 1.0242240000516176, 1.1438115001656115, 1.2953928001224995];;;;;;100201;001;2023-11-23_12h46.02.229;REPSWITCH1_version2_list1;2022.2.4;143.9418477210003;
REPSWITCH1/PICTURE_142.png;vaso;type;gold;repeat;1;T;1;1;1;2;Stim7_Set1;0;None;22;21;22;0;21;21;21;;;;;;;;;;;;;;;;;;;;;;;118.87723779981025;119.9676927998662;119.9676927998662;119.9676927998662;119.9676927998662;119.9676927998662;119.9676927998662;119.9676927998662;119.9676927998662;['v', 'a', 's', 'o'];0;vaso;C:\2023\REPSWITCH21092023\REPSWITCH_excgange\REPSWITCH_excgange\data/100201_REPSWITCH1_version2_list1_2023-11-23_12h46.02.229_micRespv2l1_recorded\recording_micRespv2l1_2023-11-23_12h47.57.111.wav;122.99578329990618;;None;122.99578329990618;122.99578329990618;122.99578329990618;122.99578329990618;122.99578329990618;122.99578329990618;[0.8079701000824571, 0.9887038001324981, 1.077373499982059, 1.2259108000434935];;;;;;100201;001;2023-11-23_12h46.02.229;REPSWITCH1_version2_list1;2022.2.4;143.9418477210003;
REPSWITCH1/PICTURE_338.png;regalo;speak;darkblue;filler;2;F;1;1;1;2;Stim6_Set4;1;switch;23;22;23;0;22;22;22;;;;;;;;;;;;;;;;;;;;;;;123.49585369997658;124.55154879996553;124.55154879996553;124.55154879996553;124.55154879996553;124.55154879996553;124.55154879996553;124.55154879996553;124.55154879996553;None;0;;C:\2023\REPSWITCH21092023\REPSWITCH_excgange\REPSWITCH_excgange\data/100201_REPSWITCH1_version2_list1_2023-11-23_12h46.02.229_micRespv2l1_recorded\recording_micRespv2l1_2023-11-23_12h48.01.694.wav;127.57279070001096;128.0729149999097;None;127.57279070001096;127.57279070001096;127.57279070001096;127.57279070001096;127.57279070001096;127.57279070001096;;;;;;;100201;001;2023-11-23_12h46.02.229;REPSWITCH1_version2_list1;2022.2.4;143.9418477210003;
REPSWITCH1/PICTURE_728.png;pulpo;type;gold;filler;1;F;1;1;1;2;Stim8_Set4;1;switch;24;23;24;0;23;23;23;;;;;;;;;;;;;;;;;;;;;;;128.0729149999097;129.19802659982815;129.19802659982815;129.19802659982815;129.19802659982815;129.19802659982815;129.19802659982815;129.19802659982815;129.19802659982815;['p', 'u', 'l', 'p', 'o'];0;pulpo;C:\2023\REPSWITCH21092023\REPSWITCH_excgange\REPSWITCH_excgange\data/100201_REPSWITCH1_version2_list1_2023-11-23_12h46.02.229_micRespv2l1_recorded\recording_micRespv2l1_2023-11-23_12h48.06.340.wav;132.2192179998383;132.7193757998757;None;132.2192179998383;132.2192179998383;132.2192179998383;132.2192179998383;132.2192179998383;132.2192179998383;[0.9678500001318753, 1.333391300169751, 1.6007564002647996, 1.8100903001613915, 1.9835237001534551];;;;;;100201;001;2023-11-23_12h46.02.229;REPSWITCH1_version2_list1;2022.2.4;143.9418477210003;
REPSWITCH1/PICTURE_169.png;espalda;type;gold;nontarget;1;NT;1;1;1;2;Stim8_Set1;1;repeat;25;24;25;0;24;24;24;;;;;;;;;;;;;;;;;;;;;;;132.7193757998757;133.76112769986503;133.76112769986503;133.76112769986503;133.76112769986503;133.76112769986503;133.76112769986503;133.76112769986503;133.76112769986503;['e', 's', 'p', 'a', 'l', 'd', 'a'];0;espalda;C:\2023\REPSWITCH21092023\REPSWITCH_excgange\REPSWITCH_excgange\data/100201_REPSWITCH1_version2_list1_2023-11-23_12h46.02.229_micRespv2l1_recorded\recording_micRespv2l1_2023-11-23_12h48.10.903.wav;136.78233779990114;137.28239959990606;None;136.78233779990114;136.78233779990114;136.78233779990114;136.78233779990114;136.78233779990114;136.78233779990114;[0.9230190000962466, 1.2051041999366134, 1.4070065000560135, 1.5036430999170989, 1.7531451999675483, 1.9774031999986619, 2.099988100118935];;;;;;100201;001;2023-11-23_12h46.02.229;REPSWITCH1_version2_list1;2022.2.4;143.9418477210003;
REPSWITCH1/PICTURE_169.png;espalda;speak;darkblue;switch;2;T;1;1;1;2;Stim8_Set1;0;None;26;25;26;0;25;25;25;;;;;;;;;;;;;;;;;;;;;;;137.28239959990606;138.3797886997927;138.3797886997927;138.3797886997927;138.3797886997927;138.3797886997927;138.3797886997927;138.3797886997927;138.3797886997927;None;0;;C:\2023\REPSWITCH21092023\REPSWITCH_excgange\REPSWITCH_excgange\data/100201_REPSWITCH1_version2_list1_2023-11-23_12h46.02.229_micRespv2l1_recorded\recording_micRespv2l1_2023-11-23_12h48.15.523.wav;141.4009990999475;141.90104629984125;None;141.4009990999475;141.4009990999475;141.4009990999475;141.4009990999475;141.4009990999475;141.4009990999475;;;;;;;100201;001;2023-11-23_12h46.02.229;REPSWITCH1_version2_list1;2022.2.4;143.9418477210003;
REPSWITCH1/PICTURE_178.png;puente;speak;darkblue;filler;2;F;2;1;1;2;Stim1_Set1;0;None;27;26;27;0;26;26;26;;;;;;;;;;;;;;;;;;;;;;;141.90104629984125;142.9359315999318;142.9359315999318;142.9359315999318;142.9359315999318;142.9359315999318;142.9359315999318;142.9359315999318;142.9359315999318;None;0;;C:\2023\REPSWITCH21092023\REPSWITCH_excgange\REPSWITCH_excgange\data/100201_REPSWITCH1_version2_list1_2023-11-23_12h46.02.229_micRespv2l1_recorded\recording_micRespv2l1_2023-11-23_12h48.20.079.wav;145.9571217999328;146.45728879980743;None;145.9571217999328;145.9571217999328;145.9571217999328;145.9571217999328;145.9571217999328;145.9571217999328;;;;;;;100201;001;2023-11-23_12h46.02.229;REPSWITCH1_version2_list1;2022.2.4;143.9418477210003;
REPSWITCH1/PICTURE_175.png;pintor;type;gold;nontarget;1;NT;2;1;1;2;Stim1_Set2;1;switch;28;27;28;0;27;27;27;;;;;;;;;;;;;;;;;;;;;;;146.45728879980743;147.56159589998424;147.56159589998424;147.56159589998424;147.56159589998424;147.56159589998424;147.56159589998424;147.56159589998424;147.56159589998424;['p', 'i', 'n', 'r', 'o'];0;pinro;C:\2023\REPSWITCH21092023\REPSWITCH_excgange\REPSWITCH_excgange\data/100201_REPSWITCH1_version2_list1_2023-11-23_12h46.02.229_micRespv2l1_recorded\recording_micRespv2l1_2023-11-23_12h48.24.703.wav;150.5827325999271;151.08279849984683;None;150.5827325999271;150.5827325999271;150.5827325999271;150.5827325999271;150.5827325999271;150.5827325999271;[0.9653509999625385, 1.2904471000656486, 1.6477187001146376, 2.03485790011473, 2.150251799961552];;;;;;100201;001;2023-11-23_12h46.02.229;REPSWITCH1_version2_list1;2022.2.4;143.9418477210003;
REPSWITCH1/PICTURE_175.png;pintor;type;gold;repeat;1;T;2;1;1;2;Stim1_Set2;0;None;29;28;29;0;28;28;28;;;;;;;;;;;;;;;;;;;;;;;151.08279849984683;152.17323690000921;152.17323690000921;152.17323690000921;152.17323690000921;152.17323690000921;152.17323690000921;152.17323690000921;152.17323690000921;['p', 'i', 'n', 't', 'o', 'r'];0;pintor;C:\2023\REPSWITCH21092023\REPSWITCH_excgange\REPSWITCH_excgange\data/100201_REPSWITCH1_version2_list1_2023-11-23_12h46.02.229_micRespv2l1_recorded\recording_micRespv2l1_2023-11-23_12h48.29.316.wav;155.19444889994338;155.69453329988755;None;155.19444889994338;155.19444889994338;155.19444889994338;155.19444889994338;155.19444889994338;155.19444889994338;[0.9789170001167804, 1.2004935999866575, 1.4179422999732196, 1.555249199969694, 1.7589291001204401, 1.8854924000333995];;;;;;100201;001;2023-11-23_12h46.02.229;REPSWITCH1_version2_list1;2022.2.4;143.9418477210003;
REPSWITCH1/PICTURE_381.png;fresa;speak;darkblue;filler;2;F;2;1;1;2;Stim2_Set1;0;None;30;29;30;0;29;29;29;;;;;;;;;;;;;;;;;;;;;;;155.69453329988755;156.79192539979704;156.79192539979704;156.79192539979704;156.79192539979704;156.79192539979704;156.79192539979704;156.79192539979704;156.79192539979704;None;0;;C:\2023\REPSWITCH21092023\REPSWITCH_excgange\REPSWITCH_excgange\data/100201_REPSWITCH1_version2_list1_2023-11-23_12h46.02.229_micRespv2l1_recorded\recording_micRespv2l1_2023-11-23_12h48.33.935.wav;159.82007409981452;;None;159.82007409981452;159.82007409981452;159.82007409981452;159.82007409981452;159.82007409981452;159.82007409981452;;;;;;;100201;001;2023-11-23_12h46.02.229;REPSWITCH1_version2_list1;2022.2.4;143.9418477210003;
REPSWITCH1/PICTURE_152.png;caracol;type;gold;nontarget;1;NT;2;1;1;2;Stim2_Set2;1;switch;31;30;31;0;30;30;30;;;;;;;;;;;;;;;;;;;;;;;160.32012589997612;161.37584409979172;161.37584409979172;161.37584409979172;161.37584409979172;161.37584409979172;161.37584409979172;161.37584409979172;161.37584409979172;['c', 'a', 'r', 'a', 'c', 'o', 'l'];0;caracol;C:\2023\REPSWITCH21092023\REPSWITCH_excgange\REPSWITCH_excgange\data/100201_REPSWITCH1_version2_list1_2023-11-23_12h46.02.229_micRespv2l1_recorded\recording_micRespv2l1_2023-11-23_12h48.38.518.wav;164.39706469979137;164.89720029989257;None;164.39706469979137;164.39706469979137;164.39706469979137;164.39706469979137;164.39706469979137;164.39706469979137;[1.1180533000733703, 1.240956500172615, 1.3984218002296984, 1.4582286002114415, 1.766200400190428, 1.8907818000297993, 2.058269000146538];;;;;;100201;001;2023-11-23_12h46.02.229;REPSWITCH1_version2_list1;2022.2.4;143.9418477210003;
REPSWITCH1/PICTURE_152.png;caracol;type;gold;repeat;1;T;2;1;1;2;Stim2_Set2;0;None;32;31;32;0;31;31;31;;;;;;;;;;;;;;;;;;;;;;;164.89720029989257;165.93899429985322;165.93899429985322;165.93899429985322;165.93899429985322;165.93899429985322;165.93899429985322;165.93899429985322;165.93899429985322;['c', 'a', 'r', 'a', 'c', 'o', 'l'];0;caracol;C:\2023\REPSWITCH21092023\REPSWITCH_excgange\REPSWITCH_excgange\data/100201_REPSWITCH1_version2_list1_2023-11-23_12h46.02.229_micRespv2l1_recorded\recording_micRespv2l1_2023-11-23_12h48.43.082.wav;168.9670906998217;;None;168.9670906998217;168.9670906998217;168.9670906998217;168.9670906998217;168.9670906998217;168.9670906998217;[0.6981951999478042, 0.8387227000202984, 1.0203998000361025, 1.2211557999253273, 1.3536440001334995, 1.4768848000094295, 1.6366626000963151];;;;;;100201;001;2023-11-23_12h46.02.229;REPSWITCH1_version2_list1;2022.2.4;143.9418477210003;
REPSWITCH1/PICTURE_128.png;muñeca;speak;darkblue;filler;2;F;2;1;1;2;Stim4_Set1;0;None;33;32;33;0;32;32;32;;;;;;;;;;;;;;;;;;;;;;;169.4671722999774;170.55064009991474;170.55064009991474;170.55064009991474;170.55064009991474;170.55064009991474;170.55064009991474;170.55064009991474;170.55064009991474;None;0;;C:\2023\REPSWITCH21092023\REPSWITCH_excgange\REPSWITCH_excgange\data/100201_REPSWITCH1_version2_list1_2023-11-23_12h46.02.229_micRespv2l1_recorded\recording_micRespv2l1_2023-11-23_12h48.47.694.wav;173.57185279997066;174.07194279995747;None;173.57185279997066;173.57185279997066;173.57185279997066;173.57185279997066;173.57185279997066;173.57185279997066;;;;;;;100201;001;2023-11-23_12h46.02.229;REPSWITCH1_version2_list1;2022.2.4;143.9418477210003;
REPSWITCH1/PICTURE_264.png;mano;type;gold;nontarget;1;NT;2;1;1;2;Stim3_Set2;0;None;34;33;34;0;33;33;33;;;;;;;;;;;;;;;;;;;;;;;174.07194279995747;175.16239069984294;175.16239069984294;175.16239069984294;175.16239069984294;175.16239069984294;175.16239069984294;175.16239069984294;175.16239069984294;['m', 'n', 'backspace', 'a', 'n', 'o'];0;mano;C:\2023\REPSWITCH21092023\REPSWITCH_excgange\REPSWITCH_excgange\data/100201_REPSWITCH1_version2_list1_2023-11-23_12h46.02.229_micRespv2l1_recorded\recording_micRespv2l1_2023-11-23_12h48.52.306.wav;178.18359509995207;178.68364659999497;None;178.18359509995207;178.18359509995207;178.18359509995207;178.18359509995207;178.18359509995207;178.18359509995207;[1.1829470002558082, 1.4410766002256423, 1.8389873001724482, 2.0173870001453906, 2.226107600145042, 2.45328770019114];;;;;;100201;001;2023-11-23_12h46.02.229;REPSWITCH1_version2_list1;2022.2.4;143.9418477210003;
REPSWITCH1/PICTURE_264.png;mano;speak;darkblue;switch;2;T;2;1;1;2;Stim3_Set2;0;None;35;34;35;0;34;34;34;;;;;;;;;;;;;;;;;;;;;;;178.68364659999497;179.85048429993913;179.85048429993913;179.85048429993913;179.85048429993913;179.85048429993913;179.85048429993913;179.85048429993913;179.85048429993913;None;0;;C:\2023\REPSWITCH21092023\REPSWITCH_excgange\REPSWITCH_excgange\data/100201_REPSWITCH1_version2_list1_2023-11-23_12h46.02.229_micRespv2l1_recorded\recording_micRespv2l1_2023-11-23_12h48.56.994.wav;182.87871299986728;;None;182.87871299986728;182.87871299986728;182.87871299986728;182.87871299986728;182.87871299986728;182.87871299986728;;;;;;;100201;001;2023-11-23_12h46.02.229;REPSWITCH1_version2_list1;2022.2.4;143.9418477210003;
REPSWITCH1/PICTURE_517.png;cuerda;speak;darkblue;nontarget;2;NT;2;1;1;2;Stim4_Set2;1;repeat;36;35;36;0;35;35;35;;;;;;;;;;;;;;;;;;;;;;;183.37867859983817;184.47606009989977;184.47606009989977;184.47606009989977;184.47606009989977;184.47606009989977;184.47606009989977;184.47606009989977;184.47606009989977;None;0;;C:\2023\REPSWITCH21092023\REPSWITCH_excgange\REPSWITCH_excgange\data/100201_REPSWITCH1_version2_list1_2023-11-23_12h46.02.229_micRespv2l1_recorded\recording_micRespv2l1_2023-11-23_12h49.01.618.wav;187.49735899991356;187.99737599981017;None;187.49735899991356;187.49735899991356;187.49735899991356;187.49735899991356;187.49735899991356;187.49735899991356;;;;;;;100201;001;2023-11-23_12h46.02.229;REPSWITCH1_version2_list1;2022.2.4;143.9418477210003;
REPSWITCH1/PICTURE_517.png;cuerda;type;gold;switch;1;T;2;1;1;2;Stim4_Set2;0;None;37;36;37;0;36;36;36;;;;;;;;;;;;;;;;;;;;;;;187.99737599981017;189.1433449999895;189.1433449999895;189.1433449999895;189.1433449999895;189.1433449999895;189.1433449999895;189.1433449999895;189.1433449999895;['c', 'u', 'e', 'r', 'd', 'a'];0;cuerda;C:\2023\REPSWITCH21092023\REPSWITCH_excgange\REPSWITCH_excgange\data/100201_REPSWITCH1_version2_list1_2023-11-23_12h46.02.229_micRespv2l1_recorded\recording_micRespv2l1_2023-11-23_12h49.06.286.wav;192.16459249984473;192.664638399845;None;192.16459249984473;192.16459249984473;192.16459249984473;192.16459249984473;192.16459249984473;192.16459249984473;[0.6757369001861662, 0.8644530002493411, 1.008477000053972, 1.1476605001371354, 1.3986606001853943, 1.487328400136903];;;;;;100201;001;2023-11-23_12h46.02.229;REPSWITCH1_version2_list1;2022.2.4;143.9418477210003;
REPSWITCH1/PICTURE_135.png;traje;type;gold;filler;1;F;2;1;1;2;Stim3_Set1;0;None;38;37;38;0;37;37;37;;;;;;;;;;;;;;;;;;;;;;;192.664638399845;193.81756279990077;193.81756279990077;193.81756279990077;193.81756279990077;193.81756279990077;193.81756279990077;193.81756279990077;193.81756279990077;['t', 'r', 'a', 'j', 'e'];0;traje;C:\2023\REPSWITCH21092023\REPSWITCH_excgange\REPSWITCH_excgange\data/100201_REPSWITCH1_version2_list1_2023-11-23_12h46.02.229_micRespv2l1_recorded\recording_micRespv2l1_2023-11-23_12h49.10.960.wav;196.8387893999461;197.3389267998282;None;196.8387893999461;196.8387893999461;196.8387893999461;196.8387893999461;196.8387893999461;196.8387893999461;[0.9061424001120031, 1.169470600085333, 1.2880762999411672, 1.6363105000928044, 1.7060698999557644];;;;;;100201;001;2023-11-23_12h46.02.229;REPSWITCH1_version2_list1;2022.2.4;143.9418477210003;
REPSWITCH1/PICTURE_30.png;granja;type;gold;nontarget;1;NT;2;1;1;2;Stim5_Set2;1;repeat;39;38;39;0;38;38;38;;;;;;;;;;;;;;;;;;;;;;;197.3389267998282;198.4223276998382;198.4223276998382;198.4223276998382;198.4223276998382;198.4223276998382;198.4223276998382;198.4223276998382;198.4223276998382;['g', 'r', 'a', 'n', 'j', 'a'];0;granja;C:\2023\REPSWITCH21092023\REPSWITCH_excgange\REPSWITCH_excgange\data/100201_REPSWITCH1_version2_list1_2023-11-23_12h46.02.229_micRespv2l1_recorded\recording_micRespv2l1_2023-11-23_12h49.15.565.wav;201.45052600000054;;None;201.45052600000054;201.45052600000054;201.45052600000054;201.45052600000054;201.45052600000054;201.45052600000054;[1.065036600222811, 1.2660823001060635, 1.4035480001475662, 1.8284361001569778, 2.15113570028916, 2.2437230001669377];;;;;;100201;001;2023-11-23_12h46.02.229;REPSWITCH1_version2_list1;2022.2.4;143.9418477210003;
REPSWITCH1/PICTURE_30.png;granja;speak;darkblue;switch;2;T;2;1;1;2;Stim5_Set2;0;None;40;39;40;0;39;39;39;;;;;;;;;;;;;;;;;;;;;;;201.9505785999354;203.15908329980448;203.15908329980448;203.15908329980448;203.15908329980448;203.15908329980448;203.15908329980448;203.15908329980448;203.15908329980448;None;0;;C:\2023\REPSWITCH21092023\REPSWITCH_excgange\REPSWITCH_excgange\data/100201_REPSWITCH1_version2_list1_2023-11-23_12h46.02.229_micRespv2l1_recorded\recording_micRespv2l1_2023-11-23_12h49.20.303.wav;206.1873301998712;206.68732619984075;None;206.1873301998712;206.1873301998712;206.1873301998712;206.1873301998712;206.1873301998712;206.1873301998712;;;;;;;100201;001;2023-11-23_12h46.02.229;REPSWITCH1_version2_list1;2022.2.4;143.9418477210003;
REPSWITCH1/PICTURE_142.png;vaso;type;gold;filler;1;F;2;1;1;2;Stim7_Set1;0;None;41;40;41;0;40;40;40;;;;;;;;;;;;;;;;;;;;;;;206.68732619984075;207.74995570001192;207.74995570001192;207.74995570001192;207.74995570001192;207.74995570001192;207.74995570001192;207.74995570001192;207.74995570001192;['v', 'a', 's', 'o'];0;vaso;C:\2023\REPSWITCH21092023\REPSWITCH_excgange\REPSWITCH_excgange\data/100201_REPSWITCH1_version2_list1_2023-11-23_12h46.02.229_micRespv2l1_recorded\recording_micRespv2l1_2023-11-23_12h49.24.893.wav;210.7711867999751;211.27125189988874;None;210.7711867999751;210.7711867999751;210.7711867999751;210.7711867999751;210.7711867999751;210.7711867999751;[0.8338694002013654, 0.94856490008533, 1.0610361001454294, 1.2823063002433628];;;;;;100201;001;2023-11-23_12h46.02.229;REPSWITCH1_version2_list1;2022.2.4;143.9418477210003;
REPSWITCH1/PICTURE_19.png;pavo;speak;darkblue;filler;2;F;2;1;1;2;Stim5_Set1;1;switch;42;41;42;0;41;41;41;;;;;;;;;;;;;;;;;;;;;;;211.27125189988874;212.43120689992793;212.43120689992793;212.43120689992793;212.43120689992793;212.43120689992793;212.43120689992793;212.43120689992793;212.43120689992793;None;0;;C:\2023\REPSWITCH21092023\REPSWITCH_excgange\REPSWITCH_excgange\data/100201_REPSWITCH1_version2_list1_2023-11-23_12h46.02.229_micRespv2l1_recorded\recording_micRespv2l1_2023-11-23_12h49.29.574.wav;215.45930429990403;;None;215.45930429990403;215.45930429990403;215.45930429990403;215.45930429990403;215.45930429990403;215.45930429990403;;;;;;;100201;001;2023-11-23_12h46.02.229;REPSWITCH1_version2_list1;2022.2.4;143.9418477210003;
REPSWITCH1/PICTURE_552.png;manzana;speak;darkblue;nontarget;2;NT;2;1;1;2;Stim6_Set2;1;repeat;43;42;43;0;42;42;42;;;;;;;;;;;;;;;;;;;;;;;215.9593545999378;217.11925769993104;217.11925769993104;217.11925769993104;217.11925769993104;217.11925769993104;217.11925769993104;217.11925769993104;217.11925769993104;None;0;;C:\2023\REPSWITCH21092023\REPSWITCH_excgange\REPSWITCH_excgange\data/100201_REPSWITCH1_version2_list1_2023-11-23_12h46.02.229_micRespv2l1_recorded\recording_micRespv2l1_2023-11-23_12h49.34.262.wav;220.14741539978422;;None;220.14741539978422;220.14741539978422;220.14741539978422;220.14741539978422;220.14741539978422;220.14741539978422;;;;;;;100201;001;2023-11-23_12h46.02.229;REPSWITCH1_version2_list1;2022.2.4;143.9418477210003;
REPSWITCH1/PICTURE_552.png;manzana;speak;darkblue;repeat;2;T;2;1;1;2;Stim6_Set2;0;None;44;43;44;0;43;43;43;;;;;;;;;;;;;;;;;;;;;;;220.64750199997798;221.73102479986846;221.73102479986846;221.73102479986846;221.73102479986846;221.73102479986846;221.73102479986846;221.73102479986846;221.73102479986846;None;0;;C:\2023\REPSWITCH21092023\REPSWITCH_excgange\REPSWITCH_excgange\data/100201_REPSWITCH1_version2_list1_2023-11-23_12h46.02.229_micRespv2l1_recorded\recording_micRespv2l1_2023-11-23_12h49.38.873.wav;224.75218519987538;225.25223969994113;None;224.75218519987538;224.75218519987538;224.75218519987538;224.75218519987538;224.75218519987538;224.75218519987538;;;;;;;100201;001;2023-11-23_12h46.02.229;REPSWITCH1_version2_list1;2022.2.4;143.9418477210003;
REPSWITCH1/PICTURE_16.png;cazador;type;gold;filler;1;F;2;1;1;2;Stim6_Set1;0;None;45;44;45;0;44;44;44;;;;;;;;;;;;;;;;;;;;;;;225.25223969994113;226.41214519995265;226.41214519995265;226.41214519995265;226.41214519995265;226.41214519995265;226.41214519995265;226.41214519995265;226.41214519995265;['c', 'a', 'z', 'a', 'd', 'o', 'r'];0;cazador;C:\2023\REPSWITCH21092023\REPSWITCH_excgange\REPSWITCH_excgange\data/100201_REPSWITCH1_version2_list1_2023-11-23_12h46.02.229_micRespv2l1_recorded\recording_micRespv2l1_2023-11-23_12h49.43.555.wav;229.43334969994612;229.9334187998902;None;229.43334969994612;229.43334969994612;229.43334969994612;229.43334969994612;229.43334969994612;229.43334969994612;[0.9793338002637029, 1.095891300123185, 1.3512501001823694, 1.569602600298822, 1.7440867002587765, 1.920411600265652, 2.0310208001174033];;;;;;100201;001;2023-11-23_12h46.02.229;REPSWITCH1_version2_list1;2022.2.4;143.9418477210003;
REPSWITCH1/PICTURE_446.png;cerdo;speak;darkblue;nontarget;2;NT;2;1;1;2;Stim7_Set2;1;switch;46;45;46;0;45;45;45;;;;;;;;;;;;;;;;;;;;;;;229.9334187998902;231.03772079991177;231.03772079991177;231.03772079991177;231.03772079991177;231.03772079991177;231.03772079991177;231.03772079991177;231.03772079991177;None;0;;C:\2023\REPSWITCH21092023\REPSWITCH_excgange\REPSWITCH_excgange\data/100201_REPSWITCH1_version2_list1_2023-11-23_12h46.02.229_micRespv2l1_recorded\recording_micRespv2l1_2023-11-23_12h49.48.180.wav;234.0659505999647;;None;234.0659505999647;234.0659505999647;234.0659505999647;234.0659505999647;234.0659505999647;234.0659505999647;;;;;;;100201;001;2023-11-23_12h46.02.229;REPSWITCH1_version2_list1;2022.2.4;143.9418477210003;
REPSWITCH1/PICTURE_446.png;cerdo;speak;darkblue;repeat;2;T;2;1;1;2;Stim7_Set2;0;None;47;46;47;0;46;46;46;;;;;;;;;;;;;;;;;;;;;;;234.5659614999313;235.64248969987966;235.64248969987966;235.64248969987966;235.64248969987966;235.64248969987966;235.64248969987966;235.64248969987966;235.64248969987966;None;0;;C:\2023\REPSWITCH21092023\REPSWITCH_excgange\REPSWITCH_excgange\data/100201_REPSWITCH1_version2_list1_2023-11-23_12h46.02.229_micRespv2l1_recorded\recording_micRespv2l1_2023-11-23_12h49.52.785.wav;238.66371229989454;239.16377179999836;None;238.66371229989454;238.66371229989454;238.66371229989454;238.66371229989454;238.66371229989454;238.66371229989454;;;;;;;100201;001;2023-11-23_12h46.02.229;REPSWITCH1_version2_list1;2022.2.4;143.9418477210003;
REPSWITCH1/PICTURE_590.png;escoba;type;gold;filler;1;F;2;1;1;2;Extra3;0;None;48;47;48;0;47;47;47;;;;;;;;;;;;;;;;;;;;;;;239.16377179999836;240.21255299984477;240.21255299984477;240.21255299984477;240.21255299984477;240.21255299984477;240.21255299984477;240.21255299984477;240.21255299984477;['e', 's', 'c', 'o', 'b', 'a'];0;escoba;C:\2023\REPSWITCH21092023\REPSWITCH_excgange\REPSWITCH_excgange\data/100201_REPSWITCH1_version2_list1_2023-11-23_12h46.02.229_micRespv2l1_recorded\recording_micRespv2l1_2023-11-23_12h49.57.355.wav;243.24076819978654;;None;243.24076819978654;243.24076819978654;243.24076819978654;243.24076819978654;243.24076819978654;243.24076819978654;[0.9666401001159102, 1.2038343001622707, 1.4014938999898732, 1.5760107999667525, 1.8461567000485957, 1.9152518000919372];;;;;;100201;001;2023-11-23_12h46.02.229;REPSWITCH1_version2_list1;2022.2.4;143.9418477210003;
REPSWITCH1/PICTURE_169.png;espalda;speak;darkblue;filler;2;F;2;1;1;2;Stim8_Set1;0;None;49;48;49;0;48;48;48;;;;;;;;;;;;;;;;;;;;;;;243.74076089984737;244.92150179995224;244.92150179995224;244.92150179995224;244.92150179995224;244.92150179995224;244.92150179995224;244.92150179995224;244.92150179995224;None;0;;C:\2023\REPSWITCH21092023\REPSWITCH_excgange\REPSWITCH_excgange\data/100201_REPSWITCH1_version2_list1_2023-11-23_12h46.02.229_micRespv2l1_recorded\recording_micRespv2l1_2023-11-23_12h50.02.065.wav;247.94965269998647;;None;247.94965269998647;247.94965269998647;247.94965269998647;247.94965269998647;247.94965269998647;247.94965269998647;;;;;;;100201;001;2023-11-23_12h46.02.229;REPSWITCH1_version2_list1;2022.2.4;143.9418477210003;
REPSWITCH1/PICTURE_199.png;falda;speak;darkblue;nontarget;2;NT;2;1;1;2;Stim8_Set2;1;repeat;50;49;50;0;49;49;49;;;;;;;;;;;;;;;;;;;;;;;248.44970979983918;249.55403499980457;249.55403499980457;249.55403499980457;249.55403499980457;249.55403499980457;249.55403499980457;249.55403499980457;249.55403499980457;None;0;;C:\2023\REPSWITCH21092023\REPSWITCH_excgange\REPSWITCH_excgange\data/100201_REPSWITCH1_version2_list1_2023-11-23_12h46.02.229_micRespv2l1_recorded\recording_micRespv2l1_2023-11-23_12h50.06.697.wav;252.57525499979965;253.07534789992496;None;252.57525499979965;252.57525499979965;252.57525499979965;252.57525499979965;252.57525499979965;252.57525499979965;;;;;;;100201;001;2023-11-23_12h46.02.229;REPSWITCH1_version2_list1;2022.2.4;143.9418477210003;
REPSWITCH1/PICTURE_199.png;falda;type;gold;switch;1;T;2;1;1;2;Stim8_Set2;0;None;51;50;51;0;50;50;50;;;;;;;;;;;;;;;;;;;;;;;253.07534789992496;254.34640379995108;254.34640379995108;254.34640379995108;254.34640379995108;254.34640379995108;254.34640379995108;254.34640379995108;254.34640379995108;['f', 'a', 'l', 'd', 'a'];0;falda;C:\2023\REPSWITCH21092023\REPSWITCH_excgange\REPSWITCH_excgange\data/100201_REPSWITCH1_version2_list1_2023-11-23_12h46.02.229_micRespv2l1_recorded\recording_micRespv2l1_2023-11-23_12h50.11.489.wav;257.3675750999246;257.86761089996435;space;257.3675750999246;257.3675750999246;257.3675750999246;257.3675750999246;257.3675750999246;257.3675750999246;[1.048232100205496, 1.18717660009861, 1.5722545001190156, 1.7073176002595574, 1.8229731002356857];257.86761089996435;257.86761089996435;7.0660526000428945;;;100201;001;2023-11-23_12h46.02.229;REPSWITCH1_version2_list1;2022.2.4;143.9418477210003;
REPSWITCH1/PICTURE_576.png;guante;type;gold;nontarget;1;NT;3;1;1;2;Stim1_Set3;0;None;52;51;52;0;51;51;51;;;;;;;;;;;;;;;;;;;;;;;264.94495499995537;266.07702989992686;266.07702989992686;266.07702989992686;266.07702989992686;266.07702989992686;266.07702989992686;266.07702989992686;266.07702989992686;['g', 'u', 'a', 'n', 't', 'e'];0;guante;C:\2023\REPSWITCH21092023\REPSWITCH_excgange\REPSWITCH_excgange\data/100201_REPSWITCH1_version2_list1_2023-11-23_12h46.02.229_micRespv2l1_recorded\recording_micRespv2l1_2023-11-23_12h50.23.220.wav;269.0982646998018;269.5983374998905;None;269.0982646998018;269.0982646998018;269.0982646998018;269.0982646998018;269.0982646998018;269.0982646998018;[0.9664609001483768, 1.2218944001942873, 1.34991140011698, 1.482419100124389, 1.6945166001096368, 1.8712260001339018];;;;;;100201;001;2023-11-23_12h46.02.229;REPSWITCH1_version2_list1;2022.2.4;143.9418477210003;
REPSWITCH1/PICTURE_576.png;guante;speak;darkblue;switch;2;T;3;1;1;2;Stim1_Set3;0;None;53;52;53;0;52;52;52;;;;;;;;;;;;;;;;;;;;;;;269.5983374998905;270.6748535998631;270.6748535998631;270.6748535998631;270.6748535998631;270.6748535998631;270.6748535998631;270.6748535998631;270.6748535998631;None;0;;C:\2023\REPSWITCH21092023\REPSWITCH_excgange\REPSWITCH_excgange\data/100201_REPSWITCH1_version2_list1_2023-11-23_12h46.02.229_micRespv2l1_recorded\recording_micRespv2l1_2023-11-23_12h50.27.817.wav;273.69610659987666;274.1962350998074;None;273.69610659987666;273.69610659987666;273.69610659987666;273.69610659987666;273.69610659987666;273.69610659987666;;;;;;;100201;001;2023-11-23_12h46.02.229;REPSWITCH1_version2_list1;2022.2.4;143.9418477210003;
REPSWITCH1/PICTURE_646.png;tronco;speak;darkblue;filler;2;F;3;1;1;2;Extra4;0;None;54;53;54;0;53;53;53;;;;;;;;;;;;;;;;;;;;;;;274.1962350998074;275.25883039995097;275.25883039995097;275.25883039995097;275.25883039995097;275.25883039995097;275.25883039995097;275.25883039995097;275.25883039995097;None;0;;C:\2023\REPSWITCH21092023\REPSWITCH_excgange\REPSWITCH_excgange\data/100201_REPSWITCH1_version2_list1_2023-11-23_12h46.02.229_micRespv2l1_recorded\recording_micRespv2l1_2023-11-23_12h50.32.402.wav;278.279999199789;278.7801024999935;None;278.279999199789;278.279999199789;278.279999199789;278.279999199789;278.279999199789;278.279999199789;;;;;;;100201;001;2023-11-23_12h46.02.229;REPSWITCH1_version2_list1;2022.2.4;143.9418477210003;
REPSWITCH1/PICTURE_610.png;miel;speak;darkblue;nontarget;2;NT;3;1;1;2;Stim2_Set3;1;repeat;55;54;55;0;54;54;54;;;;;;;;;;;;;;;;;;;;;;;278.7801024999935;279.9399679999333;279.9399679999333;279.9399679999333;279.9399679999333;279.9399679999333;279.9399679999333;279.9399679999333;279.9399679999333;None;0;;C:\2023\REPSWITCH21092023\REPSWITCH_excgange\REPSWITCH_excgange\data/100201_REPSWITCH1_version2_list1_2023-11-23_12h46.02.229_micRespv2l1_recorded\recording_micRespv2l1_2023-11-23_12h50.37.082.wav;282.9612075998448;283.46127009997144;None;282.9612075998448;282.9612075998448;282.9612075998448;282.9612075998448;282.9612075998448;282.9612075998448;;;;;;;100201;001;2023-11-23_12h46.02.229;REPSWITCH1_version2_list1;2022.2.4;143.9418477210003;
REPSWITCH1/PICTURE_610.png;miel;type;gold;switch;1;T;3;1;1;2;Stim2_Set3;0;None;56;55;56;0;55;55;55;;;;;;;;;;;;;;;;;;;;;;;283.46127009997144;284.6211588999722;284.6211588999722;284.6211588999722;284.6211588999722;284.6211588999722;284.6211588999722;284.6211588999722;284.6211588999722;['m', 'i', 'e', 'l'];0;miel;C:\2023\REPSWITCH21092023\REPSWITCH_excgange\REPSWITCH_excgange\data/100201_REPSWITCH1_version2_list1_2023-11-23_12h46.02.229_micRespv2l1_recorded\recording_micRespv2l1_2023-11-23_12h50.41.764.wav;287.6423801998608;288.1424403998535;None;287.6423801998608;287.6423801998608;287.6423801998608;287.6423801998608;287.6423801998608;287.6423801998608;[0.7514397001359612, 0.9574691001325846, 1.0845325000118464, 1.239912600023672];;;;;;100201;001;2023-11-23_12h46.02.229;REPSWITCH1_version2_list1;2022.2.4;143.9418477210003;
REPSWITCH1/PICTURE_175.png;pintor;type;gold;filler;1;F;3;1;1;2;Stim1_Set2;1;repeat;57;56;57;0;56;56;56;;;;;;;;;;;;;;;;;;;;;;;288.1424403998535;289.24673729995266;289.24673729995266;289.24673729995266;289.24673729995266;289.24673729995266;289.24673729995266;289.24673729995266;289.24673729995266;['p', 'i', 'n', 't', 'o', 'r'];0;pintor;C:\2023\REPSWITCH21092023\REPSWITCH_excgange\REPSWITCH_excgange\data/100201_REPSWITCH1_version2_list1_2023-11-23_12h46.02.229_micRespv2l1_recorded\recording_micRespv2l1_2023-11-23_12h50.46.389.wav;292.2749057000037;292.77498759981245;None;292.2749057000037;292.2749057000037;292.2749057000037;292.2749057000037;292.2749057000037;292.2749057000037;[0.7546318001113832, 0.9948292002081871, 1.1931940002832562, 1.3009761001449078, 1.4415184000972658, 1.5421290001831949];;;;;;100201;001;2023-11-23_12h46.02.229;REPSWITCH1_version2_list1;2022.2.4;143.9418477210003;
REPSWITCH1/PICTURE_242.png;cartero;type;gold;nontarget;1;NT;3;1;1;2;Stim3_Set3;1;repeat;58;57;58;0;57;57;57;;;;;;;;;;;;;;;;;;;;;;;292.77498759981245;293.8792854999192;293.8792854999192;293.8792854999192;293.8792854999192;293.8792854999192;293.8792854999192;293.8792854999192;293.8792854999192;['c', 'a', 'r', 't', 'e', 'r', 'o'];0;cartero;C:\2023\REPSWITCH21092023\REPSWITCH_excgange\REPSWITCH_excgange\data/100201_REPSWITCH1_version2_list1_2023-11-23_12h46.02.229_micRespv2l1_recorded\recording_micRespv2l1_2023-11-23_12h50.51.022.wav;296.90053609991446;297.400578700006;None;296.90053609991446;296.90053609991446;296.90053609991446;296.90053609991446;296.90053609991446;296.90053609991446;[0.9105293003376573, 1.0773904002271593, 1.2306108002085239, 1.4087328002788126, 1.4936954001896083, 1.6446239002980292, 1.8250026002060622];;;;;;100201;001;2023-11-23_12h46.02.229;REPSWITCH1_version2_list1;2022.2.4;143.9418477210003;
REPSWITCH1/PICTURE_242.png;cartero;speak;darkblue;switch;2;T;3;1;1;2;Stim3_Set3;0;None;59;58;59;0;58;58;58;;;;;;;;;;;;;;;;;;;;;;;297.400578700006;298.42157599981874;298.42157599981874;298.42157599981874;298.42157599981874;298.42157599981874;298.42157599981874;298.42157599981874;298.42157599981874;None;0;;C:\2023\REPSWITCH21092023\REPSWITCH_excgange\REPSWITCH_excgange\data/100201_REPSWITCH1_version2_list1_2023-11-23_12h46.02.229_micRespv2l1_recorded\recording_micRespv2l1_2023-11-23_12h50.55.564.wav;301.4428288999479;301.9429117999971;None;301.4428288999479;301.4428288999479;301.4428288999479;301.4428288999479;301.4428288999479;301.4428288999479;;;;;;;100201;001;2023-11-23_12h46.02.229;REPSWITCH1_version2_list1;2022.2.4;143.9418477210003;
REPSWITCH1/PICTURE_152.png;caracol;speak;darkblue;filler;2;F;3;1;1;2;Stim2_Set2;0;None;60;59;60;0;59;59;59;;;;;;;;;;;;;;;;;;;;;;;301.9429117999971;303.0680068999063;303.0680068999063;303.0680068999063;303.0680068999063;303.0680068999063;303.0680068999063;303.0680068999063;303.0680068999063;None;0;;C:\2023\REPSWITCH21092023\REPSWITCH_excgange\REPSWITCH_excgange\data/100201_REPSWITCH1_version2_list1_2023-11-23_12h46.02.229_micRespv2l1_recorded\recording_micRespv2l1_2023-11-23_12h51.00.211.wav;306.096176299965;;None;306.096176299965;306.096176299965;306.096176299965;306.096176299965;306.096176299965;306.096176299965;;;;;;;100201;001;2023-11-23_12h46.02.229;REPSWITCH1_version2_list1;2022.2.4;143.9418477210003;
REPSWITCH1/PICTURE_517.png;cuerda;type;gold;filler;1;F;3;1;1;2;Stim4_Set2;0;None;61;60;61;0;60;60;60;;;;;;;;;;;;;;;;;;;;;;;306.5962538998574;307.7560931998305;307.7560931998305;307.7560931998305;307.7560931998305;307.7560931998305;307.7560931998305;307.7560931998305;307.7560931998305;['c', 'u', 'e', 'r', 'd', 'a'];0;cuerda;C:\2023\REPSWITCH21092023\REPSWITCH_excgange\REPSWITCH_excgange\data/100201_REPSWITCH1_version2_list1_2023-11-23_12h46.02.229_micRespv2l1_recorded\recording_micRespv2l1_2023-11-23_12h51.04.899.wav;310.77733779978007;311.27741659991443;None;310.77733779978007;310.77733779978007;310.77733779978007;310.77733779978007;310.77733779978007;310.77733779978007;[0.8201462000142783, 1.006472900044173, 1.6033625002019107, 1.6810622999910265, 2.0183912999927998, 2.201771100051701];;;;;;100201;001;2023-11-23_12h46.02.229;REPSWITCH1_version2_list1;2022.2.4;143.9418477210003;
REPSWITCH1/PICTURE_235.png;aguja;speak;darkblue;nontarget;2;NT;3;1;1;2;Stim4_Set3;1;switch;62;61;62;0;61;61;61;;;;;;;;;;;;;;;;;;;;;;;311.27741659991443;312.31228069984354;312.31228069984354;312.31228069984354;312.31228069984354;312.31228069984354;312.31228069984354;312.31228069984354;312.31228069984354;None;0;;C:\2023\REPSWITCH21092023\REPSWITCH_excgange\REPSWITCH_excgange\data/100201_REPSWITCH1_version2_list1_2023-11-23_12h46.02.229_micRespv2l1_recorded\recording_micRespv2l1_2023-11-23_12h51.09.455.wav;315.3335074998904;315.8335678000003;None;315.3335074998904;315.3335074998904;315.3335074998904;315.3335074998904;315.3335074998904;315.3335074998904;;;;;;;100201;001;2023-11-23_12h46.02.229;REPSWITCH1_version2_list1;2022.2.4;143.9418477210003;
REPSWITCH1/PICTURE_235.png;aguja;speak;darkblue;repeat;2;T;3;1;1;2;Stim4_Set3;0;None;63;62;63;0;62;62;62;;;;;;;;;;;;;;;;;;;;;;;315.8335678000003;316.8823187998496;316.8823187998496;316.8823187998496;316.8823187998496;316.8823187998496;316.8823187998496;316.8823187998496;316.8823187998496;None;0;;C:\2023\REPSWITCH21092023\REPSWITCH_excgange\REPSWITCH_excgange\data/100201_REPSWITCH1_version2_list1_2023-11-23_12h46.02.229_micRespv2l1_recorded\recording_micRespv2l1_2023-11-23_12h51.14.024.wav;319.90353689994663;320.403580899816;None;319.90353689994663;319.90353689994663;319.90353689994663;319.90353689994663;319.90353689994663;319.90353689994663;;;;;;;100201;001;2023-11-23_12h46.02.229;REPSWITCH1_version2_list1;2022.2.4;143.9418477210003;
REPSWITCH1/PICTURE_30.png;granja;type;gold;filler;1;F;3;1;1;2;Stim5_Set2;0;None;64;63;64;0;63;63;63;;;;;;;;;;;;;;;;;;;;;;;320.403580899816;321.4384388998151;321.4384388998151;321.4384388998151;321.4384388998151;321.4384388998151;321.4384388998151;321.4384388998151;321.4384388998151;['g', 'r', 'a', 'n', 'j', 'a'];0;granja;C:\2023\REPSWITCH21092023\REPSWITCH_excgange\REPSWITCH_excgange\data/100201_REPSWITCH1_version2_list1_2023-11-23_12h46.02.229_micRespv2l1_recorded\recording_micRespv2l1_2023-11-23_12h51.18.581.wav;324.4596601999365;324.95973969995975;None;324.4596601999365;324.4596601999365;324.4596601999365;324.4596601999365;324.4596601999365;324.4596601999365;[0.9064128000754863, 1.0050470000132918, 1.2452853000722826, 1.5193295001517981, 2.5663901001680642, 2.588295300025493];;;;;;100201;001;2023-11-23_12h46.02.229;REPSWITCH1_version2_list1;2022.2.4;143.9418477210003;
REPSWITCH1/PICTURE_552.png;manzana;speak;darkblue;filler;2;F;3;1;1;2;Stim6_Set2;1;switch;65;64;65;0;64;64;64;;;;;;;;;;;;;;;;;;;;;;;324.95973969995975;326.036309099989;326.036309099989;326.036309099989;326.036309099989;326.036309099989;326.036309099989;326.036309099989;326.036309099989;None;0;;C:\2023\REPSWITCH21092023\REPSWITCH_excgange\REPSWITCH_excgange\data/100201_REPSWITCH1_version2_list1_2023-11-23_12h46.02.229_micRespv2l1_recorded\recording_micRespv2l1_2023-11-23_12h51.23.179.wav;329.0575863998383;329.557582099922;None;329.0575863998383;329.0575863998383;329.0575863998383;329.0575863998383;329.0575863998383;329.0575863998383;;;;;;;100201;001;2023-11-23_12h46.02.229;REPSWITCH1_version2_list1;2022.2.4;143.9418477210003;
REPSWITCH1/PICTURE_35.png;oreja;speak;darkblue;nontarget;2;NT;3;1;1;2;Stim5_Set3;1;repeat;66;65;66;0;65;65;65;;;;;;;;;;;;;;;;;;;;;;;329.557582099922;330.654967200011;330.654967200011;330.654967200011;330.654967200011;330.654967200011;330.654967200011;330.654967200011;330.654967200011;None;0;;C:\2023\REPSWITCH21092023\REPSWITCH_excgange\REPSWITCH_excgange\data/100201_REPSWITCH1_version2_list1_2023-11-23_12h46.02.229_micRespv2l1_recorded\recording_micRespv2l1_2023-11-23_12h51.27.797.wav;333.6761872000061;334.1762333998922;None;333.6761872000061;333.6761872000061;333.6761872000061;333.6761872000061;333.6761872000061;333.6761872000061;;;;;;;100201;001;2023-11-23_12h46.02.229;REPSWITCH1_version2_list1;2022.2.4;143.9418477210003;
REPSWITCH1/PICTURE_35.png;oreja;speak;darkblue;repeat;2;T;3;1;1;2;Stim5_Set3;0;None;67;66;67;0;66;66;66;;;;;;;;;;;;;;;;;;;;;;;334.1762333998922;335.3153497998137;335.3153497998137;335.3153497998137;335.3153497998137;335.3153497998137;335.3153497998137;335.3153497998137;335.3153497998137;None;0;;C:\2023\REPSWITCH21092023\REPSWITCH_excgange\REPSWITCH_excgange\data/100201_REPSWITCH1_version2_list1_2023-11-23_12h46.02.229_micRespv2l1_recorded\recording_micRespv2l1_2023-11-23_12h51.32.457.wav;338.3365219999105;338.8365410999395;None;338.3365219999105;338.3365219999105;338.3365219999105;338.3365219999105;338.3365219999105;338.3365219999105;;;;;;;100201;001;2023-11-23_12h46.02.229;REPSWITCH1_version2_list1;2022.2.4;143.9418477210003;
REPSWITCH1/PICTURE_673.png;tenedor;type;gold;filler;1;F;3;1;1;2;Extra5;0;None;68;67;68;0;67;67;67;;;;;;;;;;;;;;;;;;;;;;;338.8365410999395;339.87842929991893;339.87842929991893;339.87842929991893;339.87842929991893;339.87842929991893;339.87842929991893;339.87842929991893;339.87842929991893;['t', 'e', 'r', 'e', 'backspace', 'backspace', 'n', 'e', 'd', 's'];0;teneds;C:\2023\REPSWITCH21092023\REPSWITCH_excgange\REPSWITCH_excgange\data/100201_REPSWITCH1_version2_list1_2023-11-23_12h46.02.229_micRespv2l1_recorded\recording_micRespv2l1_2023-11-23_12h51.37.021.wav;342.9065570998937;;None;342.9065570998937;342.9065570998937;342.9065570998937;342.9065570998937;342.9065570998937;342.9065570998937;[0.8534588001202792, 0.9591695002745837, 1.111897500231862, 1.2458044001832604, 1.5537656003143638, 1.7012394003104419, 2.206124200252816, 2.287243500119075, 2.618073800113052, 2.620067300274968];;;;;;100201;001;2023-11-23_12h46.02.229;REPSWITCH1_version2_list1;2022.2.4;143.9418477210003;
REPSWITCH1/PICTURE_464.png;goma;speak;darkblue;nontarget;2;NT;3;1;1;2;Stim6_Set3;0;None;69;68;69;0;68;68;68;;;;;;;;;;;;;;;;;;;;;;;343.4066002999898;344.4623008999042;344.4623008999042;344.4623008999042;344.4623008999042;344.4623008999042;344.4623008999042;344.4623008999042;344.4623008999042;None;0;;C:\2023\REPSWITCH21092023\REPSWITCH_excgange\REPSWITCH_excgange\data/100201_REPSWITCH1_version2_list1_2023-11-23_12h46.02.229_micRespv2l1_recorded\recording_micRespv2l1_2023-11-23_12h51.41.604.wav;347.4836120000109;347.9836590997875;None;347.4836120000109;347.4836120000109;347.4836120000109;347.4836120000109;347.4836120000109;347.4836120000109;;;;;;;100201;001;2023-11-23_12h46.02.229;REPSWITCH1_version2_list1;2022.2.4;143.9418477210003;
REPSWITCH1/PICTURE_464.png;goma;type;gold;switch;1;T;3;1;1;2;Stim6_Set3;0;None;70;69;70;0;69;69;69;;;;;;;;;;;;;;;;;;;;;;;347.9836590997875;349.08096699998714;349.08096699998714;349.08096699998714;349.08096699998714;349.08096699998714;349.08096699998714;349.08096699998714;349.08096699998714;['g', 'o', 'm', 'a'];0;goma;C:\2023\REPSWITCH21092023\REPSWITCH_excgange\REPSWITCH_excgange\data/100201_REPSWITCH1_version2_list1_2023-11-23_12h46.02.229_micRespv2l1_recorded\recording_micRespv2l1_2023-11-23_12h51.46.224.wav;352.1021737998817;352.6022915998474;None;352.1021737998817;352.1021737998817;352.1021737998817;352.1021737998817;352.1021737998817;352.1021737998817;[0.7875398001633584, 0.9155897002201527, 1.1251130001619458, 1.1988241001963615];;;;;;100201;001;2023-11-23_12h46.02.229;REPSWITCH1_version2_list1;2022.2.4;143.9418477210003;
REPSWITCH1/PICTURE_264.png;mano;speak;darkblue;filler;2;F;3;1;1;2;Stim3_Set2;0;None;71;70;71;0;70;70;70;;;;;;;;;;;;;;;;;;;;;;;352.6022915998474;353.66496789990924;353.66496789990924;353.66496789990924;353.66496789990924;353.66496789990924;353.66496789990924;353.66496789990924;353.66496789990924;None;0;;C:\2023\REPSWITCH21092023\REPSWITCH_excgange\REPSWITCH_excgange\data/100201_REPSWITCH1_version2_list1_2023-11-23_12h46.02.229_micRespv2l1_recorded\recording_micRespv2l1_2023-11-23_12h51.50.807.wav;356.69308649981394;;None;356.69308649981394;356.69308649981394;356.69308649981394;356.69308649981394;356.69308649981394;356.69308649981394;;;;;;;100201;001;2023-11-23_12h46.02.229;REPSWITCH1_version2_list1;2022.2.4;143.9418477210003;
REPSWITCH1/PICTURE_271.png;conejo;type;gold;nontarget;1;NT;3;1;1;2;Stim7_Set3;1;switch;72;71;72;0;71;71;71;;;;;;;;;;;;;;;;;;;;;;;357.19315069983713;358.3530651999172;358.3530651999172;358.3530651999172;358.3530651999172;358.3530651999172;358.3530651999172;358.3530651999172;358.3530651999172;['c', 'o', 'n', 'e', 'j', 'o'];0;conejo;C:\2023\REPSWITCH21092023\REPSWITCH_excgange\REPSWITCH_excgange\data/100201_REPSWITCH1_version2_list1_2023-11-23_12h46.02.229_micRespv2l1_recorded\recording_micRespv2l1_2023-11-23_12h51.55.496.wav;361.38121079979464;;None;361.38121079979464;361.38121079979464;361.38121079979464;361.38121079979464;361.38121079979464;361.38121079979464;[0.9613801999948919, 1.0440839000511914, 1.3087170999497175, 1.677543899975717, 1.764517999952659, 1.9517626999877393];;;;;;100201;001;2023-11-23_12h46.02.229;REPSWITCH1_version2_list1;2022.2.4;143.9418477210003;
REPSWITCH1/PICTURE_271.png;conejo;type;gold;repeat;1;T;3;1;1;2;Stim7_Set3;0;None;73;72;73;0;72;72;72;;;;;;;;;;;;;;;;;;;;;;;361.88133060000837;362.9438862998504;362.9438862998504;362.9438862998504;362.9438862998504;362.9438862998504;362.9438862998504;362.9438862998504;362.9438862998504;['c', 'o', 'n', 'e', 'j', 'o'];0;conejo;C:\2023\REPSWITCH21092023\REPSWITCH_excgange\REPSWITCH_excgange\data/100201_REPSWITCH1_version2_list1_2023-11-23_12h46.02.229_micRespv2l1_recorded\recording_micRespv2l1_2023-11-23_12h52.00.087.wav;365.9720795999747;;None;365.9720795999747;365.9720795999747;365.9720795999747;365.9720795999747;365.9720795999747;365.9720795999747;[0.8025295999832451, 0.9151435999665409, 1.1623174999840558, 1.3217778000980616, 1.490751100005582, 1.639012100175023];;;;;;100201;001;2023-11-23_12h46.02.229;REPSWITCH1_version2_list1;2022.2.4;143.9418477210003;
REPSWITCH1/PICTURE_446.png;cerdo;speak;darkblue;filler;2;F;3;1;1;2;Stim7_Set2;0;None;74;73;74;0;73;73;73;;;;;;;;;;;;;;;;;;;;;;;366.47214789991267;367.5625801999122;367.5625801999122;367.5625801999122;367.5625801999122;367.5625801999122;367.5625801999122;367.5625801999122;367.5625801999122;None;0;;C:\2023\REPSWITCH21092023\REPSWITCH_excgange\REPSWITCH_excgange\data/100201_REPSWITCH1_version2_list1_2023-11-23_12h46.02.229_micRespv2l1_recorded\recording_micRespv2l1_2023-11-23_12h52.04.706.wav;370.590712999925;;None;370.590712999925;370.590712999925;370.590712999925;370.590712999925;370.590712999925;370.590712999925;;;;;;;100201;001;2023-11-23_12h46.02.229;REPSWITCH1_version2_list1;2022.2.4;143.9418477210003;
REPSWITCH1/PICTURE_199.png;falda;type;gold;filler;1;F;3;1;1;2;Stim8_Set2;1;switch;75;74;75;0;74;74;74;;;;;;;;;;;;;;;;;;;;;;;371.0907825999893;372.2437237999402;372.2437237999402;372.2437237999402;372.2437237999402;372.2437237999402;372.2437237999402;372.2437237999402;372.2437237999402;['f', 'a', 'l', 'd', 'a'];0;falda;C:\2023\REPSWITCH21092023\REPSWITCH_excgange\REPSWITCH_excgange\data/100201_REPSWITCH1_version2_list1_2023-11-23_12h46.02.229_micRespv2l1_recorded\recording_micRespv2l1_2023-11-23_12h52.09.386.wav;375.26497359992936;375.76502930000424;None;375.26497359992936;375.26497359992936;375.26497359992936;375.26497359992936;375.26497359992936;375.26497359992936;[0.9807457001879811, 1.1053029003087431, 1.569088000105694, 1.6807039002887905, 1.7753919002134353];;;;;;100201;001;2023-11-23_12h46.02.229;REPSWITCH1_version2_list1;2022.2.4;143.9418477210003;
REPSWITCH1/PICTURE_320.png;iglesia;type;gold;nontarget;1;NT;3;1;1;2;Stim8_Set3;1;repeat;76;75;76;0;75;75;75;;;;;;;;;;;;;;;;;;;;;;;375.76502930000424;376.8346634998452;376.8346634998452;376.8346634998452;376.8346634998452;376.8346634998452;376.8346634998452;376.8346634998452;376.8346634998452;['i', 'g', 'l', 'e', 's', 'i', 'a'];0;iglesia;C:\2023\REPSWITCH21092023\REPSWITCH_excgange\REPSWITCH_excgange\data/100201_REPSWITCH1_version2_list1_2023-11-23_12h46.02.229_micRespv2l1_recorded\recording_micRespv2l1_2023-11-23_12h52.13.977.wav;379.8628297999967;;None;379.8628297999967;379.8628297999967;379.8628297999967;379.8628297999967;379.8628297999967;379.8628297999967;[1.2901906999759376, 1.547244100132957, 1.6524716999847442, 1.7670807000249624, 1.999660599976778, 2.142857800005004, 2.2448830001521856];;;;;;100201;001;2023-11-23_12h46.02.229;REPSWITCH1_version2_list1;2022.2.4;143.9418477210003;
REPSWITCH1/PICTURE_320.png;iglesia;type;gold;repeat;1;T;3;1;1;2;Stim8_Set3;0;None;77;76;77;0;76;76;76;;;;;;;;;;;;;;;;;;;;;;;380.36292789992876;381.50885219988413;381.50885219988413;381.50885219988413;381.50885219988413;381.50885219988413;381.50885219988413;381.50885219988413;381.50885219988413;['i', 'g', 'l', 'e', 's', 'i', 'a'];0;iglesia;C:\2023\REPSWITCH21092023\REPSWITCH_excgange\REPSWITCH_excgange\data/100201_REPSWITCH1_version2_list1_2023-11-23_12h46.02.229_micRespv2l1_recorded\recording_micRespv2l1_2023-11-23_12h52.18.652.wav;384.5370205999352;;None;384.5370205999352;384.5370205999352;384.5370205999352;384.5370205999352;384.5370205999352;384.5370205999352;[0.8010006002150476, 1.0355817000381649, 1.1773252000566572, 1.2982205001171678, 1.5384628002066165, 1.6951589002273977, 1.7858954002149403];;;;;;100201;001;2023-11-23_12h46.02.229;REPSWITCH1_version2_list1;2022.2.4;143.9418477210003;
REPSWITCH1/PICTURE_576.png;guante;speak;darkblue;filler;2;F;4;1;1;2;Stim1_Set3;0;None;78;77;78;0;77;77;77;;;;;;;;;;;;;;;;;;;;;;;385.0370816998184;386.14137470000423;386.14137470000423;386.14137470000423;386.14137470000423;386.14137470000423;386.14137470000423;386.14137470000423;386.14137470000423;None;0;;C:\2023\REPSWITCH21092023\REPSWITCH_excgange\REPSWITCH_excgange\data/100201_REPSWITCH1_version2_list1_2023-11-23_12h46.02.229_micRespv2l1_recorded\recording_micRespv2l1_2023-11-23_12h52.23.284.wav;389.1625863998197;389.6626917999238;None;389.1625863998197;389.1625863998197;389.1625863998197;389.1625863998197;389.1625863998197;389.1625863998197;;;;;;;100201;001;2023-11-23_12h46.02.229;REPSWITCH1_version2_list1;2022.2.4;143.9418477210003;
REPSWITCH1/PICTURE_319.png;vaca;type;gold;nontarget;1;NT;4;1;1;2;Stim1_Set4;1;switch;79;78;79;0;78;78;78;;;;;;;;;;;;;;;;;;;;;;;389.6626917999238;390.711425999878;390.711425999878;390.711425999878;390.711425999878;390.711425999878;390.711425999878;390.711425999878;390.711425999878;['v', 'a', 'c', 'a'];0;vaca;C:\2023\REPSWITCH21092023\REPSWITCH_excgange\REPSWITCH_excgange\data/100201_REPSWITCH1_version2_list1_2023-11-23_12h46.02.229_micRespv2l1_recorded\recording_micRespv2l1_2023-11-23_12h52.27.853.wav;393.73264259984717;394.2327038999647;None;393.73264259984717;393.73264259984717;393.73264259984717;393.73264259984717;393.73264259984717;393.73264259984717;[1.182483100099489, 1.2681346000172198, 1.3987314000260085, 1.4620517999865115];;;;;;100201;001;2023-11-23_12h46.02.229;REPSWITCH1_version2_list1;2022.2.4;143.9418477210003;
REPSWITCH1/PICTURE_319.png;vaca;type;gold;repeat;1;T;4;1;1;2;Stim1_Set4;0;None;80;79;80;0;79;79;79;;;;;;;;;;;;;;;;;;;;;;;394.2327038999647;395.36488779983483;395.36488779983483;395.36488779983483;395.36488779983483;395.36488779983483;395.36488779983483;395.36488779983483;395.36488779983483;['v', 'a', 'c', 'a'];0;vaca;C:\2023\REPSWITCH21092023\REPSWITCH_excgange\REPSWITCH_excgange\data/100201_REPSWITCH1_version2_list1_2023-11-23_12h46.02.229_micRespv2l1_recorded\recording_micRespv2l1_2023-11-23_12h52.32.507.wav;398.3929891998414;;None;398.3929891998414;398.3929891998414;398.3929891998414;398.3929891998414;398.3929891998414;398.3929891998414;[0.9608734999783337, 1.0426411000080407, 1.162173500051722, 1.213001900119707];;;;;;100201;001;2023-11-23_12h46.02.229;REPSWITCH1_version2_list1;2022.2.4;143.9418477210003;
REPSWITCH1/PICTURE_719.png;baño;type;gold;nontarget;1;NT;4;1;1;2;Stim2_Set4;0;None;81;80;81;0;80;80;80;;;;;;;;;;;;;;;;;;;;;;;398.89313189988025;400.0876724999398;400.0876724999398;400.0876724999398;400.0876724999398;400.0876724999398;400.0876724999398;400.0876724999398;400.0876724999398;['b', 'a', 'ñ', 'o'];0;baño;C:\2023\REPSWITCH21092023\REPSWITCH_excgange\REPSWITCH_excgange\data/100201_REPSWITCH1_version2_list1_2023-11-23_12h46.02.229_micRespv2l1_recorded\recording_micRespv2l1_2023-11-23_12h52.37.231.wav;403.11590119986795;;None;403.11590119986795;403.11590119986795;403.11590119986795;403.11590119986795;403.11590119986795;403.11590119986795;[0.8638267000205815, 1.0103118000552058, 1.443199299974367, 1.689339900156483];;;;;;100201;001;2023-11-23_12h46.02.229;REPSWITCH1_version2_list1;2022.2.4;143.9418477210003;
REPSWITCH1/PICTURE_719.png;baño;speak;darkblue;switch;2;T;4;1;1;2;Stim2_Set4;0;None;82;81;82;0;81;81;81;;;;;;;;;;;;;;;;;;;;;;;403.6159069999121;404.71333139995113;404.71333139995113;404.71333139995113;404.71333139995113;404.71333139995113;404.71333139995113;404.71333139995113;404.71333139995113;None;0;;C:\2023\REPSWITCH21092023\REPSWITCH_excgange\REPSWITCH_excgange\data/100201_REPSWITCH1_version2_list1_2023-11-23_12h46.02.229_micRespv2l1_recorded\recording_micRespv2l1_2023-11-23_12h52.41.856.wav;407.7345019998029;408.234617699869;None;407.7345019998029;407.7345019998029;407.7345019998029;407.7345019998029;407.7345019998029;407.7345019998029;;;;;;;100201;001;2023-11-23_12h46.02.229;REPSWITCH1_version2_list1;2022.2.4;143.9418477210003;
REPSWITCH1/PICTURE_242.png;cartero;speak;darkblue;filler;2;F;4;1;1;2;Stim3_Set3;1;repeat;83;82;83;0;82;82;82;;;;;;;;;;;;;;;;;;;;;;;408.234617699869;409.373613699805;409.373613699805;409.373613699805;409.373613699805;409.373613699805;409.373613699805;409.373613699805;409.373613699805;None;0;;C:\2023\REPSWITCH21092023\REPSWITCH_excgange\REPSWITCH_excgange\data/100201_REPSWITCH1_version2_list1_2023-11-23_12h46.02.229_micRespv2l1_recorded\recording_micRespv2l1_2023-11-23_12h52.46.516.wav;412.3948217998259;412.8948921998963;None;412.3948217998259;412.3948217998259;412.3948217998259;412.3948217998259;412.3948217998259;412.3948217998259;;;;;;;100201;001;2023-11-23_12h46.02.229;REPSWITCH1_version2_list1;2022.2.4;143.9418477210003;
REPSWITCH1/PICTURE_610.png;miel;type;gold;filler;1;F;4;1;1;2;Stim2_Set3;0;None;84;83;84;0;83;83;83;;;;;;;;;;;;;;;;;;;;;;;412.8948921998963;413.97835859982297;413.97835859982297;413.97835859982297;413.97835859982297;413.97835859982297;413.97835859982297;413.97835859982297;413.97835859982297;['m', 'i', 'e', 'l'];0;miel;C:\2023\REPSWITCH21092023\REPSWITCH_excgange\REPSWITCH_excgange\data/100201_REPSWITCH1_version2_list1_2023-11-23_12h46.02.229_micRespv2l1_recorded\recording_micRespv2l1_2023-11-23_12h52.51.121.wav;416.99957109987736;417.499644999858;None;416.99957109987736;416.99957109987736;416.99957109987736;416.99957109987736;416.99957109987736;416.99957109987736;[0.7254929002374411, 0.9021589001640677, 0.9968607001937926, 1.1284000002779067];;;;;;100201;001;2023-11-23_12h46.02.229;REPSWITCH1_version2_list1;2022.2.4;143.9418477210003;
REPSWITCH1/PICTURE_8.png;pierna;speak;darkblue;nontarget;2;NT;4;1;1;2;Stim3_Set4;1;switch;85;84;85;0;84;84;84;;;;;;;;;;;;;;;;;;;;;;;417.499644999858;418.5970279998146;418.5970279998146;418.5970279998146;418.5970279998146;418.5970279998146;418.5970279998146;418.5970279998146;418.5970279998146;None;0;;C:\2023\REPSWITCH21092023\REPSWITCH_excgange\REPSWITCH_excgange\data/100201_REPSWITCH1_version2_list1_2023-11-23_12h46.02.229_micRespv2l1_recorded\recording_micRespv2l1_2023-11-23_12h52.55.740.wav;421.6252055999357;;None;421.6252055999357;421.6252055999357;421.6252055999357;421.6252055999357;421.6252055999357;421.6252055999357;;;;;;;100201;001;2023-11-23_12h46.02.229;REPSWITCH1_version2_list1;2022.2.4;143.9418477210003;
REPSWITCH1/PICTURE_8.png;pierna;speak;darkblue;repeat;2;T;4;1;1;2;Stim3_Set4;0;None;86;85;86;0;85;85;85;;;;;;;;;;;;;;;;;;;;;;;422.12534909998067;423.2226388999261;423.2226388999261;423.2226388999261;423.2226388999261;423.2226388999261;423.2226388999261;423.2226388999261;423.2226388999261;None;0;;C:\2023\REPSWITCH21092023\REPSWITCH_excgange\REPSWITCH_excgange\data/100201_REPSWITCH1_version2_list1_2023-11-23_12h46.02.229_micRespv2l1_recorded\recording_micRespv2l1_2023-11-23_12h53.00.365.wav;426.250802999828;;None;426.250802999828;426.250802999828;426.250802999828;426.250802999828;426.250802999828;426.250802999828;;;;;;;100201;001;2023-11-23_12h46.02.229;REPSWITCH1_version2_list1;2022.2.4;143.9418477210003;
REPSWITCH1/PICTURE_498.png;taza;speak;darkblue;nontarget;2;NT;4;1;1;2;Stim4_Set4;1;repeat;87;86;87;0;86;86;86;;;;;;;;;;;;;;;;;;;;;;;426.7508672999684;427.8482369999401;427.8482369999401;427.8482369999401;427.8482369999401;427.8482369999401;427.8482369999401;427.8482369999401;427.8482369999401;None;0;;C:\2023\REPSWITCH21092023\REPSWITCH_excgange\REPSWITCH_excgange\data/100201_REPSWITCH1_version2_list1_2023-11-23_12h46.02.229_micRespv2l1_recorded\recording_micRespv2l1_2023-11-23_12h53.04.990.wav;430.8695493999403;431.3695285997819;None;430.8695493999403;430.8695493999403;430.8695493999403;430.8695493999403;430.8695493999403;430.8695493999403;;;;;;;100201;001;2023-11-23_12h46.02.229;REPSWITCH1_version2_list1;2022.2.4;143.9418477210003;
REPSWITCH1/PICTURE_498.png;taza;type;gold;switch;1;T;4;1;1;2;Stim4_Set4;0;None;88;87;88;0;87;87;87;;;;;;;;;;;;;;;;;;;;;;;431.3695285997819;432.5364459999837;432.5364459999837;432.5364459999837;432.5364459999837;432.5364459999837;432.5364459999837;432.5364459999837;432.5364459999837;['t', 'a', 'z', 'a'];0;taza;C:\2023\REPSWITCH21092023\REPSWITCH_excgange\REPSWITCH_excgange\data/100201_REPSWITCH1_version2_list1_2023-11-23_12h46.02.229_micRespv2l1_recorded\recording_micRespv2l1_2023-11-23_12h53.09.679.wav;435.55763399996795;436.0576226999983;None;435.55763399996795;435.55763399996795;435.55763399996795;435.55763399996795;435.55763399996795;435.55763399996795;[0.8607817001175135, 0.9654006999917328, 1.3085285001434386, 1.4918991001322865];;;;;;100201;001;2023-11-23_12h46.02.229;REPSWITCH1_version2_list1;2022.2.4;143.9418477210003;
REPSWITCH1/PICTURE_235.png;aguja;speak;darkblue;filler;2;F;4;1;1;2;Stim4_Set3;0;None;89;88;89;0;88;88;88;;;;;;;;;;;;;;;;;;;;;;;436.0576226999983;437.16199279995635;437.16199279995635;437.16199279995635;437.16199279995635;437.16199279995635;437.16199279995635;437.16199279995635;437.16199279995635;None;0;;C:\2023\REPSWITCH21092023\REPSWITCH_excgange\REPSWITCH_excgange\data/100201_REPSWITCH1_version2_list1_2023-11-23_12h46.02.229_micRespv2l1_recorded\recording_micRespv2l1_2023-11-23_12h53.14.304.wav;440.183159600012;440.6832602999639;None;440.183159600012;440.183159600012;440.183159600012;440.183159600012;440.183159600012;440.183159600012;;;;;;;100201;001;2023-11-23_12h46.02.229;REPSWITCH1_version2_list1;2022.2.4;143.9418477210003;
REPSWITCH1/PICTURE_35.png;oreja;type;gold;filler;1;F;4;1;1;2;Stim5_Set3;0;None;90;89;90;0;89;89;89;;;;;;;;;;;;;;;;;;;;;;;440.6832602999639;441.6903576999903;441.6903576999903;441.6903576999903;441.6903576999903;441.6903576999903;441.6903576999903;441.6903576999903;441.6903576999903;['o', 'r', 'e', 'j', 'a'];0;oreja;C:\2023\REPSWITCH21092023\REPSWITCH_excgange\REPSWITCH_excgange\data/100201_REPSWITCH1_version2_list1_2023-11-23_12h46.02.229_micRespv2l1_recorded\recording_micRespv2l1_2023-11-23_12h53.18.832.wav;444.7115534998011;445.2116051998455;None;444.7115534998011;444.7115534998011;444.7115534998011;444.7115534998011;444.7115534998011;444.7115534998011;[0.7835453001316637, 1.1357575999572873, 1.2642848999239504, 1.398833200102672, 1.4915336000267416];;;;;;100201;001;2023-11-23_12h46.02.229;REPSWITCH1_version2_list1;2022.2.4;143.9418477210003;
REPSWITCH1/PICTURE_687.png;camisa;type;gold;nontarget;1;NT;4;1;1;2;Stim5_Set4;1;repeat;91;90;91;0;90;90;90;;;;;;;;;;;;;;;;;;;;;;;445.2116051998455;446.3160011;446.3160011;446.3160011;446.3160011;446.3160011;446.3160011;446.3160011;446.3160011;['c', 'a', 'm', 'i', 's', 'a'];0;camisa;C:\2023\REPSWITCH21092023\REPSWITCH_excgange\REPSWITCH_excgange\data/100201_REPSWITCH1_version2_list1_2023-11-23_12h46.02.229_micRespv2l1_recorded\recording_micRespv2l1_2023-11-23_12h53.23.458.wav;449.33717869990505;449.8373159999028;None;449.33717869990505;449.33717869990505;449.33717869990505;449.33717869990505;449.33717869990505;449.33717869990505;[1.1859408000018448, 1.2855734000913799, 1.4693305999971926, 1.6544179001357406, 1.7650073000695556, 2.222669899929315];;;;;;100201;001;2023-11-23_12h46.02.229;REPSWITCH1_version2_list1;2022.2.4;143.9418477210003;
REPSWITCH1/PICTURE_687.png;camisa;speak;darkblue;switch;2;T;4;1;1;2;Stim5_Set4;0;None;92;91;92;0;91;91;91;;;;;;;;;;;;;;;;;;;;;;;449.8373159999028;450.9763275999576;450.9763275999576;450.9763275999576;450.9763275999576;450.9763275999576;450.9763275999576;450.9763275999576;450.9763275999576;None;0;;C:\2023\REPSWITCH21092023\REPSWITCH_excgange\REPSWITCH_excgange\data/100201_REPSWITCH1_version2_list1_2023-11-23_12h46.02.229_micRespv2l1_recorded\recording_micRespv2l1_2023-11-23_12h53.28.119.wav;453.9975347998552;454.49754659994505;None;453.9975347998552;453.9975347998552;453.9975347998552;453.9975347998552;453.9975347998552;453.9975347998552;;;;;;;100201;001;2023-11-23_12h46.02.229;REPSWITCH1_version2_list1;2022.2.4;143.9418477210003;
REPSWITCH1/PICTURE_338.png;regalo;speak;darkblue;nontarget;2;NT;4;1;1;2;Stim6_Set4;0;None;93;92;93;0;92;92;92;;;;;;;;;;;;;;;;;;;;;;;454.49754659994505;455.53243899997324;455.53243899997324;455.53243899997324;455.53243899997324;455.53243899997324;455.53243899997324;455.53243899997324;455.53243899997324;None;0;;C:\2023\REPSWITCH21092023\REPSWITCH_excgange\REPSWITCH_excgange\data/100201_REPSWITCH1_version2_list1_2023-11-23_12h46.02.229_micRespv2l1_recorded\recording_micRespv2l1_2023-11-23_12h53.32.675.wav;458.5536423998419;459.05373970000073;None;458.5536423998419;458.5536423998419;458.5536423998419;458.5536423998419;458.5536423998419;458.5536423998419;;;;;;;100201;001;2023-11-23_12h46.02.229;REPSWITCH1_version2_list1;2022.2.4;143.9418477210003;
REPSWITCH1/PICTURE_338.png;regalo;speak;darkblue;repeat;2;T;4;1;1;2;Stim6_Set4;0;None;94;93;94;0;93;93;93;;;;;;;;;;;;;;;;;;;;;;;459.05373970000073;460.19275119993836;460.19275119993836;460.19275119993836;460.19275119993836;460.19275119993836;460.19275119993836;460.19275119993836;460.19275119993836;None;0;;C:\2023\REPSWITCH21092023\REPSWITCH_excgange\REPSWITCH_excgange\data/100201_REPSWITCH1_version2_list1_2023-11-23_12h46.02.229_micRespv2l1_recorded\recording_micRespv2l1_2023-11-23_12h53.37.335.wav;463.21400349983014;463.7140221998561;None;463.21400349983014;463.21400349983014;463.21400349983014;463.21400349983014;463.21400349983014;463.21400349983014;;;;;;;100201;001;2023-11-23_12h46.02.229;REPSWITCH1_version2_list1;2022.2.4;143.9418477210003;
REPSWITCH1/PICTURE_663.png;columna;type;gold;filler;1;F;4;1;1;2;Extra6;0;None;95;94;95;0;94;94;94;;;;;;;;;;;;;;;;;;;;;;;463.7140221998561;464.79753619991243;464.79753619991243;464.79753619991243;464.79753619991243;464.79753619991243;464.79753619991243;464.79753619991243;464.79753619991243;['c', 'o', 'l', 'u', 'm', 'n', 'a'];0;columna;C:\2023\REPSWITCH21092023\REPSWITCH_excgange\REPSWITCH_excgange\data/100201_REPSWITCH1_version2_list1_2023-11-23_12h46.02.229_micRespv2l1_recorded\recording_micRespv2l1_2023-11-23_12h53.41.940.wav;467.81874179979786;468.3188353998121;None;467.81874179979786;467.81874179979786;467.81874179979786;467.81874179979786;467.81874179979786;467.81874179979786;[0.797357400180772, 0.9212326002307236, 1.0959113000426441, 1.3653819002211094, 1.598647200036794, 1.7836899000685662, 1.8767176000401378];;;;;;100201;001;2023-11-23_12h46.02.229;REPSWITCH1_version2_list1;2022.2.4;143.9418477210003;
REPSWITCH1/PICTURE_271.png;conejo;speak;darkblue;filler;2;F;4;1;1;2;Stim7_Set3;0;None;96;95;96;0;95;95;95;;;;;;;;;;;;;;;;;;;;;;;468.3188353998121;469.3884293998126;469.3884293998126;469.3884293998126;469.3884293998126;469.3884293998126;469.3884293998126;469.3884293998126;469.3884293998126;None;0;;C:\2023\REPSWITCH21092023\REPSWITCH_excgange\REPSWITCH_excgange\data/100201_REPSWITCH1_version2_list1_2023-11-23_12h46.02.229_micRespv2l1_recorded\recording_micRespv2l1_2023-11-23_12h53.46.532.wav;472.41656109993346;;None;472.41656109993346;472.41656109993346;472.41656109993346;472.41656109993346;472.41656109993346;472.41656109993346;;;;;;;100201;001;2023-11-23_12h46.02.229;REPSWITCH1_version2_list1;2022.2.4;143.9418477210003;
REPSWITCH1/PICTURE_48.png;bombero;speak;darkblue;nontarget;2;NT;4;1;1;2;Stim7_Set4;0;None;97;96;97;0;96;96;96;;;;;;;;;;;;;;;;;;;;;;;472.9166970998049;473.96548469993286;473.96548469993286;473.96548469993286;473.96548469993286;473.96548469993286;473.96548469993286;473.96548469993286;473.96548469993286;None;0;;C:\2023\REPSWITCH21092023\REPSWITCH_excgange\REPSWITCH_excgange\data/100201_REPSWITCH1_version2_list1_2023-11-23_12h46.02.229_micRespv2l1_recorded\recording_micRespv2l1_2023-11-23_12h53.51.108.wav;476.9935394998174;;None;476.9935394998174;476.9935394998174;476.9935394998174;476.9935394998174;476.9935394998174;476.9935394998174;;;;;;;100201;001;2023-11-23_12h46.02.229;REPSWITCH1_version2_list1;2022.2.4;143.9418477210003;
REPSWITCH1/PICTURE_48.png;bombero;type;gold;switch;1;T;4;1;1;2;Stim7_Set4;0;None;98;97;98;0;97;97;97;;;;;;;;;;;;;;;;;;;;;;;477.4936176999472;478.63963029999286;478.63963029999286;478.63963029999286;478.63963029999286;478.63963029999286;478.63963029999286;478.63963029999286;478.63963029999286;['b', 'o', 'm', 'b', 'e', 'r', 'o'];0;bombero;C:\2023\REPSWITCH21092023\REPSWITCH_excgange\REPSWITCH_excgange\data/100201_REPSWITCH1_version2_list1_2023-11-23_12h46.02.229_micRespv2l1_recorded\recording_micRespv2l1_2023-11-23_12h53.55.782.wav;481.66786559997126;;None;481.66786559997126;481.66786559997126;481.66786559997126;481.66786559997126;481.66786559997126;481.66786559997126;[1.0947165002580732, 1.2516276000533253, 1.488041200209409, 1.8977708001621068, 2.0215106001123786, 2.0873171002604067, 2.2646812002640218];;;;;;100201;001;2023-11-23_12h46.02.229;REPSWITCH1_version2_list1;2022.2.4;143.9418477210003;
REPSWITCH1/PICTURE_728.png;pulpo;type;gold;nontarget;1;NT;4;1;1;2;Stim8_Set4;0;None;99;98;99;0;98;98;98;;;;;;;;;;;;;;;;;;;;;;;482.16786609985866;483.29998029978015;483.29998029978015;483.29998029978015;483.29998029978015;483.29998029978015;483.29998029978015;483.29998029978015;483.29998029978015;['p', 'u', 'l', 'p', 'o'];0;pulpo;C:\2023\REPSWITCH21092023\REPSWITCH_excgange\REPSWITCH_excgange\data/100201_REPSWITCH1_version2_list1_2023-11-23_12h46.02.229_micRespv2l1_recorded\recording_micRespv2l1_2023-11-23_12h54.00.442.wav;486.3211693998892;486.82123929983936;None;486.3211693998892;486.3211693998892;486.3211693998892;486.3211693998892;486.3211693998892;486.3211693998892;[0.8557510001119226, 1.1263264999724925, 1.3814743999391794, 1.5818010999355465, 1.735248199896887];;;;;;100201;001;2023-11-23_12h46.02.229;REPSWITCH1_version2_list1;2022.2.4;143.9418477210003;
REPSWITCH1/PICTURE_728.png;pulpo;type;gold;repeat;1;T;4;1;1;2;Stim8_Set4;0;None;100;99;100;0;99;99;99;;;;;;;;;;;;;;;;;;;;;;;486.82123929983936;487.8977732998319;487.8977732998319;487.8977732998319;487.8977732998319;487.8977732998319;487.8977732998319;487.8977732998319;487.8977732998319;['p', 'u', 'l', 'p', 'o'];0;pulpo;C:\2023\REPSWITCH21092023\REPSWITCH_excgange\REPSWITCH_excgange\data/100201_REPSWITCH1_version2_list1_2023-11-23_12h46.02.229_micRespv2l1_recorded\recording_micRespv2l1_2023-11-23_12h54.05.040.wav;490.92595779988915;;None;490.92595779988915;490.92595779988915;490.92595779988915;490.92595779988915;490.92595779988915;490.92595779988915;[0.6836508000269532, 0.9618174000643194, 1.5737018000800163, 1.7710261000320315, 1.9334798001218587];;;;;;100201;001;2023-11-23_12h46.02.229;REPSWITCH1_version2_list1;2022.2.4;143.9418477210003;
REPSWITCH1/PICTURE_320.png;iglesia;speak;darkblue;filler;1;F;4;1;1;2;Stim8_Set3;0;None;101;100;101;0;100;100;100;;;;;;;;;;;;;;;;;;;;;;;491.4260266998317;492.57898379978724;492.57898379978724;492.57898379978724;492.57898379978724;492.57898379978724;492.57898379978724;492.57898379978724;492.57898379978724;None;0;;C:\2023\REPSWITCH21092023\REPSWITCH_excgange\REPSWITCH_excgange\data/100201_REPSWITCH1_version2_list1_2023-11-23_12h46.02.229_micRespv2l1_recorded\recording_micRespv2l1_2023-11-23_12h54.09.722.wav;495.607152499957;;None;495.607152499957;495.607152499957;495.607152499957;495.607152499957;495.607152499957;495.607152499957;;;;;;;100201;001;2023-11-23_12h46.02.229;REPSWITCH1_version2_list1;2022.2.4;143.9418477210003;
REPSWITCH1/PICTURE_464.png;goma;type;gold;filler;1;F;4;1;1;2;Stim6_Set3;0;None;102;101;102;0;101;101;101;;;;;;;;;;;;;;;;;;;;;;;496.1071595000103;497.1837478999514;497.1837478999514;497.1837478999514;497.1837478999514;497.1837478999514;497.1837478999514;497.1837478999514;497.1837478999514;['g', 'o', 'ñ', 'backspace', 'm', 'a'];0;goma;C:\2023\REPSWITCH21092023\REPSWITCH_excgange\REPSWITCH_excgange\data/100201_REPSWITCH1_version2_list1_2023-11-23_12h46.02.229_micRespv2l1_recorded\recording_micRespv2l1_2023-11-23_12h54.14.326.wav;500.205030699959;500.7050224998966;space;500.205030699959;500.205030699959;500.205030699959;500.205030699959;500.205030699959;500.205030699959;[0.8328214001376182, 0.9324255001265556, 1.5451307999901474, 1.959012100007385, 2.4609277001582086, 2.541649900143966];500.7050224998966;500.7050224998966;7.924460800131783;;;100201;001;2023-11-23_12h46.02.229;REPSWITCH1_version2_list1;2022.2.4;143.9418477210003;
REPSWITCH1/PICTURE_663.png;columna;type;gold;filler;1;F;1;2;1;2;Extra6;0;None;103;102;1;0;102;102;102;;;;;;;;;;;;;;;;;;;;;;;508.636589899892;509.706217299914;509.706217299914;509.706217299914;509.706217299914;509.706217299914;509.706217299914;509.706217299914;509.706217299914;['c', 'o', 'l', 'u', 'm', 'n', 'a'];0;columna;C:\2023\REPSWITCH21092023\REPSWITCH_excgange\REPSWITCH_excgange\data/100201_REPSWITCH1_version2_list1_2023-11-23_12h46.02.229_micRespv2l1_recorded\recording_micRespv2l1_2023-11-23_12h54.26.849.wav;512.7274634998757;513.2274905999657;None;512.7274634998757;512.7274634998757;512.7274634998757;512.7274634998757;512.7274634998757;512.7274634998757;[0.8186440002173185, 1.0050344001501799, 1.218294900143519, 1.4974534001667053, 1.713409600313753, 1.896800400223583, 1.9540932001546025];;;;;;100201;001;2023-11-23_12h46.02.229;REPSWITCH1_version2_list1;2022.2.4;143.9418477210003;
REPSWITCH1/PICTURE_128.png;muñeca;speak;darkblue;nontarget;2;NT;1;2;1;2;Stim4_Set1;1;switch;104;103;2;0;103;103;103;;;;;;;;;;;;;;;;;;;;;;;513.2274905999657;514.352625799831;514.352625799831;514.352625799831;514.352625799831;514.352625799831;514.352625799831;514.352625799831;514.352625799831;None;0;;C:\2023\REPSWITCH21092023\REPSWITCH_excgange\REPSWITCH_excgange\data/100201_REPSWITCH1_version2_list1_2023-11-23_12h46.02.229_micRespv2l1_recorded\recording_micRespv2l1_2023-11-23_12h54.31.496.wav;517.3808008998167;;None;517.3808008998167;517.3808008998167;517.3808008998167;517.3808008998167;517.3808008998167;517.3808008998167;;;;;;;100201;001;2023-11-23_12h46.02.229;REPSWITCH1_version2_list1;2022.2.4;143.9418477210003;
REPSWITCH1/PICTURE_128.png;muñeca;speak;darkblue;repeat;2;T;1;2;1;2;Stim4_Set1;0;None;105;104;3;0;104;104;104;;;;;;;;;;;;;;;;;;;;;;;517.8808844999876;518.9504580998328;518.9504580998328;518.9504580998328;518.9504580998328;518.9504580998328;518.9504580998328;518.9504580998328;518.9504580998328;None;0;;C:\2023\REPSWITCH21092023\REPSWITCH_excgange\REPSWITCH_excgange\data/100201_REPSWITCH1_version2_list1_2023-11-23_12h46.02.229_micRespv2l1_recorded\recording_micRespv2l1_2023-11-23_12h54.36.094.wav;521.978684599977;;None;521.978684599977;521.978684599977;521.978684599977;521.978684599977;521.978684599977;521.978684599977;;;;;;;100201;001;2023-11-23_12h46.02.229;REPSWITCH1_version2_list1;2022.2.4;143.9418477210003;
REPSWITCH1/PICTURE_8.png;pierna;type;gold;filler;1;F;1;2;1;2;Stim3_Set4;0;None;106;105;4;0;105;105;105;;;;;;;;;;;;;;;;;;;;;;;522.4786679998506;523.6038953999523;523.6038953999523;523.6038953999523;523.6038953999523;523.6038953999523;523.6038953999523;523.6038953999523;523.6038953999523;['p', 'i', 'e', 'r', 'n', 'a'];0;pierna;C:\2023\REPSWITCH21092023\REPSWITCH_excgange\REPSWITCH_excgange\data/100201_REPSWITCH1_version2_list1_2023-11-23_12h46.02.229_micRespv2l1_recorded\recording_micRespv2l1_2023-11-23_12h54.40.746.wav;526.6250870998483;527.1251466998365;None;526.6250870998483;526.6250870998483;526.6250870998483;526.6250870998483;526.6250870998483;526.6250870998483;[1.1282972001936287, 1.3654869999736547, 1.4945450001396239, 1.597198200179264, 1.7716092001646757, 1.8453338001854718];;;;;;100201;001;2023-11-23_12h46.02.229;REPSWITCH1_version2_list1;2022.2.4;143.9418477210003;
REPSWITCH1/PICTURE_135.png;traje;speak;darkblue;nontarget;2;NT;1;2;1;2;Stim3_Set1;1;switch;107;106;5;0;106;106;106;;;;;;;;;;;;;;;;;;;;;;;527.1251466998365;528.1947937998921;528.1947937998921;528.1947937998921;528.1947937998921;528.1947937998921;528.1947937998921;528.1947937998921;528.1947937998921;None;0;;C:\2023\REPSWITCH21092023\REPSWITCH_excgange\REPSWITCH_excgange\data/100201_REPSWITCH1_version2_list1_2023-11-23_12h46.02.229_micRespv2l1_recorded\recording_micRespv2l1_2023-11-23_12h54.45.337.wav;531.216026699869;531.7160338999238;None;531.216026699869;531.216026699869;531.216026699869;531.216026699869;531.216026699869;531.216026699869;;;;;;;100201;001;2023-11-23_12h46.02.229;REPSWITCH1_version2_list1;2022.2.4;143.9418477210003;
REPSWITCH1/PICTURE_135.png;traje;speak;darkblue;repeat;2;T;1;2;1;2;Stim3_Set1;0;None;108;107;6;0;107;107;107;;;;;;;;;;;;;;;;;;;;;;;531.7160338999238;532.8898044999223;532.8898044999223;532.8898044999223;532.8898044999223;532.8898044999223;532.8898044999223;532.8898044999223;532.8898044999223;None;0;;C:\2023\REPSWITCH21092023\REPSWITCH_excgange\REPSWITCH_excgange\data/100201_REPSWITCH1_version2_list1_2023-11-23_12h46.02.229_micRespv2l1_recorded\recording_micRespv2l1_2023-11-23_12h54.50.032.wav;535.9110000999644;536.4110737999436;None;535.9110000999644;535.9110000999644;535.9110000999644;535.9110000999644;535.9110000999644;535.9110000999644;;;;;;;100201;001;2023-11-23_12h46.02.229;REPSWITCH1_version2_list1;2022.2.4;143.9418477210003;
REPSWITCH1/PICTURE_673.png;tenedor;type;gold;filler;1;F;1;2;1;2;Extra5;0;None;109;108;7;0;108;108;108;;;;;;;;;;;;;;;;;;;;;;;536.4110737999436;537.5431938997936;537.5431938997936;537.5431938997936;537.5431938997936;537.5431938997936;537.5431938997936;537.5431938997936;537.5431938997936;['t', 'e', 'e', 'backspace', 'n', 'e', 'r', 'backspace'];0;tene;C:\2023\REPSWITCH21092023\REPSWITCH_excgange\REPSWITCH_excgange\data/100201_REPSWITCH1_version2_list1_2023-11-23_12h46.02.229_micRespv2l1_recorded\recording_micRespv2l1_2023-11-23_12h54.54.685.wav;540.5644221999682;541.0644963998348;None;540.5644221999682;540.5644221999682;540.5644221999682;540.5644221999682;540.5644221999682;540.5644221999682;[0.8545185001567006, 1.0359719002153724, 1.7003800000529736, 2.0848533001262695, 2.3845791001804173, 2.4932574001140893, 2.567990900017321, 2.941033700015396];;;;;;100201;001;2023-11-23_12h46.02.229;REPSWITCH1_version2_list1;2022.2.4;143.9418477210003;
REPSWITCH1/PICTURE_728.png;pulpo;speak;darkblue;filler;2;F;1;2;1;2;Stim8_Set4;0;None;110;109;8;0;109;109;109;;;;;;;;;;;;;;;;;;;;;;;541.0644963998348;542.1549271999393;542.1549271999393;542.1549271999393;542.1549271999393;542.1549271999393;542.1549271999393;542.1549271999393;542.1549271999393;None;0;;C:\2023\REPSWITCH21092023\REPSWITCH_excgange\REPSWITCH_excgange\data/100201_REPSWITCH1_version2_list1_2023-11-23_12h46.02.229_micRespv2l1_recorded\recording_micRespv2l1_2023-11-23_12h54.59.298.wav;545.1761318999343;545.6761917998083;None;545.1761318999343;545.1761318999343;545.1761318999343;545.1761318999343;545.1761318999343;545.1761318999343;;;;;;;100201;001;2023-11-23_12h46.02.229;REPSWITCH1_version2_list1;2022.2.4;143.9418477210003;
REPSWITCH1/PICTURE_16.png;cazador;speak;darkblue;nontarget;2;NT;1;2;1;2;Stim6_Set1;1;repeat;111;110;9;0;110;110;110;;;;;;;;;;;;;;;;;;;;;;;545.6761917998083;546.8499654999468;546.8499654999468;546.8499654999468;546.8499654999468;546.8499654999468;546.8499654999468;546.8499654999468;546.8499654999468;None;0;;C:\2023\REPSWITCH21092023\REPSWITCH_excgange\REPSWITCH_excgange\data/100201_REPSWITCH1_version2_list1_2023-11-23_12h46.02.229_micRespv2l1_recorded\recording_micRespv2l1_2023-11-23_12h55.03.992.wav;549.871152299922;550.3712386998814;None;549.871152299922;549.871152299922;549.871152299922;549.871152299922;549.871152299922;549.871152299922;;;;;;;100201;001;2023-11-23_12h46.02.229;REPSWITCH1_version2_list1;2022.2.4;143.9418477210003;
REPSWITCH1/PICTURE_16.png;cazador;type;gold;switch;1;T;1;2;1;2;Stim6_Set1;0;None;112;111;10;0;111;111;111;;;;;;;;;;;;;;;;;;;;;;;550.3712386998814;551.4894614999648;551.4894614999648;551.4894614999648;551.4894614999648;551.4894614999648;551.4894614999648;551.4894614999648;551.4894614999648;['c', 'a', 'z', 'a', 'd', 'o', 'r'];0;cazador;C:\2023\REPSWITCH21092023\REPSWITCH_excgange\REPSWITCH_excgange\data/100201_REPSWITCH1_version2_list1_2023-11-23_12h46.02.229_micRespv2l1_recorded\recording_micRespv2l1_2023-11-23_12h55.08.631.wav;554.5106614998076;555.0107227999251;None;554.5106614998076;554.5106614998076;554.5106614998076;554.5106614998076;554.5106614998076;554.5106614998076;[0.9707696000114083, 1.1023154000286013, 1.461046300129965, 1.6088801000732929, 1.8662003001663834, 2.0451807000208646, 2.1696655000559986];;;;;;100201;001;2023-11-23_12h46.02.229;REPSWITCH1_version2_list1;2022.2.4;143.9418477210003;
REPSWITCH1/PICTURE_498.png;taza;type;gold;filler;1;F;1;2;1;2;Stim4_Set4;1;repeat;113;112;11;0;112;112;112;;;;;;;;;;;;;;;;;;;;;;;555.0107227999251;556.1428566998802;556.1428566998802;556.1428566998802;556.1428566998802;556.1428566998802;556.1428566998802;556.1428566998802;556.1428566998802;['t', 'a', 'z', 'a'];0;taza;C:\2023\REPSWITCH21092023\REPSWITCH_excgange\REPSWITCH_excgange\data/100201_REPSWITCH1_version2_list1_2023-11-23_12h46.02.229_micRespv2l1_recorded\recording_micRespv2l1_2023-11-23_12h55.13.286.wav;559.1710818998981;;None;559.1710818998981;559.1710818998981;559.1710818998981;559.1710818998981;559.1710818998981;559.1710818998981;[0.850528399925679, 1.0000180001370609, 1.2282487000338733, 1.4146294000092894];;;;;;100201;001;2023-11-23_12h46.02.229;REPSWITCH1_version2_list1;2022.2.4;143.9418477210003;
REPSWITCH1/PICTURE_381.png;fresa;type;gold;nontarget;1;NT;1;2;1;2;Stim2_Set1;1;repeat;114;113;12;0;113;113;113;;;;;;;;;;;;;;;;;;;;;;;559.671070399927;560.8587876998354;560.8587876998354;560.8587876998354;560.8587876998354;560.8587876998354;560.8587876998354;560.8587876998354;560.8587876998354;['f', 'r', 'e', 's', 'a'];0;fresa;C:\2023\REPSWITCH21092023\REPSWITCH_excgange\REPSWITCH_excgange\data/100201_REPSWITCH1_version2_list1_2023-11-23_12h46.02.229_micRespv2l1_recorded\recording_micRespv2l1_2023-11-23_12h55.18.002.wav;563.886916999938;;None;563.886916999938;563.886916999938;563.886916999938;563.886916999938;563.886916999938;563.886916999938;[0.8889538000803441, 1.0934596001170576, 1.1364846001379192, 1.5020206000190228, 1.5929906000383198];;;;;;100201;001;2023-11-23_12h46.02.229;REPSWITCH1_version2_list1;2022.2.4;143.9418477210003;
REPSWITCH1/PICTURE_381.png;fresa;speak;darkblue;switch;2;T;1;2;1;2;Stim2_Set1;0;None;115;114;13;0;114;114;114;;;;;;;;;;;;;;;;;;;;;;;564.3869688999839;565.5399260998238;565.5399260998238;565.5399260998238;565.5399260998238;565.5399260998238;565.5399260998238;565.5399260998238;565.5399260998238;None;0;;C:\2023\REPSWITCH21092023\REPSWITCH_excgange\REPSWITCH_excgange\data/100201_REPSWITCH1_version2_list1_2023-11-23_12h46.02.229_micRespv2l1_recorded\recording_micRespv2l1_2023-11-23_12h55.22.683.wav;568.5680852998048;;None;568.5680852998048;568.5680852998048;568.5680852998048;568.5680852998048;568.5680852998048;568.5680852998048;;;;;;;100201;001;2023-11-23_12h46.02.229;REPSWITCH1_version2_list1;2022.2.4;143.9418477210003;
REPSWITCH1/PICTURE_178.png;puente;speak;darkblue;nontarget;2;NT;1;2;1;2;Stim1_Set1;0;None;116;115;14;0;115;115;115;;;;;;;;;;;;;;;;;;;;;;;569.0681364999618;570.2697100997902;570.2697100997902;570.2697100997902;570.2697100997902;570.2697100997902;570.2697100997902;570.2697100997902;570.2697100997902;None;0;;C:\2023\REPSWITCH21092023\REPSWITCH_excgange\REPSWITCH_excgange\data/100201_REPSWITCH1_version2_list1_2023-11-23_12h46.02.229_micRespv2l1_recorded\recording_micRespv2l1_2023-11-23_12h55.27.412.wav;573.2909176999237;573.7909916997887;None;573.2909176999237;573.2909176999237;573.2909176999237;573.2909176999237;573.2909176999237;573.2909176999237;;;;;;;100201;001;2023-11-23_12h46.02.229;REPSWITCH1_version2_list1;2022.2.4;143.9418477210003;
REPSWITCH1/PICTURE_178.png;puente;type;gold;switch;1;T;1;2;1;2;Stim1_Set1;0;None;117;116;15;0;116;116;116;;;;;;;;;;;;;;;;;;;;;;;573.7909916997887;574.9856518998276;574.9856518998276;574.9856518998276;574.9856518998276;574.9856518998276;574.9856518998276;574.9856518998276;574.9856518998276;['p', 'u', 'e', 'n', 't', 'e'];0;puente;C:\2023\REPSWITCH21092023\REPSWITCH_excgange\REPSWITCH_excgange\data/100201_REPSWITCH1_version2_list1_2023-11-23_12h46.02.229_micRespv2l1_recorded\recording_micRespv2l1_2023-11-23_12h55.32.129.wav;578.0068172998726;578.5068793999963;None;578.0068172998726;578.0068172998726;578.0068172998726;578.0068172998726;578.0068172998726;578.0068172998726;[0.7245102999731898, 1.02747380011715, 1.1562435000669211, 1.3502650000154972, 1.528627100167796, 1.7042733000125736];;;;;;100201;001;2023-11-23_12h46.02.229;REPSWITCH1_version2_list1;2022.2.4;143.9418477210003;
REPSWITCH1/PICTURE_719.png;baño;speak;darkblue;filler;2;F;1;2;1;2;Stim2_Set4;0;None;118;117;16;0;117;117;117;;;;;;;;;;;;;;;;;;;;;;;578.5068793999963;579.5903614999261;579.5903614999261;579.5903614999261;579.5903614999261;579.5903614999261;579.5903614999261;579.5903614999261;579.5903614999261;None;0;;C:\2023\REPSWITCH21092023\REPSWITCH_excgange\REPSWITCH_excgange\data/100201_REPSWITCH1_version2_list1_2023-11-23_12h46.02.229_micRespv2l1_recorded\recording_micRespv2l1_2023-11-23_12h55.36.734.wav;582.611551999813;583.1117049998138;None;582.611551999813;582.611551999813;582.611551999813;582.611551999813;582.611551999813;582.611551999813;;;;;;;100201;001;2023-11-23_12h46.02.229;REPSWITCH1_version2_list1;2022.2.4;143.9418477210003;
REPSWITCH1/PICTURE_169.png;espalda;type;gold;nontarget;1;NT;1;2;1;2;Stim8_Set1;1;switch;119;118;17;0;118;118;118;;;;;;;;;;;;;;;;;;;;;;;583.1117049998138;584.1535086999647;584.1535086999647;584.1535086999647;584.1535086999647;584.1535086999647;584.1535086999647;584.1535086999647;584.1535086999647;['e', 's', 'p', 'a', 'l', 'd', 'a'];0;espalda;C:\2023\REPSWITCH21092023\REPSWITCH_excgange\REPSWITCH_excgange\data/100201_REPSWITCH1_version2_list1_2023-11-23_12h46.02.229_micRespv2l1_recorded\recording_micRespv2l1_2023-11-23_12h55.41.296.wav;587.1746737000067;587.6747478998732;None;587.1746737000067;587.1746737000067;587.1746737000067;587.1746737000067;587.1746737000067;587.1746737000067;[0.7478267999831587, 0.9680874000769109, 1.4825170000549406, 1.6249907000456005, 1.9479110001120716, 2.2399939000606537, 2.3535506001207978];;;;;;100201;001;2023-11-23_12h46.02.229;REPSWITCH1_version2_list1;2022.2.4;143.9418477210003;
REPSWITCH1/PICTURE_169.png;espalda;type;gold;repeat;1;T;1;2;1;2;Stim8_Set1;0;None;120;119;18;0;119;119;119;;;;;;;;;;;;;;;;;;;;;;;587.6747478998732;588.7999670999125;588.7999670999125;588.7999670999125;588.7999670999125;588.7999670999125;588.7999670999125;588.7999670999125;588.7999670999125;['e', 's', 'p', 'a', 'l', 'd', 'a'];0;espalda;C:\2023\REPSWITCH21092023\REPSWITCH_excgange\REPSWITCH_excgange\data/100201_REPSWITCH1_version2_list1_2023-11-23_12h46.02.229_micRespv2l1_recorded\recording_micRespv2l1_2023-11-23_12h55.45.943.wav;591.8211411999073;592.3211927998345;None;591.8211411999073;591.8211411999073;591.8211411999073;591.8211411999073;591.8211411999073;591.8211411999073;[0.9298995002172887, 1.1201843002345413, 1.2398598003201187, 1.3418252002447844, 1.7060278002172709, 1.9603948001749814, 2.066089800093323];;;;;;100201;001;2023-11-23_12h46.02.229;REPSWITCH1_version2_list1;2022.2.4;143.9418477210003;
REPSWITCH1/PICTURE_48.png;bombero;speak;darkblue;filler;2;F;1;2;1;2;Stim7_Set4;1;switch;121;120;19;0;120;120;120;;;;;;;;;;;;;;;;;;;;;;;592.3211927998345;593.4255254999734;593.4255254999734;593.4255254999734;593.4255254999734;593.4255254999734;593.4255254999734;593.4255254999734;593.4255254999734;None;0;;C:\2023\REPSWITCH21092023\REPSWITCH_excgange\REPSWITCH_excgange\data/100201_REPSWITCH1_version2_list1_2023-11-23_12h46.02.229_micRespv2l1_recorded\recording_micRespv2l1_2023-11-23_12h55.50.569.wav;596.453724199906;;None;596.453724199906;596.453724199906;596.453724199906;596.453724199906;596.453724199906;596.453724199906;;;;;;;100201;001;2023-11-23_12h46.02.229;REPSWITCH1_version2_list1;2022.2.4;143.9418477210003;
