image;correctAns;respModal;frameColor;repSwitch;sequence;target;set;block;list;exp_version;stimulus;baseline;baseline_condition;trial_no;psychopy_trial;Column1;trialsREPSWITCH.thisRepN;trialsREPSWITCH.thisTrialN;trialsREPSWITCH.thisN;trialsREPSWITCH.thisIndex;textWelcome.started;textboxInstrMain1.started;textboxInstrMain1_2.started;textboxInstrMain1_3.started;keyInstrMain.started;keyInstrMain.keys;keyInstrMain.rt;textboxInstrMain2.started;textboxInstrMain2_2.started;textboxInstrMain2_3.started;textboxInstrMain2_4.started;textboxInstrMain2_5.started;textboxInstrMain2_6.started;textboxInstrMain2_7.started;textboxInstrMain2_8.started;textboxInstrMain2_9.started;textboxInstrMain2_10.started;textboxInstrMain2_11.started;textboxInstrMain2_12.started;keyInstrMain2.started;keyInstrMain2.keys;keyInstrMain2.rt;fixationITI.started;fixationITI.stopped;polygonColour.started;polygonWhite.started;imageObject.started;polygonType.started;textInput.started;keyResp.started;micRespv1l2.started;keyResp.keys;keyResp.corr;subjResponse;micRespv1l2.clip;textBlankLoop.started;textBlankLoop.stopped;keyPause.keys;polygonColour.stopped;polygonWhite.stopped;imageObject.stopped;polygonType.stopped;textInput.stopped;keyResp.stopped;keyResp.rt;textboxPause.started;keyPause.started;keyPause.rt;textboxGoodbye.started;textboxGoodbye.stopped;participant;session;date;expName;psychopyVersion;frameRate;Column2
;;;;;;;;;;;;;;;;;;;;;10.801131499931216;13.295835699886084;13.295835699886084;13.295835699886084;13.295835699886084;space;9.700511599890888;;;;;;;;;;;;;;;;;;;;;;;;;;;;;;;;;;;;;;;;;;;;190102;001;2023-11-30_12h48.08.240;REPSWITCH1_version1_list2;2022.2.4;143.93169568334432;
;;;;;;;;;;;;;;;;;;;;;;;;;;;;23.012423599837348;23.012423599837348;23.012423599837348;23.012423599837348;23.012423599837348;23.012423599837348;23.012423599837348;23.012423599837348;23.012423599837348;23.012423599837348;23.012423599837348;23.012423599837348;23.012423599837348;space;4.185168899828568;;;;;;;;;;;;;;;;;;;;;;;;;;;;;190102;001;2023-11-30_12h48.08.240;REPSWITCH1_version1_list2;2022.2.4;143.93169568334432;
REPSWITCH1/PICTURE_646.png;tronco;speak;gold;filler;2;F;1;3;2;1;Extra4;0;None;1;0;1;0;0;0;0;;;;;;;;;;;;;;;;;;;;;;;27.29075329983607;28.360385299893096;28.360385299893096;28.360385299893096;28.360385299893096;28.360385299893096;28.360385299893096;28.360385299893096;28.360385299893096;None;0;;C:\2023\REPSWITCH21092023\REPSWITCH_excgange\REPSWITCH_excgange\data/190102_REPSWITCH1_version1_list2_2023-11-30_12h48.08.240_micRespv1l2_recorded\recording_micRespv1l2_2023-11-30_12h48.30.674.wav;31.381570799974725;31.881632199976593;None;;;;;;;;;;;;;190102;001;2023-11-30_12h48.08.240;REPSWITCH1_version1_list2;2022.2.4;143.93169568334432;
REPSWITCH1/PICTURE_340.png;espejo;type;darkblue;filler;1;F;1;3;2;1;Extra1;0;None;2;1;2;0;1;1;1;;;;;;;;;;;;;;;;;;;;;;;31.881632199976593;32.90258289990015;32.90258289990015;32.90258289990015;32.90258289990015;32.90258289990015;32.90258289990015;32.90258289990015;32.90258289990015;['e', 's', 'p', 'e', 'j', 'o'];0;espejo;C:\2023\REPSWITCH21092023\REPSWITCH_excgange\REPSWITCH_excgange\data/190102_REPSWITCH1_version1_list2_2023-11-30_12h48.08.240_micRespv1l2_recorded\recording_micRespv1l2_2023-11-30_12h48.35.220.wav;35.92381319985725;36.42385519994423;None;35.92381319985725;35.92381319985725;35.92381319985725;35.92381319985725;35.92381319985725;35.92381319985725;[1.019496199907735, 1.221130199963227, 1.3666458998341113, 1.4871513999532908, 1.7084389999508858, 2.494857099838555];;;;;;190102;001;2023-11-30_12h48.08.240;REPSWITCH1_version1_list2;2022.2.4;143.93169568334432;
REPSWITCH1/PICTURE_338.png;regalo;speak;gold;filler;2;F;1;3;2;1;Stim6_Set4;0;None;3;2;3;0;2;2;2;;;;;;;;;;;;;;;;;;;;;;;36.42385519994423;37.51430719997734;37.51430719997734;37.51430719997734;37.51430719997734;37.51430719997734;37.51430719997734;37.51430719997734;37.51430719997734;None;0;;C:\2023\REPSWITCH21092023\REPSWITCH_excgange\REPSWITCH_excgange\data/190102_REPSWITCH1_version1_list2_2023-11-30_12h48.08.240_micRespv1l2_recorded\recording_micRespv1l2_2023-11-30_12h48.39.832.wav;40.542463899822906;;None;40.542463899822906;40.542463899822906;40.542463899822906;40.542463899822906;40.542463899822906;40.542463899822906;;;;;;;190102;001;2023-11-30_12h48.08.240;REPSWITCH1_version1_list2;2022.2.4;143.93169568334432;
REPSWITCH1/PICTURE_142.png;vaso;speak;gold;nontarget;2;NT;1;3;2;1;Stim7_Set1;1;repeat;4;3;4;0;3;3;3;;;;;;;;;;;;;;;;;;;;;;;41.042551199905574;42.20243059983477;42.20243059983477;42.20243059983477;42.20243059983477;42.20243059983477;42.20243059983477;42.20243059983477;42.20243059983477;None;0;;C:\2023\REPSWITCH21092023\REPSWITCH_excgange\REPSWITCH_excgange\data/190102_REPSWITCH1_version1_list2_2023-11-30_12h48.08.240_micRespv1l2_recorded\recording_micRespv1l2_2023-11-30_12h48.44.518.wav;45.223660699790344;45.72370839980431;None;45.223660699790344;45.223660699790344;45.223660699790344;45.223660699790344;45.223660699790344;45.223660699790344;;;;;;;190102;001;2023-11-30_12h48.08.240;REPSWITCH1_version1_list2;2022.2.4;143.93169568334432;
REPSWITCH1/PICTURE_142.png;vaso;speak;gold;repeat;2;T;1;3;2;1;Stim7_Set1;0;None;5;4;5;0;4;4;4;;;;;;;;;;;;;;;;;;;;;;;45.72370839980431;46.80719879991375;46.80719879991375;46.80719879991375;46.80719879991375;46.80719879991375;46.80719879991375;46.80719879991375;46.80719879991375;None;0;;C:\2023\REPSWITCH21092023\REPSWITCH_excgange\REPSWITCH_excgange\data/190102_REPSWITCH1_version1_list2_2023-11-30_12h48.08.240_micRespv1l2_recorded\recording_micRespv1l2_2023-11-30_12h48.49.124.wav;49.828509599901736;50.328491899883375;None;49.828509599901736;49.828509599901736;49.828509599901736;49.828509599901736;49.828509599901736;49.828509599901736;;;;;;;190102;001;2023-11-30_12h48.08.240;REPSWITCH1_version1_list2;2022.2.4;143.93169568334432;
REPSWITCH1/PICTURE_498.png;taza;type;darkblue;filler;1;F;1;3;2;1;Stim4_Set4;0;None;6;5;6;0;5;5;5;;;;;;;;;;;;;;;;;;;;;;;50.328491899883375;51.50920889992267;51.50920889992267;51.50920889992267;51.50920889992267;51.50920889992267;51.50920889992267;51.50920889992267;51.50920889992267;['t', 'a', 'z', 'a'];0;taza;C:\2023\REPSWITCH21092023\REPSWITCH_excgange\REPSWITCH_excgange\data/190102_REPSWITCH1_version1_list2_2023-11-30_12h48.08.240_micRespv1l2_recorded\recording_micRespv1l2_2023-11-30_12h48.53.826.wav;54.53040859987959;55.03055819985457;None;54.53040859987959;54.53040859987959;54.53040859987959;54.53040859987959;54.53040859987959;54.53040859987959;[1.1283342998940498, 1.6976948999799788, 1.8681534000206739, 2.018710399977863];;;;;;190102;001;2023-11-30_12h48.08.240;REPSWITCH1_version1_list2;2022.2.4;143.93169568334432;
REPSWITCH1/PICTURE_16.png;cazador;speak;gold;nontarget;2;NT;1;3;2;1;Stim6_Set1;1;switch;7;6;7;0;6;6;6;;;;;;;;;;;;;;;;;;;;;;;55.03055819985457;56.169564299983904;56.169564299983904;56.169564299983904;56.169564299983904;56.169564299983904;56.169564299983904;56.169564299983904;56.169564299983904;None;0;;C:\2023\REPSWITCH21092023\REPSWITCH_excgange\REPSWITCH_excgange\data/190102_REPSWITCH1_version1_list2_2023-11-30_12h48.08.240_micRespv1l2_recorded\recording_micRespv1l2_2023-11-30_12h48.58.487.wav;59.1977113999892;;None;59.1977113999892;59.1977113999892;59.1977113999892;59.1977113999892;59.1977113999892;59.1977113999892;;;;;;;190102;001;2023-11-30_12h48.08.240;REPSWITCH1_version1_list2;2022.2.4;143.93169568334432;
REPSWITCH1/PICTURE_16.png;cazador;speak;gold;repeat;2;T;1;3;2;1;Stim6_Set1;0;None;8;7;8;0;7;7;7;;;;;;;;;;;;;;;;;;;;;;;59.69778359984048;60.70487429993227;60.70487429993227;60.70487429993227;60.70487429993227;60.70487429993227;60.70487429993227;60.70487429993227;60.70487429993227;None;0;;C:\2023\REPSWITCH21092023\REPSWITCH_excgange\REPSWITCH_excgange\data/190102_REPSWITCH1_version1_list2_2023-11-30_12h48.08.240_micRespv1l2_recorded\recording_micRespv1l2_2023-11-30_12h49.03.022.wav;63.72604119987227;64.22613369999453;None;63.72604119987227;63.72604119987227;63.72604119987227;63.72604119987227;63.72604119987227;63.72604119987227;;;;;;;190102;001;2023-11-30_12h48.08.240;REPSWITCH1_version1_list2;2022.2.4;143.93169568334432;
REPSWITCH1/PICTURE_719.png;baño;type;darkblue;filler;1;F;1;3;2;1;Stim2_Set4;0;None;9;8;9;0;8;8;8;;;;;;;;;;;;;;;;;;;;;;;64.22613369999453;65.28181699989364;65.28181699989364;65.28181699989364;65.28181699989364;65.28181699989364;65.28181699989364;65.28181699989364;65.28181699989364;['b', 'a', 'ñ', 'o'];0;baño;C:\2023\REPSWITCH21092023\REPSWITCH_excgange\REPSWITCH_excgange\data/190102_REPSWITCH1_version1_list2_2023-11-30_12h48.08.240_micRespv1l2_recorded\recording_micRespv1l2_2023-11-30_12h49.07.599.wav;68.3099879999645;;None;68.3099879999645;68.3099879999645;68.3099879999645;68.3099879999645;68.3099879999645;68.3099879999645;[1.0731966998428106, 1.5127552999183536, 2.0910761000122875, 2.2744692999403924];;;;;;190102;001;2023-11-30_12h48.08.240;REPSWITCH1_version1_list2;2022.2.4;143.93169568334432;
REPSWITCH1/PICTURE_169.png;espalda;speak;gold;nontarget;2;NT;1;3;2;1;Stim8_Set1;0;None;10;9;10;0;9;9;9;;;;;;;;;;;;;;;;;;;;;;;68.8100399998948;69.96307379985228;69.96307379985228;69.96307379985228;69.96307379985228;69.96307379985228;69.96307379985228;69.96307379985228;69.96307379985228;None;0;;C:\2023\REPSWITCH21092023\REPSWITCH_excgange\REPSWITCH_excgange\data/190102_REPSWITCH1_version1_list2_2023-11-30_12h48.08.240_micRespv1l2_recorded\recording_micRespv1l2_2023-11-30_12h49.12.280.wav;72.9911424999591;;None;72.9911424999591;72.9911424999591;72.9911424999591;72.9911424999591;72.9911424999591;72.9911424999591;;;;;;;190102;001;2023-11-30_12h48.08.240;REPSWITCH1_version1_list2;2022.2.4;143.93169568334432;
REPSWITCH1/PICTURE_169.png;espalda;type;darkblue;switch;1;T;1;3;2;1;Stim8_Set1;0;None;11;10;11;0;10;10;10;;;;;;;;;;;;;;;;;;;;;;;73.49125419999473;74.5538711999543;74.5538711999543;74.5538711999543;74.5538711999543;74.5538711999543;74.5538711999543;74.5538711999543;74.5538711999543;['e', 's', 'p', 'a', 'l', 'd', 'a'];0;espalda;C:\2023\REPSWITCH21092023\REPSWITCH_excgange\REPSWITCH_excgange\data/190102_REPSWITCH1_version1_list2_2023-11-30_12h48.08.240_micRespv1l2_recorded\recording_micRespv1l2_2023-11-30_12h49.16.870.wav;77.57513259979896;78.07518329983577;None;77.57513259979896;77.57513259979896;77.57513259979896;77.57513259979896;77.57513259979896;77.57513259979896;[1.0729792001657188, 1.3749504999723285, 1.566386500140652, 1.6749815000221133, 1.7846464000176638, 2.047363999998197, 2.109158900100738];;;;;;190102;001;2023-11-30_12h48.08.240;REPSWITCH1_version1_list2;2022.2.4;143.93169568334432;
REPSWITCH1/PICTURE_687.png;camisa;type;darkblue;filler;1;F;1;3;2;1;Stim5_Set4;0;None;12;11;12;0;11;11;11;;;;;;;;;;;;;;;;;;;;;;;78.07518329983577;79.20729339984246;79.20729339984246;79.20729339984246;79.20729339984246;79.20729339984246;79.20729339984246;79.20729339984246;79.20729339984246;['c', 'a', 'm', 'i', 's', 'a'];0;camisa;C:\2023\REPSWITCH21092023\REPSWITCH_excgange\REPSWITCH_excgange\data/190102_REPSWITCH1_version1_list2_2023-11-30_12h48.08.240_micRespv1l2_recorded\recording_micRespv1l2_2023-11-30_12h49.21.525.wav;82.23542969999835;;None;82.23542969999835;82.23542969999835;82.23542969999835;82.23542969999835;82.23542969999835;82.23542969999835;[1.672616799827665, 1.7971333998721093, 2.1509573999792337, 2.2960418998263776, 2.414618599927053, 2.5525225999299437];;;;;;190102;001;2023-11-30_12h48.08.240;REPSWITCH1_version1_list2;2022.2.4;143.93169568334432;
REPSWITCH1/PICTURE_178.png;puente;type;darkblue;nontarget;1;NT;1;3;2;1;Stim1_Set1;1;repeat;13;12;13;0;12;12;12;;;;;;;;;;;;;;;;;;;;;;;82.73550849989988;83.86760479980148;83.86760479980148;83.86760479980148;83.86760479980148;83.86760479980148;83.86760479980148;83.86760479980148;83.86760479980148;['p', 'u', 'e', 'n', 't', 'e'];0;puente;C:\2023\REPSWITCH21092023\REPSWITCH_excgange\REPSWITCH_excgange\data/190102_REPSWITCH1_version1_list2_2023-11-30_12h48.08.240_micRespv1l2_recorded\recording_micRespv1l2_2023-11-30_12h49.26.184.wav;86.888809699798;87.38887649984099;None;86.888809699798;86.888809699798;86.888809699798;86.888809699798;86.888809699798;86.888809699798;[1.1119936001487076, 1.5097066001035273, 1.6763302001636475, 1.844797900179401, 2.0143468000460416, 2.066135800210759];;;;;;190102;001;2023-11-30_12h48.08.240;REPSWITCH1_version1_list2;2022.2.4;143.93169568334432;
REPSWITCH1/PICTURE_178.png;puente;speak;gold;switch;2;T;1;3;2;1;Stim1_Set1;0;None;14;13;14;0;13;13;13;;;;;;;;;;;;;;;;;;;;;;;87.38887649984099;88.51410839986056;88.51410839986056;88.51410839986056;88.51410839986056;88.51410839986056;88.51410839986056;88.51410839986056;88.51410839986056;None;0;;C:\2023\REPSWITCH21092023\REPSWITCH_excgange\REPSWITCH_excgange\data/190102_REPSWITCH1_version1_list2_2023-11-30_12h48.08.240_micRespv1l2_recorded\recording_micRespv1l2_2023-11-30_12h49.30.830.wav;91.53534399997443;92.03535079979338;None;91.53534399997443;91.53534399997443;91.53534399997443;91.53534399997443;91.53534399997443;91.53534399997443;;;;;;;190102;001;2023-11-30_12h48.08.240;REPSWITCH1_version1_list2;2022.2.4;143.93169568334432;
REPSWITCH1/PICTURE_128.png;muñeca;speak;gold;nontarget;2;NT;1;3;2;1;Stim4_Set1;1;repeat;15;14;15;0;14;14;14;;;;;;;;;;;;;;;;;;;;;;;92.03535079979338;93.18830709997565;93.18830709997565;93.18830709997565;93.18830709997565;93.18830709997565;93.18830709997565;93.18830709997565;93.18830709997565;None;0;;C:\2023\REPSWITCH21092023\REPSWITCH_excgange\REPSWITCH_excgange\data/190102_REPSWITCH1_version1_list2_2023-11-30_12h48.08.240_micRespv1l2_recorded\recording_micRespv1l2_2023-11-30_12h49.35.504.wav;96.20950479991734;96.7095594999846;None;96.20950479991734;96.20950479991734;96.20950479991734;96.20950479991734;96.20950479991734;96.20950479991734;;;;;;;190102;001;2023-11-30_12h48.08.240;REPSWITCH1_version1_list2;2022.2.4;143.93169568334432;
REPSWITCH1/PICTURE_128.png;muñeca;type;darkblue;switch;1;T;1;3;2;1;Stim4_Set1;0;None;16;15;16;0;15;15;15;;;;;;;;;;;;;;;;;;;;;;;96.7095594999846;97.86945969983935;97.86945969983935;97.86945969983935;97.86945969983935;97.86945969983935;97.86945969983935;97.86945969983935;97.86945969983935;['m', 'u', 'ñ', 'e', 'c', 'a'];0;muñeca;C:\2023\REPSWITCH21092023\REPSWITCH_excgange\REPSWITCH_excgange\data/190102_REPSWITCH1_version1_list2_2023-11-30_12h48.08.240_micRespv1l2_recorded\recording_micRespv1l2_2023-11-30_12h49.40.185.wav;100.89064339990728;101.39073189999908;None;100.89064339990728;100.89064339990728;100.89064339990728;100.89064339990728;100.89064339990728;100.89064339990728;[0.8043164000846446, 1.0993780000135303, 1.4770945999771357, 1.6934164001140743, 1.9161485000513494, 2.005846200045198];;;;;;190102;001;2023-11-30_12h48.08.240;REPSWITCH1_version1_list2;2022.2.4;143.93169568334432;
REPSWITCH1/PICTURE_319.png;vaca;speak;gold;filler;2;F;1;3;2;1;Stim1_Set4;1;switch;17;16;17;0;16;16;16;;;;;;;;;;;;;;;;;;;;;;;101.39073189999908;102.41176799987443;102.41176799987443;102.41176799987443;102.41176799987443;102.41176799987443;102.41176799987443;102.41176799987443;102.41176799987443;None;0;;C:\2023\REPSWITCH21092023\REPSWITCH_excgange\REPSWITCH_excgange\data/190102_REPSWITCH1_version1_list2_2023-11-30_12h48.08.240_micRespv1l2_recorded\recording_micRespv1l2_2023-11-30_12h49.44.729.wav;105.43293049978092;105.93295269994996;None;105.43293049978092;105.43293049978092;105.43293049978092;105.43293049978092;105.43293049978092;105.43293049978092;;;;;;;190102;001;2023-11-30_12h48.08.240;REPSWITCH1_version1_list2;2022.2.4;143.93169568334432;
REPSWITCH1/PICTURE_728.png;pulpo;speak;gold;filler;2;F;1;3;2;1;Stim8_Set4;0;None;18;17;18;0;17;17;17;;;;;;;;;;;;;;;;;;;;;;;105.93295269994996;106.98173079988919;106.98173079988919;106.98173079988919;106.98173079988919;106.98173079988919;106.98173079988919;106.98173079988919;106.98173079988919;None;0;;C:\2023\REPSWITCH21092023\REPSWITCH_excgange\REPSWITCH_excgange\data/190102_REPSWITCH1_version1_list2_2023-11-30_12h48.08.240_micRespv1l2_recorded\recording_micRespv1l2_2023-11-30_12h49.49.298.wav;110.00299660000019;110.50301369978115;None;110.00299660000019;110.00299660000019;110.00299660000019;110.00299660000019;110.00299660000019;110.00299660000019;;;;;;;190102;001;2023-11-30_12h48.08.240;REPSWITCH1_version1_list2;2022.2.4;143.93169568334432;
REPSWITCH1/PICTURE_381.png;fresa;type;darkblue;nontarget;1;NT;1;3;2;1;Stim2_Set1;1;switch;19;18;19;0;18;18;18;;;;;;;;;;;;;;;;;;;;;;;110.50301369978115;111.6768600998912;111.6768600998912;111.6768600998912;111.6768600998912;111.6768600998912;111.6768600998912;111.6768600998912;111.6768600998912;['f', 'r', 'e', 's', 'a'];0;fresa;C:\2023\REPSWITCH21092023\REPSWITCH_excgange\REPSWITCH_excgange\data/190102_REPSWITCH1_version1_list2_2023-11-30_12h48.08.240_micRespv1l2_recorded\recording_micRespv1l2_2023-11-30_12h49.53.993.wav;114.6980065999087;115.19809489999898;None;114.6980065999087;114.6980065999087;114.6980065999087;114.6980065999087;114.6980065999087;114.6980065999087;[1.1319877000059932, 1.3064395000692457, 1.5028456000145525, 1.6344058001413941, 1.7440373001154512];;;;;;190102;001;2023-11-30_12h48.08.240;REPSWITCH1_version1_list2;2022.2.4;143.93169568334432;
REPSWITCH1/PICTURE_381.png;fresa;type;darkblue;repeat;1;T;1;3;2;1;Stim2_Set1;0;None;20;19;20;0;19;19;19;;;;;;;;;;;;;;;;;;;;;;;115.19809489999898;116.33016619994305;116.33016619994305;116.33016619994305;116.33016619994305;116.33016619994305;116.33016619994305;116.33016619994305;116.33016619994305;['f', 'r', 's', 'a', 'backspace', 'backspace'];0;fr;C:\2023\REPSWITCH21092023\REPSWITCH_excgange\REPSWITCH_excgange\data/190102_REPSWITCH1_version1_list2_2023-11-30_12h48.08.240_micRespv1l2_recorded\recording_micRespv1l2_2023-11-30_12h49.58.646.wav;119.35142469988205;119.85146549995989;None;119.35142469988205;119.35142469988205;119.35142469988205;119.35142469988205;119.35142469988205;119.35142469988205;[1.159412399865687, 1.3218390999827534, 1.6992649000603706, 1.9437181998509914, 2.453025999944657, 2.6025355998426676];;;;;;190102;001;2023-11-30_12h48.08.240;REPSWITCH1_version1_list2;2022.2.4;143.93169568334432;
REPSWITCH1/PICTURE_8.png;pierna;speak;gold;filler;2;F;1;3;2;1;Stim3_Set4;0;None;21;20;21;0;20;20;20;;;;;;;;;;;;;;;;;;;;;;;119.85146549995989;120.96275329985656;120.96275329985656;120.96275329985656;120.96275329985656;120.96275329985656;120.96275329985656;120.96275329985656;120.96275329985656;None;0;;C:\2023\REPSWITCH21092023\REPSWITCH_excgange\REPSWITCH_excgange\data/190102_REPSWITCH1_version1_list2_2023-11-30_12h48.08.240_micRespv1l2_recorded\recording_micRespv1l2_2023-11-30_12h50.03.279.wav;123.98400599998422;124.48400739999488;None;123.98400599998422;123.98400599998422;123.98400599998422;123.98400599998422;123.98400599998422;123.98400599998422;;;;;;;190102;001;2023-11-30_12h48.08.240;REPSWITCH1_version1_list2;2022.2.4;143.93169568334432;
REPSWITCH1/PICTURE_48.png;bombero;speak;gold;filler;2;F;1;3;2;1;Stim7_Set4;0;None;22;21;22;0;21;21;21;;;;;;;;;;;;;;;;;;;;;;;124.48400739999488;125.57448429986835;125.57448429986835;125.57448429986835;125.57448429986835;125.57448429986835;125.57448429986835;125.57448429986835;125.57448429986835;None;0;;C:\2023\REPSWITCH21092023\REPSWITCH_excgange\REPSWITCH_excgange\data/190102_REPSWITCH1_version1_list2_2023-11-30_12h48.08.240_micRespv1l2_recorded\recording_micRespv1l2_2023-11-30_12h50.07.891.wav;128.59573029982857;129.09573349985294;None;128.59573029982857;128.59573029982857;128.59573029982857;128.59573029982857;128.59573029982857;128.59573029982857;;;;;;;190102;001;2023-11-30_12h48.08.240;REPSWITCH1_version1_list2;2022.2.4;143.93169568334432;
REPSWITCH1/PICTURE_135.png;traje;type;darkblue;nontarget;1;NT;1;3;2;1;Stim3_Set1;1;switch;23;22;23;0;22;22;22;;;;;;;;;;;;;;;;;;;;;;;129.09573349985294;130.18618839979172;130.18618839979172;130.18618839979172;130.18618839979172;130.18618839979172;130.18618839979172;130.18618839979172;130.18618839979172;['t', 'r', 'a', 'j', 'e'];0;traje;C:\2023\REPSWITCH21092023\REPSWITCH_excgange\REPSWITCH_excgange\data/190102_REPSWITCH1_version1_list2_2023-11-30_12h48.08.240_micRespv1l2_recorded\recording_micRespv1l2_2023-11-30_12h50.12.502.wav;133.2073786999099;133.7074564998038;None;133.2073786999099;133.2073786999099;133.2073786999099;133.2073786999099;133.2073786999099;133.2073786999099;[1.1584004000760615, 1.296933599980548, 1.4294981001876295, 1.7416722001507878, 1.9092895002104342];;;;;;190102;001;2023-11-30_12h48.08.240;REPSWITCH1_version1_list2;2022.2.4;143.93169568334432;
REPSWITCH1/PICTURE_135.png;traje;type;darkblue;repeat;1;T;1;3;2;1;Stim3_Set1;0;None;24;23;24;0;23;23;23;;;;;;;;;;;;;;;;;;;;;;;133.7074564998038;134.74928749981336;134.74928749981336;134.74928749981336;134.74928749981336;134.74928749981336;134.74928749981336;134.74928749981336;134.74928749981336;['t', 'r', 'a', 'j', 'e'];0;traje;C:\2023\REPSWITCH21092023\REPSWITCH_excgange\REPSWITCH_excgange\data/190102_REPSWITCH1_version1_list2_2023-11-30_12h48.08.240_micRespv1l2_recorded\recording_micRespv1l2_2023-11-30_12h50.17.066.wav;137.7775053998921;;None;137.7775053998921;137.7775053998921;137.7775053998921;137.7775053998921;137.7775053998921;137.7775053998921;[0.8932584000285715, 1.0287097999826074, 2.0342103999573737, 2.2227294000331312, 2.55878739990294];;;;;;190102;001;2023-11-30_12h48.08.240;REPSWITCH1_version1_list2;2022.2.4;143.93169568334432;
REPSWITCH1/PICTURE_19.png;pavo;type;darkblue;nontarget;1;NT;1;3;2;1;Stim5_Set1;1;repeat;25;24;25;0;24;24;24;;;;;;;;;;;;;;;;;;;;;;;138.2775053998921;139.3540099998936;139.3540099998936;139.3540099998936;139.3540099998936;139.3540099998936;139.3540099998936;139.3540099998936;139.3540099998936;['p', 'a', 'v', 'o'];0;pavo;C:\2023\REPSWITCH21092023\REPSWITCH_excgange\REPSWITCH_excgange\data/190102_REPSWITCH1_version1_list2_2023-11-30_12h48.08.240_micRespv1l2_recorded\recording_micRespv1l2_2023-11-30_12h50.21.671.wav;142.38228509994224;;None;142.38228509994224;142.38228509994224;142.38228509994224;142.38228509994224;142.38228509994224;142.38228509994224;[1.1710039998870343, 1.3035629999358207, 1.7440495998598635, 1.925477499840781];;;;;;190102;001;2023-11-30_12h48.08.240;REPSWITCH1_version1_list2;2022.2.4;143.93169568334432;
REPSWITCH1/PICTURE_19.png;pavo;speak;gold;switch;2;T;1;3;2;1;Stim5_Set1;0;None;26;25;26;0;25;25;25;;;;;;;;;;;;;;;;;;;;;;;142.88226379989646;143.93795859999955;143.93795859999955;143.93795859999955;143.93795859999955;143.93795859999955;143.93795859999955;143.93795859999955;143.93795859999955;None;0;;C:\2023\REPSWITCH21092023\REPSWITCH_excgange\REPSWITCH_excgange\data/190102_REPSWITCH1_version1_list2_2023-11-30_12h48.08.240_micRespv1l2_recorded\recording_micRespv1l2_2023-11-30_12h50.26.255.wav;146.9661208000034;;None;146.9661208000034;146.9661208000034;146.9661208000034;146.9661208000034;146.9661208000034;146.9661208000034;;;;;;;190102;001;2023-11-30_12h48.08.240;REPSWITCH1_version1_list2;2022.2.4;143.93169568334432;
REPSWITCH1/PICTURE_142.png;vaso;speak;gold;filler;2;F;2;3;2;1;Stim7_Set1;0;None;27;26;27;0;26;26;26;;;;;;;;;;;;;;;;;;;;;;;147.46620739996433;148.65387609996833;148.65387609996833;148.65387609996833;148.65387609996833;148.65387609996833;148.65387609996833;148.65387609996833;148.65387609996833;None;0;;C:\2023\REPSWITCH21092023\REPSWITCH_excgange\REPSWITCH_excgange\data/190102_REPSWITCH1_version1_list2_2023-11-30_12h48.08.240_micRespv1l2_recorded\recording_micRespv1l2_2023-11-30_12h50.30.971.wav;151.67505889991298;152.17516529979184;None;151.67505889991298;151.67505889991298;151.67505889991298;151.67505889991298;151.67505889991298;151.67505889991298;;;;;;;190102;001;2023-11-30_12h48.08.240;REPSWITCH1_version1_list2;2022.2.4;143.93169568334432;
REPSWITCH1/PICTURE_135.png;traje;type;darkblue;filler;1;F;2;3;2;1;Stim3_Set1;0;None;28;27;28;0;27;27;27;;;;;;;;;;;;;;;;;;;;;;;152.17516529979184;153.2517130000051;153.2517130000051;153.2517130000051;153.2517130000051;153.2517130000051;153.2517130000051;153.2517130000051;153.2517130000051;['t', 'r', 'a', 'j', 'e'];0;traje;C:\2023\REPSWITCH21092023\REPSWITCH_excgange\REPSWITCH_excgange\data/190102_REPSWITCH1_version1_list2_2023-11-30_12h48.08.240_micRespv1l2_recorded\recording_micRespv1l2_2023-11-30_12h50.35.568.wav;156.27295769983903;156.7729445998557;None;156.27295769983903;156.27295769983903;156.27295769983903;156.27295769983903;156.27295769983903;156.27295769983903;[1.142433299915865, 1.285617700079456, 1.406508200103417, 1.6837814999744296, 1.8263000999577343];;;;;;190102;001;2023-11-30_12h48.08.240;REPSWITCH1_version1_list2;2022.2.4;143.93169568334432;
REPSWITCH1/PICTURE_446.png;cerdo;type;darkblue;nontarget;1;NT;2;3;2;1;Stim7_Set2;0;None;29;28;29;0;28;28;28;;;;;;;;;;;;;;;;;;;;;;;156.7729445998557;157.9606569998432;157.9606569998432;157.9606569998432;157.9606569998432;157.9606569998432;157.9606569998432;157.9606569998432;157.9606569998432;['c', 'e', 'r', 'd', 'o'];0;cerdo;C:\2023\REPSWITCH21092023\REPSWITCH_excgange\REPSWITCH_excgange\data/190102_REPSWITCH1_version1_list2_2023-11-30_12h48.08.240_micRespv1l2_recorded\recording_micRespv1l2_2023-11-30_12h50.40.278.wav;160.9888107997831;;None;160.9888107997831;160.9888107997831;160.9888107997831;160.9888107997831;160.9888107997831;160.9888107997831;[1.1891188998706639, 1.3518989998847246, 1.531589499907568, 1.737948999973014, 1.8565110999625176];;;;;;190102;001;2023-11-30_12h48.08.240;REPSWITCH1_version1_list2;2022.2.4;143.93169568334432;
REPSWITCH1/PICTURE_446.png;cerdo;type;darkblue;repeat;1;T;2;3;2;1;Stim7_Set2;0;None;30;29;30;0;29;29;29;;;;;;;;;;;;;;;;;;;;;;;161.48885419988073;162.50288299983367;162.50288299983367;162.50288299983367;162.50288299983367;162.50288299983367;162.50288299983367;162.50288299983367;162.50288299983367;['c', 'e', 'r', 'd', 'o'];0;cerdo;C:\2023\REPSWITCH21092023\REPSWITCH_excgange\REPSWITCH_excgange\data/190102_REPSWITCH1_version1_list2_2023-11-30_12h48.08.240_micRespv1l2_recorded\recording_micRespv1l2_2023-11-30_12h50.44.820.wav;165.53113509994;;None;165.53113509994;165.53113509994;165.53113509994;165.53113509994;165.53113509994;165.53113509994;[1.0421196001116186, 1.241470400011167, 1.3958394001238048, 1.5988479000516236, 1.7523668000940233];;;;;;190102;001;2023-11-30_12h48.08.240;REPSWITCH1_version1_list2;2022.2.4;143.93169568334432;
REPSWITCH1/PICTURE_16.png;cazador;speak;gold;filler;2;F;2;3;2;1;Stim6_Set1;0;None;31;30;31;0;30;30;30;;;;;;;;;;;;;;;;;;;;;;;166.0312010999769;167.156344599789;167.156344599789;167.156344599789;167.156344599789;167.156344599789;167.156344599789;167.156344599789;167.156344599789;None;0;;C:\2023\REPSWITCH21092023\REPSWITCH_excgange\REPSWITCH_excgange\data/190102_REPSWITCH1_version1_list2_2023-11-30_12h48.08.240_micRespv1l2_recorded\recording_micRespv1l2_2023-11-30_12h50.49.473.wav;170.17749069980346;170.67766119982116;None;170.17749069980346;170.17749069980346;170.17749069980346;170.17749069980346;170.17749069980346;170.17749069980346;;;;;;;190102;001;2023-11-30_12h48.08.240;REPSWITCH1_version1_list2;2022.2.4;143.93169568334432;
REPSWITCH1/PICTURE_552.png;manzana;type;darkblue;nontarget;1;NT;2;3;2;1;Stim6_Set2;1;switch;32;31;32;0;31;31;31;;;;;;;;;;;;;;;;;;;;;;;170.67766119982116;171.8096787999384;171.8096787999384;171.8096787999384;171.8096787999384;171.8096787999384;171.8096787999384;171.8096787999384;171.8096787999384;['f', 'e', 's', 'a'];0;fesa;C:\2023\REPSWITCH21092023\REPSWITCH_excgange\REPSWITCH_excgange\data/190102_REPSWITCH1_version1_list2_2023-11-30_12h48.08.240_micRespv1l2_recorded\recording_micRespv1l2_2023-11-30_12h50.54.126.wav;174.8309484999627;175.33101909980178;None;174.8309484999627;174.8309484999627;174.8309484999627;174.8309484999627;174.8309484999627;174.8309484999627;[1.1205543999094516, 1.59911990002729, 1.7739478999283165, 1.872664999915287];;;;;;190102;001;2023-11-30_12h48.08.240;REPSWITCH1_version1_list2;2022.2.4;143.93169568334432;
REPSWITCH1/PICTURE_552.png;manzana;type;darkblue;repeat;1;T;2;3;2;1;Stim6_Set2;0;None;33;32;33;0;32;32;32;;;;;;;;;;;;;;;;;;;;;;;175.33101909980178;176.35889949998818;176.35889949998818;176.35889949998818;176.35889949998818;176.35889949998818;176.35889949998818;176.35889949998818;176.35889949998818;['m', 'a', 'n', 'z', 'a', 'n', 'a'];0;manzana;C:\2023\REPSWITCH21092023\REPSWITCH_excgange\REPSWITCH_excgange\data/190102_REPSWITCH1_version1_list2_2023-11-30_12h48.08.240_micRespv1l2_recorded\recording_micRespv1l2_2023-11-30_12h50.58.676.wav;179.38702629995532;;None;179.38702629995532;179.38702629995532;179.38702629995532;179.38702629995532;179.38702629995532;179.38702629995532;[0.6455304999835789, 0.8013324998319149, 0.9121778998523951, 1.1095186998136342, 1.2490518998820335, 1.3280660000164062, 1.404217999894172];;;;;;190102;001;2023-11-30_12h48.08.240;REPSWITCH1_version1_list2;2022.2.4;143.93169568334432;
REPSWITCH1/PICTURE_517.png;cuerda;type;darkblue;nontarget;1;NT;2;3;2;1;Stim4_Set2;0;None;34;33;34;0;33;33;33;;;;;;;;;;;;;;;;;;;;;;;179.88712469977327;181.0608691999223;181.0608691999223;181.0608691999223;181.0608691999223;181.0608691999223;181.0608691999223;181.0608691999223;181.0608691999223;['c', 'u', 'e', 'r', 'd', 'a'];0;cuerda;C:\2023\REPSWITCH21092023\REPSWITCH_excgange\REPSWITCH_excgange\data/190102_REPSWITCH1_version1_list2_2023-11-30_12h48.08.240_micRespv1l2_recorded\recording_micRespv1l2_2023-11-30_12h51.03.377.wav;184.08212039992213;184.58216869994067;None;184.08212039992213;184.08212039992213;184.08212039992213;184.08212039992213;184.08212039992213;184.08212039992213;[1.011663099983707, 1.286987700033933, 1.4504650000017136, 1.5951209000777453, 1.8092087002005428, 1.8968766001053154];;;;;;190102;001;2023-11-30_12h48.08.240;REPSWITCH1_version1_list2;2022.2.4;143.93169568334432;
REPSWITCH1/PICTURE_517.png;cuerda;speak;gold;switch;2;T;2;3;2;1;Stim4_Set2;0;None;35;34;35;0;34;34;34;;;;;;;;;;;;;;;;;;;;;;;184.58216869994067;185.60312399989925;185.60312399989925;185.60312399989925;185.60312399989925;185.60312399989925;185.60312399989925;185.60312399989925;185.60312399989925;None;0;;C:\2023\REPSWITCH21092023\REPSWITCH_excgange\REPSWITCH_excgange\data/190102_REPSWITCH1_version1_list2_2023-11-30_12h48.08.240_micRespv1l2_recorded\recording_micRespv1l2_2023-11-30_12h51.07.920.wav;188.6313076999504;;None;188.6313076999504;188.6313076999504;188.6313076999504;188.6313076999504;188.6313076999504;188.6313076999504;;;;;;;190102;001;2023-11-30_12h48.08.240;REPSWITCH1_version1_list2;2022.2.4;143.93169568334432;
REPSWITCH1/PICTURE_169.png;espalda;speak;gold;filler;2;F;2;3;2;1;Stim8_Set1;1;repeat;36;35;36;0;35;35;35;;;;;;;;;;;;;;;;;;;;;;;189.13139120000415;190.24270509998314;190.24270509998314;190.24270509998314;190.24270509998314;190.24270509998314;190.24270509998314;190.24270509998314;190.24270509998314;None;0;;C:\2023\REPSWITCH21092023\REPSWITCH_excgange\REPSWITCH_excgange\data/190102_REPSWITCH1_version1_list2_2023-11-30_12h48.08.240_micRespv1l2_recorded\recording_micRespv1l2_2023-11-30_12h51.12.559.wav;193.26383859990165;193.76393849984743;None;193.26383859990165;193.26383859990165;193.26383859990165;193.26383859990165;193.26383859990165;193.26383859990165;;;;;;;190102;001;2023-11-30_12h48.08.240;REPSWITCH1_version1_list2;2022.2.4;143.93169568334432;
REPSWITCH1/PICTURE_30.png;granja;speak;gold;nontarget;2;NT;2;3;2;1;Stim5_Set2;1;repeat;37;36;37;0;36;36;36;;;;;;;;;;;;;;;;;;;;;;;193.76393849984743;194.9098938999232;194.9098938999232;194.9098938999232;194.9098938999232;194.9098938999232;194.9098938999232;194.9098938999232;194.9098938999232;None;0;;C:\2023\REPSWITCH21092023\REPSWITCH_excgange\REPSWITCH_excgange\data/190102_REPSWITCH1_version1_list2_2023-11-30_12h48.08.240_micRespv1l2_recorded\recording_micRespv1l2_2023-11-30_12h51.17.228.wav;197.93809999991208;;None;197.93809999991208;197.93809999991208;197.93809999991208;197.93809999991208;197.93809999991208;197.93809999991208;;;;;;;190102;001;2023-11-30_12h48.08.240;REPSWITCH1_version1_list2;2022.2.4;143.93169568334432;
REPSWITCH1/PICTURE_30.png;granja;type;darkblue;switch;1;T;2;3;2;1;Stim5_Set2;0;None;38;37;38;0;37;37;37;;;;;;;;;;;;;;;;;;;;;;;198.4381625999231;199.47993769985624;199.47993769985624;199.47993769985624;199.47993769985624;199.47993769985624;199.47993769985624;199.47993769985624;199.47993769985624;['g', 'r', 'a', 'n', 'j', 'a'];0;granja;C:\2023\REPSWITCH21092023\REPSWITCH_excgange\REPSWITCH_excgange\data/190102_REPSWITCH1_version1_list2_2023-11-30_12h48.08.240_micRespv1l2_recorded\recording_micRespv1l2_2023-11-30_12h51.21.797.wav;202.5081435998436;;None;202.5081435998436;202.5081435998436;202.5081435998436;202.5081435998436;202.5081435998436;202.5081435998436;[1.1774287999141961, 1.353821599856019, 1.552285599987954, 1.7878050999715924, 1.9582231999374926, 2.01744329999201];;;;;;190102;001;2023-11-30_12h48.08.240;REPSWITCH1_version1_list2;2022.2.4;143.93169568334432;
REPSWITCH1/PICTURE_128.png;muñeca;type;darkblue;filler;1;F;2;3;2;1;Stim4_Set1;1;repeat;39;38;39;0;38;38;38;;;;;;;;;;;;;;;;;;;;;;;203.00820609997027;204.02918009995483;204.02918009995483;204.02918009995483;204.02918009995483;204.02918009995483;204.02918009995483;204.02918009995483;204.02918009995483;['m', 'u', 'ñ', 'e', 'c', 'a'];0;muñeca;C:\2023\REPSWITCH21092023\REPSWITCH_excgange\REPSWITCH_excgange\data/190102_REPSWITCH1_version1_list2_2023-11-30_12h48.08.240_micRespv1l2_recorded\recording_micRespv1l2_2023-11-30_12h51.26.346.wav;207.05735469982028;;None;207.05735469982028;207.05735469982028;207.05735469982028;207.05735469982028;207.05735469982028;207.05735469982028;[0.9499071000609547, 1.1613749999087304, 1.6887753000482917, 1.8303626999258995, 2.351873500039801, 2.441568400012329];;;;;;190102;001;2023-11-30_12h48.08.240;REPSWITCH1_version1_list2;2022.2.4;143.93169568334432;
REPSWITCH1/PICTURE_199.png;falda;type;darkblue;nontarget;1;NT;2;3;2;1;Stim8_Set2;0;None;40;39;40;0;39;39;39;;;;;;;;;;;;;;;;;;;;;;;207.5574122997932;208.571476199897;208.571476199897;208.571476199897;208.571476199897;208.571476199897;208.571476199897;208.571476199897;208.571476199897;['f', 'a', 'l', 'd', 'a'];0;falda;C:\2023\REPSWITCH21092023\REPSWITCH_excgange\REPSWITCH_excgange\data/190102_REPSWITCH1_version1_list2_2023-11-30_12h48.08.240_micRespv1l2_recorded\recording_micRespv1l2_2023-11-30_12h51.30.888.wav;211.59267709986307;212.09272109996527;None;211.59267709986307;211.59267709986307;211.59267709986307;211.59267709986307;211.59267709986307;211.59267709986307;[1.1310511999763548, 1.2426603001076728, 1.5486502998974174, 1.8117633000947535, 1.875567700015381];;;;;;190102;001;2023-11-30_12h48.08.240;REPSWITCH1_version1_list2;2022.2.4;143.93169568334432;
REPSWITCH1/PICTURE_199.png;falda;speak;gold;switch;2;T;2;3;2;1;Stim8_Set2;0;None;41;40;41;0;40;40;40;;;;;;;;;;;;;;;;;;;;;;;212.09272109996527;213.20400529983453;213.20400529983453;213.20400529983453;213.20400529983453;213.20400529983453;213.20400529983453;213.20400529983453;213.20400529983453;None;0;;C:\2023\REPSWITCH21092023\REPSWITCH_excgange\REPSWITCH_excgange\data/190102_REPSWITCH1_version1_list2_2023-11-30_12h48.08.240_micRespv1l2_recorded\recording_micRespv1l2_2023-11-30_12h51.35.521.wav;216.23215359984897;;None;216.23215359984897;216.23215359984897;216.23215359984897;216.23215359984897;216.23215359984897;216.23215359984897;;;;;;;190102;001;2023-11-30_12h48.08.240;REPSWITCH1_version1_list2;2022.2.4;143.93169568334432;
REPSWITCH1/PICTURE_152.png;caracol;speak;gold;nontarget;2;NT;2;3;2;1;Stim2_Set2;1;switch;42;41;42;0;41;41;41;;;;;;;;;;;;;;;;;;;;;;;216.73222289979458;217.85738629987463;217.85738629987463;217.85738629987463;217.85738629987463;217.85738629987463;217.85738629987463;217.85738629987463;217.85738629987463;None;0;;C:\2023\REPSWITCH21092023\REPSWITCH_excgange\REPSWITCH_excgange\data/190102_REPSWITCH1_version1_list2_2023-11-30_12h48.08.240_micRespv1l2_recorded\recording_micRespv1l2_2023-11-30_12h51.40.174.wav;220.88553119986318;;None;220.88553119986318;220.88553119986318;220.88553119986318;220.88553119986318;220.88553119986318;220.88553119986318;;;;;;;190102;001;2023-11-30_12h48.08.240;REPSWITCH1_version1_list2;2022.2.4;143.93169568334432;
REPSWITCH1/PICTURE_152.png;caracol;speak;gold;repeat;2;T;2;3;2;1;Stim2_Set2;0;None;43;42;43;0;42;42;42;;;;;;;;;;;;;;;;;;;;;;;221.38559869979508;222.4343975998927;222.4343975998927;222.4343975998927;222.4343975998927;222.4343975998927;222.4343975998927;222.4343975998927;222.4343975998927;None;0;;C:\2023\REPSWITCH21092023\REPSWITCH_excgange\REPSWITCH_excgange\data/190102_REPSWITCH1_version1_list2_2023-11-30_12h48.08.240_micRespv1l2_recorded\recording_micRespv1l2_2023-11-30_12h51.44.751.wav;225.46253619994968;;None;225.46253619994968;225.46253619994968;225.46253619994968;225.46253619994968;225.46253619994968;225.46253619994968;;;;;;;190102;001;2023-11-30_12h48.08.240;REPSWITCH1_version1_list2;2022.2.4;143.93169568334432;
REPSWITCH1/PICTURE_381.png;fresa;type;darkblue;filler;1;F;2;3;2;1;Stim2_Set1;0;None;44;43;44;0;43;43;43;;;;;;;;;;;;;;;;;;;;;;;225.96260599978268;227.03219059994444;227.03219059994444;227.03219059994444;227.03219059994444;227.03219059994444;227.03219059994444;227.03219059994444;227.03219059994444;['f', 'r', 's', 'a', 'backspace', 'backspace'];0;fr;C:\2023\REPSWITCH21092023\REPSWITCH_excgange\REPSWITCH_excgange\data/190102_REPSWITCH1_version1_list2_2023-11-30_12h48.08.240_micRespv1l2_recorded\recording_micRespv1l2_2023-11-30_12h51.49.349.wav;230.06036559981294;;None;230.06036559981294;230.06036559981294;230.06036559981294;230.06036559981294;230.06036559981294;230.06036559981294;[1.493874300038442, 1.6675078000407666, 1.9678134999703616, 2.1202884998638183, 2.663612100062892, 2.8032500999979675];;;;;;190102;001;2023-11-30_12h48.08.240;REPSWITCH1_version1_list2;2022.2.4;143.93169568334432;
REPSWITCH1/PICTURE_175.png;pintor;speak;gold;nontarget;2;NT;2;3;2;1;Stim1_Set2;1;switch;45;44;45;0;44;44;44;;;;;;;;;;;;;;;;;;;;;;;230.56041479995474;231.66473449999467;231.66473449999467;231.66473449999467;231.66473449999467;231.66473449999467;231.66473449999467;231.66473449999467;231.66473449999467;None;0;;C:\2023\REPSWITCH21092023\REPSWITCH_excgange\REPSWITCH_excgange\data/190102_REPSWITCH1_version1_list2_2023-11-30_12h48.08.240_micRespv1l2_recorded\recording_micRespv1l2_2023-11-30_12h51.53.982.wav;234.6928829997778;;None;234.6928829997778;234.6928829997778;234.6928829997778;234.6928829997778;234.6928829997778;234.6928829997778;;;;;;;190102;001;2023-11-30_12h48.08.240;REPSWITCH1_version1_list2;2022.2.4;143.93169568334432;
REPSWITCH1/PICTURE_175.png;pintor;speak;gold;repeat;2;T;2;3;2;1;Stim1_Set2;0;None;46;45;46;0;45;45;45;;;;;;;;;;;;;;;;;;;;;;;235.192939999979;236.28341069980524;236.28341069980524;236.28341069980524;236.28341069980524;236.28341069980524;236.28341069980524;236.28341069980524;236.28341069980524;None;0;;C:\2023\REPSWITCH21092023\REPSWITCH_excgange\REPSWITCH_excgange\data/190102_REPSWITCH1_version1_list2_2023-11-30_12h48.08.240_micRespv1l2_recorded\recording_micRespv1l2_2023-11-30_12h51.58.600.wav;239.30459650000557;239.8046905999072;None;239.30459650000557;239.30459650000557;239.30459650000557;239.30459650000557;239.30459650000557;239.30459650000557;;;;;;;190102;001;2023-11-30_12h48.08.240;REPSWITCH1_version1_list2;2022.2.4;143.93169568334432;
REPSWITCH1/PICTURE_178.png;puente;type;darkblue;filler;1;F;2;3;2;1;Stim1_Set1;0;None;47;46;47;0;46;46;46;;;;;;;;;;;;;;;;;;;;;;;239.8046905999072;240.95069359987974;240.95069359987974;240.95069359987974;240.95069359987974;240.95069359987974;240.95069359987974;240.95069359987974;240.95069359987974;['p', 'u', 'e', 'n', 't', 'e'];0;puente;C:\2023\REPSWITCH21092023\REPSWITCH_excgange\REPSWITCH_excgange\data/190102_REPSWITCH1_version1_list2_2023-11-30_12h48.08.240_micRespv1l2_recorded\recording_micRespv1l2_2023-11-30_12h52.03.268.wav;243.97880849987268;;None;243.97880849987268;243.97880849987268;243.97880849987268;243.97880849987268;243.97880849987268;243.97880849987268;[0.9640840000938624, 1.4749292000196874, 1.6003932999446988, 1.7020118001382798, 1.887448800029233, 1.9392246000934392];;;;;;190102;001;2023-11-30_12h48.08.240;REPSWITCH1_version1_list2;2022.2.4;143.93169568334432;
REPSWITCH1/PICTURE_19.png;pavo;speak;gold;filler;2;F;2;3;2;1;Stim5_Set1;0;None;48;47;48;0;47;47;47;;;;;;;;;;;;;;;;;;;;;;;244.47890759981237;245.55547779984772;245.55547779984772;245.55547779984772;245.55547779984772;245.55547779984772;245.55547779984772;245.55547779984772;245.55547779984772;None;0;;C:\2023\REPSWITCH21092023\REPSWITCH_excgange\REPSWITCH_excgange\data/190102_REPSWITCH1_version1_list2_2023-11-30_12h48.08.240_micRespv1l2_recorded\recording_micRespv1l2_2023-11-30_12h52.07.873.wav;248.57664159988053;249.07671629986726;None;248.57664159988053;248.57664159988053;248.57664159988053;248.57664159988053;248.57664159988053;248.57664159988053;;;;;;;190102;001;2023-11-30_12h48.08.240;REPSWITCH1_version1_list2;2022.2.4;143.93169568334432;
REPSWITCH1/PICTURE_264.png;mano;speak;gold;nontarget;2;NT;2;3;2;1;Stim3_Set2;1;repeat;49;48;49;0;48;48;48;;;;;;;;;;;;;;;;;;;;;;;249.07671629986726;250.16022659977898;250.16022659977898;250.16022659977898;250.16022659977898;250.16022659977898;250.16022659977898;250.16022659977898;250.16022659977898;None;0;;C:\2023\REPSWITCH21092023\REPSWITCH_excgange\REPSWITCH_excgange\data/190102_REPSWITCH1_version1_list2_2023-11-30_12h48.08.240_micRespv1l2_recorded\recording_micRespv1l2_2023-11-30_12h52.12.477.wav;253.18145199981518;253.68150729988702;None;253.18145199981518;253.18145199981518;253.18145199981518;253.18145199981518;253.18145199981518;253.18145199981518;;;;;;;190102;001;2023-11-30_12h48.08.240;REPSWITCH1_version1_list2;2022.2.4;143.93169568334432;
REPSWITCH1/PICTURE_264.png;mano;type;darkblue;switch;1;T;2;3;2;1;Stim3_Set2;0;None;50;49;50;0;49;49;49;;;;;;;;;;;;;;;;;;;;;;;253.68150729988702;254.7511540998239;254.7511540998239;254.7511540998239;254.7511540998239;254.7511540998239;254.7511540998239;254.7511540998239;254.7511540998239;['m', 'a', 'n', 'o'];0;mano;C:\2023\REPSWITCH21092023\REPSWITCH_excgange\REPSWITCH_excgange\data/190102_REPSWITCH1_version1_list2_2023-11-30_12h48.08.240_micRespv1l2_recorded\recording_micRespv1l2_2023-11-30_12h52.17.068.wav;257.77239959989674;258.2723965998739;None;257.77239959989674;257.77239959989674;257.77239959989674;257.77239959989674;257.77239959989674;257.77239959989674;[0.9901272000279278, 1.1814812999218702, 1.2861283998936415, 1.4956813999451697];;;;;;190102;001;2023-11-30_12h48.08.240;REPSWITCH1_version1_list2;2022.2.4;143.93169568334432;
REPSWITCH1/PICTURE_446.png;cerdo;type;darkblue;filler;1;F;3;3;2;1;Stim7_Set2;0;None;51;50;51;0;50;50;50;;;;;;;;;;;;;;;;;;;;;;;258.2723965998739;259.3211644999683;259.3211644999683;259.3211644999683;259.3211644999683;259.3211644999683;259.3211644999683;259.3211644999683;259.3211644999683;['c', 'e', 'r', 'd', 'o'];0;cerdo;C:\2023\REPSWITCH21092023\REPSWITCH_excgange\REPSWITCH_excgange\data/190102_REPSWITCH1_version1_list2_2023-11-30_12h48.08.240_micRespv1l2_recorded\recording_micRespv1l2_2023-11-30_12h52.21.637.wav;262.34237219998613;262.8424986999016;space;262.34237219998613;262.34237219998613;262.34237219998613;262.34237219998613;262.34237219998613;262.34237219998613;[0.8717710999771953, 1.087873199954629, 1.2871113999281079, 1.6434750000480562, 1.747585300123319];262.8424986999016;262.8424986999016;9.07245590002276;;;190102;001;2023-11-30_12h48.08.240;REPSWITCH1_version1_list2;2022.2.4;143.93169568334432;
REPSWITCH1/PICTURE_235.png;aguja;type;darkblue;nontarget;1;NT;3;3;2;1;Stim4_Set3;1;repeat;52;51;52;0;51;51;51;;;;;;;;;;;;;;;;;;;;;;;271.926935599884;273.1076609999873;273.1076609999873;273.1076609999873;273.1076609999873;273.1076609999873;273.1076609999873;273.1076609999873;273.1076609999873;['a', 'g', 'u', 'j', 'a'];0;aguja;C:\2023\REPSWITCH21092023\REPSWITCH_excgange\REPSWITCH_excgange\data/190102_REPSWITCH1_version1_list2_2023-11-30_12h48.08.240_micRespv1l2_recorded\recording_micRespv1l2_2023-11-30_12h52.35.423.wav;276.128897999879;276.6290161998477;None;276.128897999879;276.128897999879;276.128897999879;276.128897999879;276.128897999879;276.128897999879;[1.470012999838218, 1.9442375998478383, 2.1551806998904794, 2.4771350999362767, 2.5678365998901427];;;;;;190102;001;2023-11-30_12h48.08.240;REPSWITCH1_version1_list2;2022.2.4;143.93169568334432;
REPSWITCH1/PICTURE_235.png;aguja;speak;gold;switch;2;T;3;3;2;1;Stim4_Set3;0;None;53;52;53;0;52;52;52;;;;;;;;;;;;;;;;;;;;;;;276.6290161998477;277.6916711998638;277.6916711998638;277.6916711998638;277.6916711998638;277.6916711998638;277.6916711998638;277.6916711998638;277.6916711998638;None;0;;C:\2023\REPSWITCH21092023\REPSWITCH_excgange\REPSWITCH_excgange\data/190102_REPSWITCH1_version1_list2_2023-11-30_12h48.08.240_micRespv1l2_recorded\recording_micRespv1l2_2023-11-30_12h52.40.008.wav;280.7128801997751;281.2128724998329;None;280.7128801997751;280.7128801997751;280.7128801997751;280.7128801997751;280.7128801997751;280.7128801997751;;;;;;;190102;001;2023-11-30_12h48.08.240;REPSWITCH1_version1_list2;2022.2.4;143.93169568334432;
REPSWITCH1/PICTURE_552.png;manzana;speak;gold;filler;2;F;3;3;2;1;Stim6_Set2;0;None;54;53;54;0;53;53;53;;;;;;;;;;;;;;;;;;;;;;;281.2128724998329;282.3172631999478;282.3172631999478;282.3172631999478;282.3172631999478;282.3172631999478;282.3172631999478;282.3172631999478;282.3172631999478;None;0;;C:\2023\REPSWITCH21092023\REPSWITCH_excgange\REPSWITCH_excgange\data/190102_REPSWITCH1_version1_list2_2023-11-30_12h48.08.240_micRespv1l2_recorded\recording_micRespv1l2_2023-11-30_12h52.44.634.wav;285.3453842999879;;None;285.3453842999879;285.3453842999879;285.3453842999879;285.3453842999879;285.3453842999879;285.3453842999879;;;;;;;190102;001;2023-11-30_12h48.08.240;REPSWITCH1_version1_list2;2022.2.4;143.93169568334432;
REPSWITCH1/PICTURE_271.png;conejo;speak;gold;nontarget;2;NT;3;3;2;1;Stim7_Set3;1;repeat;55;54;55;0;54;54;54;;;;;;;;;;;;;;;;;;;;;;;285.8454347997904;287.07483209995553;287.07483209995553;287.07483209995553;287.07483209995553;287.07483209995553;287.07483209995553;287.07483209995553;287.07483209995553;None;0;;C:\2023\REPSWITCH21092023\REPSWITCH_excgange\REPSWITCH_excgange\data/190102_REPSWITCH1_version1_list2_2023-11-30_12h48.08.240_micRespv1l2_recorded\recording_micRespv1l2_2023-11-30_12h52.49.391.wav;290.09601129987277;290.59605749999173;None;290.09601129987277;290.09601129987277;290.09601129987277;290.09601129987277;290.09601129987277;290.09601129987277;;;;;;;190102;001;2023-11-30_12h48.08.240;REPSWITCH1_version1_list2;2022.2.4;143.93169568334432;
REPSWITCH1/PICTURE_271.png;conejo;type;darkblue;switch;1;T;3;3;2;1;Stim7_Set3;0;None;56;55;56;0;55;55;55;;;;;;;;;;;;;;;;;;;;;;;290.59605749999173;291.6865397999063;291.6865397999063;291.6865397999063;291.6865397999063;291.6865397999063;291.6865397999063;291.6865397999063;291.6865397999063;['c', 'o', 'n', 'e', 'j', 'o'];0;conejo;C:\2023\REPSWITCH21092023\REPSWITCH_excgange\REPSWITCH_excgange\data/190102_REPSWITCH1_version1_list2_2023-11-30_12h48.08.240_micRespv1l2_recorded\recording_micRespv1l2_2023-11-30_12h52.54.003.wav;294.7146592999343;;None;294.7146592999343;294.7146592999343;294.7146592999343;294.7146592999343;294.7146592999343;294.7146592999343;[0.9965105999726802, 1.132697300054133, 1.3815258999820799, 1.5322893999982625, 1.6657976999413222, 1.824429600033909];;;;;;190102;001;2023-11-30_12h48.08.240;REPSWITCH1_version1_list2;2022.2.4;143.93169568334432;
REPSWITCH1/PICTURE_610.png;miel;type;darkblue;nontarget;1;NT;3;3;2;1;Stim2_Set3;1;repeat;57;56;57;0;56;56;56;;;;;;;;;;;;;;;;;;;;;;;295.21470439992845;296.36772320000455;296.36772320000455;296.36772320000455;296.36772320000455;296.36772320000455;296.36772320000455;296.36772320000455;296.36772320000455;['m', 'i', 'e', 'l'];0;miel;C:\2023\REPSWITCH21092023\REPSWITCH_excgange\REPSWITCH_excgange\data/190102_REPSWITCH1_version1_list2_2023-11-30_12h48.08.240_micRespv1l2_recorded\recording_micRespv1l2_2023-11-30_12h52.58.684.wav;299.39580819988623;;None;299.39580819988623;299.39580819988623;299.39580819988623;299.39580819988623;299.39580819988623;299.39580819988623;[0.9369389000348747, 1.1275739001575857, 1.276398700196296, 1.4468149000313133];;;;;;190102;001;2023-11-30_12h48.08.240;REPSWITCH1_version1_list2;2022.2.4;143.93169568334432;
REPSWITCH1/PICTURE_610.png;miel;speak;gold;switch;2;T;3;3;2;1;Stim2_Set3;0;None;58;57;58;0;57;57;57;;;;;;;;;;;;;;;;;;;;;;;299.8959738998674;301.0557579000015;301.0557579000015;301.0557579000015;301.0557579000015;301.0557579000015;301.0557579000015;301.0557579000015;301.0557579000015;None;0;;C:\2023\REPSWITCH21092023\REPSWITCH_excgange\REPSWITCH_excgange\data/190102_REPSWITCH1_version1_list2_2023-11-30_12h48.08.240_micRespv1l2_recorded\recording_micRespv1l2_2023-11-30_12h53.03.372.wav;304.0839268998243;;None;304.0839268998243;304.0839268998243;304.0839268998243;304.0839268998243;304.0839268998243;304.0839268998243;;;;;;;190102;001;2023-11-30_12h48.08.240;REPSWITCH1_version1_list2;2022.2.4;143.93169568334432;
REPSWITCH1/PICTURE_199.png;falda;type;darkblue;filler;1;F;3;3;2;1;Stim8_Set2;0;None;59;58;59;0;58;58;58;;;;;;;;;;;;;;;;;;;;;;;304.58408719999716;305.6606016999576;305.6606016999576;305.6606016999576;305.6606016999576;305.6606016999576;305.6606016999576;305.6606016999576;305.6606016999576;['f', 'a', 'l', 'd', 'a'];0;falda;C:\2023\REPSWITCH21092023\REPSWITCH_excgange\REPSWITCH_excgange\data/190102_REPSWITCH1_version1_list2_2023-11-30_12h48.08.240_micRespv1l2_recorded\recording_micRespv1l2_2023-11-30_12h53.07.976.wav;308.6817492998671;309.1818182999268;None;308.6817492998671;308.6817492998671;308.6817492998671;308.6817492998671;308.6817492998671;308.6817492998671;[1.3494843000080436, 1.4989790001418442, 1.746300300117582, 2.0031507001258433, 2.0739114000461996];;;;;;190102;001;2023-11-30_12h48.08.240;REPSWITCH1_version1_list2;2022.2.4;143.93169568334432;
REPSWITCH1/PICTURE_464.png;goma;speak;gold;nontarget;2;NT;3;3;2;1;Stim6_Set3;1;switch;60;59;60;0;59;59;59;;;;;;;;;;;;;;;;;;;;;;;309.1818182999268;310.33475699997507;310.33475699997507;310.33475699997507;310.33475699997507;310.33475699997507;310.33475699997507;310.33475699997507;310.33475699997507;None;0;;C:\2023\REPSWITCH21092023\REPSWITCH_excgange\REPSWITCH_excgange\data/190102_REPSWITCH1_version1_list2_2023-11-30_12h48.08.240_micRespv1l2_recorded\recording_micRespv1l2_2023-11-30_12h53.12.651.wav;313.36298229987733;;None;313.36298229987733;313.36298229987733;313.36298229987733;313.36298229987733;313.36298229987733;313.36298229987733;;;;;;;190102;001;2023-11-30_12h48.08.240;REPSWITCH1_version1_list2;2022.2.4;143.93169568334432;
REPSWITCH1/PICTURE_464.png;goma;speak;gold;repeat;2;T;3;3;2;1;Stim6_Set3;0;None;61;60;61;0;60;60;60;;;;;;;;;;;;;;;;;;;;;;;313.8630146998912;314.9395260999445;314.9395260999445;314.9395260999445;314.9395260999445;314.9395260999445;314.9395260999445;314.9395260999445;314.9395260999445;None;0;;C:\2023\REPSWITCH21092023\REPSWITCH_excgange\REPSWITCH_excgange\data/190102_REPSWITCH1_version1_list2_2023-11-30_12h48.08.240_micRespv1l2_recorded\recording_micRespv1l2_2023-11-30_12h53.17.255.wav;317.9607527998742;318.4607990998775;None;317.9607527998742;317.9607527998742;317.9607527998742;317.9607527998742;317.9607527998742;317.9607527998742;;;;;;;190102;001;2023-11-30_12h48.08.240;REPSWITCH1_version1_list2;2022.2.4;143.93169568334432;
REPSWITCH1/PICTURE_152.png;caracol;type;darkblue;filler;1;F;3;3;2;1;Stim2_Set2;0;None;62;61;62;0;61;61;61;;;;;;;;;;;;;;;;;;;;;;;318.4607990998775;319.69717469997704;319.69717469997704;319.69717469997704;319.69717469997704;319.69717469997704;319.69717469997704;319.69717469997704;319.69717469997704;['c', 'a', 'r', 'a', 'c', 'o', 'l'];0;caracol;C:\2023\REPSWITCH21092023\REPSWITCH_excgange\REPSWITCH_excgange\data/190102_REPSWITCH1_version1_list2_2023-11-30_12h48.08.240_micRespv1l2_recorded\recording_micRespv1l2_2023-11-30_12h53.22.014.wav;322.71830199984834;323.2184851998463;None;322.71830199984834;322.71830199984834;322.71830199984834;322.71830199984834;322.71830199984834;322.71830199984834;[1.034373400034383, 1.1579646000172943, 1.2725458000786602, 1.3565960999112576, 1.4780687000602484, 1.8368834001012146, 1.9714335999451578];;;;;;190102;001;2023-11-30_12h48.08.240;REPSWITCH1_version1_list2;2022.2.4;143.93169568334432;
REPSWITCH1/PICTURE_320.png;iglesia;speak;gold;nontarget;2;NT;3;3;2;1;Stim8_Set3;1;switch;63;62;63;0;62;62;62;;;;;;;;;;;;;;;;;;;;;;;323.2184851998463;324.3505241998937;324.3505241998937;324.3505241998937;324.3505241998937;324.3505241998937;324.3505241998937;324.3505241998937;324.3505241998937;None;0;;C:\2023\REPSWITCH21092023\REPSWITCH_excgange\REPSWITCH_excgange\data/190102_REPSWITCH1_version1_list2_2023-11-30_12h48.08.240_micRespv1l2_recorded\recording_micRespv1l2_2023-11-30_12h53.26.667.wav;327.37169169983827;327.8717547999695;None;327.37169169983827;327.37169169983827;327.37169169983827;327.37169169983827;327.37169169983827;327.37169169983827;;;;;;;190102;001;2023-11-30_12h48.08.240;REPSWITCH1_version1_list2;2022.2.4;143.93169568334432;
REPSWITCH1/PICTURE_320.png;iglesia;speak;gold;repeat;2;T;3;3;2;1;Stim8_Set3;0;None;64;63;64;0;63;63;63;;;;;;;;;;;;;;;;;;;;;;;327.8717547999695;328.92052649986;328.92052649986;328.92052649986;328.92052649986;328.92052649986;328.92052649986;328.92052649986;328.92052649986;None;0;;C:\2023\REPSWITCH21092023\REPSWITCH_excgange\REPSWITCH_excgange\data/190102_REPSWITCH1_version1_list2_2023-11-30_12h48.08.240_micRespv1l2_recorded\recording_micRespv1l2_2023-11-30_12h53.31.237.wav;331.9418125997763;332.44181669992395;None;331.9418125997763;331.9418125997763;331.9418125997763;331.9418125997763;331.9418125997763;331.9418125997763;;;;;;;190102;001;2023-11-30_12h48.08.240;REPSWITCH1_version1_list2;2022.2.4;143.93169568334432;
REPSWITCH1/PICTURE_35.png;oreja;speak;gold;nontarget;2;NT;3;3;2;1;Stim5_Set3;0;None;65;64;65;0;64;64;64;;;;;;;;;;;;;;;;;;;;;;;332.44181669992395;333.60174659988843;333.60174659988843;333.60174659988843;333.60174659988843;333.60174659988843;333.60174659988843;333.60174659988843;333.60174659988843;None;0;;C:\2023\REPSWITCH21092023\REPSWITCH_excgange\REPSWITCH_excgange\data/190102_REPSWITCH1_version1_list2_2023-11-30_12h48.08.240_micRespv1l2_recorded\recording_micRespv1l2_2023-11-30_12h53.35.918.wav;336.6229134998284;337.12306799995713;None;336.6229134998284;336.6229134998284;336.6229134998284;336.6229134998284;336.6229134998284;336.6229134998284;;;;;;;190102;001;2023-11-30_12h48.08.240;REPSWITCH1_version1_list2;2022.2.4;143.93169568334432;
REPSWITCH1/PICTURE_35.png;oreja;type;darkblue;switch;1;T;3;3;2;1;Stim5_Set3;0;None;66;65;66;0;65;65;65;;;;;;;;;;;;;;;;;;;;;;;337.12306799995713;338.36621349980123;338.36621349980123;338.36621349980123;338.36621349980123;338.36621349980123;338.36621349980123;338.36621349980123;338.36621349980123;['o', 'r', 'e', 'j', 'a'];0;oreja;C:\2023\REPSWITCH21092023\REPSWITCH_excgange\REPSWITCH_excgange\data/190102_REPSWITCH1_version1_list2_2023-11-30_12h48.08.240_micRespv1l2_recorded\recording_micRespv1l2_2023-11-30_12h53.40.682.wav;341.3874288999941;341.88752809981816;None;341.3874288999941;341.3874288999941;341.3874288999941;341.3874288999941;341.3874288999941;341.3874288999941;[1.0316576000768691, 1.4416322999168187, 1.5881461999379098, 1.9309648999478668, 2.0724855000153184];;;;;;190102;001;2023-11-30_12h48.08.240;REPSWITCH1_version1_list2;2022.2.4;143.93169568334432;
REPSWITCH1/PICTURE_517.png;cuerda;speak;gold;filler;2;F;3;3;2;1;Stim4_Set2;0;None;67;66;67;0;66;66;66;;;;;;;;;;;;;;;;;;;;;;;341.88752809981816;343.0057170998771;343.0057170998771;343.0057170998771;343.0057170998771;343.0057170998771;343.0057170998771;343.0057170998771;343.0057170998771;None;0;;C:\2023\REPSWITCH21092023\REPSWITCH_excgange\REPSWITCH_excgange\data/190102_REPSWITCH1_version1_list2_2023-11-30_12h48.08.240_micRespv1l2_recorded\recording_micRespv1l2_2023-11-30_12h53.45.322.wav;346.02697149990126;346.52700669993646;None;346.02697149990126;346.02697149990126;346.02697149990126;346.02697149990126;346.02697149990126;346.02697149990126;;;;;;;190102;001;2023-11-30_12h48.08.240;REPSWITCH1_version1_list2;2022.2.4;143.93169568334432;
REPSWITCH1/PICTURE_30.png;granja;type;darkblue;filler;1;F;3;3;2;1;Stim5_Set2;1;switch;68;67;68;0;67;67;67;;;;;;;;;;;;;;;;;;;;;;;346.52700669993646;347.5618681998458;347.5618681998458;347.5618681998458;347.5618681998458;347.5618681998458;347.5618681998458;347.5618681998458;347.5618681998458;['g', 'r', 'a', 'n', 'j', 'a'];0;granja;C:\2023\REPSWITCH21092023\REPSWITCH_excgange\REPSWITCH_excgange\data/190102_REPSWITCH1_version1_list2_2023-11-30_12h48.08.240_micRespv1l2_recorded\recording_micRespv1l2_2023-11-30_12h53.49.879.wav;350.59005889995024;351.090183599852;None;350.59005889995024;350.59005889995024;350.59005889995024;350.59005889995024;350.59005889995024;350.59005889995024;[1.141098199877888, 1.3094583998899907, 1.4415239000227302, 1.7319904000032693, 1.8755220999009907, 1.9493119998369366];;;;;;190102;001;2023-11-30_12h48.08.240;REPSWITCH1_version1_list2;2022.2.4;143.93169568334432;
REPSWITCH1/PICTURE_242.png;cartero;type;darkblue;nontarget;1;NT;3;3;2;1;Stim3_Set3;0;None;69;68;69;0;68;68;68;;;;;;;;;;;;;;;;;;;;;;;351.090183599852;352.1249550997745;352.1249550997745;352.1249550997745;352.1249550997745;352.1249550997745;352.1249550997745;352.1249550997745;352.1249550997745;None;0;;C:\2023\REPSWITCH21092023\REPSWITCH_excgange\REPSWITCH_excgange\data/190102_REPSWITCH1_version1_list2_2023-11-30_12h48.08.240_micRespv1l2_recorded\recording_micRespv1l2_2023-11-30_12h53.54.441.wav;355.1531707998365;;None;355.1531707998365;355.1531707998365;355.1531707998365;355.1531707998365;355.1531707998365;355.1531707998365;;;;;;;190102;001;2023-11-30_12h48.08.240;REPSWITCH1_version1_list2;2022.2.4;143.93169568334432;
REPSWITCH1/PICTURE_242.png;cartero;type;darkblue;repeat;1;T;3;3;2;1;Stim3_Set3;0;None;70;69;70;0;69;69;69;;;;;;;;;;;;;;;;;;;;;;;355.65321649983525;356.83390460000373;356.83390460000373;356.83390460000373;356.83390460000373;356.83390460000373;356.83390460000373;356.83390460000373;356.83390460000373;['c', 'a', 'r', 't', 'e', 'r', 'o'];0;cartero;C:\2023\REPSWITCH21092023\REPSWITCH_excgange\REPSWITCH_excgange\data/190102_REPSWITCH1_version1_list2_2023-11-30_12h48.08.240_micRespv1l2_recorded\recording_micRespv1l2_2023-11-30_12h53.59.150.wav;359.8551294999197;360.3552009998821;None;359.8551294999197;359.8551294999197;359.8551294999197;359.8551294999197;359.8551294999197;359.8551294999197;[0.7755704000592232, 0.882695599924773, 0.9966355001088232, 1.1560994000174105, 1.2737782001495361, 1.381783900083974, 1.7912395999301225];;;;;;190102;001;2023-11-30_12h48.08.240;REPSWITCH1_version1_list2;2022.2.4;143.93169568334432;
REPSWITCH1/PICTURE_264.png;mano;speak;gold;filler;2;F;3;3;2;1;Stim3_Set2;1;switch;71;70;71;0;70;70;70;;;;;;;;;;;;;;;;;;;;;;;360.3552009998821;361.4039852998685;361.4039852998685;361.4039852998685;361.4039852998685;361.4039852998685;361.4039852998685;361.4039852998685;361.4039852998685;None;0;;C:\2023\REPSWITCH21092023\REPSWITCH_excgange\REPSWITCH_excgange\data/190102_REPSWITCH1_version1_list2_2023-11-30_12h48.08.240_micRespv1l2_recorded\recording_micRespv1l2_2023-11-30_12h54.03.720.wav;364.4251581998542;364.9252628998365;None;364.4251581998542;364.4251581998542;364.4251581998542;364.4251581998542;364.4251581998542;364.4251581998542;;;;;;;190102;001;2023-11-30_12h48.08.240;REPSWITCH1_version1_list2;2022.2.4;143.93169568334432;
REPSWITCH1/PICTURE_576.png;guante;type;darkblue;nontarget;1;NT;3;3;2;1;Stim1_Set3;1;switch;72;71;72;0;71;71;71;;;;;;;;;;;;;;;;;;;;;;;364.9252628998365;366.02263109991327;366.02263109991327;366.02263109991327;366.02263109991327;366.02263109991327;366.02263109991327;366.02263109991327;366.02263109991327;['g', 'u', 'a', 'n', 't', 'e'];0;guante;C:\2023\REPSWITCH21092023\REPSWITCH_excgange\REPSWITCH_excgange\data/190102_REPSWITCH1_version1_list2_2023-11-30_12h48.08.240_micRespv1l2_recorded\recording_micRespv1l2_2023-11-30_12h54.08.340.wav;369.05075809988193;;None;369.05075809988193;369.05075809988193;369.05075809988193;369.05075809988193;369.05075809988193;369.05075809988193;[1.0280220001004636, 1.2052021999843419, 1.3456727000884712, 1.4503222000785172, 1.6517101000063121, 1.7693205000832677];;;;;;190102;001;2023-11-30_12h48.08.240;REPSWITCH1_version1_list2;2022.2.4;143.93169568334432;
REPSWITCH1/PICTURE_576.png;guante;type;darkblue;repeat;1;T;3;3;2;1;Stim1_Set3;0;None;73;72;73;0;72;72;72;;;;;;;;;;;;;;;;;;;;;;;369.550845899852;370.62737749982625;370.62737749982625;370.62737749982625;370.62737749982625;370.62737749982625;370.62737749982625;370.62737749982625;370.62737749982625;['g', 'u', 'a', 'n', 't', 'e'];0;guante;C:\2023\REPSWITCH21092023\REPSWITCH_excgange\REPSWITCH_excgange\data/190102_REPSWITCH1_version1_list2_2023-11-30_12h48.08.240_micRespv1l2_recorded\recording_micRespv1l2_2023-11-30_12h54.12.944.wav;373.6486283999402;374.14867869997397;None;373.6486283999402;373.6486283999402;373.6486283999402;373.6486283999402;373.6486283999402;373.6486283999402;[0.7553825001232326, 0.9327779000159353, 1.0792459000367671, 1.1559747999999672, 1.3334306001197547, 1.4435298000462353];;;;;;190102;001;2023-11-30_12h48.08.240;REPSWITCH1_version1_list2;2022.2.4;143.93169568334432;
REPSWITCH1/PICTURE_175.png;pintor;speak;gold;filler;2;F;3;3;2;1;Stim1_Set2;0;None;74;73;74;0;73;73;73;;;;;;;;;;;;;;;;;;;;;;;374.14867869997397;375.2669172999449;375.2669172999449;375.2669172999449;375.2669172999449;375.2669172999449;375.2669172999449;375.2669172999449;375.2669172999449;None;0;;C:\2023\REPSWITCH21092023\REPSWITCH_excgange\REPSWITCH_excgange\data/190102_REPSWITCH1_version1_list2_2023-11-30_12h48.08.240_micRespv1l2_recorded\recording_micRespv1l2_2023-11-30_12h54.17.583.wav;378.29506899998523;;None;378.29506899998523;378.29506899998523;378.29506899998523;378.29506899998523;378.29506899998523;378.29506899998523;;;;;;;190102;001;2023-11-30_12h48.08.240;REPSWITCH1_version1_list2;2022.2.4;143.93169568334432;
REPSWITCH1/PICTURE_498.png;taza;type;darkblue;nontarget;1;NT;4;3;2;1;Stim4_Set4;0;None;75;74;75;0;74;74;74;;;;;;;;;;;;;;;;;;;;;;;378.795135299908;379.9550500998739;379.9550500998739;379.9550500998739;379.9550500998739;379.9550500998739;379.9550500998739;379.9550500998739;379.9550500998739;['t', 'a', 'z', 'a'];0;taza;C:\2023\REPSWITCH21092023\REPSWITCH_excgange\REPSWITCH_excgange\data/190102_REPSWITCH1_version1_list2_2023-11-30_12h48.08.240_micRespv1l2_recorded\recording_micRespv1l2_2023-11-30_12h54.22.271.wav;382.9762372998521;383.47630469989963;None;382.9762372998521;382.9762372998521;382.9762372998521;382.9762372998521;382.9762372998521;382.9762372998521;[0.965321599971503, 1.0659711000043899, 1.2603266998194158, 1.3688628999516368];;;;;;190102;001;2023-11-30_12h48.08.240;REPSWITCH1_version1_list2;2022.2.4;143.93169568334432;
REPSWITCH1/PICTURE_498.png;taza;type;darkblue;repeat;1;T;4;3;2;1;Stim4_Set4;0;None;76;75;76;0;75;75;75;;;;;;;;;;;;;;;;;;;;;;;383.47630469989963;384.5597843998112;384.5597843998112;384.5597843998112;384.5597843998112;384.5597843998112;384.5597843998112;384.5597843998112;384.5597843998112;['t', 'a', 'z', 'a'];0;taza;C:\2023\REPSWITCH21092023\REPSWITCH_excgange\REPSWITCH_excgange\data/190102_REPSWITCH1_version1_list2_2023-11-30_12h48.08.240_micRespv1l2_recorded\recording_micRespv1l2_2023-11-30_12h54.26.876.wav;387.58097289991565;388.0811512998771;None;387.58097289991565;387.58097289991565;387.58097289991565;387.58097289991565;387.58097289991565;387.58097289991565;[0.7596171000041068, 0.8575088998768479, 1.0249050999991596, 1.1734420999418944];;;;;;190102;001;2023-11-30_12h48.08.240;REPSWITCH1_version1_list2;2022.2.4;143.93169568334432;
REPSWITCH1/PICTURE_235.png;aguja;speak;gold;filler;2;F;4;3;2;1;Stim4_Set3;0;None;77;76;77;0;76;76;76;;;;;;;;;;;;;;;;;;;;;;;388.0811512998771;389.2131443999242;389.2131443999242;389.2131443999242;389.2131443999242;389.2131443999242;389.2131443999242;389.2131443999242;389.2131443999242;None;0;;C:\2023\REPSWITCH21092023\REPSWITCH_excgange\REPSWITCH_excgange\data/190102_REPSWITCH1_version1_list2_2023-11-30_12h48.08.240_micRespv1l2_recorded\recording_micRespv1l2_2023-11-30_12h54.31.530.wav;392.2413455999922;;None;392.2413455999922;392.2413455999922;392.2413455999922;392.2413455999922;392.2413455999922;392.2413455999922;;;;;;;190102;001;2023-11-30_12h48.08.240;REPSWITCH1_version1_list2;2022.2.4;143.93169568334432;
REPSWITCH1/PICTURE_338.png;regalo;type;darkblue;nontarget;1;NT;4;3;2;1;Stim6_Set4;1;switch;78;77;78;0;77;77;77;;;;;;;;;;;;;;;;;;;;;;;392.7414119997993;393.85270229983144;393.85270229983144;393.85270229983144;393.85270229983144;393.85270229983144;393.85270229983144;393.85270229983144;393.85270229983144;['r', 'e', 'g', 'a', 'l', 'o'];0;regalo;C:\2023\REPSWITCH21092023\REPSWITCH_excgange\REPSWITCH_excgange\data/190102_REPSWITCH1_version1_list2_2023-11-30_12h48.08.240_micRespv1l2_recorded\recording_micRespv1l2_2023-11-30_12h54.36.170.wav;396.880822799867;;None;396.880822799867;396.880822799867;396.880822799867;396.880822799867;396.880822799867;396.880822799867;[1.0052568998653442, 1.1906769999768585, 1.4418242999818176, 1.568500299938023, 1.78775139991194, 1.8934573999140412];;;;;;190102;001;2023-11-30_12h48.08.240;REPSWITCH1_version1_list2;2022.2.4;143.93169568334432;
REPSWITCH1/PICTURE_338.png;regalo;speak;gold;switch;2;T;4;3;2;1;Stim6_Set4;0;None;79;78;79;0;78;78;78;;;;;;;;;;;;;;;;;;;;;;;397.38087989995256;398.4782490998041;398.4782490998041;398.4782490998041;398.4782490998041;398.4782490998041;398.4782490998041;398.4782490998041;398.4782490998041;None;0;;C:\2023\REPSWITCH21092023\REPSWITCH_excgange\REPSWITCH_excgange\data/190102_REPSWITCH1_version1_list2_2023-11-30_12h48.08.240_micRespv1l2_recorded\recording_micRespv1l2_2023-11-30_12h54.40.795.wav;401.5064545997884;402.00649459986016;None;401.5064545997884;401.5064545997884;401.5064545997884;401.5064545997884;401.5064545997884;401.5064545997884;;;;;;;190102;001;2023-11-30_12h48.08.240;REPSWITCH1_version1_list2;2022.2.4;143.93169568334432;
REPSWITCH1/PICTURE_719.png;baño;speak;gold;nontarget;2;NT;4;3;2;1;Stim2_Set4;1;repeat;80;79;80;0;79;79;79;;;;;;;;;;;;;;;;;;;;;;;402.00649459986016;403.1386244997848;403.1386244997848;403.1386244997848;403.1386244997848;403.1386244997848;403.1386244997848;403.1386244997848;403.1386244997848;None;0;;C:\2023\REPSWITCH21092023\REPSWITCH_excgange\REPSWITCH_excgange\data/190102_REPSWITCH1_version1_list2_2023-11-30_12h48.08.240_micRespv1l2_recorded\recording_micRespv1l2_2023-11-30_12h54.45.455.wav;406.16675779991783;;None;406.16675779991783;406.16675779991783;406.16675779991783;406.16675779991783;406.16675779991783;406.16675779991783;;;;;;;190102;001;2023-11-30_12h48.08.240;REPSWITCH1_version1_list2;2022.2.4;143.93169568334432;
REPSWITCH1/PICTURE_719.png;baño;speak;gold;repeat;2;T;4;3;2;1;Stim2_Set4;0;None;81;80;81;0;80;80;80;;;;;;;;;;;;;;;;;;;;;;;406.6669114998076;407.7641868998762;407.7641868998762;407.7641868998762;407.7641868998762;407.7641868998762;407.7641868998762;407.7641868998762;407.7641868998762;None;0;;C:\2023\REPSWITCH21092023\REPSWITCH_excgange\REPSWITCH_excgange\data/190102_REPSWITCH1_version1_list2_2023-11-30_12h48.08.240_micRespv1l2_recorded\recording_micRespv1l2_2023-11-30_12h54.50.080.wav;410.79238389991224;;None;410.79238389991224;410.79238389991224;410.79238389991224;410.79238389991224;410.79238389991224;410.79238389991224;;;;;;;190102;001;2023-11-30_12h48.08.240;REPSWITCH1_version1_list2;2022.2.4;143.93169568334432;
REPSWITCH1/PICTURE_271.png;conejo;type;darkblue;filler;1;F;4;3;2;1;Stim7_Set3;0;None;82;81;82;0;81;81;81;;;;;;;;;;;;;;;;;;;;;;;411.29251499986276;412.43150159996003;412.43150159996003;412.43150159996003;412.43150159996003;412.43150159996003;412.43150159996003;412.43150159996003;412.43150159996003;['c', 'o', 'n', 'e', 'j', 'o'];0;conejo;C:\2023\REPSWITCH21092023\REPSWITCH_excgange\REPSWITCH_excgange\data/190102_REPSWITCH1_version1_list2_2023-11-30_12h48.08.240_micRespv1l2_recorded\recording_micRespv1l2_2023-11-30_12h54.54.749.wav;415.45963079994544;415.9597024999093;None;415.45963079994544;415.45963079994544;415.45963079994544;415.45963079994544;415.45963079994544;415.45963079994544;[0.9787698998115957, 1.120280799921602, 1.3475028998218477, 1.5210173998493701, 1.6319685999769717, 1.8196360999718308];;;;;;190102;001;2023-11-30_12h48.08.240;REPSWITCH1_version1_list2;2022.2.4;143.93169568334432;
REPSWITCH1/PICTURE_610.png;miel;speak;gold;filler;2;F;4;3;2;1;Stim2_Set3;0;None;83;82;83;0;82;82;82;;;;;;;;;;;;;;;;;;;;;;;415.9597024999093;417.0362580998335;417.0362580998335;417.0362580998335;417.0362580998335;417.0362580998335;417.0362580998335;417.0362580998335;417.0362580998335;None;0;;C:\2023\REPSWITCH21092023\REPSWITCH_excgange\REPSWITCH_excgange\data/190102_REPSWITCH1_version1_list2_2023-11-30_12h48.08.240_micRespv1l2_recorded\recording_micRespv1l2_2023-11-30_12h54.59.352.wav;420.06444489979185;;None;420.06444489979185;420.06444489979185;420.06444489979185;420.06444489979185;420.06444489979185;420.06444489979185;;;;;;;190102;001;2023-11-30_12h48.08.240;REPSWITCH1_version1_list2;2022.2.4;143.93169568334432;
REPSWITCH1/PICTURE_687.png;camisa;speak;gold;nontarget;2;NT;4;3;2;1;Stim5_Set4;1;repeat;84;83;84;0;83;83;83;;;;;;;;;;;;;;;;;;;;;;;420.5644990999717;421.5924744999502;421.5924744999502;421.5924744999502;421.5924744999502;421.5924744999502;421.5924744999502;421.5924744999502;421.5924744999502;None;0;;C:\2023\REPSWITCH21092023\REPSWITCH_excgange\REPSWITCH_excgange\data/190102_REPSWITCH1_version1_list2_2023-11-30_12h48.08.240_micRespv1l2_recorded\recording_micRespv1l2_2023-11-30_12h55.03.909.wav;424.6136398999952;425.11367869982496;None;424.6136398999952;424.6136398999952;424.6136398999952;424.6136398999952;424.6136398999952;424.6136398999952;;;;;;;190102;001;2023-11-30_12h48.08.240;REPSWITCH1_version1_list2;2022.2.4;143.93169568334432;
REPSWITCH1/PICTURE_687.png;camisa;type;darkblue;switch;1;T;4;3;2;1;Stim5_Set4;0;None;85;84;85;0;84;84;84;;;;;;;;;;;;;;;;;;;;;;;425.11367869982496;426.2110551998485;426.2110551998485;426.2110551998485;426.2110551998485;426.2110551998485;426.2110551998485;426.2110551998485;426.2110551998485;['c', 'a', 'm', 'i', 's', 'a'];0;camisa;C:\2023\REPSWITCH21092023\REPSWITCH_excgange\REPSWITCH_excgange\data/190102_REPSWITCH1_version1_list2_2023-11-30_12h48.08.240_micRespv1l2_recorded\recording_micRespv1l2_2023-11-30_12h55.08.526.wav;429.232310899999;429.7324290999677;None;429.232310899999;429.232310899999;429.232310899999;429.232310899999;429.232310899999;429.232310899999;[1.0275678001344204, 1.1411230999510735, 1.4587222000118345, 1.603982200147584, 1.7335343000013381, 1.878050500061363];;;;;;190102;001;2023-11-30_12h48.08.240;REPSWITCH1_version1_list2;2022.2.4;143.93169568334432;
REPSWITCH1/PICTURE_319.png;vaca;type;darkblue;nontarget;1;NT;4;3;2;1;Stim1_Set4;0;None;86;85;86;0;85;85;85;;;;;;;;;;;;;;;;;;;;;;;429.7324290999677;430.91315189981833;430.91315189981833;430.91315189981833;430.91315189981833;430.91315189981833;430.91315189981833;430.91315189981833;430.91315189981833;['v', 'a', 'c', 'a'];0;vaca;C:\2023\REPSWITCH21092023\REPSWITCH_excgange\REPSWITCH_excgange\data/190102_REPSWITCH1_version1_list2_2023-11-30_12h48.08.240_micRespv1l2_recorded\recording_micRespv1l2_2023-11-30_12h55.13.229.wav;433.9412553999573;;None;433.9412553999573;433.9412553999573;433.9412553999573;433.9412553999573;433.9412553999573;433.9412553999573;[1.2723761000670493, 1.3957396000623703, 1.5402997999917716, 1.5921194001566619];;;;;;190102;001;2023-11-30_12h48.08.240;REPSWITCH1_version1_list2;2022.2.4;143.93169568334432;
REPSWITCH1/PICTURE_319.png;vaca;speak;gold;switch;2;T;4;3;2;1;Stim1_Set4;0;None;87;86;87;0;86;86;86;;;;;;;;;;;;;;;;;;;;;;;434.4413032999728;435.5664972998202;435.5664972998202;435.5664972998202;435.5664972998202;435.5664972998202;435.5664972998202;435.5664972998202;435.5664972998202;None;0;;C:\2023\REPSWITCH21092023\REPSWITCH_excgange\REPSWITCH_excgange\data/190102_REPSWITCH1_version1_list2_2023-11-30_12h48.08.240_micRespv1l2_recorded\recording_micRespv1l2_2023-11-30_12h55.17.883.wav;438.59464399982244;;None;438.59464399982244;438.59464399982244;438.59464399982244;438.59464399982244;438.59464399982244;438.59464399982244;;;;;;;190102;001;2023-11-30_12h48.08.240;REPSWITCH1_version1_list2;2022.2.4;143.93169568334432;
REPSWITCH1/PICTURE_464.png;goma;type;darkblue;filler;1;F;4;3;2;1;Stim6_Set3;1;switch;88;87;88;0;87;87;87;;;;;;;;;;;;;;;;;;;;;;;439.09468179987743;440.16431689984165;440.16431689984165;440.16431689984165;440.16431689984165;440.16431689984165;440.16431689984165;440.16431689984165;440.16431689984165;['g', 'o', 'a', 'backspace', 'm'];0;gom;C:\2023\REPSWITCH21092023\REPSWITCH_excgange\REPSWITCH_excgange\data/190102_REPSWITCH1_version1_list2_2023-11-30_12h48.08.240_micRespv1l2_recorded\recording_micRespv1l2_2023-11-30_12h55.22.480.wav;443.18549679988064;443.68558259983547;None;443.18549679988064;443.18549679988064;443.18549679988064;443.18549679988064;443.18549679988064;443.18549679988064;[1.5346047000493854, 1.827624100027606, 2.0758512001484632, 2.710302999941632, 2.974364300025627];;;;;;190102;001;2023-11-30_12h48.08.240;REPSWITCH1_version1_list2;2022.2.4;143.93169568334432;
REPSWITCH1/PICTURE_728.png;pulpo;speak;gold;nontarget;2;NT;4;3;2;1;Stim8_Set4;1;switch;89;88;89;0;88;88;88;;;;;;;;;;;;;;;;;;;;;;;443.68558259983547;444.789879999822;444.789879999822;444.789879999822;444.789879999822;444.789879999822;444.789879999822;444.789879999822;444.789879999822;None;0;;C:\2023\REPSWITCH21092023\REPSWITCH_excgange\REPSWITCH_excgange\data/190102_REPSWITCH1_version1_list2_2023-11-30_12h48.08.240_micRespv1l2_recorded\recording_micRespv1l2_2023-11-30_12h55.27.106.wav;447.81113329995424;448.3111930999439;None;447.81113329995424;447.81113329995424;447.81113329995424;447.81113329995424;447.81113329995424;447.81113329995424;;;;;;;190102;001;2023-11-30_12h48.08.240;REPSWITCH1_version1_list2;2022.2.4;143.93169568334432;
REPSWITCH1/PICTURE_728.png;pulpo;speak;gold;repeat;2;T;4;3;2;1;Stim8_Set4;0;None;90;89;90;0;89;89;89;;;;;;;;;;;;;;;;;;;;;;;448.3111930999439;449.4641443998553;449.4641443998553;449.4641443998553;449.4641443998553;449.4641443998553;449.4641443998553;449.4641443998553;449.4641443998553;None;0;;C:\2023\REPSWITCH21092023\REPSWITCH_excgange\REPSWITCH_excgange\data/190102_REPSWITCH1_version1_list2_2023-11-30_12h48.08.240_micRespv1l2_recorded\recording_micRespv1l2_2023-11-30_12h55.31.780.wav;452.4853156998288;452.98541309987195;None;452.4853156998288;452.4853156998288;452.4853156998288;452.4853156998288;452.4853156998288;452.4853156998288;;;;;;;190102;001;2023-11-30_12h48.08.240;REPSWITCH1_version1_list2;2022.2.4;143.93169568334432;
REPSWITCH1/PICTURE_320.png;iglesia;type;darkblue;filler;1;F;4;3;2;1;Stim8_Set3;0;None;91;90;91;0;90;90;90;;;;;;;;;;;;;;;;;;;;;;;452.98541309987195;454.1036878998857;454.1036878998857;454.1036878998857;454.1036878998857;454.1036878998857;454.1036878998857;454.1036878998857;454.1036878998857;['i', 'g', 'l', 'e', 's', 'i', 'a'];0;iglesia;C:\2023\REPSWITCH21092023\REPSWITCH_excgange\REPSWITCH_excgange\data/190102_REPSWITCH1_version1_list2_2023-11-30_12h48.08.240_micRespv1l2_recorded\recording_micRespv1l2_2023-11-30_12h55.36.420.wav;457.12482049991377;457.62491289991885;None;457.12482049991377;457.12482049991377;457.12482049991377;457.12482049991377;457.12482049991377;457.12482049991377;[1.511062900070101, 1.749264100100845, 2.0103875999338925, 2.173941600136459, 2.3224063999950886, 2.444902600022033, 2.517681800061837];;;;;;190102;001;2023-11-30_12h48.08.240;REPSWITCH1_version1_list2;2022.2.4;143.93169568334432;
REPSWITCH1/PICTURE_576.png;guante;speak;gold;filler;2;F;4;3;2;1;Stim1_Set3;0;None;92;91;92;0;91;91;91;;;;;;;;;;;;;;;;;;;;;;;457.62491289991885;458.715335899964;458.715335899964;458.715335899964;458.715335899964;458.715335899964;458.715335899964;458.715335899964;458.715335899964;None;0;;C:\2023\REPSWITCH21092023\REPSWITCH_excgange\REPSWITCH_excgange\data/190102_REPSWITCH1_version1_list2_2023-11-30_12h48.08.240_micRespv1l2_recorded\recording_micRespv1l2_2023-11-30_12h55.41.033.wav;461.74355859984644;;None;461.74355859984644;461.74355859984644;461.74355859984644;461.74355859984644;461.74355859984644;461.74355859984644;;;;;;;190102;001;2023-11-30_12h48.08.240;REPSWITCH1_version1_list2;2022.2.4;143.93169568334432;
REPSWITCH1/PICTURE_8.png;pierna;speak;gold;nontarget;2;NT;4;3;2;1;Stim3_Set4;1;repeat;93;92;93;0;92;92;92;;;;;;;;;;;;;;;;;;;;;;;462.2435755999759;463.3339741998352;463.3339741998352;463.3339741998352;463.3339741998352;463.3339741998352;463.3339741998352;463.3339741998352;463.3339741998352;None;0;;C:\2023\REPSWITCH21092023\REPSWITCH_excgange\REPSWITCH_excgange\data/190102_REPSWITCH1_version1_list2_2023-11-30_12h48.08.240_micRespv1l2_recorded\recording_micRespv1l2_2023-11-30_12h55.45.650.wav;466.3551925998181;466.85530089982785;None;466.3551925998181;466.3551925998181;466.3551925998181;466.3551925998181;466.3551925998181;466.3551925998181;;;;;;;190102;001;2023-11-30_12h48.08.240;REPSWITCH1_version1_list2;2022.2.4;143.93169568334432;
REPSWITCH1/PICTURE_8.png;pierna;type;darkblue;switch;1;T;4;3;2;1;Stim3_Set4;0;None;94;93;94;0;93;93;93;;;;;;;;;;;;;;;;;;;;;;;466.85530089982785;468.10543979983777;468.10543979983777;468.10543979983777;468.10543979983777;468.10543979983777;468.10543979983777;468.10543979983777;468.10543979983777;['p', 'i', 'e', 'r', 'n', 'a'];0;pierna;C:\2023\REPSWITCH21092023\REPSWITCH_excgange\REPSWITCH_excgange\data/190102_REPSWITCH1_version1_list2_2023-11-30_12h48.08.240_micRespv1l2_recorded\recording_micRespv1l2_2023-11-30_12h55.50.421.wav;471.12667329981923;471.6267255998682;None;471.12667329981923;471.12667329981923;471.12667329981923;471.12667329981923;471.12667329981923;471.12667329981923;[1.0628134000580758, 1.3192493000533432, 1.5637157999444753, 1.7272068001329899, 1.8447726001031697, 2.056038400158286];;;;;;190102;001;2023-11-30_12h48.08.240;REPSWITCH1_version1_list2;2022.2.4;143.93169568334432;
REPSWITCH1/PICTURE_673.png;tenedor;speak;gold;filler;2;F;4;3;2;1;Extra5;0;None;95;94;95;0;94;94;94;;;;;;;;;;;;;;;;;;;;;;;471.6267255998682;472.7380283998791;472.7380283998791;472.7380283998791;472.7380283998791;472.7380283998791;472.7380283998791;472.7380283998791;472.7380283998791;None;0;;C:\2023\REPSWITCH21092023\REPSWITCH_excgange\REPSWITCH_excgange\data/190102_REPSWITCH1_version1_list2_2023-11-30_12h48.08.240_micRespv1l2_recorded\recording_micRespv1l2_2023-11-30_12h55.55.055.wav;475.7592385997996;476.2592996999156;None;475.7592385997996;475.7592385997996;475.7592385997996;475.7592385997996;475.7592385997996;475.7592385997996;;;;;;;190102;001;2023-11-30_12h48.08.240;REPSWITCH1_version1_list2;2022.2.4;143.93169568334432;
REPSWITCH1/PICTURE_35.png;oreja;type;darkblue;filler;1;F;4;3;2;1;Stim5_Set3;1;switch;96;95;96;0;95;95;95;;;;;;;;;;;;;;;;;;;;;;;476.2592996999156;477.41917299991474;477.41917299991474;477.41917299991474;477.41917299991474;477.41917299991474;477.41917299991474;477.41917299991474;477.41917299991474;['o', 'r', 'e', 'j', 'a'];0;oreja;C:\2023\REPSWITCH21092023\REPSWITCH_excgange\REPSWITCH_excgange\data/190102_REPSWITCH1_version1_list2_2023-11-30_12h48.08.240_micRespv1l2_recorded\recording_micRespv1l2_2023-11-30_12h55.59.736.wav;480.44036939996295;480.9404700999148;None;480.44036939996295;480.44036939996295;480.44036939996295;480.44036939996295;480.44036939996295;480.44036939996295;[1.0565152000635862, 1.3106511000078171, 1.496072300011292, 1.7158417000900954, 1.838452500058338];;;;;;190102;001;2023-11-30_12h48.08.240;REPSWITCH1_version1_list2;2022.2.4;143.93169568334432;
REPSWITCH1/PICTURE_663.png;columna;speak;gold;filler;2;F;4;3;2;1;Extra6;0;None;97;96;97;0;96;96;96;;;;;;;;;;;;;;;;;;;;;;;480.9404700999148;482.0517068998888;482.0517068998888;482.0517068998888;482.0517068998888;482.0517068998888;482.0517068998888;482.0517068998888;482.0517068998888;None;0;;C:\2023\REPSWITCH21092023\REPSWITCH_excgange\REPSWITCH_excgange\data/190102_REPSWITCH1_version1_list2_2023-11-30_12h48.08.240_micRespv1l2_recorded\recording_micRespv1l2_2023-11-30_12h56.04.369.wav;485.07987999985926;;None;485.07987999985926;485.07987999985926;485.07987999985926;485.07987999985926;485.07987999985926;485.07987999985926;;;;;;;190102;001;2023-11-30_12h48.08.240;REPSWITCH1_version1_list2;2022.2.4;143.93169568334432;
REPSWITCH1/PICTURE_242.png;cartero;type;darkblue;filler;1;F;4;3;2;1;Stim3_Set3;1;switch;98;97;98;0;97;97;97;;;;;;;;;;;;;;;;;;;;;;;485.57997419987805;486.6287770997733;486.6287770997733;486.6287770997733;486.6287770997733;486.6287770997733;486.6287770997733;486.6287770997733;486.6287770997733;['c', 'a', 'r', 't', 'e', 'r', 'o'];0;cartero;C:\2023\REPSWITCH21092023\REPSWITCH_excgange\REPSWITCH_excgange\data/190102_REPSWITCH1_version1_list2_2023-11-30_12h48.08.240_micRespv1l2_recorded\recording_micRespv1l2_2023-11-30_12h56.08.945.wav;489.6499768998474;490.15001449990086;None;489.6499768998474;489.6499768998474;489.6499768998474;489.6499768998474;489.6499768998474;489.6499768998474;[1.6068747998215258, 1.7178826997987926, 1.888295799959451, 2.0417824999894947, 2.1623773998580873, 2.3248676999937743, 2.5102359999436885];;;;;;190102;001;2023-11-30_12h48.08.240;REPSWITCH1_version1_list2;2022.2.4;143.93169568334432;
REPSWITCH1/PICTURE_48.png;bombero;type;darkblue;nontarget;1;NT;4;3;2;1;Stim7_Set4;1;repeat;99;98;99;0;98;98;98;;;;;;;;;;;;;;;;;;;;;;;490.15001449990086;491.2960591998417;491.2960591998417;491.2960591998417;491.2960591998417;491.2960591998417;491.2960591998417;491.2960591998417;491.2960591998417;['b', 'o', 'm', 'b', 'e', 'r', 'o'];0;bombero;C:\2023\REPSWITCH21092023\REPSWITCH_excgange\REPSWITCH_excgange\data/190102_REPSWITCH1_version1_list2_2023-11-30_12h48.08.240_micRespv1l2_recorded\recording_micRespv1l2_2023-11-30_12h56.13.613.wav;494.324172699824;;None;494.324172699824;494.324172699824;494.324172699824;494.324172699824;494.324172699824;494.324172699824;[1.2790932001080364, 1.4386175000108778, 2.2249772001523525, 2.437265000073239, 2.533941000001505, 2.684433000162244, 2.8179731001146138];;;;;;190102;001;2023-11-30_12h48.08.240;REPSWITCH1_version1_list2;2022.2.4;143.93169568334432;
REPSWITCH1/PICTURE_48.png;bombero;type;darkblue;repeat;1;T;4;3;2;1;Stim7_Set4;0;None;100;99;100;0;99;99;99;;;;;;;;;;;;;;;;;;;;;;;494.8243133998476;495.9424317998346;495.9424317998346;495.9424317998346;495.9424317998346;495.9424317998346;495.9424317998346;495.9424317998346;495.9424317998346;['b', 'o', 'm', 'b', 'e', 'r', 'o'];0;bombero;C:\2023\REPSWITCH21092023\REPSWITCH_excgange\REPSWITCH_excgange\data/190102_REPSWITCH1_version1_list2_2023-11-30_12h48.08.240_micRespv1l2_recorded\recording_micRespv1l2_2023-11-30_12h56.18.260.wav;498.9636988998391;499.46378509979695;None;498.9636988998391;498.9636988998391;498.9636988998391;498.9636988998391;498.9636988998391;498.9636988998391;[0.9387167000677437, 1.1074286000803113, 1.2908131000585854, 1.6087541000451893, 1.7134026000276208, 1.8738705001305789, 1.99077929998748];;;;;;190102;001;2023-11-30_12h48.08.240;REPSWITCH1_version1_list2;2022.2.4;143.93169568334432;
REPSWITCH1/PICTURE_391.png;cadena;speak;gold;filler;2;F;4;3;2;1;Extra2;0;None;101;100;101;0;100;100;100;;;;;;;;;;;;;;;;;;;;;;;499.46378509979695;500.5402390998788;500.5402390998788;500.5402390998788;500.5402390998788;500.5402390998788;500.5402390998788;500.5402390998788;500.5402390998788;None;0;;C:\2023\REPSWITCH21092023\REPSWITCH_excgange\REPSWITCH_excgange\data/190102_REPSWITCH1_version1_list2_2023-11-30_12h48.08.240_micRespv1l2_recorded\recording_micRespv1l2_2023-11-30_12h56.22.857.wav;503.56844199984334;;None;503.56844199984334;503.56844199984334;503.56844199984334;503.56844199984334;503.56844199984334;503.56844199984334;;;;;;;190102;001;2023-11-30_12h48.08.240;REPSWITCH1_version1_list2;2022.2.4;143.93169568334432;
REPSWITCH1/PICTURE_590.png;escoba;type;darkblue;filler;1;F;4;3;2;1;Extra3;0;None;102;101;102;0;101;101;101;;;;;;;;;;;;;;;;;;;;;;;504.0685008999426;505.22840549983084;505.22840549983084;505.22840549983084;505.22840549983084;505.22840549983084;505.22840549983084;505.22840549983084;505.22840549983084;['e', 's', 'c', 'o', 'b', 'a'];0;escoba;C:\2023\REPSWITCH21092023\REPSWITCH_excgange\REPSWITCH_excgange\data/190102_REPSWITCH1_version1_list2_2023-11-30_12h48.08.240_micRespv1l2_recorded\recording_micRespv1l2_2023-11-30_12h56.27.546.wav;508.25655109994113;;space;508.25655109994113;508.25655109994113;508.25655109994113;508.25655109994113;508.25655109994113;508.25655109994113;[0.9095822998788208, 1.085016299970448, 1.4098967998288572, 1.6537156000267714, 1.8869313998147845, 1.97797070001252];508.75659909984097;508.75659909984097;8.077995300060138;;;190102;001;2023-11-30_12h48.08.240;REPSWITCH1_version1_list2;2022.2.4;143.93169568334432;
REPSWITCH1/PICTURE_340.png;espejo;type;darkblue;filler;1;F;1;1;2;1;Extra1;0;None;103;102;1;0;102;102;102;;;;;;;;;;;;;;;;;;;;;;;516.847956399899;517.9522543998901;517.9522543998901;517.9522543998901;517.9522543998901;517.9522543998901;517.9522543998901;517.9522543998901;517.9522543998901;['e', 's', 'p', 'e', 'j', 'o'];0;espejo;C:\2023\REPSWITCH21092023\REPSWITCH_excgange\REPSWITCH_excgange\data/190102_REPSWITCH1_version1_list2_2023-11-30_12h48.08.240_micRespv1l2_recorded\recording_micRespv1l2_2023-11-30_12h56.40.270.wav;520.9804308000021;;None;520.9804308000021;520.9804308000021;520.9804308000021;520.9804308000021;520.9804308000021;520.9804308000021;[0.9056084000039846, 1.0769078000448644, 1.2384496999438852, 1.3456123999785632, 1.7630539000965655, 1.9496140000410378];;;;;;190102;001;2023-11-30_12h48.08.240;REPSWITCH1_version1_list2;2022.2.4;143.93169568334432;
REPSWITCH1/PICTURE_391.png;cadena;speak;gold;filler;2;F;1;1;2;1;Extra2;0;None;104;103;2;0;103;103;103;;;;;;;;;;;;;;;;;;;;;;;521.4805098997895;522.598734999774;522.598734999774;522.598734999774;522.598734999774;522.598734999774;522.598734999774;522.598734999774;522.598734999774;None;0;;C:\2023\REPSWITCH21092023\REPSWITCH_excgange\REPSWITCH_excgange\data/190102_REPSWITCH1_version1_list2_2023-11-30_12h48.08.240_micRespv1l2_recorded\recording_micRespv1l2_2023-11-30_12h56.44.916.wav;525.6268858998083;;None;525.6268858998083;525.6268858998083;525.6268858998083;525.6268858998083;525.6268858998083;525.6268858998083;;;;;;;190102;001;2023-11-30_12h48.08.240;REPSWITCH1_version1_list2;2022.2.4;143.93169568334432;
REPSWITCH1/PICTURE_178.png;puente;speak;gold;nontarget;2;NT;1;1;2;1;Stim1_Set1;1;repeat;105;104;3;0;104;104;104;;;;;;;;;;;;;;;;;;;;;;;526.1269396999851;527.3007249999791;527.3007249999791;527.3007249999791;527.3007249999791;527.3007249999791;527.3007249999791;527.3007249999791;527.3007249999791;None;0;;C:\2023\REPSWITCH21092023\REPSWITCH_excgange\REPSWITCH_excgange\data/190102_REPSWITCH1_version1_list2_2023-11-30_12h48.08.240_micRespv1l2_recorded\recording_micRespv1l2_2023-11-30_12h56.49.617.wav;530.3220208999701;530.8220002998132;None;530.3220208999701;530.3220208999701;530.3220208999701;530.3220208999701;530.3220208999701;530.3220208999701;;;;;;;190102;001;2023-11-30_12h48.08.240;REPSWITCH1_version1_list2;2022.2.4;143.93169568334432;
REPSWITCH1/PICTURE_178.png;puente;speak;gold;repeat;2;T;1;1;2;1;Stim1_Set1;0;None;106;105;4;0;105;105;105;;;;;;;;;;;;;;;;;;;;;;;530.8220002998132;531.8638061999809;531.8638061999809;531.8638061999809;531.8638061999809;531.8638061999809;531.8638061999809;531.8638061999809;531.8638061999809;None;0;;C:\2023\REPSWITCH21092023\REPSWITCH_excgange\REPSWITCH_excgange\data/190102_REPSWITCH1_version1_list2_2023-11-30_12h48.08.240_micRespv1l2_recorded\recording_micRespv1l2_2023-11-30_12h56.54.180.wav;534.8850397998467;535.3851080997847;None;534.8850397998467;534.8850397998467;534.8850397998467;534.8850397998467;534.8850397998467;534.8850397998467;;;;;;;190102;001;2023-11-30_12h48.08.240;REPSWITCH1_version1_list2;2022.2.4;143.93169568334432;
REPSWITCH1/PICTURE_319.png;vaca;type;darkblue;filler;1;F;1;1;2;1;Stim1_Set4;0;None;107;106;5;0;106;106;106;;;;;;;;;;;;;;;;;;;;;;;535.3851080997847;536.4547240999527;536.4547240999527;536.4547240999527;536.4547240999527;536.4547240999527;536.4547240999527;536.4547240999527;536.4547240999527;['v', 'a', 'c', 'a'];0;vaca;C:\2023\REPSWITCH21092023\REPSWITCH_excgange\REPSWITCH_excgange\data/190102_REPSWITCH1_version1_list2_2023-11-30_12h48.08.240_micRespv1l2_recorded\recording_micRespv1l2_2023-11-30_12h56.58.771.wav;539.4759992999025;539.9760125998873;None;539.4759992999025;539.4759992999025;539.4759992999025;539.4759992999025;539.4759992999025;539.4759992999025;[1.0495967001188546, 1.15059470012784, 1.2565467001404613, 1.318309900118038];;;;;;190102;001;2023-11-30_12h48.08.240;REPSWITCH1_version1_list2;2022.2.4;143.93169568334432;
REPSWITCH1/PICTURE_381.png;fresa;speak;gold;nontarget;2;NT;1;1;2;1;Stim2_Set1;1;switch;108;107;6;0;107;107;107;;;;;;;;;;;;;;;;;;;;;;;539.9760125998873;541.0872675999999;541.0872675999999;541.0872675999999;541.0872675999999;541.0872675999999;541.0872675999999;541.0872675999999;541.0872675999999;None;0;;C:\2023\REPSWITCH21092023\REPSWITCH_excgange\REPSWITCH_excgange\data/190102_REPSWITCH1_version1_list2_2023-11-30_12h48.08.240_micRespv1l2_recorded\recording_micRespv1l2_2023-11-30_12h57.03.404.wav;544.1084509999491;544.6085556999315;None;544.1084509999491;544.1084509999491;544.1084509999491;544.1084509999491;544.1084509999491;544.1084509999491;;;;;;;190102;001;2023-11-30_12h48.08.240;REPSWITCH1_version1_list2;2022.2.4;143.93169568334432;
REPSWITCH1/PICTURE_381.png;fresa;speak;gold;repeat;2;T;1;1;2;1;Stim2_Set1;0;None;109;108;7;0;108;108;108;;;;;;;;;;;;;;;;;;;;;;;544.6085556999315;545.6643062999938;545.6643062999938;545.6643062999938;545.6643062999938;545.6643062999938;545.6643062999938;545.6643062999938;545.6643062999938;None;0;;C:\2023\REPSWITCH21092023\REPSWITCH_excgange\REPSWITCH_excgange\data/190102_REPSWITCH1_version1_list2_2023-11-30_12h48.08.240_micRespv1l2_recorded\recording_micRespv1l2_2023-11-30_12h57.07.982.wav;548.6924719999079;;None;548.6924719999079;548.6924719999079;548.6924719999079;548.6924719999079;548.6924719999079;548.6924719999079;;;;;;;190102;001;2023-11-30_12h48.08.240;REPSWITCH1_version1_list2;2022.2.4;143.93169568334432;
REPSWITCH1/PICTURE_719.png;baño;type;darkblue;filler;1;F;1;1;2;1;Stim2_Set4;1;switch;110;109;8;0;109;109;109;;;;;;;;;;;;;;;;;;;;;;;549.1924663998652;550.2967761999462;550.2967761999462;550.2967761999462;550.2967761999462;550.2967761999462;550.2967761999462;550.2967761999462;550.2967761999462;['b', 'a', 'ñ', 'o'];0;baño;C:\2023\REPSWITCH21092023\REPSWITCH_excgange\REPSWITCH_excgange\data/190102_REPSWITCH1_version1_list2_2023-11-30_12h48.08.240_micRespv1l2_recorded\recording_micRespv1l2_2023-11-30_12h57.12.614.wav;553.3180247999262;553.8180900998414;None;553.3180247999262;553.3180247999262;553.3180247999262;553.3180247999262;553.3180247999262;553.3180247999262;[0.9674662000034004, 1.1378943000454456, 1.4969498000573367, 1.6437775001395494];;;;;;190102;001;2023-11-30_12h48.08.240;REPSWITCH1_version1_list2;2022.2.4;143.93169568334432;
REPSWITCH1/PICTURE_135.png;traje;speak;gold;nontarget;2;NT;1;1;2;1;Stim3_Set1;0;None;111;110;9;0;110;110;110;;;;;;;;;;;;;;;;;;;;;;;553.8180900998414;554.8807383999228;554.8807383999228;554.8807383999228;554.8807383999228;554.8807383999228;554.8807383999228;554.8807383999228;554.8807383999228;None;0;;C:\2023\REPSWITCH21092023\REPSWITCH_excgange\REPSWITCH_excgange\data/190102_REPSWITCH1_version1_list2_2023-11-30_12h48.08.240_micRespv1l2_recorded\recording_micRespv1l2_2023-11-30_12h57.17.197.wav;557.9019206999801;558.4020195999183;None;557.9019206999801;557.9019206999801;557.9019206999801;557.9019206999801;557.9019206999801;557.9019206999801;;;;;;;190102;001;2023-11-30_12h48.08.240;REPSWITCH1_version1_list2;2022.2.4;143.93169568334432;
REPSWITCH1/PICTURE_135.png;traje;type;darkblue;switch;1;T;1;1;2;1;Stim3_Set1;0;None;112;111;10;0;111;111;111;;;;;;;;;;;;;;;;;;;;;;;558.4020195999183;559.4786109998822;559.4786109998822;559.4786109998822;559.4786109998822;559.4786109998822;559.4786109998822;559.4786109998822;559.4786109998822;['t', 'r', 'a', 'j', 'e'];0;traje;C:\2023\REPSWITCH21092023\REPSWITCH_excgange\REPSWITCH_excgange\data/190102_REPSWITCH1_version1_list2_2023-11-30_12h48.08.240_micRespv1l2_recorded\recording_micRespv1l2_2023-11-30_12h57.21.795.wav;562.5067556998692;;None;562.5067556998692;562.5067556998692;562.5067556998692;562.5067556998692;562.5067556998692;562.5067556998692;[1.0564516000449657, 1.1929556000977755, 1.322552400175482, 1.607604700140655, 1.7091019002255052];;;;;;190102;001;2023-11-30_12h48.08.240;REPSWITCH1_version1_list2;2022.2.4;143.93169568334432;
REPSWITCH1/PICTURE_687.png;camisa;speak;gold;filler;2;F;1;1;2;1;Stim5_Set4;0;None;113;112;11;0;112;112;112;;;;;;;;;;;;;;;;;;;;;;;563.0067665998358;564.1806190998759;564.1806190998759;564.1806190998759;564.1806190998759;564.1806190998759;564.1806190998759;564.1806190998759;564.1806190998759;None;0;;C:\2023\REPSWITCH21092023\REPSWITCH_excgange\REPSWITCH_excgange\data/190102_REPSWITCH1_version1_list2_2023-11-30_12h48.08.240_micRespv1l2_recorded\recording_micRespv1l2_2023-11-30_12h57.26.497.wav;567.2017490998842;567.7018311999273;None;567.2017490998842;567.2017490998842;567.2017490998842;567.2017490998842;567.2017490998842;567.2017490998842;;;;;;;190102;001;2023-11-30_12h48.08.240;REPSWITCH1_version1_list2;2022.2.4;143.93169568334432;
REPSWITCH1/PICTURE_128.png;muñeca;type;darkblue;nontarget;1;NT;1;1;2;1;Stim4_Set1;1;switch;114;113;12;0;113;113;113;;;;;;;;;;;;;;;;;;;;;;;567.7018311999273;568.8131341999397;568.8131341999397;568.8131341999397;568.8131341999397;568.8131341999397;568.8131341999397;568.8131341999397;568.8131341999397;['m', 'u', 'ñ', 'e', 'c', 'a'];0;muñeca;C:\2023\REPSWITCH21092023\REPSWITCH_excgange\REPSWITCH_excgange\data/190102_REPSWITCH1_version1_list2_2023-11-30_12h48.08.240_micRespv1l2_recorded\recording_micRespv1l2_2023-11-30_12h57.31.129.wav;571.8343411998358;572.3344018999487;None;571.8343411998358;571.8343411998358;571.8343411998358;571.8343411998358;571.8343411998358;571.8343411998358;[1.127135599963367, 1.3713144999928772, 1.674567800015211, 1.8472889999393374, 2.0329726000782102, 2.14292629994452];;;;;;190102;001;2023-11-30_12h48.08.240;REPSWITCH1_version1_list2;2022.2.4;143.93169568334432;
REPSWITCH1/PICTURE_128.png;muñeca;speak;gold;switch;2;T;1;1;2;1;Stim4_Set1;0;None;115;114;13;0;114;114;114;;;;;;;;;;;;;;;;;;;;;;;572.3344018999487;573.4456913999747;573.4456913999747;573.4456913999747;573.4456913999747;573.4456913999747;573.4456913999747;573.4456913999747;573.4456913999747;None;0;;C:\2023\REPSWITCH21092023\REPSWITCH_excgange\REPSWITCH_excgange\data/190102_REPSWITCH1_version1_list2_2023-11-30_12h48.08.240_micRespv1l2_recorded\recording_micRespv1l2_2023-11-30_12h57.35.762.wav;576.4738319998141;;None;576.4738319998141;576.4738319998141;576.4738319998141;576.4738319998141;576.4738319998141;576.4738319998141;;;;;;;190102;001;2023-11-30_12h48.08.240;REPSWITCH1_version1_list2;2022.2.4;143.93169568334432;
REPSWITCH1/PICTURE_8.png;pierna;speak;gold;filler;2;F;1;1;2;1;Stim3_Set4;0;None;116;115;14;0;115;115;115;;;;;;;;;;;;;;;;;;;;;;;576.9739003998693;578.0365929999389;578.0365929999389;578.0365929999389;578.0365929999389;578.0365929999389;578.0365929999389;578.0365929999389;578.0365929999389;None;0;;C:\2023\REPSWITCH21092023\REPSWITCH_excgange\REPSWITCH_excgange\data/190102_REPSWITCH1_version1_list2_2023-11-30_12h48.08.240_micRespv1l2_recorded\recording_micRespv1l2_2023-11-30_12h57.40.353.wav;581.0578057998791;581.5578428998124;None;581.0578057998791;581.0578057998791;581.0578057998791;581.0578057998791;581.0578057998791;581.0578057998791;;;;;;;190102;001;2023-11-30_12h48.08.240;REPSWITCH1_version1_list2;2022.2.4;143.93169568334432;
REPSWITCH1/PICTURE_19.png;pavo;speak;gold;nontarget;2;NT;1;1;2;1;Stim5_Set1;0;None;117;116;15;0;116;116;116;;;;;;;;;;;;;;;;;;;;;;;581.5578428998124;582.6691621998325;582.6691621998325;582.6691621998325;582.6691621998325;582.6691621998325;582.6691621998325;582.6691621998325;582.6691621998325;None;0;;C:\2023\REPSWITCH21092023\REPSWITCH_excgange\REPSWITCH_excgange\data/190102_REPSWITCH1_version1_list2_2023-11-30_12h48.08.240_micRespv1l2_recorded\recording_micRespv1l2_2023-11-30_12h57.44.985.wav;585.6902876999229;586.1903865998611;None;585.6902876999229;585.6902876999229;585.6902876999229;585.6902876999229;585.6902876999229;585.6902876999229;;;;;;;190102;001;2023-11-30_12h48.08.240;REPSWITCH1_version1_list2;2022.2.4;143.93169568334432;
REPSWITCH1/PICTURE_19.png;pavo;type;darkblue;switch;1;T;1;1;2;1;Stim5_Set1;0;None;118;117;16;0;117;117;117;;;;;;;;;;;;;;;;;;;;;;;586.1903865998611;587.3155253999867;587.3155253999867;587.3155253999867;587.3155253999867;587.3155253999867;587.3155253999867;587.3155253999867;587.3155253999867;['p', 'a', 'v', 'o'];0;pavo;C:\2023\REPSWITCH21092023\REPSWITCH_excgange\REPSWITCH_excgange\data/190102_REPSWITCH1_version1_list2_2023-11-30_12h48.08.240_micRespv1l2_recorded\recording_micRespv1l2_2023-11-30_12h57.49.632.wav;590.336803099839;590.836802699836;None;590.336803099839;590.336803099839;590.336803099839;590.336803099839;590.336803099839;590.336803099839;[0.918406399898231, 1.0599132999777794, 1.3820344998966902, 1.5107920998707414];;;;;;190102;001;2023-11-30_12h48.08.240;REPSWITCH1_version1_list2;2022.2.4;143.93169568334432;
REPSWITCH1/PICTURE_16.png;cazador;type;darkblue;nontarget;1;NT;1;1;2;1;Stim6_Set1;1;switch;119;118;17;0;118;118;118;;;;;;;;;;;;;;;;;;;;;;;590.836802699836;591.9412182997912;591.9412182997912;591.9412182997912;591.9412182997912;591.9412182997912;591.9412182997912;591.9412182997912;591.9412182997912;['c', 'a', 'z', 'a', 'd', 'o', 'r'];0;cazador;C:\2023\REPSWITCH21092023\REPSWITCH_excgange\REPSWITCH_excgange\data/190102_REPSWITCH1_version1_list2_2023-11-30_12h48.08.240_micRespv1l2_recorded\recording_micRespv1l2_2023-11-30_12h57.54.258.wav;594.9623326999135;595.4625059999526;None;594.9623326999135;594.9623326999135;594.9623326999135;594.9623326999135;594.9623326999135;594.9623326999135;[1.202264399966225, 1.3009244001004845, 1.554098900174722, 1.6705120000988245, 2.135836200090125, 2.2763096000999212, 2.3670426001772285];;;;;;190102;001;2023-11-30_12h48.08.240;REPSWITCH1_version1_list2;2022.2.4;143.93169568334432;
REPSWITCH1/PICTURE_16.png;cazador;type;darkblue;repeat;1;T;1;1;2;1;Stim6_Set1;0;None;120;119;18;0;119;119;119;;;;;;;;;;;;;;;;;;;;;;;595.4625059999526;596.5043097999878;596.5043097999878;596.5043097999878;596.5043097999878;596.5043097999878;596.5043097999878;596.5043097999878;596.5043097999878;['c', 'a', 'z', 'a', 'd', 'o', 'r'];0;cazador;C:\2023\REPSWITCH21092023\REPSWITCH_excgange\REPSWITCH_excgange\data/190102_REPSWITCH1_version1_list2_2023-11-30_12h48.08.240_micRespv1l2_recorded\recording_micRespv1l2_2023-11-30_12h57.58.821.wav;599.5254359999672;600.0255235999357;None;599.5254359999672;599.5254359999672;599.5254359999672;599.5254359999672;599.5254359999672;599.5254359999672;[0.9715289999730885, 1.0572500000707805, 1.2300863999407738, 1.4353877000976354, 1.6446934000123292, 1.8130824000108987, 1.931687500094995];;;;;;190102;001;2023-11-30_12h48.08.240;REPSWITCH1_version1_list2;2022.2.4;143.93169568334432;
REPSWITCH1/PICTURE_498.png;taza;speak;gold;filler;2;F;1;1;2;1;Stim4_Set4;0;None;121;120;19;0;120;120;120;;;;;;;;;;;;;;;;;;;;;;;600.0255235999357;601.0812839998398;601.0812839998398;601.0812839998398;601.0812839998398;601.0812839998398;601.0812839998398;601.0812839998398;601.0812839998398;None;0;;C:\2023\REPSWITCH21092023\REPSWITCH_excgange\REPSWITCH_excgange\data/190102_REPSWITCH1_version1_list2_2023-11-30_12h48.08.240_micRespv1l2_recorded\recording_micRespv1l2_2023-11-30_12h58.03.398.wav;604.1094879999291;;None;604.1094879999291;604.1094879999291;604.1094879999291;604.1094879999291;604.1094879999291;604.1094879999291;;;;;;;190102;001;2023-11-30_12h48.08.240;REPSWITCH1_version1_list2;2022.2.4;143.93169568334432;
