image;correctAns;respModal;frameColor;repSwitch;sequence;target;set;block;list;exp_version;stimulus;baseline;baseline_condition;trial_no;psychopy_trial;Column1;trialsREPSWITCH.thisRepN;trialsREPSWITCH.thisTrialN;trialsREPSWITCH.thisN;trialsREPSWITCH.thisIndex;textWelcome.started;textboxInstrMain1.started;textboxInstrMain1_2.started;textboxInstrMain1_3.started;keyInstrMain.started;keyInstrMain.keys;keyInstrMain.rt;textboxInstrMain2.started;textboxInstrMain2_2.started;textboxInstrMain2_3.started;textboxInstrMain2_4.started;textboxInstrMain2_5.started;textboxInstrMain2_6.started;textboxInstrMain2_7.started;textboxInstrMain2_8.started;textboxInstrMain2_9.started;textboxInstrMain2_10.started;textboxInstrMain2_11.started;textboxInstrMain2_12.started;keyInstrMain2.started;keyInstrMain2.keys;keyInstrMain2.rt;fixationITI.started;fixationITI.stopped;polygonColour.started;polygonWhite.started;imageObject.started;polygonType.started;textInput.started;keyResp.started;micRespv1l3.started;keyResp.keys;keyResp.corr;keyResp.rt;subjResponse;micRespv1l3.clip;textBlankLoop.started;textBlankLoop.stopped;keyPause.keys;polygonColour.stopped;polygonWhite.stopped;imageObject.stopped;polygonType.stopped;textInput.stopped;keyResp.stopped;textboxPause.started;keyPause.started;keyPause.rt;textboxGoodbye.started;textboxGoodbye.stopped;participant;session;date;expName;psychopyVersion;frameRate;Column2
;;;;;;;;;;;;;;;;;;;;;9.1008952;11.5987339;11.5987339;11.5987339;11.5987339;space;3.4198647;;;;;;;;;;;;;;;;;;;;;;;;;;;;;;;;;;;;;;;;;;;;210103;1;2023-12-01_11h22.53.067;REPSWITCH1_version1_list3;2022.2.4;143.8819938;
;;;;;;;;;;;;;;;;;;;;;;;;;;;;15.0366713;15.0366713;15.0366713;15.0366713;15.0366713;15.0366713;15.0366713;15.0366713;15.0366713;15.0366713;15.0366713;15.0366713;15.0366713;space;1.6145749;;;;;;;;;;;;;;;;;;;;;;;;;;;;;210103;1;2023-12-01_11h22.53.067;REPSWITCH1_version1_list3;2022.2.4;143.8819938;
REPSWITCH1/PICTURE_663.png;columna;type;darkblue;filler;1;F;1;2;3;1;Extra6;0;None;1;0;1;0;0;0;0;;;;;;;;;;;;;;;;;;;;;;;16.7521548;17.870428;17.870428;17.870428;17.870428;17.870428;17.870428;17.870428;17.870428;['c', 'o', 'u', 'backspace'];0;[1.739209699910134, 1.861758799990639, 2.0872269000392407, 2.6950127000454813];co;C:\2023\REPSWITCH21092023\REPSWITCH_excgange\REPSWITCH_excgange\data/210103_REPSWITCH1_version1_list3_2023-12-01_11h22.53.067_micRespv1l3_recorded\recording_micRespv1l3_2023-12-01_11h23.06.720.wav;20.8917011;21.391683;None;;;;;;;;;;;;210103;1;2023-12-01_11h22.53.067;REPSWITCH1_version1_list3;2022.2.4;143.8819938;
REPSWITCH1/PICTURE_128.png;muñeca;speak;gold;nontarget;2;NT;1;2;3;1;Stim4_Set1;1;switch;2;1;2;0;1;1;1;;;;;;;;;;;;;;;;;;;;;;;21.391683;22.4751521;22.4751521;22.4751521;22.4751521;22.4751521;22.4751521;22.4751521;22.4751521;['m', 'backspace'];0;[1.0998802001122385, 2.0713136000558734];;C:\2023\REPSWITCH21092023\REPSWITCH_excgange\REPSWITCH_excgange\data/210103_REPSWITCH1_version1_list3_2023-12-01_11h22.53.067_micRespv1l3_recorded\recording_micRespv1l3_2023-12-01_11h23.11.328.wav;25.5033187;;None;25.5033187;25.5033187;25.5033187;25.5033187;25.5033187;25.5033187;;;;;;210103;1;2023-12-01_11h22.53.067;REPSWITCH1_version1_list3;2022.2.4;143.8819938;
REPSWITCH1/PICTURE_128.png;muñeca;speak;gold;repeat;2;T;1;2;3;1;Stim4_Set1;0;None;3;2;3;0;2;2;2;;;;;;;;;;;;;;;;;;;;;;;26.0033941;27.0591186;27.0591186;27.0591186;27.0591186;27.0591186;27.0591186;27.0591186;27.0591186;None;0;;;C:\2023\REPSWITCH21092023\REPSWITCH_excgange\REPSWITCH_excgange\data/210103_REPSWITCH1_version1_list3_2023-12-01_11h22.53.067_micRespv1l3_recorded\recording_micRespv1l3_2023-12-01_11h23.15.912.wav;30.0803036;30.5803535;None;30.0803036;30.0803036;30.0803036;30.0803036;30.0803036;30.0803036;;;;;;210103;1;2023-12-01_11h22.53.067;REPSWITCH1_version1_list3;2022.2.4;143.8819938;
REPSWITCH1/PICTURE_8.png;pierna;type;darkblue;filler;1;F;1;2;3;1;Stim3_Set4;0;None;4;3;4;0;3;3;3;;;;;;;;;;;;;;;;;;;;;;;30.5803535;31.622189;31.622189;31.622189;31.622189;31.622189;31.622189;31.622189;31.622189;['p', 'i', 'e', 'r', 'n', 'a'];0;[0.779110899893567, 1.00498849991709, 1.1687346000690013, 1.2963004999328405, 1.427543899975717, 1.5376834000926465];pierna;C:\2023\REPSWITCH21092023\REPSWITCH_excgange\REPSWITCH_excgange\data/210103_REPSWITCH1_version1_list3_2023-12-01_11h22.53.067_micRespv1l3_recorded\recording_micRespv1l3_2023-12-01_11h23.20.475.wav;34.643417;35.1434535;None;34.643417;34.643417;34.643417;34.643417;34.643417;34.643417;;;;;;210103;1;2023-12-01_11h22.53.067;REPSWITCH1_version1_list3;2022.2.4;143.8819938;
REPSWITCH1/PICTURE_135.png;traje;speak;gold;nontarget;2;NT;1;2;3;1;Stim3_Set1;1;switch;5;4;5;0;4;4;4;;;;;;;;;;;;;;;;;;;;;;;35.1434535;36.2409266;36.2409266;36.2409266;36.2409266;36.2409266;36.2409266;36.2409266;36.2409266;None;0;;;C:\2023\REPSWITCH21092023\REPSWITCH_excgange\REPSWITCH_excgange\data/210103_REPSWITCH1_version1_list3_2023-12-01_11h22.53.067_micRespv1l3_recorded\recording_micRespv1l3_2023-12-01_11h23.25.094.wav;39.262105;39.7621218;None;39.262105;39.262105;39.262105;39.262105;39.262105;39.262105;;;;;;210103;1;2023-12-01_11h22.53.067;REPSWITCH1_version1_list3;2022.2.4;143.8819938;
REPSWITCH1/PICTURE_135.png;traje;speak;gold;repeat;2;T;1;2;3;1;Stim3_Set1;0;None;6;5;6;0;5;5;5;;;;;;;;;;;;;;;;;;;;;;;39.7621218;40.7900837;40.7900837;40.7900837;40.7900837;40.7900837;40.7900837;40.7900837;40.7900837;None;0;;;C:\2023\REPSWITCH21092023\REPSWITCH_excgange\REPSWITCH_excgange\data/210103_REPSWITCH1_version1_list3_2023-12-01_11h22.53.067_micRespv1l3_recorded\recording_micRespv1l3_2023-12-01_11h23.29.643.wav;43.8112602;44.3114044;None;43.8112602;43.8112602;43.8112602;43.8112602;43.8112602;43.8112602;;;;;;210103;1;2023-12-01_11h22.53.067;REPSWITCH1_version1_list3;2022.2.4;143.8819938;
REPSWITCH1/PICTURE_673.png;tenedor;type;darkblue;filler;1;F;1;2;3;1;Extra5;0;None;7;6;7;0;6;6;6;;;;;;;;;;;;;;;;;;;;;;;44.3114044;45.4642974;45.4642974;45.4642974;45.4642974;45.4642974;45.4642974;45.4642974;45.4642974;['t', 'e', 'n', 'e', 'd', 'o', 'r'];0;[0.9993042999412864, 1.100958599941805, 1.2464695000089705, 1.3411240000277758, 1.5465611999388784, 1.655203799949959, 1.777785399928689];tenedor;C:\2023\REPSWITCH21092023\REPSWITCH_excgange\REPSWITCH_excgange\data/210103_REPSWITCH1_version1_list3_2023-12-01_11h22.53.067_micRespv1l3_recorded\recording_micRespv1l3_2023-12-01_11h23.34.317.wav;48.4854965;48.9856601;None;48.4854965;48.4854965;48.4854965;48.4854965;48.4854965;48.4854965;;;;;;210103;1;2023-12-01_11h22.53.067;REPSWITCH1_version1_list3;2022.2.4;143.8819938;
REPSWITCH1/PICTURE_728.png;pulpo;speak;gold;filler;2;F;1;2;3;1;Stim8_Set4;0;None;8;7;8;0;7;7;7;;;;;;;;;;;;;;;;;;;;;;;48.9856601;49.992709;49.992709;49.992709;49.992709;49.992709;49.992709;49.992709;49.992709;None;0;;;C:\2023\REPSWITCH21092023\REPSWITCH_excgange\REPSWITCH_excgange\data/210103_REPSWITCH1_version1_list3_2023-12-01_11h22.53.067_micRespv1l3_recorded\recording_micRespv1l3_2023-12-01_11h23.38.846.wav;53.0138963;53.5139604;None;53.0138963;53.0138963;53.0138963;53.0138963;53.0138963;53.0138963;;;;;;210103;1;2023-12-01_11h22.53.067;REPSWITCH1_version1_list3;2022.2.4;143.8819938;
REPSWITCH1/PICTURE_16.png;cazador;speak;gold;nontarget;2;NT;1;2;3;1;Stim6_Set1;1;repeat;9;8;9;0;8;8;8;;;;;;;;;;;;;;;;;;;;;;;53.5139604;54.5419263;54.5419263;54.5419263;54.5419263;54.5419263;54.5419263;54.5419263;54.5419263;None;0;;;C:\2023\REPSWITCH21092023\REPSWITCH_excgange\REPSWITCH_excgange\data/210103_REPSWITCH1_version1_list3_2023-12-01_11h22.53.067_micRespv1l3_recorded\recording_micRespv1l3_2023-12-01_11h23.43.396.wav;57.5630623;58.063146;None;57.5630623;57.5630623;57.5630623;57.5630623;57.5630623;57.5630623;;;;;;210103;1;2023-12-01_11h22.53.067;REPSWITCH1_version1_list3;2022.2.4;143.8819938;
REPSWITCH1/PICTURE_16.png;cazador;type;darkblue;switch;1;T;1;2;3;1;Stim6_Set1;0;None;10;9;10;0;9;9;9;;;;;;;;;;;;;;;;;;;;;;;58.063146;59.1535742;59.1535742;59.1535742;59.1535742;59.1535742;59.1535742;59.1535742;59.1535742;['c', 'a', 'z', 'a', 'd', 'o', 'r'];0;[0.7754061999730766, 0.8740683998912573, 1.1631024999078363, 1.4112333999946713, 1.6622995999641716, 1.7858553999103606, 1.906488699838519];cazador;C:\2023\REPSWITCH21092023\REPSWITCH_excgange\REPSWITCH_excgange\data/210103_REPSWITCH1_version1_list3_2023-12-01_11h22.53.067_micRespv1l3_recorded\recording_micRespv1l3_2023-12-01_11h23.48.007.wav;62.1817888;;None;62.1817888;62.1817888;62.1817888;62.1817888;62.1817888;62.1817888;;;;;;210103;1;2023-12-01_11h22.53.067;REPSWITCH1_version1_list3;2022.2.4;143.8819938;
REPSWITCH1/PICTURE_498.png;taza;type;darkblue;filler;1;F;1;2;3;1;Stim4_Set4;1;repeat;11;10;11;0;10;10;10;;;;;;;;;;;;;;;;;;;;;;;62.681821;63.876448;63.876448;63.876448;63.876448;63.876448;63.876448;63.876448;63.876448;['t', 'a', 'z', 'a'];0;[0.8818772998638451, 0.9986378999892622, 1.28781669982709, 1.6247425000183284];taza;C:\2023\REPSWITCH21092023\REPSWITCH_excgange\REPSWITCH_excgange\data/210103_REPSWITCH1_version1_list3_2023-12-01_11h22.53.067_micRespv1l3_recorded\recording_micRespv1l3_2023-12-01_11h23.52.730.wav;66.8976583;67.3977224;None;66.8976583;66.8976583;66.8976583;66.8976583;66.8976583;66.8976583;;;;;;210103;1;2023-12-01_11h22.53.067;REPSWITCH1_version1_list3;2022.2.4;143.8819938;
REPSWITCH1/PICTURE_381.png;fresa;type;darkblue;nontarget;1;NT;1;2;3;1;Stim2_Set1;1;repeat;12;11;12;0;11;11;11;;;;;;;;;;;;;;;;;;;;;;;67.3977224;68.4464446;68.4464446;68.4464446;68.4464446;68.4464446;68.4464446;68.4464446;68.4464446;['f', 'r', 'e', 's', 'a'];0;[0.9322096998803318, 1.2481461998540908, 1.3258632000070065, 1.6079378998838365, 1.6806995999068022];fresa;C:\2023\REPSWITCH21092023\REPSWITCH_excgange\REPSWITCH_excgange\data/210103_REPSWITCH1_version1_list3_2023-12-01_11h22.53.067_micRespv1l3_recorded\recording_micRespv1l3_2023-12-01_11h23.57.299.wav;71.4676615;71.9678037;None;71.4676615;71.4676615;71.4676615;71.4676615;71.4676615;71.4676615;;;;;;210103;1;2023-12-01_11h22.53.067;REPSWITCH1_version1_list3;2022.2.4;143.8819938;
REPSWITCH1/PICTURE_381.png;fresa;speak;gold;switch;2;T;1;2;3;1;Stim2_Set1;0;None;13;12;13;0;12;12;12;;;;;;;;;;;;;;;;;;;;;;;71.9678037;72.9887859;72.9887859;72.9887859;72.9887859;72.9887859;72.9887859;72.9887859;72.9887859;None;0;;;C:\2023\REPSWITCH21092023\REPSWITCH_excgange\REPSWITCH_excgange\data/210103_REPSWITCH1_version1_list3_2023-12-01_11h22.53.067_micRespv1l3_recorded\recording_micRespv1l3_2023-12-01_11h24.01.842.wav;76.0099542;76.5100235;None;76.0099542;76.0099542;76.0099542;76.0099542;76.0099542;76.0099542;;;;;;210103;1;2023-12-01_11h22.53.067;REPSWITCH1_version1_list3;2022.2.4;143.8819938;
REPSWITCH1/PICTURE_178.png;puente;speak;gold;nontarget;2;NT;1;2;3;1;Stim1_Set1;0;None;14;13;14;0;13;13;13;;;;;;;;;;;;;;;;;;;;;;;76.5100235;77.6282315;77.6282315;77.6282315;77.6282315;77.6282315;77.6282315;77.6282315;77.6282315;None;0;;;C:\2023\REPSWITCH21092023\REPSWITCH_excgange\REPSWITCH_excgange\data/210103_REPSWITCH1_version1_list3_2023-12-01_11h22.53.067_micRespv1l3_recorded\recording_micRespv1l3_2023-12-01_11h24.06.482.wav;80.6564693;;None;80.6564693;80.6564693;80.6564693;80.6564693;80.6564693;80.6564693;;;;;;210103;1;2023-12-01_11h22.53.067;REPSWITCH1_version1_list3;2022.2.4;143.8819938;
REPSWITCH1/PICTURE_178.png;puente;type;darkblue;switch;1;T;1;2;3;1;Stim1_Set1;0;None;15;14;15;0;14;14;14;;;;;;;;;;;;;;;;;;;;;;;81.1564642;82.2955208;82.2955208;82.2955208;82.2955208;82.2955208;82.2955208;82.2955208;82.2955208;['p', 'u', 'e', 'n', 't', 'e'];0;[0.9290636000223458, 1.249333000043407, 1.424184399889782, 1.5448827999643981, 1.6865600999444723, 1.7494757000822574];puente;C:\2023\REPSWITCH21092023\REPSWITCH_excgange\REPSWITCH_excgange\data/210103_REPSWITCH1_version1_list3_2023-12-01_11h22.53.067_micRespv1l3_recorded\recording_micRespv1l3_2023-12-01_11h24.11.148.wav;85.3236732;;None;85.3236732;85.3236732;85.3236732;85.3236732;85.3236732;85.3236732;;;;;;210103;1;2023-12-01_11h22.53.067;REPSWITCH1_version1_list3;2022.2.4;143.8819938;
REPSWITCH1/PICTURE_719.png;baño;speak;gold;filler;2;F;1;2;3;1;Stim2_Set4;0;None;16;15;16;0;15;15;15;;;;;;;;;;;;;;;;;;;;;;;85.8237466;86.9349773;86.9349773;86.9349773;86.9349773;86.9349773;86.9349773;86.9349773;86.9349773;None;0;;;C:\2023\REPSWITCH21092023\REPSWITCH_excgange\REPSWITCH_excgange\data/210103_REPSWITCH1_version1_list3_2023-12-01_11h22.53.067_micRespv1l3_recorded\recording_micRespv1l3_2023-12-01_11h24.15.788.wav;89.9631804;;None;89.9631804;89.9631804;89.9631804;89.9631804;89.9631804;89.9631804;;;;;;210103;1;2023-12-01_11h22.53.067;REPSWITCH1_version1_list3;2022.2.4;143.8819938;
REPSWITCH1/PICTURE_169.png;espalda;type;darkblue;nontarget;1;NT;1;2;3;1;Stim8_Set1;1;switch;17;16;17;0;16;16;16;;;;;;;;;;;;;;;;;;;;;;;90.4632901;91.5744895;91.5744895;91.5744895;91.5744895;91.5744895;91.5744895;91.5744895;91.5744895;['e', 's', 'p', 'a', 'l', 'd', 'a'];0;[0.8983520001638681, 1.0890763001516461, 1.2796661001630127, 1.384531200164929, 1.583821500185877, 1.6745524001307786, 1.7502945000305772];espalda;C:\2023\REPSWITCH21092023\REPSWITCH_excgange\REPSWITCH_excgange\data/210103_REPSWITCH1_version1_list3_2023-12-01_11h22.53.067_micRespv1l3_recorded\recording_micRespv1l3_2023-12-01_11h24.20.427.wav;94.5957392;95.0957956;None;94.5957392;94.5957392;94.5957392;94.5957392;94.5957392;94.5957392;;;;;;210103;1;2023-12-01_11h22.53.067;REPSWITCH1_version1_list3;2022.2.4;143.8819938;
REPSWITCH1/PICTURE_169.png;espalda;type;darkblue;repeat;1;T;1;2;3;1;Stim8_Set1;0;None;18;17;18;0;17;17;17;;;;;;;;;;;;;;;;;;;;;;;95.0957956;96.1307148;96.1307148;96.1307148;96.1307148;96.1307148;96.1307148;96.1307148;96.1307148;['e', 's', 'p', 'a', 'l', 'd', 'a'];0;[1.574967300053686, 1.7703104000538588, 1.96065660007298, 2.0563294000457972, 2.2327998999971896, 2.3264800999313593, 2.3962286000605673];espalda;C:\2023\REPSWITCH21092023\REPSWITCH_excgange\REPSWITCH_excgange\data/210103_REPSWITCH1_version1_list3_2023-12-01_11h22.53.067_micRespv1l3_recorded\recording_micRespv1l3_2023-12-01_11h24.24.984.wav;99.1588829;;None;99.1588829;99.1588829;99.1588829;99.1588829;99.1588829;99.1588829;;;;;;210103;1;2023-12-01_11h22.53.067;REPSWITCH1_version1_list3;2022.2.4;143.8819938;
REPSWITCH1/PICTURE_48.png;bombero;speak;gold;filler;2;F;1;2;3;1;Stim7_Set4;1;switch;19;18;19;0;18;18;18;;;;;;;;;;;;;;;;;;;;;;;99.6588997;100.7215664;100.7215664;100.7215664;100.7215664;100.7215664;100.7215664;100.7215664;100.7215664;None;0;;;C:\2023\REPSWITCH21092023\REPSWITCH_excgange\REPSWITCH_excgange\data/210103_REPSWITCH1_version1_list3_2023-12-01_11h22.53.067_micRespv1l3_recorded\recording_micRespv1l3_2023-12-01_11h24.29.575.wav;103.7497857;;None;103.7497857;103.7497857;103.7497857;103.7497857;103.7497857;103.7497857;;;;;;210103;1;2023-12-01_11h22.53.067;REPSWITCH1_version1_list3;2022.2.4;143.8819938;
REPSWITCH1/PICTURE_19.png;pavo;type;darkblue;nontarget;1;NT;1;2;3;1;Stim5_Set1;1;switch;20;19;20;0;19;19;19;;;;;;;;;;;;;;;;;;;;;;;104.2497752;105.367973;105.367973;105.367973;105.367973;105.367973;105.367973;105.367973;105.367973;['p', 'a', 'v', 'o'];0;[0.8037726001348346, 0.918357599992305, 1.1335427002049983, 1.2890817001461983];pavo;C:\2023\REPSWITCH21092023\REPSWITCH_excgange\REPSWITCH_excgange\data/210103_REPSWITCH1_version1_list3_2023-12-01_11h22.53.067_micRespv1l3_recorded\recording_micRespv1l3_2023-12-01_11h24.34.221.wav;108.3961544;;None;108.3961544;108.3961544;108.3961544;108.3961544;108.3961544;108.3961544;;;;;;210103;1;2023-12-01_11h22.53.067;REPSWITCH1_version1_list3;2022.2.4;143.8819938;
REPSWITCH1/PICTURE_19.png;pavo;type;darkblue;repeat;1;T;1;2;3;1;Stim5_Set1;0;None;21;20;21;0;20;20;20;;;;;;;;;;;;;;;;;;;;;;;108.8961945;109.9380351;109.9380351;109.9380351;109.9380351;109.9380351;109.9380351;109.9380351;109.9380351;['p', 'a', 'v', 'o'];0;[1.1664456999860704, 1.2694853998254985, 1.4954322997946292, 1.6099381998647004];pavo;C:\2023\REPSWITCH21092023\REPSWITCH_excgange\REPSWITCH_excgange\data/210103_REPSWITCH1_version1_list3_2023-12-01_11h22.53.067_micRespv1l3_recorded\recording_micRespv1l3_2023-12-01_11h24.38.792.wav;112.9661986;;None;112.9661986;112.9661986;112.9661986;112.9661986;112.9661986;112.9661986;;;;;;210103;1;2023-12-01_11h22.53.067;REPSWITCH1_version1_list3;2022.2.4;143.8819938;
REPSWITCH1/PICTURE_319.png;vaca;speak;gold;filler;2;F;1;2;3;1;Stim1_Set4;0;None;22;21;22;0;21;21;21;;;;;;;;;;;;;;;;;;;;;;;113.4662388;114.5706119;114.5706119;114.5706119;114.5706119;114.5706119;114.5706119;114.5706119;114.5706119;None;0;;;C:\2023\REPSWITCH21092023\REPSWITCH_excgange\REPSWITCH_excgange\data/210103_REPSWITCH1_version1_list3_2023-12-01_11h22.53.067_micRespv1l3_recorded\recording_micRespv1l3_2023-12-01_11h24.43.423.wav;117.5918508;118.0918758;None;117.5918508;117.5918508;117.5918508;117.5918508;117.5918508;117.5918508;;;;;;210103;1;2023-12-01_11h22.53.067;REPSWITCH1_version1_list3;2022.2.4;143.8819938;
REPSWITCH1/PICTURE_338.png;regalo;type;darkblue;filler;1;F;1;2;3;1;Stim6_Set4;0;None;23;22;23;0;22;22;22;;;;;;;;;;;;;;;;;;;;;;;118.0918758;119.2239775;119.2239775;119.2239775;119.2239775;119.2239775;119.2239775;119.2239775;119.2239775;['r', 'e', 'g', 'a', 'l', 'o'];0;[0.8971365999896079, 1.0436156999785453, 1.2822124001104385, 1.4018514999188483, 1.618898899992928, 1.8511153999716043];regalo;C:\2023\REPSWITCH21092023\REPSWITCH_excgange\REPSWITCH_excgange\data/210103_REPSWITCH1_version1_list3_2023-12-01_11h22.53.067_micRespv1l3_recorded\recording_micRespv1l3_2023-12-01_11h24.48.078.wav;122.2521038;122.7521795;None;122.2521038;122.2521038;122.2521038;122.2521038;122.2521038;122.2521038;;;;;;210103;1;2023-12-01_11h22.53.067;REPSWITCH1_version1_list3;2022.2.4;143.8819938;
REPSWITCH1/PICTURE_142.png;vaso;type;darkblue;nontarget;1;NT;1;2;3;1;Stim7_Set1;0;None;24;23;24;0;23;23;23;;;;;;;;;;;;;;;;;;;;;;;122.7521795;123.7940235;123.7940235;123.7940235;123.7940235;123.7940235;123.7940235;123.7940235;123.7940235;['v', 'a', 's', 'o'];0;[1.6379790999926627, 1.7209805001039058, 1.9482128999661654, 2.0602318001911044];vaso;C:\2023\REPSWITCH21092023\REPSWITCH_excgange\REPSWITCH_excgange\data/210103_REPSWITCH1_version1_list3_2023-12-01_11h22.53.067_micRespv1l3_recorded\recording_micRespv1l3_2023-12-01_11h24.52.648.wav;126.8221665;;None;126.8221665;126.8221665;126.8221665;126.8221665;126.8221665;126.8221665;;;;;;210103;1;2023-12-01_11h22.53.067;REPSWITCH1_version1_list3;2022.2.4;143.8819938;
REPSWITCH1/PICTURE_142.png;vaso;speak;gold;switch;2;T;1;2;3;1;Stim7_Set1;0;None;25;24;25;0;24;24;24;;;;;;;;;;;;;;;;;;;;;;;127.3222219;128.3779516;128.3779516;128.3779516;128.3779516;128.3779516;128.3779516;128.3779516;128.3779516;None;0;;;C:\2023\REPSWITCH21092023\REPSWITCH_excgange\REPSWITCH_excgange\data/210103_REPSWITCH1_version1_list3_2023-12-01_11h22.53.067_micRespv1l3_recorded\recording_micRespv1l3_2023-12-01_11h24.57.232.wav;131.4061548;;None;131.4061548;131.4061548;131.4061548;131.4061548;131.4061548;131.4061548;;;;;;210103;1;2023-12-01_11h22.53.067;REPSWITCH1_version1_list3;2022.2.4;143.8819938;
REPSWITCH1/PICTURE_687.png;camisa;type;darkblue;filler;1;F;1;2;3;1;Stim5_Set4;1;switch;26;25;26;0;25;25;25;;;;;;;;;;;;;;;;;;;;;;;131.9061851;132.9688657;132.9688657;132.9688657;132.9688657;132.9688657;132.9688657;132.9688657;132.9688657;['c', 'a', 'm', 'i', 's', 'a'];0;[1.1046086000278592, 1.1883513000793755, 1.4647681000642478, 1.5482038999907672, 1.6598710000980645, 1.7375553001184016];camisa;C:\2023\REPSWITCH21092023\REPSWITCH_excgange\REPSWITCH_excgange\data/210103_REPSWITCH1_version1_list3_2023-12-01_11h22.53.067_micRespv1l3_recorded\recording_micRespv1l3_2023-12-01_11h25.01.821.wav;135.9970567;;None;135.9970567;135.9970567;135.9970567;135.9970567;135.9970567;135.9970567;;;;;;210103;1;2023-12-01_11h22.53.067;REPSWITCH1_version1_list3;2022.2.4;143.8819938;
REPSWITCH1/PICTURE_30.png;granja;type;darkblue;nontarget;1;NT;2;2;3;1;Stim5_Set2;0;None;27;26;27;0;26;26;26;;;;;;;;;;;;;;;;;;;;;;;136.4970501;137.6083049;137.6083049;137.6083049;137.6083049;137.6083049;137.6083049;137.6083049;137.6083049;['g', 'r', 'a', 'n', 'j', 'a'];0;[1.4042630000039935, 1.6499302999582142, 1.8725022000726312, 2.0509522000793368, 2.365112300030887, 2.4418587000109255];granja;C:\2023\REPSWITCH21092023\REPSWITCH_excgange\REPSWITCH_excgange\data/210103_REPSWITCH1_version1_list3_2023-12-01_11h22.53.067_micRespv1l3_recorded\recording_micRespv1l3_2023-12-01_11h25.06.463.wav;140.6364925;141.1365568;None;140.6364925;140.6364925;140.6364925;140.6364925;140.6364925;140.6364925;;;;;;210103;1;2023-12-01_11h22.53.067;REPSWITCH1_version1_list3;2022.2.4;143.8819938;
REPSWITCH1/PICTURE_30.png;granja;type;darkblue;repeat;1;T;2;2;3;1;Stim5_Set2;0;None;28;27;28;0;27;27;27;;;;;;;;;;;;;;;;;;;;;;;141.1365568;142.1644955;142.1644955;142.1644955;142.1644955;142.1644955;142.1644955;142.1644955;142.1644955;['g', 'r', 'a', 'n', 'j', 'a'];0;[0.7294980001170188, 0.9502793001011014, 1.0539247000124305, 1.211407900089398, 1.4685329000931233, 1.5193597001489252];granja;C:\2023\REPSWITCH21092023\REPSWITCH_excgange\REPSWITCH_excgange\data/210103_REPSWITCH1_version1_list3_2023-12-01_11h22.53.067_micRespv1l3_recorded\recording_micRespv1l3_2023-12-01_11h25.11.018.wav;145.1926464;;None;145.1926464;145.1926464;145.1926464;145.1926464;145.1926464;145.1926464;;;;;;210103;1;2023-12-01_11h22.53.067;REPSWITCH1_version1_list3;2022.2.4;143.8819938;
REPSWITCH1/PICTURE_128.png;muñeca;speak;gold;filler;2;F;2;2;3;1;Stim4_Set1;0;None;29;28;29;0;28;28;28;;;;;;;;;;;;;;;;;;;;;;;145.6927142;146.7483926;146.7483926;146.7483926;146.7483926;146.7483926;146.7483926;146.7483926;146.7483926;None;0;;;C:\2023\REPSWITCH21092023\REPSWITCH_excgange\REPSWITCH_excgange\data/210103_REPSWITCH1_version1_list3_2023-12-01_11h22.53.067_micRespv1l3_recorded\recording_micRespv1l3_2023-12-01_11h25.15.602.wav;149.7765751;;None;149.7765751;149.7765751;149.7765751;149.7765751;149.7765751;149.7765751;;;;;;210103;1;2023-12-01_11h22.53.067;REPSWITCH1_version1_list3;2022.2.4;143.8819938;
REPSWITCH1/PICTURE_264.png;mano;type;darkblue;nontarget;1;NT;2;2;3;1;Stim3_Set2;1;switch;30;29;30;0;29;29;29;;;;;;;;;;;;;;;;;;;;;;;150.2766489;151.3740303;151.3740303;151.3740303;151.3740303;151.3740303;151.3740303;151.3740303;151.3740303;['m', 'a', 'n', 'o'];0;[0.8272885999176651, 0.9817673999350518, 1.1073600000236183, 1.2305387000087649];mano;C:\2023\REPSWITCH21092023\REPSWITCH_excgange\REPSWITCH_excgange\data/210103_REPSWITCH1_version1_list3_2023-12-01_11h22.53.067_micRespv1l3_recorded\recording_micRespv1l3_2023-12-01_11h25.20.227.wav;154.3952169;154.8952821;None;154.3952169;154.3952169;154.3952169;154.3952169;154.3952169;154.3952169;;;;;;210103;1;2023-12-01_11h22.53.067;REPSWITCH1_version1_list3;2022.2.4;143.8819938;
REPSWITCH1/PICTURE_264.png;mano;type;darkblue;repeat;1;T;2;2;3;1;Stim3_Set2;0;None;31;30;31;0;30;30;30;;;;;;;;;;;;;;;;;;;;;;;154.8952821;155.9302255;155.9302255;155.9302255;155.9302255;155.9302255;155.9302255;155.9302255;155.9302255;['m', 'a', 'n', 'o'];0;[0.8014320998918265, 0.9748476999811828, 1.1206022000405937, 1.2332130998838693];mano;C:\2023\REPSWITCH21092023\REPSWITCH_excgange\REPSWITCH_excgange\data/210103_REPSWITCH1_version1_list3_2023-12-01_11h22.53.067_micRespv1l3_recorded\recording_micRespv1l3_2023-12-01_11h25.24.783.wav;158.9514045;159.4514609;None;158.9514045;158.9514045;158.9514045;158.9514045;158.9514045;158.9514045;;;;;;210103;1;2023-12-01_11h22.53.067;REPSWITCH1_version1_list3;2022.2.4;143.8819938;
REPSWITCH1/PICTURE_175.png;pintor;type;darkblue;nontarget;1;NT;2;2;3;1;Stim1_Set2;0;None;32;31;32;0;31;31;31;;;;;;;;;;;;;;;;;;;;;;;159.4514609;160.5558225;160.5558225;160.5558225;160.5558225;160.5558225;160.5558225;160.5558225;160.5558225;['p', 'i', 'n', 't', 'o', 'r'];0;[1.0223409000318497, 1.2537831999361515, 1.3813127998728305, 1.5268645000178367, 1.6467746999114752, 1.7533911999780685];pintor;C:\2023\REPSWITCH21092023\REPSWITCH_excgange\REPSWITCH_excgange\data/210103_REPSWITCH1_version1_list3_2023-12-01_11h22.53.067_micRespv1l3_recorded\recording_micRespv1l3_2023-12-01_11h25.29.409.wav;163.584019;;None;163.584019;163.584019;163.584019;163.584019;163.584019;163.584019;;;;;;210103;1;2023-12-01_11h22.53.067;REPSWITCH1_version1_list3;2022.2.4;143.8819938;
REPSWITCH1/PICTURE_175.png;pintor;speak;gold;switch;2;T;2;2;3;1;Stim1_Set2;0;None;33;32;33;0;32;32;32;;;;;;;;;;;;;;;;;;;;;;;164.0840057;165.2299758;165.2299758;165.2299758;165.2299758;165.2299758;165.2299758;165.2299758;165.2299758;None;0;;;C:\2023\REPSWITCH21092023\REPSWITCH_excgange\REPSWITCH_excgange\data/210103_REPSWITCH1_version1_list3_2023-12-01_11h22.53.067_micRespv1l3_recorded\recording_micRespv1l3_2023-12-01_11h25.34.083.wav;168.2512035;168.751255;None;168.2512035;168.2512035;168.2512035;168.2512035;168.2512035;168.2512035;;;;;;210103;1;2023-12-01_11h22.53.067;REPSWITCH1_version1_list3;2022.2.4;143.8819938;
REPSWITCH1/PICTURE_135.png;traje;speak;gold;filler;2;F;2;2;3;1;Stim3_Set1;1;repeat;34;33;34;0;33;33;33;;;;;;;;;;;;;;;;;;;;;;;168.751255;169.8486363;169.8486363;169.8486363;169.8486363;169.8486363;169.8486363;169.8486363;169.8486363;None;0;;;C:\2023\REPSWITCH21092023\REPSWITCH_excgange\REPSWITCH_excgange\data/210103_REPSWITCH1_version1_list3_2023-12-01_11h22.53.067_micRespv1l3_recorded\recording_micRespv1l3_2023-12-01_11h25.38.702.wav;172.8699424;173.369959;None;172.8699424;172.8699424;172.8699424;172.8699424;172.8699424;172.8699424;;;;;;210103;1;2023-12-01_11h22.53.067;REPSWITCH1_version1_list3;2022.2.4;143.8819938;
REPSWITCH1/PICTURE_446.png;cerdo;speak;gold;nontarget;2;NT;2;2;3;1;Stim7_Set2;1;repeat;35;34;35;0;34;34;34;;;;;;;;;;;;;;;;;;;;;;;173.369959;174.3909158;174.3909158;174.3909158;174.3909158;174.3909158;174.3909158;174.3909158;174.3909158;None;0;;;C:\2023\REPSWITCH21092023\REPSWITCH_excgange\REPSWITCH_excgange\data/210103_REPSWITCH1_version1_list3_2023-12-01_11h22.53.067_micRespv1l3_recorded\recording_micRespv1l3_2023-12-01_11h25.43.243.wav;177.4121274;177.912252;None;177.4121274;177.4121274;177.4121274;177.4121274;177.4121274;177.4121274;;;;;;210103;1;2023-12-01_11h22.53.067;REPSWITCH1_version1_list3;2022.2.4;143.8819938;
REPSWITCH1/PICTURE_446.png;cerdo;type;darkblue;switch;1;T;2;2;3;1;Stim7_Set2;0;None;36;35;36;0;35;35;35;;;;;;;;;;;;;;;;;;;;;;;177.912252;179.0512679;179.0512679;179.0512679;179.0512679;179.0512679;179.0512679;179.0512679;179.0512679;['c', 'e', 'r', 'd', 'o'];0;[0.6998091000132263, 0.9699067999608815, 1.1064766999334097, 1.347965900087729, 1.4748297000769526];cerdo;C:\2023\REPSWITCH21092023\REPSWITCH_excgange\REPSWITCH_excgange\data/210103_REPSWITCH1_version1_list3_2023-12-01_11h22.53.067_micRespv1l3_recorded\recording_micRespv1l3_2023-12-01_11h25.47.905.wav;182.0794366;;None;182.0794366;182.0794366;182.0794366;182.0794366;182.0794366;182.0794366;;;;;;210103;1;2023-12-01_11h22.53.067;REPSWITCH1_version1_list3;2022.2.4;143.8819938;
REPSWITCH1/PICTURE_152.png;caracol;type;darkblue;nontarget;1;NT;2;2;3;1;Stim2_Set2;1;repeat;37;36;37;0;36;36;36;;;;;;;;;;;;;;;;;;;;;;;182.579484;183.6491494;183.6491494;183.6491494;183.6491494;183.6491494;183.6491494;183.6491494;183.6491494;['c', 'a', 'r', 'a', 'c', 'o', 'l'];0;[0.7521784000564367, 0.8787330000195652, 1.0562232001684606, 1.1798233999870718, 1.421968000009656, 1.5336148000787944, 1.7406073999591172];caracol;C:\2023\REPSWITCH21092023\REPSWITCH_excgange\REPSWITCH_excgange\data/210103_REPSWITCH1_version1_list3_2023-12-01_11h22.53.067_micRespv1l3_recorded\recording_micRespv1l3_2023-12-01_11h25.52.503.wav;186.6772971;;None;186.6772971;186.6772971;186.6772971;186.6772971;186.6772971;186.6772971;;;;;;210103;1;2023-12-01_11h22.53.067;REPSWITCH1_version1_list3;2022.2.4;143.8819938;
REPSWITCH1/PICTURE_152.png;caracol;speak;gold;switch;2;T;2;2;3;1;Stim2_Set2;0;None;38;37;38;0;37;37;37;;;;;;;;;;;;;;;;;;;;;;;187.1773118;188.30246;188.30246;188.30246;188.30246;188.30246;188.30246;188.30246;188.30246;None;0;;;C:\2023\REPSWITCH21092023\REPSWITCH_excgange\REPSWITCH_excgange\data/210103_REPSWITCH1_version1_list3_2023-12-01_11h22.53.067_micRespv1l3_recorded\recording_micRespv1l3_2023-12-01_11h25.57.156.wav;191.3236625;191.8237661;None;191.3236625;191.3236625;191.3236625;191.3236625;191.3236625;191.3236625;;;;;;210103;1;2023-12-01_11h22.53.067;REPSWITCH1_version1_list3;2022.2.4;143.8819938;
REPSWITCH1/PICTURE_16.png;cazador;type;darkblue;filler;1;F;2;2;3;1;Stim6_Set1;0;None;39;38;39;0;38;38;38;;;;;;;;;;;;;;;;;;;;;;;191.8237661;192.8933888;192.8933888;192.8933888;192.8933888;192.8933888;192.8933888;192.8933888;192.8933888;['c', 'a', 'z', 'a', 'd', 'o', 'r'];0;[0.935476099839434, 1.0322064999490976, 1.3611192998941988, 1.6194584998302162, 1.805059699807316, 1.9236255998257548, 2.049222899833694];cazador;C:\2023\REPSWITCH21092023\REPSWITCH_excgange\REPSWITCH_excgange\data/210103_REPSWITCH1_version1_list3_2023-12-01_11h22.53.067_micRespv1l3_recorded\recording_micRespv1l3_2023-12-01_11h26.01.747.wav;195.9215462;;None;195.9215462;195.9215462;195.9215462;195.9215462;195.9215462;195.9215462;;;;;;210103;1;2023-12-01_11h22.53.067;REPSWITCH1_version1_list3;2022.2.4;143.8819938;
REPSWITCH1/PICTURE_381.png;fresa;speak;gold;filler;2;F;2;2;3;1;Stim2_Set1;0;None;40;39;40;0;39;39;39;;;;;;;;;;;;;;;;;;;;;;;196.4215889;197.5189305;197.5189305;197.5189305;197.5189305;197.5189305;197.5189305;197.5189305;197.5189305;None;0;;;C:\2023\REPSWITCH21092023\REPSWITCH_excgange\REPSWITCH_excgange\data/210103_REPSWITCH1_version1_list3_2023-12-01_11h22.53.067_micRespv1l3_recorded\recording_micRespv1l3_2023-12-01_11h26.06.371.wav;200.5402297;201.0402331;None;200.5402297;200.5402297;200.5402297;200.5402297;200.5402297;200.5402297;;;;;;210103;1;2023-12-01_11h22.53.067;REPSWITCH1_version1_list3;2022.2.4;143.8819938;
REPSWITCH1/PICTURE_19.png;pavo;type;darkblue;filler;1;F;2;2;3;1;Stim5_Set1;0;None;41;40;41;0;40;40;40;;;;;;;;;;;;;;;;;;;;;;;201.0402331;202.1237538;202.1237538;202.1237538;202.1237538;202.1237538;202.1237538;202.1237538;202.1237538;['p', 'a', 'v', 'o'];0;[0.8101842999458313, 0.9241271999198943, 1.0686047000344843, 1.1957381998654455];pavo;C:\2023\REPSWITCH21092023\REPSWITCH_excgange\REPSWITCH_excgange\data/210103_REPSWITCH1_version1_list3_2023-12-01_11h22.53.067_micRespv1l3_recorded\recording_micRespv1l3_2023-12-01_11h26.10.977.wav;205.1449319;205.64501;None;205.1449319;205.1449319;205.1449319;205.1449319;205.1449319;205.1449319;;;;;;210103;1;2023-12-01_11h22.53.067;REPSWITCH1_version1_list3;2022.2.4;143.8819938;
REPSWITCH1/PICTURE_517.png;cuerda;speak;gold;nontarget;2;NT;2;2;3;1;Stim4_Set2;1;switch;42;41;42;0;41;41;41;;;;;;;;;;;;;;;;;;;;;;;205.64501;206.679914;206.679914;206.679914;206.679914;206.679914;206.679914;206.679914;206.679914;None;0;;;C:\2023\REPSWITCH21092023\REPSWITCH_excgange\REPSWITCH_excgange\data/210103_REPSWITCH1_version1_list3_2023-12-01_11h22.53.067_micRespv1l3_recorded\recording_micRespv1l3_2023-12-01_11h26.15.534.wav;209.7080518;;None;209.7080518;209.7080518;209.7080518;209.7080518;209.7080518;209.7080518;;;;;;210103;1;2023-12-01_11h22.53.067;REPSWITCH1_version1_list3;2022.2.4;143.8819938;
REPSWITCH1/PICTURE_517.png;cuerda;speak;gold;repeat;2;T;2;2;3;1;Stim4_Set2;0;None;43;42;43;0;42;42;42;;;;;;;;;;;;;;;;;;;;;;;210.2080959;211.2915818;211.2915818;211.2915818;211.2915818;211.2915818;211.2915818;211.2915818;211.2915818;None;0;;;C:\2023\REPSWITCH21092023\REPSWITCH_excgange\REPSWITCH_excgange\data/210103_REPSWITCH1_version1_list3_2023-12-01_11h22.53.067_micRespv1l3_recorded\recording_micRespv1l3_2023-12-01_11h26.20.144.wav;214.3128181;214.8129681;None;214.3128181;214.3128181;214.3128181;214.3128181;214.3128181;214.3128181;;;;;;210103;1;2023-12-01_11h22.53.067;REPSWITCH1_version1_list3;2022.2.4;143.8819938;
REPSWITCH1/PICTURE_178.png;puente;type;darkblue;filler;1;F;2;2;3;1;Stim1_Set1;0;None;44;43;44;0;43;43;43;;;;;;;;;;;;;;;;;;;;;;;214.8129681;216.0214524;216.0214524;216.0214524;216.0214524;216.0214524;216.0214524;216.0214524;216.0214524;['p', 'u', 'e', 'n', 't', 'e'];0;[0.9572229001205415, 1.2711308000143617, 1.5183311002328992, 1.6100285002030432, 1.7744726000819355, 1.8571960001718253];puente;C:\2023\REPSWITCH21092023\REPSWITCH_excgange\REPSWITCH_excgange\data/210103_REPSWITCH1_version1_list3_2023-12-01_11h22.53.067_micRespv1l3_recorded\recording_micRespv1l3_2023-12-01_11h26.24.875.wav;219.0496177;;None;219.0496177;219.0496177;219.0496177;219.0496177;219.0496177;219.0496177;;;;;;210103;1;2023-12-01_11h22.53.067;REPSWITCH1_version1_list3;2022.2.4;143.8819938;
REPSWITCH1/PICTURE_199.png;falda;speak;gold;nontarget;2;NT;2;2;3;1;Stim8_Set2;1;switch;45;44;45;0;44;44;44;;;;;;;;;;;;;;;;;;;;;;;219.5496192;220.6469775;220.6469775;220.6469775;220.6469775;220.6469775;220.6469775;220.6469775;220.6469775;None;0;;;C:\2023\REPSWITCH21092023\REPSWITCH_excgange\REPSWITCH_excgange\data/210103_REPSWITCH1_version1_list3_2023-12-01_11h22.53.067_micRespv1l3_recorded\recording_micRespv1l3_2023-12-01_11h26.29.500.wav;223.6752141;224.1752123;None;223.6752141;223.6752141;223.6752141;223.6752141;223.6752141;223.6752141;;;;;;210103;1;2023-12-01_11h22.53.067;REPSWITCH1_version1_list3;2022.2.4;143.8819938;
REPSWITCH1/PICTURE_199.png;falda;speak;gold;repeat;2;T;2;2;3;1;Stim8_Set2;0;None;46;45;46;0;45;45;45;;;;;;;;;;;;;;;;;;;;;;;224.1752123;225.2517524;225.2517524;225.2517524;225.2517524;225.2517524;225.2517524;225.2517524;225.2517524;None;0;;;C:\2023\REPSWITCH21092023\REPSWITCH_excgange\REPSWITCH_excgange\data/210103_REPSWITCH1_version1_list3_2023-12-01_11h22.53.067_micRespv1l3_recorded\recording_micRespv1l3_2023-12-01_11h26.34.105.wav;228.2729929;228.7730644;None;228.2729929;228.2729929;228.2729929;228.2729929;228.2729929;228.2729929;;;;;;210103;1;2023-12-01_11h22.53.067;REPSWITCH1_version1_list3;2022.2.4;143.8819938;
REPSWITCH1/PICTURE_169.png;espalda;type;darkblue;filler;1;F;2;2;3;1;Stim8_Set1;0;None;47;46;47;0;46;46;46;;;;;;;;;;;;;;;;;;;;;;;228.7730644;229.9120918;229.9120918;229.9120918;229.9120918;229.9120918;229.9120918;229.9120918;229.9120918;['e', 's', 'p', 'a', 'l', 'd', 'a'];0;[0.8186757999937981, 1.1239241999574006, 1.3962971998844296, 1.5239099999889731, 1.6893437998369336, 1.7843303999397904, 1.871905299834907];espalda;C:\2023\REPSWITCH21092023\REPSWITCH_excgange\REPSWITCH_excgange\data/210103_REPSWITCH1_version1_list3_2023-12-01_11h22.53.067_micRespv1l3_recorded\recording_micRespv1l3_2023-12-01_11h26.38.765.wav;232.9333969;233.433394;None;232.9333969;232.9333969;232.9333969;232.9333969;232.9333969;232.9333969;;;;;;210103;1;2023-12-01_11h22.53.067;REPSWITCH1_version1_list3;2022.2.4;143.8819938;
REPSWITCH1/PICTURE_142.png;vaso;speak;gold;filler;2;F;2;2;3;1;Stim7_Set1;0;None;48;47;48;0;47;47;47;;;;;;;;;;;;;;;;;;;;;;;233.433394;234.7044511;234.7044511;234.7044511;234.7044511;234.7044511;234.7044511;234.7044511;234.7044511;None;0;;;C:\2023\REPSWITCH21092023\REPSWITCH_excgange\REPSWITCH_excgange\data/210103_REPSWITCH1_version1_list3_2023-12-01_11h22.53.067_micRespv1l3_recorded\recording_micRespv1l3_2023-12-01_11h26.43.557.wav;237.7325677;;None;237.7325677;237.7325677;237.7325677;237.7325677;237.7325677;237.7325677;;;;;;210103;1;2023-12-01_11h22.53.067;REPSWITCH1_version1_list3;2022.2.4;143.8819938;
REPSWITCH1/PICTURE_552.png;manzana;speak;gold;nontarget;2;NT;2;2;3;1;Stim6_Set2;0;None;49;48;49;0;48;48;48;;;;;;;;;;;;;;;;;;;;;;;238.2326339;239.2744217;239.2744217;239.2744217;239.2744217;239.2744217;239.2744217;239.2744217;239.2744217;None;0;;;C:\2023\REPSWITCH21092023\REPSWITCH_excgange\REPSWITCH_excgange\data/210103_REPSWITCH1_version1_list3_2023-12-01_11h22.53.067_micRespv1l3_recorded\recording_micRespv1l3_2023-12-01_11h26.48.128.wav;242.2956356;242.7957334;None;242.2956356;242.2956356;242.2956356;242.2956356;242.2956356;242.2956356;;;;;;210103;1;2023-12-01_11h22.53.067;REPSWITCH1_version1_list3;2022.2.4;143.8819938;
REPSWITCH1/PICTURE_552.png;manzana;type;darkblue;switch;1;T;2;2;3;1;Stim6_Set2;0;None;50;49;50;0;49;49;49;;;;;;;;;;;;;;;;;;;;;;;242.7957334;243.8167493;243.8167493;243.8167493;243.8167493;243.8167493;243.8167493;243.8167493;243.8167493;['m', 'a', 'n', 'z', 'a', 'n', 'a'];0;[0.9674849000293761, 1.1489190999418497, 1.3251738001126796, 1.468751800013706, 1.712874999968335, 2.342818600125611, 2.4480972001329064];manzana;C:\2023\REPSWITCH21092023\REPSWITCH_excgange\REPSWITCH_excgange\data/210103_REPSWITCH1_version1_list3_2023-12-01_11h22.53.067_micRespv1l3_recorded\recording_micRespv1l3_2023-12-01_11h26.52.670.wav;246.8379006;247.3380699;None;246.8379006;246.8379006;246.8379006;246.8379006;246.8379006;246.8379006;;;;;;210103;1;2023-12-01_11h22.53.067;REPSWITCH1_version1_list3;2022.2.4;143.8819938;
REPSWITCH1/PICTURE_590.png;escoba;speak;gold;filler;2;F;1;2;3;1;Extra3;0;None;51;50;51;0;50;50;50;;;;;;;;;;;;;;;;;;;;;;;247.3380699;248.3728858;248.3728858;248.3728858;248.3728858;248.3728858;248.3728858;248.3728858;248.3728858;None;0;;;C:\2023\REPSWITCH21092023\REPSWITCH_excgange\REPSWITCH_excgange\data/210103_REPSWITCH1_version1_list3_2023-12-01_11h22.53.067_micRespv1l3_recorded\recording_micRespv1l3_2023-12-01_11h26.57.227.wav;251.4010387;;space;251.4010387;251.4010387;251.4010387;251.4010387;251.4010387;251.4010387;251.9010762;251.9010762;1.4716845;;;210103;1;2023-12-01_11h22.53.067;REPSWITCH1_version1_list3;2022.2.4;143.8819938;
REPSWITCH1/PICTURE_552.png;manzana;type;darkblue;filler;1;F;3;2;3;1;Stim6_Set2;0;None;52;51;52;0;51;51;51;;;;;;;;;;;;;;;;;;;;;;;253.3804561;254.4987317;254.4987317;254.4987317;254.4987317;254.4987317;254.4987317;254.4987317;254.4987317;['m', 'a', 'n', 'z', 'a', 'n', 'a'];0;[1.4129478998947889, 1.5354770999401808, 1.6650338999461383, 1.8015811999794096, 2.0214933999814093, 2.0942122999113053, 2.2268205999862403];manzana;C:\2023\REPSWITCH21092023\REPSWITCH_excgange\REPSWITCH_excgange\data/210103_REPSWITCH1_version1_list3_2023-12-01_11h22.53.067_micRespv1l3_recorded\recording_micRespv1l3_2023-12-01_11h27.03.352.wav;257.519897;258.0200311;None;257.519897;257.519897;257.519897;257.519897;257.519897;257.519897;;;;;;210103;1;2023-12-01_11h22.53.067;REPSWITCH1_version1_list3;2022.2.4;143.8819938;
REPSWITCH1/PICTURE_464.png;goma;type;darkblue;nontarget;1;NT;3;2;3;1;Stim6_Set3;1;repeat;53;52;53;0;52;52;52;;;;;;;;;;;;;;;;;;;;;;;258.0200311;259.2562084;259.2562084;259.2562084;259.2562084;259.2562084;259.2562084;259.2562084;259.2562084;['g', 'o', 'm', 'a'];0;[1.508741700090468, 1.6034176999237388, 1.700347299920395, 1.8019709000363946];goma;C:\2023\REPSWITCH21092023\REPSWITCH_excgange\REPSWITCH_excgange\data/210103_REPSWITCH1_version1_list3_2023-12-01_11h22.53.067_micRespv1l3_recorded\recording_micRespv1l3_2023-12-01_11h27.08.109.wav;262.2774658;262.7775341;None;262.2774658;262.2774658;262.2774658;262.2774658;262.2774658;262.2774658;;;;;;210103;1;2023-12-01_11h22.53.067;REPSWITCH1_version1_list3;2022.2.4;143.8819938;
REPSWITCH1/PICTURE_464.png;goma;speak;gold;switch;2;T;3;2;3;1;Stim6_Set3;0;None;54;53;54;0;53;53;53;;;;;;;;;;;;;;;;;;;;;;;262.7775341;263.9374565;263.9374565;263.9374565;263.9374565;263.9374565;263.9374565;263.9374565;263.9374565;None;0;;;C:\2023\REPSWITCH21092023\REPSWITCH_excgange\REPSWITCH_excgange\data/210103_REPSWITCH1_version1_list3_2023-12-01_11h22.53.067_micRespv1l3_recorded\recording_micRespv1l3_2023-12-01_11h27.12.790.wav;266.9587089;267.4586869;None;266.9587089;266.9587089;266.9587089;266.9587089;266.9587089;266.9587089;;;;;;210103;1;2023-12-01_11h22.53.067;REPSWITCH1_version1_list3;2022.2.4;143.8819938;
REPSWITCH1/PICTURE_30.png;granja;speak;gold;filler;2;F;3;2;3;1;Stim5_Set2;0;None;55;54;55;0;54;54;54;;;;;;;;;;;;;;;;;;;;;;;267.4586869;268.5213621;268.5213621;268.5213621;268.5213621;268.5213621;268.5213621;268.5213621;268.5213621;None;0;;;C:\2023\REPSWITCH21092023\REPSWITCH_excgange\REPSWITCH_excgange\data/210103_REPSWITCH1_version1_list3_2023-12-01_11h22.53.067_micRespv1l3_recorded\recording_micRespv1l3_2023-12-01_11h27.17.376.wav;271.5495428;272.0495768;None;271.5495428;271.5495428;271.5495428;271.5495428;271.5495428;271.5495428;;;;;;210103;1;2023-12-01_11h22.53.067;REPSWITCH1_version1_list3;2022.2.4;143.8819938;
REPSWITCH1/PICTURE_235.png;aguja;speak;gold;nontarget;2;NT;3;2;3;1;Stim4_Set3;1;repeat;56;55;56;0;55;55;55;;;;;;;;;;;;;;;;;;;;;;;272.0495768;273.1261258;273.1261258;273.1261258;273.1261258;273.1261258;273.1261258;273.1261258;273.1261258;None;0;;;C:\2023\REPSWITCH21092023\REPSWITCH_excgange\REPSWITCH_excgange\data/210103_REPSWITCH1_version1_list3_2023-12-01_11h22.53.067_micRespv1l3_recorded\recording_micRespv1l3_2023-12-01_11h27.21.980.wav;276.1542556;;None;276.1542556;276.1542556;276.1542556;276.1542556;276.1542556;276.1542556;;;;;;210103;1;2023-12-01_11h22.53.067;REPSWITCH1_version1_list3;2022.2.4;143.8819938;
REPSWITCH1/PICTURE_235.png;aguja;type;darkblue;switch;1;T;3;2;3;1;Stim4_Set3;0;None;57;56;57;0;56;56;56;;;;;;;;;;;;;;;;;;;;;;;276.6543261;277.7239639;277.7239639;277.7239639;277.7239639;277.7239639;277.7239639;277.7239639;277.7239639;['a', 'g', 'u', 'j', 'a'];0;[1.111789499875158, 1.327046199934557, 1.4848654998932034, 1.7150353998877108, 1.823712700046599];aguja;C:\2023\REPSWITCH21092023\REPSWITCH_excgange\REPSWITCH_excgange\data/210103_REPSWITCH1_version1_list3_2023-12-01_11h22.53.067_micRespv1l3_recorded\recording_micRespv1l3_2023-12-01_11h27.26.576.wav;280.7451409;281.2452035;None;280.7451409;280.7451409;280.7451409;280.7451409;280.7451409;280.7451409;;;;;;210103;1;2023-12-01_11h22.53.067;REPSWITCH1_version1_list3;2022.2.4;143.8819938;
REPSWITCH1/PICTURE_391.png;cadena;type;darkblue;filler;1;F;3;2;3;1;Extra2;0;None;58;57;58;0;57;57;57;;;;;;;;;;;;;;;;;;;;;;;281.2452035;282.2731322;282.2731322;282.2731322;282.2731322;282.2731322;282.2731322;282.2731322;282.2731322;['c', 'a', 'd', 'e', 'n', 'a'];0;[1.117495299782604, 1.2510452999267727, 1.4941984999459237, 1.6823074999265373, 1.7806819998659194, 1.9183835999574512];cadena;C:\2023\REPSWITCH21092023\REPSWITCH_excgange\REPSWITCH_excgange\data/210103_REPSWITCH1_version1_list3_2023-12-01_11h22.53.067_micRespv1l3_recorded\recording_micRespv1l3_2023-12-01_11h27.31.126.wav;285.3013099;;None;285.3013099;285.3013099;285.3013099;285.3013099;285.3013099;285.3013099;;;;;;210103;1;2023-12-01_11h22.53.067;REPSWITCH1_version1_list3;2022.2.4;143.8819938;
REPSWITCH1/PICTURE_320.png;iglesia;type;darkblue;nontarget;1;NT;3;2;3;1;Stim8_Set3;0;None;59;58;59;0;58;58;58;;;;;;;;;;;;;;;;;;;;;;;285.8013816;287.0029407;287.0029407;287.0029407;287.0029407;287.0029407;287.0029407;287.0029407;287.0029407;['i', 'g', 'l', 'e', 's', 'i', 'a'];0;[1.652989000082016, 1.786567599978298, 1.907126999925822, 2.0158154000528157, 2.229376700008288, 2.345990200061351, 2.4576111000496894];iglesia;C:\2023\REPSWITCH21092023\REPSWITCH_excgange\REPSWITCH_excgange\data/210103_REPSWITCH1_version1_list3_2023-12-01_11h22.53.067_micRespv1l3_recorded\recording_micRespv1l3_2023-12-01_11h27.35.857.wav;290.031152;;None;290.031152;290.031152;290.031152;290.031152;290.031152;290.031152;;;;;;210103;1;2023-12-01_11h22.53.067;REPSWITCH1_version1_list3;2022.2.4;143.8819938;
REPSWITCH1/PICTURE_320.png;iglesia;speak;gold;switch;2;T;3;2;3;1;Stim8_Set3;0;None;60;59;60;0;59;59;59;;;;;;;;;;;;;;;;;;;;;;;290.5311326;291.6840808;291.6840808;291.6840808;291.6840808;291.6840808;291.6840808;291.6840808;291.6840808;None;0;;;C:\2023\REPSWITCH21092023\REPSWITCH_excgange\REPSWITCH_excgange\data/210103_REPSWITCH1_version1_list3_2023-12-01_11h22.53.067_micRespv1l3_recorded\recording_micRespv1l3_2023-12-01_11h27.40.538.wav;294.7122518;;None;294.7122518;294.7122518;294.7122518;294.7122518;294.7122518;294.7122518;;;;;;210103;1;2023-12-01_11h22.53.067;REPSWITCH1_version1_list3;2022.2.4;143.8819938;
REPSWITCH1/PICTURE_175.png;pintor;type;darkblue;filler;1;F;3;2;3;1;Stim1_Set2;0;None;61;60;61;0;60;60;60;;;;;;;;;;;;;;;;;;;;;;;295.2123393;296.2402383;296.2402383;296.2402383;296.2402383;296.2402383;296.2402383;296.2402383;296.2402383;['p', 'i', 'n', 't', 'o', 'r'];0;[1.0194184000138193, 1.248644599923864, 1.3542881000321358, 1.4748757998459041, 1.6108693999703974, 1.7054397000465542];pintor;C:\2023\REPSWITCH21092023\REPSWITCH_excgange\REPSWITCH_excgange\data/210103_REPSWITCH1_version1_list3_2023-12-01_11h22.53.067_micRespv1l3_recorded\recording_micRespv1l3_2023-12-01_11h27.45.093.wav;299.2614865;299.7615351;None;299.2614865;299.2614865;299.2614865;299.2614865;299.2614865;299.2614865;;;;;;210103;1;2023-12-01_11h22.53.067;REPSWITCH1_version1_list3;2022.2.4;143.8819938;
REPSWITCH1/PICTURE_271.png;conejo;speak;gold;nontarget;2;NT;3;2;3;1;Stim7_Set3;1;switch;62;61;62;0;61;61;61;;;;;;;;;;;;;;;;;;;;;;;299.7615351;300.8311412;300.8311412;300.8311412;300.8311412;300.8311412;300.8311412;300.8311412;300.8311412;None;0;;;C:\2023\REPSWITCH21092023\REPSWITCH_excgange\REPSWITCH_excgange\data/210103_REPSWITCH1_version1_list3_2023-12-01_11h22.53.067_micRespv1l3_recorded\recording_micRespv1l3_2023-12-01_11h27.49.685.wav;303.859312;;None;303.859312;303.859312;303.859312;303.859312;303.859312;303.859312;;;;;;210103;1;2023-12-01_11h22.53.067;REPSWITCH1_version1_list3;2022.2.4;143.8819938;
REPSWITCH1/PICTURE_271.png;conejo;speak;gold;repeat;2;T;3;2;3;1;Stim7_Set3;0;None;63;62;63;0;62;62;62;;;;;;;;;;;;;;;;;;;;;;;304.3593703;305.4498158;305.4498158;305.4498158;305.4498158;305.4498158;305.4498158;305.4498158;305.4498158;None;0;;;C:\2023\REPSWITCH21092023\REPSWITCH_excgange\REPSWITCH_excgange\data/210103_REPSWITCH1_version1_list3_2023-12-01_11h22.53.067_micRespv1l3_recorded\recording_micRespv1l3_2023-12-01_11h27.54.303.wav;308.4779716;;None;308.4779716;308.4779716;308.4779716;308.4779716;308.4779716;308.4779716;;;;;;210103;1;2023-12-01_11h22.53.067;REPSWITCH1_version1_list3;2022.2.4;143.8819938;
REPSWITCH1/PICTURE_446.png;cerdo;speak;gold;filler;2;F;3;2;3;1;Stim7_Set2;0;None;64;63;64;0;63;63;63;;;;;;;;;;;;;;;;;;;;;;;308.9780009;310.0476154;310.0476154;310.0476154;310.0476154;310.0476154;310.0476154;310.0476154;310.0476154;None;0;;;C:\2023\REPSWITCH21092023\REPSWITCH_excgange\REPSWITCH_excgange\data/210103_REPSWITCH1_version1_list3_2023-12-01_11h22.53.067_micRespv1l3_recorded\recording_micRespv1l3_2023-12-01_11h27.58.900.wav;313.0758619;;None;313.0758619;313.0758619;313.0758619;313.0758619;313.0758619;313.0758619;;;;;;210103;1;2023-12-01_11h22.53.067;REPSWITCH1_version1_list3;2022.2.4;143.8819938;
REPSWITCH1/PICTURE_152.png;caracol;type;darkblue;filler;1;F;3;2;3;1;Stim2_Set2;0;None;65;64;65;0;64;64;64;;;;;;;;;;;;;;;;;;;;;;;313.575855;314.7496093;314.7496093;314.7496093;314.7496093;314.7496093;314.7496093;314.7496093;314.7496093;['c', 'a', 'r', 'a', 'c', 'o', 'l'];0;[0.8644015998579562, 1.1271502999588847, 1.2846870999783278, 1.4978207999374717, 1.7103667999617755, 1.8369807999115437, 2.062223199987784];caracol;C:\2023\REPSWITCH21092023\REPSWITCH_excgange\REPSWITCH_excgange\data/210103_REPSWITCH1_version1_list3_2023-12-01_11h22.53.067_micRespv1l3_recorded\recording_micRespv1l3_2023-12-01_11h28.03.603.wav;317.7709334;318.2709235;None;317.7709334;317.7709334;317.7709334;317.7709334;317.7709334;317.7709334;;;;;;210103;1;2023-12-01_11h22.53.067;REPSWITCH1_version1_list3;2022.2.4;143.8819938;
REPSWITCH1/PICTURE_576.png;guante;speak;gold;nontarget;2;NT;3;2;3;1;Stim1_Set3;1;switch;66;65;66;0;65;65;65;;;;;;;;;;;;;;;;;;;;;;;318.2709235;319.3196433;319.3196433;319.3196433;319.3196433;319.3196433;319.3196433;319.3196433;319.3196433;None;0;;;C:\2023\REPSWITCH21092023\REPSWITCH_excgange\REPSWITCH_excgange\data/210103_REPSWITCH1_version1_list3_2023-12-01_11h22.53.067_micRespv1l3_recorded\recording_micRespv1l3_2023-12-01_11h28.08.173.wav;322.3478528;322.8478893;None;322.3478528;322.3478528;322.3478528;322.3478528;322.3478528;322.3478528;;;;;;210103;1;2023-12-01_11h22.53.067;REPSWITCH1_version1_list3;2022.2.4;143.8819938;
REPSWITCH1/PICTURE_576.png;guante;speak;gold;repeat;2;T;3;2;3;1;Stim1_Set3;0;None;67;66;67;0;66;66;66;;;;;;;;;;;;;;;;;;;;;;;322.8478893;323.9244696;323.9244696;323.9244696;323.9244696;323.9244696;323.9244696;323.9244696;323.9244696;None;0;;;C:\2023\REPSWITCH21092023\REPSWITCH_excgange\REPSWITCH_excgange\data/210103_REPSWITCH1_version1_list3_2023-12-01_11h22.53.067_micRespv1l3_recorded\recording_micRespv1l3_2023-12-01_11h28.12.777.wav;326.9456504;327.4457462;None;326.9456504;326.9456504;326.9456504;326.9456504;326.9456504;326.9456504;;;;;;210103;1;2023-12-01_11h22.53.067;REPSWITCH1_version1_list3;2022.2.4;143.8819938;
REPSWITCH1/PICTURE_242.png;cartero;speak;gold;nontarget;2;NT;3;2;3;1;Stim3_Set3;0;None;68;67;68;0;67;67;67;;;;;;;;;;;;;;;;;;;;;;;327.4457462;328.5430855;328.5430855;328.5430855;328.5430855;328.5430855;328.5430855;328.5430855;328.5430855;None;0;;;C:\2023\REPSWITCH21092023\REPSWITCH_excgange\REPSWITCH_excgange\data/210103_REPSWITCH1_version1_list3_2023-12-01_11h22.53.067_micRespv1l3_recorded\recording_micRespv1l3_2023-12-01_11h28.17.397.wav;331.571259;;None;331.571259;331.571259;331.571259;331.571259;331.571259;331.571259;;;;;;210103;1;2023-12-01_11h22.53.067;REPSWITCH1_version1_list3;2022.2.4;143.8819938;
REPSWITCH1/PICTURE_242.png;cartero;type;darkblue;switch;1;T;3;2;3;1;Stim3_Set3;0;None;69;68;69;0;68;68;68;;;;;;;;;;;;;;;;;;;;;;;332.0713457;333.1618411;333.1618411;333.1618411;333.1618411;333.1618411;333.1618411;333.1618411;333.1618411;['c', 'a', 'r', 't', 'e', 'r', 'o'];0;[0.7886531001422554, 0.955070500029251, 1.1344702001661062, 1.3347738001029938, 1.4291940999682993, 1.5487931000534445, 1.670379500137642];cartero;C:\2023\REPSWITCH21092023\REPSWITCH_excgange\REPSWITCH_excgange\data/210103_REPSWITCH1_version1_list3_2023-12-01_11h22.53.067_micRespv1l3_recorded\recording_micRespv1l3_2023-12-01_11h28.22.014.wav;336.1830005;336.683062;None;336.1830005;336.1830005;336.1830005;336.1830005;336.1830005;336.1830005;;;;;;210103;1;2023-12-01_11h22.53.067;REPSWITCH1_version1_list3;2022.2.4;143.8819938;
REPSWITCH1/PICTURE_517.png;cuerda;speak;gold;filler;2;F;3;2;3;1;Stim4_Set2;0;None;70;69;70;0;69;69;69;;;;;;;;;;;;;;;;;;;;;;;336.683062;337.7804525;337.7804525;337.7804525;337.7804525;337.7804525;337.7804525;337.7804525;337.7804525;None;0;;;C:\2023\REPSWITCH21092023\REPSWITCH_excgange\REPSWITCH_excgange\data/210103_REPSWITCH1_version1_list3_2023-12-01_11h22.53.067_micRespv1l3_recorded\recording_micRespv1l3_2023-12-01_11h28.26.633.wav;340.801645;341.3017284;None;340.801645;340.801645;340.801645;340.801645;340.801645;340.801645;;;;;;210103;1;2023-12-01_11h22.53.067;REPSWITCH1_version1_list3;2022.2.4;143.8819938;
REPSWITCH1/PICTURE_646.png;tronco;type;darkblue;filler;1;F;3;2;3;1;Extra4;0;None;71;70;71;0;70;70;70;;;;;;;;;;;;;;;;;;;;;;;341.3017284;342.3644159;342.3644159;342.3644159;342.3644159;342.3644159;342.3644159;342.3644159;342.3644159;['t', 'r', 'o', 'n', 'c', 'o'];0;[1.1040306000504643, 1.3289073000196368, 1.4364883999805897, 1.5485156001523137, 1.6422018001321703, 1.7707275000866503];tronco;C:\2023\REPSWITCH21092023\REPSWITCH_excgange\REPSWITCH_excgange\data/210103_REPSWITCH1_version1_list3_2023-12-01_11h22.53.067_micRespv1l3_recorded\recording_micRespv1l3_2023-12-01_11h28.31.218.wav;345.3925246;;None;345.3925246;345.3925246;345.3925246;345.3925246;345.3925246;345.3925246;;;;;;210103;1;2023-12-01_11h22.53.067;REPSWITCH1_version1_list3;2022.2.4;143.8819938;
REPSWITCH1/PICTURE_35.png;oreja;type;darkblue;nontarget;1;NT;3;2;3;1;Stim5_Set3;1;repeat;72;71;72;0;71;71;71;;;;;;;;;;;;;;;;;;;;;;;345.8926032;347.0524691;347.0524691;347.0524691;347.0524691;347.0524691;347.0524691;347.0524691;347.0524691;['o', 'r', 'e', 'j', 'a'];0;[1.1362590999342501, 1.2657802999019623, 1.3325866998638958, 1.4682698999531567, 1.5758668999187648];oreja;C:\2023\REPSWITCH21092023\REPSWITCH_excgange\REPSWITCH_excgange\data/210103_REPSWITCH1_version1_list3_2023-12-01_11h22.53.067_micRespv1l3_recorded\recording_micRespv1l3_2023-12-01_11h28.35.906.wav;350.0806548;;None;350.0806548;350.0806548;350.0806548;350.0806548;350.0806548;350.0806548;;;;;;210103;1;2023-12-01_11h22.53.067;REPSWITCH1_version1_list3;2022.2.4;143.8819938;
REPSWITCH1/PICTURE_35.png;oreja;type;darkblue;repeat;1;T;3;2;3;1;Stim5_Set3;0;None;73;72;73;0;72;72;72;;;;;;;;;;;;;;;;;;;;;;;350.5807968;351.6433407;351.6433407;351.6433407;351.6433407;351.6433407;351.6433407;351.6433407;351.6433407;['o', 'r', 'e', 'j', 'a'];0;[0.7573756999336183, 0.9112584998365492, 0.9716590999159962, 1.1017330000177026, 1.2053934000432491];oreja;C:\2023\REPSWITCH21092023\REPSWITCH_excgange\REPSWITCH_excgange\data/210103_REPSWITCH1_version1_list3_2023-12-01_11h22.53.067_micRespv1l3_recorded\recording_micRespv1l3_2023-12-01_11h28.40.497.wav;354.6715391;;None;354.6715391;354.6715391;354.6715391;354.6715391;354.6715391;354.6715391;;;;;;210103;1;2023-12-01_11h22.53.067;REPSWITCH1_version1_list3;2022.2.4;143.8819938;
REPSWITCH1/PICTURE_199.png;falda;speak;gold;filler;2;F;3;2;3;1;Stim8_Set2;0;None;74;73;74;0;73;73;73;;;;;;;;;;;;;;;;;;;;;;;355.1716805;356.2690177;356.2690177;356.2690177;356.2690177;356.2690177;356.2690177;356.2690177;356.2690177;None;0;;;C:\2023\REPSWITCH21092023\REPSWITCH_excgange\REPSWITCH_excgange\data/210103_REPSWITCH1_version1_list3_2023-12-01_11h22.53.067_micRespv1l3_recorded\recording_micRespv1l3_2023-12-01_11h28.45.122.wav;359.2901694;359.790242;None;359.2901694;359.2901694;359.2901694;359.2901694;359.2901694;359.2901694;;;;;;210103;1;2023-12-01_11h22.53.067;REPSWITCH1_version1_list3;2022.2.4;143.8819938;
REPSWITCH1/PICTURE_610.png;miel;type;darkblue;nontarget;1;NT;3;2;3;1;Stim2_Set3;1;switch;75;74;75;0;74;74;74;;;;;;;;;;;;;;;;;;;;;;;359.790242;360.8320815;360.8320815;360.8320815;360.8320815;360.8320815;360.8320815;360.8320815;360.8320815;['m', 'i', 'e', 'l'];0;[1.1494136000983417, 1.3197602999862283, 1.4981859000399709, 1.618829800048843];miel;C:\2023\REPSWITCH21092023\REPSWITCH_excgange\REPSWITCH_excgange\data/210103_REPSWITCH1_version1_list3_2023-12-01_11h22.53.067_micRespv1l3_recorded\recording_micRespv1l3_2023-12-01_11h28.49.685.wav;363.8532704;364.3534384;None;363.8532704;363.8532704;363.8532704;363.8532704;363.8532704;363.8532704;;;;;;210103;1;2023-12-01_11h22.53.067;REPSWITCH1_version1_list3;2022.2.4;143.8819938;
REPSWITCH1/PICTURE_610.png;miel;type;darkblue;repeat;1;T;3;2;3;1;Stim2_Set3;0;None;76;75;76;0;75;75;75;;;;;;;;;;;;;;;;;;;;;;;364.3534384;365.4855181;365.4855181;365.4855181;365.4855181;365.4855181;365.4855181;365.4855181;365.4855181;['m', 'i', 'e', 'l'];0;[0.860650299815461, 0.9973909000400454, 1.1572841999586672, 1.2588690998964012];miel;C:\2023\REPSWITCH21092023\REPSWITCH_excgange\REPSWITCH_excgange\data/210103_REPSWITCH1_version1_list3_2023-12-01_11h22.53.067_micRespv1l3_recorded\recording_micRespv1l3_2023-12-01_11h28.54.340.wav;368.5136354;;None;368.5136354;368.5136354;368.5136354;368.5136354;368.5136354;368.5136354;;;;;;210103;1;2023-12-01_11h22.53.067;REPSWITCH1_version1_list3;2022.2.4;143.8819938;
REPSWITCH1/PICTURE_264.png;mano;type;darkblue;filler;1;F;3;2;3;1;Stim3_Set2;1;repeat;77;76;77;0;76;76;76;;;;;;;;;;;;;;;;;;;;;;;369.013768;370.1319619;370.1319619;370.1319619;370.1319619;370.1319619;370.1319619;370.1319619;370.1319619;['m', 'a', 'n', 'o'];0;[0.7755396000575274, 0.9469645998906344, 1.059081899933517, 1.1631346999201924];mano;C:\2023\REPSWITCH21092023\REPSWITCH_excgange\REPSWITCH_excgange\data/210103_REPSWITCH1_version1_list3_2023-12-01_11h22.53.067_micRespv1l3_recorded\recording_micRespv1l3_2023-12-01_11h28.58.985.wav;373.1601296;;None;373.1601296;373.1601296;373.1601296;373.1601296;373.1601296;373.1601296;;;;;;210103;1;2023-12-01_11h22.53.067;REPSWITCH1_version1_list3;2022.2.4;143.8819938;
REPSWITCH1/PICTURE_464.png;goma;speak;gold;filler;2;F;4;2;3;1;Stim6_Set3;0;None;78;77;78;0;77;77;77;;;;;;;;;;;;;;;;;;;;;;;373.6601187;374.7853158;374.7853158;374.7853158;374.7853158;374.7853158;374.7853158;374.7853158;374.7853158;None;0;;;C:\2023\REPSWITCH21092023\REPSWITCH_excgange\REPSWITCH_excgange\data/210103_REPSWITCH1_version1_list3_2023-12-01_11h22.53.067_micRespv1l3_recorded\recording_micRespv1l3_2023-12-01_11h29.03.638.wav;377.8064949;378.3065906;None;377.8064949;377.8064949;377.8064949;377.8064949;377.8064949;377.8064949;;;;;;210103;1;2023-12-01_11h22.53.067;REPSWITCH1_version1_list3;2022.2.4;143.8819938;
REPSWITCH1/PICTURE_8.png;pierna;type;darkblue;nontarget;1;NT;4;2;3;1;Stim3_Set4;1;switch;79;78;79;0;78;78;78;;;;;;;;;;;;;;;;;;;;;;;378.3065906;379.4178394;379.4178394;379.4178394;379.4178394;379.4178394;379.4178394;379.4178394;379.4178394;['p', 'i', 'e', 'r', 'n', 'a'];0;[0.9429558999836445, 1.159551399992779, 1.3263932999689132, 1.4015298997983336, 1.5135276999790221, 1.6506445999257267];pierna;C:\2023\REPSWITCH21092023\REPSWITCH_excgange\REPSWITCH_excgange\data/210103_REPSWITCH1_version1_list3_2023-12-01_11h22.53.067_micRespv1l3_recorded\recording_micRespv1l3_2023-12-01_11h29.08.270.wav;382.4390524;382.9391124;None;382.4390524;382.4390524;382.4390524;382.4390524;382.4390524;382.4390524;;;;;;210103;1;2023-12-01_11h22.53.067;REPSWITCH1_version1_list3;2022.2.4;143.8819938;
REPSWITCH1/PICTURE_8.png;pierna;type;darkblue;repeat;1;T;4;2;3;1;Stim3_Set4;0;None;80;79;80;0;79;79;79;;;;;;;;;;;;;;;;;;;;;;;382.9391124;384.1129188;384.1129188;384.1129188;384.1129188;384.1129188;384.1129188;384.1129188;384.1129188;['p', 'i', 'e', 'r', 'n', 'a'];0;[0.8191959999967366, 1.1182931000366807, 1.250052500050515, 1.3081980999559164, 1.4270317999180406, 1.5456356999929994];pierna;C:\2023\REPSWITCH21092023\REPSWITCH_excgange\REPSWITCH_excgange\data/210103_REPSWITCH1_version1_list3_2023-12-01_11h22.53.067_micRespv1l3_recorded\recording_micRespv1l3_2023-12-01_11h29.12.966.wav;387.1341745;387.6341769;None;387.1341745;387.1341745;387.1341745;387.1341745;387.1341745;387.1341745;;;;;;210103;1;2023-12-01_11h22.53.067;REPSWITCH1_version1_list3;2022.2.4;143.8819938;
REPSWITCH1/PICTURE_728.png;pulpo;type;darkblue;nontarget;1;NT;4;2;3;1;Stim8_Set4;1;repeat;81;80;81;0;80;80;80;;;;;;;;;;;;;;;;;;;;;;;387.6341769;388.6899268;388.6899268;388.6899268;388.6899268;388.6899268;388.6899268;388.6899268;388.6899268;['p', 'u', 'l', 'p', 'o'];0;[0.8406551999505609, 1.0383949000388384, 1.2386012999340892, 1.5690830999519676, 1.6219357999507338];pulpo;C:\2023\REPSWITCH21092023\REPSWITCH_excgange\REPSWITCH_excgange\data/210103_REPSWITCH1_version1_list3_2023-12-01_11h22.53.067_micRespv1l3_recorded\recording_micRespv1l3_2023-12-01_11h29.17.542.wav;391.7110994;392.2111663;None;391.7110994;391.7110994;391.7110994;391.7110994;391.7110994;391.7110994;;;;;;210103;1;2023-12-01_11h22.53.067;REPSWITCH1_version1_list3;2022.2.4;143.8819938;
REPSWITCH1/PICTURE_728.png;pulpo;speak;gold;switch;2;T;4;2;3;1;Stim8_Set4;0;None;82;81;82;0;81;81;81;;;;;;;;;;;;;;;;;;;;;;;392.2111663;393.3154897;393.3154897;393.3154897;393.3154897;393.3154897;393.3154897;393.3154897;393.3154897;None;0;;;C:\2023\REPSWITCH21092023\REPSWITCH_excgange\REPSWITCH_excgange\data/210103_REPSWITCH1_version1_list3_2023-12-01_11h22.53.067_micRespv1l3_recorded\recording_micRespv1l3_2023-12-01_11h29.22.168.wav;396.3367366;396.8368103;None;396.3367366;396.3367366;396.3367366;396.3367366;396.3367366;396.3367366;;;;;;210103;1;2023-12-01_11h22.53.067;REPSWITCH1_version1_list3;2022.2.4;143.8819938;
REPSWITCH1/PICTURE_235.png;aguja;type;darkblue;filler;1;F;4;2;3;1;Stim4_Set3;0;None;83;82;83;0;82;82;82;;;;;;;;;;;;;;;;;;;;;;;396.8368103;397.8647299;397.8647299;397.8647299;397.8647299;397.8647299;397.8647299;397.8647299;397.8647299;['a', 'g', 'u', 'j', 'a'];0;[0.7396875999402255, 0.9314345999155194, 1.0928841000422835, 1.3273853999562562, 1.8336841000709683];aguja;C:\2023\REPSWITCH21092023\REPSWITCH_excgange\REPSWITCH_excgange\data/210103_REPSWITCH1_version1_list3_2023-12-01_11h22.53.067_micRespv1l3_recorded\recording_micRespv1l3_2023-12-01_11h29.26.718.wav;400.8928735;;None;400.8928735;400.8928735;400.8928735;400.8928735;400.8928735;400.8928735;;;;;;210103;1;2023-12-01_11h22.53.067;REPSWITCH1_version1_list3;2022.2.4;143.8819938;
REPSWITCH1/PICTURE_498.png;taza;speak;gold;nontarget;2;NT;4;2;3;1;Stim4_Set4;1;switch;84;83;84;0;83;83;83;;;;;;;;;;;;;;;;;;;;;;;401.3929568;402.4348063;402.4348063;402.4348063;402.4348063;402.4348063;402.4348063;402.4348063;402.4348063;None;0;;;C:\2023\REPSWITCH21092023\REPSWITCH_excgange\REPSWITCH_excgange\data/210103_REPSWITCH1_version1_list3_2023-12-01_11h22.53.067_micRespv1l3_recorded\recording_micRespv1l3_2023-12-01_11h29.31.288.wav;405.4629521;;None;405.4629521;405.4629521;405.4629521;405.4629521;405.4629521;405.4629521;;;;;;210103;1;2023-12-01_11h22.53.067;REPSWITCH1_version1_list3;2022.2.4;143.8819938;
REPSWITCH1/PICTURE_498.png;taza;speak;gold;repeat;2;T;4;2;3;1;Stim4_Set4;0;None;85;84;85;0;84;84;84;;;;;;;;;;;;;;;;;;;;;;;405.9629764;407.0395126;407.0395126;407.0395126;407.0395126;407.0395126;407.0395126;407.0395126;407.0395126;None;0;;;C:\2023\REPSWITCH21092023\REPSWITCH_excgange\REPSWITCH_excgange\data/210103_REPSWITCH1_version1_list3_2023-12-01_11h22.53.067_micRespv1l3_recorded\recording_micRespv1l3_2023-12-01_11h29.35.892.wav;410.0607936;410.5608101;None;410.0607936;410.0607936;410.0607936;410.0607936;410.0607936;410.0607936;;;;;;210103;1;2023-12-01_11h22.53.067;REPSWITCH1_version1_list3;2022.2.4;143.8819938;
REPSWITCH1/PICTURE_719.png;baño;speak;gold;nontarget;2;NT;4;2;3;1;Stim2_Set4;0;None;86;85;86;0;85;85;85;;;;;;;;;;;;;;;;;;;;;;;410.5608101;411.7416172;411.7416172;411.7416172;411.7416172;411.7416172;411.7416172;411.7416172;411.7416172;None;0;;;C:\2023\REPSWITCH21092023\REPSWITCH_excgange\REPSWITCH_excgange\data/210103_REPSWITCH1_version1_list3_2023-12-01_11h22.53.067_micRespv1l3_recorded\recording_micRespv1l3_2023-12-01_11h29.40.594.wav;414.7627672;415.2628366;None;414.7627672;414.7627672;414.7627672;414.7627672;414.7627672;414.7627672;;;;;;210103;1;2023-12-01_11h22.53.067;REPSWITCH1_version1_list3;2022.2.4;143.8819938;
REPSWITCH1/PICTURE_719.png;baño;type;darkblue;switch;1;T;4;2;3;1;Stim2_Set4;0;None;87;86;87;0;86;86;86;;;;;;;;;;;;;;;;;;;;;;;415.2628366;416.3323981;416.3323981;416.3323981;416.3323981;416.3323981;416.3323981;416.3323981;416.3323981;None;0;;;C:\2023\REPSWITCH21092023\REPSWITCH_excgange\REPSWITCH_excgange\data/210103_REPSWITCH1_version1_list3_2023-12-01_11h22.53.067_micRespv1l3_recorded\recording_micRespv1l3_2023-12-01_11h29.45.185.wav;419.353615;419.8537173;None;419.353615;419.353615;419.353615;419.353615;419.353615;419.353615;;;;;;210103;1;2023-12-01_11h22.53.067;REPSWITCH1_version1_list3;2022.2.4;143.8819938;
REPSWITCH1/PICTURE_320.png;iglesia;speak;gold;filler;2;F;4;2;3;1;Stim8_Set3;0;None;88;87;88;0;87;87;87;;;;;;;;;;;;;;;;;;;;;;;419.8537173;420.9094328;420.9094328;420.9094328;420.9094328;420.9094328;420.9094328;420.9094328;420.9094328;None;0;;;C:\2023\REPSWITCH21092023\REPSWITCH_excgange\REPSWITCH_excgange\data/210103_REPSWITCH1_version1_list3_2023-12-01_11h22.53.067_micRespv1l3_recorded\recording_micRespv1l3_2023-12-01_11h29.49.763.wav;423.9306368;424.4306867;None;423.9306368;423.9306368;423.9306368;423.9306368;423.9306368;423.9306368;;;;;;210103;1;2023-12-01_11h22.53.067;REPSWITCH1_version1_list3;2022.2.4;143.8819938;
REPSWITCH1/PICTURE_48.png;bombero;type;darkblue;nontarget;1;NT;4;2;3;1;Stim7_Set4;1;switch;89;88;89;0;88;88;88;;;;;;;;;;;;;;;;;;;;;;;424.4306867;425.590572;425.590572;425.590572;425.590572;425.590572;425.590572;425.590572;425.590572;['b', 'o', 'm', 'b', 'e', 'r'];0;[1.1792927000205964, 2.262540299911052, 2.411013700067997, 2.6607468998990953, 2.747172199888155, 2.8401649999432266];bomber;C:\2023\REPSWITCH21092023\REPSWITCH_excgange\REPSWITCH_excgange\data/210103_REPSWITCH1_version1_list3_2023-12-01_11h22.53.067_micRespv1l3_recorded\recording_micRespv1l3_2023-12-01_11h29.54.443.wav;428.6118814;429.1118765;None;428.6118814;428.6118814;428.6118814;428.6118814;428.6118814;428.6118814;;;;;;210103;1;2023-12-01_11h22.53.067;REPSWITCH1_version1_list3;2022.2.4;143.8819938;
REPSWITCH1/PICTURE_48.png;bombero;speak;gold;switch;2;T;4;2;3;1;Stim7_Set4;0;None;90;89;90;0;89;89;89;;;;;;;;;;;;;;;;;;;;;;;429.1118765;430.1953236;430.1953236;430.1953236;430.1953236;430.1953236;430.1953236;430.1953236;430.1953236;None;0;;;C:\2023\REPSWITCH21092023\REPSWITCH_excgange\REPSWITCH_excgange\data/210103_REPSWITCH1_version1_list3_2023-12-01_11h22.53.067_micRespv1l3_recorded\recording_micRespv1l3_2023-12-01_11h29.59.049.wav;433.2166207;433.7166443;None;433.2166207;433.2166207;433.2166207;433.2166207;433.2166207;433.2166207;;;;;;210103;1;2023-12-01_11h22.53.067;REPSWITCH1_version1_list3;2022.2.4;143.8819938;
REPSWITCH1/PICTURE_576.png;guante;type;darkblue;filler;1;F;4;2;3;1;Stim1_Set3;0;None;91;90;91;0;90;90;90;;;;;;;;;;;;;;;;;;;;;;;433.7166443;434.8070515;434.8070515;434.8070515;434.8070515;434.8070515;434.8070515;434.8070515;434.8070515;['g', 'u', 'a', 'n', 't', 'e'];0;[0.7820395000744611, 0.9305402000900358, 1.0730739999562502, 1.2446386001538485, 1.3831081001553684, 1.4599733999930322];guante;C:\2023\REPSWITCH21092023\REPSWITCH_excgange\REPSWITCH_excgange\data/210103_REPSWITCH1_version1_list3_2023-12-01_11h22.53.067_micRespv1l3_recorded\recording_micRespv1l3_2023-12-01_11h30.03.660.wav;437.8282609;438.3284382;None;437.8282609;437.8282609;437.8282609;437.8282609;437.8282609;437.8282609;;;;;;210103;1;2023-12-01_11h22.53.067;REPSWITCH1_version1_list3;2022.2.4;143.8819938;
REPSWITCH1/PICTURE_271.png;conejo;speak;gold;filler;2;F;4;2;3;1;Stim7_Set3;0;None;92;91;92;0;91;91;91;;;;;;;;;;;;;;;;;;;;;;;438.3284382;439.4395986;439.4395986;439.4395986;439.4395986;439.4395986;439.4395986;439.4395986;439.4395986;None;0;;;C:\2023\REPSWITCH21092023\REPSWITCH_excgange\REPSWITCH_excgange\data/210103_REPSWITCH1_version1_list3_2023-12-01_11h22.53.067_micRespv1l3_recorded\recording_micRespv1l3_2023-12-01_11h30.08.292.wav;442.4608144;442.9609862;None;442.4608144;442.4608144;442.4608144;442.4608144;442.4608144;442.4608144;;;;;;210103;1;2023-12-01_11h22.53.067;REPSWITCH1_version1_list3;2022.2.4;143.8819938;
REPSWITCH1/PICTURE_319.png;vaca;speak;gold;nontarget;2;NT;4;2;3;1;Stim1_Set4;1;repeat;93;92;93;0;92;92;92;;;;;;;;;;;;;;;;;;;;;;;442.9609862;444.072157;444.072157;444.072157;444.072157;444.072157;444.072157;444.072157;444.072157;None;0;;;C:\2023\REPSWITCH21092023\REPSWITCH_excgange\REPSWITCH_excgange\data/210103_REPSWITCH1_version1_list3_2023-12-01_11h22.53.067_micRespv1l3_recorded\recording_micRespv1l3_2023-12-01_11h30.12.925.wav;447.0934022;447.5934684;None;447.0934022;447.0934022;447.0934022;447.0934022;447.0934022;447.0934022;;;;;;210103;1;2023-12-01_11h22.53.067;REPSWITCH1_version1_list3;2022.2.4;143.8819938;
REPSWITCH1/PICTURE_319.png;vaca;speak;gold;repeat;2;T;4;2;3;1;Stim1_Set4;0;None;94;93;94;0;93;93;93;;;;;;;;;;;;;;;;;;;;;;;447.5934684;448.6352932;448.6352932;448.6352932;448.6352932;448.6352932;448.6352932;448.6352932;448.6352932;None;0;;;C:\2023\REPSWITCH21092023\REPSWITCH_excgange\REPSWITCH_excgange\data/210103_REPSWITCH1_version1_list3_2023-12-01_11h22.53.067_micRespv1l3_recorded\recording_micRespv1l3_2023-12-01_11h30.17.488.wav;451.6564671;452.1565708;None;451.6564671;451.6564671;451.6564671;451.6564671;451.6564671;451.6564671;;;;;;210103;1;2023-12-01_11h22.53.067;REPSWITCH1_version1_list3;2022.2.4;143.8819938;
REPSWITCH1/PICTURE_242.png;cartero;type;darkblue;filler;1;F;4;2;3;1;Stim3_Set3;0;None;95;94;95;0;94;94;94;;;;;;;;;;;;;;;;;;;;;;;452.1565708;453.2053256;453.2053256;453.2053256;453.2053256;453.2053256;453.2053256;453.2053256;453.2053256;['c', 'a', 'r', 't', 'e', 'r', 'o'];0;[0.8366517999675125, 1.0072476000059396, 1.1925866999663413, 1.4457465999294072, 1.5314893999602646, 1.6760072000324726, 1.781647500116378];cartero;C:\2023\REPSWITCH21092023\REPSWITCH_excgange\REPSWITCH_excgange\data/210103_REPSWITCH1_version1_list3_2023-12-01_11h22.53.067_micRespv1l3_recorded\recording_micRespv1l3_2023-12-01_11h30.22.058.wav;456.2265117;456.726616;None;456.2265117;456.2265117;456.2265117;456.2265117;456.2265117;456.2265117;;;;;;210103;1;2023-12-01_11h22.53.067;REPSWITCH1_version1_list3;2022.2.4;143.8819938;
REPSWITCH1/PICTURE_35.png;oreja;speak;gold;filler;2;F;4;2;3;1;Stim5_Set3;1;switch;96;95;96;0;95;95;95;;;;;;;;;;;;;;;;;;;;;;;456.726616;457.8865464;457.8865464;457.8865464;457.8865464;457.8865464;457.8865464;457.8865464;457.8865464;None;0;;;C:\2023\REPSWITCH21092023\REPSWITCH_excgange\REPSWITCH_excgange\data/210103_REPSWITCH1_version1_list3_2023-12-01_11h22.53.067_micRespv1l3_recorded\recording_micRespv1l3_2023-12-01_11h30.26.741.wav;460.9146634;;None;460.9146634;460.9146634;460.9146634;460.9146634;460.9146634;460.9146634;;;;;;210103;1;2023-12-01_11h22.53.067;REPSWITCH1_version1_list3;2022.2.4;143.8819938;
REPSWITCH1/PICTURE_338.png;regalo;speak;gold;nontarget;2;NT;4;2;3;1;Stim6_Set4;1;repeat;97;96;97;0;96;96;96;;;;;;;;;;;;;;;;;;;;;;;461.4147293;462.5259885;462.5259885;462.5259885;462.5259885;462.5259885;462.5259885;462.5259885;462.5259885;None;0;;;C:\2023\REPSWITCH21092023\REPSWITCH_excgange\REPSWITCH_excgange\data/210103_REPSWITCH1_version1_list3_2023-12-01_11h22.53.067_micRespv1l3_recorded\recording_micRespv1l3_2023-12-01_11h30.31.379.wav;465.5471823;466.0472832;None;465.5471823;465.5471823;465.5471823;465.5471823;465.5471823;465.5471823;;;;;;210103;1;2023-12-01_11h22.53.067;REPSWITCH1_version1_list3;2022.2.4;143.8819938;
REPSWITCH1/PICTURE_338.png;regalo;type;darkblue;switch;1;T;4;2;3;1;Stim6_Set4;0;None;98;97;98;0;97;97;97;;;;;;;;;;;;;;;;;;;;;;;466.0472832;467.1863324;467.1863324;467.1863324;467.1863324;467.1863324;467.1863324;467.1863324;467.1863324;['r', 'e', 'g', 'a', 'l', 'o'];0;[0.7934480998665094, 0.9073677998967469, 1.1219341000542045, 1.212589900009334, 1.3382653999142349, 1.5577924000099301];regalo;C:\2023\REPSWITCH21092023\REPSWITCH_excgange\REPSWITCH_excgange\data/210103_REPSWITCH1_version1_list3_2023-12-01_11h22.53.067_micRespv1l3_recorded\recording_micRespv1l3_2023-12-01_11h30.36.039.wav;470.2075438;470.7076062;None;470.2075438;470.2075438;470.2075438;470.2075438;470.2075438;470.2075438;;;;;;210103;1;2023-12-01_11h22.53.067;REPSWITCH1_version1_list3;2022.2.4;143.8819938;
REPSWITCH1/PICTURE_687.png;camisa;type;darkblue;nontarget;1;NT;4;2;3;1;Stim5_Set4;0;None;99;98;99;0;98;98;98;;;;;;;;;;;;;;;;;;;;;;;470.7076062;471.8049719;471.8049719;471.8049719;471.8049719;471.8049719;471.8049719;471.8049719;471.8049719;['c', 'a', 'm', 'i', 's', 'a'];0;[0.7831478998996317, 0.8848059999290854, 1.073516699951142, 1.4988704998977482, 1.5880237000528723, 1.659369699889794];camisa;C:\2023\REPSWITCH21092023\REPSWITCH_excgange\REPSWITCH_excgange\data/210103_REPSWITCH1_version1_list3_2023-12-01_11h22.53.067_micRespv1l3_recorded\recording_micRespv1l3_2023-12-01_11h30.40.658.wav;474.8261882;475.3262631;None;474.8261882;474.8261882;474.8261882;474.8261882;474.8261882;474.8261882;;;;;;210103;1;2023-12-01_11h22.53.067;REPSWITCH1_version1_list3;2022.2.4;143.8819938;
REPSWITCH1/PICTURE_687.png;camisa;type;darkblue;repeat;1;T;4;2;3;1;Stim5_Set4;0;None;100;99;100;0;99;99;99;;;;;;;;;;;;;;;;;;;;;;;475.3262631;476.4097478;476.4097478;476.4097478;476.4097478;476.4097478;476.4097478;476.4097478;476.4097478;['c', 'a', 'm', 'i', 's', 'a'];0;[0.8009933000430465, 0.8757400000467896, 1.0641958999913186, 1.1673445000778884, 1.2470873000565916, 1.3128256001509726];camisa;C:\2023\REPSWITCH21092023\REPSWITCH_excgange\REPSWITCH_excgange\data/210103_REPSWITCH1_version1_list3_2023-12-01_11h22.53.067_micRespv1l3_recorded\recording_micRespv1l3_2023-12-01_11h30.45.263.wav;479.4379489;;None;479.4379489;479.4379489;479.4379489;479.4379489;479.4379489;479.4379489;;;;;;210103;1;2023-12-01_11h22.53.067;REPSWITCH1_version1_list3;2022.2.4;143.8819938;
REPSWITCH1/PICTURE_340.png;espejo;speak;gold;filler;2;F;4;2;3;1;Extra1;0;None;101;100;101;0;100;100;100;;;;;;;;;;;;;;;;;;;;;;;479.9379568;481.0771033;481.0771033;481.0771033;481.0771033;481.0771033;481.0771033;481.0771033;481.0771033;None;0;;;C:\2023\REPSWITCH21092023\REPSWITCH_excgange\REPSWITCH_excgange\data/210103_REPSWITCH1_version1_list3_2023-12-01_11h22.53.067_micRespv1l3_recorded\recording_micRespv1l3_2023-12-01_11h30.49.930.wav;484.1051703;;None;484.1051703;484.1051703;484.1051703;484.1051703;484.1051703;484.1051703;;;;;;210103;1;2023-12-01_11h22.53.067;REPSWITCH1_version1_list3;2022.2.4;143.8819938;
REPSWITCH1/PICTURE_610.png;miel;type;darkblue;filler;1;F;4;2;3;1;Stim2_Set3;0;None;102;101;102;0;101;101;101;;;;;;;;;;;;;;;;;;;;;;;484.6052789;485.6193512;485.6193512;485.6193512;485.6193512;485.6193512;485.6193512;485.6193512;485.6193512;['m', 'i', 'e', 'l'];0;[0.8305017000529915, 1.0136721001472324, 1.2091155999805778, 1.3347073001787066];miel;C:\2023\REPSWITCH21092023\REPSWITCH_excgange\REPSWITCH_excgange\data/210103_REPSWITCH1_version1_list3_2023-12-01_11h22.53.067_micRespv1l3_recorded\recording_micRespv1l3_2023-12-01_11h30.54.472.wav;488.6405034;489.1406704;space;488.6405034;488.6405034;488.6405034;488.6405034;488.6405034;488.6405034;489.1406704;489.1406704;1.1358289;;;210103;1;2023-12-01_11h22.53.067;REPSWITCH1_version1_list3;2022.2.4;143.8819938;
REPSWITCH1/PICTURE_8.png;pierna;type;darkblue;filler;1;F;1;4;3;1;Stim3_Set4;0;None;103;102;1;0;102;102;102;;;;;;;;;;;;;;;;;;;;;;;490.2865785;491.3492333;491.3492333;491.3492333;491.3492333;491.3492333;491.3492333;491.3492333;491.3492333;['p', 'i', 'e', 'r', 'n', 'a'];0;[0.7018858999945223, 0.9194865999743342, 1.0261140000075102, 1.1048851001542062, 1.2085023000836372, 1.3349752000067383];pierna;C:\2023\REPSWITCH21092023\REPSWITCH_excgange\REPSWITCH_excgange\data/210103_REPSWITCH1_version1_list3_2023-12-01_11h22.53.067_micRespv1l3_recorded\recording_micRespv1l3_2023-12-01_11h31.00.203.wav;494.3773634;494.8774609;None;494.3773634;494.3773634;494.3773634;494.3773634;494.3773634;494.3773634;;;;;;210103;1;2023-12-01_11h22.53.067;REPSWITCH1_version1_list3;2022.2.4;143.8819938;
REPSWITCH1/PICTURE_498.png;taza;speak;gold;filler;2;F;1;4;3;1;Stim4_Set4;0;None;104;103;2;0;103;103;103;;;;;;;;;;;;;;;;;;;;;;;494.8774609;495.9817588;495.9817588;495.9817588;495.9817588;495.9817588;495.9817588;495.9817588;495.9817588;None;0;;;C:\2023\REPSWITCH21092023\REPSWITCH_excgange\REPSWITCH_excgange\data/210103_REPSWITCH1_version1_list3_2023-12-01_11h22.53.067_micRespv1l3_recorded\recording_micRespv1l3_2023-12-01_11h31.04.835.wav;499.0029642;499.5030426;None;499.0029642;499.0029642;499.0029642;499.0029642;499.0029642;499.0029642;;;;;;210103;1;2023-12-01_11h22.53.067;REPSWITCH1_version1_list3;2022.2.4;143.8819938;
REPSWITCH1/PICTURE_19.png;pavo;speak;gold;nontarget;2;NT;1;4;3;1;Stim5_Set1;1;repeat;105;104;3;0;104;104;104;;;;;;;;;;;;;;;;;;;;;;;499.5030426;500.5240264;500.5240264;500.5240264;500.5240264;500.5240264;500.5240264;500.5240264;500.5240264;None;0;;;C:\2023\REPSWITCH21092023\REPSWITCH_excgange\REPSWITCH_excgange\data/210103_REPSWITCH1_version1_list3_2023-12-01_11h22.53.067_micRespv1l3_recorded\recording_micRespv1l3_2023-12-01_11h31.09.377.wav;503.5522007;;None;503.5522007;503.5522007;503.5522007;503.5522007;503.5522007;503.5522007;;;;;;210103;1;2023-12-01_11h22.53.067;REPSWITCH1_version1_list3;2022.2.4;143.8819938;
REPSWITCH1/PICTURE_19.png;pavo;speak;gold;repeat;2;T;1;4;3;1;Stim5_Set1;0;None;106;105;4;0;105;105;105;;;;;;;;;;;;;;;;;;;;;;;504.0522738;505.1566352;505.1566352;505.1566352;505.1566352;505.1566352;505.1566352;505.1566352;505.1566352;None;0;;;C:\2023\REPSWITCH21092023\REPSWITCH_excgange\REPSWITCH_excgange\data/210103_REPSWITCH1_version1_list3_2023-12-01_11h22.53.067_micRespv1l3_recorded\recording_micRespv1l3_2023-12-01_11h31.14.010.wav;508.1847585;;None;508.1847585;508.1847585;508.1847585;508.1847585;508.1847585;508.1847585;;;;;;210103;1;2023-12-01_11h22.53.067;REPSWITCH1_version1_list3;2022.2.4;143.8819938;
REPSWITCH1/PICTURE_319.png;vaca;type;darkblue;filler;1;F;1;4;3;1;Stim1_Set4;1;repeat;107;106;5;0;106;106;106;;;;;;;;;;;;;;;;;;;;;;;508.6848992;509.7683505;509.7683505;509.7683505;509.7683505;509.7683505;509.7683505;509.7683505;509.7683505;['v', 'a', 'c', 'a'];0;[1.281084300018847, 1.3956893000286072, 1.5604642999824136, 1.6653708000667393];vaca;C:\2023\REPSWITCH21092023\REPSWITCH_excgange\REPSWITCH_excgange\data/210103_REPSWITCH1_version1_list3_2023-12-01_11h22.53.067_micRespv1l3_recorded\recording_micRespv1l3_2023-12-01_11h31.18.621.wav;512.7895413;513.2896007;None;512.7895413;512.7895413;512.7895413;512.7895413;512.7895413;512.7895413;;;;;;210103;1;2023-12-01_11h22.53.067;REPSWITCH1_version1_list3;2022.2.4;143.8819938;
REPSWITCH1/PICTURE_169.png;espalda;speak;gold;nontarget;2;NT;1;4;3;1;Stim8_Set1;1;switch;108;107;6;0;107;107;107;;;;;;;;;;;;;;;;;;;;;;;513.2896007;514.4078215;514.4078215;514.4078215;514.4078215;514.4078215;514.4078215;514.4078215;514.4078215;None;0;;;C:\2023\REPSWITCH21092023\REPSWITCH_excgange\REPSWITCH_excgange\data/210103_REPSWITCH1_version1_list3_2023-12-01_11h22.53.067_micRespv1l3_recorded\recording_micRespv1l3_2023-12-01_11h31.23.261.wav;517.428997;517.9290722;None;517.428997;517.428997;517.428997;517.428997;517.428997;517.428997;;;;;;210103;1;2023-12-01_11h22.53.067;REPSWITCH1_version1_list3;2022.2.4;143.8819938;
REPSWITCH1/PICTURE_169.png;espalda;speak;gold;repeat;2;T;1;4;3;1;Stim8_Set1;0;None;109;108;7;0;108;108;108;;;;;;;;;;;;;;;;;;;;;;;517.9290722;519.0404436;519.0404436;519.0404436;519.0404436;519.0404436;519.0404436;519.0404436;519.0404436;None;0;;;C:\2023\REPSWITCH21092023\REPSWITCH_excgange\REPSWITCH_excgange\data/210103_REPSWITCH1_version1_list3_2023-12-01_11h22.53.067_micRespv1l3_recorded\recording_micRespv1l3_2023-12-01_11h31.27.893.wav;522.0615928;522.5617163;None;522.0615928;522.0615928;522.0615928;522.0615928;522.0615928;522.0615928;;;;;;210103;1;2023-12-01_11h22.53.067;REPSWITCH1_version1_list3;2022.2.4;143.8819938;
REPSWITCH1/PICTURE_728.png;pulpo;type;darkblue;filler;1;F;1;4;3;1;Stim8_Set4;0;None;110;109;8;0;109;109;109;;;;;;;;;;;;;;;;;;;;;;;522.5617163;523.7145994;523.7145994;523.7145994;523.7145994;523.7145994;523.7145994;523.7145994;523.7145994;['p', 'u', 'l', 'p', 'o'];0;[0.8380133998580277, 1.1782205998897552, 1.4233516999520361, 1.8370947998482734, 1.9480252000503242];pulpo;C:\2023\REPSWITCH21092023\REPSWITCH_excgange\REPSWITCH_excgange\data/210103_REPSWITCH1_version1_list3_2023-12-01_11h22.53.067_micRespv1l3_recorded\recording_micRespv1l3_2023-12-01_11h31.32.567.wav;526.7358105;527.2359565;None;526.7358105;526.7358105;526.7358105;526.7358105;526.7358105;526.7358105;;;;;;210103;1;2023-12-01_11h22.53.067;REPSWITCH1_version1_list3;2022.2.4;143.8819938;
REPSWITCH1/PICTURE_142.png;vaso;speak;gold;nontarget;2;NT;1;4;3;1;Stim7_Set1;1;switch;111;110;9;0;110;110;110;;;;;;;;;;;;;;;;;;;;;;;527.2359565;528.2916534;528.2916534;528.2916534;528.2916534;528.2916534;528.2916534;528.2916534;528.2916534;None;0;;;C:\2023\REPSWITCH21092023\REPSWITCH_excgange\REPSWITCH_excgange\data/210103_REPSWITCH1_version1_list3_2023-12-01_11h22.53.067_micRespv1l3_recorded\recording_micRespv1l3_2023-12-01_11h31.37.144.wav;531.312878;531.8129422;None;531.312878;531.312878;531.312878;531.312878;531.312878;531.312878;;;;;;210103;1;2023-12-01_11h22.53.067;REPSWITCH1_version1_list3;2022.2.4;143.8819938;
REPSWITCH1/PICTURE_142.png;vaso;type;darkblue;switch;1;T;1;4;3;1;Stim7_Set1;0;None;112;111;10;0;111;111;111;;;;;;;;;;;;;;;;;;;;;;;531.8129422;532.854654;532.854654;532.854654;532.854654;532.854654;532.854654;532.854654;532.854654;['v', 'a', 's', 'o'];0;[0.7492814001161605, 0.8448679000139236, 1.0083118001930416, 1.1438504001125693];vaso;C:\2023\REPSWITCH21092023\REPSWITCH_excgange\REPSWITCH_excgange\data/210103_REPSWITCH1_version1_list3_2023-12-01_11h22.53.067_micRespv1l3_recorded\recording_micRespv1l3_2023-12-01_11h31.41.707.wav;535.8759048;536.3759409;None;535.8759048;535.8759048;535.8759048;535.8759048;535.8759048;535.8759048;;;;;;210103;1;2023-12-01_11h22.53.067;REPSWITCH1_version1_list3;2022.2.4;143.8819938;
REPSWITCH1/PICTURE_338.png;regalo;type;darkblue;filler;1;F;1;4;3;1;Stim6_Set4;1;repeat;113;112;11;0;112;112;112;;;;;;;;;;;;;;;;;;;;;;;536.3759409;537.4385916;537.4385916;537.4385916;537.4385916;537.4385916;537.4385916;537.4385916;537.4385916;['r', 'e', 'g', 'a', 'l', 'o'];0;[0.8844056001398712, 0.9990515999961644, 1.2522707001771778, 1.3420963999815285, 1.467656700173393, 1.687891700072214];regalo;C:\2023\REPSWITCH21092023\REPSWITCH_excgange\REPSWITCH_excgange\data/210103_REPSWITCH1_version1_list3_2023-12-01_11h22.53.067_micRespv1l3_recorded\recording_micRespv1l3_2023-12-01_11h31.46.292.wav;540.4598277;540.9599053;None;540.4598277;540.4598277;540.4598277;540.4598277;540.4598277;540.4598277;;;;;;210103;1;2023-12-01_11h22.53.067;REPSWITCH1_version1_list3;2022.2.4;143.8819938;
REPSWITCH1/PICTURE_135.png;traje;type;darkblue;nontarget;1;NT;1;4;3;1;Stim3_Set1;1;repeat;114;113;12;0;113;113;113;;;;;;;;;;;;;;;;;;;;;;;540.9599053;542.0642449;542.0642449;542.0642449;542.0642449;542.0642449;542.0642449;542.0642449;542.0642449;['t', 'r', 'a', 'j', 'e'];0;[0.985346200177446, 1.4258299001958221, 1.4956339001655579, 1.6362269001547247, 1.746908500092104];traje;C:\2023\REPSWITCH21092023\REPSWITCH_excgange\REPSWITCH_excgange\data/210103_REPSWITCH1_version1_list3_2023-12-01_11h22.53.067_micRespv1l3_recorded\recording_micRespv1l3_2023-12-01_11h31.50.918.wav;545.0923925;;None;545.0923925;545.0923925;545.0923925;545.0923925;545.0923925;545.0923925;;;;;;210103;1;2023-12-01_11h22.53.067;REPSWITCH1_version1_list3;2022.2.4;143.8819938;
REPSWITCH1/PICTURE_135.png;traje;speak;gold;switch;2;T;1;4;3;1;Stim3_Set1;0;None;115;114;13;0;114;114;114;;;;;;;;;;;;;;;;;;;;;;;545.5924423;546.7106387;546.7106387;546.7106387;546.7106387;546.7106387;546.7106387;546.7106387;546.7106387;None;0;;;C:\2023\REPSWITCH21092023\REPSWITCH_excgange\REPSWITCH_excgange\data/210103_REPSWITCH1_version1_list3_2023-12-01_11h22.53.067_micRespv1l3_recorded\recording_micRespv1l3_2023-12-01_11h31.55.564.wav;549.7318911;550.2319337;None;549.7318911;549.7318911;549.7318911;549.7318911;549.7318911;549.7318911;;;;;;210103;1;2023-12-01_11h22.53.067;REPSWITCH1_version1_list3;2022.2.4;143.8819938;
REPSWITCH1/PICTURE_381.png;fresa;speak;gold;nontarget;2;NT;1;4;3;1;Stim2_Set1;1;repeat;116;115;14;0;115;115;115;;;;;;;;;;;;;;;;;;;;;;;550.2319337;551.2876705;551.2876705;551.2876705;551.2876705;551.2876705;551.2876705;551.2876705;551.2876705;None;0;;;C:\2023\REPSWITCH21092023\REPSWITCH_excgange\REPSWITCH_excgange\data/210103_REPSWITCH1_version1_list3_2023-12-01_11h22.53.067_micRespv1l3_recorded\recording_micRespv1l3_2023-12-01_11h32.00.141.wav;554.3088785;554.8089299;None;554.3088785;554.3088785;554.3088785;554.3088785;554.3088785;554.3088785;;;;;;210103;1;2023-12-01_11h22.53.067;REPSWITCH1_version1_list3;2022.2.4;143.8819938;
REPSWITCH1/PICTURE_381.png;fresa;type;darkblue;switch;1;T;1;4;3;1;Stim2_Set1;0;None;117;116;15;0;116;116;116;;;;;;;;;;;;;;;;;;;;;;;554.8089299;555.9549412;555.9549412;555.9549412;555.9549412;555.9549412;555.9549412;555.9549412;555.9549412;['f', 'r', 'e', 's', 'a'];0;[0.7433503998909146, 1.0993818999268115, 1.190069600008428, 1.5448765000328422, 1.632554299896583];fresa;C:\2023\REPSWITCH21092023\REPSWITCH_excgange\REPSWITCH_excgange\data/210103_REPSWITCH1_version1_list3_2023-12-01_11h22.53.067_micRespv1l3_recorded\recording_micRespv1l3_2023-12-01_11h32.04.808.wav;558.9761353;559.4762283;None;558.9761353;558.9761353;558.9761353;558.9761353;558.9761353;558.9761353;;;;;;210103;1;2023-12-01_11h22.53.067;REPSWITCH1_version1_list3;2022.2.4;143.8819938;
REPSWITCH1/PICTURE_48.png;bombero;type;darkblue;filler;1;F;1;4;3;1;Stim7_Set4;0;None;118;117;16;0;117;117;117;;;;;;;;;;;;;;;;;;;;;;;559.4762283;560.5527351;560.5527351;560.5527351;560.5527351;560.5527351;560.5527351;560.5527351;560.5527351;['b', 'o', 'm', 'b', 'e', 'r', 'o'];0;[0.9071706000249833, 1.1616296998690814, 1.6446549000684172, 1.9047538999002427, 2.0542562000919133, 2.1081395000219345, 2.167842200025916];bombero;C:\2023\REPSWITCH21092023\REPSWITCH_excgange\REPSWITCH_excgange\data/210103_REPSWITCH1_version1_list3_2023-12-01_11h22.53.067_micRespv1l3_recorded\recording_micRespv1l3_2023-12-01_11h32.09.406.wav;563.580916;;None;563.580916;563.580916;563.580916;563.580916;563.580916;563.580916;;;;;;210103;1;2023-12-01_11h22.53.067;REPSWITCH1_version1_list3;2022.2.4;143.8819938;
REPSWITCH1/PICTURE_687.png;camisa;speak;gold;filler;2;F;1;4;3;1;Stim5_Set4;0;None;119;118;17;0;118;118;118;;;;;;;;;;;;;;;;;;;;;;;564.0809589;565.1089626;565.1089626;565.1089626;565.1089626;565.1089626;565.1089626;565.1089626;565.1089626;None;0;;;C:\2023\REPSWITCH21092023\REPSWITCH_excgange\REPSWITCH_excgange\data/210103_REPSWITCH1_version1_list3_2023-12-01_11h22.53.067_micRespv1l3_recorded\recording_micRespv1l3_2023-12-01_11h32.13.962.wav;568.1371271;;None;568.1371271;568.1371271;568.1371271;568.1371271;568.1371271;568.1371271;;;;;;210103;1;2023-12-01_11h22.53.067;REPSWITCH1_version1_list3;2022.2.4;143.8819938;
REPSWITCH1/PICTURE_128.png;muñeca;type;darkblue;nontarget;1;NT;1;4;3;1;Stim4_Set1;0;None;120;119;18;0;119;119;119;;;;;;;;;;;;;;;;;;;;;;;568.6371244;569.8317614;569.8317614;569.8317614;569.8317614;569.8317614;569.8317614;569.8317614;569.8317614;['m', 'u', 'ñ', 'e', 'c', 'a'];0;[1.0874401999171823, 1.405702699907124, 1.7063674998935312, 1.8427648998331279, 1.979306799825281, 2.0869525999296457];muñeca;C:\2023\REPSWITCH21092023\REPSWITCH_excgange\REPSWITCH_excgange\data/210103_REPSWITCH1_version1_list3_2023-12-01_11h22.53.067_micRespv1l3_recorded\recording_micRespv1l3_2023-12-01_11h32.18.685.wav;572.8530195;573.3530251;None;572.8530195;572.8530195;572.8530195;572.8530195;572.8530195;572.8530195;;;;;;210103;1;2023-12-01_11h22.53.067;REPSWITCH1_version1_list3;2022.2.4;143.8819938;
REPSWITCH1/PICTURE_128.png;muñeca;type;darkblue;repeat;1;T;1;4;3;1;Stim4_Set1;0;None;121;120;19;0;120;120;120;;;;;;;;;;;;;;;;;;;;;;;573.3530251;574.47132;574.47132;574.47132;574.47132;574.47132;574.47132;574.47132;574.47132;['m', 'u', 'ñ', 'e', 'c', 'a'];0;[1.0910807000473142, 1.3432372999377549, 1.5784517000429332, 1.7249640000518411, 1.8624978000298142, 1.9342749000061303];muñeca;C:\2023\REPSWITCH21092023\REPSWITCH_excgange\REPSWITCH_excgange\data/210103_REPSWITCH1_version1_list3_2023-12-01_11h22.53.067_micRespv1l3_recorded\recording_micRespv1l3_2023-12-01_11h32.23.324.wav;577.4924596;577.9925476;None;577.4924596;577.4924596;577.4924596;577.4924596;577.4924596;577.4924596;;;;;;210103;1;2023-12-01_11h22.53.067;REPSWITCH1_version1_list3;2022.2.4;143.8819938;
REPSWITCH1/PICTURE_719.png;baño;speak;gold;filler;2;F;1;4;3;1;Stim2_Set4;1;switch;122;121;20;0;121;121;121;;;;;;;;;;;;;;;;;;;;;;;577.9925476;579.2218578;579.2218578;579.2218578;579.2218578;579.2218578;579.2218578;579.2218578;579.2218578;None;0;;;C:\2023\REPSWITCH21092023\REPSWITCH_excgange\REPSWITCH_excgange\data/210103_REPSWITCH1_version1_list3_2023-12-01_11h22.53.067_micRespv1l3_recorded\recording_micRespv1l3_2023-12-01_11h32.28.075.wav;582.250091;;None;582.250091;582.250091;582.250091;582.250091;582.250091;582.250091;;;;;;210103;1;2023-12-01_11h22.53.067;REPSWITCH1_version1_list3;2022.2.4;143.8819938;
REPSWITCH1/PICTURE_178.png;puente;type;darkblue;nontarget;1;NT;1;4;3;1;Stim1_Set1;1;switch;123;122;21;0;122;122;122;;;;;;;;;;;;;;;;;;;;;;;582.7500911;583.8683565;583.8683565;583.8683565;583.8683565;583.8683565;583.8683565;583.8683565;583.8683565;['p', 'u', 'e', 'n', 't', 'e'];0;[1.0263155000284314, 1.3081144001334906, 1.5452523999847472, 1.6289687000680715, 1.7757278000935912, 1.8539067001547664];puente;C:\2023\REPSWITCH21092023\REPSWITCH_excgange\REPSWITCH_excgange\data/210103_REPSWITCH1_version1_list3_2023-12-01_11h22.53.067_micRespv1l3_recorded\recording_micRespv1l3_2023-12-01_11h32.32.722.wav;586.8895147;587.3896157;None;586.8895147;586.8895147;586.8895147;586.8895147;586.8895147;586.8895147;;;;;;210103;1;2023-12-01_11h22.53.067;REPSWITCH1_version1_list3;2022.2.4;143.8819938;
REPSWITCH1/PICTURE_178.png;puente;type;darkblue;repeat;1;T;1;4;3;1;Stim1_Set1;0;None;124;123;22;0;123;123;123;;;;;;;;;;;;;;;;;;;;;;;587.3896157;588.5287344;588.5287344;588.5287344;588.5287344;588.5287344;588.5287344;588.5287344;588.5287344;['p', 'u', 'e', 'n', 't', 'e'];0;[0.7496394999325275, 0.9160773998592049, 1.0994708999060094, 1.1911271000280976, 1.348901899997145, 1.4106882999185473];puente;C:\2023\REPSWITCH21092023\REPSWITCH_excgange\REPSWITCH_excgange\data/210103_REPSWITCH1_version1_list3_2023-12-01_11h22.53.067_micRespv1l3_recorded\recording_micRespv1l3_2023-12-01_11h32.37.381.wav;591.5499545;592.0499266;None;591.5499545;591.5499545;591.5499545;591.5499545;591.5499545;591.5499545;;;;;;210103;1;2023-12-01_11h22.53.067;REPSWITCH1_version1_list3;2022.2.4;143.8819938;
REPSWITCH1/PICTURE_16.png;cazador;type;darkblue;nontarget;1;NT;1;4;3;1;Stim6_Set1;1;repeat;125;124;23;0;124;124;124;;;;;;;;;;;;;;;;;;;;;;;592.0499266;593.2792834;593.2792834;593.2792834;593.2792834;593.2792834;593.2792834;593.2792834;593.2792834;['c', 'a', 'z', 'a', 'd', 'o', 'r'];0;[0.8091517998836935, 0.887875699903816, 1.1758705000393093, 1.3954813999589533, 1.588461099890992, 1.7060426999814808, 1.8198758999351412];cazador;C:\2023\REPSWITCH21092023\REPSWITCH_excgange\REPSWITCH_excgange\data/210103_REPSWITCH1_version1_list3_2023-12-01_11h22.53.067_micRespv1l3_recorded\recording_micRespv1l3_2023-12-01_11h32.42.133.wav;596.3074371;;None;596.3074371;596.3074371;596.3074371;596.3074371;596.3074371;596.3074371;;;;;;210103;1;2023-12-01_11h22.53.067;REPSWITCH1_version1_list3;2022.2.4;143.8819938;
REPSWITCH1/PICTURE_16.png;cazador;speak;gold;switch;2;T;1;4;3;1;Stim6_Set1;0;None;126;125;24;0;125;125;125;;;;;;;;;;;;;;;;;;;;;;;596.8075245;597.9049106;597.9049106;597.9049106;597.9049106;597.9049106;597.9049106;597.9049106;597.9049106;None;0;;;C:\2023\REPSWITCH21092023\REPSWITCH_excgange\REPSWITCH_excgange\data/210103_REPSWITCH1_version1_list3_2023-12-01_11h22.53.067_micRespv1l3_recorded\recording_micRespv1l3_2023-12-01_11h32.46.759.wav;600.9331329;;None;600.9331329;600.9331329;600.9331329;600.9331329;600.9331329;600.9331329;;;;;;210103;1;2023-12-01_11h22.53.067;REPSWITCH1_version1_list3;2022.2.4;143.8819938;
REPSWITCH1/PICTURE_19.png;pavo;type;darkblue;filler;1;F;2;4;3;1;Stim5_Set1;0;None;127;126;25;0;126;126;126;;;;;;;;;;;;;;;;;;;;;;;601.4331071;602.4749565;602.4749565;602.4749565;602.4749565;602.4749565;602.4749565;602.4749565;602.4749565;['p', 'a', 'v', 'o'];0;[0.9022230999544263, 1.0367002999410033, 1.2089391998015344, 1.336909799836576];pavo;C:\2023\REPSWITCH21092023\REPSWITCH_excgange\REPSWITCH_excgange\data/210103_REPSWITCH1_version1_list3_2023-12-01_11h22.53.067_micRespv1l3_recorded\recording_micRespv1l3_2023-12-01_11h32.51.327.wav;605.4961635;605.9962161;None;605.4961635;605.4961635;605.4961635;605.4961635;605.4961635;605.4961635;;;;;;210103;1;2023-12-01_11h22.53.067;REPSWITCH1_version1_list3;2022.2.4;143.8819938;
REPSWITCH1/PICTURE_199.png;falda;type;darkblue;nontarget;1;NT;2;4;3;1;Stim8_Set2;1;repeat;128;127;26;0;127;127;127;;;;;;;;;;;;;;;;;;;;;;;605.9962161;607.204741;607.204741;607.204741;607.204741;607.204741;607.204741;607.204741;607.204741;['f', 'a', 'l', 'd', 'a'];0;[0.8045691999141127, 0.9101560998242348, 1.127683199942112, 1.4989237999543548, 1.558738199993968];falda;C:\2023\REPSWITCH21092023\REPSWITCH_excgange\REPSWITCH_excgange\data/210103_REPSWITCH1_version1_list3_2023-12-01_11h22.53.067_micRespv1l3_recorded\recording_micRespv1l3_2023-12-01_11h32.56.058.wav;610.232879;;None;610.232879;610.232879;610.232879;610.232879;610.232879;610.232879;;;;;;210103;1;2023-12-01_11h22.53.067;REPSWITCH1_version1_list3;2022.2.4;143.8819938;
REPSWITCH1/PICTURE_199.png;falda;type;darkblue;repeat;1;T;2;4;3;1;Stim8_Set2;0;None;129;128;27;0;128;128;128;;;;;;;;;;;;;;;;;;;;;;;610.7329601;611.8094661;611.8094661;611.8094661;611.8094661;611.8094661;611.8094661;611.8094661;611.8094661;['f', 'a', 'l', 'd', 'a'];0;[0.6216004001908004, 0.7920026001520455, 0.9843711999710649, 1.160657700151205, 1.2377233000006527];falda;C:\2023\REPSWITCH21092023\REPSWITCH_excgange\REPSWITCH_excgange\data/210103_REPSWITCH1_version1_list3_2023-12-01_11h22.53.067_micRespv1l3_recorded\recording_micRespv1l3_2023-12-01_11h33.00.663.wav;614.8376879;;None;614.8376879;614.8376879;614.8376879;614.8376879;614.8376879;614.8376879;;;;;;210103;1;2023-12-01_11h22.53.067;REPSWITCH1_version1_list3;2022.2.4;143.8819938;
REPSWITCH1/PICTURE_178.png;puente;speak;gold;filler;2;F;2;4;3;1;Stim1_Set1;1;switch;130;129;28;0;129;129;129;;;;;;;;;;;;;;;;;;;;;;;615.3376996;616.4142646;616.4142646;616.4142646;616.4142646;616.4142646;616.4142646;616.4142646;616.4142646;None;0;;;C:\2023\REPSWITCH21092023\REPSWITCH_excgange\REPSWITCH_excgange\data/210103_REPSWITCH1_version1_list3_2023-12-01_11h22.53.067_micRespv1l3_recorded\recording_micRespv1l3_2023-12-01_11h33.05.268.wav;619.4424755;;None;619.4424755;619.4424755;619.4424755;619.4424755;619.4424755;619.4424755;;;;;;210103;1;2023-12-01_11h22.53.067;REPSWITCH1_version1_list3;2022.2.4;143.8819938;
REPSWITCH1/PICTURE_517.png;cuerda;type;darkblue;nontarget;1;NT;2;4;3;1;Stim4_Set2;1;switch;131;130;29;0;130;130;130;;;;;;;;;;;;;;;;;;;;;;;619.9424977;621.234359;621.234359;621.234359;621.234359;621.234359;621.234359;621.234359;621.234359;['c', 'u', 'e', 'r', 'd', 'a'];0;[0.9122639999259263, 1.2112616999074817, 1.4073493999894708, 1.4870815998874605, 1.7594931998755783, 1.8777228998951614];cuerda;C:\2023\REPSWITCH21092023\REPSWITCH_excgange\REPSWITCH_excgange\data/210103_REPSWITCH1_version1_list3_2023-12-01_11h22.53.067_micRespv1l3_recorded\recording_micRespv1l3_2023-12-01_11h33.10.087.wav;624.2555639;624.7556406;None;624.2555639;624.2555639;624.2555639;624.2555639;624.2555639;624.2555639;;;;;;210103;1;2023-12-01_11h22.53.067;REPSWITCH1_version1_list3;2022.2.4;143.8819938;
REPSWITCH1/PICTURE_517.png;cuerda;type;darkblue;repeat;1;T;2;4;3;1;Stim4_Set2;0;None;132;131;30;0;131;131;131;;;;;;;;;;;;;;;;;;;;;;;624.7556406;625.7627289;625.7627289;625.7627289;625.7627289;625.7627289;625.7627289;625.7627289;625.7627289;['c', 'u', 'e', 'r', 'd', 'a'];0;[0.7929237999487668, 1.0232645999640226, 1.2657369000371546, 1.3357432000339031, 1.6178168000187725, 1.7184653000440449];cuerda;C:\2023\REPSWITCH21092023\REPSWITCH_excgange\REPSWITCH_excgange\data/210103_REPSWITCH1_version1_list3_2023-12-01_11h22.53.067_micRespv1l3_recorded\recording_micRespv1l3_2023-12-01_11h33.14.617.wav;628.7909236;;None;628.7909236;628.7909236;628.7909236;628.7909236;628.7909236;628.7909236;;;;;;210103;1;2023-12-01_11h22.53.067;REPSWITCH1_version1_list3;2022.2.4;143.8819938;
REPSWITCH1/PICTURE_169.png;espalda;type;darkblue;filler;1;F;2;4;3;1;Stim8_Set1;0;None;133;132;31;0;132;132;132;;;;;;;;;;;;;;;;;;;;;;;629.2909324;630.395329;630.395329;630.395329;630.395329;630.395329;630.395329;630.395329;630.395329;['e', 's', 'p', 'a', 'l', 'd', 'a'];0;[0.7801316999830306, 1.0912369000725448, 1.2437371001578867, 1.3732902000192553, 1.5098521001636982, 1.6533804000355303, 1.707252599997446];espalda;C:\2023\REPSWITCH21092023\REPSWITCH_excgange\REPSWITCH_excgange\data/210103_REPSWITCH1_version1_list3_2023-12-01_11h22.53.067_micRespv1l3_recorded\recording_micRespv1l3_2023-12-01_11h33.19.248.wav;633.416504;633.9165605;None;633.416504;633.416504;633.416504;633.416504;633.416504;633.416504;;;;;;210103;1;2023-12-01_11h22.53.067;REPSWITCH1_version1_list3;2022.2.4;143.8819938;
REPSWITCH1/PICTURE_673.png;tenedor;speak;gold;filler;2;F;2;4;3;1;Extra5;0;None;134;133;32;0;133;133;133;;;;;;;;;;;;;;;;;;;;;;;633.9165605;635.1250572;635.1250572;635.1250572;635.1250572;635.1250572;635.1250572;635.1250572;635.1250572;None;0;;;C:\2023\REPSWITCH21092023\REPSWITCH_excgange\REPSWITCH_excgange\data/210103_REPSWITCH1_version1_list3_2023-12-01_11h22.53.067_micRespv1l3_recorded\recording_micRespv1l3_2023-12-01_11h33.23.978.wav;638.1532504;;None;638.1532504;638.1532504;638.1532504;638.1532504;638.1532504;638.1532504;;;;;;210103;1;2023-12-01_11h22.53.067;REPSWITCH1_version1_list3;2022.2.4;143.8819938;
REPSWITCH1/PICTURE_142.png;vaso;type;darkblue;filler;1;F;2;4;3;1;Stim7_Set1;1;switch;135;134;33;0;134;134;134;;;;;;;;;;;;;;;;;;;;;;;638.6532962;639.8409313;639.8409313;639.8409313;639.8409313;639.8409313;639.8409313;639.8409313;639.8409313;['v', 'a', 's', 'o'];0;[0.7024395999033004, 0.8100564000196755, 0.9653025998268276, 1.1028264998458326];vaso;C:\2023\REPSWITCH21092023\REPSWITCH_excgange\REPSWITCH_excgange\data/210103_REPSWITCH1_version1_list3_2023-12-01_11h22.53.067_micRespv1l3_recorded\recording_micRespv1l3_2023-12-01_11h33.28.693.wav;642.862243;643.362255;None;642.862243;642.862243;642.862243;642.862243;642.862243;642.862243;;;;;;210103;1;2023-12-01_11h22.53.067;REPSWITCH1_version1_list3;2022.2.4;143.8819938;
REPSWITCH1/PICTURE_552.png;manzana;type;darkblue;nontarget;1;NT;2;4;3;1;Stim6_Set2;1;repeat;136;135;34;0;135;135;135;;;;;;;;;;;;;;;;;;;;;;;643.362255;644.4318456;644.4318456;644.4318456;644.4318456;644.4318456;644.4318456;644.4318456;644.4318456;['m', 'a', 'n', 'z', 'a', 'n', 'a'];0;[0.9368976000696421, 1.0713102999143302, 1.2317679999396205, 1.4331118001136929, 1.6693516001105309, 1.8009117001201957, 1.9613731999415904];manzana;C:\2023\REPSWITCH21092023\REPSWITCH_excgange\REPSWITCH_excgange\data/210103_REPSWITCH1_version1_list3_2023-12-01_11h22.53.067_micRespv1l3_recorded\recording_micRespv1l3_2023-12-01_11h33.33.285.wav;647.4599863;;None;647.4599863;647.4599863;647.4599863;647.4599863;647.4599863;647.4599863;;;;;;210103;1;2023-12-01_11h22.53.067;REPSWITCH1_version1_list3;2022.2.4;143.8819938;
REPSWITCH1/PICTURE_552.png;manzana;speak;gold;switch;1;T;2;4;3;1;Stim6_Set2;0;None;137;136;35;0;136;136;136;;;;;;;;;;;;;;;;;;;;;;;647.9600412;649.2241492;649.2241492;649.2241492;649.2241492;649.2241492;649.2241492;649.2241492;649.2241492;None;0;;;C:\2023\REPSWITCH21092023\REPSWITCH_excgange\REPSWITCH_excgange\data/210103_REPSWITCH1_version1_list3_2023-12-01_11h22.53.067_micRespv1l3_recorded\recording_micRespv1l3_2023-12-01_11h33.38.078.wav;652.252299;;None;652.252299;652.252299;652.252299;652.252299;652.252299;652.252299;;;;;;210103;1;2023-12-01_11h22.53.067;REPSWITCH1_version1_list3;2022.2.4;143.8819938;
REPSWITCH1/PICTURE_135.png;traje;speak;gold;filler;2;F;2;4;3;1;Stim3_Set1;0;None;138;137;36;0;137;137;137;;;;;;;;;;;;;;;;;;;;;;;652.7524166;653.8011056;653.8011056;653.8011056;653.8011056;653.8011056;653.8011056;653.8011056;653.8011056;None;0;;;C:\2023\REPSWITCH21092023\REPSWITCH_excgange\REPSWITCH_excgange\data/210103_REPSWITCH1_version1_list3_2023-12-01_11h22.53.067_micRespv1l3_recorded\recording_micRespv1l3_2023-12-01_11h33.42.654.wav;656.8224176;657.3224179;None;656.8224176;656.8224176;656.8224176;656.8224176;656.8224176;656.8224176;;;;;;210103;1;2023-12-01_11h22.53.067;REPSWITCH1_version1_list3;2022.2.4;143.8819938;
REPSWITCH1/PICTURE_152.png;caracol;speak;gold;nontarget;2;NT;2;4;3;1;Stim2_Set2;1;repeat;139;138;37;0;138;138;138;;;;;;;;;;;;;;;;;;;;;;;657.3224179;658.3919906;658.3919906;658.3919906;658.3919906;658.3919906;658.3919906;658.3919906;658.3919906;None;0;;;C:\2023\REPSWITCH21092023\REPSWITCH_excgange\REPSWITCH_excgange\data/210103_REPSWITCH1_version1_list3_2023-12-01_11h22.53.067_micRespv1l3_recorded\recording_micRespv1l3_2023-12-01_11h33.47.245.wav;661.4133027;661.9133061;None;661.4133027;661.4133027;661.4133027;661.4133027;661.4133027;661.4133027;;;;;;210103;1;2023-12-01_11h22.53.067;REPSWITCH1_version1_list3;2022.2.4;143.8819938;
REPSWITCH1/PICTURE_152.png;caracol;type;darkblue;switch;1;T;2;4;3;1;Stim2_Set2;0;None;140;139;38;0;139;139;139;;;;;;;;;;;;;;;;;;;;;;;661.9133061;662.9759212;662.9759212;662.9759212;662.9759212;662.9759212;662.9759212;662.9759212;662.9759212;['c', 'a', 'r', 'a', 'c', 'o', 'l'];0;[0.8659714998211712, 0.984933199826628, 1.1947308999951929, 1.3183415997773409, 1.5720406000036746, 1.6997037997934967, 1.9247997999191284];caracol;C:\2023\REPSWITCH21092023\REPSWITCH_excgange\REPSWITCH_excgange\data/210103_REPSWITCH1_version1_list3_2023-12-01_11h22.53.067_micRespv1l3_recorded\recording_micRespv1l3_2023-12-01_11h33.51.829.wav;665.9971359;666.4972271;None;665.9971359;665.9971359;665.9971359;665.9971359;665.9971359;665.9971359;;;;;;210103;1;2023-12-01_11h22.53.067;REPSWITCH1_version1_list3;2022.2.4;143.8819938;
REPSWITCH1/PICTURE_381.png;fresa;type;darkblue;filler;1;F;2;4;3;1;Stim2_Set1;0;None;141;140;39;0;140;140;140;;;;;;;;;;;;;;;;;;;;;;;666.4972271;667.5876734;667.5876734;667.5876734;667.5876734;667.5876734;667.5876734;667.5876734;667.5876734;['f', 'r', 'e', 's', 'a'];0;[1.0777741000056267, 1.374760900158435, 1.4620897001586854, 1.802022600080818, 1.917600000044331];fresa;C:\2023\REPSWITCH21092023\REPSWITCH_excgange\REPSWITCH_excgange\data/210103_REPSWITCH1_version1_list3_2023-12-01_11h22.53.067_micRespv1l3_recorded\recording_micRespv1l3_2023-12-01_11h33.56.441.wav;670.6158491;;None;670.6158491;670.6158491;670.6158491;670.6158491;670.6158491;670.6158491;;;;;;210103;1;2023-12-01_11h22.53.067;REPSWITCH1_version1_list3;2022.2.4;143.8819938;
