image;correctAns;respModal;frameColor;repSwitch;sequence;target;set;block;list;exp_version;stimulus;baseline;baseline_condition;trial_no;psychopy_trial;Column1;trialsREPSWITCH.thisRepN;trialsREPSWITCH.thisTrialN;trialsREPSWITCH.thisN;trialsREPSWITCH.thisIndex;textWelcome.started;textboxInstrMain1.started;textboxInstrMain1_2.started;textboxInstrMain1_3.started;keyInstrMain.started;keyInstrMain.keys;keyInstrMain.rt;textboxInstrMain2.started;textboxInstrMain2_2.started;textboxInstrMain2_3.started;textboxInstrMain2_4.started;textboxInstrMain2_5.started;textboxInstrMain2_6.started;textboxInstrMain2_7.started;textboxInstrMain2_8.started;textboxInstrMain2_9.started;textboxInstrMain2_10.started;textboxInstrMain2_11.started;textboxInstrMain2_12.started;keyInstrMain2.started;keyInstrMain2.keys;keyInstrMain2.rt;fixationITI.started;fixationITI.stopped;polygonColour.started;polygonWhite.started;imageObject.started;polygonType.started;textInput.started;keyResp.started;micRespv1l4.started;polygonColour.stopped;polygonWhite.stopped;imageObject.stopped;polygonType.stopped;textInput.stopped;keyResp.stopped;keyResp.keys;keyResp.corr;keyResp.rt;subjResponse;micRespv1l4.clip;textBlankLoop.started;textBlankLoop.stopped;keyPause.keys;textboxPause.started;keyPause.started;keyPause.rt;textboxGoodbye.started;textboxGoodbye.stopped;participant;session;date;expName;psychopyVersion;frameRate;Column2
;;;;;;;;;;;;;;;;;;;;;7.692322;10.1868868;10.1868868;10.1868868;10.1868868;space;6.5454275;;;;;;;;;;;;;;;;;;;;;;;;;;;;;;;;;;;;;;;;;;;;230104;1;2023-12-01_15h08.46.380;REPSWITCH1_version1_list4;2022.2.4;143.9679584;
;;;;;;;;;;;;;;;;;;;;;;;;;;;;16.7502286;16.7502286;16.7502286;16.7502286;16.7502286;16.7502286;16.7502286;16.7502286;16.7502286;16.7502286;16.7502286;16.7502286;16.7502286;space;2.5652107;;;;;;;;;;;;;;;;;;;;;;;;;;;;;230104;1;2023-12-01_15h08.46.380;REPSWITCH1_version1_list4;2022.2.4;143.9679584;
REPSWITCH1/PICTURE_8.png;pierna;type;darkblue;filler;1;F;1;4;4;1;Stim3_Set4;0;None;1;0;1;0;0;0;0;;;;;;;;;;;;;;;;;;;;;;;19.4103103;20.5007058;20.5007058;20.5007058;20.5007058;20.5007058;20.5007058;20.5007058;20.5007058;23.5289882;23.5289882;23.5289882;23.5289882;23.5289882;23.5289882;['p', 'i', 'e', 'r', 'm', 'backspace', 'n', 'a'];0;[1.0814492998179048, 1.3994509996846318, 1.557914299890399, 1.6087907997425646, 1.7895309997256845, 2.273711299756542, 2.7196527998894453, 2.850209799828008];pierna;C:\2023\REPSWITCH21092023\REPSWITCH_excgange\REPSWITCH_excgange\data/230104_REPSWITCH1_version1_list4_2023-12-01_15h08.46.380_micRespv1l4_recorded\recording_micRespv1l4_2023-12-01_15h09.04.073.wav;23.5289882;24.0289705;None;;;;;;230104;1;2023-12-01_15h08.46.380;REPSWITCH1_version1_list4;2022.2.4;143.9679584;
REPSWITCH1/PICTURE_498.png;taza;speak;gold;filler;2;F;1;4;4;1;Stim4_Set4;0;None;2;1;2;0;1;1;1;;;;;;;;;;;;;;;;;;;;;;;24.0289705;25.2235796;25.2235796;25.2235796;25.2235796;25.2235796;25.2235796;25.2235796;25.2235796;28.2517614;28.2517614;28.2517614;28.2517614;28.2517614;28.2517614;None;0;;;C:\2023\REPSWITCH21092023\REPSWITCH_excgange\REPSWITCH_excgange\data/230104_REPSWITCH1_version1_list4_2023-12-01_15h08.46.380_micRespv1l4_recorded\recording_micRespv1l4_2023-12-01_15h09.08.795.wav;28.2517614;;None;;;;;;230104;1;2023-12-01_15h08.46.380;REPSWITCH1_version1_list4;2022.2.4;143.9679584;
REPSWITCH1/PICTURE_19.png;pavo;speak;gold;nontarget;2;NT;1;4;4;1;Stim5_Set1;1;repeat;3;2;3;0;2;2;2;;;;;;;;;;;;;;;;;;;;;;;28.751821;29.8352862;29.8352862;29.8352862;29.8352862;29.8352862;29.8352862;29.8352862;29.8352862;32.8565268;32.8565268;32.8565268;32.8565268;32.8565268;32.8565268;None;0;;;C:\2023\REPSWITCH21092023\REPSWITCH_excgange\REPSWITCH_excgange\data/230104_REPSWITCH1_version1_list4_2023-12-01_15h08.46.380_micRespv1l4_recorded\recording_micRespv1l4_2023-12-01_15h09.13.406.wav;32.8565268;33.3565936;None;;;;;;230104;1;2023-12-01_15h08.46.380;REPSWITCH1_version1_list4;2022.2.4;143.9679584;
REPSWITCH1/PICTURE_19.png;pavo;speak;gold;repeat;2;T;1;4;4;1;Stim5_Set1;0;None;4;3;4;0;3;3;3;;;;;;;;;;;;;;;;;;;;;;;33.3565936;34.488664;34.488664;34.488664;34.488664;34.488664;34.488664;34.488664;34.488664;37.5168937;37.5168937;37.5168937;37.5168937;37.5168937;37.5168937;None;0;;;C:\2023\REPSWITCH21092023\REPSWITCH_excgange\REPSWITCH_excgange\data/230104_REPSWITCH1_version1_list4_2023-12-01_15h08.46.380_micRespv1l4_recorded\recording_micRespv1l4_2023-12-01_15h09.18.060.wav;37.5168937;;None;;;;;;230104;1;2023-12-01_15h08.46.380;REPSWITCH1_version1_list4;2022.2.4;143.9679584;
REPSWITCH1/PICTURE_319.png;vaca;type;darkblue;filler;1;F;1;4;4;1;Stim1_Set4;1;repeat;5;4;5;0;4;4;4;;;;;;;;;;;;;;;;;;;;;;;38.0169299;39.0656828;39.0656828;39.0656828;39.0656828;39.0656828;39.0656828;39.0656828;39.0656828;42.0869255;42.0869255;42.0869255;42.0869255;42.0869255;42.0869255;['v', 'a', 'c', 'a'];0;[1.0551273000892252, 1.1940683999564499, 1.3303193000610918, 1.4389663999900222];vaca;C:\2023\REPSWITCH21092023\REPSWITCH_excgange\REPSWITCH_excgange\data/230104_REPSWITCH1_version1_list4_2023-12-01_15h08.46.380_micRespv1l4_recorded\recording_micRespv1l4_2023-12-01_15h09.22.635.wav;42.0869255;42.5869759;None;;;;;;230104;1;2023-12-01_15h08.46.380;REPSWITCH1_version1_list4;2022.2.4;143.9679584;
REPSWITCH1/PICTURE_169.png;espalda;speak;gold;nontarget;2;NT;1;4;4;1;Stim8_Set1;1;switch;6;5;6;0;5;5;5;;;;;;;;;;;;;;;;;;;;;;;42.5869759;43.7607868;43.7607868;43.7607868;43.7607868;43.7607868;43.7607868;43.7607868;43.7607868;46.782032;46.782032;46.782032;46.782032;46.782032;46.782032;None;0;;;C:\2023\REPSWITCH21092023\REPSWITCH_excgange\REPSWITCH_excgange\data/230104_REPSWITCH1_version1_list4_2023-12-01_15h08.46.380_micRespv1l4_recorded\recording_micRespv1l4_2023-12-01_15h09.27.331.wav;46.782032;47.2820734;None;;;;;;230104;1;2023-12-01_15h08.46.380;REPSWITCH1_version1_list4;2022.2.4;143.9679584;
REPSWITCH1/PICTURE_169.png;espalda;speak;gold;repeat;2;T;1;4;4;1;Stim8_Set1;0;None;7;6;7;0;6;6;6;;;;;;;;;;;;;;;;;;;;;;;47.2820734;48.3655108;48.3655108;48.3655108;48.3655108;48.3655108;48.3655108;48.3655108;48.3655108;51.3867987;51.3867987;51.3867987;51.3867987;51.3867987;51.3867987;None;0;;;C:\2023\REPSWITCH21092023\REPSWITCH_excgange\REPSWITCH_excgange\data/230104_REPSWITCH1_version1_list4_2023-12-01_15h08.46.380_micRespv1l4_recorded\recording_micRespv1l4_2023-12-01_15h09.31.934.wav;51.3867987;51.8868189;None;;;;;;230104;1;2023-12-01_15h08.46.380;REPSWITCH1_version1_list4;2022.2.4;143.9679584;
REPSWITCH1/PICTURE_728.png;pulpo;type;darkblue;filler;1;F;1;4;4;1;Stim8_Set4;0;None;8;7;8;0;7;7;7;;;;;;;;;;;;;;;;;;;;;;;51.8868189;52.9842246;52.9842246;52.9842246;52.9842246;52.9842246;52.9842246;52.9842246;52.9842246;56.0054015;56.0054015;56.0054015;56.0054015;56.0054015;56.0054015;['p', 'u', 'l', 'p', 'o'];0;[1.093903899891302, 1.3968863999471068, 1.6945182997733355, 1.9128740997985005, 2.047426799777895];pulpo;C:\2023\REPSWITCH21092023\REPSWITCH_excgange\REPSWITCH_excgange\data/230104_REPSWITCH1_version1_list4_2023-12-01_15h08.46.380_micRespv1l4_recorded\recording_micRespv1l4_2023-12-01_15h09.36.554.wav;56.0054015;56.5055276;None;;;;;;230104;1;2023-12-01_15h08.46.380;REPSWITCH1_version1_list4;2022.2.4;143.9679584;
REPSWITCH1/PICTURE_142.png;vaso;speak;gold;nontarget;2;NT;1;4;4;1;Stim7_Set1;1;switch;9;8;9;0;8;8;8;;;;;;;;;;;;;;;;;;;;;;;56.5055276;57.6097628;57.6097628;57.6097628;57.6097628;57.6097628;57.6097628;57.6097628;57.6097628;60.637938;60.637938;60.637938;60.637938;60.637938;60.637938;None;0;;;C:\2023\REPSWITCH21092023\REPSWITCH_excgange\REPSWITCH_excgange\data/230104_REPSWITCH1_version1_list4_2023-12-01_15h08.46.380_micRespv1l4_recorded\recording_micRespv1l4_2023-12-01_15h09.41.180.wav;60.637938;;None;;;;;;230104;1;2023-12-01_15h08.46.380;REPSWITCH1_version1_list4;2022.2.4;143.9679584;
REPSWITCH1/PICTURE_142.png;vaso;type;darkblue;switch;1;T;1;4;4;1;Stim7_Set1;0;None;10;9;10;0;9;9;9;;;;;;;;;;;;;;;;;;;;;;;61.1379936;62.1868102;62.1868102;62.1868102;62.1868102;62.1868102;62.1868102;62.1868102;62.1868102;65.21494;65.21494;65.21494;65.21494;65.21494;65.21494;['v', 'a', 's', 'o'];0;[1.2219128999859095, 1.343512199819088, 1.4512171000242233, 1.7384979999624193];vaso;C:\2023\REPSWITCH21092023\REPSWITCH_excgange\REPSWITCH_excgange\data/230104_REPSWITCH1_version1_list4_2023-12-01_15h08.46.380_micRespv1l4_recorded\recording_micRespv1l4_2023-12-01_15h09.45.757.wav;65.21494;;None;;;;;;230104;1;2023-12-01_15h08.46.380;REPSWITCH1_version1_list4;2022.2.4;143.9679584;
REPSWITCH1/PICTURE_338.png;regalo;type;darkblue;filler;1;F;1;4;4;1;Stim6_Set4;1;repeat;11;10;11;0;10;10;10;;;;;;;;;;;;;;;;;;;;;;;65.7149798;66.8818254;66.8818254;66.8818254;66.8818254;66.8818254;66.8818254;66.8818254;66.8818254;69.9099928;69.9099928;69.9099928;69.9099928;69.9099928;69.9099928;['r', 'e', 'g', 'a', 'l', 'o'];0;[1.3055753998924047, 1.3935905997641385, 1.6547196998726577, 1.8640149999409914, 2.016518399817869, 2.213238399941474];regalo;C:\2023\REPSWITCH21092023\REPSWITCH_excgange\REPSWITCH_excgange\data/230104_REPSWITCH1_version1_list4_2023-12-01_15h08.46.380_micRespv1l4_recorded\recording_micRespv1l4_2023-12-01_15h09.50.453.wav;69.9099928;;None;;;;;;230104;1;2023-12-01_15h08.46.380;REPSWITCH1_version1_list4;2022.2.4;143.9679584;
REPSWITCH1/PICTURE_135.png;traje;type;darkblue;nontarget;1;NT;1;4;4;1;Stim3_Set1;1;repeat;12;11;12;0;11;11;11;;;;;;;;;;;;;;;;;;;;;;;70.4101103;71.5005496;71.5005496;71.5005496;71.5005496;71.5005496;71.5005496;71.5005496;71.5005496;74.5218007;74.5218007;74.5218007;74.5218007;74.5218007;74.5218007;['t', 'r', 'a', 'j', 'e'];0;[1.0661850997712463, 1.114050299860537, 1.3395214998163283, 1.6694130999967456, 1.7676025999244303];traje;C:\2023\REPSWITCH21092023\REPSWITCH_excgange\REPSWITCH_excgange\data/230104_REPSWITCH1_version1_list4_2023-12-01_15h08.46.380_micRespv1l4_recorded\recording_micRespv1l4_2023-12-01_15h09.55.070.wav;74.5218007;75.0217755;None;;;;;;230104;1;2023-12-01_15h08.46.380;REPSWITCH1_version1_list4;2022.2.4;143.9679584;
REPSWITCH1/PICTURE_135.png;traje;speak;gold;switch;2;T;1;4;4;1;Stim3_Set1;0;None;13;12;13;0;12;12;12;;;;;;;;;;;;;;;;;;;;;;;75.0217755;76.0983085;76.0983085;76.0983085;76.0983085;76.0983085;76.0983085;76.0983085;76.0983085;79.12655;79.12655;79.12655;79.12655;79.12655;79.12655;None;0;;;C:\2023\REPSWITCH21092023\REPSWITCH_excgange\REPSWITCH_excgange\data/230104_REPSWITCH1_version1_list4_2023-12-01_15h08.46.380_micRespv1l4_recorded\recording_micRespv1l4_2023-12-01_15h09.59.668.wav;79.12655;;None;;;;;;230104;1;2023-12-01_15h08.46.380;REPSWITCH1_version1_list4;2022.2.4;143.9679584;
REPSWITCH1/PICTURE_381.png;fresa;speak;gold;nontarget;2;NT;1;4;4;1;Stim2_Set1;1;repeat;14;13;14;0;13;13;13;;;;;;;;;;;;;;;;;;;;;;;79.6265474;80.7169568;80.7169568;80.7169568;80.7169568;80.7169568;80.7169568;80.7169568;80.7169568;83.7451201;83.7451201;83.7451201;83.7451201;83.7451201;83.7451201;None;0;;;C:\2023\REPSWITCH21092023\REPSWITCH_excgange\REPSWITCH_excgange\data/230104_REPSWITCH1_version1_list4_2023-12-01_15h08.46.380_micRespv1l4_recorded\recording_micRespv1l4_2023-12-01_15h10.04.287.wav;83.7451201;84.2451851;None;;;;;;230104;1;2023-12-01_15h08.46.380;REPSWITCH1_version1_list4;2022.2.4;143.9679584;
REPSWITCH1/PICTURE_381.png;fresa;type;darkblue;switch;1;T;1;4;4;1;Stim2_Set1;0;None;15;14;15;0;14;14;14;;;;;;;;;;;;;;;;;;;;;;;84.2451851;85.2869953;85.2869953;85.2869953;85.2869953;85.2869953;85.2869953;85.2869953;85.2869953;88.3151714;88.3151714;88.3151714;88.3151714;88.3151714;88.3151714;['f', 'r', 'e', 's', 'a'];0;[0.8869612999260426, 1.108785199932754, 1.1197099999990314, 1.62932930001989, 1.806696099927649];fresa;C:\2023\REPSWITCH21092023\REPSWITCH_excgange\REPSWITCH_excgange\data/230104_REPSWITCH1_version1_list4_2023-12-01_15h08.46.380_micRespv1l4_recorded\recording_micRespv1l4_2023-12-01_15h10.08.858.wav;88.3151714;;None;;;;;;230104;1;2023-12-01_15h08.46.380;REPSWITCH1_version1_list4;2022.2.4;143.9679584;
REPSWITCH1/PICTURE_48.png;bombero;type;darkblue;filler;1;F;1;4;4;1;Stim7_Set4;0;None;16;15;16;0;15;15;15;;;;;;;;;;;;;;;;;;;;;;;88.8153059;89.9542775;89.9542775;89.9542775;89.9542775;89.9542775;89.9542775;89.9542775;89.9542775;92.9755336;92.9755336;92.9755336;92.9755336;92.9755336;92.9755336;['b', 'o', 'm', 'b', 'e', 'r', 'r', 'o'];0;[1.3575969999656081, 1.5399330998770893, 1.8159954000730067, 2.030619200086221, 2.463168299989775, 2.581089199986309, 2.60201060003601, 2.753497799858451];bomberro;C:\2023\REPSWITCH21092023\REPSWITCH_excgange\REPSWITCH_excgange\data/230104_REPSWITCH1_version1_list4_2023-12-01_15h08.46.380_micRespv1l4_recorded\recording_micRespv1l4_2023-12-01_15h10.13.525.wav;92.9755336;93.4755858;None;;;;;;230104;1;2023-12-01_15h08.46.380;REPSWITCH1_version1_list4;2022.2.4;143.9679584;
REPSWITCH1/PICTURE_687.png;camisa;speak;gold;filler;2;F;1;4;4;1;Stim5_Set4;0;None;17;16;17;0;16;16;16;;;;;;;;;;;;;;;;;;;;;;;93.4755858;94.6216357;94.6216357;94.6216357;94.6216357;94.6216357;94.6216357;94.6216357;94.6216357;97.6428045;97.6428045;97.6428045;97.6428045;97.6428045;97.6428045;None;0;;;C:\2023\REPSWITCH21092023\REPSWITCH_excgange\REPSWITCH_excgange\data/230104_REPSWITCH1_version1_list4_2023-12-01_15h08.46.380_micRespv1l4_recorded\recording_micRespv1l4_2023-12-01_15h10.18.191.wav;97.6428045;98.1429359;None;;;;;;230104;1;2023-12-01_15h08.46.380;REPSWITCH1_version1_list4;2022.2.4;143.9679584;
REPSWITCH1/PICTURE_128.png;muñeca;type;darkblue;nontarget;1;NT;1;4;4;1;Stim4_Set1;0;None;18;17;18;0;17;17;17;;;;;;;;;;;;;;;;;;;;;;;98.1429359;99.2610568;99.2610568;99.2610568;99.2610568;99.2610568;99.2610568;99.2610568;99.2610568;102.282301;102.282301;102.282301;102.282301;102.282301;102.282301;['m', 'u', 'ñ', 'e', 'c'];0;[1.6607762996573001, 1.8540517997462302, 2.3718118998222053, 2.614028899697587, 2.9758009996730834];muñec;C:\2023\REPSWITCH21092023\REPSWITCH_excgange\REPSWITCH_excgange\data/230104_REPSWITCH1_version1_list4_2023-12-01_15h08.46.380_micRespv1l4_recorded\recording_micRespv1l4_2023-12-01_15h10.22.831.wav;102.282301;102.7823498;None;;;;;;230104;1;2023-12-01_15h08.46.380;REPSWITCH1_version1_list4;2022.2.4;143.9679584;
REPSWITCH1/PICTURE_128.png;muñeca;type;darkblue;repeat;1;T;1;4;4;1;Stim4_Set1;0;None;19;18;19;0;18;18;18;;;;;;;;;;;;;;;;;;;;;;;102.7823498;103.8728343;103.8728343;103.8728343;103.8728343;103.8728343;103.8728343;103.8728343;103.8728343;106.8939932;106.8939932;106.8939932;106.8939932;106.8939932;106.8939932;['m', 'u', 'ñ', 'e', 'c', 'a'];0;[0.8187963997479528, 0.9786218998488039, 1.425331899896264, 1.5519352997653186, 2.0105961998924613, 2.122283199802041];muñeca;C:\2023\REPSWITCH21092023\REPSWITCH_excgange\REPSWITCH_excgange\data/230104_REPSWITCH1_version1_list4_2023-12-01_15h08.46.380_micRespv1l4_recorded\recording_micRespv1l4_2023-12-01_15h10.27.443.wav;106.8939932;107.394116;None;;;;;;230104;1;2023-12-01_15h08.46.380;REPSWITCH1_version1_list4;2022.2.4;143.9679584;
REPSWITCH1/PICTURE_719.png;baño;speak;gold;filler;2;F;1;4;4;1;Stim2_Set4;1;switch;20;19;20;0;19;19;19;;;;;;;;;;;;;;;;;;;;;;;107.394116;108.4776127;108.4776127;108.4776127;108.4776127;108.4776127;108.4776127;108.4776127;108.4776127;111.4987705;111.4987705;111.4987705;111.4987705;111.4987705;111.4987705;None;0;;;C:\2023\REPSWITCH21092023\REPSWITCH_excgange\REPSWITCH_excgange\data/230104_REPSWITCH1_version1_list4_2023-12-01_15h08.46.380_micRespv1l4_recorded\recording_micRespv1l4_2023-12-01_15h10.32.048.wav;111.4987705;111.9988485;None;;;;;;230104;1;2023-12-01_15h08.46.380;REPSWITCH1_version1_list4;2022.2.4;143.9679584;
REPSWITCH1/PICTURE_178.png;puente;type;darkblue;nontarget;1;NT;1;4;4;1;Stim1_Set1;1;switch;21;20;21;0;20;20;20;;;;;;;;;;;;;;;;;;;;;;;111.9988485;113.2143063;113.2143063;113.2143063;113.2143063;113.2143063;113.2143063;113.2143063;113.2143063;116.2355172;116.2355172;116.2355172;116.2355172;116.2355172;116.2355172;['p', 'u', 'e', 'n', 't', 'e'];0;[1.0482505997642875, 1.3091569999232888, 1.4952293997630477, 1.6246412999462336, 1.8220876997802407, 1.9202460998203605];puente;C:\2023\REPSWITCH21092023\REPSWITCH_excgange\REPSWITCH_excgange\data/230104_REPSWITCH1_version1_list4_2023-12-01_15h08.46.380_micRespv1l4_recorded\recording_micRespv1l4_2023-12-01_15h10.36.785.wav;116.2355172;116.7355769;None;;;;;;230104;1;2023-12-01_15h08.46.380;REPSWITCH1_version1_list4;2022.2.4;143.9679584;
REPSWITCH1/PICTURE_178.png;puente;type;darkblue;repeat;1;T;1;4;4;1;Stim1_Set1;0;None;22;21;22;0;21;21;21;;;;;;;;;;;;;;;;;;;;;;;116.7355769;117.7843897;117.7843897;117.7843897;117.7843897;117.7843897;117.7843897;117.7843897;117.7843897;120.8124847;120.8124847;120.8124847;120.8124847;120.8124847;120.8124847;['p', 'u', 'e', 'n', 't', 'e'];0;[0.9559178999625146, 1.194588900078088, 1.3611234000418335, 1.4776717000640929, 1.700311099877581, 1.795988499885425];puente;C:\2023\REPSWITCH21092023\REPSWITCH_excgange\REPSWITCH_excgange\data/230104_REPSWITCH1_version1_list4_2023-12-01_15h08.46.380_micRespv1l4_recorded\recording_micRespv1l4_2023-12-01_15h10.41.355.wav;120.8124847;;None;;;;;;230104;1;2023-12-01_15h08.46.380;REPSWITCH1_version1_list4;2022.2.4;143.9679584;
REPSWITCH1/PICTURE_16.png;cazador;type;darkblue;nontarget;1;NT;1;4;4;1;Stim6_Set1;1;repeat;23;22;23;0;22;22;22;;;;;;;;;;;;;;;;;;;;;;;121.3125651;122.5071866;122.5071866;122.5071866;122.5071866;122.5071866;122.5071866;122.5071866;122.5071866;125.5284062;125.5284062;125.5284062;125.5284062;125.5284062;125.5284062;['c', 'a', 'z', 'a', 'd', 'o', 'r'];0;[1.260180399985984, 1.3917311998084188, 1.6012390998657793, 1.723901999881491, 1.9085508999414742, 2.180641499813646, 2.271615299861878];cazador;C:\2023\REPSWITCH21092023\REPSWITCH_excgange\REPSWITCH_excgange\data/230104_REPSWITCH1_version1_list4_2023-12-01_15h08.46.380_micRespv1l4_recorded\recording_micRespv1l4_2023-12-01_15h10.46.077.wav;125.5284062;126.0285369;None;;;;;;230104;1;2023-12-01_15h08.46.380;REPSWITCH1_version1_list4;2022.2.4;143.9679584;
REPSWITCH1/PICTURE_16.png;cazador;speak;gold;switch;2;T;1;4;4;1;Stim6_Set1;0;None;24;23;24;0;23;23;23;;;;;;;;;;;;;;;;;;;;;;;126.0285369;127.1049778;127.1049778;127.1049778;127.1049778;127.1049778;127.1049778;127.1049778;127.1049778;130.1261895;130.1261895;130.1261895;130.1261895;130.1261895;130.1261895;None;0;;;C:\2023\REPSWITCH21092023\REPSWITCH_excgange\REPSWITCH_excgange\data/230104_REPSWITCH1_version1_list4_2023-12-01_15h08.46.380_micRespv1l4_recorded\recording_micRespv1l4_2023-12-01_15h10.50.676.wav;130.1261895;130.6263647;None;;;;;;230104;1;2023-12-01_15h08.46.380;REPSWITCH1_version1_list4;2022.2.4;143.9679584;
REPSWITCH1/PICTURE_19.png;pavo;type;darkblue;filler;1;F;2;4;4;1;Stim5_Set1;0;None;25;24;25;0;24;24;24;;;;;;;;;;;;;;;;;;;;;;;130.6263647;131.6819645;131.6819645;131.6819645;131.6819645;131.6819645;131.6819645;131.6819645;131.6819645;134.7101323;134.7101323;134.7101323;134.7101323;134.7101323;134.7101323;['p', 'a', 'v', 'o'];0;[1.2832842997740954, 1.4128392997663468, 1.651236199773848, 1.8458428997546434];pavo;C:\2023\REPSWITCH21092023\REPSWITCH_excgange\REPSWITCH_excgange\data/230104_REPSWITCH1_version1_list4_2023-12-01_15h08.46.380_micRespv1l4_recorded\recording_micRespv1l4_2023-12-01_15h10.55.253.wav;134.7101323;;None;;;;;;230104;1;2023-12-01_15h08.46.380;REPSWITCH1_version1_list4;2022.2.4;143.9679584;
REPSWITCH1/PICTURE_199.png;falda;type;darkblue;nontarget;1;NT;2;4;4;1;Stim8_Set2;1;repeat;26;25;26;0;25;25;25;;;;;;;;;;;;;;;;;;;;;;;135.2102145;136.3353927;136.3353927;136.3353927;136.3353927;136.3353927;136.3353927;136.3353927;136.3353927;139.3566468;139.3566468;139.3566468;139.3566468;139.3566468;139.3566468;['f', 'a', 'l', 'd', 'a'];0;[0.9834151000250131, 1.1227611999493092, 1.6294730000663549, 1.7978358999826014, 1.9196116998791695];falda;C:\2023\REPSWITCH21092023\REPSWITCH_excgange\REPSWITCH_excgange\data/230104_REPSWITCH1_version1_list4_2023-12-01_15h08.46.380_micRespv1l4_recorded\recording_micRespv1l4_2023-12-01_15h10.59.906.wav;139.3566468;139.8566691;None;;;;;;230104;1;2023-12-01_15h08.46.380;REPSWITCH1_version1_list4;2022.2.4;143.9679584;
REPSWITCH1/PICTURE_199.png;falda;type;darkblue;repeat;1;T;2;4;4;1;Stim8_Set2;0;None;27;26;27;0;26;26;26;;;;;;;;;;;;;;;;;;;;;;;139.8566691;140.8845736;140.8845736;140.8845736;140.8845736;140.8845736;140.8845736;140.8845736;140.8845736;143.9058162;143.9058162;143.9058162;143.9058162;143.9058162;143.9058162;['f', 'a', 'l', 'd', 'a'];0;[0.9957860996946692, 1.1991317998617887, 1.3356828996911645, 1.575949999736622, 1.7991694996599108];falda;C:\2023\REPSWITCH21092023\REPSWITCH_excgange\REPSWITCH_excgange\data/230104_REPSWITCH1_version1_list4_2023-12-01_15h08.46.380_micRespv1l4_recorded\recording_micRespv1l4_2023-12-01_15h11.04.455.wav;143.9058162;144.4058824;None;;;;;;230104;1;2023-12-01_15h08.46.380;REPSWITCH1_version1_list4;2022.2.4;143.9679584;
REPSWITCH1/PICTURE_178.png;puente;speak;gold;filler;2;F;2;4;4;1;Stim1_Set1;1;switch;28;27;28;0;27;27;27;;;;;;;;;;;;;;;;;;;;;;;144.4058824;145.4755454;145.4755454;145.4755454;145.4755454;145.4755454;145.4755454;145.4755454;145.4755454;148.4966957;148.4966957;148.4966957;148.4966957;148.4966957;148.4966957;None;0;;;C:\2023\REPSWITCH21092023\REPSWITCH_excgange\REPSWITCH_excgange\data/230104_REPSWITCH1_version1_list4_2023-12-01_15h08.46.380_micRespv1l4_recorded\recording_micRespv1l4_2023-12-01_15h11.09.045.wav;148.4966957;148.9967597;None;;;;;;230104;1;2023-12-01_15h08.46.380;REPSWITCH1_version1_list4;2022.2.4;143.9679584;
REPSWITCH1/PICTURE_517.png;cuerda;type;darkblue;nontarget;1;NT;2;4;4;1;Stim4_Set2;1;switch;29;28;29;0;28;28;28;;;;;;;;;;;;;;;;;;;;;;;148.9967597;150.0941101;150.0941101;150.0941101;150.0941101;150.0941101;150.0941101;150.0941101;150.0941101;153.1153638;153.1153638;153.1153638;153.1153638;153.1153638;153.1153638;['c', 'u', 'e', 'r', 'd', 'a'];0;[1.0671764998696744, 1.1970104998908937, 1.3468526997603476, 1.3826912997756153, 1.6360009999480098, 1.7808339998591691];cuerda;C:\2023\REPSWITCH21092023\REPSWITCH_excgange\REPSWITCH_excgange\data/230104_REPSWITCH1_version1_list4_2023-12-01_15h08.46.380_micRespv1l4_recorded\recording_micRespv1l4_2023-12-01_15h11.13.664.wav;153.1153638;153.6154869;None;;;;;;230104;1;2023-12-01_15h08.46.380;REPSWITCH1_version1_list4;2022.2.4;143.9679584;
REPSWITCH1/PICTURE_517.png;cuerda;type;darkblue;repeat;1;T;2;4;4;1;Stim4_Set2;0;None;30;29;30;0;29;29;29;;;;;;;;;;;;;;;;;;;;;;;153.6154869;154.7058382;154.7058382;154.7058382;154.7058382;154.7058382;154.7058382;154.7058382;154.7058382;157.7340582;157.7340582;157.7340582;157.7340582;157.7340582;157.7340582;['c', 'u', 'e', 'r', 'd', 'a'];0;[0.7687462999019772, 0.9770430999342352, 1.101692199939862, 1.170380799798295, 1.42540069995448, 1.6011211997829378];cuerda;C:\2023\REPSWITCH21092023\REPSWITCH_excgange\REPSWITCH_excgange\data/230104_REPSWITCH1_version1_list4_2023-12-01_15h08.46.380_micRespv1l4_recorded\recording_micRespv1l4_2023-12-01_15h11.18.277.wav;157.7340582;;None;;;;;;230104;1;2023-12-01_15h08.46.380;REPSWITCH1_version1_list4;2022.2.4;143.9679584;
REPSWITCH1/PICTURE_169.png;espalda;type;darkblue;filler;1;F;2;4;4;1;Stim8_Set1;0;None;31;30;31;0;30;30;30;;;;;;;;;;;;;;;;;;;;;;;158.2340548;159.2897742;159.2897742;159.2897742;159.2897742;159.2897742;159.2897742;159.2897742;159.2897742;162.3110145;162.3110145;162.3110145;162.3110145;162.3110145;162.3110145;['e', 's', 'p', 'a', 'l', 'd', 'a'];0;[0.8263379998970777, 1.071851999964565, 1.2223211000673473, 1.3708573000039905, 1.5079848000314087, 1.6824052999727428, 1.7622165998909622];espalda;C:\2023\REPSWITCH21092023\REPSWITCH_excgange\REPSWITCH_excgange\data/230104_REPSWITCH1_version1_list4_2023-12-01_15h08.46.380_micRespv1l4_recorded\recording_micRespv1l4_2023-12-01_15h11.22.860.wav;162.3110145;162.8110437;None;;;;;;230104;1;2023-12-01_15h08.46.380;REPSWITCH1_version1_list4;2022.2.4;143.9679584;
REPSWITCH1/PICTURE_673.png;tenedor;speak;gold;filler;2;F;2;4;4;1;Extra5;0;None;32;31;32;0;31;31;31;;;;;;;;;;;;;;;;;;;;;;;162.8110437;163.8667401;163.8667401;163.8667401;163.8667401;163.8667401;163.8667401;163.8667401;163.8667401;166.8949144;166.8949144;166.8949144;166.8949144;166.8949144;166.8949144;None;0;;;C:\2023\REPSWITCH21092023\REPSWITCH_excgange\REPSWITCH_excgange\data/230104_REPSWITCH1_version1_list4_2023-12-01_15h08.46.380_micRespv1l4_recorded\recording_micRespv1l4_2023-12-01_15h11.27.437.wav;166.8949144;;None;;;;;;230104;1;2023-12-01_15h08.46.380;REPSWITCH1_version1_list4;2022.2.4;143.9679584;
REPSWITCH1/PICTURE_142.png;vaso;type;darkblue;filler;1;F;2;4;4;1;Stim7_Set1;1;switch;33;32;33;0;32;32;32;;;;;;;;;;;;;;;;;;;;;;;167.394966;168.4854163;168.4854163;168.4854163;168.4854163;168.4854163;168.4854163;168.4854163;168.4854163;171.5067281;171.5067281;171.5067281;171.5067281;171.5067281;171.5067281;['v', 'a', 's', 'o'];0;[0.9054651998449117, 1.1306679998524487, 1.1773720998317003, 1.7248934998642653];vaso;C:\2023\REPSWITCH21092023\REPSWITCH_excgange\REPSWITCH_excgange\data/230104_REPSWITCH1_version1_list4_2023-12-01_15h08.46.380_micRespv1l4_recorded\recording_micRespv1l4_2023-12-01_15h11.32.055.wav;171.5067281;172.0066846;None;;;;;;230104;1;2023-12-01_15h08.46.380;REPSWITCH1_version1_list4;2022.2.4;143.9679584;
REPSWITCH1/PICTURE_552.png;manzana;type;darkblue;nontarget;1;NT;2;4;4;1;Stim6_Set2;1;repeat;34;33;34;0;33;33;33;;;;;;;;;;;;;;;;;;;;;;;172.0066846;173.1735974;173.1735974;173.1735974;173.1735974;173.1735974;173.1735974;173.1735974;173.1735974;176.2017782;176.2017782;176.2017782;176.2017782;176.2017782;176.2017782;['m', 'a', 'n', 'z', 'a', 'n', 'a'];0;[1.2968974998220801, 1.415468799881637, 1.5579941999167204, 1.921115699922666, 2.088849099818617, 2.195551399840042, 2.2962746997363865];manzana;C:\2023\REPSWITCH21092023\REPSWITCH_excgange\REPSWITCH_excgange\data/230104_REPSWITCH1_version1_list4_2023-12-01_15h08.46.380_micRespv1l4_recorded\recording_micRespv1l4_2023-12-01_15h11.36.744.wav;176.2017782;;None;;;;;;230104;1;2023-12-01_15h08.46.380;REPSWITCH1_version1_list4;2022.2.4;143.9679584;
REPSWITCH1/PICTURE_552.png;manzana;speak;gold;switch;1;T;2;4;4;1;Stim6_Set2;0;None;35;34;35;0;34;34;34;;;;;;;;;;;;;;;;;;;;;;;176.7017815;177.7366566;177.7366566;177.7366566;177.7366566;177.7366566;177.7366566;177.7366566;177.7366566;180.7648092;180.7648092;180.7648092;180.7648092;180.7648092;180.7648092;None;0;;;C:\2023\REPSWITCH21092023\REPSWITCH_excgange\REPSWITCH_excgange\data/230104_REPSWITCH1_version1_list4_2023-12-01_15h08.46.380_micRespv1l4_recorded\recording_micRespv1l4_2023-12-01_15h11.41.307.wav;180.7648092;;None;;;;;;230104;1;2023-12-01_15h08.46.380;REPSWITCH1_version1_list4;2022.2.4;143.9679584;
REPSWITCH1/PICTURE_135.png;traje;speak;gold;filler;2;F;2;4;4;1;Stim3_Set1;0;None;36;35;36;0;35;35;35;;;;;;;;;;;;;;;;;;;;;;;181.2648741;182.4178125;182.4178125;182.4178125;182.4178125;182.4178125;182.4178125;182.4178125;182.4178125;185.4390147;185.4390147;185.4390147;185.4390147;185.4390147;185.4390147;None;0;;;C:\2023\REPSWITCH21092023\REPSWITCH_excgange\REPSWITCH_excgange\data/230104_REPSWITCH1_version1_list4_2023-12-01_15h08.46.380_micRespv1l4_recorded\recording_micRespv1l4_2023-12-01_15h11.45.987.wav;185.4390147;185.9390788;None;;;;;;230104;1;2023-12-01_15h08.46.380;REPSWITCH1_version1_list4;2022.2.4;143.9679584;
REPSWITCH1/PICTURE_152.png;caracol;speak;gold;nontarget;2;NT;2;4;4;1;Stim2_Set2;1;repeat;37;36;37;0;36;36;36;;;;;;;;;;;;;;;;;;;;;;;185.9390788;186.987866;186.987866;186.987866;186.987866;186.987866;186.987866;186.987866;186.987866;190.0160621;190.0160621;190.0160621;190.0160621;190.0160621;190.0160621;None;0;;;C:\2023\REPSWITCH21092023\REPSWITCH_excgange\REPSWITCH_excgange\data/230104_REPSWITCH1_version1_list4_2023-12-01_15h08.46.380_micRespv1l4_recorded\recording_micRespv1l4_2023-12-01_15h11.50.559.wav;190.0160621;;None;;;;;;230104;1;2023-12-01_15h08.46.380;REPSWITCH1_version1_list4;2022.2.4;143.9679584;
REPSWITCH1/PICTURE_152.png;caracol;type;darkblue;switch;1;T;2;4;4;1;Stim2_Set2;0;None;38;37;38;0;37;37;37;;;;;;;;;;;;;;;;;;;;;;;190.5160649;191.6621261;191.6621261;191.6621261;191.6621261;191.6621261;191.6621261;191.6621261;191.6621261;194.690248;194.690248;194.690248;194.690248;194.690248;194.690248;['c', 'a', 'r', 'a', 'c', 'o', 'l'];0;[0.9129799997899681, 1.0684730997309089, 1.250820499844849, 1.4103165997657925, 1.5323624997399747, 1.7984200997743756, 1.9947195998393];caracol;C:\2023\REPSWITCH21092023\REPSWITCH_excgange\REPSWITCH_excgange\data/230104_REPSWITCH1_version1_list4_2023-12-01_15h08.46.380_micRespv1l4_recorded\recording_micRespv1l4_2023-12-01_15h11.55.233.wav;194.690248;;None;;;;;;230104;1;2023-12-01_15h08.46.380;REPSWITCH1_version1_list4;2022.2.4;143.9679584;
REPSWITCH1/PICTURE_381.png;fresa;type;darkblue;filler;1;F;2;4;4;1;Stim2_Set1;0;None;39;38;39;0;38;38;38;;;;;;;;;;;;;;;;;;;;;;;195.1903006;196.3293312;196.3293312;196.3293312;196.3293312;196.3293312;196.3293312;196.3293312;196.3293312;199.3575268;199.3575268;199.3575268;199.3575268;199.3575268;199.3575268;['f', 'r', 'e', 's', 'a'];0;[0.943143299780786, 1.148496699752286, 1.2545510998461396, 1.7141893997322768, 1.9449062997009605];fresa;C:\2023\REPSWITCH21092023\REPSWITCH_excgange\REPSWITCH_excgange\data/230104_REPSWITCH1_version1_list4_2023-12-01_15h08.46.380_micRespv1l4_recorded\recording_micRespv1l4_2023-12-01_15h11.59.900.wav;199.3575268;;None;;;;;;230104;1;2023-12-01_15h08.46.380;REPSWITCH1_version1_list4;2022.2.4;143.9679584;
REPSWITCH1/PICTURE_446.png;cerdo;type;darkblue;nontarget;1;NT;2;4;4;1;Stim7_Set2;1;repeat;40;39;40;0;39;39;39;;;;;;;;;;;;;;;;;;;;;;;199.8576635;200.9480798;200.9480798;200.9480798;200.9480798;200.9480798;200.9480798;200.9480798;200.9480798;203.9762405;203.9762405;203.9762405;203.9762405;203.9762405;203.9762405;['c', 'e', 'r', 'd', 'o'];0;[1.1075015997048467, 1.2689193997066468, 1.4180176998488605, 1.587386999744922, 1.8446568998042494];cerdo;C:\2023\REPSWITCH21092023\REPSWITCH_excgange\REPSWITCH_excgange\data/230104_REPSWITCH1_version1_list4_2023-12-01_15h08.46.380_micRespv1l4_recorded\recording_micRespv1l4_2023-12-01_15h12.04.519.wav;203.9762405;;None;;;;;;230104;1;2023-12-01_15h08.46.380;REPSWITCH1_version1_list4;2022.2.4;143.9679584;
REPSWITCH1/PICTURE_446.png;cerdo;speak;gold;switch;2;T;2;4;4;1;Stim7_Set2;0;None;41;40;41;0;40;40;40;;;;;;;;;;;;;;;;;;;;;;;204.4763202;205.6916856;205.6916856;205.6916856;205.6916856;205.6916856;205.6916856;205.6916856;205.6916856;208.7129111;208.7129111;208.7129111;208.7129111;208.7129111;208.7129111;None;0;;;C:\2023\REPSWITCH21092023\REPSWITCH_excgange\REPSWITCH_excgange\data/230104_REPSWITCH1_version1_list4_2023-12-01_15h08.46.380_micRespv1l4_recorded\recording_micRespv1l4_2023-12-01_15h12.09.262.wav;208.7129111;209.2129626;None;;;;;;230104;1;2023-12-01_15h08.46.380;REPSWITCH1_version1_list4;2022.2.4;143.9679584;
REPSWITCH1/PICTURE_264.png;mano;speak;gold;nontarget;2;NT;2;4;4;1;Stim3_Set2;0;None;42;41;42;0;41;41;41;;;;;;;;;;;;;;;;;;;;;;;209.2129626;210.3311933;210.3311933;210.3311933;210.3311933;210.3311933;210.3311933;210.3311933;210.3311933;213.3525013;213.3525013;213.3525013;213.3525013;213.3525013;213.3525013;None;0;;;C:\2023\REPSWITCH21092023\REPSWITCH_excgange\REPSWITCH_excgange\data/230104_REPSWITCH1_version1_list4_2023-12-01_15h08.46.380_micRespv1l4_recorded\recording_micRespv1l4_2023-12-01_15h12.13.901.wav;213.3525013;213.8525704;None;;;;;;230104;1;2023-12-01_15h08.46.380;REPSWITCH1_version1_list4;2022.2.4;143.9679584;
REPSWITCH1/PICTURE_264.png;mano;speak;gold;repeat;2;T;2;4;4;1;Stim3_Set2;0;None;43;42;43;0;42;42;42;;;;;;;;;;;;;;;;;;;;;;;213.8525704;214.908242;214.908242;214.908242;214.908242;214.908242;214.908242;214.908242;214.908242;217.9294145;217.9294145;217.9294145;217.9294145;217.9294145;217.9294145;None;0;;;C:\2023\REPSWITCH21092023\REPSWITCH_excgange\REPSWITCH_excgange\data/230104_REPSWITCH1_version1_list4_2023-12-01_15h08.46.380_micRespv1l4_recorded\recording_micRespv1l4_2023-12-01_15h12.18.478.wav;217.9294145;218.429558;None;;;;;;230104;1;2023-12-01_15h08.46.380;REPSWITCH1_version1_list4;2022.2.4;143.9679584;
REPSWITCH1/PICTURE_128.png;muñeca;type;darkblue;filler;1;F;2;4;4;1;Stim4_Set1;0;None;44;43;44;0;43;43;43;;;;;;;;;;;;;;;;;;;;;;;218.429558;219.5338141;219.5338141;219.5338141;219.5338141;219.5338141;219.5338141;219.5338141;219.5338141;222.5549803;222.5549803;222.5549803;222.5549803;222.5549803;222.5549803;['m', 'u', 'ñ', 'e', 'c', 'a'];0;[0.9100658998358995, 1.0896815997548401, 1.616260499926284, 1.7189098997041583, 2.0308103999122977, 2.1457156997639686];muñeca;C:\2023\REPSWITCH21092023\REPSWITCH_excgange\REPSWITCH_excgange\data/230104_REPSWITCH1_version1_list4_2023-12-01_15h08.46.380_micRespv1l4_recorded\recording_micRespv1l4_2023-12-01_15h12.23.104.wav;222.5549803;223.0550782;None;;;;;;230104;1;2023-12-01_15h08.46.380;REPSWITCH1_version1_list4;2022.2.4;143.9679584;
REPSWITCH1/PICTURE_30.png;granja;speak;gold;nontarget;2;NT;2;4;4;1;Stim5_Set2;1;switch;45;44;45;0;44;44;44;;;;;;;;;;;;;;;;;;;;;;;223.0550782;224.1733049;224.1733049;224.1733049;224.1733049;224.1733049;224.1733049;224.1733049;224.1733049;227.2014849;227.2014849;227.2014849;227.2014849;227.2014849;227.2014849;None;0;;;C:\2023\REPSWITCH21092023\REPSWITCH_excgange\REPSWITCH_excgange\data/230104_REPSWITCH1_version1_list4_2023-12-01_15h08.46.380_micRespv1l4_recorded\recording_micRespv1l4_2023-12-01_15h12.27.745.wav;227.2014849;;None;;;;;;230104;1;2023-12-01_15h08.46.380;REPSWITCH1_version1_list4;2022.2.4;143.9679584;
REPSWITCH1/PICTURE_30.png;granja;speak;gold;repeat;2;T;2;4;4;1;Stim5_Set2;0;None;46;45;46;0;45;45;45;;;;;;;;;;;;;;;;;;;;;;;227.701524;228.7572514;228.7572514;228.7572514;228.7572514;228.7572514;228.7572514;228.7572514;228.7572514;231.7784179;231.7784179;231.7784179;231.7784179;231.7784179;231.7784179;None;0;;;C:\2023\REPSWITCH21092023\REPSWITCH_excgange\REPSWITCH_excgange\data/230104_REPSWITCH1_version1_list4_2023-12-01_15h08.46.380_micRespv1l4_recorded\recording_micRespv1l4_2023-12-01_15h12.32.328.wav;231.7784179;232.2785122;None;;;;;;230104;1;2023-12-01_15h08.46.380;REPSWITCH1_version1_list4;2022.2.4;143.9679584;
REPSWITCH1/PICTURE_646.png;tronco;type;darkblue;filler;1;F;2;4;4;1;Extra4;0;None;47;46;47;0;46;46;46;;;;;;;;;;;;;;;;;;;;;;;232.2785122;233.3967807;233.3967807;233.3967807;233.3967807;233.3967807;233.3967807;233.3967807;233.3967807;236.4179291;236.4179291;236.4179291;236.4179291;236.4179291;236.4179291;['t', 'r', 'o', 'n', 'c', 'o'];0;[1.3167963998857886, 1.4354063998907804, 1.606530899880454, 1.7988322998862714, 2.090990899829194, 2.167764699785039];tronco;C:\2023\REPSWITCH21092023\REPSWITCH_excgange\REPSWITCH_excgange\data/230104_REPSWITCH1_version1_list4_2023-12-01_15h08.46.380_micRespv1l4_recorded\recording_micRespv1l4_2023-12-01_15h12.36.966.wav;236.4179291;236.9179878;None;;;;;;230104;1;2023-12-01_15h08.46.380;REPSWITCH1_version1_list4;2022.2.4;143.9679584;
REPSWITCH1/PICTURE_16.png;cazador;speak;gold;filler;2;F;2;4;4;1;Stim6_Set1;0;None;48;47;48;0;47;47;47;;;;;;;;;;;;;;;;;;;;;;;236.9179878;237.9597956;237.9597956;237.9597956;237.9597956;237.9597956;237.9597956;237.9597956;237.9597956;240.9880356;240.9880356;240.9880356;240.9880356;240.9880356;240.9880356;None;0;;;C:\2023\REPSWITCH21092023\REPSWITCH_excgange\REPSWITCH_excgange\data/230104_REPSWITCH1_version1_list4_2023-12-01_15h08.46.380_micRespv1l4_recorded\recording_micRespv1l4_2023-12-01_15h12.41.530.wav;240.9880356;;None;;;;;;230104;1;2023-12-01_15h08.46.380;REPSWITCH1_version1_list4;2022.2.4;143.9679584;
REPSWITCH1/PICTURE_175.png;pintor;speak;gold;nontarget;2;NT;2;4;4;1;Stim1_Set2;1;repeat;49;48;49;0;48;48;48;;;;;;;;;;;;;;;;;;;;;;;241.4880203;242.6479914;242.6479914;242.6479914;242.6479914;242.6479914;242.6479914;242.6479914;242.6479914;245.6692122;245.6692122;245.6692122;245.6692122;245.6692122;245.6692122;None;0;;;C:\2023\REPSWITCH21092023\REPSWITCH_excgange\REPSWITCH_excgange\data/230104_REPSWITCH1_version1_list4_2023-12-01_15h08.46.380_micRespv1l4_recorded\recording_micRespv1l4_2023-12-01_15h12.46.218.wav;245.6692122;246.1692273;None;;;;;;230104;1;2023-12-01_15h08.46.380;REPSWITCH1_version1_list4;2022.2.4;143.9679584;
REPSWITCH1/PICTURE_175.png;pintor;type;darkblue;switch;1;T;2;4;4;1;Stim1_Set2;0;None;50;49;50;0;49;49;49;;;;;;;;;;;;;;;;;;;;;;;246.1692273;247.224932;247.224932;247.224932;247.224932;247.224932;247.224932;247.224932;247.224932;250.246133;250.246133;250.246133;250.246133;250.246133;250.246133;['p', 'i', 'n', 't', 'o', 'r'];0;[1.0679663999471813, 1.5949144999030977, 1.8074298999272287, 1.965131799923256, 2.0917471998836845, 2.220323899993673];pintor;C:\2023\REPSWITCH21092023\REPSWITCH_excgange\REPSWITCH_excgange\data/230104_REPSWITCH1_version1_list4_2023-12-01_15h08.46.380_micRespv1l4_recorded\recording_micRespv1l4_2023-12-01_15h12.50.795.wav;250.246133;250.7462896;None;;;;;;230104;1;2023-12-01_15h08.46.380;REPSWITCH1_version1_list4;2022.2.4;143.9679584;
REPSWITCH1/PICTURE_663.png;columna;speak;gold;filler;2;F;4;4;4;1;Extra6;0;None;51;50;51;0;50;50;50;;;;;;;;;;;;;;;;;;;;;;;250.7462896;251.9894938;251.9894938;251.9894938;251.9894938;251.9894938;251.9894938;251.9894938;251.9894938;255.0175855;255.0175855;255.0175855;255.0175855;255.0175855;255.0175855;None;0;;;C:\2023\REPSWITCH21092023\REPSWITCH_excgange\REPSWITCH_excgange\data/230104_REPSWITCH1_version1_list4_2023-12-01_15h08.46.380_micRespv1l4_recorded\recording_micRespv1l4_2023-12-01_15h12.55.559.wav;255.0175855;;space;255.5176722;255.5176722;1.2774549;;;230104;1;2023-12-01_15h08.46.380;REPSWITCH1_version1_list4;2022.2.4;143.9679584;
REPSWITCH1/PICTURE_35.png;oreja;type;darkblue;nontarget;1;NT;3;4;4;1;Stim5_Set3;0;None;52;51;52;0;51;51;51;;;;;;;;;;;;;;;;;;;;;;;256.8025717;257.8930118;257.8930118;257.8930118;257.8930118;257.8930118;257.8930118;257.8930118;257.8930118;260.9142327;260.9142327;260.9142327;260.9142327;260.9142327;260.9142327;['o', 'r', 'e', 'j', 'a'];0;[1.3401957997120917, 1.5437793997116387, 1.6215326997917145, 1.815507099730894, 1.9852371998131275];oreja;C:\2023\REPSWITCH21092023\REPSWITCH_excgange\REPSWITCH_excgange\data/230104_REPSWITCH1_version1_list4_2023-12-01_15h08.46.380_micRespv1l4_recorded\recording_micRespv1l4_2023-12-01_15h13.01.463.wav;260.9142327;261.4142864;None;;;;;;230104;1;2023-12-01_15h08.46.380;REPSWITCH1_version1_list4;2022.2.4;143.9679584;
REPSWITCH1/PICTURE_35.png;oreja;speak;gold;switch;2;T;3;4;4;1;Stim5_Set3;0;None;53;52;53;0;52;52;52;;;;;;;;;;;;;;;;;;;;;;;261.4142864;262.5741476;262.5741476;262.5741476;262.5741476;262.5741476;262.5741476;262.5741476;262.5741476;265.6023482;265.6023482;265.6023482;265.6023482;265.6023482;265.6023482;None;0;;;C:\2023\REPSWITCH21092023\REPSWITCH_excgange\REPSWITCH_excgange\data/230104_REPSWITCH1_version1_list4_2023-12-01_15h08.46.380_micRespv1l4_recorded\recording_micRespv1l4_2023-12-01_15h13.06.145.wav;265.6023482;;None;;;;;;230104;1;2023-12-01_15h08.46.380;REPSWITCH1_version1_list4;2022.2.4;143.9679584;
REPSWITCH1/PICTURE_199.png;falda;speak;gold;filler;2;F;3;4;4;1;Stim8_Set2;0;None;54;53;54;0;53;53;53;;;;;;;;;;;;;;;;;;;;;;;266.1023947;267.1580738;267.1580738;267.1580738;267.1580738;267.1580738;267.1580738;267.1580738;267.1580738;270.1793258;270.1793258;270.1793258;270.1793258;270.1793258;270.1793258;None;0;;;C:\2023\REPSWITCH21092023\REPSWITCH_excgange\REPSWITCH_excgange\data/230104_REPSWITCH1_version1_list4_2023-12-01_15h08.46.380_micRespv1l4_recorded\recording_micRespv1l4_2023-12-01_15h13.10.728.wav;270.1793258;270.6793866;None;;;;;;230104;1;2023-12-01_15h08.46.380;REPSWITCH1_version1_list4;2022.2.4;143.9679584;
REPSWITCH1/PICTURE_576.png;guante;speak;gold;nontarget;2;NT;3;4;4;1;Stim1_Set3;1;repeat;55;54;55;0;54;54;54;;;;;;;;;;;;;;;;;;;;;;;270.6793866;271.7211894;271.7211894;271.7211894;271.7211894;271.7211894;271.7211894;271.7211894;271.7211894;274.742398;274.742398;274.742398;274.742398;274.742398;274.742398;None;0;;;C:\2023\REPSWITCH21092023\REPSWITCH_excgange\REPSWITCH_excgange\data/230104_REPSWITCH1_version1_list4_2023-12-01_15h08.46.380_micRespv1l4_recorded\recording_micRespv1l4_2023-12-01_15h13.15.292.wav;274.742398;275.2424821;None;;;;;;230104;1;2023-12-01_15h08.46.380;REPSWITCH1_version1_list4;2022.2.4;143.9679584;
REPSWITCH1/PICTURE_576.png;guante;type;darkblue;switch;1;T;3;4;4;1;Stim1_Set3;0;None;56;55;56;0;55;55;55;;;;;;;;;;;;;;;;;;;;;;;275.2424821;276.3538063;276.3538063;276.3538063;276.3538063;276.3538063;276.3538063;276.3538063;276.3538063;279.3819325;279.3819325;279.3819325;279.3819325;279.3819325;279.3819325;['g', 'a', 'u', 'n', 'backspace', 'backspace'];0;[1.1819797998759896, 1.4247850999236107, 1.613076200010255, 1.8844679999165237, 2.659218599786982, 2.851352599915117];ga;C:\2023\REPSWITCH21092023\REPSWITCH_excgange\REPSWITCH_excgange\data/230104_REPSWITCH1_version1_list4_2023-12-01_15h08.46.380_micRespv1l4_recorded\recording_micRespv1l4_2023-12-01_15h13.19.925.wav;279.3819325;;None;;;;;;230104;1;2023-12-01_15h08.46.380;REPSWITCH1_version1_list4;2022.2.4;143.9679584;
REPSWITCH1/PICTURE_517.png;cuerda;type;darkblue;filler;1;F;3;4;4;1;Stim4_Set2;1;repeat;57;56;57;0;56;56;56;;;;;;;;;;;;;;;;;;;;;;;279.8819594;280.9863178;280.9863178;280.9863178;280.9863178;280.9863178;280.9863178;280.9863178;280.9863178;284.0074905;284.0074905;284.0074905;284.0074905;284.0074905;284.0074905;['c', 'u', 'e', 'r', 'd', 'a'];0;[0.9609338999725878, 1.0994601000566036, 1.2549526998773217, 1.3017917999532074, 1.5559191000647843, 1.7415054999291897];cuerda;C:\2023\REPSWITCH21092023\REPSWITCH_excgange\REPSWITCH_excgange\data/230104_REPSWITCH1_version1_list4_2023-12-01_15h08.46.380_micRespv1l4_recorded\recording_micRespv1l4_2023-12-01_15h13.24.556.wav;284.0074905;284.5076017;None;;;;;;230104;1;2023-12-01_15h08.46.380;REPSWITCH1_version1_list4;2022.2.4;143.9679584;
REPSWITCH1/PICTURE_271.png;conejo;type;darkblue;nontarget;1;NT;3;4;4;1;Stim7_Set3;1;repeat;58;57;58;0;57;57;57;;;;;;;;;;;;;;;;;;;;;;;284.5076017;285.6814203;285.6814203;285.6814203;285.6814203;285.6814203;285.6814203;285.6814203;285.6814203;288.7095281;288.7095281;288.7095281;288.7095281;288.7095281;288.7095281;['c', 'o', 'n', 'e', 'j', 'o'];0;[0.8793738000094891, 1.0450983999762684, 1.3171939000021666, 1.4490809000562876, 1.6147803000640124, 1.7334415998775512];conejo;C:\2023\REPSWITCH21092023\REPSWITCH_excgange\REPSWITCH_excgange\data/230104_REPSWITCH1_version1_list4_2023-12-01_15h08.46.380_micRespv1l4_recorded\recording_micRespv1l4_2023-12-01_15h13.29.253.wav;288.7095281;;None;;;;;;230104;1;2023-12-01_15h08.46.380;REPSWITCH1_version1_list4;2022.2.4;143.9679584;
REPSWITCH1/PICTURE_271.png;conejo;speak;gold;switch;2;T;3;4;4;1;Stim7_Set3;0;None;59;58;59;0;58;58;58;;;;;;;;;;;;;;;;;;;;;;;289.209661;290.3902945;290.3902945;290.3902945;290.3902945;290.3902945;290.3902945;290.3902945;290.3902945;293.4184841;293.4184841;293.4184841;293.4184841;293.4184841;293.4184841;None;0;;;C:\2023\REPSWITCH21092023\REPSWITCH_excgange\REPSWITCH_excgange\data/230104_REPSWITCH1_version1_list4_2023-12-01_15h08.46.380_micRespv1l4_recorded\recording_micRespv1l4_2023-12-01_15h13.33.961.wav;293.4184841;;None;;;;;;230104;1;2023-12-01_15h08.46.380;REPSWITCH1_version1_list4;2022.2.4;143.9679584;
REPSWITCH1/PICTURE_552.png;manzana;type;darkblue;filler;1;F;3;4;4;1;Stim6_Set2;0;None;60;59;60;0;59;59;59;;;;;;;;;;;;;;;;;;;;;;;293.9185207;295.0506576;295.0506576;295.0506576;295.0506576;295.0506576;295.0506576;295.0506576;295.0506576;298.0718881;298.0718881;298.0718881;298.0718881;298.0718881;298.0718881;['m', 'a', 'n', 'z', 'a', 'n', 'a'];0;[0.8743567997589707, 0.9909557998180389, 1.130444899899885, 2.271340899867937, 2.438654199941084, 2.5463212998583913, 2.6060547998640686];manzana;C:\2023\REPSWITCH21092023\REPSWITCH_excgange\REPSWITCH_excgange\data/230104_REPSWITCH1_version1_list4_2023-12-01_15h08.46.380_micRespv1l4_recorded\recording_micRespv1l4_2023-12-01_15h13.38.621.wav;298.0718881;298.5719095;None;;;;;;230104;1;2023-12-01_15h08.46.380;REPSWITCH1_version1_list4;2022.2.4;143.9679584;
REPSWITCH1/PICTURE_242.png;cartero;speak;gold;nontarget;2;NT;3;4;4;1;Stim3_Set3;1;switch;61;60;61;0;60;60;60;;;;;;;;;;;;;;;;;;;;;;;298.5719095;299.6415416;299.6415416;299.6415416;299.6415416;299.6415416;299.6415416;299.6415416;299.6415416;302.6627586;302.6627586;302.6627586;302.6627586;302.6627586;302.6627586;None;0;;;C:\2023\REPSWITCH21092023\REPSWITCH_excgange\REPSWITCH_excgange\data/230104_REPSWITCH1_version1_list4_2023-12-01_15h08.46.380_micRespv1l4_recorded\recording_micRespv1l4_2023-12-01_15h13.43.212.wav;302.6627586;303.1628212;None;;;;;;230104;1;2023-12-01_15h08.46.380;REPSWITCH1_version1_list4;2022.2.4;143.9679584;
REPSWITCH1/PICTURE_242.png;cartero;speak;gold;repeat;2;T;3;4;4;1;Stim3_Set3;0;None;62;61;62;0;61;61;61;;;;;;;;;;;;;;;;;;;;;;;303.1628212;304.3018651;304.3018651;304.3018651;304.3018651;304.3018651;304.3018651;304.3018651;304.3018651;307.3230509;307.3230509;307.3230509;307.3230509;307.3230509;307.3230509;None;0;;;C:\2023\REPSWITCH21092023\REPSWITCH_excgange\REPSWITCH_excgange\data/230104_REPSWITCH1_version1_list4_2023-12-01_15h08.46.380_micRespv1l4_recorded\recording_micRespv1l4_2023-12-01_15h13.47.872.wav;307.3230509;307.8231373;None;;;;;;230104;1;2023-12-01_15h08.46.380;REPSWITCH1_version1_list4;2022.2.4;143.9679584;
REPSWITCH1/PICTURE_152.png;caracol;speak;gold;filler;2;F;3;4;4;1;Stim2_Set2;0;None;63;62;63;0;62;62;62;;;;;;;;;;;;;;;;;;;;;;;307.8231373;309.0524995;309.0524995;309.0524995;309.0524995;309.0524995;309.0524995;309.0524995;309.0524995;312.0737113;312.0737113;312.0737113;312.0737113;312.0737113;312.0737113;None;0;;;C:\2023\REPSWITCH21092023\REPSWITCH_excgange\REPSWITCH_excgange\data/230104_REPSWITCH1_version1_list4_2023-12-01_15h08.46.380_micRespv1l4_recorded\recording_micRespv1l4_2023-12-01_15h13.52.623.wav;312.0737113;312.5737895;None;;;;;;230104;1;2023-12-01_15h08.46.380;REPSWITCH1_version1_list4;2022.2.4;143.9679584;
REPSWITCH1/PICTURE_446.png;cerdo;type;darkblue;filler;1;F;3;4;4;1;Stim7_Set2;1;switch;64;63;64;0;63;63;63;;;;;;;;;;;;;;;;;;;;;;;312.5737895;313.6433646;313.6433646;313.6433646;313.6433646;313.6433646;313.6433646;313.6433646;313.6433646;316.664669;316.664669;316.664669;316.664669;316.664669;316.664669;['c', 'e', 'r', 'd', 'o'];0;[0.8747151999268681, 1.0909902998246253, 1.2853360997978598, 2.02118149981834, 2.2165732998400927];cerdo;C:\2023\REPSWITCH21092023\REPSWITCH_excgange\REPSWITCH_excgange\data/230104_REPSWITCH1_version1_list4_2023-12-01_15h08.46.380_micRespv1l4_recorded\recording_micRespv1l4_2023-12-01_15h13.57.213.wav;316.664669;317.1646516;None;;;;;;230104;1;2023-12-01_15h08.46.380;REPSWITCH1_version1_list4;2022.2.4;143.9679584;
REPSWITCH1/PICTURE_610.png;miel;speak;gold;nontarget;2;NT;3;4;4;1;Stim2_Set3;1;switch;65;64;65;0;64;64;64;;;;;;;;;;;;;;;;;;;;;;;317.1646516;318.2412014;318.2412014;318.2412014;318.2412014;318.2412014;318.2412014;318.2412014;318.2412014;321.269435;321.269435;321.269435;321.269435;321.269435;321.269435;None;0;;;C:\2023\REPSWITCH21092023\REPSWITCH_excgange\REPSWITCH_excgange\data/230104_REPSWITCH1_version1_list4_2023-12-01_15h08.46.380_micRespv1l4_recorded\recording_micRespv1l4_2023-12-01_15h14.01.812.wav;321.269435;;None;;;;;;230104;1;2023-12-01_15h08.46.380;REPSWITCH1_version1_list4;2022.2.4;143.9679584;
REPSWITCH1/PICTURE_610.png;miel;speak;gold;repeat;2;T;3;4;4;1;Stim2_Set3;0;None;66;65;66;0;65;65;65;;;;;;;;;;;;;;;;;;;;;;;321.7694292;322.8876904;322.8876904;322.8876904;322.8876904;322.8876904;322.8876904;322.8876904;322.8876904;325.9157911;325.9157911;325.9157911;325.9157911;325.9157911;325.9157911;None;0;;;C:\2023\REPSWITCH21092023\REPSWITCH_excgange\REPSWITCH_excgange\data/230104_REPSWITCH1_version1_list4_2023-12-01_15h08.46.380_micRespv1l4_recorded\recording_micRespv1l4_2023-12-01_15h14.06.458.wav;325.9157911;;None;;;;;;230104;1;2023-12-01_15h08.46.380;REPSWITCH1_version1_list4;2022.2.4;143.9679584;
REPSWITCH1/PICTURE_320.png;iglesia;speak;gold;nontarget;2;NT;3;4;4;1;Stim8_Set3;1;repeat;67;66;67;0;66;66;66;;;;;;;;;;;;;;;;;;;;;;;326.415864;327.443794;327.443794;327.443794;327.443794;327.443794;327.443794;327.443794;327.443794;330.4719332;330.4719332;330.4719332;330.4719332;330.4719332;330.4719332;None;0;;;C:\2023\REPSWITCH21092023\REPSWITCH_excgange\REPSWITCH_excgange\data/230104_REPSWITCH1_version1_list4_2023-12-01_15h08.46.380_micRespv1l4_recorded\recording_micRespv1l4_2023-12-01_15h14.11.014.wav;330.4719332;;None;;;;;;230104;1;2023-12-01_15h08.46.380;REPSWITCH1_version1_list4;2022.2.4;143.9679584;
REPSWITCH1/PICTURE_320.png;iglesia;type;darkblue;switch;1;T;3;4;4;1;Stim8_Set3;0;None;68;67;68;0;67;67;67;;;;;;;;;;;;;;;;;;;;;;;330.9720044;332.0138454;332.0138454;332.0138454;332.0138454;332.0138454;332.0138454;332.0138454;332.0138454;335.0419754;335.0419754;335.0419754;335.0419754;335.0419754;335.0419754;['i', 'g', 'l', 'e', 's', 'i', 'a'];0;[0.9658584997523576, 1.3234149997588247, 1.516155099729076, 1.6087852998171002, 1.8380398999433964, 1.9545833999291062, 2.0731467998120934];iglesia;C:\2023\REPSWITCH21092023\REPSWITCH_excgange\REPSWITCH_excgange\data/230104_REPSWITCH1_version1_list4_2023-12-01_15h08.46.380_micRespv1l4_recorded\recording_micRespv1l4_2023-12-01_15h14.15.584.wav;335.0419754;;None;;;;;;230104;1;2023-12-01_15h08.46.380;REPSWITCH1_version1_list4;2022.2.4;143.9679584;
REPSWITCH1/PICTURE_30.png;granja;speak;gold;filler;2;F;3;4;4;1;Stim5_Set2;0;None;69;68;69;0;68;68;68;;;;;;;;;;;;;;;;;;;;;;;335.542042;336.6810918;336.6810918;336.6810918;336.6810918;336.6810918;336.6810918;336.6810918;336.6810918;339.709267;339.709267;339.709267;339.709267;339.709267;339.709267;None;0;;;C:\2023\REPSWITCH21092023\REPSWITCH_excgange\REPSWITCH_excgange\data/230104_REPSWITCH1_version1_list4_2023-12-01_15h08.46.380_micRespv1l4_recorded\recording_micRespv1l4_2023-12-01_15h14.20.252.wav;339.709267;340.209335;None;;;;;;230104;1;2023-12-01_15h08.46.380;REPSWITCH1_version1_list4;2022.2.4;143.9679584;
REPSWITCH1/PICTURE_264.png;mano;type;darkblue;filler;1;F;3;4;4;1;Stim3_Set2;0;None;70;69;70;0;69;69;69;;;;;;;;;;;;;;;;;;;;;;;340.209335;341.4386719;341.4386719;341.4386719;341.4386719;341.4386719;341.4386719;341.4386719;341.4386719;344.4599052;344.4599052;344.4599052;344.4599052;344.4599052;344.4599052;['m', 'a', 'n', 'o'];0;[0.8167057998944074, 0.9193557999096811, 1.1188550998922437, 1.2673476999625564];mano;C:\2023\REPSWITCH21092023\REPSWITCH_excgange\REPSWITCH_excgange\data/230104_REPSWITCH1_version1_list4_2023-12-01_15h08.46.380_micRespv1l4_recorded\recording_micRespv1l4_2023-12-01_15h14.25.008.wav;344.4599052;344.9599324;None;;;;;;230104;1;2023-12-01_15h08.46.380;REPSWITCH1_version1_list4;2022.2.4;143.9679584;
REPSWITCH1/PICTURE_464.png;goma;type;darkblue;nontarget;1;NT;3;4;4;1;Stim6_Set3;0;None;71;70;71;0;70;70;70;;;;;;;;;;;;;;;;;;;;;;;344.9599324;346.0434606;346.0434606;346.0434606;346.0434606;346.0434606;346.0434606;346.0434606;346.0434606;349.071609;349.071609;349.071609;349.071609;349.071609;349.071609;['g', 'o', 'm', 'a'];0;[1.841475100023672, 1.9322536999825388, 2.391994999954477, 2.512556199915707];goma;C:\2023\REPSWITCH21092023\REPSWITCH_excgange\REPSWITCH_excgange\data/230104_REPSWITCH1_version1_list4_2023-12-01_15h08.46.380_micRespv1l4_recorded\recording_micRespv1l4_2023-12-01_15h14.29.613.wav;349.071609;;None;;;;;;230104;1;2023-12-01_15h08.46.380;REPSWITCH1_version1_list4;2022.2.4;143.9679584;
REPSWITCH1/PICTURE_464.png;goma;type;darkblue;repeat;1;T;3;4;4;1;Stim6_Set3;0;None;72;71;72;0;71;71;71;;;;;;;;;;;;;;;;;;;;;;;349.5716849;350.6482196;350.6482196;350.6482196;350.6482196;350.6482196;350.6482196;350.6482196;350.6482196;353.6763983;353.6763983;353.6763983;353.6763983;353.6763983;353.6763983;['g', 'o', 'm', 'a'];0;[1.1461964996997267, 1.270770999835804, 1.4950623998884112, 1.6076750997453928];goma;C:\2023\REPSWITCH21092023\REPSWITCH_excgange\REPSWITCH_excgange\data/230104_REPSWITCH1_version1_list4_2023-12-01_15h08.46.380_micRespv1l4_recorded\recording_micRespv1l4_2023-12-01_15h14.34.218.wav;353.6763983;;None;;;;;;230104;1;2023-12-01_15h08.46.380;REPSWITCH1_version1_list4;2022.2.4;143.9679584;
REPSWITCH1/PICTURE_175.png;pintor;speak;gold;filler;2;F;3;4;4;1;Stim1_Set2;0;None;73;72;73;0;72;72;72;;;;;;;;;;;;;;;;;;;;;;;354.176462;355.3224908;355.3224908;355.3224908;355.3224908;355.3224908;355.3224908;355.3224908;355.3224908;358.3436484;358.3436484;358.3436484;358.3436484;358.3436484;358.3436484;['p', 'i', 'n', 't', 'o', 'r'];0;[1.0076285998802632, 1.2980106000322849, 1.5054943999275565, 1.6849236998241395, 1.8020695999730378, 1.9646017998456955];pintor;C:\2023\REPSWITCH21092023\REPSWITCH_excgange\REPSWITCH_excgange\data/230104_REPSWITCH1_version1_list4_2023-12-01_15h08.46.380_micRespv1l4_recorded\recording_micRespv1l4_2023-12-01_15h14.38.893.wav;358.3436484;358.8438088;None;;;;;;230104;1;2023-12-01_15h08.46.380;REPSWITCH1_version1_list4;2022.2.4;143.9679584;
REPSWITCH1/PICTURE_235.png;aguja;type;darkblue;nontarget;1;NT;3;4;4;1;Stim4_Set3;1;switch;74;73;74;0;73;73;73;;;;;;;;;;;;;;;;;;;;;;;358.8438088;359.9341371;359.9341371;359.9341371;359.9341371;359.9341371;359.9341371;359.9341371;359.9341371;362.9623425;362.9623425;362.9623425;362.9623425;362.9623425;362.9623425;['a', 'g', 'u', 'j', 'a'];0;[1.2754755998030305, 1.473805499728769, 1.620628299890086, 1.8013247998896986, 1.8720822997856885];aguja;C:\2023\REPSWITCH21092023\REPSWITCH_excgange\REPSWITCH_excgange\data/230104_REPSWITCH1_version1_list4_2023-12-01_15h08.46.380_micRespv1l4_recorded\recording_micRespv1l4_2023-12-01_15h14.43.505.wav;362.9623425;363.4623969;None;;;;;;230104;1;2023-12-01_15h08.46.380;REPSWITCH1_version1_list4;2022.2.4;143.9679584;
REPSWITCH1/PICTURE_235.png;aguja;type;darkblue;repeat;1;T;3;4;4;1;Stim4_Set3;0;None;75;74;75;0;74;74;74;;;;;;;;;;;;;;;;;;;;;;;363.4623969;364.525027;364.525027;364.525027;364.525027;364.525027;364.525027;364.525027;364.525027;367.5532184;367.5532184;367.5532184;367.5532184;367.5532184;367.5532184;['a', 'g', 'u', 'j', 'a'];0;[0.6678408998996019, 0.9507815998513252, 1.1161660999059677, 1.322563799796626, 1.409262899775058];aguja;C:\2023\REPSWITCH21092023\REPSWITCH_excgange\REPSWITCH_excgange\data/230104_REPSWITCH1_version1_list4_2023-12-01_15h08.46.380_micRespv1l4_recorded\recording_micRespv1l4_2023-12-01_15h14.48.097.wav;367.5532184;368.0532678;None;;;;;;230104;1;2023-12-01_15h08.46.380;REPSWITCH1_version1_list4;2022.2.4;143.9679584;
REPSWITCH1/PICTURE_576.png;guante;type;darkblue;filler;1;F;4;4;4;1;Stim1_Set3;1;repeat;76;75;76;0;75;75;75;;;;;;;;;;;;;;;;;;;;;;;368.0532678;369.2548965;369.2548965;369.2548965;369.2548965;369.2548965;369.2548965;369.2548965;369.2548965;372.2760389;372.2760389;372.2760389;372.2760389;372.2760389;372.2760389;['g', 'u', 'a', 'n', 't', 'e'];0;[0.8886320998426527, 1.0760313998907804, 1.3207759000360966, 1.462881000014022, 1.7143308999948204, 1.8289093000348657];guante;C:\2023\REPSWITCH21092023\REPSWITCH_excgange\REPSWITCH_excgange\data/230104_REPSWITCH1_version1_list4_2023-12-01_15h08.46.380_micRespv1l4_recorded\recording_micRespv1l4_2023-12-01_15h14.52.825.wav;372.2760389;372.7760857;None;;;;;;230104;1;2023-12-01_15h08.46.380;REPSWITCH1_version1_list4;2022.2.4;143.9679584;
REPSWITCH1/PICTURE_340.png;espejo;speak;gold;filler;2;F;4;4;4;1;Extra1;0;None;77;76;77;0;76;76;76;;;;;;;;;;;;;;;;;;;;;;;372.7760857;373.9081963;373.9081963;373.9081963;373.9081963;373.9081963;373.9081963;373.9081963;373.9081963;376.9363819;376.9363819;376.9363819;376.9363819;376.9363819;376.9363819;None;0;;;C:\2023\REPSWITCH21092023\REPSWITCH_excgange\REPSWITCH_excgange\data/230104_REPSWITCH1_version1_list4_2023-12-01_15h08.46.380_micRespv1l4_recorded\recording_micRespv1l4_2023-12-01_15h14.57.479.wav;376.9363819;;None;;;;;;230104;1;2023-12-01_15h08.46.380;REPSWITCH1_version1_list4;2022.2.4;143.9679584;
REPSWITCH1/PICTURE_464.png;goma;speak;gold;filler;2;F;4;4;4;1;Stim6_Set3;1;repeat;78;77;78;0;77;77;77;;;;;;;;;;;;;;;;;;;;;;;377.4364635;378.4921372;378.4921372;378.4921372;378.4921372;378.4921372;378.4921372;378.4921372;378.4921372;381.5134614;381.5134614;381.5134614;381.5134614;381.5134614;381.5134614;None;0;;;C:\2023\REPSWITCH21092023\REPSWITCH_excgange\REPSWITCH_excgange\data/230104_REPSWITCH1_version1_list4_2023-12-01_15h08.46.380_micRespv1l4_recorded\recording_micRespv1l4_2023-12-01_15h15.02.062.wav;381.5134614;382.0134497;None;;;;;;230104;1;2023-12-01_15h08.46.380;REPSWITCH1_version1_list4;2022.2.4;143.9679584;
REPSWITCH1/PICTURE_338.png;regalo;type;darkblue;nontarget;1;NT;4;4;4;1;Stim6_Set4;0;None;79;78;79;0;78;78;78;;;;;;;;;;;;;;;;;;;;;;;382.0134497;383.1803295;383.1803295;383.1803295;383.1803295;383.1803295;383.1803295;383.1803295;383.1803295;386.2015172;386.2015172;386.2015172;386.2015172;386.2015172;386.2015172;['r', 'e', 'g', 'a', 'l', 'o'];0;[0.9539826998952776, 1.0320483997929841, 1.2502127999905497, 1.5774338999763131, 1.7553917998448014, 2.009807299822569];regalo;C:\2023\REPSWITCH21092023\REPSWITCH_excgange\REPSWITCH_excgange\data/230104_REPSWITCH1_version1_list4_2023-12-01_15h08.46.380_micRespv1l4_recorded\recording_micRespv1l4_2023-12-01_15h15.06.750.wav;386.2015172;386.701637;None;;;;;;230104;1;2023-12-01_15h08.46.380;REPSWITCH1_version1_list4;2022.2.4;143.9679584;
REPSWITCH1/PICTURE_338.png;regalo;type;darkblue;repeat;1;T;4;4;4;1;Stim6_Set4;0;None;80;79;80;0;79;79;79;;;;;;;;;;;;;;;;;;;;;;;386.701637;387.9308815;387.9308815;387.9308815;387.9308815;387.9308815;387.9308815;387.9308815;387.9308815;390.9591016;390.9591016;390.9591016;390.9591016;390.9591016;390.9591016;['r', 'e', 'g', 'a', 'l', 'o'];0;[0.932710399851203, 1.0044642998836935, 1.2469466996844858, 1.4652543996926397, 1.6196978997904807, 1.8226290997117758];regalo;C:\2023\REPSWITCH21092023\REPSWITCH_excgange\REPSWITCH_excgange\data/230104_REPSWITCH1_version1_list4_2023-12-01_15h08.46.380_micRespv1l4_recorded\recording_micRespv1l4_2023-12-01_15h15.11.502.wav;390.9591016;;None;;;;;;230104;1;2023-12-01_15h08.46.380;REPSWITCH1_version1_list4;2022.2.4;143.9679584;
REPSWITCH1/PICTURE_8.png;pierna;type;darkblue;nontarget;1;NT;4;4;4;1;Stim3_Set4;1;repeat;81;80;81;0;80;80;80;;;;;;;;;;;;;;;;;;;;;;;391.4591323;392.5912395;392.5912395;392.5912395;392.5912395;392.5912395;392.5912395;392.5912395;392.5912395;395.6124316;395.6124316;395.6124316;395.6124316;395.6124316;395.6124316;['p', 'i', 'e', 'r', 'n', 'a'];0;[0.9334622998721898, 1.4370348998345435, 1.603736899793148, 1.6494833996985108, 1.8690888998098671, 1.9926291997544467];pierna;C:\2023\REPSWITCH21092023\REPSWITCH_excgange\REPSWITCH_excgange\data/230104_REPSWITCH1_version1_list4_2023-12-01_15h08.46.380_micRespv1l4_recorded\recording_micRespv1l4_2023-12-01_15h15.16.161.wav;395.6124316;396.1125153;None;;;;;;230104;1;2023-12-01_15h08.46.380;REPSWITCH1_version1_list4;2022.2.4;143.9679584;
REPSWITCH1/PICTURE_8.png;pierna;speak;gold;switch;2;T;4;4;4;1;Stim3_Set4;0;None;82;81;82;0;81;81;81;;;;;;;;;;;;;;;;;;;;;;;396.1125153;397.230737;397.230737;397.230737;397.230737;397.230737;397.230737;397.230737;397.230737;400.2519348;400.2519348;400.2519348;400.2519348;400.2519348;400.2519348;None;0;;;C:\2023\REPSWITCH21092023\REPSWITCH_excgange\REPSWITCH_excgange\data/230104_REPSWITCH1_version1_list4_2023-12-01_15h08.46.380_micRespv1l4_recorded\recording_micRespv1l4_2023-12-01_15h15.20.801.wav;400.2519348;400.7519983;None;;;;;;230104;1;2023-12-01_15h08.46.380;REPSWITCH1_version1_list4;2022.2.4;143.9679584;
REPSWITCH1/PICTURE_271.png;conejo;type;darkblue;filler;1;F;4;4;4;1;Stim7_Set3;0;None;83;82;83;0;82;82;82;;;;;;;;;;;;;;;;;;;;;;;400.7519983;401.786862;401.786862;401.786862;401.786862;401.786862;401.786862;401.786862;401.786862;404.8080816;404.8080816;404.8080816;404.8080816;404.8080816;404.8080816;['c', 'o', 'n', 'e', 'j', 'o'];0;[0.8542894998099655, 1.0466257999651134, 1.310080099850893, 1.95071109989658, 2.1601385998073965, 2.340335699962452];conejo;C:\2023\REPSWITCH21092023\REPSWITCH_excgange\REPSWITCH_excgange\data/230104_REPSWITCH1_version1_list4_2023-12-01_15h08.46.380_micRespv1l4_recorded\recording_micRespv1l4_2023-12-01_15h15.25.357.wav;404.8080816;405.3081788;None;;;;;;230104;1;2023-12-01_15h08.46.380;REPSWITCH1_version1_list4;2022.2.4;143.9679584;
REPSWITCH1/PICTURE_687.png;camisa;speak;gold;nontarget;2;NT;4;4;4;1;Stim5_Set4;1;switch;84;83;84;0;83;83;83;;;;;;;;;;;;;;;;;;;;;;;405.3081788;406.4264486;406.4264486;406.4264486;406.4264486;406.4264486;406.4264486;406.4264486;406.4264486;409.4545475;409.4545475;409.4545475;409.4545475;409.4545475;409.4545475;None;0;;;C:\2023\REPSWITCH21092023\REPSWITCH_excgange\REPSWITCH_excgange\data/230104_REPSWITCH1_version1_list4_2023-12-01_15h08.46.380_micRespv1l4_recorded\recording_micRespv1l4_2023-12-01_15h15.29.996.wav;409.4545475;;None;;;;;;230104;1;2023-12-01_15h08.46.380;REPSWITCH1_version1_list4;2022.2.4;143.9679584;
REPSWITCH1/PICTURE_687.png;camisa;speak;gold;repeat;2;T;4;4;4;1;Stim5_Set4;0;None;85;84;85;0;84;84;84;;;;;;;;;;;;;;;;;;;;;;;409.9546137;411.0659365;411.0659365;411.0659365;411.0659365;411.0659365;411.0659365;411.0659365;411.0659365;414.0870674;414.0870674;414.0870674;414.0870674;414.0870674;414.0870674;None;0;;;C:\2023\REPSWITCH21092023\REPSWITCH_excgange\REPSWITCH_excgange\data/230104_REPSWITCH1_version1_list4_2023-12-01_15h08.46.380_micRespv1l4_recorded\recording_micRespv1l4_2023-12-01_15h15.34.636.wav;414.0870674;414.5871674;None;;;;;;230104;1;2023-12-01_15h08.46.380;REPSWITCH1_version1_list4;2022.2.4;143.9679584;
REPSWITCH1/PICTURE_319.png;vaca;speak;gold;nontarget;2;NT;4;4;4;1;Stim1_Set4;0;None;86;85;86;0;85;85;85;;;;;;;;;;;;;;;;;;;;;;;414.5871674;415.6914749;415.6914749;415.6914749;415.6914749;415.6914749;415.6914749;415.6914749;415.6914749;418.7127098;418.7127098;418.7127098;418.7127098;418.7127098;418.7127098;None;0;;;C:\2023\REPSWITCH21092023\REPSWITCH_excgange\REPSWITCH_excgange\data/230104_REPSWITCH1_version1_list4_2023-12-01_15h08.46.380_micRespv1l4_recorded\recording_micRespv1l4_2023-12-01_15h15.39.260.wav;418.7127098;419.2127608;None;;;;;;230104;1;2023-12-01_15h08.46.380;REPSWITCH1_version1_list4;2022.2.4;143.9679584;
REPSWITCH1/PICTURE_319.png;vaca;type;darkblue;switch;1;T;4;4;4;1;Stim1_Set4;0;None;87;86;87;0;86;86;86;;;;;;;;;;;;;;;;;;;;;;;419.2127608;420.3587353;420.3587353;420.3587353;420.3587353;420.3587353;420.3587353;420.3587353;420.3587353;423.3869835;423.3869835;423.3869835;423.3869835;423.3869835;423.3869835;['v', 'a', 'c', 'a'];0;[0.9351719999685884, 1.1662694998085499, 1.4672526000067592, 1.5888443998992443];vaca;C:\2023\REPSWITCH21092023\REPSWITCH_excgange\REPSWITCH_excgange\data/230104_REPSWITCH1_version1_list4_2023-12-01_15h08.46.380_micRespv1l4_recorded\recording_micRespv1l4_2023-12-01_15h15.43.929.wav;423.3869835;;None;;;;;;230104;1;2023-12-01_15h08.46.380;REPSWITCH1_version1_list4;2022.2.4;143.9679584;
REPSWITCH1/PICTURE_242.png;cartero;speak;gold;filler;2;F;4;4;4;1;Stim3_Set3;0;None;88;87;88;0;87;87;87;;;;;;;;;;;;;;;;;;;;;;;423.8869761;424.9149446;424.9149446;424.9149446;424.9149446;424.9149446;424.9149446;424.9149446;424.9149446;427.9361088;427.9361088;427.9361088;427.9361088;427.9361088;427.9361088;None;0;;;C:\2023\REPSWITCH21092023\REPSWITCH_excgange\REPSWITCH_excgange\data/230104_REPSWITCH1_version1_list4_2023-12-01_15h08.46.380_micRespv1l4_recorded\recording_micRespv1l4_2023-12-01_15h15.48.486.wav;427.9361088;428.4361927;None;;;;;;230104;1;2023-12-01_15h08.46.380;REPSWITCH1_version1_list4;2022.2.4;143.9679584;
REPSWITCH1/PICTURE_498.png;taza;type;darkblue;nontarget;1;NT;4;4;4;1;Stim4_Set4;1;switch;89;88;89;0;88;88;88;;;;;;;;;;;;;;;;;;;;;;;428.4361927;429.5127246;429.5127246;429.5127246;429.5127246;429.5127246;429.5127246;429.5127246;429.5127246;432.5339368;432.5339368;432.5339368;432.5339368;432.5339368;432.5339368;['t', 'a', 'z', 'a'];0;[0.8476388999260962, 1.1078026997856796, 1.5500419999007136, 1.8519178999122232];taza;C:\2023\REPSWITCH21092023\REPSWITCH_excgange\REPSWITCH_excgange\data/230104_REPSWITCH1_version1_list4_2023-12-01_15h08.46.380_micRespv1l4_recorded\recording_micRespv1l4_2023-12-01_15h15.53.083.wav;432.5339368;433.0339961;None;;;;;;230104;1;2023-12-01_15h08.46.380;REPSWITCH1_version1_list4;2022.2.4;143.9679584;
REPSWITCH1/PICTURE_498.png;taza;speak;gold;switch;2;T;4;4;4;1;Stim4_Set4;0;None;90;89;90;0;89;89;89;;;;;;;;;;;;;;;;;;;;;;;433.0339961;434.1591974;434.1591974;434.1591974;434.1591974;434.1591974;434.1591974;434.1591974;434.1591974;437.1873612;437.1873612;437.1873612;437.1873612;437.1873612;437.1873612;None;0;;;C:\2023\REPSWITCH21092023\REPSWITCH_excgange\REPSWITCH_excgange\data/230104_REPSWITCH1_version1_list4_2023-12-01_15h08.46.380_micRespv1l4_recorded\recording_micRespv1l4_2023-12-01_15h15.57.729.wav;437.1873612;;None;;;;;;230104;1;2023-12-01_15h08.46.380;REPSWITCH1_version1_list4;2022.2.4;143.9679584;
REPSWITCH1/PICTURE_391.png;cadena;type;darkblue;filler;1;F;4;4;4;1;Extra2;0;None;91;90;91;0;90;90;90;;;;;;;;;;;;;;;;;;;;;;;437.6874289;438.7709026;438.7709026;438.7709026;438.7709026;438.7709026;438.7709026;438.7709026;438.7709026;441.7990391;441.7990391;441.7990391;441.7990391;441.7990391;441.7990391;['c', 'a', 'd', 'e', 'n', 'a'];0;[0.9331588000059128, 1.1218304000794888, 1.3571198000572622, 1.5274668000638485, 1.5892544998787344, 1.7531681000255048];cadena;C:\2023\REPSWITCH21092023\REPSWITCH_excgange\REPSWITCH_excgange\data/230104_REPSWITCH1_version1_list4_2023-12-01_15h08.46.380_micRespv1l4_recorded\recording_micRespv1l4_2023-12-01_15h16.02.341.wav;441.7990391;;None;;;;;;230104;1;2023-12-01_15h08.46.380;REPSWITCH1_version1_list4;2022.2.4;143.9679584;
REPSWITCH1/PICTURE_610.png;miel;speak;gold;filler;2;F;4;4;4;1;Stim2_Set3;0;None;92;91;92;0;91;91;91;;;;;;;;;;;;;;;;;;;;;;;442.2992177;443.4312465;443.4312465;443.4312465;443.4312465;443.4312465;443.4312465;443.4312465;443.4312465;446.4593799;446.4593799;446.4593799;446.4593799;446.4593799;446.4593799;None;0;;;C:\2023\REPSWITCH21092023\REPSWITCH_excgange\REPSWITCH_excgange\data/230104_REPSWITCH1_version1_list4_2023-12-01_15h08.46.380_micRespv1l4_recorded\recording_micRespv1l4_2023-12-01_15h16.07.001.wav;446.4593799;;None;;;;;;230104;1;2023-12-01_15h08.46.380;REPSWITCH1_version1_list4;2022.2.4;143.9679584;
REPSWITCH1/PICTURE_48.png;bombero;speak;gold;nontarget;2;NT;4;4;4;1;Stim7_Set4;1;repeat;93;92;93;0;92;92;92;;;;;;;;;;;;;;;;;;;;;;;446.9594713;448.1262728;448.1262728;448.1262728;448.1262728;448.1262728;448.1262728;448.1262728;448.1262728;451.1475482;451.1475482;451.1475482;451.1475482;451.1475482;451.1475482;None;0;;;C:\2023\REPSWITCH21092023\REPSWITCH_excgange\REPSWITCH_excgange\data/230104_REPSWITCH1_version1_list4_2023-12-01_15h08.46.380_micRespv1l4_recorded\recording_micRespv1l4_2023-12-01_15h16.11.696.wav;451.1475482;451.6475771;None;;;;;;230104;1;2023-12-01_15h08.46.380;REPSWITCH1_version1_list4;2022.2.4;143.9679584;
REPSWITCH1/PICTURE_48.png;bombero;speak;gold;repeat;2;T;4;4;4;1;Stim7_Set4;0;None;94;93;94;0;93;93;93;;;;;;;;;;;;;;;;;;;;;;;451.6475771;452.7033131;452.7033131;452.7033131;452.7033131;452.7033131;452.7033131;452.7033131;452.7033131;455.7245657;455.7245657;455.7245657;455.7245657;455.7245657;455.7245657;None;0;;;C:\2023\REPSWITCH21092023\REPSWITCH_excgange\REPSWITCH_excgange\data/230104_REPSWITCH1_version1_list4_2023-12-01_15h08.46.380_micRespv1l4_recorded\recording_micRespv1l4_2023-12-01_15h16.16.273.wav;455.7245657;456.2245658;None;;;;;;230104;1;2023-12-01_15h08.46.380;REPSWITCH1_version1_list4;2022.2.4;143.9679584;
REPSWITCH1/PICTURE_320.png;iglesia;type;darkblue;filler;1;F;4;4;4;1;Stim8_Set3;1;switch;95;94;95;0;94;94;94;;;;;;;;;;;;;;;;;;;;;;;456.2245658;457.2941735;457.2941735;457.2941735;457.2941735;457.2941735;457.2941735;457.2941735;457.2941735;460.3223233;460.3223233;460.3223233;460.3223233;460.3223233;460.3223233;['i', 'g', 'l', 'e', 's', 'i', 'a'];0;[1.0760613000020385, 1.3040537999477237, 1.568468099925667, 1.7352281000930816, 1.976483599981293, 2.0561327000614256, 2.2406953000463545];iglesia;C:\2023\REPSWITCH21092023\REPSWITCH_excgange\REPSWITCH_excgange\data/230104_REPSWITCH1_version1_list4_2023-12-01_15h08.46.380_micRespv1l4_recorded\recording_micRespv1l4_2023-12-01_15h16.20.865.wav;460.3223233;460.82241;None;;;;;;230104;1;2023-12-01_15h08.46.380;REPSWITCH1_version1_list4;2022.2.4;143.9679584;
REPSWITCH1/PICTURE_35.png;oreja;speak;gold;filler;2;F;4;4;4;1;Stim5_Set3;0;None;96;95;96;0;95;95;95;;;;;;;;;;;;;;;;;;;;;;;460.82241;461.9475743;461.9475743;461.9475743;461.9475743;461.9475743;461.9475743;461.9475743;461.9475743;464.9687465;464.9687465;464.9687465;464.9687465;464.9687465;464.9687465;None;0;;;C:\2023\REPSWITCH21092023\REPSWITCH_excgange\REPSWITCH_excgange\data/230104_REPSWITCH1_version1_list4_2023-12-01_15h08.46.380_micRespv1l4_recorded\recording_micRespv1l4_2023-12-01_15h16.25.518.wav;464.9687465;465.4688211;None;;;;;;230104;1;2023-12-01_15h08.46.380;REPSWITCH1_version1_list4;2022.2.4;143.9679584;
REPSWITCH1/PICTURE_728.png;pulpo;speak;gold;nontarget;2;NT;4;4;4;1;Stim8_Set4;1;repeat;97;96;97;0;96;96;96;;;;;;;;;;;;;;;;;;;;;;;465.4688211;466.5870416;466.5870416;466.5870416;466.5870416;466.5870416;466.5870416;466.5870416;466.5870416;469.6082614;469.6082614;469.6082614;469.6082614;469.6082614;469.6082614;None;0;;;C:\2023\REPSWITCH21092023\REPSWITCH_excgange\REPSWITCH_excgange\data/230104_REPSWITCH1_version1_list4_2023-12-01_15h08.46.380_micRespv1l4_recorded\recording_micRespv1l4_2023-12-01_15h16.30.157.wav;469.6082614;470.1083587;None;;;;;;230104;1;2023-12-01_15h08.46.380;REPSWITCH1_version1_list4;2022.2.4;143.9679584;
REPSWITCH1/PICTURE_728.png;pulpo;type;darkblue;switch;1;T;4;4;4;1;Stim8_Set4;0;None;98;97;98;0;97;97;97;;;;;;;;;;;;;;;;;;;;;;;470.1083587;471.1710294;471.1710294;471.1710294;471.1710294;471.1710294;471.1710294;471.1710294;471.1710294;474.1921813;474.1921813;474.1921813;474.1921813;474.1921813;474.1921813;['p', 'u', 'l', 'p', 'o'];0;[1.0344674997031689, 1.3526922997552902, 1.6694922999013215, 1.9047111996915191, 2.0876502997707576];pulpo;C:\2023\REPSWITCH21092023\REPSWITCH_excgange\REPSWITCH_excgange\data/230104_REPSWITCH1_version1_list4_2023-12-01_15h08.46.380_micRespv1l4_recorded\recording_micRespv1l4_2023-12-01_15h16.34.741.wav;474.1921813;474.6923559;None;;;;;;230104;1;2023-12-01_15h08.46.380;REPSWITCH1_version1_list4;2022.2.4;143.9679584;
REPSWITCH1/PICTURE_590.png;escoba;speak;gold;filler;2;F;4;4;4;1;Extra3;0;None;99;98;99;0;98;98;98;;;;;;;;;;;;;;;;;;;;;;;474.6923559;475.741012;475.741012;475.741012;475.741012;475.741012;475.741012;475.741012;475.741012;478.7622235;478.7622235;478.7622235;478.7622235;478.7622235;478.7622235;None;0;;;C:\2023\REPSWITCH21092023\REPSWITCH_excgange\REPSWITCH_excgange\data/230104_REPSWITCH1_version1_list4_2023-12-01_15h08.46.380_micRespv1l4_recorded\recording_micRespv1l4_2023-12-01_15h16.39.311.wav;478.7622235;479.2623968;None;;;;;;230104;1;2023-12-01_15h08.46.380;REPSWITCH1_version1_list4;2022.2.4;143.9679584;
REPSWITCH1/PICTURE_235.png;aguja;type;darkblue;filler;1;F;4;4;4;1;Stim4_Set3;0;None;100;99;100;0;99;99;99;;;;;;;;;;;;;;;;;;;;;;;479.2623968;480.331896;480.331896;480.331896;480.331896;480.331896;480.331896;480.331896;480.331896;483.3600689;483.3600689;483.3600689;483.3600689;483.3600689;483.3600689;['a', 'g', 'u', 'j', 'a'];0;[1.0388694000430405, 1.3181658999528736, 1.4839011998847127, 1.6871821999084204, 1.8847411000169814];aguja;C:\2023\REPSWITCH21092023\REPSWITCH_excgange\REPSWITCH_excgange\data/230104_REPSWITCH1_version1_list4_2023-12-01_15h08.46.380_micRespv1l4_recorded\recording_micRespv1l4_2023-12-01_15h16.43.902.wav;483.3600689;;None;;;;;;230104;1;2023-12-01_15h08.46.380;REPSWITCH1_version1_list4;2022.2.4;143.9679584;
REPSWITCH1/PICTURE_719.png;baño;type;darkblue;nontarget;1;NT;4;4;4;1;Stim2_Set4;1;repeat;101;100;101;0;100;100;100;;;;;;;;;;;;;;;;;;;;;;;483.8601784;484.9297477;484.9297477;484.9297477;484.9297477;484.9297477;484.9297477;484.9297477;484.9297477;487.9578911;487.9578911;487.9578911;487.9578911;487.9578911;487.9578911;['b', 'a', 'ñ', 'o'];0;[0.9427163999062032, 1.103225199971348, 1.6225850000046194, 1.9346913998015225];baño;C:\2023\REPSWITCH21092023\REPSWITCH_excgange\REPSWITCH_excgange\data/230104_REPSWITCH1_version1_list4_2023-12-01_15h08.46.380_micRespv1l4_recorded\recording_micRespv1l4_2023-12-01_15h16.48.500.wav;487.9578911;;None;;;;;;230104;1;2023-12-01_15h08.46.380;REPSWITCH1_version1_list4;2022.2.4;143.9679584;
REPSWITCH1/PICTURE_719.png;baño;type;darkblue;repeat;1;T;4;4;4;1;Stim2_Set4;0;None;102;101;102;0;101;101;101;;;;;;;;;;;;;;;;;;;;;;;488.4579507;489.5206367;489.5206367;489.5206367;489.5206367;489.5206367;489.5206367;489.5206367;489.5206367;492.5487898;492.5487898;492.5487898;492.5487898;492.5487898;492.5487898;['b', 'a', 'ñ', 'o'];0;[1.4452807998750359, 1.5922453999519348, 2.0619925998616964, 2.2715921998023987];baño;C:\2023\REPSWITCH21092023\REPSWITCH_excgange\REPSWITCH_excgange\data/230104_REPSWITCH1_version1_list4_2023-12-01_15h08.46.380_micRespv1l4_recorded\recording_micRespv1l4_2023-12-01_15h16.53.091.wav;492.5487898;;space;493.0488977;493.0488977;1.1293334;;;230104;1;2023-12-01_15h08.46.380;REPSWITCH1_version1_list4;2022.2.4;143.9679584;
REPSWITCH1/PICTURE_646.png;tronco;speak;gold;filler;2;F;1;3;4;1;Extra4;0;None;103;102;1;0;102;102;102;;;;;;;;;;;;;;;;;;;;;;;494.1879408;495.2852964;495.2852964;495.2852964;495.2852964;495.2852964;495.2852964;495.2852964;495.2852964;498.3064576;498.3064576;498.3064576;498.3064576;498.3064576;498.3064576;None;0;;;C:\2023\REPSWITCH21092023\REPSWITCH_excgange\REPSWITCH_excgange\data/230104_REPSWITCH1_version1_list4_2023-12-01_15h08.46.380_micRespv1l4_recorded\recording_micRespv1l4_2023-12-01_15h16.58.856.wav;498.3064576;498.806619;None;;;;;;230104;1;2023-12-01_15h08.46.380;REPSWITCH1_version1_list4;2022.2.4;143.9679584;
REPSWITCH1/PICTURE_340.png;espejo;type;darkblue;filler;1;F;1;3;4;1;Extra1;0;None;104;103;2;0;103;103;103;;;;;;;;;;;;;;;;;;;;;;;498.806619;499.9734386;499.9734386;499.9734386;499.9734386;499.9734386;499.9734386;499.9734386;499.9734386;502.9946005;502.9946005;502.9946005;502.9946005;502.9946005;502.9946005;['e', 's', 'p', 'e', 'j', 'o'];0;[1.0365496999584138, 1.270795099902898, 1.49401789996773, 1.6139840998221189, 1.82184199988842, 1.9523671998176724];espejo;C:\2023\REPSWITCH21092023\REPSWITCH_excgange\REPSWITCH_excgange\data/230104_REPSWITCH1_version1_list4_2023-12-01_15h08.46.380_micRespv1l4_recorded\recording_micRespv1l4_2023-12-01_15h17.03.543.wav;502.9946005;503.4946719;None;;;;;;230104;1;2023-12-01_15h08.46.380;REPSWITCH1_version1_list4;2022.2.4;143.9679584;
REPSWITCH1/PICTURE_338.png;regalo;speak;gold;filler;2;F;1;3;4;1;Stim6_Set4;0;None;105;104;3;0;104;104;104;;;;;;;;;;;;;;;;;;;;;;;503.4946719;504.6615076;504.6615076;504.6615076;504.6615076;504.6615076;504.6615076;504.6615076;504.6615076;507.6827368;507.6827368;507.6827368;507.6827368;507.6827368;507.6827368;None;0;;;C:\2023\REPSWITCH21092023\REPSWITCH_excgange\REPSWITCH_excgange\data/230104_REPSWITCH1_version1_list4_2023-12-01_15h08.46.380_micRespv1l4_recorded\recording_micRespv1l4_2023-12-01_15h17.08.231.wav;507.6827368;508.1827907;None;;;;;;230104;1;2023-12-01_15h08.46.380;REPSWITCH1_version1_list4;2022.2.4;143.9679584;
REPSWITCH1/PICTURE_142.png;vaso;speak;gold;nontarget;2;NT;1;3;4;1;Stim7_Set1;1;repeat;106;105;4;0;105;105;105;;;;;;;;;;;;;;;;;;;;;;;508.1827907;509.2176714;509.2176714;509.2176714;509.2176714;509.2176714;509.2176714;509.2176714;509.2176714;512.2388439;512.2388439;512.2388439;512.2388439;512.2388439;512.2388439;None;0;;;C:\2023\REPSWITCH21092023\REPSWITCH_excgange\REPSWITCH_excgange\data/230104_REPSWITCH1_version1_list4_2023-12-01_15h08.46.380_micRespv1l4_recorded\recording_micRespv1l4_2023-12-01_15h17.12.787.wav;512.2388439;512.7389243;None;;;;;;230104;1;2023-12-01_15h08.46.380;REPSWITCH1_version1_list4;2022.2.4;143.9679584;
REPSWITCH1/PICTURE_142.png;vaso;speak;gold;repeat;2;T;1;3;4;1;Stim7_Set1;0;None;107;106;5;0;106;106;106;;;;;;;;;;;;;;;;;;;;;;;512.7389243;513.7460433;513.7460433;513.7460433;513.7460433;513.7460433;513.7460433;513.7460433;513.7460433;516.7672475;516.7672475;516.7672475;516.7672475;516.7672475;516.7672475;None;0;;;C:\2023\REPSWITCH21092023\REPSWITCH_excgange\REPSWITCH_excgange\data/230104_REPSWITCH1_version1_list4_2023-12-01_15h08.46.380_micRespv1l4_recorded\recording_micRespv1l4_2023-12-01_15h17.17.316.wav;516.7672475;517.2673809;None;;;;;;230104;1;2023-12-01_15h08.46.380;REPSWITCH1_version1_list4;2022.2.4;143.9679584;
REPSWITCH1/PICTURE_498.png;taza;type;darkblue;filler;1;F;1;3;4;1;Stim4_Set4;0;None;108;107;6;0;107;107;107;;;;;;;;;;;;;;;;;;;;;;;517.2673809;518.3647065;518.3647065;518.3647065;518.3647065;518.3647065;518.3647065;518.3647065;518.3647065;521.3858757;521.3858757;521.3858757;521.3858757;521.3858757;521.3858757;['t', 'a', 'z', 'a'];0;[1.0907753000501543, 1.3341872999444604, 1.8320779998321086, 2.1296257998328656];taza;C:\2023\REPSWITCH21092023\REPSWITCH_excgange\REPSWITCH_excgange\data/230104_REPSWITCH1_version1_list4_2023-12-01_15h08.46.380_micRespv1l4_recorded\recording_micRespv1l4_2023-12-01_15h17.21.935.wav;521.3858757;521.8859531;None;;;;;;230104;1;2023-12-01_15h08.46.380;REPSWITCH1_version1_list4;2022.2.4;143.9679584;
REPSWITCH1/PICTURE_16.png;cazador;speak;gold;nontarget;2;NT;1;3;4;1;Stim6_Set1;1;switch;109;108;7;0;108;108;108;;;;;;;;;;;;;;;;;;;;;;;521.8859531;522.990345;522.990345;522.990345;522.990345;522.990345;522.990345;522.990345;522.990345;526.0185352;526.0185352;526.0185352;526.0185352;526.0185352;526.0185352;None;0;;;C:\2023\REPSWITCH21092023\REPSWITCH_excgange\REPSWITCH_excgange\data/230104_REPSWITCH1_version1_list4_2023-12-01_15h08.46.380_micRespv1l4_recorded\recording_micRespv1l4_2023-12-01_15h17.26.561.wav;526.0185352;;None;;;;;;230104;1;2023-12-01_15h08.46.380;REPSWITCH1_version1_list4;2022.2.4;143.9679584;
REPSWITCH1/PICTURE_16.png;cazador;speak;gold;repeat;2;T;1;3;4;1;Stim6_Set1;0;None;110;109;8;0;109;109;109;;;;;;;;;;;;;;;;;;;;;;;526.5185265;527.5742297;527.5742297;527.5742297;527.5742297;527.5742297;527.5742297;527.5742297;527.5742297;530.5954379;530.5954379;530.5954379;530.5954379;530.5954379;530.5954379;None;0;;;C:\2023\REPSWITCH21092023\REPSWITCH_excgange\REPSWITCH_excgange\data/230104_REPSWITCH1_version1_list4_2023-12-01_15h08.46.380_micRespv1l4_recorded\recording_micRespv1l4_2023-12-01_15h17.31.144.wav;530.5954379;531.0955504;None;;;;;;230104;1;2023-12-01_15h08.46.380;REPSWITCH1_version1_list4;2022.2.4;143.9679584;
REPSWITCH1/PICTURE_719.png;baño;type;darkblue;filler;1;F;1;3;4;1;Stim2_Set4;0;None;111;110;9;0;110;110;110;;;;;;;;;;;;;;;;;;;;;;;531.0955504;532.1234952;532.1234952;532.1234952;532.1234952;532.1234952;532.1234952;532.1234952;532.1234952;535.1446671;535.1446671;535.1446671;535.1446671;535.1446671;535.1446671;['b', 'a', 'ñ', 'o'];0;[1.1067870997358114, 1.2076780998613685, 1.7501127999275923, 2.084206899860874];baño;C:\2023\REPSWITCH21092023\REPSWITCH_excgange\REPSWITCH_excgange\data/230104_REPSWITCH1_version1_list4_2023-12-01_15h08.46.380_micRespv1l4_recorded\recording_micRespv1l4_2023-12-01_15h17.35.693.wav;535.1446671;535.6447162;None;;;;;;230104;1;2023-12-01_15h08.46.380;REPSWITCH1_version1_list4;2022.2.4;143.9679584;
REPSWITCH1/PICTURE_169.png;espalda;speak;gold;nontarget;2;NT;1;3;4;1;Stim8_Set1;0;None;112;111;10;0;111;111;111;;;;;;;;;;;;;;;;;;;;;;;535.6447162;536.7490561;536.7490561;536.7490561;536.7490561;536.7490561;536.7490561;536.7490561;536.7490561;539.7702392;539.7702392;539.7702392;539.7702392;539.7702392;539.7702392;None;0;;;C:\2023\REPSWITCH21092023\REPSWITCH_excgange\REPSWITCH_excgange\data/230104_REPSWITCH1_version1_list4_2023-12-01_15h08.46.380_micRespv1l4_recorded\recording_micRespv1l4_2023-12-01_15h17.40.319.wav;539.7702392;540.2703424;None;;;;;;230104;1;2023-12-01_15h08.46.380;REPSWITCH1_version1_list4;2022.2.4;143.9679584;
REPSWITCH1/PICTURE_169.png;espalda;type;darkblue;switch;1;T;1;3;4;1;Stim8_Set1;0;None;113;112;11;0;112;112;112;;;;;;;;;;;;;;;;;;;;;;;540.2703424;541.3121558;541.3121558;541.3121558;541.3121558;541.3121558;541.3121558;541.3121558;541.3121558;544.3333381;544.3333381;544.3333381;544.3333381;544.3333381;544.3333381;['e', 's', 'p', 'a', 'l', 'd', 'a'];0;[0.9120748997665942, 1.1262922999449074, 1.3435710999183357, 1.5164181997533888, 1.645595699781552, 1.8915597999002784, 1.9791921998839825];espalda;C:\2023\REPSWITCH21092023\REPSWITCH_excgange\REPSWITCH_excgange\data/230104_REPSWITCH1_version1_list4_2023-12-01_15h08.46.380_micRespv1l4_recorded\recording_micRespv1l4_2023-12-01_15h17.44.882.wav;544.3333381;544.8334397;None;;;;;;230104;1;2023-12-01_15h08.46.380;REPSWITCH1_version1_list4;2022.2.4;143.9679584;
REPSWITCH1/PICTURE_687.png;camisa;type;darkblue;filler;1;F;1;3;4;1;Stim5_Set4;0;None;114;113;12;0;113;113;113;;;;;;;;;;;;;;;;;;;;;;;544.8334397;545.9238414;545.9238414;545.9238414;545.9238414;545.9238414;545.9238414;545.9238414;545.9238414;548.9450504;548.9450504;548.9450504;548.9450504;548.9450504;548.9450504;['c', 'a', 'm', 'i', 's', 'a'];0;[0.8775402000173926, 1.0569688000250608, 1.2173994998447597, 1.3387084999121726, 1.490971399936825, 1.6335306998807937];camisa;C:\2023\REPSWITCH21092023\REPSWITCH_excgange\REPSWITCH_excgange\data/230104_REPSWITCH1_version1_list4_2023-12-01_15h08.46.380_micRespv1l4_recorded\recording_micRespv1l4_2023-12-01_15h17.49.494.wav;548.9450504;549.4451497;None;;;;;;230104;1;2023-12-01_15h08.46.380;REPSWITCH1_version1_list4;2022.2.4;143.9679584;
REPSWITCH1/PICTURE_178.png;puente;type;darkblue;nontarget;1;NT;1;3;4;1;Stim1_Set1;1;repeat;115;114;13;0;114;114;114;;;;;;;;;;;;;;;;;;;;;;;549.4451497;550.5981049;550.5981049;550.5981049;550.5981049;550.5981049;550.5981049;550.5981049;550.5981049;553.626255;553.626255;553.626255;553.626255;553.626255;553.626255;['p', 'u', 'e', 'n', 't', 'e'];0;[0.926309899892658, 1.2237865997012705, 1.398446599720046, 1.6276484997943044, 1.9167716999072582, 2.0442157997749746];puente;C:\2023\REPSWITCH21092023\REPSWITCH_excgange\REPSWITCH_excgange\data/230104_REPSWITCH1_version1_list4_2023-12-01_15h08.46.380_micRespv1l4_recorded\recording_micRespv1l4_2023-12-01_15h17.54.168.wav;553.626255;;None;;;;;;230104;1;2023-12-01_15h08.46.380;REPSWITCH1_version1_list4;2022.2.4;143.9679584;
REPSWITCH1/PICTURE_178.png;puente;speak;gold;switch;2;T;1;3;4;1;Stim1_Set1;0;None;116;115;14;0;115;115;115;;;;;;;;;;;;;;;;;;;;;;;554.1263888;555.2237534;555.2237534;555.2237534;555.2237534;555.2237534;555.2237534;555.2237534;555.2237534;558.244897;558.244897;558.244897;558.244897;558.244897;558.244897;None;0;;;C:\2023\REPSWITCH21092023\REPSWITCH_excgange\REPSWITCH_excgange\data/230104_REPSWITCH1_version1_list4_2023-12-01_15h08.46.380_micRespv1l4_recorded\recording_micRespv1l4_2023-12-01_15h17.58.793.wav;558.244897;558.7449599;None;;;;;;230104;1;2023-12-01_15h08.46.380;REPSWITCH1_version1_list4;2022.2.4;143.9679584;
REPSWITCH1/PICTURE_128.png;muñeca;speak;gold;nontarget;2;NT;1;3;4;1;Stim4_Set1;1;repeat;117;116;15;0;116;116;116;;;;;;;;;;;;;;;;;;;;;;;558.7449599;559.7937576;559.7937576;559.7937576;559.7937576;559.7937576;559.7937576;559.7937576;559.7937576;562.8149624;562.8149624;562.8149624;562.8149624;562.8149624;562.8149624;None;0;;;C:\2023\REPSWITCH21092023\REPSWITCH_excgange\REPSWITCH_excgange\data/230104_REPSWITCH1_version1_list4_2023-12-01_15h08.46.380_micRespv1l4_recorded\recording_micRespv1l4_2023-12-01_15h18.03.364.wav;562.8149624;563.3150077;None;;;;;;230104;1;2023-12-01_15h08.46.380;REPSWITCH1_version1_list4;2022.2.4;143.9679584;
REPSWITCH1/PICTURE_128.png;muñeca;type;darkblue;switch;1;T;1;3;4;1;Stim4_Set1;0;None;118;117;16;0;117;117;117;;;;;;;;;;;;;;;;;;;;;;;563.3150077;564.412408;564.412408;564.412408;564.412408;564.412408;564.412408;564.412408;564.412408;567.4336298;567.4336298;567.4336298;567.4336298;567.4336298;567.4336298;['m', 'u', 'ñ', 'e', 'c', 'a'];0;[1.1996818999759853, 1.407024399843067, 2.0554557000286877, 2.1711364998482168, 2.5690205998253077, 2.6676683998666704];muñeca;C:\2023\REPSWITCH21092023\REPSWITCH_excgange\REPSWITCH_excgange\data/230104_REPSWITCH1_version1_list4_2023-12-01_15h08.46.380_micRespv1l4_recorded\recording_micRespv1l4_2023-12-01_15h18.07.983.wav;567.4336298;567.9336936;None;;;;;;230104;1;2023-12-01_15h08.46.380;REPSWITCH1_version1_list4;2022.2.4;143.9679584;
REPSWITCH1/PICTURE_319.png;vaca;speak;gold;filler;2;F;1;3;4;1;Stim1_Set4;1;switch;119;118;17;0;118;118;118;;;;;;;;;;;;;;;;;;;;;;;567.9336936;569.017141;569.017141;569.017141;569.017141;569.017141;569.017141;569.017141;569.017141;572.0453473;572.0453473;572.0453473;572.0453473;572.0453473;572.0453473;None;0;;;C:\2023\REPSWITCH21092023\REPSWITCH_excgange\REPSWITCH_excgange\data/230104_REPSWITCH1_version1_list4_2023-12-01_15h08.46.380_micRespv1l4_recorded\recording_micRespv1l4_2023-12-01_15h18.12.588.wav;572.0453473;;None;;;;;;230104;1;2023-12-01_15h08.46.380;REPSWITCH1_version1_list4;2022.2.4;143.9679584;
REPSWITCH1/PICTURE_728.png;pulpo;speak;gold;filler;2;F;1;3;4;1;Stim8_Set4;0;None;120;119;18;0;119;119;119;;;;;;;;;;;;;;;;;;;;;;;572.5453924;573.628947;573.628947;573.628947;573.628947;573.628947;573.628947;573.628947;573.628947;576.6500761;576.6500761;576.6500761;576.6500761;576.6500761;576.6500761;None;0;;;C:\2023\REPSWITCH21092023\REPSWITCH_excgange\REPSWITCH_excgange\data/230104_REPSWITCH1_version1_list4_2023-12-01_15h08.46.380_micRespv1l4_recorded\recording_micRespv1l4_2023-12-01_15h18.17.200.wav;576.6500761;577.1501847;None;;;;;;230104;1;2023-12-01_15h08.46.380;REPSWITCH1_version1_list4;2022.2.4;143.9679584;
REPSWITCH1/PICTURE_381.png;fresa;type;darkblue;nontarget;1;NT;1;3;4;1;Stim2_Set1;1;switch;121;120;19;0;120;120;120;;;;;;;;;;;;;;;;;;;;;;;577.1501847;578.3795016;578.3795016;578.3795016;578.3795016;578.3795016;578.3795016;578.3795016;578.3795016;581.4007413;581.4007413;581.4007413;581.4007413;581.4007413;581.4007413;['f', 'r', 'r', 'e', 's', 'a'];0;[1.0072552999481559, 1.1817689000163227, 1.1890644999220967, 1.5908343000337481, 1.9522003000602126, 2.23555069998838];frresa;C:\2023\REPSWITCH21092023\REPSWITCH_excgange\REPSWITCH_excgange\data/230104_REPSWITCH1_version1_list4_2023-12-01_15h08.46.380_micRespv1l4_recorded\recording_micRespv1l4_2023-12-01_15h18.21.949.wav;581.4007413;581.9007836;None;;;;;;230104;1;2023-12-01_15h08.46.380;REPSWITCH1_version1_list4;2022.2.4;143.9679584;
REPSWITCH1/PICTURE_381.png;fresa;type;darkblue;repeat;1;T;1;3;4;1;Stim2_Set1;0;None;122;121;20;0;121;121;121;;;;;;;;;;;;;;;;;;;;;;;581.9007836;582.9912485;582.9912485;582.9912485;582.9912485;582.9912485;582.9912485;582.9912485;582.9912485;586.0194021;586.0194021;586.0194021;586.0194021;586.0194021;586.0194021;['f', 'r', 'e', 's', 'a'];0;[0.9381596997845918, 1.113567799795419, 1.196246099891141, 1.6716920998878777, 1.8928371998481452];fresa;C:\2023\REPSWITCH21092023\REPSWITCH_excgange\REPSWITCH_excgange\data/230104_REPSWITCH1_version1_list4_2023-12-01_15h08.46.380_micRespv1l4_recorded\recording_micRespv1l4_2023-12-01_15h18.26.562.wav;586.0194021;;None;;;;;;230104;1;2023-12-01_15h08.46.380;REPSWITCH1_version1_list4;2022.2.4;143.9679584;
REPSWITCH1/PICTURE_8.png;pierna;speak;gold;filler;2;F;1;3;4;1;Stim3_Set4;0;None;123;122;21;0;122;122;122;;;;;;;;;;;;;;;;;;;;;;;586.5194527;587.5960565;587.5960565;587.5960565;587.5960565;587.5960565;587.5960565;587.5960565;587.5960565;590.6241729;590.6241729;590.6241729;590.6241729;590.6241729;590.6241729;None;0;;;C:\2023\REPSWITCH21092023\REPSWITCH_excgange\REPSWITCH_excgange\data/230104_REPSWITCH1_version1_list4_2023-12-01_15h08.46.380_micRespv1l4_recorded\recording_micRespv1l4_2023-12-01_15h18.31.166.wav;590.6241729;;None;;;;;;230104;1;2023-12-01_15h08.46.380;REPSWITCH1_version1_list4;2022.2.4;143.9679584;
REPSWITCH1/PICTURE_48.png;bombero;speak;gold;filler;2;F;1;3;4;1;Stim7_Set4;0;None;124;123;22;0;123;123;123;;;;;;;;;;;;;;;;;;;;;;;591.1242402;592.2008352;592.2008352;592.2008352;592.2008352;592.2008352;592.2008352;592.2008352;592.2008352;595.2289222;595.2289222;595.2289222;595.2289222;595.2289222;595.2289222;None;0;;;C:\2023\REPSWITCH21092023\REPSWITCH_excgange\REPSWITCH_excgange\data/230104_REPSWITCH1_version1_list4_2023-12-01_15h08.46.380_micRespv1l4_recorded\recording_micRespv1l4_2023-12-01_15h18.35.771.wav;595.2289222;;None;;;;;;230104;1;2023-12-01_15h08.46.380;REPSWITCH1_version1_list4;2022.2.4;143.9679584;
REPSWITCH1/PICTURE_135.png;traje;type;darkblue;nontarget;1;NT;1;3;4;1;Stim3_Set1;1;switch;125;124;23;0;124;124;124;;;;;;;;;;;;;;;;;;;;;;;595.7289831;596.868063;596.868063;596.868063;596.868063;596.868063;596.868063;596.868063;596.868063;599.8892488;599.8892488;599.8892488;599.8892488;599.8892488;599.8892488;['t', 'r', 'a', 'j', 'e'];0;[1.1779499999247491, 1.2546342997811735, 1.3856497998349369, 1.7480786999221891, 1.8308460998814553];traje;C:\2023\REPSWITCH21092023\REPSWITCH_excgange\REPSWITCH_excgange\data/230104_REPSWITCH1_version1_list4_2023-12-01_15h08.46.380_micRespv1l4_recorded\recording_micRespv1l4_2023-12-01_15h18.40.438.wav;599.8892488;600.3893427;None;;;;;;230104;1;2023-12-01_15h08.46.380;REPSWITCH1_version1_list4;2022.2.4;143.9679584;
REPSWITCH1/PICTURE_135.png;traje;type;darkblue;repeat;1;T;1;3;4;1;Stim3_Set1;0;None;126;125;24;0;125;125;125;;;;;;;;;;;;;;;;;;;;;;;600.3893427;601.5215027;601.5215027;601.5215027;601.5215027;601.5215027;601.5215027;601.5215027;601.5215027;604.5426426;604.5426426;604.5426426;604.5426426;604.5426426;604.5426426;['t', 'r', 'a', 'j', 'e'];0;[0.8661417998373508, 0.9039211999624968, 1.6254902998916805, 1.7405421999283135, 1.9153727998491377];traje;C:\2023\REPSWITCH21092023\REPSWITCH_excgange\REPSWITCH_excgange\data/230104_REPSWITCH1_version1_list4_2023-12-01_15h08.46.380_micRespv1l4_recorded\recording_micRespv1l4_2023-12-01_15h18.45.091.wav;604.5426426;605.0427351;None;;;;;;230104;1;2023-12-01_15h08.46.380;REPSWITCH1_version1_list4;2022.2.4;143.9679584;
REPSWITCH1/PICTURE_19.png;pavo;type;darkblue;nontarget;1;NT;1;3;4;1;Stim5_Set1;1;repeat;127;126;25;0;126;126;126;;;;;;;;;;;;;;;;;;;;;;;605.0427351;606.1957299;606.1957299;606.1957299;606.1957299;606.1957299;606.1957299;606.1957299;606.1957299;609.2238216;609.2238216;609.2238216;609.2238216;609.2238216;609.2238216;['a', 'p', 'backspace', 'backspace', 'p', 'a', 'v', 'i'];0;[1.1838110000826418, 1.1958675999194384, 2.0900276999454945, 2.23649869998917, 2.5305498999077827, 2.593337700003758, 2.7810432999394834, 2.9113582998979837];pavi;C:\2023\REPSWITCH21092023\REPSWITCH_excgange\REPSWITCH_excgange\data/230104_REPSWITCH1_version1_list4_2023-12-01_15h08.46.380_micRespv1l4_recorded\recording_micRespv1l4_2023-12-01_15h18.49.767.wav;609.2238216;;None;;;;;;230104;1;2023-12-01_15h08.46.380;REPSWITCH1_version1_list4;2022.2.4;143.9679584;
REPSWITCH1/PICTURE_19.png;pavo;speak;gold;switch;2;T;1;3;4;1;Stim5_Set1;0;None;128;127;26;0;127;127;127;;;;;;;;;;;;;;;;;;;;;;;609.723875;610.8698961;610.8698961;610.8698961;610.8698961;610.8698961;610.8698961;610.8698961;610.8698961;613.8981433;613.8981433;613.8981433;613.8981433;613.8981433;613.8981433;None;0;;;C:\2023\REPSWITCH21092023\REPSWITCH_excgange\REPSWITCH_excgange\data/230104_REPSWITCH1_version1_list4_2023-12-01_15h08.46.380_micRespv1l4_recorded\recording_micRespv1l4_2023-12-01_15h18.54.441.wav;613.8981433;;None;;;;;;230104;1;2023-12-01_15h08.46.380;REPSWITCH1_version1_list4;2022.2.4;143.9679584;
REPSWITCH1/PICTURE_142.png;vaso;speak;gold;filler;2;F;2;3;4;1;Stim7_Set1;0;None;129;128;27;0;128;128;128;;;;;;;;;;;;;;;;;;;;;;;614.3981309;615.474643;615.474643;615.474643;615.474643;615.474643;615.474643;615.474643;615.474643;618.495869;618.495869;618.495869;618.495869;618.495869;618.495869;None;0;;;C:\2023\REPSWITCH21092023\REPSWITCH_excgange\REPSWITCH_excgange\data/230104_REPSWITCH1_version1_list4_2023-12-01_15h08.46.380_micRespv1l4_recorded\recording_micRespv1l4_2023-12-01_15h18.59.045.wav;618.495869;618.9959286;None;;;;;;230104;1;2023-12-01_15h08.46.380;REPSWITCH1_version1_list4;2022.2.4;143.9679584;
REPSWITCH1/PICTURE_135.png;traje;type;darkblue;filler;1;F;2;3;4;1;Stim3_Set1;0;None;130;129;28;0;129;129;129;;;;;;;;;;;;;;;;;;;;;;;618.9959286;620.1627603;620.1627603;620.1627603;620.1627603;620.1627603;620.1627603;620.1627603;620.1627603;623.1839789;623.1839789;623.1839789;623.1839789;623.1839789;623.1839789;['t', 'r', 'a', 'j', 'e'];0;[1.0027652999851853, 1.0656935998704284, 1.249078999971971, 1.7272854000329971, 1.8329221999738365];traje;C:\2023\REPSWITCH21092023\REPSWITCH_excgange\REPSWITCH_excgange\data/230104_REPSWITCH1_version1_list4_2023-12-01_15h08.46.380_micRespv1l4_recorded\recording_micRespv1l4_2023-12-01_15h19.03.733.wav;623.1839789;623.68407;None;;;;;;230104;1;2023-12-01_15h08.46.380;REPSWITCH1_version1_list4;2022.2.4;143.9679584;
REPSWITCH1/PICTURE_446.png;cerdo;type;darkblue;nontarget;1;NT;2;3;4;1;Stim7_Set2;0;None;131;130;29;0;130;130;130;;;;;;;;;;;;;;;;;;;;;;;623.68407;624.753642;624.753642;624.753642;624.753642;624.753642;624.753642;624.753642;624.753642;627.7819014;627.7819014;627.7819014;627.7819014;627.7819014;627.7819014;['c', 'e', 'r', 'd', 'o'];0;[0.879854999948293, 1.0990998998750001, 1.258885899791494, 1.6309641997795552, 1.9011604997795075];cerdo;C:\2023\REPSWITCH21092023\REPSWITCH_excgange\REPSWITCH_excgange\data/230104_REPSWITCH1_version1_list4_2023-12-01_15h08.46.380_micRespv1l4_recorded\recording_micRespv1l4_2023-12-01_15h19.08.324.wav;627.7819014;628.2818769;None;;;;;;230104;1;2023-12-01_15h08.46.380;REPSWITCH1_version1_list4;2022.2.4;143.9679584;
REPSWITCH1/PICTURE_446.png;cerdo;type;darkblue;repeat;1;T;2;3;4;1;Stim7_Set2;0;None;132;131;30;0;131;131;131;;;;;;;;;;;;;;;;;;;;;;;628.2818769;629.3098441;629.3098441;629.3098441;629.3098441;629.3098441;629.3098441;629.3098441;629.3098441;632.3310013;632.3310013;632.3310013;632.3310013;632.3310013;632.3310013;['c', 'e', 'r', 'd', 'o'];0;[0.6569964999798685, 0.8772795998957008, 1.0267749999184161, 1.2600119998678565, 1.397567399777472];cerdo;C:\2023\REPSWITCH21092023\REPSWITCH_excgange\REPSWITCH_excgange\data/230104_REPSWITCH1_version1_list4_2023-12-01_15h08.46.380_micRespv1l4_recorded\recording_micRespv1l4_2023-12-01_15h19.12.880.wav;632.3310013;632.8311089;None;;;;;;230104;1;2023-12-01_15h08.46.380;REPSWITCH1_version1_list4;2022.2.4;143.9679584;
REPSWITCH1/PICTURE_16.png;cazador;speak;gold;filler;2;F;2;3;4;1;Stim6_Set1;0;None;133;132;31;0;132;132;132;;;;;;;;;;;;;;;;;;;;;;;632.8311089;633.8937497;633.8937497;633.8937497;633.8937497;633.8937497;633.8937497;633.8937497;633.8937497;636.9218971;636.9218971;636.9218971;636.9218971;636.9218971;636.9218971;None;0;;;C:\2023\REPSWITCH21092023\REPSWITCH_excgange\REPSWITCH_excgange\data/230104_REPSWITCH1_version1_list4_2023-12-01_15h08.46.380_micRespv1l4_recorded\recording_micRespv1l4_2023-12-01_15h19.17.464.wav;636.9218971;;None;;;;;;230104;1;2023-12-01_15h08.46.380;REPSWITCH1_version1_list4;2022.2.4;143.9679584;
REPSWITCH1/PICTURE_552.png;manzana;type;darkblue;nontarget;1;NT;2;3;4;1;Stim6_Set2;1;switch;134;133;32;0;133;133;133;;;;;;;;;;;;;;;;;;;;;;;637.4219619;638.5333082;638.5333082;638.5333082;638.5333082;638.5333082;638.5333082;638.5333082;638.5333082;641.5544752;641.5544752;641.5544752;641.5544752;641.5544752;641.5544752;['f', 'e', 'r', 'backspace', 'backspace'];0;[0.9210562999360263, 1.1425875998102129, 1.1436092997901142, 2.379124599741772, 2.720850999932736];;C:\2023\REPSWITCH21092023\REPSWITCH_excgange\REPSWITCH_excgange\data/230104_REPSWITCH1_version1_list4_2023-12-01_15h08.46.380_micRespv1l4_recorded\recording_micRespv1l4_2023-12-01_15h19.22.103.wav;641.5544752;642.0545236;None;;;;;;230104;1;2023-12-01_15h08.46.380;REPSWITCH1_version1_list4;2022.2.4;143.9679584;
REPSWITCH1/PICTURE_552.png;manzana;type;darkblue;repeat;1;T;2;3;4;1;Stim6_Set2;0;None;135;134;33;0;134;134;134;;;;;;;;;;;;;;;;;;;;;;;642.0545236;643.1658292;643.1658292;643.1658292;643.1658292;643.1658292;643.1658292;643.1658292;643.1658292;646.1939633;646.1939633;646.1939633;646.1939633;646.1939633;646.1939633;['m', 'a', 'n', 'z', 'a', 'n', 'a'];0;[0.7456167999189347, 0.854237699881196, 0.9738393998704851, 1.5658382000401616, 1.7383659000042826, 1.8331638998351991, 1.9199330999981612];manzana;C:\2023\REPSWITCH21092023\REPSWITCH_excgange\REPSWITCH_excgange\data/230104_REPSWITCH1_version1_list4_2023-12-01_15h08.46.380_micRespv1l4_recorded\recording_micRespv1l4_2023-12-01_15h19.26.736.wav;646.1939633;;None;;;;;;230104;1;2023-12-01_15h08.46.380;REPSWITCH1_version1_list4;2022.2.4;143.9679584;
REPSWITCH1/PICTURE_517.png;cuerda;type;darkblue;nontarget;1;NT;2;3;4;1;Stim4_Set2;0;None;136;135;34;0;135;135;135;;;;;;;;;;;;;;;;;;;;;;;646.6940218;647.7358104;647.7358104;647.7358104;647.7358104;647.7358104;647.7358104;647.7358104;647.7358104;650.7640149;650.7640149;650.7640149;650.7640149;650.7640149;650.7640149;['c', 'u', 'e', 'r', 'd', 'a'];0;[0.8143932998646051, 0.9699417997617275, 1.0918252998962998, 1.1266617998480797, 1.4065470998175442, 1.69158159988001];cuerda;C:\2023\REPSWITCH21092023\REPSWITCH_excgange\REPSWITCH_excgange\data/230104_REPSWITCH1_version1_list4_2023-12-01_15h08.46.380_micRespv1l4_recorded\recording_micRespv1l4_2023-12-01_15h19.31.306.wav;650.7640149;;None;;;;;;230104;1;2023-12-01_15h08.46.380;REPSWITCH1_version1_list4;2022.2.4;143.9679584;
REPSWITCH1/PICTURE_517.png;cuerda;speak;gold;switch;2;T;2;3;4;1;Stim4_Set2;0;None;137;136;35;0;136;136;136;;;;;;;;;;;;;;;;;;;;;;;651.2640817;652.4239765;652.4239765;652.4239765;652.4239765;652.4239765;652.4239765;652.4239765;652.4239765;655.4451535;655.4451535;655.4451535;655.4451535;655.4451535;655.4451535;None;0;;;C:\2023\REPSWITCH21092023\REPSWITCH_excgange\REPSWITCH_excgange\data/230104_REPSWITCH1_version1_list4_2023-12-01_15h08.46.380_micRespv1l4_recorded\recording_micRespv1l4_2023-12-01_15h19.35.994.wav;655.4451535;655.9452568;None;;;;;;230104;1;2023-12-01_15h08.46.380;REPSWITCH1_version1_list4;2022.2.4;143.9679584;
REPSWITCH1/PICTURE_169.png;espalda;speak;gold;filler;2;F;2;3;4;1;Stim8_Set1;1;repeat;138;137;36;0;137;137;137;;;;;;;;;;;;;;;;;;;;;;;655.9452568;657.035681;657.035681;657.035681;657.035681;657.035681;657.035681;657.035681;657.035681;660.0569395;660.0569395;660.0569395;660.0569395;660.0569395;660.0569395;None;0;;;C:\2023\REPSWITCH21092023\REPSWITCH_excgange\REPSWITCH_excgange\data/230104_REPSWITCH1_version1_list4_2023-12-01_15h08.46.380_micRespv1l4_recorded\recording_micRespv1l4_2023-12-01_15h19.40.606.wav;660.0569395;660.5569613;None;;;;;;230104;1;2023-12-01_15h08.46.380;REPSWITCH1_version1_list4;2022.2.4;143.9679584;
REPSWITCH1/PICTURE_30.png;granja;speak;gold;nontarget;2;NT;2;3;4;1;Stim5_Set2;1;repeat;139;138;37;0;138;138;138;;;;;;;;;;;;;;;;;;;;;;;660.5569613;661.7307961;661.7307961;661.7307961;661.7307961;661.7307961;661.7307961;661.7307961;661.7307961;664.7588875;664.7588875;664.7588875;664.7588875;664.7588875;664.7588875;None;0;;;C:\2023\REPSWITCH21092023\REPSWITCH_excgange\REPSWITCH_excgange\data/230104_REPSWITCH1_version1_list4_2023-12-01_15h08.46.380_micRespv1l4_recorded\recording_micRespv1l4_2023-12-01_15h19.45.302.wav;664.7588875;;None;;;;;;230104;1;2023-12-01_15h08.46.380;REPSWITCH1_version1_list4;2022.2.4;143.9679584;
REPSWITCH1/PICTURE_30.png;granja;type;darkblue;switch;1;T;2;3;4;1;Stim5_Set2;0;None;140;139;38;0;139;139;139;;;;;;;;;;;;;;;;;;;;;;;665.2589519;666.2869042;666.2869042;666.2869042;666.2869042;666.2869042;666.2869042;666.2869042;666.2869042;669.3150507;669.3150507;669.3150507;669.3150507;669.3150507;669.3150507;['g', 'r', 'a', 'n', 'j', 'e', 'backspace', 'a'];0;[1.066686699865386, 1.2520437997300178, 1.3786296998150647, 1.6899880997370929, 1.8348716998007149, 1.9518998998682946, 2.3246540997643024, 2.5060566999018192];granja;C:\2023\REPSWITCH21092023\REPSWITCH_excgange\REPSWITCH_excgange\data/230104_REPSWITCH1_version1_list4_2023-12-01_15h08.46.380_micRespv1l4_recorded\recording_micRespv1l4_2023-12-01_15h19.49.858.wav;669.3150507;;None;;;;;;230104;1;2023-12-01_15h08.46.380;REPSWITCH1_version1_list4;2022.2.4;143.9679584;
REPSWITCH1/PICTURE_128.png;muñeca;type;darkblue;filler;1;F;2;3;4;1;Stim4_Set1;1;repeat;141;140;39;0;140;140;140;;;;;;;;;;;;;;;;;;;;;;;669.8152042;670.9958384;670.9958384;670.9958384;670.9958384;670.9958384;670.9958384;670.9958384;670.9958384;674.0240134;674.0240134;674.0240134;674.0240134;674.0240134;674.0240134;['m', 'u', 'ñ', 'e', 'c', 'a'];0;[0.919279299909249, 1.1009398000314832, 1.6392198998946697, 1.7358406998682767, 2.4394353998359293, 2.602849599905312];muñeca;C:\2023\REPSWITCH21092023\REPSWITCH_excgange\REPSWITCH_excgange\data/230104_REPSWITCH1_version1_list4_2023-12-01_15h08.46.380_micRespv1l4_recorded\recording_micRespv1l4_2023-12-01_15h19.54.566.wav;674.0240134;;None;;;;;;230104;1;2023-12-01_15h08.46.380;REPSWITCH1_version1_list4;2022.2.4;143.9679584;
