image;correctAns;respModal;frameColor;repSwitch;sequence;target;set;block;list;exp_version;stimulus;baseline;baseline_condition;trial_no;psychopy_trial;Column1;trialsREPSWITCH.thisRepN;trialsREPSWITCH.thisTrialN;trialsREPSWITCH.thisN;trialsREPSWITCH.thisIndex;textWelcome.started;textboxInstrMain1.started;textboxInstrMain1_2.started;textboxInstrMain1_3.started;keyInstrMain.started;keyInstrMain.keys;keyInstrMain.rt;textboxInstrMain2.started;textboxInstrMain2_2.started;textboxInstrMain2_3.started;textboxInstrMain2_4.started;textboxInstrMain2_5.started;textboxInstrMain2_6.started;textboxInstrMain2_7.started;textboxInstrMain2_8.started;textboxInstrMain2_9.started;textboxInstrMain2_10.started;textboxInstrMain2_11.started;textboxInstrMain2_12.started;keyInstrMain2.started;keyInstrMain2.keys;keyInstrMain2.rt;fixationITI.started;fixationITI.stopped;polygonColour.started;polygonWhite.started;imageObject.started;polygonType.started;textInput.started;keyResp.started;micRespv2l1.started;keyResp.keys;keyResp.corr;keyResp.rt;subjResponse;micRespv2l1.clip;textBlankLoop.started;textBlankLoop.stopped;keyPause.keys;polygonColour.stopped;polygonWhite.stopped;imageObject.stopped;polygonType.stopped;textInput.stopped;keyResp.stopped;textboxPause.started;keyPause.started;keyPause.rt;textboxGoodbye.started;textboxGoodbye.stopped;participant;session;date;expName;psychopyVersion;frameRate;Column2
;;;;;;;;;;;;;;;;;;;;;9.8756892;12.3687902;12.3687902;12.3687902;12.3687902;space;2.9226541;;;;;;;;;;;;;;;;;;;;;;;;;;;;;;;;;;;;;;;;;;;;260201;1;2023-12-04_14h44.55.523;REPSWITCH1_version2_list1;2022.2.4;144.0517435;
;;;;;;;;;;;;;;;;;;;;;;;;;;;;15.3066768;15.3066768;15.3066768;15.3066768;15.3066768;15.3066768;15.3066768;15.3066768;15.3066768;15.3066768;15.3066768;15.3066768;15.3066768;space;1.479957;;;;;;;;;;;;;;;;;;;;;;;;;;;;;260201;1;2023-12-04_14h44.55.523;REPSWITCH1_version2_list1;2022.2.4;144.0517435;
REPSWITCH1/PICTURE_340.png;espejo;type;gold;filler;1;F;1;1;1;2;Extra1;0;None;1;0;1;0;0;0;0;;;;;;;;;;;;;;;;;;;;;;;16.8832788;18.1126415;18.1126415;18.1126415;18.1126415;18.1126415;18.1126415;18.1126415;18.1126415;['e', 's', 'p', 'e', 'j', 'o'];0;[0.9871137998998165, 1.2003347999416292, 1.4701568996533751, 1.7323336000554264, 2.013318999670446, 2.0931420996785164];espejo;C:\2023\REPSWITCH21092023\REPSWITCH_excgange\REPSWITCH_excgange\data/260201_REPSWITCH1_version2_list1_2023-12-04_14h44.55.523_micRespv2l1_recorded\recording_micRespv2l1_2023-12-04_14h45.08.536.wav;21.1339086;21.6338982;None;;;;;;;;;;;;260201;1;2023-12-04_14h44.55.523;REPSWITCH1_version2_list1;2022.2.4;144.0517435;
REPSWITCH1/PICTURE_391.png;cadena;speak;darkblue;filler;2;F;1;1;1;2;Extra2;0;None;2;1;2;0;1;1;1;;;;;;;;;;;;;;;;;;;;;;;21.6338982;22.710423;22.710423;22.710423;22.710423;22.710423;22.710423;22.710423;22.710423;None;0;;;C:\2023\REPSWITCH21092023\REPSWITCH_excgange\REPSWITCH_excgange\data/260201_REPSWITCH1_version2_list1_2023-12-04_14h44.55.523_micRespv2l1_recorded\recording_micRespv2l1_2023-12-04_14h45.13.138.wav;25.7385966;;None;25.7385966;25.7385966;25.7385966;25.7385966;25.7385966;25.7385966;;;;;;260201;1;2023-12-04_14h44.55.523;REPSWITCH1_version2_list1;2022.2.4;144.0517435;
REPSWITCH1/PICTURE_178.png;puente;speak;darkblue;nontarget;2;NT;1;1;1;2;Stim1_Set1;1;repeat;3;2;3;0;2;2;2;;;;;;;;;;;;;;;;;;;;;;;26.2386744;27.287478;27.287478;27.287478;27.287478;27.287478;27.287478;27.287478;27.287478;None;0;;;C:\2023\REPSWITCH21092023\REPSWITCH_excgange\REPSWITCH_excgange\data/260201_REPSWITCH1_version2_list1_2023-12-04_14h44.55.523_micRespv2l1_recorded\recording_micRespv2l1_2023-12-04_14h45.17.715.wav;30.3086188;30.80872;None;30.3086188;30.3086188;30.3086188;30.3086188;30.3086188;30.3086188;;;;;;260201;1;2023-12-04_14h44.55.523;REPSWITCH1_version2_list1;2022.2.4;144.0517435;
REPSWITCH1/PICTURE_178.png;puente;speak;darkblue;repeat;2;T;1;1;1;2;Stim1_Set1;0;None;4;3;4;0;3;3;3;;;;;;;;;;;;;;;;;;;;;;;30.80872;31.9060839;31.9060839;31.9060839;31.9060839;31.9060839;31.9060839;31.9060839;31.9060839;None;0;;;C:\2023\REPSWITCH21092023\REPSWITCH_excgange\REPSWITCH_excgange\data/260201_REPSWITCH1_version2_list1_2023-12-04_14h44.55.523_micRespv2l1_recorded\recording_micRespv2l1_2023-12-04_14h45.22.333.wav;34.9273026;35.4274482;None;34.9273026;34.9273026;34.9273026;34.9273026;34.9273026;34.9273026;;;;;;260201;1;2023-12-04_14h44.55.523;REPSWITCH1_version2_list1;2022.2.4;144.0517435;
REPSWITCH1/PICTURE_319.png;vaca;type;gold;filler;1;F;1;1;1;2;Stim1_Set4;0;None;5;4;5;0;4;4;4;;;;;;;;;;;;;;;;;;;;;;;35.4274482;36.6358977;36.6358977;36.6358977;36.6358977;36.6358977;36.6358977;36.6358977;36.6358977;['v', 'a', 'c', 'a'];0;[1.2582940999418497, 1.4075754000805318, 1.5490621998906136, 1.6574957999400795];vaca;C:\2023\REPSWITCH21092023\REPSWITCH_excgange\REPSWITCH_excgange\data/260201_REPSWITCH1_version2_list1_2023-12-04_14h44.55.523_micRespv2l1_recorded\recording_micRespv2l1_2023-12-04_14h45.27.063.wav;39.6640616;;None;39.6640616;39.6640616;39.6640616;39.6640616;39.6640616;39.6640616;;;;;;260201;1;2023-12-04_14h44.55.523;REPSWITCH1_version2_list1;2022.2.4;144.0517435;
REPSWITCH1/PICTURE_381.png;fresa;speak;darkblue;nontarget;2;NT;1;1;1;2;Stim2_Set1;1;switch;6;5;6;0;5;5;5;;;;;;;;;;;;;;;;;;;;;;;40.1640725;41.282339;41.282339;41.282339;41.282339;41.282339;41.282339;41.282339;41.282339;None;0;;;C:\2023\REPSWITCH21092023\REPSWITCH_excgange\REPSWITCH_excgange\data/260201_REPSWITCH1_version2_list1_2023-12-04_14h44.55.523_micRespv2l1_recorded\recording_micRespv2l1_2023-12-04_14h45.31.711.wav;44.3104788;;None;44.3104788;44.3104788;44.3104788;44.3104788;44.3104788;44.3104788;;;;;;260201;1;2023-12-04_14h44.55.523;REPSWITCH1_version2_list1;2022.2.4;144.0517435;
REPSWITCH1/PICTURE_381.png;fresa;speak;darkblue;repeat;2;T;1;1;1;2;Stim2_Set1;0;None;7;6;7;0;6;6;6;;;;;;;;;;;;;;;;;;;;;;;44.8105608;45.9148573;45.9148573;45.9148573;45.9148573;45.9148573;45.9148573;45.9148573;45.9148573;None;0;;;C:\2023\REPSWITCH21092023\REPSWITCH_excgange\REPSWITCH_excgange\data/260201_REPSWITCH1_version2_list1_2023-12-04_14h44.55.523_micRespv2l1_recorded\recording_micRespv2l1_2023-12-04_14h45.36.343.wav;48.9430134;;None;48.9430134;48.9430134;48.9430134;48.9430134;48.9430134;48.9430134;;;;;;260201;1;2023-12-04_14h44.55.523;REPSWITCH1_version2_list1;2022.2.4;144.0517435;
REPSWITCH1/PICTURE_719.png;baño;type;gold;filler;1;F;1;1;1;2;Stim2_Set4;1;switch;8;7;8;0;7;7;7;;;;;;;;;;;;;;;;;;;;;;;49.4430861;50.5405336;50.5405336;50.5405336;50.5405336;50.5405336;50.5405336;50.5405336;50.5405336;['b', 'a', 'ñ', 'o'];0;[1.2368268999271095, 1.4371250001713634, 1.8361546001397073, 1.930855100043118];baño;C:\2023\REPSWITCH21092023\REPSWITCH_excgange\REPSWITCH_excgange\data/260201_REPSWITCH1_version2_list1_2023-12-04_14h44.55.523_micRespv2l1_recorded\recording_micRespv2l1_2023-12-04_14h45.40.969.wav;53.5686478;;None;53.5686478;53.5686478;53.5686478;53.5686478;53.5686478;53.5686478;;;;;;260201;1;2023-12-04_14h44.55.523;REPSWITCH1_version2_list1;2022.2.4;144.0517435;
REPSWITCH1/PICTURE_135.png;traje;speak;darkblue;nontarget;2;NT;1;1;1;2;Stim3_Set1;0;None;9;8;9;0;8;8;8;;;;;;;;;;;;;;;;;;;;;;;54.06872;55.1105421;55.1105421;55.1105421;55.1105421;55.1105421;55.1105421;55.1105421;55.1105421;None;0;;;C:\2023\REPSWITCH21092023\REPSWITCH_excgange\REPSWITCH_excgange\data/260201_REPSWITCH1_version2_list1_2023-12-04_14h44.55.523_micRespv2l1_recorded\recording_micRespv2l1_2023-12-04_14h45.45.539.wav;58.138684;;None;58.138684;58.138684;58.138684;58.138684;58.138684;58.138684;;;;;;260201;1;2023-12-04_14h44.55.523;REPSWITCH1_version2_list1;2022.2.4;144.0517435;
REPSWITCH1/PICTURE_135.png;traje;type;gold;switch;1;T;1;1;1;2;Stim3_Set1;0;None;10;9;10;0;9;9;9;;;;;;;;;;;;;;;;;;;;;;;58.6387464;59.8264006;59.8264006;59.8264006;59.8264006;59.8264006;59.8264006;59.8264006;59.8264006;['t', 'r', 'a', 'j', 'e'];0;[1.1363289998844266, 1.3266644002869725, 1.4901292999275029, 1.7293306002393365, 1.8341129999607801];traje;C:\2023\REPSWITCH21092023\REPSWITCH_excgange\REPSWITCH_excgange\data/260201_REPSWITCH1_version2_list1_2023-12-04_14h44.55.523_micRespv2l1_recorded\recording_micRespv2l1_2023-12-04_14h45.50.254.wav;62.8546321;;None;62.8546321;62.8546321;62.8546321;62.8546321;62.8546321;62.8546321;;;;;;260201;1;2023-12-04_14h44.55.523;REPSWITCH1_version2_list1;2022.2.4;144.0517435;
REPSWITCH1/PICTURE_687.png;camisa;speak;darkblue;filler;2;F;1;1;1;2;Stim5_Set4;0;None;11;10;11;0;10;10;10;;;;;;;;;;;;;;;;;;;;;;;63.3546451;64.4659235;64.4659235;64.4659235;64.4659235;64.4659235;64.4659235;64.4659235;64.4659235;None;0;;;C:\2023\REPSWITCH21092023\REPSWITCH_excgange\REPSWITCH_excgange\data/260201_REPSWITCH1_version2_list1_2023-12-04_14h44.55.523_micRespv2l1_recorded\recording_micRespv2l1_2023-12-04_14h45.54.894.wav;67.4940632;;None;67.4940632;67.4940632;67.4940632;67.4940632;67.4940632;67.4940632;;;;;;260201;1;2023-12-04_14h44.55.523;REPSWITCH1_version2_list1;2022.2.4;144.0517435;
REPSWITCH1/PICTURE_128.png;muñeca;type;gold;nontarget;1;NT;1;1;1;2;Stim4_Set1;1;switch;12;11;12;0;11;11;11;;;;;;;;;;;;;;;;;;;;;;;67.9941171;69.1331791;69.1331791;69.1331791;69.1331791;69.1331791;69.1331791;69.1331791;69.1331791;['m', 'e'];0;[1.5679081999696791, 2.301897400058806];me;C:\2023\REPSWITCH21092023\REPSWITCH_excgange\REPSWITCH_excgange\data/260201_REPSWITCH1_version2_list1_2023-12-04_14h44.55.523_micRespv2l1_recorded\recording_micRespv2l1_2023-12-04_14h45.59.561.wav;72.1613746;;None;72.1613746;72.1613746;72.1613746;72.1613746;72.1613746;72.1613746;;;;;;260201;1;2023-12-04_14h44.55.523;REPSWITCH1_version2_list1;2022.2.4;144.0517435;
REPSWITCH1/PICTURE_128.png;muñeca;speak;darkblue;switch;2;T;1;1;1;2;Stim4_Set1;0;None;13;12;13;0;12;12;12;;;;;;;;;;;;;;;;;;;;;;;72.6614337;73.7657686;73.7657686;73.7657686;73.7657686;73.7657686;73.7657686;73.7657686;73.7657686;None;0;;;C:\2023\REPSWITCH21092023\REPSWITCH_excgange\REPSWITCH_excgange\data/260201_REPSWITCH1_version2_list1_2023-12-04_14h44.55.523_micRespv2l1_recorded\recording_micRespv2l1_2023-12-04_14h46.04.194.wav;76.7869403;77.2870171;None;76.7869403;76.7869403;76.7869403;76.7869403;76.7869403;76.7869403;;;;;;260201;1;2023-12-04_14h44.55.523;REPSWITCH1_version2_list1;2022.2.4;144.0517435;
REPSWITCH1/PICTURE_8.png;pierna;speak;darkblue;filler;2;F;1;1;1;2;Stim3_Set4;0;None;14;13;14;0;13;13;13;;;;;;;;;;;;;;;;;;;;;;;77.2870171;78.3218848;78.3218848;78.3218848;78.3218848;78.3218848;78.3218848;78.3218848;78.3218848;None;0;;;C:\2023\REPSWITCH21092023\REPSWITCH_excgange\REPSWITCH_excgange\data/260201_REPSWITCH1_version2_list1_2023-12-04_14h44.55.523_micRespv2l1_recorded\recording_micRespv2l1_2023-12-04_14h46.08.749.wav;81.3431798;81.8431899;None;81.3431798;81.3431798;81.3431798;81.3431798;81.3431798;81.3431798;;;;;;260201;1;2023-12-04_14h44.55.523;REPSWITCH1_version2_list1;2022.2.4;144.0517435;
REPSWITCH1/PICTURE_19.png;pavo;speak;darkblue;nontarget;2;NT;1;1;1;2;Stim5_Set1;0;None;15;14;15;0;14;14;14;;;;;;;;;;;;;;;;;;;;;;;81.8431899;82.9683388;82.9683388;82.9683388;82.9683388;82.9683388;82.9683388;82.9683388;82.9683388;None;0;;;C:\2023\REPSWITCH21092023\REPSWITCH_excgange\REPSWITCH_excgange\data/260201_REPSWITCH1_version2_list1_2023-12-04_14h44.55.523_micRespv2l1_recorded\recording_micRespv2l1_2023-12-04_14h46.13.396.wav;85.9965536;;None;85.9965536;85.9965536;85.9965536;85.9965536;85.9965536;85.9965536;;;;;;260201;1;2023-12-04_14h44.55.523;REPSWITCH1_version2_list1;2022.2.4;144.0517435;
REPSWITCH1/PICTURE_19.png;pavo;type;gold;switch;1;T;1;1;1;2;Stim5_Set1;0;None;16;15;16;0;15;15;15;;;;;;;;;;;;;;;;;;;;;;;86.49659;87.5315043;87.5315043;87.5315043;87.5315043;87.5315043;87.5315043;87.5315043;87.5315043;['p', 'a', 'v', 'o'];0;[0.8973308997228742, 1.0557912001386285, 1.406587999779731, 1.5391820999793708];pavo;C:\2023\REPSWITCH21092023\REPSWITCH_excgange\REPSWITCH_excgange\data/260201_REPSWITCH1_version2_list1_2023-12-04_14h44.55.523_micRespv2l1_recorded\recording_micRespv2l1_2023-12-04_14h46.17.959.wav;90.5596172;;None;90.5596172;90.5596172;90.5596172;90.5596172;90.5596172;90.5596172;;;;;;260201;1;2023-12-04_14h44.55.523;REPSWITCH1_version2_list1;2022.2.4;144.0517435;
REPSWITCH1/PICTURE_16.png;cazador;type;gold;nontarget;1;NT;1;1;1;2;Stim6_Set1;1;switch;17;16;17;0;16;16;16;;;;;;;;;;;;;;;;;;;;;;;91.0596741;92.1362084;92.1362084;92.1362084;92.1362084;92.1362084;92.1362084;92.1362084;92.1362084;['c', 'a', 'z', 'a', 'd', 'o', 'r'];0;[1.777231500018388, 1.9867997001856565, 2.2020749002695084, 2.328215999994427, 2.5464672003872693, 2.6982523002661765, 2.787950500380248];cazador;C:\2023\REPSWITCH21092023\REPSWITCH_excgange\REPSWITCH_excgange\data/260201_REPSWITCH1_version2_list1_2023-12-04_14h44.55.523_micRespv2l1_recorded\recording_micRespv2l1_2023-12-04_14h46.22.565.wav;95.1643977;;None;95.1643977;95.1643977;95.1643977;95.1643977;95.1643977;95.1643977;;;;;;260201;1;2023-12-04_14h44.55.523;REPSWITCH1_version2_list1;2022.2.4;144.0517435;
REPSWITCH1/PICTURE_16.png;cazador;type;gold;repeat;1;T;1;1;1;2;Stim6_Set1;0;None;18;17;18;0;17;17;17;;;;;;;;;;;;;;;;;;;;;;;95.6645232;96.7340258;96.7340258;96.7340258;96.7340258;96.7340258;96.7340258;96.7340258;96.7340258;['c', 'a', 'z', 'a', 'd', 'o', 'r'];0;[1.0650277002714574, 1.1566981002688408, 1.319156200159341, 1.436877700034529, 1.6301242001354694, 1.763780000153929, 1.859457100275904];cazador;C:\2023\REPSWITCH21092023\REPSWITCH_excgange\REPSWITCH_excgange\data/260201_REPSWITCH1_version2_list1_2023-12-04_14h44.55.523_micRespv2l1_recorded\recording_micRespv2l1_2023-12-04_14h46.27.162.wav;99.7622859;;None;99.7622859;99.7622859;99.7622859;99.7622859;99.7622859;99.7622859;;;;;;260201;1;2023-12-04_14h44.55.523;REPSWITCH1_version2_list1;2022.2.4;144.0517435;
REPSWITCH1/PICTURE_498.png;taza;speak;darkblue;filler;2;F;1;1;1;2;Stim4_Set4;0;None;19;18;19;0;18;18;18;;;;;;;;;;;;;;;;;;;;;;;100.2623583;101.3666281;101.3666281;101.3666281;101.3666281;101.3666281;101.3666281;101.3666281;101.3666281;None;0;;;C:\2023\REPSWITCH21092023\REPSWITCH_excgange\REPSWITCH_excgange\data/260201_REPSWITCH1_version2_list1_2023-12-04_14h44.55.523_micRespv2l1_recorded\recording_micRespv2l1_2023-12-04_14h46.31.795.wav;104.3948052;;None;104.3948052;104.3948052;104.3948052;104.3948052;104.3948052;104.3948052;;;;;;260201;1;2023-12-04_14h44.55.523;REPSWITCH1_version2_list1;2022.2.4;144.0517435;
REPSWITCH1/PICTURE_48.png;bombero;type;gold;filler;1;F;1;1;1;2;Stim7_Set4;0;None;20;19;20;0;19;19;19;;;;;;;;;;;;;;;;;;;;;;;104.8948377;105.9783133;105.9783133;105.9783133;105.9783133;105.9783133;105.9783133;105.9783133;105.9783133;['b', 'm', 'b', 'e', 'r', 'o'];0;[1.1164758997038007, 1.5548244998790324, 2.0693777999840677, 2.169048999901861, 2.2487431997433305, 2.5191116998903453];bmbero;C:\2023\REPSWITCH21092023\REPSWITCH_excgange\REPSWITCH_excgange\data/260201_REPSWITCH1_version2_list1_2023-12-04_14h44.55.523_micRespv2l1_recorded\recording_micRespv2l1_2023-12-04_14h46.36.406.wav;108.9995242;109.4996786;None;108.9995242;108.9995242;108.9995242;108.9995242;108.9995242;108.9995242;;;;;;260201;1;2023-12-04_14h44.55.523;REPSWITCH1_version2_list1;2022.2.4;144.0517435;
REPSWITCH1/PICTURE_142.png;vaso;type;gold;nontarget;1;NT;1;1;1;2;Stim7_Set1;1;repeat;21;20;21;0;20;20;20;;;;;;;;;;;;;;;;;;;;;;;109.4996786;110.5969561;110.5969561;110.5969561;110.5969561;110.5969561;110.5969561;110.5969561;110.5969561;['v', 'a', 's', 'o'];0;[1.1887607001699507, 1.2976434002630413, 1.5690761003643274, 1.7433337001129985];vaso;C:\2023\REPSWITCH21092023\REPSWITCH_excgange\REPSWITCH_excgange\data/260201_REPSWITCH1_version2_list1_2023-12-04_14h44.55.523_micRespv2l1_recorded\recording_micRespv2l1_2023-12-04_14h46.41.025.wav;113.6251217;;None;113.6251217;113.6251217;113.6251217;113.6251217;113.6251217;113.6251217;;;;;;260201;1;2023-12-04_14h44.55.523;REPSWITCH1_version2_list1;2022.2.4;144.0517435;
REPSWITCH1/PICTURE_142.png;vaso;type;gold;repeat;1;T;1;1;1;2;Stim7_Set1;0;None;22;21;22;0;21;21;21;;;;;;;;;;;;;;;;;;;;;;;114.1252086;115.1809234;115.1809234;115.1809234;115.1809234;115.1809234;115.1809234;115.1809234;115.1809234;['v', 'a', 's', 'o'];0;[1.5818219003267586, 1.68447280023247, 1.7453495999798179, 1.9404474003240466];vaso;C:\2023\REPSWITCH21092023\REPSWITCH_excgange\REPSWITCH_excgange\data/260201_REPSWITCH1_version2_list1_2023-12-04_14h44.55.523_micRespv2l1_recorded\recording_micRespv2l1_2023-12-04_14h46.45.609.wav;118.2091402;118.7091303;None;118.2091402;118.2091402;118.2091402;118.2091402;118.2091402;118.2091402;;;;;;260201;1;2023-12-04_14h44.55.523;REPSWITCH1_version2_list1;2022.2.4;144.0517435;
REPSWITCH1/PICTURE_338.png;regalo;speak;darkblue;filler;2;F;1;1;1;2;Stim6_Set4;1;switch;23;22;23;0;22;22;22;;;;;;;;;;;;;;;;;;;;;;;118.7091303;119.8690851;119.8690851;119.8690851;119.8690851;119.8690851;119.8690851;119.8690851;119.8690851;None;0;;;C:\2023\REPSWITCH21092023\REPSWITCH_excgange\REPSWITCH_excgange\data/260201_REPSWITCH1_version2_list1_2023-12-04_14h44.55.523_micRespv2l1_recorded\recording_micRespv2l1_2023-12-04_14h46.50.297.wav;122.897211;;None;122.897211;122.897211;122.897211;122.897211;122.897211;122.897211;;;;;;260201;1;2023-12-04_14h44.55.523;REPSWITCH1_version2_list1;2022.2.4;144.0517435;
REPSWITCH1/PICTURE_728.png;pulpo;type;gold;filler;1;F;1;1;1;2;Stim8_Set4;1;switch;24;23;24;0;23;23;23;;;;;;;;;;;;;;;;;;;;;;;123.3972686;124.4390928;124.4390928;124.4390928;124.4390928;124.4390928;124.4390928;124.4390928;124.4390928;['p', 'u', 'l', 'p', 'o'];0;[1.1167951002717018, 1.315077600069344, 1.5473349001258612, 1.8752619000151753, 1.9701070003211498];pulpo;C:\2023\REPSWITCH21092023\REPSWITCH_excgange\REPSWITCH_excgange\data/260201_REPSWITCH1_version2_list1_2023-12-04_14h44.55.523_micRespv2l1_recorded\recording_micRespv2l1_2023-12-04_14h46.54.867.wav;127.4602924;127.9603689;None;127.4602924;127.4602924;127.4602924;127.4602924;127.4602924;127.4602924;;;;;;260201;1;2023-12-04_14h44.55.523;REPSWITCH1_version2_list1;2022.2.4;144.0517435;
REPSWITCH1/PICTURE_169.png;espalda;type;gold;nontarget;1;NT;1;1;1;2;Stim8_Set1;1;repeat;25;24;25;0;24;24;24;;;;;;;;;;;;;;;;;;;;;;;127.9603689;129.0438994;129.0438994;129.0438994;129.0438994;129.0438994;129.0438994;129.0438994;129.0438994;['e', 's', 'p', 'a', 'l', 'd', 'a'];0;[1.3139622998423874, 1.5277220997959375, 1.6823212997987866, 1.8022243999876082, 1.906865299679339, 2.020799999590963, 2.281201799865812];espalda;C:\2023\REPSWITCH21092023\REPSWITCH_excgange\REPSWITCH_excgange\data/260201_REPSWITCH1_version2_list1_2023-12-04_14h44.55.523_micRespv2l1_recorded\recording_micRespv2l1_2023-12-04_14h46.59.472.wav;132.0650515;132.5651132;None;132.0650515;132.0650515;132.0650515;132.0650515;132.0650515;132.0650515;;;;;;260201;1;2023-12-04_14h44.55.523;REPSWITCH1_version2_list1;2022.2.4;144.0517435;
REPSWITCH1/PICTURE_169.png;espalda;speak;darkblue;switch;2;T;1;1;1;2;Stim8_Set1;0;None;26;25;26;0;25;25;25;;;;;;;;;;;;;;;;;;;;;;;132.5651132;133.6625718;133.6625718;133.6625718;133.6625718;133.6625718;133.6625718;133.6625718;133.6625718;None;0;;;C:\2023\REPSWITCH21092023\REPSWITCH_excgange\REPSWITCH_excgange\data/260201_REPSWITCH1_version2_list1_2023-12-04_14h44.55.523_micRespv2l1_recorded\recording_micRespv2l1_2023-12-04_14h47.04.090.wav;136.6906652;;None;136.6906652;136.6906652;136.6906652;136.6906652;136.6906652;136.6906652;;;;;;260201;1;2023-12-04_14h44.55.523;REPSWITCH1_version2_list1;2022.2.4;144.0517435;
REPSWITCH1/PICTURE_178.png;puente;speak;darkblue;filler;2;F;2;1;1;2;Stim1_Set1;0;None;27;26;27;0;26;26;26;;;;;;;;;;;;;;;;;;;;;;;137.1907461;138.2047534;138.2047534;138.2047534;138.2047534;138.2047534;138.2047534;138.2047534;138.2047534;None;0;;;C:\2023\REPSWITCH21092023\REPSWITCH_excgange\REPSWITCH_excgange\data/260201_REPSWITCH1_version2_list1_2023-12-04_14h44.55.523_micRespv2l1_recorded\recording_micRespv2l1_2023-12-04_14h47.08.633.wav;141.2329265;;None;141.2329265;141.2329265;141.2329265;141.2329265;141.2329265;141.2329265;;;;;;260201;1;2023-12-04_14h44.55.523;REPSWITCH1_version2_list1;2022.2.4;144.0517435;
REPSWITCH1/PICTURE_175.png;pintor;type;gold;nontarget;1;NT;2;1;1;2;Stim1_Set2;1;switch;28;27;28;0;27;27;27;;;;;;;;;;;;;;;;;;;;;;;141.7329719;142.8720563;142.8720563;142.8720563;142.8720563;142.8720563;142.8720563;142.8720563;142.8720563;['p', 'i', 'n', 't', 'o', 'r'];0;[1.0752281001769006, 1.273554699961096, 1.4688659003004432, 1.6034442000091076, 1.7080947002395988, 1.8200596002861857];pintor;C:\2023\REPSWITCH21092023\REPSWITCH_excgange\REPSWITCH_excgange\data/260201_REPSWITCH1_version2_list1_2023-12-04_14h44.55.523_micRespv2l1_recorded\recording_micRespv2l1_2023-12-04_14h47.13.299.wav;145.8932606;146.39335;None;145.8932606;145.8932606;145.8932606;145.8932606;145.8932606;145.8932606;;;;;;260201;1;2023-12-04_14h44.55.523;REPSWITCH1_version2_list1;2022.2.4;144.0517435;
REPSWITCH1/PICTURE_175.png;pintor;type;gold;repeat;1;T;2;1;1;2;Stim1_Set2;0;None;29;28;29;0;28;28;28;;;;;;;;;;;;;;;;;;;;;;;146.39335;147.4560112;147.4560112;147.4560112;147.4560112;147.4560112;147.4560112;147.4560112;147.4560112;['p', 'i', 'n', 't', 'o', 'r'];0;[0.7219207999296486, 0.9511640998534858, 1.0980001999996603, 1.2475670999847353, 1.352218999993056, 1.4716747999191284];pintor;C:\2023\REPSWITCH21092023\REPSWITCH_excgange\REPSWITCH_excgange\data/260201_REPSWITCH1_version2_list1_2023-12-04_14h44.55.523_micRespv2l1_recorded\recording_micRespv2l1_2023-12-04_14h47.17.884.wav;150.4771956;150.9772699;None;150.4771956;150.4771956;150.4771956;150.4771956;150.4771956;150.4771956;;;;;;260201;1;2023-12-04_14h44.55.523;REPSWITCH1_version2_list1;2022.2.4;144.0517435;
REPSWITCH1/PICTURE_381.png;fresa;speak;darkblue;filler;2;F;2;1;1;2;Stim2_Set1;0;None;30;29;30;0;29;29;29;;;;;;;;;;;;;;;;;;;;;;;150.9772699;152.1093893;152.1093893;152.1093893;152.1093893;152.1093893;152.1093893;152.1093893;152.1093893;None;0;;;C:\2023\REPSWITCH21092023\REPSWITCH_excgange\REPSWITCH_excgange\data/260201_REPSWITCH1_version2_list1_2023-12-04_14h44.55.523_micRespv2l1_recorded\recording_micRespv2l1_2023-12-04_14h47.22.538.wav;155.1375575;;None;155.1375575;155.1375575;155.1375575;155.1375575;155.1375575;155.1375575;;;;;;260201;1;2023-12-04_14h44.55.523;REPSWITCH1_version2_list1;2022.2.4;144.0517435;
REPSWITCH1/PICTURE_152.png;caracol;type;gold;nontarget;1;NT;2;1;1;2;Stim2_Set2;1;switch;31;30;31;0;30;30;30;;;;;;;;;;;;;;;;;;;;;;;155.6376195;156.7072;156.7072;156.7072;156.7072;156.7072;156.7072;156.7072;156.7072;['c', 'a', 'r', 'a', 'c', 'o', 'l'];0;[0.9024282996542752, 1.1076170997694135, 1.2938016997650266, 1.5176750998944044, 1.740892699919641, 1.853827599901706, 2.0076154000125825];caracol;C:\2023\REPSWITCH21092023\REPSWITCH_excgange\REPSWITCH_excgange\data/260201_REPSWITCH1_version2_list1_2023-12-04_14h44.55.523_micRespv2l1_recorded\recording_micRespv2l1_2023-12-04_14h47.27.134.wav;159.7284094;160.2285038;None;159.7284094;159.7284094;159.7284094;159.7284094;159.7284094;159.7284094;;;;;;260201;1;2023-12-04_14h44.55.523;REPSWITCH1_version2_list1;2022.2.4;144.0517435;
REPSWITCH1/PICTURE_152.png;caracol;type;gold;repeat;1;T;2;1;1;2;Stim2_Set2;0;None;32;31;32;0;31;31;31;;;;;;;;;;;;;;;;;;;;;;;160.2285038;161.2842034;161.2842034;161.2842034;161.2842034;161.2842034;161.2842034;161.2842034;161.2842034;['c', 'a', 'r', 'a', 'c', 'o', 'l'];0;[0.7037654002197087, 0.9213245999999344, 1.1206490001641214, 1.301234600134194, 1.5108503000810742, 1.5988937001675367, 1.7603685003705323];caracol;C:\2023\REPSWITCH21092023\REPSWITCH_excgange\REPSWITCH_excgange\data/260201_REPSWITCH1_version2_list1_2023-12-04_14h44.55.523_micRespv2l1_recorded\recording_micRespv2l1_2023-12-04_14h47.31.712.wav;164.312369;;None;164.312369;164.312369;164.312369;164.312369;164.312369;164.312369;;;;;;260201;1;2023-12-04_14h44.55.523;REPSWITCH1_version2_list1;2022.2.4;144.0517435;
REPSWITCH1/PICTURE_128.png;muñeca;speak;darkblue;filler;2;F;2;1;1;2;Stim4_Set1;0;None;33;32;33;0;32;32;32;;;;;;;;;;;;;;;;;;;;;;;164.8125012;165.8889753;165.8889753;165.8889753;165.8889753;165.8889753;165.8889753;165.8889753;165.8889753;None;0;;;C:\2023\REPSWITCH21092023\REPSWITCH_excgange\REPSWITCH_excgange\data/260201_REPSWITCH1_version2_list1_2023-12-04_14h44.55.523_micRespv2l1_recorded\recording_micRespv2l1_2023-12-04_14h47.36.317.wav;168.9171158;;None;168.9171158;168.9171158;168.9171158;168.9171158;168.9171158;168.9171158;;;;;;260201;1;2023-12-04_14h44.55.523;REPSWITCH1_version2_list1;2022.2.4;144.0517435;
REPSWITCH1/PICTURE_264.png;mano;type;gold;nontarget;1;NT;2;1;1;2;Stim3_Set2;0;None;34;33;34;0;33;33;33;;;;;;;;;;;;;;;;;;;;;;;169.4172015;170.6674561;170.6674561;170.6674561;170.6674561;170.6674561;170.6674561;170.6674561;170.6674561;['a', 'backspace', 'm', 'a', 'n', 'o'];0;[1.4985883999615908, 2.0591858997941017, 2.383734399918467, 2.542165799997747, 2.6288843997754157, 2.7245741998776793];mano;C:\2023\REPSWITCH21092023\REPSWITCH_excgange\REPSWITCH_excgange\data/260201_REPSWITCH1_version2_list1_2023-12-04_14h44.55.523_micRespv2l1_recorded\recording_micRespv2l1_2023-12-04_14h47.41.095.wav;173.6885956;174.1887098;None;173.6885956;173.6885956;173.6885956;173.6885956;173.6885956;173.6885956;;;;;;260201;1;2023-12-04_14h44.55.523;REPSWITCH1_version2_list1;2022.2.4;144.0517435;
REPSWITCH1/PICTURE_264.png;mano;speak;darkblue;switch;2;T;2;1;1;2;Stim3_Set2;0;None;35;34;35;0;34;34;34;;;;;;;;;;;;;;;;;;;;;;;174.1887098;175.2790845;175.2790845;175.2790845;175.2790845;175.2790845;175.2790845;175.2790845;175.2790845;None;0;;;C:\2023\REPSWITCH21092023\REPSWITCH_excgange\REPSWITCH_excgange\data/260201_REPSWITCH1_version2_list1_2023-12-04_14h44.55.523_micRespv2l1_recorded\recording_micRespv2l1_2023-12-04_14h47.45.707.wav;178.3073076;;None;178.3073076;178.3073076;178.3073076;178.3073076;178.3073076;178.3073076;;;;;;260201;1;2023-12-04_14h44.55.523;REPSWITCH1_version2_list1;2022.2.4;144.0517435;
REPSWITCH1/PICTURE_517.png;cuerda;speak;darkblue;nontarget;2;NT;2;1;1;2;Stim4_Set2;1;repeat;36;35;36;0;35;35;35;;;;;;;;;;;;;;;;;;;;;;;178.8073991;179.9186118;179.9186118;179.9186118;179.9186118;179.9186118;179.9186118;179.9186118;179.9186118;None;0;;;C:\2023\REPSWITCH21092023\REPSWITCH_excgange\REPSWITCH_excgange\data/260201_REPSWITCH1_version2_list1_2023-12-04_14h44.55.523_micRespv2l1_recorded\recording_micRespv2l1_2023-12-04_14h47.50.347.wav;182.9467628;;None;182.9467628;182.9467628;182.9467628;182.9467628;182.9467628;182.9467628;;;;;;260201;1;2023-12-04_14h44.55.523;REPSWITCH1_version2_list1;2022.2.4;144.0517435;
REPSWITCH1/PICTURE_517.png;cuerda;type;gold;switch;1;T;2;1;1;2;Stim4_Set2;0;None;37;36;37;0;36;36;36;;;;;;;;;;;;;;;;;;;;;;;183.4468249;184.5580744;184.5580744;184.5580744;184.5580744;184.5580744;184.5580744;184.5580744;184.5580744;['c', 'u', 'e', 'r', 'd', 'a'];0;[0.9494558000005782, 1.172216400038451, 1.2907846998423338, 1.3718888997100294, 1.599981099832803, 1.8314963998273015];cuerda;C:\2023\REPSWITCH21092023\REPSWITCH_excgange\REPSWITCH_excgange\data/260201_REPSWITCH1_version2_list1_2023-12-04_14h44.55.523_micRespv2l1_recorded\recording_micRespv2l1_2023-12-04_14h47.54.985.wav;187.5862631;;None;187.5862631;187.5862631;187.5862631;187.5862631;187.5862631;187.5862631;;;;;;260201;1;2023-12-04_14h44.55.523;REPSWITCH1_version2_list1;2022.2.4;144.0517435;
REPSWITCH1/PICTURE_135.png;traje;type;gold;filler;1;F;2;1;1;2;Stim3_Set1;0;None;38;37;38;0;37;37;37;;;;;;;;;;;;;;;;;;;;;;;188.0863261;189.2045041;189.2045041;189.2045041;189.2045041;189.2045041;189.2045041;189.2045041;189.2045041;['t', 'r', 'a', 'j', 'e'];0;[1.0705116000026464, 1.2121335002593696, 1.369925200007856, 1.5685366000980139, 1.6635708003304899];traje;C:\2023\REPSWITCH21092023\REPSWITCH_excgange\REPSWITCH_excgange\data/260201_REPSWITCH1_version2_list1_2023-12-04_14h44.55.523_micRespv2l1_recorded\recording_micRespv2l1_2023-12-04_14h47.59.633.wav;192.2327084;;None;192.2327084;192.2327084;192.2327084;192.2327084;192.2327084;192.2327084;;;;;;260201;1;2023-12-04_14h44.55.523;REPSWITCH1_version2_list1;2022.2.4;144.0517435;
REPSWITCH1/PICTURE_30.png;granja;type;gold;nontarget;1;NT;2;1;1;2;Stim5_Set2;1;repeat;39;38;39;0;38;38;38;;;;;;;;;;;;;;;;;;;;;;;192.7327579;193.7537134;193.7537134;193.7537134;193.7537134;193.7537134;193.7537134;193.7537134;193.7537134;['g', 'r', 'a', 'n', 'j', 'a'];0;[1.2059492003172636, 1.391268900129944, 1.5652736001648009, 1.8127510002814233, 1.9912097002379596, 2.0919119003228843];granja;C:\2023\REPSWITCH21092023\REPSWITCH_excgange\REPSWITCH_excgange\data/260201_REPSWITCH1_version2_list1_2023-12-04_14h44.55.523_micRespv2l1_recorded\recording_micRespv2l1_2023-12-04_14h48.04.182.wav;196.7818783;197.2819528;None;196.7818783;196.7818783;196.7818783;196.7818783;196.7818783;196.7818783;;;;;;260201;1;2023-12-04_14h44.55.523;REPSWITCH1_version2_list1;2022.2.4;144.0517435;
REPSWITCH1/PICTURE_30.png;granja;speak;darkblue;switch;2;T;2;1;1;2;Stim5_Set2;0;None;40;39;40;0;39;39;39;;;;;;;;;;;;;;;;;;;;;;;197.2819528;198.3237535;198.3237535;198.3237535;198.3237535;198.3237535;198.3237535;198.3237535;198.3237535;None;0;;;C:\2023\REPSWITCH21092023\REPSWITCH_excgange\REPSWITCH_excgange\data/260201_REPSWITCH1_version2_list1_2023-12-04_14h44.55.523_micRespv2l1_recorded\recording_micRespv2l1_2023-12-04_14h48.08.752.wav;201.3520031;;None;201.3520031;201.3520031;201.3520031;201.3520031;201.3520031;201.3520031;;;;;;260201;1;2023-12-04_14h44.55.523;REPSWITCH1_version2_list1;2022.2.4;144.0517435;
REPSWITCH1/PICTURE_142.png;vaso;type;gold;filler;1;F;2;1;1;2;Stim7_Set1;0;None;41;40;41;0;40;40;40;;;;;;;;;;;;;;;;;;;;;;;201.8519849;202.9494263;202.9494263;202.9494263;202.9494263;202.9494263;202.9494263;202.9494263;202.9494263;['v', 'a', 's', 'o'];0;[0.9330028002150357, 1.0741721000522375, 1.1669471999630332, 1.344276700168848];vaso;C:\2023\REPSWITCH21092023\REPSWITCH_excgange\REPSWITCH_excgange\data/260201_REPSWITCH1_version2_list1_2023-12-04_14h44.55.523_micRespv2l1_recorded\recording_micRespv2l1_2023-12-04_14h48.13.377.wav;205.9706185;206.4706872;None;205.9706185;205.9706185;205.9706185;205.9706185;205.9706185;205.9706185;;;;;;260201;1;2023-12-04_14h44.55.523;REPSWITCH1_version2_list1;2022.2.4;144.0517435;
REPSWITCH1/PICTURE_19.png;pavo;speak;darkblue;filler;2;F;2;1;1;2;Stim5_Set1;1;switch;42;41;42;0;41;41;41;;;;;;;;;;;;;;;;;;;;;;;206.4706872;207.5611029;207.5611029;207.5611029;207.5611029;207.5611029;207.5611029;207.5611029;207.5611029;None;0;;;C:\2023\REPSWITCH21092023\REPSWITCH_excgange\REPSWITCH_excgange\data/260201_REPSWITCH1_version2_list1_2023-12-04_14h44.55.523_micRespv2l1_recorded\recording_micRespv2l1_2023-12-04_14h48.17.989.wav;210.5823746;211.0824054;None;210.5823746;210.5823746;210.5823746;210.5823746;210.5823746;210.5823746;;;;;;260201;1;2023-12-04_14h44.55.523;REPSWITCH1_version2_list1;2022.2.4;144.0517435;
REPSWITCH1/PICTURE_552.png;manzana;speak;darkblue;nontarget;2;NT;2;1;1;2;Stim6_Set2;1;repeat;43;42;43;0;42;42;42;;;;;;;;;;;;;;;;;;;;;;;211.0824054;212.1589179;212.1589179;212.1589179;212.1589179;212.1589179;212.1589179;212.1589179;212.1589179;None;0;;;C:\2023\REPSWITCH21092023\REPSWITCH_excgange\REPSWITCH_excgange\data/260201_REPSWITCH1_version2_list1_2023-12-04_14h44.55.523_micRespv2l1_recorded\recording_micRespv2l1_2023-12-04_14h48.22.587.wav;215.1871035;;None;215.1871035;215.1871035;215.1871035;215.1871035;215.1871035;215.1871035;;;;;;260201;1;2023-12-04_14h44.55.523;REPSWITCH1_version2_list1;2022.2.4;144.0517435;
REPSWITCH1/PICTURE_552.png;manzana;speak;darkblue;repeat;2;T;2;1;1;2;Stim6_Set2;0;None;44;43;44;0;43;43;43;;;;;;;;;;;;;;;;;;;;;;;215.6871729;216.7220469;216.7220469;216.7220469;216.7220469;216.7220469;216.7220469;216.7220469;216.7220469;None;0;;;C:\2023\REPSWITCH21092023\REPSWITCH_excgange\REPSWITCH_excgange\data/260201_REPSWITCH1_version2_list1_2023-12-04_14h44.55.523_micRespv2l1_recorded\recording_micRespv2l1_2023-12-04_14h48.27.150.wav;219.7502125;;None;219.7502125;219.7502125;219.7502125;219.7502125;219.7502125;219.7502125;;;;;;260201;1;2023-12-04_14h44.55.523;REPSWITCH1_version2_list1;2022.2.4;144.0517435;
REPSWITCH1/PICTURE_16.png;cazador;type;gold;filler;1;F;2;1;1;2;Stim6_Set1;0;None;45;44;45;0;44;44;44;;;;;;;;;;;;;;;;;;;;;;;220.2502776;221.3129748;221.3129748;221.3129748;221.3129748;221.3129748;221.3129748;221.3129748;221.3129748;['c', 'a', 'z', 'a', 'd', 'o', 'r'];0;[1.1426509004086256, 1.262251800391823, 1.4807236003689468, 1.6374664003960788, 1.8577991002239287, 1.969416500069201, 2.0601203003898263];cazador;C:\2023\REPSWITCH21092023\REPSWITCH_excgange\REPSWITCH_excgange\data/260201_REPSWITCH1_version2_list1_2023-12-04_14h44.55.523_micRespv2l1_recorded\recording_micRespv2l1_2023-12-04_14h48.31.741.wav;224.3410686;;None;224.3410686;224.3410686;224.3410686;224.3410686;224.3410686;224.3410686;;;;;;260201;1;2023-12-04_14h44.55.523;REPSWITCH1_version2_list1;2022.2.4;144.0517435;
REPSWITCH1/PICTURE_446.png;cerdo;speak;darkblue;nontarget;2;NT;2;1;1;2;Stim7_Set2;1;switch;46;45;46;0;45;45;45;;;;;;;;;;;;;;;;;;;;;;;224.8412181;225.9872022;225.9872022;225.9872022;225.9872022;225.9872022;225.9872022;225.9872022;225.9872022;None;0;;;C:\2023\REPSWITCH21092023\REPSWITCH_excgange\REPSWITCH_excgange\data/260201_REPSWITCH1_version2_list1_2023-12-04_14h44.55.523_micRespv2l1_recorded\recording_micRespv2l1_2023-12-04_14h48.36.415.wav;229.0153901;;None;229.0153901;229.0153901;229.0153901;229.0153901;229.0153901;229.0153901;;;;;;260201;1;2023-12-04_14h44.55.523;REPSWITCH1_version2_list1;2022.2.4;144.0517435;
REPSWITCH1/PICTURE_446.png;cerdo;speak;darkblue;repeat;2;T;2;1;1;2;Stim7_Set2;0;None;47;46;47;0;46;46;46;;;;;;;;;;;;;;;;;;;;;;;229.5153647;230.5363376;230.5363376;230.5363376;230.5363376;230.5363376;230.5363376;230.5363376;230.5363376;None;0;;;C:\2023\REPSWITCH21092023\REPSWITCH_excgange\REPSWITCH_excgange\data/260201_REPSWITCH1_version2_list1_2023-12-04_14h44.55.523_micRespv2l1_recorded\recording_micRespv2l1_2023-12-04_14h48.40.964.wav;233.5645092;;None;233.5645092;233.5645092;233.5645092;233.5645092;233.5645092;233.5645092;;;;;;260201;1;2023-12-04_14h44.55.523;REPSWITCH1_version2_list1;2022.2.4;144.0517435;
REPSWITCH1/PICTURE_590.png;escoba;type;gold;filler;1;F;2;1;1;2;Extra3;0;None;48;47;48;0;47;47;47;;;;;;;;;;;;;;;;;;;;;;;234.064596;235.1411414;235.1411414;235.1411414;235.1411414;235.1411414;235.1411414;235.1411414;235.1411414;['e', 's', 'c', 'o', 'b', 'a'];0;[1.137014599982649, 1.34123450005427, 1.572483700234443, 1.704367300029844, 1.936601399909705, 2.0153308999724686];escoba;C:\2023\REPSWITCH21092023\REPSWITCH_excgange\REPSWITCH_excgange\data/260201_REPSWITCH1_version2_list1_2023-12-04_14h44.55.523_micRespv2l1_recorded\recording_micRespv2l1_2023-12-04_14h48.45.568.wav;238.1623569;238.6624583;None;238.1623569;238.1623569;238.1623569;238.1623569;238.1623569;238.1623569;;;;;;260201;1;2023-12-04_14h44.55.523;REPSWITCH1_version2_list1;2022.2.4;144.0517435;
REPSWITCH1/PICTURE_169.png;espalda;speak;darkblue;filler;2;F;2;1;1;2;Stim8_Set1;0;None;49;48;49;0;48;48;48;;;;;;;;;;;;;;;;;;;;;;;238.6624583;239.7667395;239.7667395;239.7667395;239.7667395;239.7667395;239.7667395;239.7667395;239.7667395;None;0;;;C:\2023\REPSWITCH21092023\REPSWITCH_excgange\REPSWITCH_excgange\data/260201_REPSWITCH1_version2_list1_2023-12-04_14h44.55.523_micRespv2l1_recorded\recording_micRespv2l1_2023-12-04_14h48.50.194.wav;242.7948792;;None;242.7948792;242.7948792;242.7948792;242.7948792;242.7948792;242.7948792;;;;;;260201;1;2023-12-04_14h44.55.523;REPSWITCH1_version2_list1;2022.2.4;144.0517435;
REPSWITCH1/PICTURE_199.png;falda;speak;darkblue;nontarget;2;NT;2;1;1;2;Stim8_Set2;1;repeat;50;49;50;0;49;49;49;;;;;;;;;;;;;;;;;;;;;;;243.2949915;244.4062234;244.4062234;244.4062234;244.4062234;244.4062234;244.4062234;244.4062234;244.4062234;None;0;;;C:\2023\REPSWITCH21092023\REPSWITCH_excgange\REPSWITCH_excgange\data/260201_REPSWITCH1_version2_list1_2023-12-04_14h44.55.523_micRespv2l1_recorded\recording_micRespv2l1_2023-12-04_14h48.54.833.wav;247.427456;247.9275102;None;247.427456;247.427456;247.427456;247.427456;247.427456;247.427456;;;;;;260201;1;2023-12-04_14h44.55.523;REPSWITCH1_version2_list1;2022.2.4;144.0517435;
REPSWITCH1/PICTURE_199.png;falda;type;gold;switch;1;T;2;1;1;2;Stim8_Set2;0;None;51;50;51;0;50;50;50;;;;;;;;;;;;;;;;;;;;;;;247.9275102;249.0249048;249.0249048;249.0249048;249.0249048;249.0249048;249.0249048;249.0249048;249.0249048;['f', 'a', 'l', 'a', 'd'];0;[1.2954818001016974, 1.5087468000128865, 1.6591831999830902, 1.8743997002020478, 1.8763668001629412];falad;C:\2023\REPSWITCH21092023\REPSWITCH_excgange\REPSWITCH_excgange\data/260201_REPSWITCH1_version2_list1_2023-12-04_14h44.55.523_micRespv2l1_recorded\recording_micRespv2l1_2023-12-04_14h48.59.453.wav;252.0530451;;space;252.0530451;252.0530451;252.0530451;252.0530451;252.0530451;252.0530451;252.5530962;252.5530962;6.9199129;;;260201;1;2023-12-04_14h44.55.523;REPSWITCH1_version2_list1;2022.2.4;144.0517435;
REPSWITCH1/PICTURE_576.png;guante;type;gold;nontarget;1;NT;3;1;1;2;Stim1_Set3;0;None;52;51;52;0;51;51;51;;;;;;;;;;;;;;;;;;;;;;;259.4846225;260.6097349;260.6097349;260.6097349;260.6097349;260.6097349;260.6097349;260.6097349;260.6097349;['g', 'u', 'a', 'n', 't', 'e'];0;[1.2428093003109097, 1.3655493003316224, 1.5369766000658274, 1.6479174001142383, 1.8791307001374662, 1.9193803002126515];guante;C:\2023\REPSWITCH21092023\REPSWITCH_excgange\REPSWITCH_excgange\data/260201_REPSWITCH1_version2_list1_2023-12-04_14h44.55.523_micRespv2l1_recorded\recording_micRespv2l1_2023-12-04_14h49.11.037.wav;263.6378977;;None;263.6378977;263.6378977;263.6378977;263.6378977;263.6378977;263.6378977;;;;;;260201;1;2023-12-04_14h44.55.523;REPSWITCH1_version2_list1;2022.2.4;144.0517435;
REPSWITCH1/PICTURE_576.png;guante;speak;darkblue;switch;2;T;3;1;1;2;Stim1_Set3;0;None;53;52;53;0;52;52;52;;;;;;;;;;;;;;;;;;;;;;;264.1379679;265.2076305;265.2076305;265.2076305;265.2076305;265.2076305;265.2076305;265.2076305;265.2076305;None;0;;;C:\2023\REPSWITCH21092023\REPSWITCH_excgange\REPSWITCH_excgange\data/260201_REPSWITCH1_version2_list1_2023-12-04_14h44.55.523_micRespv2l1_recorded\recording_micRespv2l1_2023-12-04_14h49.15.636.wav;268.2357544;;None;268.2357544;268.2357544;268.2357544;268.2357544;268.2357544;268.2357544;;;;;;260201;1;2023-12-04_14h44.55.523;REPSWITCH1_version2_list1;2022.2.4;144.0517435;
REPSWITCH1/PICTURE_646.png;tronco;speak;darkblue;filler;2;F;3;1;1;2;Extra4;0;None;54;53;54;0;53;53;53;;;;;;;;;;;;;;;;;;;;;;;268.7358178;269.8332654;269.8332654;269.8332654;269.8332654;269.8332654;269.8332654;269.8332654;269.8332654;None;0;;;C:\2023\REPSWITCH21092023\REPSWITCH_excgange\REPSWITCH_excgange\data/260201_REPSWITCH1_version2_list1_2023-12-04_14h44.55.523_micRespv2l1_recorded\recording_micRespv2l1_2023-12-04_14h49.20.261.wav;272.8613826;;None;272.8613826;272.8613826;272.8613826;272.8613826;272.8613826;272.8613826;;;;;;260201;1;2023-12-04_14h44.55.523;REPSWITCH1_version2_list1;2022.2.4;144.0517435;
REPSWITCH1/PICTURE_610.png;miel;speak;darkblue;nontarget;2;NT;3;1;1;2;Stim2_Set3;1;repeat;55;54;55;0;54;54;54;;;;;;;;;;;;;;;;;;;;;;;273.361503;274.3893231;274.3893231;274.3893231;274.3893231;274.3893231;274.3893231;274.3893231;274.3893231;None;0;;;C:\2023\REPSWITCH21092023\REPSWITCH_excgange\REPSWITCH_excgange\data/260201_REPSWITCH1_version2_list1_2023-12-04_14h44.55.523_micRespv2l1_recorded\recording_micRespv2l1_2023-12-04_14h49.24.817.wav;277.4105724;277.9107039;None;277.4105724;277.4105724;277.4105724;277.4105724;277.4105724;277.4105724;;;;;;260201;1;2023-12-04_14h44.55.523;REPSWITCH1_version2_list1;2022.2.4;144.0517435;
REPSWITCH1/PICTURE_610.png;miel;type;gold;switch;1;T;3;1;1;2;Stim2_Set3;0;None;56;55;56;0;55;55;55;;;;;;;;;;;;;;;;;;;;;;;277.9107039;278.9385478;278.9385478;278.9385478;278.9385478;278.9385478;278.9385478;278.9385478;278.9385478;['m', 'i', 'e', 'l'];0;[1.0540478001348674, 1.1655732998624444, 1.43177800020203, 2.0987285999581218];miel;C:\2023\REPSWITCH21092023\REPSWITCH_excgange\REPSWITCH_excgange\data/260201_REPSWITCH1_version2_list1_2023-12-04_14h44.55.523_micRespv2l1_recorded\recording_micRespv2l1_2023-12-04_14h49.29.366.wav;281.9597771;282.4598666;None;281.9597771;281.9597771;281.9597771;281.9597771;281.9597771;281.9597771;;;;;;260201;1;2023-12-04_14h44.55.523;REPSWITCH1_version2_list1;2022.2.4;144.0517435;
REPSWITCH1/PICTURE_175.png;pintor;type;gold;filler;1;F;3;1;1;2;Stim1_Set2;1;repeat;57;56;57;0;56;56;56;;;;;;;;;;;;;;;;;;;;;;;282.4598666;283.4877456;283.4877456;283.4877456;283.4877456;283.4877456;283.4877456;283.4877456;283.4877456;['p', 'i', 'n', 't', 'o', 'r'];0;[1.0826181997545063, 1.3313076999038458, 1.4897094001062214, 1.6282080998644233, 1.7448748000897467, 1.8265864998102188];pintor;C:\2023\REPSWITCH21092023\REPSWITCH_excgange\REPSWITCH_excgange\data/260201_REPSWITCH1_version2_list1_2023-12-04_14h44.55.523_micRespv2l1_recorded\recording_micRespv2l1_2023-12-04_14h49.33.916.wav;286.508953;287.0090294;None;286.508953;286.508953;286.508953;286.508953;286.508953;286.508953;;;;;;260201;1;2023-12-04_14h44.55.523;REPSWITCH1_version2_list1;2022.2.4;144.0517435;
REPSWITCH1/PICTURE_242.png;cartero;type;gold;nontarget;1;NT;3;1;1;2;Stim3_Set3;1;repeat;58;57;58;0;57;57;57;;;;;;;;;;;;;;;;;;;;;;;287.0090294;288.1758664;288.1758664;288.1758664;288.1758664;288.1758664;288.1758664;288.1758664;288.1758664;['c', 'a', 'r', 't', 'e', 'r', 'o'];0;[0.9271627999842167, 1.1178071997128427, 1.3320553000085056, 1.5534059996716678, 1.6450972999446094, 1.7836270998232067, 1.970969199668616];cartero;C:\2023\REPSWITCH21092023\REPSWITCH_excgange\REPSWITCH_excgange\data/260201_REPSWITCH1_version2_list1_2023-12-04_14h44.55.523_micRespv2l1_recorded\recording_micRespv2l1_2023-12-04_14h49.38.603.wav;291.1970693;291.6971668;None;291.1970693;291.1970693;291.1970693;291.1970693;291.1970693;291.1970693;;;;;;260201;1;2023-12-04_14h44.55.523;REPSWITCH1_version2_list1;2022.2.4;144.0517435;
REPSWITCH1/PICTURE_242.png;cartero;speak;darkblue;switch;2;T;3;1;1;2;Stim3_Set3;0;None;59;58;59;0;58;58;58;;;;;;;;;;;;;;;;;;;;;;;291.6971668;292.7112162;292.7112162;292.7112162;292.7112162;292.7112162;292.7112162;292.7112162;292.7112162;None;0;;;C:\2023\REPSWITCH21092023\REPSWITCH_excgange\REPSWITCH_excgange\data/260201_REPSWITCH1_version2_list1_2023-12-04_14h44.55.523_micRespv2l1_recorded\recording_micRespv2l1_2023-12-04_14h49.43.139.wav;295.7394075;;None;295.7394075;295.7394075;295.7394075;295.7394075;295.7394075;295.7394075;;;;;;260201;1;2023-12-04_14h44.55.523;REPSWITCH1_version2_list1;2022.2.4;144.0517435;
REPSWITCH1/PICTURE_152.png;caracol;speak;darkblue;filler;2;F;3;1;1;2;Stim2_Set2;0;None;60;59;60;0;59;59;59;;;;;;;;;;;;;;;;;;;;;;;296.2394299;297.3646364;297.3646364;297.3646364;297.3646364;297.3646364;297.3646364;297.3646364;297.3646364;None;0;;;C:\2023\REPSWITCH21092023\REPSWITCH_excgange\REPSWITCH_excgange\data/260201_REPSWITCH1_version2_list1_2023-12-04_14h44.55.523_micRespv2l1_recorded\recording_micRespv2l1_2023-12-04_14h49.47.792.wav;300.3927738;;None;300.3927738;300.3927738;300.3927738;300.3927738;300.3927738;300.3927738;;;;;;260201;1;2023-12-04_14h44.55.523;REPSWITCH1_version2_list1;2022.2.4;144.0517435;
REPSWITCH1/PICTURE_517.png;cuerda;type;gold;filler;1;F;3;1;1;2;Stim4_Set2;0;None;61;60;61;0;60;60;60;;;;;;;;;;;;;;;;;;;;;;;300.892822;302.045813;302.045813;302.045813;302.045813;302.045813;302.045813;302.045813;302.045813;['c', 'u', 'e', 'r', 'd', 'a'];0;[1.0167625001631677, 1.1845209999009967, 1.3010995001532137, 1.3785047000274062, 1.597163800150156, 1.8193950997665524];cuerda;C:\2023\REPSWITCH21092023\REPSWITCH_excgange\REPSWITCH_excgange\data/260201_REPSWITCH1_version2_list1_2023-12-04_14h44.55.523_micRespv2l1_recorded\recording_micRespv2l1_2023-12-04_14h49.52.473.wav;305.0669674;305.5670234;None;305.0669674;305.0669674;305.0669674;305.0669674;305.0669674;305.0669674;;;;;;260201;1;2023-12-04_14h44.55.523;REPSWITCH1_version2_list1;2022.2.4;144.0517435;
REPSWITCH1/PICTURE_235.png;aguja;speak;darkblue;nontarget;2;NT;3;1;1;2;Stim4_Set3;1;switch;62;61;62;0;61;61;61;;;;;;;;;;;;;;;;;;;;;;;305.5670234;306.6158654;306.6158654;306.6158654;306.6158654;306.6158654;306.6158654;306.6158654;306.6158654;None;0;;;C:\2023\REPSWITCH21092023\REPSWITCH_excgange\REPSWITCH_excgange\data/260201_REPSWITCH1_version2_list1_2023-12-04_14h44.55.523_micRespv2l1_recorded\recording_micRespv2l1_2023-12-04_14h49.57.044.wav;309.643949;;None;309.643949;309.643949;309.643949;309.643949;309.643949;309.643949;;;;;;260201;1;2023-12-04_14h44.55.523;REPSWITCH1_version2_list1;2022.2.4;144.0517435;
REPSWITCH1/PICTURE_235.png;aguja;speak;darkblue;repeat;2;T;3;1;1;2;Stim4_Set3;0;None;63;62;63;0;62;62;62;;;;;;;;;;;;;;;;;;;;;;;310.1440853;311.2066832;311.2066832;311.2066832;311.2066832;311.2066832;311.2066832;311.2066832;311.2066832;None;0;;;C:\2023\REPSWITCH21092023\REPSWITCH_excgange\REPSWITCH_excgange\data/260201_REPSWITCH1_version2_list1_2023-12-04_14h44.55.523_micRespv2l1_recorded\recording_micRespv2l1_2023-12-04_14h50.01.633.wav;314.2278869;314.7279507;None;314.2278869;314.2278869;314.2278869;314.2278869;314.2278869;314.2278869;;;;;;260201;1;2023-12-04_14h44.55.523;REPSWITCH1_version2_list1;2022.2.4;144.0517435;
REPSWITCH1/PICTURE_30.png;granja;type;gold;filler;1;F;3;1;1;2;Stim5_Set2;0;None;64;63;64;0;63;63;63;;;;;;;;;;;;;;;;;;;;;;;314.7279507;315.8600688;315.8600688;315.8600688;315.8600688;315.8600688;315.8600688;315.8600688;315.8600688;['g', 'r', 'a', 'n', 'j', 'a'];0;[1.080770400352776, 1.159328100271523, 1.4569435003213584, 1.5475685000419617, 1.720313400030136, 1.8322336999699473];granja;C:\2023\REPSWITCH21092023\REPSWITCH_excgange\REPSWITCH_excgange\data/260201_REPSWITCH1_version2_list1_2023-12-04_14h44.55.523_micRespv2l1_recorded\recording_micRespv2l1_2023-12-04_14h50.06.288.wav;318.8813614;319.3814407;None;318.8813614;318.8813614;318.8813614;318.8813614;318.8813614;318.8813614;;;;;;260201;1;2023-12-04_14h44.55.523;REPSWITCH1_version2_list1;2022.2.4;144.0517435;
REPSWITCH1/PICTURE_552.png;manzana;speak;darkblue;filler;2;F;3;1;1;2;Stim6_Set2;1;switch;65;64;65;0;64;64;64;;;;;;;;;;;;;;;;;;;;;;;319.3814407;320.4995816;320.4995816;320.4995816;320.4995816;320.4995816;320.4995816;320.4995816;320.4995816;None;0;;;C:\2023\REPSWITCH21092023\REPSWITCH_excgange\REPSWITCH_excgange\data/260201_REPSWITCH1_version2_list1_2023-12-04_14h44.55.523_micRespv2l1_recorded\recording_micRespv2l1_2023-12-04_14h50.10.927.wav;323.5208744;324.0208526;None;323.5208744;323.5208744;323.5208744;323.5208744;323.5208744;323.5208744;;;;;;260201;1;2023-12-04_14h44.55.523;REPSWITCH1_version2_list1;2022.2.4;144.0517435;
REPSWITCH1/PICTURE_35.png;oreja;speak;darkblue;nontarget;2;NT;3;1;1;2;Stim5_Set3;1;repeat;66;65;66;0;65;65;65;;;;;;;;;;;;;;;;;;;;;;;324.0208526;325.1252479;325.1252479;325.1252479;325.1252479;325.1252479;325.1252479;325.1252479;325.1252479;None;0;;;C:\2023\REPSWITCH21092023\REPSWITCH_excgange\REPSWITCH_excgange\data/260201_REPSWITCH1_version2_list1_2023-12-04_14h44.55.523_micRespv2l1_recorded\recording_micRespv2l1_2023-12-04_14h50.15.553.wav;328.1534213;;None;328.1534213;328.1534213;328.1534213;328.1534213;328.1534213;328.1534213;;;;;;260201;1;2023-12-04_14h44.55.523;REPSWITCH1_version2_list1;2022.2.4;144.0517435;
REPSWITCH1/PICTURE_35.png;oreja;speak;darkblue;repeat;2;T;3;1;1;2;Stim5_Set3;0;None;67;66;67;0;66;66;66;;;;;;;;;;;;;;;;;;;;;;;328.6534157;329.8202403;329.8202403;329.8202403;329.8202403;329.8202403;329.8202403;329.8202403;329.8202403;None;0;;;C:\2023\REPSWITCH21092023\REPSWITCH_excgange\REPSWITCH_excgange\data/260201_REPSWITCH1_version2_list1_2023-12-04_14h44.55.523_micRespv2l1_recorded\recording_micRespv2l1_2023-12-04_14h50.20.246.wav;332.8414764;333.3415322;None;332.8414764;332.8414764;332.8414764;332.8414764;332.8414764;332.8414764;;;;;;260201;1;2023-12-04_14h44.55.523;REPSWITCH1_version2_list1;2022.2.4;144.0517435;
REPSWITCH1/PICTURE_673.png;tenedor;type;gold;filler;1;F;3;1;1;2;Extra5;0;None;68;67;68;0;67;67;67;;;;;;;;;;;;;;;;;;;;;;;333.3415322;334.3763742;334.3763742;334.3763742;334.3763742;334.3763742;334.3763742;334.3763742;334.3763742;['t', 'e', 'n', 'e', 'd', 'o', 'r'];0;[1.1133996997959912, 1.3137193000875413, 1.4569795997813344, 1.5127885998226702, 1.8057718998752534, 1.91340889967978, 2.033846799749881];tenedor;C:\2023\REPSWITCH21092023\REPSWITCH_excgange\REPSWITCH_excgange\data/260201_REPSWITCH1_version2_list1_2023-12-04_14h44.55.523_micRespv2l1_recorded\recording_micRespv2l1_2023-12-04_14h50.24.803.wav;337.3975901;337.8976977;None;337.3975901;337.3975901;337.3975901;337.3975901;337.3975901;337.3975901;;;;;;260201;1;2023-12-04_14h44.55.523;REPSWITCH1_version2_list1;2022.2.4;144.0517435;
REPSWITCH1/PICTURE_464.png;goma;speak;darkblue;nontarget;2;NT;3;1;1;2;Stim6_Set3;0;None;69;68;69;0;68;68;68;;;;;;;;;;;;;;;;;;;;;;;337.8976977;338.9950779;338.9950779;338.9950779;338.9950779;338.9950779;338.9950779;338.9950779;338.9950779;['g', 'o', 'a', 'backspace', 'backspace', 'backspace'];0;[1.1090412000194192, 1.4016586001962423, 1.6219068001955748, 2.0863744001835585, 2.278885700274259, 2.5294111003167927];;C:\2023\REPSWITCH21092023\REPSWITCH_excgange\REPSWITCH_excgange\data/260201_REPSWITCH1_version2_list1_2023-12-04_14h44.55.523_micRespv2l1_recorded\recording_micRespv2l1_2023-12-04_14h50.29.422.wav;342.0162625;342.5163485;None;342.0162625;342.0162625;342.0162625;342.0162625;342.0162625;342.0162625;;;;;;260201;1;2023-12-04_14h44.55.523;REPSWITCH1_version2_list1;2022.2.4;144.0517435;
REPSWITCH1/PICTURE_464.png;goma;type;gold;switch;1;T;3;1;1;2;Stim6_Set3;0;None;70;69;70;0;69;69;69;;;;;;;;;;;;;;;;;;;;;;;342.5163485;343.5373408;343.5373408;343.5373408;343.5373408;343.5373408;343.5373408;343.5373408;343.5373408;['g', 'o', 'm', 'a'];0;[1.1212579002603889, 1.2298904000781476, 1.512953500263393, 1.66739990003407];goma;C:\2023\REPSWITCH21092023\REPSWITCH_excgange\REPSWITCH_excgange\data/260201_REPSWITCH1_version2_list1_2023-12-04_14h44.55.523_micRespv2l1_recorded\recording_micRespv2l1_2023-12-04_14h50.33.965.wav;346.558528;347.0586148;None;346.558528;346.558528;346.558528;346.558528;346.558528;346.558528;;;;;;260201;1;2023-12-04_14h44.55.523;REPSWITCH1_version2_list1;2022.2.4;144.0517435;
REPSWITCH1/PICTURE_264.png;mano;speak;darkblue;filler;2;F;3;1;1;2;Stim3_Set2;0;None;71;70;71;0;70;70;70;;;;;;;;;;;;;;;;;;;;;;;347.0586148;348.1351593;348.1351593;348.1351593;348.1351593;348.1351593;348.1351593;348.1351593;348.1351593;None;0;;;C:\2023\REPSWITCH21092023\REPSWITCH_excgange\REPSWITCH_excgange\data/260201_REPSWITCH1_version2_list1_2023-12-04_14h44.55.523_micRespv2l1_recorded\recording_micRespv2l1_2023-12-04_14h50.38.563.wav;351.1563834;351.6564458;None;351.1563834;351.1563834;351.1563834;351.1563834;351.1563834;351.1563834;;;;;;260201;1;2023-12-04_14h44.55.523;REPSWITCH1_version2_list1;2022.2.4;144.0517435;
REPSWITCH1/PICTURE_271.png;conejo;type;gold;nontarget;1;NT;3;1;1;2;Stim7_Set3;1;switch;72;71;72;0;71;71;71;;;;;;;;;;;;;;;;;;;;;;;351.6564458;352.7330304;352.7330304;352.7330304;352.7330304;352.7330304;352.7330304;352.7330304;352.7330304;['c', 'o', 'n', 'e', 'j', 'o'];0;[0.8865858996286988, 0.9507901999168098, 1.1168708996847272, 1.267498499713838, 1.3820817000232637, 1.4400851000100374];conejo;C:\2023\REPSWITCH21092023\REPSWITCH_excgange\REPSWITCH_excgange\data/260201_REPSWITCH1_version2_list1_2023-12-04_14h44.55.523_micRespv2l1_recorded\recording_micRespv2l1_2023-12-04_14h50.43.161.wav;355.7542206;356.2543412;None;355.7542206;355.7542206;355.7542206;355.7542206;355.7542206;355.7542206;;;;;;260201;1;2023-12-04_14h44.55.523;REPSWITCH1_version2_list1;2022.2.4;144.0517435;
REPSWITCH1/PICTURE_271.png;conejo;type;gold;repeat;1;T;3;1;1;2;Stim7_Set3;0;None;73;72;73;0;72;72;72;;;;;;;;;;;;;;;;;;;;;;;356.2543412;357.2753187;357.2753187;357.2753187;357.2753187;357.2753187;357.2753187;357.2753187;357.2753187;['c', 'o', 'n', 'e', 'j', 'o'];0;[1.069361099973321, 1.100240200292319, 1.352689000312239, 1.499672600068152, 1.5994282001629472, 1.7042404003441334];conejo;C:\2023\REPSWITCH21092023\REPSWITCH_excgange\REPSWITCH_excgange\data/260201_REPSWITCH1_version2_list1_2023-12-04_14h44.55.523_micRespv2l1_recorded\recording_micRespv2l1_2023-12-04_14h50.47.704.wav;360.3034128;;None;360.3034128;360.3034128;360.3034128;360.3034128;360.3034128;360.3034128;;;;;;260201;1;2023-12-04_14h44.55.523;REPSWITCH1_version2_list1;2022.2.4;144.0517435;
REPSWITCH1/PICTURE_446.png;cerdo;speak;darkblue;filler;2;F;3;1;1;2;Stim7_Set2;0;None;74;73;74;0;73;73;73;;;;;;;;;;;;;;;;;;;;;;;360.8034786;361.9216998;361.9216998;361.9216998;361.9216998;361.9216998;361.9216998;361.9216998;361.9216998;None;0;;;C:\2023\REPSWITCH21092023\REPSWITCH_excgange\REPSWITCH_excgange\data/260201_REPSWITCH1_version2_list1_2023-12-04_14h44.55.523_micRespv2l1_recorded\recording_micRespv2l1_2023-12-04_14h50.52.350.wav;364.9498155;;None;364.9498155;364.9498155;364.9498155;364.9498155;364.9498155;364.9498155;;;;;;260201;1;2023-12-04_14h44.55.523;REPSWITCH1_version2_list1;2022.2.4;144.0517435;
REPSWITCH1/PICTURE_199.png;falda;type;gold;filler;1;F;3;1;1;2;Stim8_Set2;1;switch;75;74;75;0;74;74;74;;;;;;;;;;;;;;;;;;;;;;;365.4498969;366.5195327;366.5195327;366.5195327;366.5195327;366.5195327;366.5195327;366.5195327;366.5195327;['f', 'a', 'l', 'd', 'a'];0;[1.1683793999254704, 1.4135342999361455, 1.4995404002256691, 1.6520165000110865, 1.730750999879092];falda;C:\2023\REPSWITCH21092023\REPSWITCH_excgange\REPSWITCH_excgange\data/260201_REPSWITCH1_version2_list1_2023-12-04_14h44.55.523_micRespv2l1_recorded\recording_micRespv2l1_2023-12-04_14h50.56.947.wav;369.5408153;370.0408037;None;369.5408153;369.5408153;369.5408153;369.5408153;369.5408153;369.5408153;;;;;;260201;1;2023-12-04_14h44.55.523;REPSWITCH1_version2_list1;2022.2.4;144.0517435;
REPSWITCH1/PICTURE_320.png;iglesia;type;gold;nontarget;1;NT;3;1;1;2;Stim8_Set3;1;repeat;76;75;76;0;75;75;75;;;;;;;;;;;;;;;;;;;;;;;370.0408037;371.1520499;371.1520499;371.1520499;371.1520499;371.1520499;371.1520499;371.1520499;371.1520499;['i', 'g', 'e', 'backspace', 'l', 's'];0;[1.2068997998721898, 1.3693602997809649, 1.6000160998664796, 2.088254699949175, 2.3543503996916115, 2.5102085997350514];igls;C:\2023\REPSWITCH21092023\REPSWITCH_excgange\REPSWITCH_excgange\data/260201_REPSWITCH1_version2_list1_2023-12-04_14h44.55.523_micRespv2l1_recorded\recording_micRespv2l1_2023-12-04_14h51.01.581.wav;374.1802537;;None;374.1802537;374.1802537;374.1802537;374.1802537;374.1802537;374.1802537;;;;;;260201;1;2023-12-04_14h44.55.523;REPSWITCH1_version2_list1;2022.2.4;144.0517435;
REPSWITCH1/PICTURE_320.png;iglesia;type;gold;repeat;1;T;3;1;1;2;Stim8_Set3;0;None;77;76;77;0;76;76;76;;;;;;;;;;;;;;;;;;;;;;;374.6802712;375.8887821;375.8887821;375.8887821;375.8887821;375.8887821;375.8887821;375.8887821;375.8887821;['i', 'g', 'l', 'e', 's'];0;[1.704088999889791, 1.867515899706632, 2.0017045000568032, 2.755768799688667, 2.948394499719143];igles;C:\2023\REPSWITCH21092023\REPSWITCH_excgange\REPSWITCH_excgange\data/260201_REPSWITCH1_version2_list1_2023-12-04_14h44.55.523_micRespv2l1_recorded\recording_micRespv2l1_2023-12-04_14h51.06.317.wav;378.9169528;;None;378.9169528;378.9169528;378.9169528;378.9169528;378.9169528;378.9169528;;;;;;260201;1;2023-12-04_14h44.55.523;REPSWITCH1_version2_list1;2022.2.4;144.0517435;
REPSWITCH1/PICTURE_576.png;guante;speak;darkblue;filler;2;F;4;1;1;2;Stim1_Set3;0;None;78;77;78;0;77;77;77;;;;;;;;;;;;;;;;;;;;;;;379.4170101;380.5907859;380.5907859;380.5907859;380.5907859;380.5907859;380.5907859;380.5907859;380.5907859;None;0;;;C:\2023\REPSWITCH21092023\REPSWITCH_excgange\REPSWITCH_excgange\data/260201_REPSWITCH1_version2_list1_2023-12-04_14h44.55.523_micRespv2l1_recorded\recording_micRespv2l1_2023-12-04_14h51.11.019.wav;383.6190213;;None;383.6190213;383.6190213;383.6190213;383.6190213;383.6190213;383.6190213;;;;;;260201;1;2023-12-04_14h44.55.523;REPSWITCH1_version2_list1;2022.2.4;144.0517435;
REPSWITCH1/PICTURE_319.png;vaca;type;gold;nontarget;1;NT;4;1;1;2;Stim1_Set4;1;switch;79;78;79;0;78;78;78;;;;;;;;;;;;;;;;;;;;;;;384.1190554;385.244176;385.244176;385.244176;385.244176;385.244176;385.244176;385.244176;385.244176;['v', 'a', 'c', 'a'];0;[1.4260688000358641, 1.5291854999959469, 1.6607280001044273, 1.7544109001755714];vaca;C:\2023\REPSWITCH21092023\REPSWITCH_excgange\REPSWITCH_excgange\data/260201_REPSWITCH1_version2_list1_2023-12-04_14h44.55.523_micRespv2l1_recorded\recording_micRespv2l1_2023-12-04_14h51.15.672.wav;388.2654401;388.7654875;None;388.2654401;388.2654401;388.2654401;388.2654401;388.2654401;388.2654401;;;;;;260201;1;2023-12-04_14h44.55.523;REPSWITCH1_version2_list1;2022.2.4;144.0517435;
REPSWITCH1/PICTURE_319.png;vaca;type;gold;repeat;1;T;4;1;1;2;Stim1_Set4;0;None;80;79;80;0;79;79;79;;;;;;;;;;;;;;;;;;;;;;;388.7654875;389.862875;389.862875;389.862875;389.862875;389.862875;389.862875;389.862875;389.862875;['v', 'a', 'c', 'a'];0;[1.0841526999138296, 1.2037521000020206, 1.3224216997623444, 1.4289663000963628];vaca;C:\2023\REPSWITCH21092023\REPSWITCH_excgange\REPSWITCH_excgange\data/260201_REPSWITCH1_version2_list1_2023-12-04_14h44.55.523_micRespv2l1_recorded\recording_micRespv2l1_2023-12-04_14h51.20.290.wav;392.8840942;393.3841508;None;392.8840942;392.8840942;392.8840942;392.8840942;392.8840942;392.8840942;;;;;;260201;1;2023-12-04_14h44.55.523;REPSWITCH1_version2_list1;2022.2.4;144.0517435;
REPSWITCH1/PICTURE_719.png;baño;type;gold;nontarget;1;NT;4;1;1;2;Stim2_Set4;0;None;81;80;81;0;80;80;80;;;;;;;;;;;;;;;;;;;;;;;393.3841508;394.4954718;394.4954718;394.4954718;394.4954718;394.4954718;394.4954718;394.4954718;394.4954718;['b', 'a', 'ñ', 'o'];0;[1.0877562002278864, 1.2942512002773583, 1.5435315002687275, 1.6292775999754667];baño;C:\2023\REPSWITCH21092023\REPSWITCH_excgange\REPSWITCH_excgange\data/260201_REPSWITCH1_version2_list1_2023-12-04_14h44.55.523_micRespv2l1_recorded\recording_micRespv2l1_2023-12-04_14h51.24.923.wav;397.5235833;;None;397.5235833;397.5235833;397.5235833;397.5235833;397.5235833;397.5235833;;;;;;260201;1;2023-12-04_14h44.55.523;REPSWITCH1_version2_list1;2022.2.4;144.0517435;
REPSWITCH1/PICTURE_719.png;baño;speak;darkblue;switch;2;T;4;1;1;2;Stim2_Set4;0;None;82;81;82;0;81;81;81;;;;;;;;;;;;;;;;;;;;;;;398.0236504;399.1488217;399.1488217;399.1488217;399.1488217;399.1488217;399.1488217;399.1488217;399.1488217;None;0;;;C:\2023\REPSWITCH21092023\REPSWITCH_excgange\REPSWITCH_excgange\data/260201_REPSWITCH1_version2_list1_2023-12-04_14h44.55.523_micRespv2l1_recorded\recording_micRespv2l1_2023-12-04_14h51.29.576.wav;402.1769436;;None;402.1769436;402.1769436;402.1769436;402.1769436;402.1769436;402.1769436;;;;;;260201;1;2023-12-04_14h44.55.523;REPSWITCH1_version2_list1;2022.2.4;144.0517435;
REPSWITCH1/PICTURE_242.png;cartero;speak;darkblue;filler;2;F;4;1;1;2;Stim3_Set3;1;repeat;83;82;83;0;82;82;82;;;;;;;;;;;;;;;;;;;;;;;402.6770155;403.7327468;403.7327468;403.7327468;403.7327468;403.7327468;403.7327468;403.7327468;403.7327468;None;0;;;C:\2023\REPSWITCH21092023\REPSWITCH_excgange\REPSWITCH_excgange\data/260201_REPSWITCH1_version2_list1_2023-12-04_14h44.55.523_micRespv2l1_recorded\recording_micRespv2l1_2023-12-04_14h51.34.161.wav;406.7609516;;None;406.7609516;406.7609516;406.7609516;406.7609516;406.7609516;406.7609516;;;;;;260201;1;2023-12-04_14h44.55.523;REPSWITCH1_version2_list1;2022.2.4;144.0517435;
REPSWITCH1/PICTURE_610.png;miel;type;gold;filler;1;F;4;1;1;2;Stim2_Set3;0;None;84;83;84;0;83;83;83;;;;;;;;;;;;;;;;;;;;;;;407.26096;408.3445213;408.3445213;408.3445213;408.3445213;408.3445213;408.3445213;408.3445213;408.3445213;['m', 'i', 'e', 'l'];0;[0.9126528999768198, 1.0232432000339031, 1.2256796001456678, 1.3402574001811445];miel;C:\2023\REPSWITCH21092023\REPSWITCH_excgange\REPSWITCH_excgange\data/260201_REPSWITCH1_version2_list1_2023-12-04_14h44.55.523_micRespv2l1_recorded\recording_micRespv2l1_2023-12-04_14h51.38.772.wav;411.3726354;;None;411.3726354;411.3726354;411.3726354;411.3726354;411.3726354;411.3726354;;;;;;260201;1;2023-12-04_14h44.55.523;REPSWITCH1_version2_list1;2022.2.4;144.0517435;
REPSWITCH1/PICTURE_8.png;pierna;speak;darkblue;nontarget;2;NT;4;1;1;2;Stim3_Set4;1;switch;85;84;85;0;84;84;84;;;;;;;;;;;;;;;;;;;;;;;411.8726968;413.0464572;413.0464572;413.0464572;413.0464572;413.0464572;413.0464572;413.0464572;413.0464572;None;0;;;C:\2023\REPSWITCH21092023\REPSWITCH_excgange\REPSWITCH_excgange\data/260201_REPSWITCH1_version2_list1_2023-12-04_14h44.55.523_micRespv2l1_recorded\recording_micRespv2l1_2023-12-04_14h51.43.474.wav;416.0677603;416.5677578;None;416.0677603;416.0677603;416.0677603;416.0677603;416.0677603;416.0677603;;;;;;260201;1;2023-12-04_14h44.55.523;REPSWITCH1_version2_list1;2022.2.4;144.0517435;
REPSWITCH1/PICTURE_8.png;pierna;speak;darkblue;repeat;2;T;4;1;1;2;Stim3_Set4;0;None;86;85;86;0;85;85;85;;;;;;;;;;;;;;;;;;;;;;;416.5677578;417.6512155;417.6512155;417.6512155;417.6512155;417.6512155;417.6512155;417.6512155;417.6512155;None;0;;;C:\2023\REPSWITCH21092023\REPSWITCH_excgange\REPSWITCH_excgange\data/260201_REPSWITCH1_version2_list1_2023-12-04_14h44.55.523_micRespv2l1_recorded\recording_micRespv2l1_2023-12-04_14h51.48.079.wav;420.6724286;421.1725953;None;420.6724286;420.6724286;420.6724286;420.6724286;420.6724286;420.6724286;;;;;;260201;1;2023-12-04_14h44.55.523;REPSWITCH1_version2_list1;2022.2.4;144.0517435;
REPSWITCH1/PICTURE_498.png;taza;speak;darkblue;nontarget;2;NT;4;1;1;2;Stim4_Set4;1;repeat;87;86;87;0;86;86;86;;;;;;;;;;;;;;;;;;;;;;;421.1725953;422.2282139;422.2282139;422.2282139;422.2282139;422.2282139;422.2282139;422.2282139;422.2282139;None;0;;;C:\2023\REPSWITCH21092023\REPSWITCH_excgange\REPSWITCH_excgange\data/260201_REPSWITCH1_version2_list1_2023-12-04_14h44.55.523_micRespv2l1_recorded\recording_micRespv2l1_2023-12-04_14h51.52.656.wav;425.2563703;;None;425.2563703;425.2563703;425.2563703;425.2563703;425.2563703;425.2563703;;;;;;260201;1;2023-12-04_14h44.55.523;REPSWITCH1_version2_list1;2022.2.4;144.0517435;
REPSWITCH1/PICTURE_498.png;taza;type;gold;switch;1;T;4;1;1;2;Stim4_Set4;0;None;88;87;88;0;87;87;87;;;;;;;;;;;;;;;;;;;;;;;425.7564706;426.7982572;426.7982572;426.7982572;426.7982572;426.7982572;426.7982572;426.7982572;426.7982572;['t', 'a', 'z', 'a'];0;[1.1176701001822948, 1.2940982999280095, 1.4696843000128865, 1.6192180998623371];taza;C:\2023\REPSWITCH21092023\REPSWITCH_excgange\REPSWITCH_excgange\data/260201_REPSWITCH1_version2_list1_2023-12-04_14h44.55.523_micRespv2l1_recorded\recording_micRespv2l1_2023-12-04_14h51.57.226.wav;429.8194639;430.3195713;None;429.8194639;429.8194639;429.8194639;429.8194639;429.8194639;429.8194639;;;;;;260201;1;2023-12-04_14h44.55.523;REPSWITCH1_version2_list1;2022.2.4;144.0517435;
REPSWITCH1/PICTURE_235.png;aguja;speak;darkblue;filler;2;F;4;1;1;2;Stim4_Set3;0;None;89;88;89;0;88;88;88;;;;;;;;;;;;;;;;;;;;;;;430.3195713;431.4099901;431.4099901;431.4099901;431.4099901;431.4099901;431.4099901;431.4099901;431.4099901;None;0;;;C:\2023\REPSWITCH21092023\REPSWITCH_excgange\REPSWITCH_excgange\data/260201_REPSWITCH1_version2_list1_2023-12-04_14h44.55.523_micRespv2l1_recorded\recording_micRespv2l1_2023-12-04_14h52.01.837.wav;434.4312816;434.931279;None;434.4312816;434.4312816;434.4312816;434.4312816;434.4312816;434.4312816;;;;;;260201;1;2023-12-04_14h44.55.523;REPSWITCH1_version2_list1;2022.2.4;144.0517435;
REPSWITCH1/PICTURE_35.png;oreja;type;gold;filler;1;F;4;1;1;2;Stim5_Set3;0;None;90;89;90;0;89;89;89;;;;;;;;;;;;;;;;;;;;;;;434.931279;436.0147566;436.0147566;436.0147566;436.0147566;436.0147566;436.0147566;436.0147566;436.0147566;['o', 'r', 'e', 'j', 'a'];0;[1.5584447998553514, 1.6932936999946833, 1.8081902000121772, 1.9367066002450883, 2.1071383003145456];oreja;C:\2023\REPSWITCH21092023\REPSWITCH_excgange\REPSWITCH_excgange\data/260201_REPSWITCH1_version2_list1_2023-12-04_14h44.55.523_micRespv2l1_recorded\recording_micRespv2l1_2023-12-04_14h52.06.442.wav;439.0359662;439.5360298;None;439.0359662;439.0359662;439.0359662;439.0359662;439.0359662;439.0359662;;;;;;260201;1;2023-12-04_14h44.55.523;REPSWITCH1_version2_list1;2022.2.4;144.0517435;
REPSWITCH1/PICTURE_687.png;camisa;type;gold;nontarget;1;NT;4;1;1;2;Stim5_Set4;1;repeat;91;90;91;0;90;90;90;;;;;;;;;;;;;;;;;;;;;;;439.5360298;440.6682019;440.6682019;440.6682019;440.6682019;440.6682019;440.6682019;440.6682019;440.6682019;['c', 'a', 'm', 'i', 's', 'a'];0;[1.1335106999613345, 1.36893119988963, 1.4207884999923408, 1.5224649999290705, 1.6420726999640465, 1.7217505001462996];camisa;C:\2023\REPSWITCH21092023\REPSWITCH_excgange\REPSWITCH_excgange\data/260201_REPSWITCH1_version2_list1_2023-12-04_14h44.55.523_micRespv2l1_recorded\recording_micRespv2l1_2023-12-04_14h52.11.097.wav;443.6963096;;None;443.6963096;443.6963096;443.6963096;443.6963096;443.6963096;443.6963096;;;;;;260201;1;2023-12-04_14h44.55.523;REPSWITCH1_version2_list1;2022.2.4;144.0517435;
REPSWITCH1/PICTURE_687.png;camisa;speak;darkblue;switch;2;T;4;1;1;2;Stim5_Set4;0;None;92;91;92;0;91;91;91;;;;;;;;;;;;;;;;;;;;;;;444.1963914;445.3354947;445.3354947;445.3354947;445.3354947;445.3354947;445.3354947;445.3354947;445.3354947;None;0;;;C:\2023\REPSWITCH21092023\REPSWITCH_excgange\REPSWITCH_excgange\data/260201_REPSWITCH1_version2_list1_2023-12-04_14h44.55.523_micRespv2l1_recorded\recording_micRespv2l1_2023-12-04_14h52.15.764.wav;448.3636017;;None;448.3636017;448.3636017;448.3636017;448.3636017;448.3636017;448.3636017;;;;;;260201;1;2023-12-04_14h44.55.523;REPSWITCH1_version2_list1;2022.2.4;144.0517435;
REPSWITCH1/PICTURE_338.png;regalo;speak;darkblue;nontarget;2;NT;4;1;1;2;Stim6_Set4;0;None;93;92;93;0;92;92;92;;;;;;;;;;;;;;;;;;;;;;;448.8637407;450.1138471;450.1138471;450.1138471;450.1138471;450.1138471;450.1138471;450.1138471;450.1138471;None;0;;;C:\2023\REPSWITCH21092023\REPSWITCH_excgange\REPSWITCH_excgange\data/260201_REPSWITCH1_version2_list1_2023-12-04_14h44.55.523_micRespv2l1_recorded\recording_micRespv2l1_2023-12-04_14h52.20.541.wav;453.1420514;;None;453.1420514;453.1420514;453.1420514;453.1420514;453.1420514;453.1420514;;;;;;260201;1;2023-12-04_14h44.55.523;REPSWITCH1_version2_list1;2022.2.4;144.0517435;
REPSWITCH1/PICTURE_338.png;regalo;speak;darkblue;repeat;2;T;4;1;1;2;Stim6_Set4;0;None;94;93;94;0;93;93;93;;;;;;;;;;;;;;;;;;;;;;;453.6420778;454.7325081;454.7325081;454.7325081;454.7325081;454.7325081;454.7325081;454.7325081;454.7325081;None;0;;;C:\2023\REPSWITCH21092023\REPSWITCH_excgange\REPSWITCH_excgange\data/260201_REPSWITCH1_version2_list1_2023-12-04_14h44.55.523_micRespv2l1_recorded\recording_micRespv2l1_2023-12-04_14h52.25.161.wav;457.7606695;;None;457.7606695;457.7606695;457.7606695;457.7606695;457.7606695;457.7606695;;;;;;260201;1;2023-12-04_14h44.55.523;REPSWITCH1_version2_list1;2022.2.4;144.0517435;
REPSWITCH1/PICTURE_663.png;columna;type;gold;filler;1;F;4;1;1;2;Extra6;0;None;95;94;95;0;94;94;94;;;;;;;;;;;;;;;;;;;;;;;458.2608088;459.392823;459.392823;459.392823;459.392823;459.392823;459.392823;459.392823;459.392823;['c', 'o', 'l', 'u', 'm', 'n', 'a'];0;[0.8822242002934217, 0.9817095003090799, 1.1759708002209663, 1.400594100356102, 1.6071085999719799, 1.7913983999751508, 1.8756758999079466];columna;C:\2023\REPSWITCH21092023\REPSWITCH_excgange\REPSWITCH_excgange\data/260201_REPSWITCH1_version2_list1_2023-12-04_14h44.55.523_micRespv2l1_recorded\recording_micRespv2l1_2023-12-04_14h52.29.820.wav;462.4140588;462.9141795;None;462.4140588;462.4140588;462.4140588;462.4140588;462.4140588;462.4140588;;;;;;260201;1;2023-12-04_14h44.55.523;REPSWITCH1_version2_list1;2022.2.4;144.0517435;
REPSWITCH1/PICTURE_271.png;conejo;speak;darkblue;filler;2;F;4;1;1;2;Stim7_Set3;0;None;96;95;96;0;95;95;95;;;;;;;;;;;;;;;;;;;;;;;462.9141795;464.0462804;464.0462804;464.0462804;464.0462804;464.0462804;464.0462804;464.0462804;464.0462804;None;0;;;C:\2023\REPSWITCH21092023\REPSWITCH_excgange\REPSWITCH_excgange\data/260201_REPSWITCH1_version2_list1_2023-12-04_14h44.55.523_micRespv2l1_recorded\recording_micRespv2l1_2023-12-04_14h52.34.474.wav;467.0744068;;None;467.0744068;467.0744068;467.0744068;467.0744068;467.0744068;467.0744068;;;;;;260201;1;2023-12-04_14h44.55.523;REPSWITCH1_version2_list1;2022.2.4;144.0517435;
REPSWITCH1/PICTURE_48.png;bombero;speak;darkblue;nontarget;2;NT;4;1;1;2;Stim7_Set4;0;None;97;96;97;0;96;96;96;;;;;;;;;;;;;;;;;;;;;;;467.5744707;468.6301468;468.6301468;468.6301468;468.6301468;468.6301468;468.6301468;468.6301468;468.6301468;None;0;;;C:\2023\REPSWITCH21092023\REPSWITCH_excgange\REPSWITCH_excgange\data/260201_REPSWITCH1_version2_list1_2023-12-04_14h44.55.523_micRespv2l1_recorded\recording_micRespv2l1_2023-12-04_14h52.39.058.wav;471.6583245;472.1584706;None;471.6583245;471.6583245;471.6583245;471.6583245;471.6583245;471.6583245;;;;;;260201;1;2023-12-04_14h44.55.523;REPSWITCH1_version2_list1;2022.2.4;144.0517435;
REPSWITCH1/PICTURE_48.png;bombero;type;gold;switch;1;T;4;1;1;2;Stim7_Set4;0;None;98;97;98;0;97;97;97;;;;;;;;;;;;;;;;;;;;;;;472.1584706;473.2001919;473.2001919;473.2001919;473.2001919;473.2001919;473.2001919;473.2001919;473.2001919;['b', 'o', 'm', 'b', 'e', 'r', 'o'];0;[1.2763682003133, 1.5315422001294792, 1.6292531001381576, 1.9931215001270175, 2.1286706998944283, 2.187397399917245, 2.326056499965489];bombero;C:\2023\REPSWITCH21092023\REPSWITCH_excgange\REPSWITCH_excgange\data/260201_REPSWITCH1_version2_list1_2023-12-04_14h44.55.523_micRespv2l1_recorded\recording_micRespv2l1_2023-12-04_14h52.43.628.wav;476.2214406;476.7215057;None;476.2214406;476.2214406;476.2214406;476.2214406;476.2214406;476.2214406;;;;;;260201;1;2023-12-04_14h44.55.523;REPSWITCH1_version2_list1;2022.2.4;144.0517435;
REPSWITCH1/PICTURE_728.png;pulpo;type;gold;nontarget;1;NT;4;1;1;2;Stim8_Set4;0;None;99;98;99;0;98;98;98;;;;;;;;;;;;;;;;;;;;;;;476.7215057;477.8674635;477.8674635;477.8674635;477.8674635;477.8674635;477.8674635;477.8674635;477.8674635;['p', 'u', 'l', 'p', 'o'];0;[0.9173324997536838, 1.1702506998553872, 1.728852499742061, 1.9819942996837199, 2.060732000041753];pulpo;C:\2023\REPSWITCH21092023\REPSWITCH_excgange\REPSWITCH_excgange\data/260201_REPSWITCH1_version2_list1_2023-12-04_14h44.55.523_micRespv2l1_recorded\recording_micRespv2l1_2023-12-04_14h52.48.295.wav;480.8886988;481.388764;None;480.8886988;480.8886988;480.8886988;480.8886988;480.8886988;480.8886988;;;;;;260201;1;2023-12-04_14h44.55.523;REPSWITCH1_version2_list1;2022.2.4;144.0517435;
REPSWITCH1/PICTURE_728.png;pulpo;type;gold;repeat;1;T;4;1;1;2;Stim8_Set4;0;None;100;99;100;0;99;99;99;;;;;;;;;;;;;;;;;;;;;;;481.388764;482.4791905;482.4791905;482.4791905;482.4791905;482.4791905;482.4791905;482.4791905;482.4791905;['p', 'u', 'l', 'o', 'p', 'o'];0;[0.833001300226897, 1.199732200242579, 1.4728482002392411, 1.629326700232923, 1.8005425003357232, 1.881680500227958];pulopo;C:\2023\REPSWITCH21092023\REPSWITCH_excgange\REPSWITCH_excgange\data/260201_REPSWITCH1_version2_list1_2023-12-04_14h44.55.523_micRespv2l1_recorded\recording_micRespv2l1_2023-12-04_14h52.52.907.wav;485.5073773;;None;485.5073773;485.5073773;485.5073773;485.5073773;485.5073773;485.5073773;;;;;;260201;1;2023-12-04_14h44.55.523;REPSWITCH1_version2_list1;2022.2.4;144.0517435;
REPSWITCH1/PICTURE_320.png;iglesia;speak;darkblue;filler;1;F;4;1;1;2;Stim8_Set3;0;None;101;100;101;0;100;100;100;;;;;;;;;;;;;;;;;;;;;;;486.0075192;487.1256991;487.1256991;487.1256991;487.1256991;487.1256991;487.1256991;487.1256991;487.1256991;None;0;;;C:\2023\REPSWITCH21092023\REPSWITCH_excgange\REPSWITCH_excgange\data/260201_REPSWITCH1_version2_list1_2023-12-04_14h44.55.523_micRespv2l1_recorded\recording_micRespv2l1_2023-12-04_14h52.57.553.wav;490.1468917;490.6469061;None;490.1468917;490.1468917;490.1468917;490.1468917;490.1468917;490.1468917;;;;;;260201;1;2023-12-04_14h44.55.523;REPSWITCH1_version2_list1;2022.2.4;144.0517435;
REPSWITCH1/PICTURE_464.png;goma;type;gold;filler;1;F;4;1;1;2;Stim6_Set3;0;None;102;101;102;0;101;101;101;;;;;;;;;;;;;;;;;;;;;;;490.6469061;491.792997;491.792997;491.792997;491.792997;491.792997;491.792997;491.792997;491.792997;['g', 'o', 'm', 'a'];0;[1.0936942002736032, 1.3200198002159595, 1.5044487998820841, 1.683157800231129];goma;C:\2023\REPSWITCH21092023\REPSWITCH_excgange\REPSWITCH_excgange\data/260201_REPSWITCH1_version2_list1_2023-12-04_14h44.55.523_micRespv2l1_recorded\recording_micRespv2l1_2023-12-04_14h53.02.220.wav;494.8141522;495.3142216;space;494.8141522;494.8141522;494.8141522;494.8141522;494.8141522;494.8141522;495.3142216;495.3142216;3.6515862;;;260201;1;2023-12-04_14h44.55.523;REPSWITCH1_version2_list1;2022.2.4;144.0517435;
REPSWITCH1/PICTURE_663.png;columna;type;gold;filler;1;F;1;2;1;2;Extra6;0;None;103;102;1;0;102;102;102;;;;;;;;;;;;;;;;;;;;;;;498.9744296;500.1482219;500.1482219;500.1482219;500.1482219;500.1482219;500.1482219;500.1482219;500.1482219;['c', 'o', 'l', 'u', 'm', 'n', 'a'];0;[1.3080088999122381, 1.4096530000679195, 1.5909686000086367, 1.8262160001322627, 2.037504800129682, 2.2038227999582887, 2.297559699974954];columna;C:\2023\REPSWITCH21092023\REPSWITCH_excgange\REPSWITCH_excgange\data/260201_REPSWITCH1_version2_list1_2023-12-04_14h44.55.523_micRespv2l1_recorded\recording_micRespv2l1_2023-12-04_14h53.10.575.wav;503.1693979;503.6694856;None;503.1693979;503.1693979;503.1693979;503.1693979;503.1693979;503.1693979;;;;;;260201;1;2023-12-04_14h44.55.523;REPSWITCH1_version2_list1;2022.2.4;144.0517435;
REPSWITCH1/PICTURE_128.png;muñeca;speak;darkblue;nontarget;2;NT;1;2;1;2;Stim4_Set1;1;switch;104;103;2;0;103;103;103;;;;;;;;;;;;;;;;;;;;;;;503.6694856;504.7252591;504.7252591;504.7252591;504.7252591;504.7252591;504.7252591;504.7252591;504.7252591;None;0;;;C:\2023\REPSWITCH21092023\REPSWITCH_excgange\REPSWITCH_excgange\data/260201_REPSWITCH1_version2_list1_2023-12-04_14h44.55.523_micRespv2l1_recorded\recording_micRespv2l1_2023-12-04_14h53.15.153.wav;507.7464173;508.2464691;None;507.7464173;507.7464173;507.7464173;507.7464173;507.7464173;507.7464173;;;;;;260201;1;2023-12-04_14h44.55.523;REPSWITCH1_version2_list1;2022.2.4;144.0517435;
REPSWITCH1/PICTURE_128.png;muñeca;speak;darkblue;repeat;2;T;1;2;1;2;Stim4_Set1;0;None;105;104;3;0;104;104;104;;;;;;;;;;;;;;;;;;;;;;;508.2464691;509.3160726;509.3160726;509.3160726;509.3160726;509.3160726;509.3160726;509.3160726;509.3160726;None;0;;;C:\2023\REPSWITCH21092023\REPSWITCH_excgange\REPSWITCH_excgange\data/260201_REPSWITCH1_version2_list1_2023-12-04_14h44.55.523_micRespv2l1_recorded\recording_micRespv2l1_2023-12-04_14h53.19.743.wav;512.3372859;512.8373372;None;512.3372859;512.3372859;512.3372859;512.3372859;512.3372859;512.3372859;;;;;;260201;1;2023-12-04_14h44.55.523;REPSWITCH1_version2_list1;2022.2.4;144.0517435;
REPSWITCH1/PICTURE_8.png;pierna;type;gold;filler;1;F;1;2;1;2;Stim3_Set4;0;None;106;105;4;0;105;105;105;;;;;;;;;;;;;;;;;;;;;;;512.8373372;513.8722019;513.8722019;513.8722019;513.8722019;513.8722019;513.8722019;513.8722019;513.8722019;['p', 'i', 'e', 'r', 'n', 'a'];0;[1.0953609999269247, 1.3052834998816252, 1.453773200046271, 1.497634300030768, 1.6491199000738561, 1.7786928000859916];pierna;C:\2023\REPSWITCH21092023\REPSWITCH_excgange\REPSWITCH_excgange\data/260201_REPSWITCH1_version2_list1_2023-12-04_14h44.55.523_micRespv2l1_recorded\recording_micRespv2l1_2023-12-04_14h53.24.299.wav;516.8934294;517.39352;None;516.8934294;516.8934294;516.8934294;516.8934294;516.8934294;516.8934294;;;;;;260201;1;2023-12-04_14h44.55.523;REPSWITCH1_version2_list1;2022.2.4;144.0517435;
REPSWITCH1/PICTURE_135.png;traje;speak;darkblue;nontarget;2;NT;1;2;1;2;Stim3_Set1;1;switch;107;106;5;0;106;106;106;;;;;;;;;;;;;;;;;;;;;;;517.39352;518.5394867;518.5394867;518.5394867;518.5394867;518.5394867;518.5394867;518.5394867;518.5394867;None;0;;;C:\2023\REPSWITCH21092023\REPSWITCH_excgange\REPSWITCH_excgange\data/260201_REPSWITCH1_version2_list1_2023-12-04_14h44.55.523_micRespv2l1_recorded\recording_micRespv2l1_2023-12-04_14h53.28.967.wav;521.5676891;;None;521.5676891;521.5676891;521.5676891;521.5676891;521.5676891;521.5676891;;;;;;260201;1;2023-12-04_14h44.55.523;REPSWITCH1_version2_list1;2022.2.4;144.0517435;
REPSWITCH1/PICTURE_135.png;traje;speak;darkblue;repeat;2;T;1;2;1;2;Stim3_Set1;0;None;108;107;6;0;107;107;107;;;;;;;;;;;;;;;;;;;;;;;522.067737;523.0817644;523.0817644;523.0817644;523.0817644;523.0817644;523.0817644;523.0817644;523.0817644;None;0;;;C:\2023\REPSWITCH21092023\REPSWITCH_excgange\REPSWITCH_excgange\data/260201_REPSWITCH1_version2_list1_2023-12-04_14h44.55.523_micRespv2l1_recorded\recording_micRespv2l1_2023-12-04_14h53.33.509.wav;526.1030647;526.6030642;None;526.1030647;526.1030647;526.1030647;526.1030647;526.1030647;526.1030647;;;;;;260201;1;2023-12-04_14h44.55.523;REPSWITCH1_version2_list1;2022.2.4;144.0517435;
REPSWITCH1/PICTURE_673.png;tenedor;type;gold;filler;1;F;1;2;1;2;Extra5;0;None;109;108;7;0;108;108;108;;;;;;;;;;;;;;;;;;;;;;;526.6030642;527.6448842;527.6448842;527.6448842;527.6448842;527.6448842;527.6448842;527.6448842;527.6448842;['t', 'e', 'n', 'e', 'd', 'o', 'r'];0;[0.9565856996923685, 1.1550055998377502, 1.257584400009364, 1.321807499974966, 1.5440300996415317, 1.642758899834007, 1.769287799950689];tenedor;C:\2023\REPSWITCH21092023\REPSWITCH_excgange\REPSWITCH_excgange\data/260201_REPSWITCH1_version2_list1_2023-12-04_14h44.55.523_micRespv2l1_recorded\recording_micRespv2l1_2023-12-04_14h53.38.072.wav;530.6661022;531.1661647;None;530.6661022;530.6661022;530.6661022;530.6661022;530.6661022;530.6661022;;;;;;260201;1;2023-12-04_14h44.55.523;REPSWITCH1_version2_list1;2022.2.4;144.0517435;
REPSWITCH1/PICTURE_728.png;pulpo;speak;darkblue;filler;2;F;1;2;1;2;Stim8_Set4;0;None;110;109;8;0;109;109;109;;;;;;;;;;;;;;;;;;;;;;;531.1661647;532.2496824;532.2496824;532.2496824;532.2496824;532.2496824;532.2496824;532.2496824;532.2496824;None;0;;;C:\2023\REPSWITCH21092023\REPSWITCH_excgange\REPSWITCH_excgange\data/260201_REPSWITCH1_version2_list1_2023-12-04_14h44.55.523_micRespv2l1_recorded\recording_micRespv2l1_2023-12-04_14h53.42.677.wav;535.2709054;535.770911;None;535.2709054;535.2709054;535.2709054;535.2709054;535.2709054;535.2709054;;;;;;260201;1;2023-12-04_14h44.55.523;REPSWITCH1_version2_list1;2022.2.4;144.0517435;
REPSWITCH1/PICTURE_16.png;cazador;speak;darkblue;nontarget;2;NT;1;2;1;2;Stim6_Set1;1;repeat;111;110;9;0;110;110;110;;;;;;;;;;;;;;;;;;;;;;;535.770911;536.8822755;536.8822755;536.8822755;536.8822755;536.8822755;536.8822755;536.8822755;536.8822755;None;0;;;C:\2023\REPSWITCH21092023\REPSWITCH_excgange\REPSWITCH_excgange\data/260201_REPSWITCH1_version2_list1_2023-12-04_14h44.55.523_micRespv2l1_recorded\recording_micRespv2l1_2023-12-04_14h53.47.310.wav;539.9104503;;None;539.9104503;539.9104503;539.9104503;539.9104503;539.9104503;539.9104503;;;;;;260201;1;2023-12-04_14h44.55.523;REPSWITCH1_version2_list1;2022.2.4;144.0517435;
REPSWITCH1/PICTURE_16.png;cazador;type;gold;switch;1;T;1;2;1;2;Stim6_Set1;0;None;112;111;10;0;111;111;111;;;;;;;;;;;;;;;;;;;;;;;540.410434;541.5148139;541.5148139;541.5148139;541.5148139;541.5148139;541.5148139;541.5148139;541.5148139;['c', 'a', 'z', 'a', 'd', 'o', 'r'];0;[0.9073173999786377, 1.1801821002736688, 1.4512841003015637, 1.5808534999378026, 1.7935278001241386, 1.929297000169754, 2.016968199983239];cazador;C:\2023\REPSWITCH21092023\REPSWITCH_excgange\REPSWITCH_excgange\data/260201_REPSWITCH1_version2_list1_2023-12-04_14h44.55.523_micRespv2l1_recorded\recording_micRespv2l1_2023-12-04_14h53.51.942.wav;544.5359568;545.0361179;None;544.5359568;544.5359568;544.5359568;544.5359568;544.5359568;544.5359568;;;;;;260201;1;2023-12-04_14h44.55.523;REPSWITCH1_version2_list1;2022.2.4;144.0517435;
REPSWITCH1/PICTURE_498.png;taza;type;gold;filler;1;F;1;2;1;2;Stim4_Set4;1;repeat;113;112;11;0;112;112;112;;;;;;;;;;;;;;;;;;;;;;;545.0361179;546.0570198;546.0570198;546.0570198;546.0570198;546.0570198;546.0570198;546.0570198;546.0570198;['t', 'a', 'z', 'a'];0;[1.107919099740684, 1.268488499801606, 1.3780652997083962, 1.5118721998296678];taza;C:\2023\REPSWITCH21092023\REPSWITCH_excgange\REPSWITCH_excgange\data/260201_REPSWITCH1_version2_list1_2023-12-04_14h44.55.523_micRespv2l1_recorded\recording_micRespv2l1_2023-12-04_14h53.56.484.wav;549.0783212;549.578307;None;549.0783212;549.0783212;549.0783212;549.0783212;549.0783212;549.0783212;;;;;;260201;1;2023-12-04_14h44.55.523;REPSWITCH1_version2_list1;2022.2.4;144.0517435;
REPSWITCH1/PICTURE_381.png;fresa;type;gold;nontarget;1;NT;1;2;1;2;Stim2_Set1;1;repeat;114;113;12;0;113;113;113;;;;;;;;;;;;;;;;;;;;;;;549.578307;550.6965284;550.6965284;550.6965284;550.6965284;550.6965284;550.6965284;550.6965284;550.6965284;['f', 'r', 'e', 's', 'a'];0;[1.0288849999196827, 1.2311638998799026, 1.3319190996699035, 1.5740393996238708, 1.6618172000162303];fresa;C:\2023\REPSWITCH21092023\REPSWITCH_excgange\REPSWITCH_excgange\data/260201_REPSWITCH1_version2_list1_2023-12-04_14h44.55.523_micRespv2l1_recorded\recording_micRespv2l1_2023-12-04_14h54.01.124.wav;553.7246681;;None;553.7246681;553.7246681;553.7246681;553.7246681;553.7246681;553.7246681;;;;;;260201;1;2023-12-04_14h44.55.523;REPSWITCH1_version2_list1;2022.2.4;144.0517435;
REPSWITCH1/PICTURE_381.png;fresa;speak;darkblue;switch;2;T;1;2;1;2;Stim2_Set1;0;None;115;114;13;0;114;114;114;;;;;;;;;;;;;;;;;;;;;;;554.2247265;555.2596317;555.2596317;555.2596317;555.2596317;555.2596317;555.2596317;555.2596317;555.2596317;None;0;;;C:\2023\REPSWITCH21092023\REPSWITCH_excgange\REPSWITCH_excgange\data/260201_REPSWITCH1_version2_list1_2023-12-04_14h44.55.523_micRespv2l1_recorded\recording_micRespv2l1_2023-12-04_14h54.05.687.wav;558.2877542;;None;558.2877542;558.2877542;558.2877542;558.2877542;558.2877542;558.2877542;;;;;;260201;1;2023-12-04_14h44.55.523;REPSWITCH1_version2_list1;2022.2.4;144.0517435;
REPSWITCH1/PICTURE_178.png;puente;speak;darkblue;nontarget;2;NT;1;2;1;2;Stim1_Set1;0;None;116;115;14;0;115;115;115;;;;;;;;;;;;;;;;;;;;;;;558.787823;559.8713456;559.8713456;559.8713456;559.8713456;559.8713456;559.8713456;559.8713456;559.8713456;None;0;;;C:\2023\REPSWITCH21092023\REPSWITCH_excgange\REPSWITCH_excgange\data/260201_REPSWITCH1_version2_list1_2023-12-04_14h44.55.523_micRespv2l1_recorded\recording_micRespv2l1_2023-12-04_14h54.10.299.wav;562.892557;563.3926977;None;562.892557;562.892557;562.892557;562.892557;562.892557;562.892557;;;;;;260201;1;2023-12-04_14h44.55.523;REPSWITCH1_version2_list1;2022.2.4;144.0517435;
REPSWITCH1/PICTURE_178.png;puente;type;gold;switch;1;T;1;2;1;2;Stim1_Set1;0;None;117;116;15;0;116;116;116;;;;;;;;;;;;;;;;;;;;;;;563.3926977;564.5456434;564.5456434;564.5456434;564.5456434;564.5456434;564.5456434;564.5456434;564.5456434;['p', 'u', 'e', 'n', 't', 'e'];0;[1.2336834999732673, 1.4888281002640724, 1.5998013000935316, 1.7592692002654076, 1.8250195998698473, 1.961601400282234];puente;C:\2023\REPSWITCH21092023\REPSWITCH_excgange\REPSWITCH_excgange\data/260201_REPSWITCH1_version2_list1_2023-12-04_14h44.55.523_micRespv2l1_recorded\recording_micRespv2l1_2023-12-04_14h54.14.973.wav;567.5667622;568.0668974;None;567.5667622;567.5667622;567.5667622;567.5667622;567.5667622;567.5667622;;;;;;260201;1;2023-12-04_14h44.55.523;REPSWITCH1_version2_list1;2022.2.4;144.0517435;
REPSWITCH1/PICTURE_719.png;baño;speak;darkblue;filler;2;F;1;2;1;2;Stim2_Set4;0;None;118;117;16;0;117;117;117;;;;;;;;;;;;;;;;;;;;;;;568.0668974;569.1295103;569.1295103;569.1295103;569.1295103;569.1295103;569.1295103;569.1295103;569.1295103;None;0;;;C:\2023\REPSWITCH21092023\REPSWITCH_excgange\REPSWITCH_excgange\data/260201_REPSWITCH1_version2_list1_2023-12-04_14h44.55.523_micRespv2l1_recorded\recording_micRespv2l1_2023-12-04_14h54.19.557.wav;572.1576887;;None;572.1576887;572.1576887;572.1576887;572.1576887;572.1576887;572.1576887;;;;;;260201;1;2023-12-04_14h44.55.523;REPSWITCH1_version2_list1;2022.2.4;144.0517435;
REPSWITCH1/PICTURE_169.png;espalda;type;gold;nontarget;1;NT;1;2;1;2;Stim8_Set1;1;switch;119;118;17;0;118;118;118;;;;;;;;;;;;;;;;;;;;;;;572.6577175;573.6717634;573.6717634;573.6717634;573.6717634;573.6717634;573.6717634;573.6717634;573.6717634;['e', 's', 'p', 'a', 'l', 'd', 'a'];0;[1.1544637996703386, 1.3726073997095227, 1.5393422995693982, 1.6758902999572456, 1.7716532996855676, 1.888855699915439, 2.3037318997085094];espalda;C:\2023\REPSWITCH21092023\REPSWITCH_excgange\REPSWITCH_excgange\data/260201_REPSWITCH1_version2_list1_2023-12-04_14h44.55.523_micRespv2l1_recorded\recording_micRespv2l1_2023-12-04_14h54.24.099.wav;576.692959;577.193048;None;576.692959;576.692959;576.692959;576.692959;576.692959;576.692959;;;;;;260201;1;2023-12-04_14h44.55.523;REPSWITCH1_version2_list1;2022.2.4;144.0517435;
REPSWITCH1/PICTURE_169.png;espalda;type;gold;repeat;1;T;1;2;1;2;Stim8_Set1;0;None;120;119;18;0;119;119;119;;;;;;;;;;;;;;;;;;;;;;;577.193048;578.4154118;578.4154118;578.4154118;578.4154118;578.4154118;578.4154118;578.4154118;578.4154118;['e', 's', 'p', 'a', 'l', 'd', 'a'];0;[0.9380550999194384, 1.138721900060773, 1.2454345999285579, 1.3777220002375543, 1.4877407001331449, 1.627823700197041, 1.7983270999975502];espalda;C:\2023\REPSWITCH21092023\REPSWITCH_excgange\REPSWITCH_excgange\data/260201_REPSWITCH1_version2_list1_2023-12-04_14h44.55.523_micRespv2l1_recorded\recording_micRespv2l1_2023-12-04_14h54.28.843.wav;581.4366286;581.9367901;None;581.4366286;581.4366286;581.4366286;581.4366286;581.4366286;581.4366286;;;;;;260201;1;2023-12-04_14h44.55.523;REPSWITCH1_version2_list1;2022.2.4;144.0517435;
REPSWITCH1/PICTURE_48.png;bombero;speak;darkblue;filler;2;F;1;2;1;2;Stim7_Set4;1;switch;121;120;19;0;120;120;120;;;;;;;;;;;;;;;;;;;;;;;581.9367901;583.1175083;583.1175083;583.1175083;583.1175083;583.1175083;583.1175083;583.1175083;583.1175083;None;0;;;C:\2023\REPSWITCH21092023\REPSWITCH_excgange\REPSWITCH_excgange\data/260201_REPSWITCH1_version2_list1_2023-12-04_14h44.55.523_micRespv2l1_recorded\recording_micRespv2l1_2023-12-04_14h54.33.546.wav;586.1386557;586.6387126;None;586.1386557;586.1386557;586.1386557;586.1386557;586.1386557;586.1386557;;;;;;260201;1;2023-12-04_14h44.55.523;REPSWITCH1_version2_list1;2022.2.4;144.0517435;
REPSWITCH1/PICTURE_19.png;pavo;type;gold;nontarget;1;NT;1;2;1;2;Stim5_Set1;1;switch;122;121;20;0;121;121;121;;;;;;;;;;;;;;;;;;;;;;;586.6387126;587.7916525;587.7916525;587.7916525;587.7916525;587.7916525;587.7916525;587.7916525;587.7916525;['p', 'a', 'v', 'o'];0;[1.1349613000638783, 1.2498578000813723, 1.500187000259757, 1.5809102999046445];pavo;C:\2023\REPSWITCH21092023\REPSWITCH_excgange\REPSWITCH_excgange\data/260201_REPSWITCH1_version2_list1_2023-12-04_14h44.55.523_micRespv2l1_recorded\recording_micRespv2l1_2023-12-04_14h54.38.219.wav;590.8128759;591.3129368;None;590.8128759;590.8128759;590.8128759;590.8128759;590.8128759;590.8128759;;;;;;260201;1;2023-12-04_14h44.55.523;REPSWITCH1_version2_list1;2022.2.4;144.0517435;
REPSWITCH1/PICTURE_19.png;pavo;type;gold;repeat;1;T;1;2;1;2;Stim5_Set1;0;None;123;122;21;0;122;122;122;;;;;;;;;;;;;;;;;;;;;;;591.3129368;592.3895131;592.3895131;592.3895131;592.3895131;592.3895131;592.3895131;592.3895131;592.3895131;['p', 'a', 'v', 'o'];0;[0.9568642000667751, 1.0415763999335468, 1.344324099831283, 1.4312685001641512];pavo;C:\2023\REPSWITCH21092023\REPSWITCH_excgange\REPSWITCH_excgange\data/260201_REPSWITCH1_version2_list1_2023-12-04_14h44.55.523_micRespv2l1_recorded\recording_micRespv2l1_2023-12-04_14h54.42.817.wav;595.4176646;;None;595.4176646;595.4176646;595.4176646;595.4176646;595.4176646;595.4176646;;;;;;260201;1;2023-12-04_14h44.55.523;REPSWITCH1_version2_list1;2022.2.4;144.0517435;
REPSWITCH1/PICTURE_319.png;vaca;speak;darkblue;filler;2;F;1;2;1;2;Stim1_Set4;0;None;124;123;22;0;123;123;123;;;;;;;;;;;;;;;;;;;;;;;595.9177123;597.0985302;597.0985302;597.0985302;597.0985302;597.0985302;597.0985302;597.0985302;597.0985302;None;0;;;C:\2023\REPSWITCH21092023\REPSWITCH_excgange\REPSWITCH_excgange\data/260201_REPSWITCH1_version2_list1_2023-12-04_14h44.55.523_micRespv2l1_recorded\recording_micRespv2l1_2023-12-04_14h54.47.526.wav;600.1266796;;None;600.1266796;600.1266796;600.1266796;600.1266796;600.1266796;600.1266796;;;;;;260201;1;2023-12-04_14h44.55.523;REPSWITCH1_version2_list1;2022.2.4;144.0517435;
REPSWITCH1/PICTURE_338.png;regalo;type;gold;filler;1;F;1;2;1;2;Stim6_Set4;0;None;125;124;23;0;124;124;124;;;;;;;;;;;;;;;;;;;;;;;600.6266872;601.7032901;601.7032901;601.7032901;601.7032901;601.7032901;601.7032901;601.7032901;601.7032901;['r', 'e', 'g', 'a', 'l', 'o'];0;[0.9413217999972403, 1.0171221997588873, 1.2084396998398006, 1.337036400102079, 1.5989823997952044, 1.837133300025016];regalo;C:\2023\REPSWITCH21092023\REPSWITCH_excgange\REPSWITCH_excgange\data/260201_REPSWITCH1_version2_list1_2023-12-04_14h44.55.523_micRespv2l1_recorded\recording_micRespv2l1_2023-12-04_14h54.52.130.wav;604.724452;605.2245166;None;604.724452;604.724452;604.724452;604.724452;604.724452;604.724452;;;;;;260201;1;2023-12-04_14h44.55.523;REPSWITCH1_version2_list1;2022.2.4;144.0517435;
REPSWITCH1/PICTURE_142.png;vaso;type;gold;nontarget;1;NT;1;2;1;2;Stim7_Set1;0;None;126;125;24;0;125;125;125;;;;;;;;;;;;;;;;;;;;;;;605.2245166;606.2593811;606.2593811;606.2593811;606.2593811;606.2593811;606.2593811;606.2593811;606.2593811;['v', 'a', 's', 'o'];0;[0.9550859001465142, 1.0688649001531303, 1.172426600009203, 1.3462110999971628];vaso;C:\2023\REPSWITCH21092023\REPSWITCH_excgange\REPSWITCH_excgange\data/260201_REPSWITCH1_version2_list1_2023-12-04_14h44.55.523_micRespv2l1_recorded\recording_micRespv2l1_2023-12-04_14h54.56.688.wav;609.2875581;;None;609.2875581;609.2875581;609.2875581;609.2875581;609.2875581;609.2875581;;;;;;260201;1;2023-12-04_14h44.55.523;REPSWITCH1_version2_list1;2022.2.4;144.0517435;
REPSWITCH1/PICTURE_142.png;vaso;speak;darkblue;switch;2;T;1;2;1;2;Stim7_Set1;0;None;127;126;25;0;126;126;126;;;;;;;;;;;;;;;;;;;;;;;609.7876787;610.8849678;610.8849678;610.8849678;610.8849678;610.8849678;610.8849678;610.8849678;610.8849678;None;0;;;C:\2023\REPSWITCH21092023\REPSWITCH_excgange\REPSWITCH_excgange\data/260201_REPSWITCH1_version2_list1_2023-12-04_14h44.55.523_micRespv2l1_recorded\recording_micRespv2l1_2023-12-04_14h55.01.312.wav;613.9061914;614.4063447;None;613.9061914;613.9061914;613.9061914;613.9061914;613.9061914;613.9061914;;;;;;260201;1;2023-12-04_14h44.55.523;REPSWITCH1_version2_list1;2022.2.4;144.0517435;
REPSWITCH1/PICTURE_687.png;camisa;type;gold;filler;1;F;1;2;1;2;Stim5_Set4;1;switch;128;127;26;0;127;127;127;;;;;;;;;;;;;;;;;;;;;;;614.4063447;615.5037061;615.5037061;615.5037061;615.5037061;615.5037061;615.5037061;615.5037061;615.5037061;['c', 'a', 'm', 'i', 's', 'a'];0;[1.5402787001803517, 1.7434892002493143, 1.8720654002390802, 1.9700786001048982, 2.1019235998392105, 2.2063183998689055];camisa;C:\2023\REPSWITCH21092023\REPSWITCH_excgange\REPSWITCH_excgange\data/260201_REPSWITCH1_version2_list1_2023-12-04_14h44.55.523_micRespv2l1_recorded\recording_micRespv2l1_2023-12-04_14h55.05.930.wav;618.5248536;619.0249168;None;618.5248536;618.5248536;618.5248536;618.5248536;618.5248536;618.5248536;;;;;;260201;1;2023-12-04_14h44.55.523;REPSWITCH1_version2_list1;2022.2.4;144.0517435;
REPSWITCH1/PICTURE_30.png;granja;type;gold;nontarget;1;NT;2;2;1;2;Stim5_Set2;0;None;129;128;27;0;128;128;128;;;;;;;;;;;;;;;;;;;;;;;619.0249168;620.1083934;620.1083934;620.1083934;620.1083934;620.1083934;620.1083934;620.1083934;620.1083934;['g', 'r', 'a', 'n', 'j', 'a'];0;[1.0396239003166556, 1.1641822000965476, 1.4603464999236166, 1.5320258000865579, 1.6844783001579344, 1.7951298002153635];granja;C:\2023\REPSWITCH21092023\REPSWITCH_excgange\REPSWITCH_excgange\data/260201_REPSWITCH1_version2_list1_2023-12-04_14h44.55.523_micRespv2l1_recorded\recording_micRespv2l1_2023-12-04_14h55.10.537.wav;623.1365841;;None;623.1365841;623.1365841;623.1365841;623.1365841;623.1365841;623.1365841;;;;;;260201;1;2023-12-04_14h44.55.523;REPSWITCH1_version2_list1;2022.2.4;144.0517435;
REPSWITCH1/PICTURE_30.png;granja;type;gold;repeat;1;T;2;2;1;2;Stim5_Set2;0;None;130;129;28;0;129;129;129;;;;;;;;;;;;;;;;;;;;;;;623.6366595;624.8034929;624.8034929;624.8034929;624.8034929;624.8034929;624.8034929;624.8034929;624.8034929;['r', 'backspace', 'g', 'r', 'n', 'a'];0;[1.3736612000502646, 1.9779094001278281, 2.207399600185454, 2.2762849000282586, 2.8174026999622583, 2.9200450000353158];grna;C:\2023\REPSWITCH21092023\REPSWITCH_excgange\REPSWITCH_excgange\data/260201_REPSWITCH1_version2_list1_2023-12-04_14h44.55.523_micRespv2l1_recorded\recording_micRespv2l1_2023-12-04_14h55.15.232.wav;627.8316593;;None;627.8316593;627.8316593;627.8316593;627.8316593;627.8316593;627.8316593;;;;;;260201;1;2023-12-04_14h44.55.523;REPSWITCH1_version2_list1;2022.2.4;144.0517435;
REPSWITCH1/PICTURE_128.png;muñeca;speak;darkblue;filler;2;F;2;2;1;2;Stim4_Set1;0;None;131;130;29;0;130;130;130;;;;;;;;;;;;;;;;;;;;;;;628.3317024;629.37351;629.37351;629.37351;629.37351;629.37351;629.37351;629.37351;629.37351;None;0;;;C:\2023\REPSWITCH21092023\REPSWITCH_excgange\REPSWITCH_excgange\data/260201_REPSWITCH1_version2_list1_2023-12-04_14h44.55.523_micRespv2l1_recorded\recording_micRespv2l1_2023-12-04_14h55.19.801.wav;632.4017144;;None;632.4017144;632.4017144;632.4017144;632.4017144;632.4017144;632.4017144;;;;;;260201;1;2023-12-04_14h44.55.523;REPSWITCH1_version2_list1;2022.2.4;144.0517435;
REPSWITCH1/PICTURE_264.png;mano;type;gold;nontarget;1;NT;2;2;1;2;Stim3_Set2;1;switch;132;131;30;0;131;131;131;;;;;;;;;;;;;;;;;;;;;;;632.9017405;634.1033143;634.1033143;634.1033143;634.1033143;634.1033143;634.1033143;634.1033143;634.1033143;['m', 'a', 'n', 'o'];0;[1.0063730999827385, 1.1478915996849537, 1.2846262999810278, 1.420176699757576];mano;C:\2023\REPSWITCH21092023\REPSWITCH_excgange\REPSWITCH_excgange\data/260201_REPSWITCH1_version2_list1_2023-12-04_14h44.55.523_micRespv2l1_recorded\recording_micRespv2l1_2023-12-04_14h55.24.531.wav;637.1315089;;None;637.1315089;637.1315089;637.1315089;637.1315089;637.1315089;637.1315089;;;;;;260201;1;2023-12-04_14h44.55.523;REPSWITCH1_version2_list1;2022.2.4;144.0517435;
REPSWITCH1/PICTURE_264.png;mano;type;gold;repeat;1;T;2;2;1;2;Stim3_Set2;0;None;133;132;31;0;132;132;132;;;;;;;;;;;;;;;;;;;;;;;637.6315533;638.7498218;638.7498218;638.7498218;638.7498218;638.7498218;638.7498218;638.7498218;638.7498218;['m', 'a', 'n', 'o'];0;[0.7674316000193357, 0.880517200101167, 0.9951014001853764, 1.390143800061196];mano;C:\2023\REPSWITCH21092023\REPSWITCH_excgange\REPSWITCH_excgange\data/260201_REPSWITCH1_version2_list1_2023-12-04_14h44.55.523_micRespv2l1_recorded\recording_micRespv2l1_2023-12-04_14h55.29.177.wav;641.77099;642.2710528;None;641.77099;641.77099;641.77099;641.77099;641.77099;641.77099;;;;;;260201;1;2023-12-04_14h44.55.523;REPSWITCH1_version2_list1;2022.2.4;144.0517435;
REPSWITCH1/PICTURE_175.png;pintor;type;gold;nontarget;1;NT;2;2;1;2;Stim1_Set2;0;None;134;133;32;0;133;133;133;;;;;;;;;;;;;;;;;;;;;;;642.2710528;643.3128863;643.3128863;643.3128863;643.3128863;643.3128863;643.3128863;643.3128863;643.3128863;['p', 'i', 'n', 't', 'o', 'r'];0;[1.0493063000030816, 1.3035252997651696, 1.3944262997247279, 1.5717788999900222, 1.6754648997448385, 1.7950716996565461];pintor;C:\2023\REPSWITCH21092023\REPSWITCH_excgange\REPSWITCH_excgange\data/260201_REPSWITCH1_version2_list1_2023-12-04_14h44.55.523_micRespv2l1_recorded\recording_micRespv2l1_2023-12-04_14h55.33.741.wav;646.3410614;;None;646.3410614;646.3410614;646.3410614;646.3410614;646.3410614;646.3410614;;;;;;260201;1;2023-12-04_14h44.55.523;REPSWITCH1_version2_list1;2022.2.4;144.0517435;
REPSWITCH1/PICTURE_175.png;pintor;speak;darkblue;switch;2;T;2;2;1;2;Stim1_Set2;0;None;135;134;33;0;134;134;134;;;;;;;;;;;;;;;;;;;;;;;646.8410835;648.001004;648.001004;648.001004;648.001004;648.001004;648.001004;648.001004;648.001004;None;0;;;C:\2023\REPSWITCH21092023\REPSWITCH_excgange\REPSWITCH_excgange\data/260201_REPSWITCH1_version2_list1_2023-12-04_14h44.55.523_micRespv2l1_recorded\recording_micRespv2l1_2023-12-04_14h55.38.429.wav;651.0291471;;None;651.0291471;651.0291471;651.0291471;651.0291471;651.0291471;651.0291471;;;;;;260201;1;2023-12-04_14h44.55.523;REPSWITCH1_version2_list1;2022.2.4;144.0517435;
REPSWITCH1/PICTURE_135.png;traje;speak;darkblue;filler;2;F;2;2;1;2;Stim3_Set1;1;repeat;136;135;34;0;135;135;135;;;;;;;;;;;;;;;;;;;;;;;651.529203;652.6752346;652.6752346;652.6752346;652.6752346;652.6752346;652.6752346;652.6752346;652.6752346;None;0;;;C:\2023\REPSWITCH21092023\REPSWITCH_excgange\REPSWITCH_excgange\data/260201_REPSWITCH1_version2_list1_2023-12-04_14h44.55.523_micRespv2l1_recorded\recording_micRespv2l1_2023-12-04_14h55.43.102.wav;655.6964975;656.1965654;None;655.6964975;655.6964975;655.6964975;655.6964975;655.6964975;655.6964975;;;;;;260201;1;2023-12-04_14h44.55.523;REPSWITCH1_version2_list1;2022.2.4;144.0517435;
REPSWITCH1/PICTURE_446.png;cerdo;speak;darkblue;nontarget;2;NT;2;2;1;2;Stim7_Set2;1;repeat;137;136;35;0;136;136;136;;;;;;;;;;;;;;;;;;;;;;;656.1965654;657.3008241;657.3008241;657.3008241;657.3008241;657.3008241;657.3008241;657.3008241;657.3008241;None;0;;;C:\2023\REPSWITCH21092023\REPSWITCH_excgange\REPSWITCH_excgange\data/260201_REPSWITCH1_version2_list1_2023-12-04_14h44.55.523_micRespv2l1_recorded\recording_micRespv2l1_2023-12-04_14h55.47.728.wav;660.3220054;660.822108;None;660.3220054;660.3220054;660.3220054;660.3220054;660.3220054;660.3220054;;;;;;260201;1;2023-12-04_14h44.55.523;REPSWITCH1_version2_list1;2022.2.4;144.0517435;
REPSWITCH1/PICTURE_446.png;cerdo;type;gold;switch;1;T;2;2;1;2;Stim7_Set2;0;None;138;137;36;0;137;137;137;;;;;;;;;;;;;;;;;;;;;;;660.822108;661.8708403;661.8708403;661.8708403;661.8708403;661.8708403;661.8708403;661.8708403;661.8708403;['c', 'e', 'r', 'd', 'o'];0;[0.9566065999679267, 1.166191500145942, 1.20801190007478, 1.4711704002693295, 1.5362579999491572];cerdo;C:\2023\REPSWITCH21092023\REPSWITCH_excgange\REPSWITCH_excgange\data/260201_REPSWITCH1_version2_list1_2023-12-04_14h44.55.523_micRespv2l1_recorded\recording_micRespv2l1_2023-12-04_14h55.52.298.wav;664.8920537;665.392157;None;664.8920537;664.8920537;664.8920537;664.8920537;664.8920537;664.8920537;;;;;;260201;1;2023-12-04_14h44.55.523;REPSWITCH1_version2_list1;2022.2.4;144.0517435;
REPSWITCH1/PICTURE_152.png;caracol;type;gold;nontarget;1;NT;2;2;1;2;Stim2_Set2;1;repeat;139;138;37;0;138;138;138;;;;;;;;;;;;;;;;;;;;;;;665.392157;666.5173132;666.5173132;666.5173132;666.5173132;666.5173132;666.5173132;666.5173132;666.5173132;['c', 'a', 'r', 'a', 'c', 'o', 'l'];0;[0.771338100079447, 0.9916487000882626, 1.1720433998852968, 1.3731665001250803, 1.546807199716568, 1.6154960999265313, 1.774999599903822];caracol;C:\2023\REPSWITCH21092023\REPSWITCH_excgange\REPSWITCH_excgange\data/260201_REPSWITCH1_version2_list1_2023-12-04_14h44.55.523_micRespv2l1_recorded\recording_micRespv2l1_2023-12-04_14h55.56.946.wav;669.545465;;None;669.545465;669.545465;669.545465;669.545465;669.545465;669.545465;;;;;;260201;1;2023-12-04_14h44.55.523;REPSWITCH1_version2_list1;2022.2.4;144.0517435;
REPSWITCH1/PICTURE_152.png;caracol;speak;darkblue;switch;2;T;2;2;1;2;Stim2_Set2;0;None;140;139;38;0;139;139;139;;;;;;;;;;;;;;;;;;;;;;;670.0455386;671.1012766;671.1012766;671.1012766;671.1012766;671.1012766;671.1012766;671.1012766;671.1012766;None;0;;;C:\2023\REPSWITCH21092023\REPSWITCH_excgange\REPSWITCH_excgange\data/260201_REPSWITCH1_version2_list1_2023-12-04_14h44.55.523_micRespv2l1_recorded\recording_micRespv2l1_2023-12-04_14h56.01.529.wav;674.1294113;;None;674.1294113;674.1294113;674.1294113;674.1294113;674.1294113;674.1294113;;;;;;260201;1;2023-12-04_14h44.55.523;REPSWITCH1_version2_list1;2022.2.4;144.0517435;
REPSWITCH1/PICTURE_16.png;cazador;type;gold;filler;1;F;2;2;1;2;Stim6_Set1;0;None;141;140;39;0;140;140;140;;;;;;;;;;;;;;;;;;;;;;;674.6294621;675.9074906;675.9074906;675.9074906;675.9074906;675.9074906;675.9074906;675.9074906;675.9074906;['c', 'a', 'z', 'a', 'd', 'o', 'r'];0;[1.1210141000337899, 1.3490029000677168, 1.6101699997670949, 1.717751800082624, 1.9150946997106075, 2.0087758996523917, 2.1009378996677697];cazador;C:\2023\REPSWITCH21092023\REPSWITCH_excgange\REPSWITCH_excgange\data/260201_REPSWITCH1_version2_list1_2023-12-04_14h44.55.523_micRespv2l1_recorded\recording_micRespv2l1_2023-12-04_14h56.06.335.wav;678.9287322;679.4286932;None;678.9287322;678.9287322;678.9287322;678.9287322;678.9287322;678.9287322;;;;;;260201;1;2023-12-04_14h44.55.523;REPSWITCH1_version2_list1;2022.2.4;144.0517435;
REPSWITCH1/PICTURE_381.png;fresa;speak;darkblue;filler;2;F;2;2;1;2;Stim2_Set1;0;None;142;141;40;0;141;141;141;;;;;;;;;;;;;;;;;;;;;;;679.4286932;680.4774801;680.4774801;680.4774801;680.4774801;680.4774801;680.4774801;680.4774801;680.4774801;None;0;;;C:\2023\REPSWITCH21092023\REPSWITCH_excgange\REPSWITCH_excgange\data/260201_REPSWITCH1_version2_list1_2023-12-04_14h44.55.523_micRespv2l1_recorded\recording_micRespv2l1_2023-12-04_14h56.10.905.wav;683.4986802;683.9987251;None;683.4986802;683.4986802;683.4986802;683.4986802;683.4986802;683.4986802;;;;;;260201;1;2023-12-04_14h44.55.523;REPSWITCH1_version2_list1;2022.2.4;144.0517435;
