image;correctAns;respModal;frameColor;repSwitch;sequence;target;set;block;list;exp_version;stimulus;baseline;baseline_condition;trial_no;psychopy_trial;Column1;trialsREPSWITCH.thisRepN;trialsREPSWITCH.thisTrialN;trialsREPSWITCH.thisN;trialsREPSWITCH.thisIndex;textWelcome.started;textboxInstrMain1.started;textboxInstrMain1_2.started;textboxInstrMain1_3.started;keyInstrMain.started;keyInstrMain.keys;keyInstrMain.rt;textboxInstrMain2.started;textboxInstrMain2_2.started;textboxInstrMain2_3.started;textboxInstrMain2_4.started;textboxInstrMain2_5.started;textboxInstrMain2_6.started;textboxInstrMain2_7.started;textboxInstrMain2_8.started;textboxInstrMain2_9.started;textboxInstrMain2_10.started;textboxInstrMain2_11.started;textboxInstrMain2_12.started;keyInstrMain2.started;keyInstrMain2.keys;keyInstrMain2.rt;fixationITI.started;fixationITI.stopped;polygonColour.started;polygonWhite.started;imageObject.started;polygonType.started;textInput.started;keyResp.started;micRespv1l2.started;keyResp.keys;keyResp.corr;subjResponse;micRespv1l2.clip;textBlankLoop.started;textBlankLoop.stopped;keyPause.keys;polygonColour.stopped;polygonWhite.stopped;imageObject.stopped;polygonType.stopped;textInput.stopped;keyResp.stopped;keyResp.rt;textboxPause.started;keyPause.started;keyPause.rt;textboxGoodbye.started;textboxGoodbye.stopped;participant;session;date;expName;psychopyVersion;frameRate;Column2
;;;;;;;;;;;;;;;;;;;;;9.2116672;11.7089878;11.7089878;11.7089878;11.7089878;space;7.7208356;;;;;;;;;;;;;;;;;;;;;;;;;;;;;;;;;;;;;;;;;;;;270102;1;2023-12-04_16h09.51.777;REPSWITCH1_version1_list2;2022.2.4;143.9459922;
;;;;;;;;;;;;;;;;;;;;;;;;;;;;19.4461395;19.4461395;19.4461395;19.4461395;19.4461395;19.4461395;19.4461395;19.4461395;19.4461395;19.4461395;19.4461395;19.4461395;19.4461395;space;1.9379075;;;;;;;;;;;;;;;;;;;;;;;;;;;;;270102;1;2023-12-04_16h09.51.777;REPSWITCH1_version1_list2;2022.2.4;143.9459922;
REPSWITCH1/PICTURE_646.png;tronco;speak;gold;filler;2;F;1;3;2;1;Extra4;0;None;1;0;1;0;0;0;0;;;;;;;;;;;;;;;;;;;;;;;21.4812054;22.5785116;22.5785116;22.5785116;22.5785116;22.5785116;22.5785116;22.5785116;22.5785116;None;0;;C:\2023\REPSWITCH21092023\REPSWITCH_excgange\REPSWITCH_excgange\data/270102_REPSWITCH1_version1_list2_2023-12-04_16h09.51.777_micRespv1l2_recorded\recording_micRespv1l2_2023-12-04_16h10.10.018.wav;25.5997269;26.0998452;None;;;;;;;;;;;;;270102;1;2023-12-04_16h09.51.777;REPSWITCH1_version1_list2;2022.2.4;143.9459922;
REPSWITCH1/PICTURE_340.png;espejo;type;darkblue;filler;1;F;1;3;2;1;Extra1;0;None;2;1;2;0;1;1;1;;;;;;;;;;;;;;;;;;;;;;;26.0998452;27.238889;27.238889;27.238889;27.238889;27.238889;27.238889;27.238889;27.238889;['e', 's', 'p', 'e', 'j', 'o'];0;espejo;C:\2023\REPSWITCH21092023\REPSWITCH_excgange\REPSWITCH_excgange\data/270102_REPSWITCH1_version1_list2_2023-12-04_16h09.51.777_micRespv1l2_recorded\recording_micRespv1l2_2023-12-04_16h10.14.683.wav;30.2600557;30.7601282;None;30.2600557;30.2600557;30.2600557;30.2600557;30.2600557;30.2600557;[1.0182057996280491, 1.196647399570793, 1.3390501993708313, 1.4331594994291663, 1.7819536994211376, 2.0390707994811237];;;;;;270102;1;2023-12-04_16h09.51.777;REPSWITCH1_version1_list2;2022.2.4;143.9459922;
REPSWITCH1/PICTURE_338.png;regalo;speak;gold;filler;2;F;1;3;2;1;Stim6_Set4;0;None;3;2;3;0;2;2;2;;;;;;;;;;;;;;;;;;;;;;;30.7601282;31.8644541;31.8644541;31.8644541;31.8644541;31.8644541;31.8644541;31.8644541;31.8644541;None;0;;C:\2023\REPSWITCH21092023\REPSWITCH_excgange\REPSWITCH_excgange\data/270102_REPSWITCH1_version1_list2_2023-12-04_16h09.51.777_micRespv1l2_recorded\recording_micRespv1l2_2023-12-04_16h10.19.309.wav;34.8856439;35.3857311;None;34.8856439;34.8856439;34.8856439;34.8856439;34.8856439;34.8856439;;;;;;;270102;1;2023-12-04_16h09.51.777;REPSWITCH1_version1_list2;2022.2.4;143.9459922;
REPSWITCH1/PICTURE_142.png;vaso;speak;gold;nontarget;2;NT;1;3;2;1;Stim7_Set1;1;repeat;4;3;4;0;3;3;3;;;;;;;;;;;;;;;;;;;;;;;35.3857311;36.5456295;36.5456295;36.5456295;36.5456295;36.5456295;36.5456295;36.5456295;36.5456295;None;0;;C:\2023\REPSWITCH21092023\REPSWITCH_excgange\REPSWITCH_excgange\data/270102_REPSWITCH1_version1_list2_2023-12-04_16h09.51.777_micRespv1l2_recorded\recording_micRespv1l2_2023-12-04_16h10.23.990.wav;39.5668146;40.0668751;None;39.5668146;39.5668146;39.5668146;39.5668146;39.5668146;39.5668146;;;;;;;270102;1;2023-12-04_16h09.51.777;REPSWITCH1_version1_list2;2022.2.4;143.9459922;
REPSWITCH1/PICTURE_142.png;vaso;speak;gold;repeat;2;T;1;3;2;1;Stim7_Set1;0;None;5;4;5;0;4;4;4;;;;;;;;;;;;;;;;;;;;;;;40.0668751;41.1225958;41.1225958;41.1225958;41.1225958;41.1225958;41.1225958;41.1225958;41.1225958;None;0;;C:\2023\REPSWITCH21092023\REPSWITCH_excgange\REPSWITCH_excgange\data/270102_REPSWITCH1_version1_list2_2023-12-04_16h09.51.777_micRespv1l2_recorded\recording_micRespv1l2_2023-12-04_16h10.28.567.wav;44.1508392;;None;44.1508392;44.1508392;44.1508392;44.1508392;44.1508392;44.1508392;;;;;;;270102;1;2023-12-04_16h09.51.777;REPSWITCH1_version1_list2;2022.2.4;143.9459922;
REPSWITCH1/PICTURE_498.png;taza;type;darkblue;filler;1;F;1;3;2;1;Stim4_Set4;0;None;6;5;6;0;5;5;5;;;;;;;;;;;;;;;;;;;;;;;44.6508083;45.78993;45.78993;45.78993;45.78993;45.78993;45.78993;45.78993;45.78993;['t', 'a', 'z', 'a'];0;taza;C:\2023\REPSWITCH21092023\REPSWITCH_excgange\REPSWITCH_excgange\data/270102_REPSWITCH1_version1_list2_2023-12-04_16h09.51.777_micRespv1l2_recorded\recording_micRespv1l2_2023-12-04_16h10.33.234.wav;48.8111083;49.3111861;None;48.8111083;48.8111083;48.8111083;48.8111083;48.8111083;48.8111083;[0.890017599798739, 0.936172999907285, 1.2069068998098373, 1.3393340995535254];;;;;;270102;1;2023-12-04_16h09.51.777;REPSWITCH1_version1_list2;2022.2.4;143.9459922;
REPSWITCH1/PICTURE_16.png;cazador;speak;gold;nontarget;2;NT;1;3;2;1;Stim6_Set1;1;switch;7;6;7;0;6;6;6;;;;;;;;;;;;;;;;;;;;;;;49.3111861;50.436313;50.436313;50.436313;50.436313;50.436313;50.436313;50.436313;50.436313;None;0;;C:\2023\REPSWITCH21092023\REPSWITCH_excgange\REPSWITCH_excgange\data/270102_REPSWITCH1_version1_list2_2023-12-04_16h09.51.777_micRespv1l2_recorded\recording_micRespv1l2_2023-12-04_16h10.37.881.wav;53.464495;;None;53.464495;53.464495;53.464495;53.464495;53.464495;53.464495;;;;;;;270102;1;2023-12-04_16h09.51.777;REPSWITCH1_version1_list2;2022.2.4;143.9459922;
REPSWITCH1/PICTURE_16.png;cazador;speak;gold;repeat;2;T;1;3;2;1;Stim6_Set1;0;None;8;7;8;0;7;7;7;;;;;;;;;;;;;;;;;;;;;;;53.9646226;55.0202941;55.0202941;55.0202941;55.0202941;55.0202941;55.0202941;55.0202941;55.0202941;None;0;;C:\2023\REPSWITCH21092023\REPSWITCH_excgange\REPSWITCH_excgange\data/270102_REPSWITCH1_version1_list2_2023-12-04_16h09.51.777_micRespv1l2_recorded\recording_micRespv1l2_2023-12-04_16h10.42.464.wav;58.0414837;58.5415574;None;58.0414837;58.0414837;58.0414837;58.0414837;58.0414837;58.0414837;;;;;;;270102;1;2023-12-04_16h09.51.777;REPSWITCH1_version1_list2;2022.2.4;143.9459922;
REPSWITCH1/PICTURE_719.png;baño;type;darkblue;filler;1;F;1;3;2;1;Stim2_Set4;0;None;9;8;9;0;8;8;8;;;;;;;;;;;;;;;;;;;;;;;58.5415574;59.5695069;59.5695069;59.5695069;59.5695069;59.5695069;59.5695069;59.5695069;59.5695069;['b', 'a', 'ñ', 'o'];0;baño;C:\2023\REPSWITCH21092023\REPSWITCH_excgange\REPSWITCH_excgange\data/270102_REPSWITCH1_version1_list2_2023-12-04_16h09.51.777_micRespv1l2_recorded\recording_micRespv1l2_2023-12-04_16h10.47.015.wav;62.5976217;;None;62.5976217;62.5976217;62.5976217;62.5976217;62.5976217;62.5976217;[1.0028938995674253, 1.0616848994977772, 1.3471365994773805, 1.5544334994629025];;;;;;270102;1;2023-12-04_16h09.51.777;REPSWITCH1_version1_list2;2022.2.4;143.9459922;
REPSWITCH1/PICTURE_169.png;espalda;speak;gold;nontarget;2;NT;1;3;2;1;Stim8_Set1;0;None;10;9;10;0;9;9;9;;;;;;;;;;;;;;;;;;;;;;;63.0976986;64.1811924;64.1811924;64.1811924;64.1811924;64.1811924;64.1811924;64.1811924;64.1811924;None;0;;C:\2023\REPSWITCH21092023\REPSWITCH_excgange\REPSWITCH_excgange\data/270102_REPSWITCH1_version1_list2_2023-12-04_16h09.51.777_micRespv1l2_recorded\recording_micRespv1l2_2023-12-04_16h10.51.626.wav;67.2023708;67.7024736;None;67.2023708;67.2023708;67.2023708;67.2023708;67.2023708;67.2023708;;;;;;;270102;1;2023-12-04_16h09.51.777;REPSWITCH1_version1_list2;2022.2.4;143.9459922;
REPSWITCH1/PICTURE_169.png;espalda;type;darkblue;switch;1;T;1;3;2;1;Stim8_Set1;0;None;11;10;11;0;10;10;10;;;;;;;;;;;;;;;;;;;;;;;67.7024736;68.9109511;68.9109511;68.9109511;68.9109511;68.9109511;68.9109511;68.9109511;68.9109511;['e', 's', 'p', 'a', 'l', 'd', 'a'];0;espalda;C:\2023\REPSWITCH21092023\REPSWITCH_excgange\REPSWITCH_excgange\data/270102_REPSWITCH1_version1_list2_2023-12-04_16h09.51.777_micRespv1l2_recorded\recording_micRespv1l2_2023-12-04_16h10.56.355.wav;71.9322031;72.432258;None;71.9322031;71.9322031;71.9322031;71.9322031;71.9322031;71.9322031;[0.8367198994383216, 0.9910739995539188, 1.0977931995876133, 1.2467316994443536, 1.4337790994904935, 1.6056637996807694, 1.7596297995187342];;;;;;270102;1;2023-12-04_16h09.51.777;REPSWITCH1_version1_list2;2022.2.4;143.9459922;
REPSWITCH1/PICTURE_687.png;camisa;type;darkblue;filler;1;F;1;3;2;1;Stim5_Set4;0;None;12;11;12;0;11;11;11;;;;;;;;;;;;;;;;;;;;;;;72.432258;73.4740763;73.4740763;73.4740763;73.4740763;73.4740763;73.4740763;73.4740763;73.4740763;['c', 'a', 'm', 'i', 's', 'a'];0;camisa;C:\2023\REPSWITCH21092023\REPSWITCH_excgange\REPSWITCH_excgange\data/270102_REPSWITCH1_version1_list2_2023-12-04_16h09.51.777_micRespv1l2_recorded\recording_micRespv1l2_2023-12-04_16h11.00.918.wav;76.5022218;;None;76.5022218;76.5022218;76.5022218;76.5022218;76.5022218;76.5022218;[0.8698575999587774, 1.0282874996773899, 1.1479753996245563, 1.3311165999621153, 1.3975127995945513, 1.47425779979676];;;;;;270102;1;2023-12-04_16h09.51.777;REPSWITCH1_version1_list2;2022.2.4;143.9459922;
REPSWITCH1/PICTURE_178.png;puente;type;darkblue;nontarget;1;NT;1;3;2;1;Stim1_Set1;1;repeat;13;12;13;0;12;12;12;;;;;;;;;;;;;;;;;;;;;;;77.002303;78.1065934;78.1065934;78.1065934;78.1065934;78.1065934;78.1065934;78.1065934;78.1065934;['p', 'u', 'e', 'n', 't', 'e'];0;puente;C:\2023\REPSWITCH21092023\REPSWITCH_excgange\REPSWITCH_excgange\data/270102_REPSWITCH1_version1_list2_2023-12-04_16h09.51.777_micRespv1l2_recorded\recording_micRespv1l2_2023-12-04_16h11.05.551.wav;81.1278467;81.6278766;None;81.1278467;81.1278467;81.1278467;81.1278467;81.1278467;81.1278467;[0.8082388993352652, 1.0995926996693015, 1.2069848994724452, 1.3385518994182348, 1.5475257993675768, 1.6251684995368123];;;;;;270102;1;2023-12-04_16h09.51.777;REPSWITCH1_version1_list2;2022.2.4;143.9459922;
REPSWITCH1/PICTURE_178.png;puente;speak;gold;switch;2;T;1;3;2;1;Stim1_Set1;0;None;14;13;14;0;13;13;13;;;;;;;;;;;;;;;;;;;;;;;81.6278766;82.7044267;82.7044267;82.7044267;82.7044267;82.7044267;82.7044267;82.7044267;82.7044267;None;0;;C:\2023\REPSWITCH21092023\REPSWITCH_excgange\REPSWITCH_excgange\data/270102_REPSWITCH1_version1_list2_2023-12-04_16h09.51.777_micRespv1l2_recorded\recording_micRespv1l2_2023-12-04_16h11.10.149.wav;85.7256556;86.2257368;None;85.7256556;85.7256556;85.7256556;85.7256556;85.7256556;85.7256556;;;;;;;270102;1;2023-12-04_16h09.51.777;REPSWITCH1_version1_list2;2022.2.4;143.9459922;
REPSWITCH1/PICTURE_128.png;muñeca;speak;gold;nontarget;2;NT;1;3;2;1;Stim4_Set1;1;repeat;15;14;15;0;14;14;14;;;;;;;;;;;;;;;;;;;;;;;86.2257368;87.3369735;87.3369735;87.3369735;87.3369735;87.3369735;87.3369735;87.3369735;87.3369735;None;0;;C:\2023\REPSWITCH21092023\REPSWITCH_excgange\REPSWITCH_excgange\data/270102_REPSWITCH1_version1_list2_2023-12-04_16h09.51.777_micRespv1l2_recorded\recording_micRespv1l2_2023-12-04_16h11.14.781.wav;90.3582646;90.8582968;None;90.3582646;90.3582646;90.3582646;90.3582646;90.3582646;90.3582646;;;;;;;270102;1;2023-12-04_16h09.51.777;REPSWITCH1_version1_list2;2022.2.4;143.9459922;
REPSWITCH1/PICTURE_128.png;muñeca;type;darkblue;switch;1;T;1;3;2;1;Stim4_Set1;0;None;16;15;16;0;15;15;15;;;;;;;;;;;;;;;;;;;;;;;90.8582968;91.9695298;91.9695298;91.9695298;91.9695298;91.9695298;91.9695298;91.9695298;91.9695298;['m', 'u', 'ñ', 'e', 'c', 'a'];0;muñeca;C:\2023\REPSWITCH21092023\REPSWITCH_excgange\REPSWITCH_excgange\data/270102_REPSWITCH1_version1_list2_2023-12-04_16h09.51.777_micRespv1l2_recorded\recording_micRespv1l2_2023-12-04_16h11.19.414.wav;94.9908226;95.4908881;None;94.9908226;94.9908226;94.9908226;94.9908226;94.9908226;94.9908226;[0.6885897996835411, 0.8689888995140791, 1.655639799311757, 1.7655795994214714, 2.0067614996805787, 2.1004633996635675];;;;;;270102;1;2023-12-04_16h09.51.777;REPSWITCH1_version1_list2;2022.2.4;143.9459922;
REPSWITCH1/PICTURE_319.png;vaca;speak;gold;filler;2;F;1;3;2;1;Stim1_Set4;1;switch;17;16;17;0;16;16;16;;;;;;;;;;;;;;;;;;;;;;;95.4908881;96.5812644;96.5812644;96.5812644;96.5812644;96.5812644;96.5812644;96.5812644;96.5812644;None;0;;C:\2023\REPSWITCH21092023\REPSWITCH_excgange\REPSWITCH_excgange\data/270102_REPSWITCH1_version1_list2_2023-12-04_16h09.51.777_micRespv1l2_recorded\recording_micRespv1l2_2023-12-04_16h11.24.025.wav;99.6024993;100.1025518;None;99.6024993;99.6024993;99.6024993;99.6024993;99.6024993;99.6024993;;;;;;;270102;1;2023-12-04_16h09.51.777;REPSWITCH1_version1_list2;2022.2.4;143.9459922;
REPSWITCH1/PICTURE_728.png;pulpo;speak;gold;filler;2;F;1;3;2;1;Stim8_Set4;0;None;18;17;18;0;17;17;17;;;;;;;;;;;;;;;;;;;;;;;100.1025518;101.2138013;101.2138013;101.2138013;101.2138013;101.2138013;101.2138013;101.2138013;101.2138013;None;0;;C:\2023\REPSWITCH21092023\REPSWITCH_excgange\REPSWITCH_excgange\data/270102_REPSWITCH1_version1_list2_2023-12-04_16h09.51.777_micRespv1l2_recorded\recording_micRespv1l2_2023-12-04_16h11.28.658.wav;104.2419639;;None;104.2419639;104.2419639;104.2419639;104.2419639;104.2419639;104.2419639;;;;;;;270102;1;2023-12-04_16h09.51.777;REPSWITCH1_version1_list2;2022.2.4;143.9459922;
REPSWITCH1/PICTURE_381.png;fresa;type;darkblue;nontarget;1;NT;1;3;2;1;Stim2_Set1;1;switch;19;18;19;0;18;18;18;;;;;;;;;;;;;;;;;;;;;;;104.7420569;105.8533391;105.8533391;105.8533391;105.8533391;105.8533391;105.8533391;105.8533391;105.8533391;['f', 'r', 'e', 's', 'a'];0;fresa;C:\2023\REPSWITCH21092023\REPSWITCH_excgange\REPSWITCH_excgange\data/270102_REPSWITCH1_version1_list2_2023-12-04_16h09.51.777_micRespv1l2_recorded\recording_micRespv1l2_2023-12-04_16h11.33.297.wav;108.8745496;109.3746108;None;108.8745496;108.8745496;108.8745496;108.8745496;108.8745496;108.8745496;[0.9479203992523253, 1.112639899365604, 1.1484665996395051, 1.328840199392289, 1.4323275992646813];;;;;;270102;1;2023-12-04_16h09.51.777;REPSWITCH1_version1_list2;2022.2.4;143.9459922;
REPSWITCH1/PICTURE_381.png;fresa;type;darkblue;repeat;1;T;1;3;2;1;Stim2_Set1;0;None;20;19;20;0;19;19;19;;;;;;;;;;;;;;;;;;;;;;;109.3746108;110.5067158;110.5067158;110.5067158;110.5067158;110.5067158;110.5067158;110.5067158;110.5067158;['f', 'r', 'e', 's', 'a'];0;fresa;C:\2023\REPSWITCH21092023\REPSWITCH_excgange\REPSWITCH_excgange\data/270102_REPSWITCH1_version1_list2_2023-12-04_16h09.51.777_micRespv1l2_recorded\recording_micRespv1l2_2023-12-04_16h11.37.951.wav;113.5348578;;None;113.5348578;113.5348578;113.5348578;113.5348578;113.5348578;113.5348578;[0.8833326995372772, 1.0350065995007753, 1.0777893997728825, 1.2431953996419907, 1.3429004997015];;;;;;270102;1;2023-12-04_16h09.51.777;REPSWITCH1_version1_list2;2022.2.4;143.9459922;
REPSWITCH1/PICTURE_8.png;pierna;speak;gold;filler;2;F;1;3;2;1;Stim3_Set4;0;None;21;20;21;0;20;20;20;;;;;;;;;;;;;;;;;;;;;;;114.0349212;115.1601081;115.1601081;115.1601081;115.1601081;115.1601081;115.1601081;115.1601081;115.1601081;None;0;;C:\2023\REPSWITCH21092023\REPSWITCH_excgange\REPSWITCH_excgange\data/270102_REPSWITCH1_version1_list2_2023-12-04_16h09.51.777_micRespv1l2_recorded\recording_micRespv1l2_2023-12-04_16h11.42.604.wav;118.1812877;118.6813951;None;118.1812877;118.1812877;118.1812877;118.1812877;118.1812877;118.1812877;;;;;;;270102;1;2023-12-04_16h09.51.777;REPSWITCH1_version1_list2;2022.2.4;143.9459922;
REPSWITCH1/PICTURE_48.png;bombero;speak;gold;filler;2;F;1;3;2;1;Stim7_Set4;0;None;22;21;22;0;21;21;21;;;;;;;;;;;;;;;;;;;;;;;118.6813951;119.7371683;119.7371683;119.7371683;119.7371683;119.7371683;119.7371683;119.7371683;119.7371683;None;0;;C:\2023\REPSWITCH21092023\REPSWITCH_excgange\REPSWITCH_excgange\data/270102_REPSWITCH1_version1_list2_2023-12-04_16h09.51.777_micRespv1l2_recorded\recording_micRespv1l2_2023-12-04_16h11.47.181.wav;122.7652572;;None;122.7652572;122.7652572;122.7652572;122.7652572;122.7652572;122.7652572;;;;;;;270102;1;2023-12-04_16h09.51.777;REPSWITCH1_version1_list2;2022.2.4;143.9459922;
REPSWITCH1/PICTURE_135.png;traje;type;darkblue;nontarget;1;NT;1;3;2;1;Stim3_Set1;1;switch;23;22;23;0;22;22;22;;;;;;;;;;;;;;;;;;;;;;;123.2653148;124.3279512;124.3279512;124.3279512;124.3279512;124.3279512;124.3279512;124.3279512;124.3279512;['t', 'r', 'a', 'j', 'e'];0;traje;C:\2023\REPSWITCH21092023\REPSWITCH_excgange\REPSWITCH_excgange\data/270102_REPSWITCH1_version1_list2_2023-12-04_16h09.51.777_micRespv1l2_recorded\recording_micRespv1l2_2023-12-04_16h11.51.771.wav;127.3492076;127.8493363;None;127.3492076;127.3492076;127.3492076;127.3492076;127.3492076;127.3492076;[1.0589791997335851, 1.2219036999158561, 1.3240248998627067, 1.5828004996292293, 1.7024037996307015];;;;;;270102;1;2023-12-04_16h09.51.777;REPSWITCH1_version1_list2;2022.2.4;143.9459922;
REPSWITCH1/PICTURE_135.png;traje;type;darkblue;repeat;1;T;1;3;2;1;Stim3_Set1;0;None;24;23;24;0;23;23;23;;;;;;;;;;;;;;;;;;;;;;;127.8493363;129.0369818;129.0369818;129.0369818;129.0369818;129.0369818;129.0369818;129.0369818;129.0369818;['t', 'r', 'a', 'j', 'e'];0;traje;C:\2023\REPSWITCH21092023\REPSWITCH_excgange\REPSWITCH_excgange\data/270102_REPSWITCH1_version1_list2_2023-12-04_16h09.51.777_micRespv1l2_recorded\recording_micRespv1l2_2023-12-04_16h11.56.483.wav;132.0651013;;None;132.0651013;132.0651013;132.0651013;132.0651013;132.0651013;132.0651013;[0.8724032999016345, 1.0507962997071445, 1.1255352995358407, 1.458661399781704, 1.5822782996110618];;;;;;270102;1;2023-12-04_16h09.51.777;REPSWITCH1_version1_list2;2022.2.4;143.9459922;
REPSWITCH1/PICTURE_19.png;pavo;type;darkblue;nontarget;1;NT;1;3;2;1;Stim5_Set1;1;repeat;25;24;25;0;24;24;24;;;;;;;;;;;;;;;;;;;;;;;132.5651549;133.593087;133.593087;133.593087;133.593087;133.593087;133.593087;133.593087;133.593087;['p', 'a', 'v', 'o'];0;pavo;C:\2023\REPSWITCH21092023\REPSWITCH_excgange\REPSWITCH_excgange\data/270102_REPSWITCH1_version1_list2_2023-12-04_16h09.51.777_micRespv1l2_recorded\recording_micRespv1l2_2023-12-04_16h12.01.038.wav;136.6212491;;None;136.6212491;136.6212491;136.6212491;136.6212491;136.6212491;136.6212491;[0.8539570993743837, 0.9516154993325472, 1.233926599379629, 1.3734552995301783];;;;;;270102;1;2023-12-04_16h09.51.777;REPSWITCH1_version1_list2;2022.2.4;143.9459922;
REPSWITCH1/PICTURE_19.png;pavo;speak;gold;switch;2;T;1;3;2;1;Stim5_Set1;0;None;26;25;26;0;25;25;25;;;;;;;;;;;;;;;;;;;;;;;137.1212981;138.3159169;138.3159169;138.3159169;138.3159169;138.3159169;138.3159169;138.3159169;138.3159169;None;0;;C:\2023\REPSWITCH21092023\REPSWITCH_excgange\REPSWITCH_excgange\data/270102_REPSWITCH1_version1_list2_2023-12-04_16h09.51.777_micRespv1l2_recorded\recording_micRespv1l2_2023-12-04_16h12.05.762.wav;141.3441095;;None;141.3441095;141.3441095;141.3441095;141.3441095;141.3441095;141.3441095;;;;;;;270102;1;2023-12-04_16h09.51.777;REPSWITCH1_version1_list2;2022.2.4;143.9459922;
REPSWITCH1/PICTURE_142.png;vaso;speak;gold;filler;2;F;2;3;2;1;Stim7_Set1;0;None;27;26;27;0;26;26;26;;;;;;;;;;;;;;;;;;;;;;;141.8441438;142.983208;142.983208;142.983208;142.983208;142.983208;142.983208;142.983208;142.983208;None;0;;C:\2023\REPSWITCH21092023\REPSWITCH_excgange\REPSWITCH_excgange\data/270102_REPSWITCH1_version1_list2_2023-12-04_16h09.51.777_micRespv1l2_recorded\recording_micRespv1l2_2023-12-04_16h12.10.427.wav;146.0044121;146.5044939;None;146.0044121;146.0044121;146.0044121;146.0044121;146.0044121;146.0044121;;;;;;;270102;1;2023-12-04_16h09.51.777;REPSWITCH1_version1_list2;2022.2.4;143.9459922;
REPSWITCH1/PICTURE_135.png;traje;type;darkblue;filler;1;F;2;3;2;1;Stim3_Set1;0;None;28;27;28;0;27;27;27;;;;;;;;;;;;;;;;;;;;;;;146.5044939;147.6296953;147.6296953;147.6296953;147.6296953;147.6296953;147.6296953;147.6296953;147.6296953;['t', 'r', 'a', 'j', 'e'];0;traje;C:\2023\REPSWITCH21092023\REPSWITCH_excgange\REPSWITCH_excgange\data/270102_REPSWITCH1_version1_list2_2023-12-04_16h09.51.777_micRespv1l2_recorded\recording_micRespv1l2_2023-12-04_16h12.15.074.wav;150.6577688;;None;150.6577688;150.6577688;150.6577688;150.6577688;150.6577688;150.6577688;[0.8068808997049928, 0.9708899999968708, 1.088924499694258, 1.3168118000030518, 1.43792329961434];;;;;;270102;1;2023-12-04_16h09.51.777;REPSWITCH1_version1_list2;2022.2.4;143.9459922;
REPSWITCH1/PICTURE_446.png;cerdo;type;darkblue;nontarget;1;NT;2;3;2;1;Stim7_Set2;0;None;29;28;29;0;28;28;28;;;;;;;;;;;;;;;;;;;;;;;151.1578563;152.310824;152.310824;152.310824;152.310824;152.310824;152.310824;152.310824;152.310824;['c', 'e', 'r', 'd', 'o'];0;cerdo;C:\2023\REPSWITCH21092023\REPSWITCH_excgange\REPSWITCH_excgange\data/270102_REPSWITCH1_version1_list2_2023-12-04_16h09.51.777_micRespv1l2_recorded\recording_micRespv1l2_2023-12-04_16h12.19.756.wav;155.3389739;155.8390518;None;155.3389739;155.3389739;155.3389739;155.3389739;155.3389739;155.3389739;[1.2743446994572878, 1.3251226996071637, 1.4944074996747077, 1.6716552996076643, 1.8338354998268187];;;;;;270102;1;2023-12-04_16h09.51.777;REPSWITCH1_version1_list2;2022.2.4;143.9459922;
REPSWITCH1/PICTURE_446.png;cerdo;type;darkblue;repeat;1;T;2;3;2;1;Stim7_Set2;0;None;30;29;30;0;29;29;29;;;;;;;;;;;;;;;;;;;;;;;155.8390518;156.915573;156.915573;156.915573;156.915573;156.915573;156.915573;156.915573;156.915573;['c', 'e', 'r', 'd', 'o'];0;cerdo;C:\2023\REPSWITCH21092023\REPSWITCH_excgange\REPSWITCH_excgange\data/270102_REPSWITCH1_version1_list2_2023-12-04_16h09.51.777_micRespv1l2_recorded\recording_micRespv1l2_2023-12-04_16h12.24.360.wav;159.9437387;;None;159.9437387;159.9437387;159.9437387;159.9437387;159.9437387;159.9437387;[0.7390864994376898, 0.8420411995612085, 0.9107751995325089, 1.1001837993972003, 1.3161753993481398];;;;;;270102;1;2023-12-04_16h09.51.777;REPSWITCH1_version1_list2;2022.2.4;143.9459922;
REPSWITCH1/PICTURE_16.png;cazador;speak;gold;filler;2;F;2;3;2;1;Stim6_Set1;0;None;31;30;31;0;30;30;30;;;;;;;;;;;;;;;;;;;;;;;160.4437948;161.4509088;161.4509088;161.4509088;161.4509088;161.4509088;161.4509088;161.4509088;161.4509088;None;0;;C:\2023\REPSWITCH21092023\REPSWITCH_excgange\REPSWITCH_excgange\data/270102_REPSWITCH1_version1_list2_2023-12-04_16h09.51.777_micRespv1l2_recorded\recording_micRespv1l2_2023-12-04_16h12.28.895.wav;164.4791021;;None;164.4791021;164.4791021;164.4791021;164.4791021;164.4791021;164.4791021;;;;;;;270102;1;2023-12-04_16h09.51.777;REPSWITCH1_version1_list2;2022.2.4;143.9459922;
REPSWITCH1/PICTURE_552.png;manzana;type;darkblue;nontarget;1;NT;2;3;2;1;Stim6_Set2;1;switch;32;31;32;0;31;31;31;;;;;;;;;;;;;;;;;;;;;;;164.9792111;166.1042678;166.1042678;166.1042678;166.1042678;166.1042678;166.1042678;166.1042678;166.1042678;['m', 'a', 'n', 'z', 'a', 'n', 'a'];0;manzana;C:\2023\REPSWITCH21092023\REPSWITCH_excgange\REPSWITCH_excgange\data/270102_REPSWITCH1_version1_list2_2023-12-04_16h09.51.777_micRespv1l2_recorded\recording_micRespv1l2_2023-12-04_16h12.33.549.wav;169.1255209;169.6255785;None;169.1255209;169.1255209;169.1255209;169.1255209;169.1255209;169.1255209;[0.8253601999022067, 0.8891638997010887, 1.033638299908489, 1.1971684996969998, 1.3257291996851563, 1.5559261995367706, 1.6823499999009073];;;;;;270102;1;2023-12-04_16h09.51.777;REPSWITCH1_version1_list2;2022.2.4;143.9459922;
REPSWITCH1/PICTURE_552.png;manzana;type;darkblue;repeat;1;T;2;3;2;1;Stim6_Set2;0;None;33;32;33;0;32;32;32;;;;;;;;;;;;;;;;;;;;;;;169.6255785;170.7994146;170.7994146;170.7994146;170.7994146;170.7994146;170.7994146;170.7994146;170.7994146;['m', 'a', 'n', 'z', 'a', 'n', 'a'];0;manzana;C:\2023\REPSWITCH21092023\REPSWITCH_excgange\REPSWITCH_excgange\data/270102_REPSWITCH1_version1_list2_2023-12-04_16h09.51.777_micRespv1l2_recorded\recording_micRespv1l2_2023-12-04_16h12.38.244.wav;173.8275402;;None;173.8275402;173.8275402;173.8275402;173.8275402;173.8275402;173.8275402;[0.8647247995249927, 0.9544650996103883, 1.2069275993853807, 1.3985903994180262, 1.5331260995008051, 1.7630162998102605, 1.8717048997059464];;;;;;270102;1;2023-12-04_16h09.51.777;REPSWITCH1_version1_list2;2022.2.4;143.9459922;
REPSWITCH1/PICTURE_517.png;cuerda;type;darkblue;nontarget;1;NT;2;3;2;1;Stim4_Set2;0;None;34;33;34;0;33;33;33;;;;;;;;;;;;;;;;;;;;;;;174.3275933;175.397152;175.397152;175.397152;175.397152;175.397152;175.397152;175.397152;175.397152;['c', 'u', 'e', 'r', 'd', 'a'];0;cuerda;C:\2023\REPSWITCH21092023\REPSWITCH_excgange\REPSWITCH_excgange\data/270102_REPSWITCH1_version1_list2_2023-12-04_16h09.51.777_micRespv1l2_recorded\recording_micRespv1l2_2023-12-04_16h12.42.842.wav;178.425356;;None;178.425356;178.425356;178.425356;178.425356;178.425356;178.425356;[0.8921960997395217, 1.0556993996724486, 1.1623769993893802, 1.3288236996158957, 1.5225444994866848, 1.7198705994524062];;;;;;270102;1;2023-12-04_16h09.51.777;REPSWITCH1_version1_list2;2022.2.4;143.9459922;
REPSWITCH1/PICTURE_517.png;cuerda;speak;gold;switch;2;T;2;3;2;1;Stim4_Set2;0;None;35;34;35;0;34;34;34;;;;;;;;;;;;;;;;;;;;;;;178.925414;179.9811146;179.9811146;179.9811146;179.9811146;179.9811146;179.9811146;179.9811146;179.9811146;None;0;;C:\2023\REPSWITCH21092023\REPSWITCH_excgange\REPSWITCH_excgange\data/270102_REPSWITCH1_version1_list2_2023-12-04_16h09.51.777_micRespv1l2_recorded\recording_micRespv1l2_2023-12-04_16h12.47.426.wav;183.0023076;183.5023913;None;183.0023076;183.0023076;183.0023076;183.0023076;183.0023076;183.0023076;;;;;;;270102;1;2023-12-04_16h09.51.777;REPSWITCH1_version1_list2;2022.2.4;143.9459922;
REPSWITCH1/PICTURE_169.png;espalda;speak;gold;filler;2;F;2;3;2;1;Stim8_Set1;1;repeat;36;35;36;0;35;35;35;;;;;;;;;;;;;;;;;;;;;;;183.5023913;184.6622972;184.6622972;184.6622972;184.6622972;184.6622972;184.6622972;184.6622972;184.6622972;None;0;;C:\2023\REPSWITCH21092023\REPSWITCH_excgange\REPSWITCH_excgange\data/270102_REPSWITCH1_version1_list2_2023-12-04_16h09.51.777_micRespv1l2_recorded\recording_micRespv1l2_2023-12-04_16h12.52.106.wav;187.6835103;188.1835637;None;187.6835103;187.6835103;187.6835103;187.6835103;187.6835103;187.6835103;;;;;;;270102;1;2023-12-04_16h09.51.777;REPSWITCH1_version1_list2;2022.2.4;143.9459922;
REPSWITCH1/PICTURE_30.png;granja;speak;gold;nontarget;2;NT;2;3;2;1;Stim5_Set2;1;repeat;37;36;37;0;36;36;36;;;;;;;;;;;;;;;;;;;;;;;188.1835637;189.3156785;189.3156785;189.3156785;189.3156785;189.3156785;189.3156785;189.3156785;189.3156785;None;0;;C:\2023\REPSWITCH21092023\REPSWITCH_excgange\REPSWITCH_excgange\data/270102_REPSWITCH1_version1_list2_2023-12-04_16h09.51.777_micRespv1l2_recorded\recording_micRespv1l2_2023-12-04_16h12.56.760.wav;192.336864;192.8369246;None;192.336864;192.336864;192.336864;192.336864;192.336864;192.336864;;;;;;;270102;1;2023-12-04_16h09.51.777;REPSWITCH1_version1_list2;2022.2.4;143.9459922;
REPSWITCH1/PICTURE_30.png;granja;type;darkblue;switch;1;T;2;3;2;1;Stim5_Set2;0;None;38;37;38;0;37;37;37;;;;;;;;;;;;;;;;;;;;;;;192.8369246;193.9829561;193.9829561;193.9829561;193.9829561;193.9829561;193.9829561;193.9829561;193.9829561;['g', 'r', 'a', 'n', 'j', 'a'];0;granja;C:\2023\REPSWITCH21092023\REPSWITCH_excgange\REPSWITCH_excgange\data/270102_REPSWITCH1_version1_list2_2023-12-04_16h09.51.777_micRespv1l2_recorded\recording_micRespv1l2_2023-12-04_16h13.01.428.wav;197.0111243;;None;197.0111243;197.0111243;197.0111243;197.0111243;197.0111243;197.0111243;[1.0019752997905016, 1.1943285996094346, 1.2683166996575892, 1.586627199780196, 1.7729740999639034, 1.8616299000568688];;;;;;270102;1;2023-12-04_16h09.51.777;REPSWITCH1_version1_list2;2022.2.4;143.9459922;
REPSWITCH1/PICTURE_128.png;muñeca;type;darkblue;filler;1;F;2;3;2;1;Stim4_Set1;1;repeat;39;38;39;0;38;38;38;;;;;;;;;;;;;;;;;;;;;;;197.5111841;198.6433418;198.6433418;198.6433418;198.6433418;198.6433418;198.6433418;198.6433418;198.6433418;['m', 'u', 'ñ', 'e', 'c', 'a'];0;muñeca;C:\2023\REPSWITCH21092023\REPSWITCH_excgange\REPSWITCH_excgange\data/270102_REPSWITCH1_version1_list2_2023-12-04_16h09.51.777_micRespv1l2_recorded\recording_micRespv1l2_2023-12-04_16h13.06.088.wav;201.6715299;;None;201.6715299;201.6715299;201.6715299;201.6715299;201.6715299;201.6715299;[0.8559895996004343, 1.0501100993715227, 1.289304199628532, 1.366006599739194, 1.6394527996890247, 1.7179084992967546];;;;;;270102;1;2023-12-04_16h09.51.777;REPSWITCH1_version1_list2;2022.2.4;143.9459922;
REPSWITCH1/PICTURE_199.png;falda;type;darkblue;nontarget;1;NT;2;3;2;1;Stim8_Set2;0;None;40;39;40;0;39;39;39;;;;;;;;;;;;;;;;;;;;;;;202.1714883;203.3661074;203.3661074;203.3661074;203.3661074;203.3661074;203.3661074;203.3661074;203.3661074;['f', 'a', 'l', 'd', 'a'];0;falda;C:\2023\REPSWITCH21092023\REPSWITCH_excgange\REPSWITCH_excgange\data/270102_REPSWITCH1_version1_list2_2023-12-04_16h09.51.777_micRespv1l2_recorded\recording_micRespv1l2_2023-12-04_16h13.10.812.wav;206.3943766;;None;206.3943766;206.3943766;206.3943766;206.3943766;206.3943766;206.3943766;[0.7921429993584752, 0.8883103993721306, 1.1023308993317187, 1.4021258996799588, 1.5396625995635986];;;;;;270102;1;2023-12-04_16h09.51.777;REPSWITCH1_version1_list2;2022.2.4;143.9459922;
REPSWITCH1/PICTURE_199.png;falda;speak;gold;switch;2;T;2;3;2;1;Stim8_Set2;0;None;41;40;41;0;40;40;40;;;;;;;;;;;;;;;;;;;;;;;206.8943659;208.0125654;208.0125654;208.0125654;208.0125654;208.0125654;208.0125654;208.0125654;208.0125654;None;0;;C:\2023\REPSWITCH21092023\REPSWITCH_excgange\REPSWITCH_excgange\data/270102_REPSWITCH1_version1_list2_2023-12-04_16h09.51.777_micRespv1l2_recorded\recording_micRespv1l2_2023-12-04_16h13.15.457.wav;211.0407382;;None;211.0407382;211.0407382;211.0407382;211.0407382;211.0407382;211.0407382;;;;;;;270102;1;2023-12-04_16h09.51.777;REPSWITCH1_version1_list2;2022.2.4;143.9459922;
REPSWITCH1/PICTURE_152.png;caracol;speak;gold;nontarget;2;NT;2;3;2;1;Stim2_Set2;1;switch;42;41;42;0;41;41;41;;;;;;;;;;;;;;;;;;;;;;;211.5408571;212.6312207;212.6312207;212.6312207;212.6312207;212.6312207;212.6312207;212.6312207;212.6312207;None;0;;C:\2023\REPSWITCH21092023\REPSWITCH_excgange\REPSWITCH_excgange\data/270102_REPSWITCH1_version1_list2_2023-12-04_16h09.51.777_micRespv1l2_recorded\recording_micRespv1l2_2023-12-04_16h13.20.076.wav;215.6524595;216.152531;None;215.6524595;215.6524595;215.6524595;215.6524595;215.6524595;215.6524595;;;;;;;270102;1;2023-12-04_16h09.51.777;REPSWITCH1_version1_list2;2022.2.4;143.9459922;
REPSWITCH1/PICTURE_152.png;caracol;speak;gold;repeat;2;T;2;3;2;1;Stim2_Set2;0;None;43;42;43;0;42;42;42;;;;;;;;;;;;;;;;;;;;;;;216.152531;217.3401688;217.3401688;217.3401688;217.3401688;217.3401688;217.3401688;217.3401688;217.3401688;None;0;;C:\2023\REPSWITCH21092023\REPSWITCH_excgange\REPSWITCH_excgange\data/270102_REPSWITCH1_version1_list2_2023-12-04_16h09.51.777_micRespv1l2_recorded\recording_micRespv1l2_2023-12-04_16h13.24.785.wav;220.3683632;;None;220.3683632;220.3683632;220.3683632;220.3683632;220.3683632;220.3683632;;;;;;;270102;1;2023-12-04_16h09.51.777;REPSWITCH1_version1_list2;2022.2.4;143.9459922;
REPSWITCH1/PICTURE_381.png;fresa;type;darkblue;filler;1;F;2;3;2;1;Stim2_Set1;0;None;44;43;44;0;43;43;43;;;;;;;;;;;;;;;;;;;;;;;220.8684246;221.9449365;221.9449365;221.9449365;221.9449365;221.9449365;221.9449365;221.9449365;221.9449365;['f', 'r', 'e', 's', 'a'];0;fresa;C:\2023\REPSWITCH21092023\REPSWITCH_excgange\REPSWITCH_excgange\data/270102_REPSWITCH1_version1_list2_2023-12-04_16h09.51.777_micRespv1l2_recorded\recording_micRespv1l2_2023-12-04_16h13.29.390.wav;224.9731294;;None;224.9731294;224.9731294;224.9731294;224.9731294;224.9731294;224.9731294;[0.8265874995850027, 1.0069806994870305, 1.3675869996659458, 1.5369763993658125, 1.6785338995978236];;;;;;270102;1;2023-12-04_16h09.51.777;REPSWITCH1_version1_list2;2022.2.4;143.9459922;
REPSWITCH1/PICTURE_175.png;pintor;speak;gold;nontarget;2;NT;2;3;2;1;Stim1_Set2;1;switch;45;44;45;0;44;44;44;;;;;;;;;;;;;;;;;;;;;;;225.4731874;226.5358237;226.5358237;226.5358237;226.5358237;226.5358237;226.5358237;226.5358237;226.5358237;None;0;;C:\2023\REPSWITCH21092023\REPSWITCH_excgange\REPSWITCH_excgange\data/270102_REPSWITCH1_version1_list2_2023-12-04_16h09.51.777_micRespv1l2_recorded\recording_micRespv1l2_2023-12-04_16h13.33.981.wav;229.5640143;;None;229.5640143;229.5640143;229.5640143;229.5640143;229.5640143;229.5640143;;;;;;;270102;1;2023-12-04_16h09.51.777;REPSWITCH1_version1_list2;2022.2.4;143.9459922;
REPSWITCH1/PICTURE_175.png;pintor;speak;gold;repeat;2;T;2;3;2;1;Stim1_Set2;0;None;46;45;46;0;45;45;45;;;;;;;;;;;;;;;;;;;;;;;230.0640646;231.2656121;231.2656121;231.2656121;231.2656121;231.2656121;231.2656121;231.2656121;231.2656121;None;0;;C:\2023\REPSWITCH21092023\REPSWITCH_excgange\REPSWITCH_excgange\data/270102_REPSWITCH1_version1_list2_2023-12-04_16h09.51.777_micRespv1l2_recorded\recording_micRespv1l2_2023-12-04_16h13.38.710.wav;234.2868601;234.7868942;None;234.2868601;234.2868601;234.2868601;234.2868601;234.2868601;234.2868601;;;;;;;270102;1;2023-12-04_16h09.51.777;REPSWITCH1_version1_list2;2022.2.4;143.9459922;
REPSWITCH1/PICTURE_178.png;puente;type;darkblue;filler;1;F;2;3;2;1;Stim1_Set1;0;None;47;46;47;0;46;46;46;;;;;;;;;;;;;;;;;;;;;;;234.7868942;235.8634658;235.8634658;235.8634658;235.8634658;235.8634658;235.8634658;235.8634658;235.8634658;['p', 'u', 'e', 'n', 't', 'e'];0;puente;C:\2023\REPSWITCH21092023\REPSWITCH_excgange\REPSWITCH_excgange\data/270102_REPSWITCH1_version1_list2_2023-12-04_16h09.51.777_micRespv1l2_recorded\recording_micRespv1l2_2023-12-04_16h13.43.308.wav;238.8916834;;None;238.8916834;238.8916834;238.8916834;238.8916834;238.8916834;238.8916834;[0.8726435997523367, 1.1208134996704757, 1.1786273997277021, 1.3066013995558023, 1.4919273997657, 1.5387662998400629];;;;;;270102;1;2023-12-04_16h09.51.777;REPSWITCH1_version1_list2;2022.2.4;143.9459922;
REPSWITCH1/PICTURE_19.png;pavo;speak;gold;filler;2;F;2;3;2;1;Stim5_Set1;0;None;48;47;48;0;47;47;47;;;;;;;;;;;;;;;;;;;;;;;239.3916951;240.5169007;240.5169007;240.5169007;240.5169007;240.5169007;240.5169007;240.5169007;240.5169007;None;0;;C:\2023\REPSWITCH21092023\REPSWITCH_excgange\REPSWITCH_excgange\data/270102_REPSWITCH1_version1_list2_2023-12-04_16h09.51.777_micRespv1l2_recorded\recording_micRespv1l2_2023-12-04_16h13.47.962.wav;243.5451129;;None;243.5451129;243.5451129;243.5451129;243.5451129;243.5451129;243.5451129;;;;;;;270102;1;2023-12-04_16h09.51.777;REPSWITCH1_version1_list2;2022.2.4;143.9459922;
REPSWITCH1/PICTURE_264.png;mano;speak;gold;nontarget;2;NT;2;3;2;1;Stim3_Set2;1;repeat;49;48;49;0;48;48;48;;;;;;;;;;;;;;;;;;;;;;;244.0450732;245.0730632;245.0730632;245.0730632;245.0730632;245.0730632;245.0730632;245.0730632;245.0730632;None;0;;C:\2023\REPSWITCH21092023\REPSWITCH_excgange\REPSWITCH_excgange\data/270102_REPSWITCH1_version1_list2_2023-12-04_16h09.51.777_micRespv1l2_recorded\recording_micRespv1l2_2023-12-04_16h13.52.518.wav;248.101173;;None;248.101173;248.101173;248.101173;248.101173;248.101173;248.101173;;;;;;;270102;1;2023-12-04_16h09.51.777;REPSWITCH1_version1_list2;2022.2.4;143.9459922;
REPSWITCH1/PICTURE_264.png;mano;type;darkblue;switch;1;T;2;3;2;1;Stim3_Set2;0;None;50;49;50;0;49;49;49;;;;;;;;;;;;;;;;;;;;;;;248.6012395;249.7541461;249.7541461;249.7541461;249.7541461;249.7541461;249.7541461;249.7541461;249.7541461;['m', 'a', 'n', 'o'];0;mano;C:\2023\REPSWITCH21092023\REPSWITCH_excgange\REPSWITCH_excgange\data/270102_REPSWITCH1_version1_list2_2023-12-04_16h09.51.777_micRespv1l2_recorded\recording_micRespv1l2_2023-12-04_16h13.57.199.wav;252.782344;253.2823931;None;252.782344;252.782344;252.782344;252.782344;252.782344;252.782344;[0.858630099799484, 0.9134416999295354, 1.1419362998567522, 1.3861273997463286];;;;;;270102;1;2023-12-04_16h09.51.777;REPSWITCH1_version1_list2;2022.2.4;143.9459922;
REPSWITCH1/PICTURE_446.png;cerdo;type;darkblue;filler;1;F;3;3;2;1;Stim7_Set2;0;None;51;50;51;0;50;50;50;;;;;;;;;;;;;;;;;;;;;;;253.2823931;254.3519737;254.3519737;254.3519737;254.3519737;254.3519737;254.3519737;254.3519737;254.3519737;['c', 'e', 'r', 'd', 'o'];0;cerdo;C:\2023\REPSWITCH21092023\REPSWITCH_excgange\REPSWITCH_excgange\data/270102_REPSWITCH1_version1_list2_2023-12-04_16h09.51.777_micRespv1l2_recorded\recording_micRespv1l2_2023-12-04_16h14.01.797.wav;257.3732158;257.8733262;space;257.3732158;257.3732158;257.3732158;257.3732158;257.3732158;257.3732158;[0.8938901997171342, 0.968623099848628, 1.068293099757284, 1.1739159999415278, 1.4125958997756243];257.8733262;257.8733262;15.9924443;;;270102;1;2023-12-04_16h09.51.777;REPSWITCH1_version1_list2;2022.2.4;143.9459922;
REPSWITCH1/PICTURE_235.png;aguja;type;darkblue;nontarget;1;NT;3;3;2;1;Stim4_Set3;1;repeat;52;51;52;0;51;51;51;;;;;;;;;;;;;;;;;;;;;;;273.8753946;274.9103222;274.9103222;274.9103222;274.9103222;274.9103222;274.9103222;274.9103222;274.9103222;['a', 'g', 'u', 'j', 'a'];0;aguja;C:\2023\REPSWITCH21092023\REPSWITCH_excgange\REPSWITCH_excgange\data/270102_REPSWITCH1_version1_list2_2023-12-04_16h09.51.777_micRespv1l2_recorded\recording_micRespv1l2_2023-12-04_16h14.22.355.wav;277.9314564;278.4315544;None;277.9314564;277.9314564;277.9314564;277.9314564;277.9314564;277.9314564;[1.0003981995396316, 1.1502543995156884, 1.3674886994995177, 1.5469178995117545, 1.6196830994449556];;;;;;270102;1;2023-12-04_16h09.51.777;REPSWITCH1_version1_list2;2022.2.4;143.9459922;
REPSWITCH1/PICTURE_235.png;aguja;speak;gold;switch;2;T;3;3;2;1;Stim4_Set3;0;None;53;52;53;0;52;52;52;;;;;;;;;;;;;;;;;;;;;;;278.4315544;279.6122772;279.6122772;279.6122772;279.6122772;279.6122772;279.6122772;279.6122772;279.6122772;None;0;;C:\2023\REPSWITCH21092023\REPSWITCH_excgange\REPSWITCH_excgange\data/270102_REPSWITCH1_version1_list2_2023-12-04_16h09.51.777_micRespv1l2_recorded\recording_micRespv1l2_2023-12-04_16h14.27.057.wav;282.6335124;283.1335521;None;282.6335124;282.6335124;282.6335124;282.6335124;282.6335124;282.6335124;;;;;;;270102;1;2023-12-04_16h09.51.777;REPSWITCH1_version1_list2;2022.2.4;143.9459922;
REPSWITCH1/PICTURE_552.png;manzana;speak;gold;filler;2;F;3;3;2;1;Stim6_Set2;0;None;54;53;54;0;53;53;53;;;;;;;;;;;;;;;;;;;;;;;283.1335521;284.3073138;284.3073138;284.3073138;284.3073138;284.3073138;284.3073138;284.3073138;284.3073138;None;0;;C:\2023\REPSWITCH21092023\REPSWITCH_excgange\REPSWITCH_excgange\data/270102_REPSWITCH1_version1_list2_2023-12-04_16h09.51.777_micRespv1l2_recorded\recording_micRespv1l2_2023-12-04_16h14.31.752.wav;287.328552;287.8286176;None;287.328552;287.328552;287.328552;287.328552;287.328552;287.328552;;;;;;;270102;1;2023-12-04_16h09.51.777;REPSWITCH1_version1_list2;2022.2.4;143.9459922;
REPSWITCH1/PICTURE_271.png;conejo;speak;gold;nontarget;2;NT;3;3;2;1;Stim7_Set3;1;repeat;55;54;55;0;54;54;54;;;;;;;;;;;;;;;;;;;;;;;287.8286176;288.9398512;288.9398512;288.9398512;288.9398512;288.9398512;288.9398512;288.9398512;288.9398512;None;0;;C:\2023\REPSWITCH21092023\REPSWITCH_excgange\REPSWITCH_excgange\data/270102_REPSWITCH1_version1_list2_2023-12-04_16h09.51.777_micRespv1l2_recorded\recording_micRespv1l2_2023-12-04_16h14.36.385.wav;291.9680489;;None;291.9680489;291.9680489;291.9680489;291.9680489;291.9680489;291.9680489;;;;;;;270102;1;2023-12-04_16h09.51.777;REPSWITCH1_version1_list2;2022.2.4;143.9459922;
REPSWITCH1/PICTURE_271.png;conejo;type;darkblue;switch;1;T;3;3;2;1;Stim7_Set3;0;None;56;55;56;0;55;55;55;;;;;;;;;;;;;;;;;;;;;;;292.4680982;293.6488404;293.6488404;293.6488404;293.6488404;293.6488404;293.6488404;293.6488404;293.6488404;['c', 'o', 'n', 'e', 'j', 'o'];0;conejo;C:\2023\REPSWITCH21092023\REPSWITCH_excgange\REPSWITCH_excgange\data/270102_REPSWITCH1_version1_list2_2023-12-04_16h09.51.777_micRespv1l2_recorded\recording_micRespv1l2_2023-12-04_16h14.41.093.wav;296.6700565;297.1701919;None;296.6700565;296.6700565;296.6700565;296.6700565;296.6700565;296.6700565;[0.7211260995827615, 0.8688170993700624, 1.1552069992758334, 1.2748133996501565, 1.3755160993896425, 1.5473176995292306];;;;;;270102;1;2023-12-04_16h09.51.777;REPSWITCH1_version1_list2;2022.2.4;143.9459922;
REPSWITCH1/PICTURE_610.png;miel;type;darkblue;nontarget;1;NT;3;3;2;1;Stim2_Set3;1;repeat;57;56;57;0;56;56;56;;;;;;;;;;;;;;;;;;;;;;;297.1701919;298.2744525;298.2744525;298.2744525;298.2744525;298.2744525;298.2744525;298.2744525;298.2744525;['m', 'i', 'e', 'l'];0;miel;C:\2023\REPSWITCH21092023\REPSWITCH_excgange\REPSWITCH_excgange\data/270102_REPSWITCH1_version1_list2_2023-12-04_16h09.51.777_micRespv1l2_recorded\recording_micRespv1l2_2023-12-04_16h14.45.719.wav;301.3026736;;None;301.3026736;301.3026736;301.3026736;301.3026736;301.3026736;301.3026736;[0.8168659997172654, 0.990204599685967, 1.1058125994168222, 1.2296219994314015];;;;;;270102;1;2023-12-04_16h09.51.777;REPSWITCH1_version1_list2;2022.2.4;143.9459922;
REPSWITCH1/PICTURE_610.png;miel;speak;gold;switch;2;T;3;3;2;1;Stim2_Set3;0;None;58;57;58;0;57;57;57;;;;;;;;;;;;;;;;;;;;;;;301.8026512;302.9555888;302.9555888;302.9555888;302.9555888;302.9555888;302.9555888;302.9555888;302.9555888;None;0;;C:\2023\REPSWITCH21092023\REPSWITCH_excgange\REPSWITCH_excgange\data/270102_REPSWITCH1_version1_list2_2023-12-04_16h09.51.777_micRespv1l2_recorded\recording_micRespv1l2_2023-12-04_16h14.50.401.wav;305.98374;;None;305.98374;305.98374;305.98374;305.98374;305.98374;305.98374;;;;;;;270102;1;2023-12-04_16h09.51.777;REPSWITCH1_version1_list2;2022.2.4;143.9459922;
REPSWITCH1/PICTURE_199.png;falda;type;darkblue;filler;1;F;3;3;2;1;Stim8_Set2;0;None;59;58;59;0;58;58;58;;;;;;;;;;;;;;;;;;;;;;;306.4838194;307.5882286;307.5882286;307.5882286;307.5882286;307.5882286;307.5882286;307.5882286;307.5882286;['f', 'a', 'l', 'd', 'a'];0;falda;C:\2023\REPSWITCH21092023\REPSWITCH_excgange\REPSWITCH_excgange\data/270102_REPSWITCH1_version1_list2_2023-12-04_16h09.51.777_micRespv1l2_recorded\recording_micRespv1l2_2023-12-04_16h14.55.033.wav;310.6093787;311.1094526;None;310.6093787;310.6093787;310.6093787;310.6093787;310.6093787;310.6093787;[0.7144760997034609, 0.7932374998927116, 0.9955698000267148, 1.118951499927789, 1.2794073997065425];;;;;;270102;1;2023-12-04_16h09.51.777;REPSWITCH1_version1_list2;2022.2.4;143.9459922;
REPSWITCH1/PICTURE_464.png;goma;speak;gold;nontarget;2;NT;3;3;2;1;Stim6_Set3;1;switch;60;59;60;0;59;59;59;;;;;;;;;;;;;;;;;;;;;;;311.1094526;312.1304804;312.1304804;312.1304804;312.1304804;312.1304804;312.1304804;312.1304804;312.1304804;None;0;;C:\2023\REPSWITCH21092023\REPSWITCH_excgange\REPSWITCH_excgange\data/270102_REPSWITCH1_version1_list2_2023-12-04_16h09.51.777_micRespv1l2_recorded\recording_micRespv1l2_2023-12-04_16h14.59.574.wav;315.1516567;315.6516813;None;315.1516567;315.1516567;315.1516567;315.1516567;315.1516567;315.1516567;;;;;;;270102;1;2023-12-04_16h09.51.777;REPSWITCH1_version1_list2;2022.2.4;143.9459922;
REPSWITCH1/PICTURE_464.png;goma;speak;gold;repeat;2;T;3;3;2;1;Stim6_Set3;0;None;61;60;61;0;60;60;60;;;;;;;;;;;;;;;;;;;;;;;315.6516813;316.693519;316.693519;316.693519;316.693519;316.693519;316.693519;316.693519;316.693519;None;0;;C:\2023\REPSWITCH21092023\REPSWITCH_excgange\REPSWITCH_excgange\data/270102_REPSWITCH1_version1_list2_2023-12-04_16h09.51.777_micRespv1l2_recorded\recording_micRespv1l2_2023-12-04_16h15.04.137.wav;319.7147287;320.2148611;None;319.7147287;319.7147287;319.7147287;319.7147287;319.7147287;319.7147287;;;;;;;270102;1;2023-12-04_16h09.51.777;REPSWITCH1_version1_list2;2022.2.4;143.9459922;
REPSWITCH1/PICTURE_152.png;caracol;type;darkblue;filler;1;F;3;3;2;1;Stim2_Set2;0;None;62;61;62;0;61;61;61;;;;;;;;;;;;;;;;;;;;;;;320.2148611;321.2705865;321.2705865;321.2705865;321.2705865;321.2705865;321.2705865;321.2705865;321.2705865;['c', 'a', 'r', 'a', 'c', 'o', 'l'];0;caracol;C:\2023\REPSWITCH21092023\REPSWITCH_excgange\REPSWITCH_excgange\data/270102_REPSWITCH1_version1_list2_2023-12-04_16h09.51.777_micRespv1l2_recorded\recording_micRespv1l2_2023-12-04_16h15.08.715.wav;324.291738;324.7917841;None;324.291738;324.291738;324.291738;324.291738;324.291738;324.291738;[0.85985739948228, 1.062160199508071, 1.1493045995011926, 1.8998001995496452, 2.0323561998084188, 2.318398999515921, 2.5316784996539354];;;;;;270102;1;2023-12-04_16h09.51.777;REPSWITCH1_version1_list2;2022.2.4;143.9459922;
REPSWITCH1/PICTURE_320.png;iglesia;speak;gold;nontarget;2;NT;3;3;2;1;Stim8_Set3;1;switch;63;62;63;0;62;62;62;;;;;;;;;;;;;;;;;;;;;;;324.7917841;326.0073161;326.0073161;326.0073161;326.0073161;326.0073161;326.0073161;326.0073161;326.0073161;None;0;;C:\2023\REPSWITCH21092023\REPSWITCH_excgange\REPSWITCH_excgange\data/270102_REPSWITCH1_version1_list2_2023-12-04_16h09.51.777_micRespv1l2_recorded\recording_micRespv1l2_2023-12-04_16h15.13.452.wav;329.028443;329.5286077;None;329.028443;329.028443;329.028443;329.028443;329.028443;329.028443;;;;;;;270102;1;2023-12-04_16h09.51.777;REPSWITCH1_version1_list2;2022.2.4;143.9459922;
REPSWITCH1/PICTURE_320.png;iglesia;speak;gold;repeat;2;T;3;3;2;1;Stim8_Set3;0;None;64;63;64;0;63;63;63;;;;;;;;;;;;;;;;;;;;;;;329.5286077;330.6398153;330.6398153;330.6398153;330.6398153;330.6398153;330.6398153;330.6398153;330.6398153;None;0;;C:\2023\REPSWITCH21092023\REPSWITCH_excgange\REPSWITCH_excgange\data/270102_REPSWITCH1_version1_list2_2023-12-04_16h09.51.777_micRespv1l2_recorded\recording_micRespv1l2_2023-12-04_16h15.18.083.wav;333.6610316;334.161167;None;333.6610316;333.6610316;333.6610316;333.6610316;333.6610316;333.6610316;;;;;;;270102;1;2023-12-04_16h09.51.777;REPSWITCH1_version1_list2;2022.2.4;143.9459922;
REPSWITCH1/PICTURE_35.png;oreja;speak;gold;nontarget;2;NT;3;3;2;1;Stim5_Set3;0;None;65;64;65;0;64;64;64;;;;;;;;;;;;;;;;;;;;;;;334.161167;335.2584696;335.2584696;335.2584696;335.2584696;335.2584696;335.2584696;335.2584696;335.2584696;None;0;;C:\2023\REPSWITCH21092023\REPSWITCH_excgange\REPSWITCH_excgange\data/270102_REPSWITCH1_version1_list2_2023-12-04_16h09.51.777_micRespv1l2_recorded\recording_micRespv1l2_2023-12-04_16h15.22.703.wav;338.2796565;338.7797341;None;338.2796565;338.2796565;338.2796565;338.2796565;338.2796565;338.2796565;;;;;;;270102;1;2023-12-04_16h09.51.777;REPSWITCH1_version1_list2;2022.2.4;143.9459922;
REPSWITCH1/PICTURE_35.png;oreja;type;darkblue;switch;1;T;3;3;2;1;Stim5_Set3;0;None;66;65;66;0;65;65;65;;;;;;;;;;;;;;;;;;;;;;;338.7797341;339.8701691;339.8701691;339.8701691;339.8701691;339.8701691;339.8701691;339.8701691;339.8701691;['o', 'r', 'e', 'j', 'a'];0;oreja;C:\2023\REPSWITCH21092023\REPSWITCH_excgange\REPSWITCH_excgange\data/270102_REPSWITCH1_version1_list2_2023-12-04_16h09.51.777_micRespv1l2_recorded\recording_micRespv1l2_2023-12-04_16h15.27.315.wav;342.8983604;;None;342.8983604;342.8983604;342.8983604;342.8983604;342.8983604;342.8983604;[1.0395757998339832, 1.2163109998218715, 1.399104899726808, 1.4816240998916328, 1.5819897996261716];;;;;;270102;1;2023-12-04_16h09.51.777;REPSWITCH1_version1_list2;2022.2.4;143.9459922;
REPSWITCH1/PICTURE_517.png;cuerda;speak;gold;filler;2;F;3;3;2;1;Stim4_Set2;0;None;67;66;67;0;66;66;66;;;;;;;;;;;;;;;;;;;;;;;343.3984257;344.5027931;344.5027931;344.5027931;344.5027931;344.5027931;344.5027931;344.5027931;344.5027931;None;0;;C:\2023\REPSWITCH21092023\REPSWITCH_excgange\REPSWITCH_excgange\data/270102_REPSWITCH1_version1_list2_2023-12-04_16h09.51.777_micRespv1l2_recorded\recording_micRespv1l2_2023-12-04_16h15.31.947.wav;347.5308834;;None;347.5308834;347.5308834;347.5308834;347.5308834;347.5308834;347.5308834;;;;;;;270102;1;2023-12-04_16h09.51.777;REPSWITCH1_version1_list2;2022.2.4;143.9459922;
REPSWITCH1/PICTURE_30.png;granja;type;darkblue;filler;1;F;3;3;2;1;Stim5_Set2;1;switch;68;67;68;0;67;67;67;;;;;;;;;;;;;;;;;;;;;;;348.0309866;349.1631069;349.1631069;349.1631069;349.1631069;349.1631069;349.1631069;349.1631069;349.1631069;['g', 'r', 'a', 'n', 'j', 'a'];0;granja;C:\2023\REPSWITCH21092023\REPSWITCH_excgange\REPSWITCH_excgange\data/270102_REPSWITCH1_version1_list2_2023-12-04_16h09.51.777_micRespv1l2_recorded\recording_micRespv1l2_2023-12-04_16h15.36.609.wav;352.1912474;;None;352.1912474;352.1912474;352.1912474;352.1912474;352.1912474;352.1912474;[0.802524899598211, 0.9767538993619382, 1.0485902996733785, 1.245795399416238, 1.3985883994027972, 1.492416899651289];;;;;;270102;1;2023-12-04_16h09.51.777;REPSWITCH1_version1_list2;2022.2.4;143.9459922;
REPSWITCH1/PICTURE_242.png;cartero;type;darkblue;nontarget;1;NT;3;3;2;1;Stim3_Set3;0;None;69;68;69;0;68;68;68;;;;;;;;;;;;;;;;;;;;;;;352.6913092;353.8512108;353.8512108;353.8512108;353.8512108;353.8512108;353.8512108;353.8512108;353.8512108;['c', 'a', 'r', 't', 'e', 'r', 'r', 'o'];0;carterro;C:\2023\REPSWITCH21092023\REPSWITCH_excgange\REPSWITCH_excgange\data/270102_REPSWITCH1_version1_list2_2023-12-04_16h09.51.777_micRespv1l2_recorded\recording_micRespv1l2_2023-12-04_16h15.41.297.wav;356.8793729;357.3794273;None;356.8793729;356.8793729;356.8793729;356.8793729;356.8793729;356.8793729;[0.8962619993835688, 0.9600750994868577, 1.1135383998043835, 1.2629318996332586, 1.335678699426353, 1.5500447996892035, 1.6186416996642947, 1.7392744994722307];;;;;;270102;1;2023-12-04_16h09.51.777;REPSWITCH1_version1_list2;2022.2.4;143.9459922;
REPSWITCH1/PICTURE_242.png;cartero;type;darkblue;repeat;1;T;3;3;2;1;Stim3_Set3;0;None;70;69;70;0;69;69;69;;;;;;;;;;;;;;;;;;;;;;;357.3794273;358.4976925;358.4976925;358.4976925;358.4976925;358.4976925;358.4976925;358.4976925;358.4976925;['c', 'a', 'r', 't', 'e', 'r', 'o'];0;cartero;C:\2023\REPSWITCH21092023\REPSWITCH_excgange\REPSWITCH_excgange\data/270102_REPSWITCH1_version1_list2_2023-12-04_16h09.51.777_micRespv1l2_recorded\recording_micRespv1l2_2023-12-04_16h15.45.942.wav;361.5257853;;None;361.5257853;361.5257853;361.5257853;361.5257853;361.5257853;361.5257853;[0.7234781994484365, 0.7842646995559335, 0.9148303996771574, 1.0588676994666457, 1.1415847996249795, 1.3262969995848835, 1.4722086996771395];;;;;;270102;1;2023-12-04_16h09.51.777;REPSWITCH1_version1_list2;2022.2.4;143.9459922;
REPSWITCH1/PICTURE_264.png;mano;speak;gold;filler;2;F;3;3;2;1;Stim3_Set2;1;switch;71;70;71;0;70;70;70;;;;;;;;;;;;;;;;;;;;;;;362.0258464;363.1440607;363.1440607;363.1440607;363.1440607;363.1440607;363.1440607;363.1440607;363.1440607;None;0;;C:\2023\REPSWITCH21092023\REPSWITCH_excgange\REPSWITCH_excgange\data/270102_REPSWITCH1_version1_list2_2023-12-04_16h09.51.777_micRespv1l2_recorded\recording_micRespv1l2_2023-12-04_16h15.50.588.wav;366.172254;;None;366.172254;366.172254;366.172254;366.172254;366.172254;366.172254;;;;;;;270102;1;2023-12-04_16h09.51.777;REPSWITCH1_version1_list2;2022.2.4;143.9459922;
REPSWITCH1/PICTURE_576.png;guante;type;darkblue;nontarget;1;NT;3;3;2;1;Stim1_Set3;1;switch;72;71;72;0;71;71;71;;;;;;;;;;;;;;;;;;;;;;;366.6723133;367.7836286;367.7836286;367.7836286;367.7836286;367.7836286;367.7836286;367.7836286;367.7836286;['g', 'u', 'a', 'n', 't', 'e'];0;guante;C:\2023\REPSWITCH21092023\REPSWITCH_excgange\REPSWITCH_excgange\data/270102_REPSWITCH1_version1_list2_2023-12-04_16h09.51.777_micRespv1l2_recorded\recording_micRespv1l2_2023-12-04_16h15.55.228.wav;370.8047689;371.3048457;None;370.8047689;370.8047689;370.8047689;370.8047689;370.8047689;370.8047689;[1.0440985998138785, 1.1606845995411277, 1.2653287998400629, 1.3998994999565184, 1.5932344999164343, 1.6779473996721208];;;;;;270102;1;2023-12-04_16h09.51.777;REPSWITCH1_version1_list2;2022.2.4;143.9459922;
REPSWITCH1/PICTURE_576.png;guante;type;darkblue;repeat;1;T;3;3;2;1;Stim1_Set3;0;None;73;72;73;0;72;72;72;;;;;;;;;;;;;;;;;;;;;;;371.3048457;372.339778;372.339778;372.339778;372.339778;372.339778;372.339778;372.339778;372.339778;['g', 'u', 'a', 'n', 't', 'e'];0;guante;C:\2023\REPSWITCH21092023\REPSWITCH_excgange\REPSWITCH_excgange\data/270102_REPSWITCH1_version1_list2_2023-12-04_16h09.51.777_micRespv1l2_recorded\recording_micRespv1l2_2023-12-04_16h15.59.784.wav;375.3678823;;None;375.3678823;375.3678823;375.3678823;375.3678823;375.3678823;375.3678823;[0.8988983994349837, 1.205508899409324, 1.413115999661386, 1.4937097993679345, 1.7279325993731618, 1.826079599559307];;;;;;270102;1;2023-12-04_16h09.51.777;REPSWITCH1_version1_list2;2022.2.4;143.9459922;
REPSWITCH1/PICTURE_175.png;pintor;speak;gold;filler;2;F;3;3;2;1;Stim1_Set2;0;None;74;73;74;0;73;73;73;;;;;;;;;;;;;;;;;;;;;;;375.8679735;376.9792825;376.9792825;376.9792825;376.9792825;376.9792825;376.9792825;376.9792825;376.9792825;None;0;;C:\2023\REPSWITCH21092023\REPSWITCH_excgange\REPSWITCH_excgange\data/270102_REPSWITCH1_version1_list2_2023-12-04_16h09.51.777_micRespv1l2_recorded\recording_micRespv1l2_2023-12-04_16h16.04.424.wav;380.0004646;380.5004859;None;380.0004646;380.0004646;380.0004646;380.0004646;380.0004646;380.0004646;;;;;;;270102;1;2023-12-04_16h09.51.777;REPSWITCH1_version1_list2;2022.2.4;143.9459922;
REPSWITCH1/PICTURE_498.png;taza;type;darkblue;nontarget;1;NT;4;3;2;1;Stim4_Set4;0;None;75;74;75;0;74;74;74;;;;;;;;;;;;;;;;;;;;;;;380.5004859;381.5979037;381.5979037;381.5979037;381.5979037;381.5979037;381.5979037;381.5979037;381.5979037;['t', 'a', 'z', 'a'];0;taza;C:\2023\REPSWITCH21092023\REPSWITCH_excgange\REPSWITCH_excgange\data/270102_REPSWITCH1_version1_list2_2023-12-04_16h09.51.777_micRespv1l2_recorded\recording_micRespv1l2_2023-12-04_16h16.09.042.wav;384.6191305;385.119194;None;384.6191305;384.6191305;384.6191305;384.6191305;384.6191305;384.6191305;[0.8635801998898387, 0.9273604997433722, 1.197462999727577, 1.3340061996132135];;;;;;270102;1;2023-12-04_16h09.51.777;REPSWITCH1_version1_list2;2022.2.4;143.9459922;
REPSWITCH1/PICTURE_498.png;taza;type;darkblue;repeat;1;T;4;3;2;1;Stim4_Set4;0;None;76;75;76;0;75;75;75;;;;;;;;;;;;;;;;;;;;;;;385.119194;386.2166014;386.2166014;386.2166014;386.2166014;386.2166014;386.2166014;386.2166014;386.2166014;['t', 'a', 'z', 'a'];0;taza;C:\2023\REPSWITCH21092023\REPSWITCH_excgange\REPSWITCH_excgange\data/270102_REPSWITCH1_version1_list2_2023-12-04_16h09.51.777_micRespv1l2_recorded\recording_micRespv1l2_2023-12-04_16h16.13.661.wav;389.237761;389.7378357;None;389.237761;389.237761;389.237761;389.237761;389.237761;389.237761;[0.8669757996685803, 0.9470872995443642, 1.0943813994526863, 1.226938999723643];;;;;;270102;1;2023-12-04_16h09.51.777;REPSWITCH1_version1_list2;2022.2.4;143.9459922;
REPSWITCH1/PICTURE_235.png;aguja;speak;gold;filler;2;F;4;3;2;1;Stim4_Set3;0;None;77;76;77;0;76;76;76;;;;;;;;;;;;;;;;;;;;;;;389.7378357;390.8421662;390.8421662;390.8421662;390.8421662;390.8421662;390.8421662;390.8421662;390.8421662;None;0;;C:\2023\REPSWITCH21092023\REPSWITCH_excgange\REPSWITCH_excgange\data/270102_REPSWITCH1_version1_list2_2023-12-04_16h09.51.777_micRespv1l2_recorded\recording_micRespv1l2_2023-12-04_16h16.18.287.wav;393.863381;394.3635279;None;393.863381;393.863381;393.863381;393.863381;393.863381;393.863381;;;;;;;270102;1;2023-12-04_16h09.51.777;REPSWITCH1_version1_list2;2022.2.4;143.9459922;
REPSWITCH1/PICTURE_338.png;regalo;type;darkblue;nontarget;1;NT;4;3;2;1;Stim6_Set4;1;switch;78;77;78;0;77;77;77;;;;;;;;;;;;;;;;;;;;;;;394.3635279;395.5858633;395.5858633;395.5858633;395.5858633;395.5858633;395.5858633;395.5858633;395.5858633;['r', 'e', 'g', 'a', 'l', 'o'];0;regalo;C:\2023\REPSWITCH21092023\REPSWITCH_excgange\REPSWITCH_excgange\data/270102_REPSWITCH1_version1_list2_2023-12-04_16h09.51.777_micRespv1l2_recorded\recording_micRespv1l2_2023-12-04_16h16.23.030.wav;398.6070892;399.1071337;None;398.6070892;398.6070892;398.6070892;398.6070892;398.6070892;398.6070892;[0.8418246996589005, 0.8937402996234596, 1.0431752996519208, 1.1607700996100903, 1.3302170992828906, 1.4886780995875597];;;;;;270102;1;2023-12-04_16h09.51.777;REPSWITCH1_version1_list2;2022.2.4;143.9459922;
REPSWITCH1/PICTURE_338.png;regalo;speak;gold;switch;2;T;4;3;2;1;Stim6_Set4;0;None;79;78;79;0;78;78;78;;;;;;;;;;;;;;;;;;;;;;;399.1071337;400.1559546;400.1559546;400.1559546;400.1559546;400.1559546;400.1559546;400.1559546;400.1559546;None;0;;C:\2023\REPSWITCH21092023\REPSWITCH_excgange\REPSWITCH_excgange\data/270102_REPSWITCH1_version1_list2_2023-12-04_16h09.51.777_micRespv1l2_recorded\recording_micRespv1l2_2023-12-04_16h16.27.600.wav;403.1771903;403.6771684;None;403.1771903;403.1771903;403.1771903;403.1771903;403.1771903;403.1771903;;;;;;;270102;1;2023-12-04_16h09.51.777;REPSWITCH1_version1_list2;2022.2.4;143.9459922;
REPSWITCH1/PICTURE_719.png;baño;speak;gold;nontarget;2;NT;4;3;2;1;Stim2_Set4;1;repeat;80;79;80;0;79;79;79;;;;;;;;;;;;;;;;;;;;;;;403.6771684;404.78147;404.78147;404.78147;404.78147;404.78147;404.78147;404.78147;404.78147;None;0;;C:\2023\REPSWITCH21092023\REPSWITCH_excgange\REPSWITCH_excgange\data/270102_REPSWITCH1_version1_list2_2023-12-04_16h09.51.777_micRespv1l2_recorded\recording_micRespv1l2_2023-12-04_16h16.32.227.wav;407.8096428;;None;407.8096428;407.8096428;407.8096428;407.8096428;407.8096428;407.8096428;;;;;;;270102;1;2023-12-04_16h09.51.777;REPSWITCH1_version1_list2;2022.2.4;143.9459922;
REPSWITCH1/PICTURE_719.png;baño;speak;gold;repeat;2;T;4;3;2;1;Stim2_Set4;0;None;81;80;81;0;80;80;80;;;;;;;;;;;;;;;;;;;;;;;408.3097104;409.455713;409.455713;409.455713;409.455713;409.455713;409.455713;409.455713;409.455713;None;0;;C:\2023\REPSWITCH21092023\REPSWITCH_excgange\REPSWITCH_excgange\data/270102_REPSWITCH1_version1_list2_2023-12-04_16h09.51.777_micRespv1l2_recorded\recording_micRespv1l2_2023-12-04_16h16.36.900.wav;412.483872;;None;412.483872;412.483872;412.483872;412.483872;412.483872;412.483872;;;;;;;270102;1;2023-12-04_16h09.51.777;REPSWITCH1_version1_list2;2022.2.4;143.9459922;
REPSWITCH1/PICTURE_271.png;conejo;type;darkblue;filler;1;F;4;3;2;1;Stim7_Set3;0;None;82;81;82;0;81;81;81;;;;;;;;;;;;;;;;;;;;;;;412.9839601;414.0049213;414.0049213;414.0049213;414.0049213;414.0049213;414.0049213;414.0049213;414.0049213;['c', 'o', 'n', 'e', 'j', 'o'];0;conejo;C:\2023\REPSWITCH21092023\REPSWITCH_excgange\REPSWITCH_excgange\data/270102_REPSWITCH1_version1_list2_2023-12-04_16h09.51.777_micRespv1l2_recorded\recording_micRespv1l2_2023-12-04_16h16.41.449.wav;417.0331075;417.5331697;None;417.0331075;417.0331075;417.0331075;417.0331075;417.0331075;417.0331075;[0.8685706998221576, 0.9540209998376667, 1.21973259979859, 1.3144102995283902, 1.4801244996488094, 1.6744738998822868];;;;;;270102;1;2023-12-04_16h09.51.777;REPSWITCH1_version1_list2;2022.2.4;143.9459922;
REPSWITCH1/PICTURE_610.png;miel;speak;gold;filler;2;F;4;3;2;1;Stim2_Set3;0;None;83;82;83;0;82;82;82;;;;;;;;;;;;;;;;;;;;;;;417.5331697;418.5819119;418.5819119;418.5819119;418.5819119;418.5819119;418.5819119;418.5819119;418.5819119;None;0;;C:\2023\REPSWITCH21092023\REPSWITCH_excgange\REPSWITCH_excgange\data/270102_REPSWITCH1_version1_list2_2023-12-04_16h09.51.777_micRespv1l2_recorded\recording_micRespv1l2_2023-12-04_16h16.46.026.wav;421.6100627;;None;421.6100627;421.6100627;421.6100627;421.6100627;421.6100627;421.6100627;;;;;;;270102;1;2023-12-04_16h09.51.777;REPSWITCH1_version1_list2;2022.2.4;143.9459922;
REPSWITCH1/PICTURE_687.png;camisa;speak;gold;nontarget;2;NT;4;3;2;1;Stim5_Set4;1;repeat;84;83;84;0;83;83;83;;;;;;;;;;;;;;;;;;;;;;;422.1101988;423.2909325;423.2909325;423.2909325;423.2909325;423.2909325;423.2909325;423.2909325;423.2909325;None;0;;C:\2023\REPSWITCH21092023\REPSWITCH_excgange\REPSWITCH_excgange\data/270102_REPSWITCH1_version1_list2_2023-12-04_16h09.51.777_micRespv1l2_recorded\recording_micRespv1l2_2023-12-04_16h16.50.736.wav;426.3190641;426.8191;None;426.3190641;426.3190641;426.3190641;426.3190641;426.3190641;426.3190641;;;;;;;270102;1;2023-12-04_16h09.51.777;REPSWITCH1_version1_list2;2022.2.4;143.9459922;
REPSWITCH1/PICTURE_687.png;camisa;type;darkblue;switch;1;T;4;3;2;1;Stim5_Set4;0;None;85;84;85;0;84;84;84;;;;;;;;;;;;;;;;;;;;;;;426.8191;427.9165062;427.9165062;427.9165062;427.9165062;427.9165062;427.9165062;427.9165062;427.9165062;['c', 'a', 'm', 'i', 's', 'a'];0;camisa;C:\2023\REPSWITCH21092023\REPSWITCH_excgange\REPSWITCH_excgange\data/270102_REPSWITCH1_version1_list2_2023-12-04_16h09.51.777_micRespv1l2_recorded\recording_micRespv1l2_2023-12-04_16h16.55.360.wav;430.9446416;;None;430.9446416;430.9446416;430.9446416;430.9446416;430.9446416;430.9446416;[0.9651427995413542, 1.1435333993285894, 1.2342271995730698, 1.4265861995518208, 1.4893665993586183, 1.5840738993138075];;;;;;270102;1;2023-12-04_16h09.51.777;REPSWITCH1_version1_list2;2022.2.4;143.9459922;
REPSWITCH1/PICTURE_319.png;vaca;type;darkblue;nontarget;1;NT;4;3;2;1;Stim1_Set4;0;None;86;85;86;0;85;85;85;;;;;;;;;;;;;;;;;;;;;;;431.4447;432.5282232;432.5282232;432.5282232;432.5282232;432.5282232;432.5282232;432.5282232;432.5282232;['v', 'a', 'c', 'a'];0;vaca;C:\2023\REPSWITCH21092023\REPSWITCH_excgange\REPSWITCH_excgange\data/270102_REPSWITCH1_version1_list2_2023-12-04_16h09.51.777_micRespv1l2_recorded\recording_micRespv1l2_2023-12-04_16h16.59.973.wav;435.5563752;;None;435.5563752;435.5563752;435.5563752;435.5563752;435.5563752;435.5563752;[0.7598034995608032, 0.8056144998408854, 1.0129343997687101, 1.0568045997060835];;;;;;270102;1;2023-12-04_16h09.51.777;REPSWITCH1_version1_list2;2022.2.4;143.9459922;
REPSWITCH1/PICTURE_319.png;vaca;speak;gold;switch;2;T;4;3;2;1;Stim1_Set4;0;None;87;86;87;0;86;86;86;;;;;;;;;;;;;;;;;;;;;;;436.056512;437.1051792;437.1051792;437.1051792;437.1051792;437.1051792;437.1051792;437.1051792;437.1051792;None;0;;C:\2023\REPSWITCH21092023\REPSWITCH_excgange\REPSWITCH_excgange\data/270102_REPSWITCH1_version1_list2_2023-12-04_16h09.51.777_micRespv1l2_recorded\recording_micRespv1l2_2023-12-04_16h17.04.550.wav;440.133366;;None;440.133366;440.133366;440.133366;440.133366;440.133366;440.133366;;;;;;;270102;1;2023-12-04_16h09.51.777;REPSWITCH1_version1_list2;2022.2.4;143.9459922;
REPSWITCH1/PICTURE_464.png;goma;type;darkblue;filler;1;F;4;3;2;1;Stim6_Set3;1;switch;88;87;88;0;87;87;87;;;;;;;;;;;;;;;;;;;;;;;440.6334596;441.75867;441.75867;441.75867;441.75867;441.75867;441.75867;441.75867;441.75867;['g', 'o', 'a', 'backspace', 'm', 'a'];0;goma;C:\2023\REPSWITCH21092023\REPSWITCH_excgange\REPSWITCH_excgange\data/270102_REPSWITCH1_version1_list2_2023-12-04_16h09.51.777_micRespv1l2_recorded\recording_micRespv1l2_2023-12-04_16h17.09.203.wav;444.779787;445.2798707;None;444.779787;444.779787;444.779787;444.779787;444.779787;444.779787;[0.8425619998015463, 0.9109845994971693, 1.1421216996386647, 1.7538849995471537, 2.0910767996683717, 2.1488982997834682];;;;;;270102;1;2023-12-04_16h09.51.777;REPSWITCH1_version1_list2;2022.2.4;143.9459922;
REPSWITCH1/PICTURE_728.png;pulpo;speak;gold;nontarget;2;NT;4;3;2;1;Stim8_Set4;1;switch;89;88;89;0;88;88;88;;;;;;;;;;;;;;;;;;;;;;;445.2798707;446.3772513;446.3772513;446.3772513;446.3772513;446.3772513;446.3772513;446.3772513;446.3772513;None;0;;C:\2023\REPSWITCH21092023\REPSWITCH_excgange\REPSWITCH_excgange\data/270102_REPSWITCH1_version1_list2_2023-12-04_16h09.51.777_micRespv1l2_recorded\recording_micRespv1l2_2023-12-04_16h17.13.823.wav;449.4054127;;None;449.4054127;449.4054127;449.4054127;449.4054127;449.4054127;449.4054127;;;;;;;270102;1;2023-12-04_16h09.51.777;REPSWITCH1_version1_list2;2022.2.4;143.9459922;
REPSWITCH1/PICTURE_728.png;pulpo;speak;gold;repeat;2;T;4;3;2;1;Stim8_Set4;0;None;90;89;90;0;89;89;89;;;;;;;;;;;;;;;;;;;;;;;449.9054836;450.9264463;450.9264463;450.9264463;450.9264463;450.9264463;450.9264463;450.9264463;450.9264463;None;0;;C:\2023\REPSWITCH21092023\REPSWITCH_excgange\REPSWITCH_excgange\data/270102_REPSWITCH1_version1_list2_2023-12-04_16h09.51.777_micRespv1l2_recorded\recording_micRespv1l2_2023-12-04_16h17.18.372.wav;453.9545934;;None;453.9545934;453.9545934;453.9545934;453.9545934;453.9545934;453.9545934;;;;;;;270102;1;2023-12-04_16h09.51.777;REPSWITCH1_version1_list2;2022.2.4;143.9459922;
REPSWITCH1/PICTURE_320.png;iglesia;type;darkblue;filler;1;F;4;3;2;1;Stim8_Set3;0;None;91;90;91;0;90;90;90;;;;;;;;;;;;;;;;;;;;;;;454.4546646;455.5451244;455.5451244;455.5451244;455.5451244;455.5451244;455.5451244;455.5451244;455.5451244;['i', 'g', 'l', 'e', 's', 'i', 'a'];0;iglesia;C:\2023\REPSWITCH21092023\REPSWITCH_excgange\REPSWITCH_excgange\data/270102_REPSWITCH1_version1_list2_2023-12-04_16h09.51.777_micRespv1l2_recorded\recording_micRespv1l2_2023-12-04_16h17.22.989.wav;458.5663452;459.0664077;None;458.5663452;458.5663452;458.5663452;458.5663452;458.5663452;458.5663452;[0.9291136995889246, 1.189222999382764, 1.428286999464035, 1.4850902995094657, 1.666604099329561, 1.774271899368614, 1.878947599325329];;;;;;270102;1;2023-12-04_16h09.51.777;REPSWITCH1_version1_list2;2022.2.4;143.9459922;
REPSWITCH1/PICTURE_576.png;guante;speak;gold;filler;2;F;4;3;2;1;Stim1_Set3;0;None;92;91;92;0;91;91;91;;;;;;;;;;;;;;;;;;;;;;;459.0664077;460.2124105;460.2124105;460.2124105;460.2124105;460.2124105;460.2124105;460.2124105;460.2124105;None;0;;C:\2023\REPSWITCH21092023\REPSWITCH_excgange\REPSWITCH_excgange\data/270102_REPSWITCH1_version1_list2_2023-12-04_16h09.51.777_micRespv1l2_recorded\recording_micRespv1l2_2023-12-04_16h17.27.657.wav;463.2405834;;None;463.2405834;463.2405834;463.2405834;463.2405834;463.2405834;463.2405834;;;;;;;270102;1;2023-12-04_16h09.51.777;REPSWITCH1_version1_list2;2022.2.4;143.9459922;
REPSWITCH1/PICTURE_8.png;pierna;speak;gold;nontarget;2;NT;4;3;2;1;Stim3_Set4;1;repeat;93;92;93;0;92;92;92;;;;;;;;;;;;;;;;;;;;;;;463.7406193;464.8866337;464.8866337;464.8866337;464.8866337;464.8866337;464.8866337;464.8866337;464.8866337;None;0;;C:\2023\REPSWITCH21092023\REPSWITCH_excgange\REPSWITCH_excgange\data/270102_REPSWITCH1_version1_list2_2023-12-04_16h09.51.777_micRespv1l2_recorded\recording_micRespv1l2_2023-12-04_16h17.32.331.wav;467.9078902;468.4079911;None;467.9078902;467.9078902;467.9078902;467.9078902;467.9078902;467.9078902;;;;;;;270102;1;2023-12-04_16h09.51.777;REPSWITCH1_version1_list2;2022.2.4;143.9459922;
REPSWITCH1/PICTURE_8.png;pierna;type;darkblue;switch;1;T;4;3;2;1;Stim3_Set4;0;None;94;93;94;0;93;93;93;;;;;;;;;;;;;;;;;;;;;;;468.4079911;469.5122146;469.5122146;469.5122146;469.5122146;469.5122146;469.5122146;469.5122146;469.5122146;['p', 'i', 'e', 'r', 'n', 'a'];0;pierna;C:\2023\REPSWITCH21092023\REPSWITCH_excgange\REPSWITCH_excgange\data/270102_REPSWITCH1_version1_list2_2023-12-04_16h09.51.777_micRespv1l2_recorded\recording_micRespv1l2_2023-12-04_16h17.36.957.wav;472.5334369;473.0335992;None;472.5334369;472.5334369;472.5334369;472.5334369;472.5334369;472.5334369;[0.7324504996649921, 0.9513534996658564, 1.009388799779117, 1.2086934996768832, 1.4773762999102473, 1.6158933998085558];;;;;;270102;1;2023-12-04_16h09.51.777;REPSWITCH1_version1_list2;2022.2.4;143.9459922;
REPSWITCH1/PICTURE_673.png;tenedor;speak;gold;filler;2;F;4;3;2;1;Extra5;0;None;95;94;95;0;94;94;94;;;;;;;;;;;;;;;;;;;;;;;473.0335992;474.0545078;474.0545078;474.0545078;474.0545078;474.0545078;474.0545078;474.0545078;474.0545078;None;0;;C:\2023\REPSWITCH21092023\REPSWITCH_excgange\REPSWITCH_excgange\data/270102_REPSWITCH1_version1_list2_2023-12-04_16h09.51.777_micRespv1l2_recorded\recording_micRespv1l2_2023-12-04_16h17.41.499.wav;477.0826454;;None;477.0826454;477.0826454;477.0826454;477.0826454;477.0826454;477.0826454;;;;;;;270102;1;2023-12-04_16h09.51.777;REPSWITCH1_version1_list2;2022.2.4;143.9459922;
REPSWITCH1/PICTURE_35.png;oreja;type;darkblue;filler;1;F;4;3;2;1;Stim5_Set3;1;switch;96;95;96;0;95;95;95;;;;;;;;;;;;;;;;;;;;;;;477.5827755;478.6523819;478.6523819;478.6523819;478.6523819;478.6523819;478.6523819;478.6523819;478.6523819;['o', 'r', 'e', 'j', 'a'];0;oreja;C:\2023\REPSWITCH21092023\REPSWITCH_excgange\REPSWITCH_excgange\data/270102_REPSWITCH1_version1_list2_2023-12-04_16h09.51.777_micRespv1l2_recorded\recording_micRespv1l2_2023-12-04_16h17.46.097.wav;481.6735558;482.1735965;None;481.6735558;481.6735558;481.6735558;481.6735558;481.6735558;481.6735558;[0.7717247996479273, 0.9022712996229529, 1.0820249994285405, 1.1856749998405576, 1.2723746998235583];;;;;;270102;1;2023-12-04_16h09.51.777;REPSWITCH1_version1_list2;2022.2.4;143.9459922;
REPSWITCH1/PICTURE_663.png;columna;speak;gold;filler;2;F;4;3;2;1;Extra6;0;None;97;96;97;0;96;96;96;;;;;;;;;;;;;;;;;;;;;;;482.1735965;483.2084543;483.2084543;483.2084543;483.2084543;483.2084543;483.2084543;483.2084543;483.2084543;None;0;;C:\2023\REPSWITCH21092023\REPSWITCH_excgange\REPSWITCH_excgange\data/270102_REPSWITCH1_version1_list2_2023-12-04_16h09.51.777_micRespv1l2_recorded\recording_micRespv1l2_2023-12-04_16h17.50.653.wav;486.2296824;486.7297474;None;486.2296824;486.2296824;486.2296824;486.2296824;486.2296824;486.2296824;;;;;;;270102;1;2023-12-04_16h09.51.777;REPSWITCH1_version1_list2;2022.2.4;143.9459922;
REPSWITCH1/PICTURE_242.png;cartero;type;darkblue;filler;1;F;4;3;2;1;Stim3_Set3;1;switch;98;97;98;0;97;97;97;;;;;;;;;;;;;;;;;;;;;;;486.7297474;487.8618511;487.8618511;487.8618511;487.8618511;487.8618511;487.8618511;487.8618511;487.8618511;['c', 'a', 'r', 't', 'e', 'r', 'o'];0;cartero;C:\2023\REPSWITCH21092023\REPSWITCH_excgange\REPSWITCH_excgange\data/270102_REPSWITCH1_version1_list2_2023-12-04_16h09.51.777_micRespv1l2_recorded\recording_micRespv1l2_2023-12-04_16h17.55.306.wav;490.8831501;491.3832302;None;490.8831501;490.8831501;490.8831501;490.8831501;490.8831501;490.8831501;[0.9195693000219762, 1.0181991998106241, 1.1228107996284962, 1.2826430997811258, 1.3278166996315122, 1.4911504997871816, 1.6049869996495545];;;;;;270102;1;2023-12-04_16h09.51.777;REPSWITCH1_version1_list2;2022.2.4;143.9459922;
REPSWITCH1/PICTURE_48.png;bombero;type;darkblue;nontarget;1;NT;4;3;2;1;Stim7_Set4;1;repeat;99;98;99;0;98;98;98;;;;;;;;;;;;;;;;;;;;;;;491.3832302;492.4041926;492.4041926;492.4041926;492.4041926;492.4041926;492.4041926;492.4041926;492.4041926;['b', 'o', 'm', 'b', 'e', 'r', 'i', 'backspace', 'p'];0;bomberp;C:\2023\REPSWITCH21092023\REPSWITCH_excgange\REPSWITCH_excgange\data/270102_REPSWITCH1_version1_list2_2023-12-04_16h09.51.777_micRespv1l2_recorded\recording_micRespv1l2_2023-12-04_16h17.59.849.wav;495.425323;495.9255;None;495.425323;495.425323;495.425323;495.425323;495.425323;495.425323;[0.9191530994139612, 1.0098455995321274, 1.4666413995437324, 1.6769386995583773, 1.7397278994321823, 1.8917591995559633, 1.981445599347353, 2.6412539994344115, 2.9249705993570387];;;;;;270102;1;2023-12-04_16h09.51.777;REPSWITCH1_version1_list2;2022.2.4;143.9459922;
REPSWITCH1/PICTURE_48.png;bombero;type;darkblue;repeat;1;T;4;3;2;1;Stim7_Set4;0;None;100;99;100;0;99;99;99;;;;;;;;;;;;;;;;;;;;;;;495.9255;496.995019;496.995019;496.995019;496.995019;496.995019;496.995019;496.995019;496.995019;['b', 'o', 'm', 'b', 'e', 'r', 'o'];0;bombero;C:\2023\REPSWITCH21092023\REPSWITCH_excgange\REPSWITCH_excgange\data/270102_REPSWITCH1_version1_list2_2023-12-04_16h09.51.777_micRespv1l2_recorded\recording_micRespv1l2_2023-12-04_16h18.04.440.wav;500.0231915;;None;500.0231915;500.0231915;500.0231915;500.0231915;500.0231915;500.0231915;[1.0865776995196939, 1.2829920994117856, 1.4938875995576382, 1.7620628993026912, 1.8376746992580593, 2.00810829969123, 2.085120499599725];;;;;;270102;1;2023-12-04_16h09.51.777;REPSWITCH1_version1_list2;2022.2.4;143.9459922;
REPSWITCH1/PICTURE_391.png;cadena;speak;gold;filler;2;F;4;3;2;1;Extra2;0;None;101;100;101;0;100;100;100;;;;;;;;;;;;;;;;;;;;;;;500.5232368;501.6345353;501.6345353;501.6345353;501.6345353;501.6345353;501.6345353;501.6345353;501.6345353;None;0;;C:\2023\REPSWITCH21092023\REPSWITCH_excgange\REPSWITCH_excgange\data/270102_REPSWITCH1_version1_list2_2023-12-04_16h09.51.777_micRespv1l2_recorded\recording_micRespv1l2_2023-12-04_16h18.09.080.wav;504.6556982;505.1557814;None;504.6556982;504.6556982;504.6556982;504.6556982;504.6556982;504.6556982;;;;;;;270102;1;2023-12-04_16h09.51.777;REPSWITCH1_version1_list2;2022.2.4;143.9459922;
REPSWITCH1/PICTURE_590.png;escoba;type;darkblue;filler;1;F;4;3;2;1;Extra3;0;None;102;101;102;0;101;101;101;;;;;;;;;;;;;;;;;;;;;;;505.1557814;506.2670546;506.2670546;506.2670546;506.2670546;506.2670546;506.2670546;506.2670546;506.2670546;['e', 's', 'c', 'o', 'b', 'a'];0;escoba;C:\2023\REPSWITCH21092023\REPSWITCH_excgange\REPSWITCH_excgange\data/270102_REPSWITCH1_version1_list2_2023-12-04_16h09.51.777_micRespv1l2_recorded\recording_micRespv1l2_2023-12-04_16h18.13.712.wav;509.2883852;509.7883584;space;509.2883852;509.2883852;509.2883852;509.2883852;509.2883852;509.2883852;[0.8517405996099114, 1.0065313996747136, 1.1911793993785977, 1.3113950993865728, 1.5406243996694684, 1.6098727993667126];509.7883584;509.7883584;21.123041;;;270102;1;2023-12-04_16h09.51.777;REPSWITCH1_version1_list2;2022.2.4;143.9459922;
REPSWITCH1/PICTURE_340.png;espejo;type;darkblue;filler;1;F;1;1;2;1;Extra1;0;None;103;102;1;0;102;102;102;;;;;;;;;;;;;;;;;;;;;;;530.9231449;531.9649036;531.9649036;531.9649036;531.9649036;531.9649036;531.9649036;531.9649036;531.9649036;['e', 's', 'p', 'e', 'j', 'o'];0;espejo;C:\2023\REPSWITCH21092023\REPSWITCH_excgange\REPSWITCH_excgange\data/270102_REPSWITCH1_version1_list2_2023-12-04_16h09.51.777_micRespv1l2_recorded\recording_micRespv1l2_2023-12-04_16h18.39.410.wav;534.9931351;;None;534.9931351;534.9931351;534.9931351;534.9931351;534.9931351;534.9931351;[0.7631839998066425, 0.9256377997808158, 1.0073273996822536, 1.097049799747765, 1.8065969995222986, 1.9361925995908678];;;;;;270102;1;2023-12-04_16h09.51.777;REPSWITCH1_version1_list2;2022.2.4;143.9459922;
REPSWITCH1/PICTURE_391.png;cadena;speak;gold;filler;2;F;1;1;2;1;Extra2;0;None;104;103;2;0;103;103;103;;;;;;;;;;;;;;;;;;;;;;;535.4931314;536.5835714;536.5835714;536.5835714;536.5835714;536.5835714;536.5835714;536.5835714;536.5835714;None;0;;C:\2023\REPSWITCH21092023\REPSWITCH_excgange\REPSWITCH_excgange\data/270102_REPSWITCH1_version1_list2_2023-12-04_16h09.51.777_micRespv1l2_recorded\recording_micRespv1l2_2023-12-04_16h18.44.029.wav;539.6117215;;None;539.6117215;539.6117215;539.6117215;539.6117215;539.6117215;539.6117215;;;;;;;270102;1;2023-12-04_16h09.51.777;REPSWITCH1_version1_list2;2022.2.4;143.9459922;
REPSWITCH1/PICTURE_178.png;puente;speak;gold;nontarget;2;NT;1;1;2;1;Stim1_Set1;1;repeat;105;104;3;0;104;104;104;;;;;;;;;;;;;;;;;;;;;;;540.1117639;541.2508587;541.2508587;541.2508587;541.2508587;541.2508587;541.2508587;541.2508587;541.2508587;None;0;;C:\2023\REPSWITCH21092023\REPSWITCH_excgange\REPSWITCH_excgange\data/270102_REPSWITCH1_version1_list2_2023-12-04_16h09.51.777_micRespv1l2_recorded\recording_micRespv1l2_2023-12-04_16h18.48.695.wav;544.2720505;544.772195;None;544.2720505;544.2720505;544.2720505;544.2720505;544.2720505;544.2720505;;;;;;;270102;1;2023-12-04_16h09.51.777;REPSWITCH1_version1_list2;2022.2.4;143.9459922;
REPSWITCH1/PICTURE_178.png;puente;speak;gold;repeat;2;T;1;1;2;1;Stim1_Set1;0;None;106;105;4;0;105;105;105;;;;;;;;;;;;;;;;;;;;;;;544.772195;545.8764681;545.8764681;545.8764681;545.8764681;545.8764681;545.8764681;545.8764681;545.8764681;None;0;;C:\2023\REPSWITCH21092023\REPSWITCH_excgange\REPSWITCH_excgange\data/270102_REPSWITCH1_version1_list2_2023-12-04_16h09.51.777_micRespv1l2_recorded\recording_micRespv1l2_2023-12-04_16h18.53.322.wav;548.9046479;;None;548.9046479;548.9046479;548.9046479;548.9046479;548.9046479;548.9046479;;;;;;;270102;1;2023-12-04_16h09.51.777;REPSWITCH1_version1_list2;2022.2.4;143.9459922;
REPSWITCH1/PICTURE_319.png;vaca;type;darkblue;filler;1;F;1;1;2;1;Stim1_Set4;0;None;107;106;5;0;106;106;106;;;;;;;;;;;;;;;;;;;;;;;549.4046557;550.4534582;550.4534582;550.4534582;550.4534582;550.4534582;550.4534582;550.4534582;550.4534582;['v', 'a', 'c', 'a'];0;vaca;C:\2023\REPSWITCH21092023\REPSWITCH_excgange\REPSWITCH_excgange\data/270102_REPSWITCH1_version1_list2_2023-12-04_16h09.51.777_micRespv1l2_recorded\recording_micRespv1l2_2023-12-04_16h18.57.898.wav;553.4815849;;None;553.4815849;553.4815849;553.4815849;553.4815849;553.4815849;553.4815849;[0.7741751996800303, 0.8459510994143784, 0.9840743993408978, 1.0448712995275855];;;;;;270102;1;2023-12-04_16h09.51.777;REPSWITCH1_version1_list2;2022.2.4;143.9459922;
REPSWITCH1/PICTURE_381.png;fresa;speak;gold;nontarget;2;NT;1;1;2;1;Stim2_Set1;1;switch;108;107;6;0;107;107;107;;;;;;;;;;;;;;;;;;;;;;;553.9817163;555.1346544;555.1346544;555.1346544;555.1346544;555.1346544;555.1346544;555.1346544;555.1346544;None;0;;C:\2023\REPSWITCH21092023\REPSWITCH_excgange\REPSWITCH_excgange\data/270102_REPSWITCH1_version1_list2_2023-12-04_16h09.51.777_micRespv1l2_recorded\recording_micRespv1l2_2023-12-04_16h19.02.579.wav;558.155823;558.6558938;None;558.155823;558.155823;558.155823;558.155823;558.155823;558.155823;;;;;;;270102;1;2023-12-04_16h09.51.777;REPSWITCH1_version1_list2;2022.2.4;143.9459922;
REPSWITCH1/PICTURE_381.png;fresa;speak;gold;repeat;2;T;1;1;2;1;Stim2_Set1;0;None;109;108;7;0;108;108;108;;;;;;;;;;;;;;;;;;;;;;;558.6558938;559.8296944;559.8296944;559.8296944;559.8296944;559.8296944;559.8296944;559.8296944;559.8296944;None;0;;C:\2023\REPSWITCH21092023\REPSWITCH_excgange\REPSWITCH_excgange\data/270102_REPSWITCH1_version1_list2_2023-12-04_16h09.51.777_micRespv1l2_recorded\recording_micRespv1l2_2023-12-04_16h19.07.274.wav;562.8508573;563.3510242;None;562.8508573;562.8508573;562.8508573;562.8508573;562.8508573;562.8508573;;;;;;;270102;1;2023-12-04_16h09.51.777;REPSWITCH1_version1_list2;2022.2.4;143.9459922;
REPSWITCH1/PICTURE_719.png;baño;type;darkblue;filler;1;F;1;1;2;1;Stim2_Set4;1;switch;110;109;8;0;109;109;109;;;;;;;;;;;;;;;;;;;;;;;563.3510242;564.3858067;564.3858067;564.3858067;564.3858067;564.3858067;564.3858067;564.3858067;564.3858067;['b', 'a', 'ñ', 'o'];0;baño;C:\2023\REPSWITCH21092023\REPSWITCH_excgange\REPSWITCH_excgange\data/270102_REPSWITCH1_version1_list2_2023-12-04_16h09.51.777_micRespv1l2_recorded\recording_micRespv1l2_2023-12-04_16h19.11.831.wav;567.4070116;567.9071112;None;567.4070116;567.4070116;567.4070116;567.4070116;567.4070116;567.4070116;[0.8556365999393165, 0.9064547996968031, 1.1519319997169077, 1.338926499709487];;;;;;270102;1;2023-12-04_16h09.51.777;REPSWITCH1_version1_list2;2022.2.4;143.9459922;
REPSWITCH1/PICTURE_135.png;traje;speak;gold;nontarget;2;NT;1;1;2;1;Stim3_Set1;0;None;111;110;9;0;110;110;110;;;;;;;;;;;;;;;;;;;;;;;567.9071112;568.9836293;568.9836293;568.9836293;568.9836293;568.9836293;568.9836293;568.9836293;568.9836293;None;0;;C:\2023\REPSWITCH21092023\REPSWITCH_excgange\REPSWITCH_excgange\data/270102_REPSWITCH1_version1_list2_2023-12-04_16h09.51.777_micRespv1l2_recorded\recording_micRespv1l2_2023-12-04_16h19.16.428.wav;572.0117937;;None;572.0117937;572.0117937;572.0117937;572.0117937;572.0117937;572.0117937;;;;;;;270102;1;2023-12-04_16h09.51.777;REPSWITCH1_version1_list2;2022.2.4;143.9459922;
REPSWITCH1/PICTURE_135.png;traje;type;darkblue;switch;1;T;1;1;2;1;Stim3_Set1;0;None;112;111;10;0;111;111;111;;;;;;;;;;;;;;;;;;;;;;;572.5118837;573.6995556;573.6995556;573.6995556;573.6995556;573.6995556;573.6995556;573.6995556;573.6995556;['t', 'r', 'a', 'j', 'e'];0;traje;C:\2023\REPSWITCH21092023\REPSWITCH_excgange\REPSWITCH_excgange\data/270102_REPSWITCH1_version1_list2_2023-12-04_16h09.51.777_micRespv1l2_recorded\recording_micRespv1l2_2023-12-04_16h19.21.144.wav;576.7208217;577.2208436;None;576.7208217;576.7208217;576.7208217;576.7208217;576.7208217;576.7208217;[0.9238687995821238, 1.0610710997134447, 1.1348485997878015, 1.3950697998516262, 1.509980899747461];;;;;;270102;1;2023-12-04_16h09.51.777;REPSWITCH1_version1_list2;2022.2.4;143.9459922;
REPSWITCH1/PICTURE_687.png;camisa;speak;gold;filler;2;F;1;1;2;1;Stim5_Set4;0;None;113;112;11;0;112;112;112;;;;;;;;;;;;;;;;;;;;;;;577.2208436;578.3182634;578.3182634;578.3182634;578.3182634;578.3182634;578.3182634;578.3182634;578.3182634;None;0;;C:\2023\REPSWITCH21092023\REPSWITCH_excgange\REPSWITCH_excgange\data/270102_REPSWITCH1_version1_list2_2023-12-04_16h09.51.777_micRespv1l2_recorded\recording_micRespv1l2_2023-12-04_16h19.25.763.wav;581.3394726;581.839502;None;581.3394726;581.3394726;581.3394726;581.3394726;581.3394726;581.3394726;;;;;;;270102;1;2023-12-04_16h09.51.777;REPSWITCH1_version1_list2;2022.2.4;143.9459922;
REPSWITCH1/PICTURE_128.png;muñeca;type;darkblue;nontarget;1;NT;1;1;2;1;Stim4_Set1;1;switch;114;113;12;0;113;113;113;;;;;;;;;;;;;;;;;;;;;;;581.839502;582.9160431;582.9160431;582.9160431;582.9160431;582.9160431;582.9160431;582.9160431;582.9160431;['m', 'u', 'ñ', 'e', 'c', 'a'];0;muñeca;C:\2023\REPSWITCH21092023\REPSWITCH_excgange\REPSWITCH_excgange\data/270102_REPSWITCH1_version1_list2_2023-12-04_16h09.51.777_micRespv1l2_recorded\recording_micRespv1l2_2023-12-04_16h19.30.361.wav;585.9442781;;None;585.9442781;585.9442781;585.9442781;585.9442781;585.9442781;585.9442781;[0.7675303993746638, 0.9868443994782865, 1.2617293992079794, 2.1517114993184805, 2.324049999471754, 2.4038121993653476];;;;;;270102;1;2023-12-04_16h09.51.777;REPSWITCH1_version1_list2;2022.2.4;143.9459922;
REPSWITCH1/PICTURE_128.png;muñeca;speak;gold;switch;2;T;1;1;2;1;Stim4_Set1;0;None;115;114;13;0;114;114;114;;;;;;;;;;;;;;;;;;;;;;;586.4442596;587.6527751;587.6527751;587.6527751;587.6527751;587.6527751;587.6527751;587.6527751;587.6527751;None;0;;C:\2023\REPSWITCH21092023\REPSWITCH_excgange\REPSWITCH_excgange\data/270102_REPSWITCH1_version1_list2_2023-12-04_16h09.51.777_micRespv1l2_recorded\recording_micRespv1l2_2023-12-04_16h19.35.098.wav;590.6809326;;None;590.6809326;590.6809326;590.6809326;590.6809326;590.6809326;590.6809326;;;;;;;270102;1;2023-12-04_16h09.51.777;REPSWITCH1_version1_list2;2022.2.4;143.9459922;
REPSWITCH1/PICTURE_8.png;pierna;speak;gold;filler;2;F;1;1;2;1;Stim3_Set4;0;None;116;115;14;0;115;115;115;;;;;;;;;;;;;;;;;;;;;;;591.1810107;592.3200572;592.3200572;592.3200572;592.3200572;592.3200572;592.3200572;592.3200572;592.3200572;None;0;;C:\2023\REPSWITCH21092023\REPSWITCH_excgange\REPSWITCH_excgange\data/270102_REPSWITCH1_version1_list2_2023-12-04_16h09.51.777_micRespv1l2_recorded\recording_micRespv1l2_2023-12-04_16h19.39.764.wav;595.3412715;595.8413513;None;595.3412715;595.3412715;595.3412715;595.3412715;595.3412715;595.3412715;;;;;;;270102;1;2023-12-04_16h09.51.777;REPSWITCH1_version1_list2;2022.2.4;143.9459922;
REPSWITCH1/PICTURE_19.png;pavo;speak;gold;nontarget;2;NT;1;1;2;1;Stim5_Set1;0;None;117;116;15;0;116;116;116;;;;;;;;;;;;;;;;;;;;;;;595.8413513;596.8901525;596.8901525;596.8901525;596.8901525;596.8901525;596.8901525;596.8901525;596.8901525;None;0;;C:\2023\REPSWITCH21092023\REPSWITCH_excgange\REPSWITCH_excgange\data/270102_REPSWITCH1_version1_list2_2023-12-04_16h09.51.777_micRespv1l2_recorded\recording_micRespv1l2_2023-12-04_16h19.44.335.wav;599.9182746;;None;599.9182746;599.9182746;599.9182746;599.9182746;599.9182746;599.9182746;;;;;;;270102;1;2023-12-04_16h09.51.777;REPSWITCH1_version1_list2;2022.2.4;143.9459922;
REPSWITCH1/PICTURE_19.png;pavo;type;darkblue;switch;1;T;1;1;2;1;Stim5_Set1;0;None;118;117;16;0;117;117;117;;;;;;;;;;;;;;;;;;;;;;;600.418342;601.5365232;601.5365232;601.5365232;601.5365232;601.5365232;601.5365232;601.5365232;601.5365232;['a', 'v', 'o', 'backspace', 'backspace', 'backspace'];0;;C:\2023\REPSWITCH21092023\REPSWITCH_excgange\REPSWITCH_excgange\data/270102_REPSWITCH1_version1_list2_2023-12-04_16h09.51.777_micRespv1l2_recorded\recording_micRespv1l2_2023-12-04_16h19.48.981.wav;604.5646866;;None;604.5646866;604.5646866;604.5646866;604.5646866;604.5646866;604.5646866;[0.984776399563998, 1.2368518994189799, 1.459141199477017, 2.645047499332577, 2.785912999417633, 2.9034877996891737];;;;;;270102;1;2023-12-04_16h09.51.777;REPSWITCH1_version1_list2;2022.2.4;143.9459922;
REPSWITCH1/PICTURE_16.png;cazador;type;darkblue;nontarget;1;NT;1;1;2;1;Stim6_Set1;1;switch;119;118;17;0;118;118;118;;;;;;;;;;;;;;;;;;;;;;;605.0647556;606.1483086;606.1483086;606.1483086;606.1483086;606.1483086;606.1483086;606.1483086;606.1483086;['c', 'a', 'z', 'a', 'd', 'o', 'r'];0;cazador;C:\2023\REPSWITCH21092023\REPSWITCH_excgange\REPSWITCH_excgange\data/270102_REPSWITCH1_version1_list2_2023-12-04_16h09.51.777_micRespv1l2_recorded\recording_micRespv1l2_2023-12-04_16h19.53.593.wav;609.1764278;;None;609.1764278;609.1764278;609.1764278;609.1764278;609.1764278;609.1764278;[0.8938123993575573, 1.1106578996405005, 1.3205941994674504, 1.4302145997062325, 1.6837283996865153, 1.8611238994635642, 1.9877350996248424];;;;;;270102;1;2023-12-04_16h09.51.777;REPSWITCH1_version1_list2;2022.2.4;143.9459922;
REPSWITCH1/PICTURE_16.png;cazador;type;darkblue;repeat;1;T;1;1;2;1;Stim6_Set1;0;None;120;119;18;0;119;119;119;;;;;;;;;;;;;;;;;;;;;;;609.676493;610.7877895;610.7877895;610.7877895;610.7877895;610.7877895;610.7877895;610.7877895;610.7877895;['c', 'a', 'z', 'a', 'd', 'o', 'r'];0;cazador;C:\2023\REPSWITCH21092023\REPSWITCH_excgange\REPSWITCH_excgange\data/270102_REPSWITCH1_version1_list2_2023-12-04_16h09.51.777_micRespv1l2_recorded\recording_micRespv1l2_2023-12-04_16h19.58.232.wav;613.8089535;614.3090542;None;613.8089535;613.8089535;613.8089535;613.8089535;613.8089535;613.8089535;[0.7154944995418191, 0.8874004995450377, 1.0661070994101465, 1.1670204997062683, 1.3699025996029377, 1.5333221997134387, 1.6190069993026555];;;;;;270102;1;2023-12-04_16h09.51.777;REPSWITCH1_version1_list2;2022.2.4;143.9459922;
REPSWITCH1/PICTURE_498.png;taza;speak;gold;filler;2;F;1;1;2;1;Stim4_Set4;0;None;121;120;19;0;120;120;120;;;;;;;;;;;;;;;;;;;;;;;614.3090542;615.3647806;615.3647806;615.3647806;615.3647806;615.3647806;615.3647806;615.3647806;615.3647806;None;0;;C:\2023\REPSWITCH21092023\REPSWITCH_excgange\REPSWITCH_excgange\data/270102_REPSWITCH1_version1_list2_2023-12-04_16h09.51.777_micRespv1l2_recorded\recording_micRespv1l2_2023-12-04_16h20.02.809.wav;618.3859809;618.8860401;None;618.3859809;618.3859809;618.3859809;618.3859809;618.3859809;618.3859809;;;;;;;270102;1;2023-12-04_16h09.51.777;REPSWITCH1_version1_list2;2022.2.4;143.9459922;
REPSWITCH1/PICTURE_48.png;bombero;type;darkblue;filler;1;F;1;1;2;1;Stim7_Set4;0;None;122;121;20;0;121;121;121;;;;;;;;;;;;;;;;;;;;;;;618.8860401;619.9625612;619.9625612;619.9625612;619.9625612;619.9625612;619.9625612;619.9625612;619.9625612;['b', 'o', 'm', 'b', 'e', 'r', 'o'];0;bombero;C:\2023\REPSWITCH21092023\REPSWITCH_excgange\REPSWITCH_excgange\data/270102_REPSWITCH1_version1_list2_2023-12-04_16h09.51.777_micRespv1l2_recorded\recording_micRespv1l2_2023-12-04_16h20.07.408.wav;622.9907086;;None;622.9907086;622.9907086;622.9907086;622.9907086;622.9907086;622.9907086;[0.7697266996838152, 0.9985926994122565, 1.2088626995682716, 1.435098699759692, 1.4869613996706903, 1.6417971993796527, 1.6986057995818555];;;;;;270102;1;2023-12-04_16h09.51.777;REPSWITCH1_version1_list2;2022.2.4;143.9459922;
REPSWITCH1/PICTURE_142.png;vaso;type;darkblue;nontarget;1;NT;1;1;2;1;Stim7_Set1;1;repeat;123;122;21;0;122;122;122;;;;;;;;;;;;;;;;;;;;;;;623.4907906;624.5812465;624.5812465;624.5812465;624.5812465;624.5812465;624.5812465;624.5812465;624.5812465;['v', 'a', 's', 'o'];0;vaso;C:\2023\REPSWITCH21092023\REPSWITCH_excgange\REPSWITCH_excgange\data/270102_REPSWITCH1_version1_list2_2023-12-04_16h09.51.777_micRespv1l2_recorded\recording_micRespv1l2_2023-12-04_16h20.12.025.wav;627.6024687;628.1025238;None;627.6024687;627.6024687;627.6024687;627.6024687;627.6024687;627.6024687;[1.0564251993782818, 1.1196250994689763, 1.1963151996023953, 1.347060999367386];;;;;;270102;1;2023-12-04_16h09.51.777;REPSWITCH1_version1_list2;2022.2.4;143.9459922;
REPSWITCH1/PICTURE_142.png;vaso;type;darkblue;repeat;1;T;1;1;2;1;Stim7_Set1;0;None;124;123;22;0;123;123;123;;;;;;;;;;;;;;;;;;;;;;;628.1025238;629.2555039;629.2555039;629.2555039;629.2555039;629.2555039;629.2555039;629.2555039;629.2555039;['v', 'a', 's', 'o'];0;vaso;C:\2023\REPSWITCH21092023\REPSWITCH_excgange\REPSWITCH_excgange\data/270102_REPSWITCH1_version1_list2_2023-12-04_16h09.51.777_micRespv1l2_recorded\recording_micRespv1l2_2023-12-04_16h20.16.699.wav;632.2766688;632.7767308;None;632.2766688;632.2766688;632.2766688;632.2766688;632.2766688;632.2766688;[0.7134433994069695, 0.7679573995992541, 0.8288805996999145, 1.0040860995650291];;;;;;270102;1;2023-12-04_16h09.51.777;REPSWITCH1_version1_list2;2022.2.4;143.9459922;
REPSWITCH1/PICTURE_338.png;regalo;speak;gold;filler;2;F;1;1;2;1;Stim6_Set4;1;switch;125;124;23;0;124;124;124;;;;;;;;;;;;;;;;;;;;;;;632.7767308;633.8810512;633.8810512;633.8810512;633.8810512;633.8810512;633.8810512;633.8810512;633.8810512;None;0;;C:\2023\REPSWITCH21092023\REPSWITCH_excgange\REPSWITCH_excgange\data/270102_REPSWITCH1_version1_list2_2023-12-04_16h09.51.777_micRespv1l2_recorded\recording_micRespv1l2_2023-12-04_16h20.21.326.wav;636.9022645;637.4023485;None;636.9022645;636.9022645;636.9022645;636.9022645;636.9022645;636.9022645;;;;;;;270102;1;2023-12-04_16h09.51.777;REPSWITCH1_version1_list2;2022.2.4;143.9459922;
REPSWITCH1/PICTURE_728.png;pulpo;type;darkblue;filler;1;F;1;1;2;1;Stim8_Set4;1;switch;126;125;24;0;125;125;125;;;;;;;;;;;;;;;;;;;;;;;637.4023485;638.4928433;638.4928433;638.4928433;638.4928433;638.4928433;638.4928433;638.4928433;638.4928433;['p', 'u', 'l', 'p', 'o'];0;pulpo;C:\2023\REPSWITCH21092023\REPSWITCH_excgange\REPSWITCH_excgange\data/270102_REPSWITCH1_version1_list2_2023-12-04_16h09.51.777_micRespv1l2_recorded\recording_micRespv1l2_2023-12-04_16h20.25.937.wav;641.5140221;642.0141547;None;641.5140221;641.5140221;641.5140221;641.5140221;641.5140221;641.5140221;[0.8904200997203588, 1.1395958997309208, 1.3567947996780276, 1.5372417997568846, 1.6654518996365368];;;;;;270102;1;2023-12-04_16h09.51.777;REPSWITCH1_version1_list2;2022.2.4;143.9459922;
REPSWITCH1/PICTURE_169.png;espalda;type;darkblue;nontarget;1;NT;1;1;2;1;Stim8_Set1;1;repeat;127;126;25;0;126;126;126;;;;;;;;;;;;;;;;;;;;;;;642.0141547;643.1323387;643.1323387;643.1323387;643.1323387;643.1323387;643.1323387;643.1323387;643.1323387;['e', 's', 'p', 'a', 'l', 'd', 'a'];0;espalda;C:\2023\REPSWITCH21092023\REPSWITCH_excgange\REPSWITCH_excgange\data/270102_REPSWITCH1_version1_list2_2023-12-04_16h09.51.777_micRespv1l2_recorded\recording_micRespv1l2_2023-12-04_16h20.30.577.wav;646.1604862;646.6605116;None;646.1604862;646.1604862;646.1604862;646.1604862;646.1604862;646.1604862;[0.7384136994369328, 0.9238427993841469, 1.0613765995949507, 1.1325043994002044, 1.2909597996622324, 1.4225220996886492, 1.5952689996920526];;;;;;270102;1;2023-12-04_16h09.51.777;REPSWITCH1_version1_list2;2022.2.4;143.9459922;
REPSWITCH1/PICTURE_169.png;espalda;speak;gold;switch;2;T;1;1;2;1;Stim8_Set1;0;None;128;127;26;0;127;127;127;;;;;;;;;;;;;;;;;;;;;;;646.6605116;647.8065605;647.8065605;647.8065605;647.8065605;647.8065605;647.8065605;647.8065605;647.8065605;None;0;;C:\2023\REPSWITCH21092023\REPSWITCH_excgange\REPSWITCH_excgange\data/270102_REPSWITCH1_version1_list2_2023-12-04_16h09.51.777_micRespv1l2_recorded\recording_micRespv1l2_2023-12-04_16h20.35.252.wav;650.8346653;;None;650.8346653;650.8346653;650.8346653;650.8346653;650.8346653;650.8346653;;;;;;;270102;1;2023-12-04_16h09.51.777;REPSWITCH1_version1_list2;2022.2.4;143.9459922;
REPSWITCH1/PICTURE_178.png;puente;speak;gold;filler;2;F;2;1;2;1;Stim1_Set1;0;None;129;128;27;0;128;128;128;;;;;;;;;;;;;;;;;;;;;;;651.3347287;652.4807986;652.4807986;652.4807986;652.4807986;652.4807986;652.4807986;652.4807986;652.4807986;None;0;;C:\2023\REPSWITCH21092023\REPSWITCH_excgange\REPSWITCH_excgange\data/270102_REPSWITCH1_version1_list2_2023-12-04_16h09.51.777_micRespv1l2_recorded\recording_micRespv1l2_2023-12-04_16h20.39.925.wav;655.5020448;656.0020382;None;655.5020448;655.5020448;655.5020448;655.5020448;655.5020448;655.5020448;;;;;;;270102;1;2023-12-04_16h09.51.777;REPSWITCH1_version1_list2;2022.2.4;143.9459922;
REPSWITCH1/PICTURE_175.png;pintor;type;darkblue;nontarget;1;NT;2;1;2;1;Stim1_Set2;1;switch;130;129;28;0;129;129;129;;;;;;;;;;;;;;;;;;;;;;;656.0020382;657.1272222;657.1272222;657.1272222;657.1272222;657.1272222;657.1272222;657.1272222;657.1272222;['p', 'i', 'n', 't', 'o', 'r'];0;pintor;C:\2023\REPSWITCH21092023\REPSWITCH_excgange\REPSWITCH_excgange\data/270102_REPSWITCH1_version1_list2_2023-12-04_16h09.51.777_micRespv1l2_recorded\recording_micRespv1l2_2023-12-04_16h20.44.572.wav;660.148434;660.6484743;None;660.148434;660.148434;660.148434;660.148434;660.148434;660.148434;[0.7842164994217455, 0.995005399454385, 1.1831266996450722, 1.5930437995120883, 1.6883661993779242, 1.827086499426514];;;;;;270102;1;2023-12-04_16h09.51.777;REPSWITCH1_version1_list2;2022.2.4;143.9459922;
REPSWITCH1/PICTURE_175.png;pintor;type;darkblue;repeat;1;T;2;1;2;1;Stim1_Set2;0;None;131;130;29;0;130;130;130;;;;;;;;;;;;;;;;;;;;;;;660.6484743;661.8639443;661.8639443;661.8639443;661.8639443;661.8639443;661.8639443;661.8639443;661.8639443;['p', 'p', 'i', 'n', 't', 'o', 'r'];0;ppintor;C:\2023\REPSWITCH21092023\REPSWITCH_excgange\REPSWITCH_excgange\data/270102_REPSWITCH1_version1_list2_2023-12-04_16h09.51.777_micRespv1l2_recorded\recording_micRespv1l2_2023-12-04_16h20.49.308.wav;664.8851506;665.3852212;None;664.8851506;664.8851506;664.8851506;664.8851506;664.8851506;664.8851506;[0.7473136996850371, 0.878384499810636, 1.1067807995714247, 1.1981738996692002, 1.4749539997428656, 2.01714179944247, 2.1317209997214377];;;;;;270102;1;2023-12-04_16h09.51.777;REPSWITCH1_version1_list2;2022.2.4;143.9459922;
REPSWITCH1/PICTURE_381.png;fresa;speak;gold;filler;2;F;2;1;2;1;Stim2_Set1;0;None;132;131;30;0;131;131;131;;;;;;;;;;;;;;;;;;;;;;;665.3852212;666.5242368;666.5242368;666.5242368;666.5242368;666.5242368;666.5242368;666.5242368;666.5242368;None;0;;C:\2023\REPSWITCH21092023\REPSWITCH_excgange\REPSWITCH_excgange\data/270102_REPSWITCH1_version1_list2_2023-12-04_16h09.51.777_micRespv1l2_recorded\recording_micRespv1l2_2023-12-04_16h20.53.970.wav;669.5524729;;None;669.5524729;669.5524729;669.5524729;669.5524729;669.5524729;669.5524729;;;;;;;270102;1;2023-12-04_16h09.51.777;REPSWITCH1_version1_list2;2022.2.4;143.9459922;
REPSWITCH1/PICTURE_152.png;caracol;type;darkblue;nontarget;1;NT;2;1;2;1;Stim2_Set2;1;switch;133;132;31;0;132;132;132;;;;;;;;;;;;;;;;;;;;;;;670.0524994;671.0804748;671.0804748;671.0804748;671.0804748;671.0804748;671.0804748;671.0804748;671.0804748;['c', 'a', 'r', 'a', 'c', 'o', 'l'];0;caracol;C:\2023\REPSWITCH21092023\REPSWITCH_excgange\REPSWITCH_excgange\data/270102_REPSWITCH1_version1_list2_2023-12-04_16h09.51.777_micRespv1l2_recorded\recording_micRespv1l2_2023-12-04_16h20.58.525.wav;674.1085548;;None;674.1085548;674.1085548;674.1085548;674.1085548;674.1085548;674.1085548;[0.760672599542886, 0.8463328992947936, 0.9509713994339108, 1.0456554996781051, 1.2280094996094704, 1.3665771996602416, 1.537299799732864];;;;;;270102;1;2023-12-04_16h09.51.777;REPSWITCH1_version1_list2;2022.2.4;143.9459922;
REPSWITCH1/PICTURE_152.png;caracol;type;darkblue;repeat;1;T;2;1;2;1;Stim2_Set2;0;None;134;133;32;0;133;133;133;;;;;;;;;;;;;;;;;;;;;;;674.6086085;675.7615604;675.7615604;675.7615604;675.7615604;675.7615604;675.7615604;675.7615604;675.7615604;['c', 'a', 'r', 'a', 'c', 'o', 'l'];0;caracol;C:\2023\REPSWITCH21092023\REPSWITCH_excgange\REPSWITCH_excgange\data/270102_REPSWITCH1_version1_list2_2023-12-04_16h09.51.777_micRespv1l2_recorded\recording_micRespv1l2_2023-12-04_16h21.03.207.wav;678.789805;679.2898173;None;678.789805;678.789805;678.789805;678.789805;678.789805;678.789805;[0.5522095998749137, 0.7568032997660339, 1.0403363998048007, 1.2239508000202477, 1.4018758996389806, 1.5165603999048471, 1.6920031998306513];;;;;;270102;1;2023-12-04_16h09.51.777;REPSWITCH1_version1_list2;2022.2.4;143.9459922;
REPSWITCH1/PICTURE_128.png;muñeca;speak;gold;filler;2;F;2;1;2;1;Stim4_Set1;0;None;135;134;33;0;134;134;134;;;;;;;;;;;;;;;;;;;;;;;679.2898173;680.4011353;680.4011353;680.4011353;680.4011353;680.4011353;680.4011353;680.4011353;680.4011353;None;0;;C:\2023\REPSWITCH21092023\REPSWITCH_excgange\REPSWITCH_excgange\data/270102_REPSWITCH1_version1_list2_2023-12-04_16h09.51.777_micRespv1l2_recorded\recording_micRespv1l2_2023-12-04_16h21.07.845.wav;683.4222935;683.9223566;None;683.4222935;683.4222935;683.4222935;683.4222935;683.4222935;683.4222935;;;;;;;270102;1;2023-12-04_16h09.51.777;REPSWITCH1_version1_list2;2022.2.4;143.9459922;
REPSWITCH1/PICTURE_264.png;mano;type;darkblue;nontarget;1;NT;2;1;2;1;Stim3_Set2;0;None;136;135;34;0;135;135;135;;;;;;;;;;;;;;;;;;;;;;;683.9223566;685.0197714;685.0197714;685.0197714;685.0197714;685.0197714;685.0197714;685.0197714;685.0197714;['m', 'a', 'n', 'o'];0;mano;C:\2023\REPSWITCH21092023\REPSWITCH_excgange\REPSWITCH_excgange\data/270102_REPSWITCH1_version1_list2_2023-12-04_16h09.51.777_micRespv1l2_recorded\recording_micRespv1l2_2023-12-04_16h21.12.465.wav;688.0478758;;None;688.0478758;688.0478758;688.0478758;688.0478758;688.0478758;688.0478758;[0.8410597997717559, 0.8932434995658696, 1.0247978996485472, 1.2094650994986296];;;;;;270102;1;2023-12-04_16h09.51.777;REPSWITCH1_version1_list2;2022.2.4;143.9459922;
REPSWITCH1/PICTURE_264.png;mano;speak;gold;switch;2;T;2;1;2;1;Stim3_Set2;0;None;137;136;35;0;136;136;136;;;;;;;;;;;;;;;;;;;;;;;688.5479925;689.5551121;689.5551121;689.5551121;689.5551121;689.5551121;689.5551121;689.5551121;689.5551121;None;0;;C:\2023\REPSWITCH21092023\REPSWITCH_excgange\REPSWITCH_excgange\data/270102_REPSWITCH1_version1_list2_2023-12-04_16h09.51.777_micRespv1l2_recorded\recording_micRespv1l2_2023-12-04_16h21.16.999.wav;692.5762969;693.0763528;None;692.5762969;692.5762969;692.5762969;692.5762969;692.5762969;692.5762969;;;;;;;270102;1;2023-12-04_16h09.51.777;REPSWITCH1_version1_list2;2022.2.4;143.9459922;
REPSWITCH1/PICTURE_517.png;cuerda;speak;gold;nontarget;2;NT;2;1;2;1;Stim4_Set2;1;repeat;138;137;36;0;137;137;137;;;;;;;;;;;;;;;;;;;;;;;693.0763528;694.1459514;694.1459514;694.1459514;694.1459514;694.1459514;694.1459514;694.1459514;694.1459514;None;0;;C:\2023\REPSWITCH21092023\REPSWITCH_excgange\REPSWITCH_excgange\data/270102_REPSWITCH1_version1_list2_2023-12-04_16h09.51.777_micRespv1l2_recorded\recording_micRespv1l2_2023-12-04_16h21.21.591.wav;697.1741177;697.6741777;None;697.1741177;697.1741177;697.1741177;697.1741177;697.1741177;697.1741177;;;;;;;270102;1;2023-12-04_16h09.51.777;REPSWITCH1_version1_list2;2022.2.4;143.9459922;
REPSWITCH1/PICTURE_517.png;cuerda;type;darkblue;switch;1;T;2;1;2;1;Stim4_Set2;0;None;139;138;37;0;138;138;138;;;;;;;;;;;;;;;;;;;;;;;697.6741777;698.7785178;698.7785178;698.7785178;698.7785178;698.7785178;698.7785178;698.7785178;698.7785178;['c', 'u', 'e', 'r', 'd', 'a'];0;cuerda;C:\2023\REPSWITCH21092023\REPSWITCH_excgange\REPSWITCH_excgange\data/270102_REPSWITCH1_version1_list2_2023-12-04_16h09.51.777_micRespv1l2_recorded\recording_micRespv1l2_2023-12-04_16h21.26.223.wav;701.8066477;;None;701.8066477;701.8066477;701.8066477;701.8066477;701.8066477;701.8066477;[0.7882172996178269, 0.9539016992785037, 1.0226582996547222, 1.2223848993889987, 1.385284399613738, 1.5926511995494366];;;;;;270102;1;2023-12-04_16h09.51.777;REPSWITCH1_version1_list2;2022.2.4;143.9459922;
REPSWITCH1/PICTURE_135.png;traje;type;darkblue;filler;1;F;2;1;2;1;Stim3_Set1;0;None;140;139;38;0;139;139;139;;;;;;;;;;;;;;;;;;;;;;;702.3067109;703.3554652;703.3554652;703.3554652;703.3554652;703.3554652;703.3554652;703.3554652;703.3554652;['t', 'r', 'a', 'j', 'e'];0;traje;C:\2023\REPSWITCH21092023\REPSWITCH_excgange\REPSWITCH_excgange\data/270102_REPSWITCH1_version1_list2_2023-12-04_16h09.51.777_micRespv1l2_recorded\recording_micRespv1l2_2023-12-04_16h21.30.801.wav;706.3767033;706.8767607;None;706.3767033;706.3767033;706.3767033;706.3767033;706.3767033;706.3767033;[0.7981118997558951, 0.949564699549228, 1.020321199670434, 1.3023762996308506, 1.3841597996652126];;;;;;270102;1;2023-12-04_16h09.51.777;REPSWITCH1_version1_list2;2022.2.4;143.9459922;
REPSWITCH1/PICTURE_30.png;granja;type;darkblue;nontarget;1;NT;2;1;2;1;Stim5_Set2;1;repeat;141;140;39;0;140;140;140;;;;;;;;;;;;;;;;;;;;;;;706.8767607;707.9116151;707.9116151;707.9116151;707.9116151;707.9116151;707.9116151;707.9116151;707.9116151;['g', 'r', 'a', 'n', 'j', 'a'];0;granja;C:\2023\REPSWITCH21092023\REPSWITCH_excgange\REPSWITCH_excgange\data/270102_REPSWITCH1_version1_list2_2023-12-04_16h09.51.777_micRespv1l2_recorded\recording_micRespv1l2_2023-12-04_16h21.35.357.wav;710.9398289;;None;710.9398289;710.9398289;710.9398289;710.9398289;710.9398289;710.9398289;[0.8377177994698286, 1.0211037998087704, 1.1107896994799376, 1.326238699723035, 1.519837999716401, 1.603804599493742];;;;;;270102;1;2023-12-04_16h09.51.777;REPSWITCH1_version1_list2;2022.2.4;143.9459922;
