image;correctAns;respModal;frameColor;repSwitch;sequence;target;set;block;list;exp_version;stimulus;baseline;baseline_condition;trial_no;psychopy_trial;Column1;trialsREPSWITCH.thisRepN;trialsREPSWITCH.thisTrialN;trialsREPSWITCH.thisN;trialsREPSWITCH.thisIndex;textWelcome.started;textboxInstrMain1.started;textboxInstrMain1_2.started;textboxInstrMain1_3.started;keyInstrMain.started;keyInstrMain.keys;keyInstrMain.rt;textboxInstrMain2.started;textboxInstrMain2_2.started;textboxInstrMain2_3.started;textboxInstrMain2_4.started;textboxInstrMain2_5.started;textboxInstrMain2_6.started;textboxInstrMain2_7.started;textboxInstrMain2_8.started;textboxInstrMain2_9.started;textboxInstrMain2_10.started;textboxInstrMain2_11.started;textboxInstrMain2_12.started;keyInstrMain2.started;keyInstrMain2.keys;keyInstrMain2.rt;fixationITI.started;fixationITI.stopped;polygonColour.started;polygonWhite.started;imageObject.started;polygonType.started;textInput.started;keyResp.started;micRespv2l2.started;keyResp.keys;keyResp.corr;subjResponse;micRespv2l2.clip;textBlankLoop.started;textBlankLoop.stopped;keyPause.keys;polygonColour.stopped;polygonWhite.stopped;imageObject.stopped;polygonType.stopped;textInput.stopped;keyResp.stopped;keyResp.rt;textboxPause.started;keyPause.started;keyPause.rt;textboxGoodbye.started;textboxGoodbye.stopped;participant;session;date;expName;psychopyVersion;frameRate;Column2
;;;;;;;;;;;;;;;;;;;;;8.2965085;10.7893082;10.7893082;10.7893082;10.7893082;space;11.0630596;;;;;;;;;;;;;;;;;;;;;;;;;;;;;;;;;;;;;;;;;;;;280202;1;2023-12-04_18h16.18.981;REPSWITCH1_version2_list2;2022.2.4;143.8906897;
;;;;;;;;;;;;;;;;;;;;;;;;;;;;21.8671248;21.8671248;21.8671248;21.8671248;21.8671248;21.8671248;21.8671248;21.8671248;21.8671248;21.8671248;21.8671248;21.8671248;21.8671248;space;7.4543098;;;;;;;;;;;;;;;;;;;;;;;;;;;;;280202;1;2023-12-04_18h16.18.981;REPSWITCH1_version2_list2;2022.2.4;143.8906897;
REPSWITCH1/PICTURE_646.png;tronco;speak;darkblue;filler;2;F;1;3;2;2;Extra4;0;None;1;0;1;0;0;0;0;;;;;;;;;;;;;;;;;;;;;;;29.4167577;30.5002875;30.5002875;30.5002875;30.5002875;30.5002875;30.5002875;30.5002875;30.5002875;None;0;;C:\2023\REPSWITCH21092023\REPSWITCH_excgange\REPSWITCH_excgange\data/280202_REPSWITCH1_version2_list2_2023-12-04_18h16.18.981_micRespv2l2_recorded\recording_micRespv2l2_2023-12-04_18h16.45.962.wav;33.5214697;34.0215295;None;;;;;;;;;;;;;280202;1;2023-12-04_18h16.18.981;REPSWITCH1_version2_list2;2022.2.4;143.8906897;
REPSWITCH1/PICTURE_340.png;espejo;type;gold;filler;1;F;1;3;2;2;Extra1;0;None;2;1;2;0;1;1;1;;;;;;;;;;;;;;;;;;;;;;;34.0215295;35.0563997;35.0563997;35.0563997;35.0563997;35.0563997;35.0563997;35.0563997;35.0563997;['e', 'e', 'k', 'backspace', 'backspace', 's', 'p', 'e', 'k'];0;espek;C:\2023\REPSWITCH21092023\REPSWITCH_excgange\REPSWITCH_excgange\data/280202_REPSWITCH1_version2_list2_2023-12-04_18h16.18.981_micRespv2l2_recorded\recording_micRespv2l2_2023-12-04_18h16.50.521.wav;38.0846028;;None;38.0846028;38.0846028;38.0846028;38.0846028;38.0846028;38.0846028;[0.85666360007599, 1.3373819002881646, 1.5148082002997398, 1.8787993001751602, 2.041593400295824, 2.2502628001384437, 2.3796124001964927, 2.7105061998590827, 2.9270498999394476];;;;;;280202;1;2023-12-04_18h16.18.981;REPSWITCH1_version2_list2;2022.2.4;143.8906897;
REPSWITCH1/PICTURE_338.png;regalo;speak;darkblue;filler;2;F;1;3;2;2;Stim6_Set4;0;None;3;2;3;0;2;2;2;;;;;;;;;;;;;;;;;;;;;;;38.584619;39.7653935;39.7653935;39.7653935;39.7653935;39.7653935;39.7653935;39.7653935;39.7653935;None;0;;C:\2023\REPSWITCH21092023\REPSWITCH_excgange\REPSWITCH_excgange\data/280202_REPSWITCH1_version2_list2_2023-12-04_18h16.18.981_micRespv2l2_recorded\recording_micRespv2l2_2023-12-04_18h16.55.231.wav;42.78654;43.2867004;None;42.78654;42.78654;42.78654;42.78654;42.78654;42.78654;;;;;;;280202;1;2023-12-04_18h16.18.981;REPSWITCH1_version2_list2;2022.2.4;143.8906897;
REPSWITCH1/PICTURE_142.png;vaso;speak;darkblue;nontarget;2;NT;1;3;2;2;Stim7_Set1;1;repeat;4;3;4;0;3;3;3;;;;;;;;;;;;;;;;;;;;;;;43.2867004;44.3770559;44.3770559;44.3770559;44.3770559;44.3770559;44.3770559;44.3770559;44.3770559;None;0;;C:\2023\REPSWITCH21092023\REPSWITCH_excgange\REPSWITCH_excgange\data/280202_REPSWITCH1_version2_list2_2023-12-04_18h16.18.981_micRespv2l2_recorded\recording_micRespv2l2_2023-12-04_18h16.59.841.wav;47.3982704;47.8983489;None;47.3982704;47.3982704;47.3982704;47.3982704;47.3982704;47.3982704;;;;;;;280202;1;2023-12-04_18h16.18.981;REPSWITCH1_version2_list2;2022.2.4;143.8906897;
REPSWITCH1/PICTURE_142.png;vaso;speak;darkblue;repeat;2;T;1;3;2;2;Stim7_Set1;0;None;5;4;5;0;4;4;4;;;;;;;;;;;;;;;;;;;;;;;47.8983489;48.9679181;48.9679181;48.9679181;48.9679181;48.9679181;48.9679181;48.9679181;48.9679181;None;0;;C:\2023\REPSWITCH21092023\REPSWITCH_excgange\REPSWITCH_excgange\data/280202_REPSWITCH1_version2_list2_2023-12-04_18h16.18.981_micRespv2l2_recorded\recording_micRespv2l2_2023-12-04_18h17.04.433.wav;51.9891707;52.4892177;None;51.9891707;51.9891707;51.9891707;51.9891707;51.9891707;51.9891707;;;;;;;280202;1;2023-12-04_18h16.18.981;REPSWITCH1_version2_list2;2022.2.4;143.8906897;
REPSWITCH1/PICTURE_498.png;taza;type;gold;filler;1;F;1;3;2;2;Stim4_Set4;0;None;6;5;6;0;5;5;5;;;;;;;;;;;;;;;;;;;;;;;52.4892177;53.6560309;53.6560309;53.6560309;53.6560309;53.6560309;53.6560309;53.6560309;53.6560309;['t', 'a', 'z', 'a'];0;taza;C:\2023\REPSWITCH21092023\REPSWITCH_excgange\REPSWITCH_excgange\data/280202_REPSWITCH1_version2_list2_2023-12-04_18h16.18.981_micRespv2l2_recorded\recording_micRespv2l2_2023-12-04_18h17.09.121.wav;56.6772727;57.1773403;None;56.6772727;56.6772727;56.6772727;56.6772727;56.6772727;56.6772727;[0.93407760001719, 1.104492800310254, 1.3347385004162788, 1.5436458000913262];;;;;;280202;1;2023-12-04_18h16.18.981;REPSWITCH1_version2_list2;2022.2.4;143.8906897;
REPSWITCH1/PICTURE_16.png;cazador;speak;darkblue;nontarget;2;NT;1;3;2;2;Stim6_Set1;1;switch;7;6;7;0;6;6;6;;;;;;;;;;;;;;;;;;;;;;;57.1773403;58.3510832;58.3510832;58.3510832;58.3510832;58.3510832;58.3510832;58.3510832;58.3510832;None;0;;C:\2023\REPSWITCH21092023\REPSWITCH_excgange\REPSWITCH_excgange\data/280202_REPSWITCH1_version2_list2_2023-12-04_18h16.18.981_micRespv2l2_recorded\recording_micRespv2l2_2023-12-04_18h17.13.817.wav;61.3792714;;None;61.3792714;61.3792714;61.3792714;61.3792714;61.3792714;61.3792714;;;;;;;280202;1;2023-12-04_18h16.18.981;REPSWITCH1_version2_list2;2022.2.4;143.8906897;
REPSWITCH1/PICTURE_16.png;cazador;speak;darkblue;repeat;2;T;1;3;2;2;Stim6_Set1;0;None;8;7;8;0;7;7;7;;;;;;;;;;;;;;;;;;;;;;;61.8793459;63.0323442;63.0323442;63.0323442;63.0323442;63.0323442;63.0323442;63.0323442;63.0323442;None;0;;C:\2023\REPSWITCH21092023\REPSWITCH_excgange\REPSWITCH_excgange\data/280202_REPSWITCH1_version2_list2_2023-12-04_18h16.18.981_micRespv2l2_recorded\recording_micRespv2l2_2023-12-04_18h17.18.497.wav;66.0535039;66.5535808;None;66.0535039;66.0535039;66.0535039;66.0535039;66.0535039;66.0535039;;;;;;;280202;1;2023-12-04_18h16.18.981;REPSWITCH1_version2_list2;2022.2.4;143.8906897;
REPSWITCH1/PICTURE_719.png;baño;type;gold;filler;1;F;1;3;2;2;Stim2_Set4;0;None;9;8;9;0;8;8;8;;;;;;;;;;;;;;;;;;;;;;;66.5535808;67.7064915;67.7064915;67.7064915;67.7064915;67.7064915;67.7064915;67.7064915;67.7064915;['b', 'a', 'ñ', 'o'];0;baño;C:\2023\REPSWITCH21092023\REPSWITCH_excgange\REPSWITCH_excgange\data/280202_REPSWITCH1_version2_list2_2023-12-04_18h16.18.981_micRespv2l2_recorded\recording_micRespv2l2_2023-12-04_18h17.23.172.wav;70.7346874;;None;70.7346874;70.7346874;70.7346874;70.7346874;70.7346874;70.7346874;[1.1549724000506103, 1.2805496002547443, 1.5250424002297223, 1.696239700075239];;;;;;280202;1;2023-12-04_18h16.18.981;REPSWITCH1_version2_list2;2022.2.4;143.8906897;
REPSWITCH1/PICTURE_169.png;espalda;speak;darkblue;nontarget;2;NT;1;3;2;2;Stim8_Set1;0;None;10;9;10;0;9;9;9;;;;;;;;;;;;;;;;;;;;;;;71.2348039;72.3321284;72.3321284;72.3321284;72.3321284;72.3321284;72.3321284;72.3321284;72.3321284;None;0;;C:\2023\REPSWITCH21092023\REPSWITCH_excgange\REPSWITCH_excgange\data/280202_REPSWITCH1_version2_list2_2023-12-04_18h16.18.981_micRespv2l2_recorded\recording_micRespv2l2_2023-12-04_18h17.27.797.wav;75.3602791;;None;75.3602791;75.3602791;75.3602791;75.3602791;75.3602791;75.3602791;;;;;;;280202;1;2023-12-04_18h16.18.981;REPSWITCH1_version2_list2;2022.2.4;143.8906897;
REPSWITCH1/PICTURE_169.png;espalda;type;gold;switch;1;T;1;3;2;2;Stim8_Set1;0;None;11;10;11;0;10;10;10;;;;;;;;;;;;;;;;;;;;;;;75.860349;76.9160343;76.9160343;76.9160343;76.9160343;76.9160343;76.9160343;76.9160343;76.9160343;['e', 's', 'p', 'a', 'l', 'd', 'a'];0;espalda;C:\2023\REPSWITCH21092023\REPSWITCH_excgange\REPSWITCH_excgange\data/280202_REPSWITCH1_version2_list2_2023-12-04_18h16.18.981_micRespv2l2_recorded\recording_micRespv2l2_2023-12-04_18h17.32.381.wav;79.9442153;;None;79.9442153;79.9442153;79.9442153;79.9442153;79.9442153;79.9442153;[0.8913371004164219, 1.0629369001835585, 1.1843853001482785, 1.3268697001039982, 1.4812762001529336, 1.7364046005532146, 1.8738187002018094];;;;;;280202;1;2023-12-04_18h16.18.981;REPSWITCH1_version2_list2;2022.2.4;143.8906897;
REPSWITCH1/PICTURE_687.png;camisa;type;gold;filler;1;F;1;3;2;2;Stim5_Set4;0;None;12;11;12;0;11;11;11;;;;;;;;;;;;;;;;;;;;;;;80.4443615;81.5069483;81.5069483;81.5069483;81.5069483;81.5069483;81.5069483;81.5069483;81.5069483;['c', 'a', 'm', 's', 'i', 'backspace', 'backspace', 's', 'a'];0;camsa;C:\2023\REPSWITCH21092023\REPSWITCH_excgange\REPSWITCH_excgange\data/280202_REPSWITCH1_version2_list2_2023-12-04_18h16.18.981_micRespv2l2_recorded\recording_micRespv2l2_2023-12-04_18h17.36.972.wav;84.5281605;85.0282244;None;84.5281605;84.5281605;84.5281605;84.5281605;84.5281605;84.5281605;[0.8864128002896905, 1.050853400491178, 1.1964215002954006, 1.8447897001169622, 1.9344836003147066, 2.247720000334084, 2.376981000415981, 2.6811767001636326, 2.7419771002605557];;;;;;280202;1;2023-12-04_18h16.18.981;REPSWITCH1_version2_list2;2022.2.4;143.8906897;
REPSWITCH1/PICTURE_178.png;puente;type;gold;nontarget;1;NT;1;3;2;2;Stim1_Set1;1;repeat;13;12;13;0;12;12;12;;;;;;;;;;;;;;;;;;;;;;;85.0282244;86.1256213;86.1256213;86.1256213;86.1256213;86.1256213;86.1256213;86.1256213;86.1256213;['p', 'u', 'e', 'n', 't', 'e'];0;puente;C:\2023\REPSWITCH21092023\REPSWITCH_excgange\REPSWITCH_excgange\data/280202_REPSWITCH1_version2_list2_2023-12-04_18h16.18.981_micRespv2l2_recorded\recording_micRespv2l2_2023-12-04_18h17.41.591.wav;89.1467985;89.6468685;None;89.1467985;89.1467985;89.1467985;89.1467985;89.1467985;89.1467985;[0.995505700353533, 1.203698200173676, 1.2964371000416577, 1.3741113003343344, 1.479069100227207, 1.5169406002387404];;;;;;280202;1;2023-12-04_18h16.18.981;REPSWITCH1_version2_list2;2022.2.4;143.8906897;
REPSWITCH1/PICTURE_178.png;puente;speak;darkblue;switch;2;T;1;3;2;2;Stim1_Set1;0;None;14;13;14;0;13;13;13;;;;;;;;;;;;;;;;;;;;;;;89.6468685;90.7720903;90.7720903;90.7720903;90.7720903;90.7720903;90.7720903;90.7720903;90.7720903;None;0;;C:\2023\REPSWITCH21092023\REPSWITCH_excgange\REPSWITCH_excgange\data/280202_REPSWITCH1_version2_list2_2023-12-04_18h16.18.981_micRespv2l2_recorded\recording_micRespv2l2_2023-12-04_18h17.46.236.wav;93.7932809;94.2933223;None;93.7932809;93.7932809;93.7932809;93.7932809;93.7932809;93.7932809;;;;;;;280202;1;2023-12-04_18h16.18.981;REPSWITCH1_version2_list2;2022.2.4;143.8906897;
REPSWITCH1/PICTURE_128.png;muñeca;speak;darkblue;nontarget;2;NT;1;3;2;2;Stim4_Set1;1;repeat;15;14;15;0;14;14;14;;;;;;;;;;;;;;;;;;;;;;;94.2933223;95.3351485;95.3351485;95.3351485;95.3351485;95.3351485;95.3351485;95.3351485;95.3351485;None;0;;C:\2023\REPSWITCH21092023\REPSWITCH_excgange\REPSWITCH_excgange\data/280202_REPSWITCH1_version2_list2_2023-12-04_18h16.18.981_micRespv2l2_recorded\recording_micRespv2l2_2023-12-04_18h17.50.800.wav;98.3633241;;None;98.3633241;98.3633241;98.3633241;98.3633241;98.3633241;98.3633241;;;;;;;280202;1;2023-12-04_18h16.18.981;REPSWITCH1_version2_list2;2022.2.4;143.8906897;
REPSWITCH1/PICTURE_128.png;muñeca;type;gold;switch;1;T;1;3;2;2;Stim4_Set1;0;None;16;15;16;0;15;15;15;;;;;;;;;;;;;;;;;;;;;;;98.8633787;100.0718867;100.0718867;100.0718867;100.0718867;100.0718867;100.0718867;100.0718867;100.0718867;['backspace', 'm', 'u', 'ñ', 'e', 'c', 'a'];0;muñeca;C:\2023\REPSWITCH21092023\REPSWITCH_excgange\REPSWITCH_excgange\data/280202_REPSWITCH1_version2_list2_2023-12-04_18h16.18.981_micRespv2l2_recorded\recording_micRespv2l2_2023-12-04_18h17.55.537.wav;103.0930606;103.5931639;None;103.0930606;103.0930606;103.0930606;103.0930606;103.0930606;103.0930606;[1.3410840001888573, 1.6872702999971807, 1.8880459000356495, 2.2030819999054074, 2.258885699789971, 2.4273299002088606, 2.5728254998102784];;;;;;280202;1;2023-12-04_18h16.18.981;REPSWITCH1_version2_list2;2022.2.4;143.8906897;
REPSWITCH1/PICTURE_319.png;vaca;speak;darkblue;filler;2;F;1;3;2;2;Stim1_Set4;1;switch;17;16;17;0;16;16;16;;;;;;;;;;;;;;;;;;;;;;;103.5931639;104.7877501;104.7877501;104.7877501;104.7877501;104.7877501;104.7877501;104.7877501;104.7877501;None;0;;C:\2023\REPSWITCH21092023\REPSWITCH_excgange\REPSWITCH_excgange\data/280202_REPSWITCH1_version2_list2_2023-12-04_18h16.18.981_micRespv2l2_recorded\recording_micRespv2l2_2023-12-04_18h18.00.253.wav;107.8089603;108.3090197;None;107.8089603;107.8089603;107.8089603;107.8089603;107.8089603;107.8089603;;;;;;;280202;1;2023-12-04_18h16.18.981;REPSWITCH1_version2_list2;2022.2.4;143.8906897;
REPSWITCH1/PICTURE_728.png;pulpo;speak;darkblue;filler;2;F;1;3;2;2;Stim8_Set4;0;None;18;17;18;0;17;17;17;;;;;;;;;;;;;;;;;;;;;;;108.3090197;109.4203973;109.4203973;109.4203973;109.4203973;109.4203973;109.4203973;109.4203973;109.4203973;None;0;;C:\2023\REPSWITCH21092023\REPSWITCH_excgange\REPSWITCH_excgange\data/280202_REPSWITCH1_version2_list2_2023-12-04_18h16.18.981_micRespv2l2_recorded\recording_micRespv2l2_2023-12-04_18h18.04.885.wav;112.4415355;112.9416088;None;112.4415355;112.4415355;112.4415355;112.4415355;112.4415355;112.4415355;;;;;;;280202;1;2023-12-04_18h16.18.981;REPSWITCH1_version2_list2;2022.2.4;143.8906897;
REPSWITCH1/PICTURE_381.png;fresa;type;gold;nontarget;1;NT;1;3;2;2;Stim2_Set1;1;switch;19;18;19;0;18;18;18;;;;;;;;;;;;;;;;;;;;;;;112.9416088;114.0459323;114.0459323;114.0459323;114.0459323;114.0459323;114.0459323;114.0459323;114.0459323;['f', 'e', 'r', 'e', 'backspace', 'backspace', 'backspace', 'r', 'e', 's', 'a'];0;fresa;C:\2023\REPSWITCH21092023\REPSWITCH_excgange\REPSWITCH_excgange\data/280202_REPSWITCH1_version2_list2_2023-12-04_18h16.18.981_micRespv2l2_recorded\recording_micRespv2l2_2023-12-04_18h18.09.511.wav;117.0671269;117.5672225;None;117.0671269;117.0671269;117.0671269;117.0671269;117.0671269;117.0671269;[1.0499895997345448, 1.227900399826467, 1.282710200175643, 1.7504412000998855, 1.880663599818945, 2.0285636000335217, 2.149981399998069, 2.218735700007528, 2.2726651998236775, 2.405478300061077, 2.509021000005305];;;;;;280202;1;2023-12-04_18h16.18.981;REPSWITCH1_version2_list2;2022.2.4;143.8906897;
REPSWITCH1/PICTURE_381.png;fresa;type;gold;repeat;1;T;1;3;2;2;Stim2_Set1;0;None;20;19;20;0;19;19;19;;;;;;;;;;;;;;;;;;;;;;;117.5672225;118.6228959;118.6228959;118.6228959;118.6228959;118.6228959;118.6228959;118.6228959;118.6228959;['f', 'r', 'e', 's', 'a'];0;fresa;C:\2023\REPSWITCH21092023\REPSWITCH_excgange\REPSWITCH_excgange\data/280202_REPSWITCH1_version2_list2_2023-12-04_18h16.18.981_micRespv2l2_recorded\recording_micRespv2l2_2023-12-04_18h18.14.088.wav;121.6511365;;None;121.6511365;121.6511365;121.6511365;121.6511365;121.6511365;121.6511365;[0.9193884003907442, 1.1017514001578093, 1.1595572005026042, 1.3489912003278732, 1.4581462000496686];;;;;;280202;1;2023-12-04_18h16.18.981;REPSWITCH1_version2_list2;2022.2.4;143.8906897;
REPSWITCH1/PICTURE_8.png;pierna;speak;darkblue;filler;2;F;1;3;2;2;Stim3_Set4;0;None;21;20;21;0;20;20;20;;;;;;;;;;;;;;;;;;;;;;;122.1511565;123.283305;123.283305;123.283305;123.283305;123.283305;123.283305;123.283305;123.283305;None;0;;C:\2023\REPSWITCH21092023\REPSWITCH_excgange\REPSWITCH_excgange\data/280202_REPSWITCH1_version2_list2_2023-12-04_18h16.18.981_micRespv2l2_recorded\recording_micRespv2l2_2023-12-04_18h18.18.749.wav;126.3044471;126.8045408;None;126.3044471;126.3044471;126.3044471;126.3044471;126.3044471;126.3044471;;;;;;;280202;1;2023-12-04_18h16.18.981;REPSWITCH1_version2_list2;2022.2.4;143.8906897;
REPSWITCH1/PICTURE_48.png;bombero;speak;darkblue;filler;2;F;1;3;2;2;Stim7_Set4;0;None;22;21;22;0;21;21;21;;;;;;;;;;;;;;;;;;;;;;;126.8045408;127.8532897;127.8532897;127.8532897;127.8532897;127.8532897;127.8532897;127.8532897;127.8532897;None;0;;C:\2023\REPSWITCH21092023\REPSWITCH_excgange\REPSWITCH_excgange\data/280202_REPSWITCH1_version2_list2_2023-12-04_18h16.18.981_micRespv2l2_recorded\recording_micRespv2l2_2023-12-04_18h18.23.318.wav;130.8744886;131.3746556;None;130.8744886;130.8744886;130.8744886;130.8744886;130.8744886;130.8744886;;;;;;;280202;1;2023-12-04_18h16.18.981;REPSWITCH1_version2_list2;2022.2.4;143.8906897;
REPSWITCH1/PICTURE_135.png;traje;type;gold;nontarget;1;NT;1;3;2;2;Stim3_Set1;1;switch;23;22;23;0;22;22;22;;;;;;;;;;;;;;;;;;;;;;;131.3746556;132.4581063;132.4581063;132.4581063;132.4581063;132.4581063;132.4581063;132.4581063;132.4581063;['t', 'r', 'a', 'j', 'w', 'backspace', 'e'];0;traje;C:\2023\REPSWITCH21092023\REPSWITCH_excgange\REPSWITCH_excgange\data/280202_REPSWITCH1_version2_list2_2023-12-04_18h16.18.981_micRespv2l2_recorded\recording_micRespv2l2_2023-12-04_18h18.27.923.wav;135.4792851;135.9793592;None;135.4792851;135.4792851;135.4792851;135.4792851;135.4792851;135.4792851;[0.8177442997694016, 1.0372390002012253, 1.1632957998663187, 1.3165259999223053, 1.8428476001136005, 2.2971284999512136, 2.5357375000603497];;;;;;280202;1;2023-12-04_18h16.18.981;REPSWITCH1_version2_list2;2022.2.4;143.8906897;
REPSWITCH1/PICTURE_135.png;traje;type;gold;repeat;1;T;1;3;2;2;Stim3_Set1;0;None;24;23;24;0;23;23;23;;;;;;;;;;;;;;;;;;;;;;;135.9793592;137.1253929;137.1253929;137.1253929;137.1253929;137.1253929;137.1253929;137.1253929;137.1253929;['t', 'r', 'a', 'j', 'e', 'w', 'backspace', 'w', 'backspace', 'e'];0;traje;C:\2023\REPSWITCH21092023\REPSWITCH_excgange\REPSWITCH_excgange\data/280202_REPSWITCH1_version2_list2_2023-12-04_18h16.18.981_micRespv2l2_recorded\recording_micRespv2l2_2023-12-04_18h18.32.590.wav;140.1535963;;None;140.1535963;140.1535963;140.1535963;140.1535963;140.1535963;140.1535963;[0.8849545000120997, 1.0743173002265394, 1.3015426001511514, 1.4171686000190675, 1.6706580999307334, 1.6715684002265334, 2.0136442999355495, 2.204047500155866, 2.7906500003300607, 2.963207700289786];;;;;;280202;1;2023-12-04_18h16.18.981;REPSWITCH1_version2_list2;2022.2.4;143.8906897;
REPSWITCH1/PICTURE_19.png;pavo;type;gold;nontarget;1;NT;1;3;2;2;Stim5_Set1;1;repeat;25;24;25;0;24;24;24;;;;;;;;;;;;;;;;;;;;;;;140.6535876;141.7440517;141.7440517;141.7440517;141.7440517;141.7440517;141.7440517;141.7440517;141.7440517;['p', 'a', 'v', 'o'];0;pavo;C:\2023\REPSWITCH21092023\REPSWITCH_excgange\REPSWITCH_excgange\data/280202_REPSWITCH1_version2_list2_2023-12-04_18h16.18.981_micRespv2l2_recorded\recording_micRespv2l2_2023-12-04_18h18.37.210.wav;144.7721869;;None;144.7721869;144.7721869;144.7721869;144.7721869;144.7721869;144.7721869;[1.1050609000958502, 1.185859499964863, 1.4220702000893652, 1.5167526002041996];;;;;;280202;1;2023-12-04_18h16.18.981;REPSWITCH1_version2_list2;2022.2.4;143.8906897;
REPSWITCH1/PICTURE_19.png;pavo;speak;darkblue;switch;2;T;1;3;2;2;Stim5_Set1;0;None;26;25;26;0;25;25;25;;;;;;;;;;;;;;;;;;;;;;;145.2722578;146.4252549;146.4252549;146.4252549;146.4252549;146.4252549;146.4252549;146.4252549;146.4252549;None;0;;C:\2023\REPSWITCH21092023\REPSWITCH_excgange\REPSWITCH_excgange\data/280202_REPSWITCH1_version2_list2_2023-12-04_18h16.18.981_micRespv2l2_recorded\recording_micRespv2l2_2023-12-04_18h18.41.891.wav;149.4533412;;None;149.4533412;149.4533412;149.4533412;149.4533412;149.4533412;149.4533412;;;;;;;280202;1;2023-12-04_18h16.18.981;REPSWITCH1_version2_list2;2022.2.4;143.8906897;
REPSWITCH1/PICTURE_142.png;vaso;speak;darkblue;filler;2;F;2;3;2;2;Stim7_Set1;0;None;27;26;27;0;26;26;26;;;;;;;;;;;;;;;;;;;;;;;149.9534298;150.9952855;150.9952855;150.9952855;150.9952855;150.9952855;150.9952855;150.9952855;150.9952855;None;0;;C:\2023\REPSWITCH21092023\REPSWITCH_excgange\REPSWITCH_excgange\data/280202_REPSWITCH1_version2_list2_2023-12-04_18h16.18.981_micRespv2l2_recorded\recording_micRespv2l2_2023-12-04_18h18.46.460.wav;154.0164438;154.5165121;None;154.0164438;154.0164438;154.0164438;154.0164438;154.0164438;154.0164438;;;;;;;280202;1;2023-12-04_18h16.18.981;REPSWITCH1_version2_list2;2022.2.4;143.8906897;
REPSWITCH1/PICTURE_135.png;traje;type;gold;filler;1;F;2;3;2;2;Stim3_Set1;0;None;28;27;28;0;27;27;27;;;;;;;;;;;;;;;;;;;;;;;154.5165121;155.6069979;155.6069979;155.6069979;155.6069979;155.6069979;155.6069979;155.6069979;155.6069979;['t', 'r', 'a', 'k', 'e', 'backspace', 'backspace'];0;tra;C:\2023\REPSWITCH21092023\REPSWITCH_excgange\REPSWITCH_excgange\data/280202_REPSWITCH1_version2_list2_2023-12-04_18h16.18.981_micRespv2l2_recorded\recording_micRespv2l2_2023-12-04_18h18.51.072.wav;158.6282388;159.1282973;None;158.6282388;158.6282388;158.6282388;158.6282388;158.6282388;158.6282388;[1.644444900099188, 1.8805891000665724, 2.178920399863273, 2.3548277001827955, 2.5003865002654493, 2.752391600050032, 2.889580000191927];;;;;;280202;1;2023-12-04_18h16.18.981;REPSWITCH1_version2_list2;2022.2.4;143.8906897;
REPSWITCH1/PICTURE_446.png;cerdo;type;gold;nontarget;1;NT;2;3;2;2;Stim7_Set2;0;None;29;28;29;0;28;28;28;;;;;;;;;;;;;;;;;;;;;;;159.1282973;160.2533916;160.2533916;160.2533916;160.2533916;160.2533916;160.2533916;160.2533916;160.2533916;['c', 'e', 'r', 'd', 'o'];0;cerdo;C:\2023\REPSWITCH21092023\REPSWITCH_excgange\REPSWITCH_excgange\data/280202_REPSWITCH1_version2_list2_2023-12-04_18h16.18.981_micRespv2l2_recorded\recording_micRespv2l2_2023-12-04_18h18.55.719.wav;163.281564;;None;163.281564;163.281564;163.281564;163.281564;163.281564;163.281564;[1.0638753003440797, 1.2443184000439942, 1.3234111000783741, 1.4729952001944184, 1.636402300093323];;;;;;280202;1;2023-12-04_18h16.18.981;REPSWITCH1_version2_list2;2022.2.4;143.8906897;
REPSWITCH1/PICTURE_446.png;cerdo;type;gold;repeat;1;T;2;3;2;2;Stim7_Set2;0;None;30;29;30;0;29;29;29;;;;;;;;;;;;;;;;;;;;;;;163.7816893;164.8651163;164.8651163;164.8651163;164.8651163;164.8651163;164.8651163;164.8651163;164.8651163;['c', 'e', 'r', 'd', 'o'];0;cerdo;C:\2023\REPSWITCH21092023\REPSWITCH_excgange\REPSWITCH_excgange\data/280202_REPSWITCH1_version2_list2_2023-12-04_18h16.18.981_micRespv2l2_recorded\recording_micRespv2l2_2023-12-04_18h19.00.330.wav;167.886326;168.3863993;None;167.886326;167.886326;167.886326;167.886326;167.886326;167.886326;[0.7766954004764557, 0.9421431003138423, 1.0314299003221095, 1.197840000037104, 1.434398700017482];;;;;;280202;1;2023-12-04_18h16.18.981;REPSWITCH1_version2_list2;2022.2.4;143.8906897;
REPSWITCH1/PICTURE_16.png;cazador;speak;darkblue;filler;2;F;2;3;2;2;Stim6_Set1;0;None;31;30;31;0;30;30;30;;;;;;;;;;;;;;;;;;;;;;;168.3863993;169.4698628;169.4698628;169.4698628;169.4698628;169.4698628;169.4698628;169.4698628;169.4698628;None;0;;C:\2023\REPSWITCH21092023\REPSWITCH_excgange\REPSWITCH_excgange\data/280202_REPSWITCH1_version2_list2_2023-12-04_18h16.18.981_micRespv2l2_recorded\recording_micRespv2l2_2023-12-04_18h19.04.936.wav;172.4980944;;None;172.4980944;172.4980944;172.4980944;172.4980944;172.4980944;172.4980944;;;;;;;280202;1;2023-12-04_18h16.18.981;REPSWITCH1_version2_list2;2022.2.4;143.8906897;
REPSWITCH1/PICTURE_552.png;manzana;type;gold;nontarget;1;NT;2;3;2;2;Stim6_Set2;1;switch;32;31;32;0;31;31;31;;;;;;;;;;;;;;;;;;;;;;;172.9980932;174.1302275;174.1302275;174.1302275;174.1302275;174.1302275;174.1302275;174.1302275;174.1302275;['m', 'a', 'n', 'z', 'a', 'n', 'a'];0;manzana;C:\2023\REPSWITCH21092023\REPSWITCH_excgange\REPSWITCH_excgange\data/280202_REPSWITCH1_version2_list2_2023-12-04_18h16.18.981_micRespv2l2_recorded\recording_micRespv2l2_2023-12-04_18h19.09.595.wav;177.1514916;177.6515046;None;177.1514916;177.1514916;177.1514916;177.1514916;177.1514916;177.1514916;[1.2368971002288163, 1.3016568003222346, 1.401535900309682, 1.5062458999454975, 1.6856057001277804, 1.7902994002215564, 2.009554900228977];;;;;;280202;1;2023-12-04_18h16.18.981;REPSWITCH1_version2_list2;2022.2.4;143.8906897;
REPSWITCH1/PICTURE_552.png;manzana;type;gold;repeat;1;T;2;3;2;2;Stim6_Set2;0;None;33;32;33;0;32;32;32;;;;;;;;;;;;;;;;;;;;;;;177.6515046;178.748941;178.748941;178.748941;178.748941;178.748941;178.748941;178.748941;178.748941;['m', 'a', 'n', 'z', 'a', 'n', 'a'];0;manzana;C:\2023\REPSWITCH21092023\REPSWITCH_excgange\REPSWITCH_excgange\data/280202_REPSWITCH1_version2_list2_2023-12-04_18h16.18.981_micRespv2l2_recorded\recording_micRespv2l2_2023-12-04_18h19.14.215.wav;181.7700967;182.2701622;None;181.7700967;181.7700967;181.7700967;181.7700967;181.7700967;181.7700967;[0.8477823999710381, 0.905591799877584, 1.0222320999018848, 1.1216684002429247, 1.31000109994784, 1.3977410001680255, 1.4993988000787795];;;;;;280202;1;2023-12-04_18h16.18.981;REPSWITCH1_version2_list2;2022.2.4;143.8906897;
REPSWITCH1/PICTURE_517.png;cuerda;type;gold;nontarget;1;NT;2;3;2;2;Stim4_Set2;0;None;34;33;34;0;33;33;33;;;;;;;;;;;;;;;;;;;;;;;182.2701622;183.3606037;183.3606037;183.3606037;183.3606037;183.3606037;183.3606037;183.3606037;183.3606037;['c', 'u', 'e', 'r', 'd', 'a'];0;cuerda;C:\2023\REPSWITCH21092023\REPSWITCH_excgange\REPSWITCH_excgange\data/280202_REPSWITCH1_version2_list2_2023-12-04_18h16.18.981_micRespv2l2_recorded\recording_micRespv2l2_2023-12-04_18h19.18.825.wav;186.3818314;186.8818431;None;186.3818314;186.3818314;186.3818314;186.3818314;186.3818314;186.3818314;[0.7587898001074791, 0.9206147999502718, 1.0132333999499679, 1.1026397999376059, 1.2407888998277485, 1.3573894002474844];;;;;;280202;1;2023-12-04_18h16.18.981;REPSWITCH1_version2_list2;2022.2.4;143.8906897;
REPSWITCH1/PICTURE_517.png;cuerda;speak;darkblue;switch;2;T;2;3;2;2;Stim4_Set2;0;None;35;34;35;0;34;34;34;;;;;;;;;;;;;;;;;;;;;;;186.8818431;188.0834385;188.0834385;188.0834385;188.0834385;188.0834385;188.0834385;188.0834385;188.0834385;None;0;;C:\2023\REPSWITCH21092023\REPSWITCH_excgange\REPSWITCH_excgange\data/280202_REPSWITCH1_version2_list2_2023-12-04_18h16.18.981_micRespv2l2_recorded\recording_micRespv2l2_2023-12-04_18h19.23.549.wav;191.104631;191.6047298;None;191.104631;191.104631;191.104631;191.104631;191.104631;191.104631;;;;;;;280202;1;2023-12-04_18h16.18.981;REPSWITCH1_version2_list2;2022.2.4;143.8906897;
REPSWITCH1/PICTURE_169.png;espalda;speak;darkblue;filler;2;F;2;3;2;2;Stim8_Set1;1;repeat;36;35;36;0;35;35;35;;;;;;;;;;;;;;;;;;;;;;;191.6047298;192.7437486;192.7437486;192.7437486;192.7437486;192.7437486;192.7437486;192.7437486;192.7437486;None;0;;C:\2023\REPSWITCH21092023\REPSWITCH_excgange\REPSWITCH_excgange\data/280202_REPSWITCH1_version2_list2_2023-12-04_18h16.18.981_micRespv2l2_recorded\recording_micRespv2l2_2023-12-04_18h19.28.209.wav;195.7649641;196.2650234;None;195.7649641;195.7649641;195.7649641;195.7649641;195.7649641;195.7649641;;;;;;;280202;1;2023-12-04_18h16.18.981;REPSWITCH1_version2_list2;2022.2.4;143.8906897;
REPSWITCH1/PICTURE_30.png;granja;speak;darkblue;nontarget;2;NT;2;3;2;2;Stim5_Set2;1;repeat;37;36;37;0;36;36;36;;;;;;;;;;;;;;;;;;;;;;;196.2650234;197.5151972;197.5151972;197.5151972;197.5151972;197.5151972;197.5151972;197.5151972;197.5151972;None;0;;C:\2023\REPSWITCH21092023\REPSWITCH_excgange\REPSWITCH_excgange\data/280202_REPSWITCH1_version2_list2_2023-12-04_18h16.18.981_micRespv2l2_recorded\recording_micRespv2l2_2023-12-04_18h19.32.981.wav;200.5434282;;None;200.5434282;200.5434282;200.5434282;200.5434282;200.5434282;200.5434282;;;;;;;280202;1;2023-12-04_18h16.18.981;REPSWITCH1_version2_list2;2022.2.4;143.8906897;
REPSWITCH1/PICTURE_30.png;granja;type;gold;switch;1;T;2;3;2;2;Stim5_Set2;0;None;38;37;38;0;37;37;37;;;;;;;;;;;;;;;;;;;;;;;201.0434717;202.1895064;202.1895064;202.1895064;202.1895064;202.1895064;202.1895064;202.1895064;202.1895064;['g', 'r', 'a', 'n', 'j', 'a'];0;granja;C:\2023\REPSWITCH21092023\REPSWITCH_excgange\REPSWITCH_excgange\data/280202_REPSWITCH1_version2_list2_2023-12-04_18h16.18.981_micRespv2l2_recorded\recording_micRespv2l2_2023-12-04_18h19.37.655.wav;205.2176253;;None;205.2176253;205.2176253;205.2176253;205.2176253;205.2176253;205.2176253;[0.9720703000202775, 1.055769800208509, 1.135644500143826, 1.269197499845177, 1.464877599850297, 1.5455947001464665];;;;;;280202;1;2023-12-04_18h16.18.981;REPSWITCH1_version2_list2;2022.2.4;143.8906897;
REPSWITCH1/PICTURE_128.png;muñeca;type;gold;filler;1;F;2;3;2;2;Stim4_Set1;1;repeat;39;38;39;0;38;38;38;;;;;;;;;;;;;;;;;;;;;;;205.7177025;206.9400579;206.9400579;206.9400579;206.9400579;206.9400579;206.9400579;206.9400579;206.9400579;['u', 'ñ', 'e', 'c', 'a', 'backspace', 'backspace'];0;uñe;C:\2023\REPSWITCH21092023\REPSWITCH_excgange\REPSWITCH_excgange\data/280202_REPSWITCH1_version2_list2_2023-12-04_18h16.18.981_micRespv2l2_recorded\recording_micRespv2l2_2023-12-04_18h19.42.405.wav;209.9612692;210.4613695;None;209.9612692;209.9612692;209.9612692;209.9612692;209.9612692;209.9612692;[1.227007600478828, 1.588693500496447, 1.6844192002899945, 1.8399203000590205, 2.0186922000721097, 2.6293029002845287, 2.9195623002015054];;;;;;280202;1;2023-12-04_18h16.18.981;REPSWITCH1_version2_list2;2022.2.4;143.8906897;
REPSWITCH1/PICTURE_199.png;falda;type;gold;nontarget;1;NT;2;3;2;2;Stim8_Set2;0;None;40;39;40;0;39;39;39;;;;;;;;;;;;;;;;;;;;;;;210.4613695;211.6074052;211.6074052;211.6074052;211.6074052;211.6074052;211.6074052;211.6074052;211.6074052;['f', 'a', 'l', 'd', 'a'];0;falda;C:\2023\REPSWITCH21092023\REPSWITCH_excgange\REPSWITCH_excgange\data/280202_REPSWITCH1_version2_list2_2023-12-04_18h16.18.981_micRespv2l2_recorded\recording_micRespv2l2_2023-12-04_18h19.47.073.wav;214.6355111;;None;214.6355111;214.6355111;214.6355111;214.6355111;214.6355111;214.6355111;[0.8206792999990284, 0.9352017999626696, 1.0867004999890924, 1.2252342998981476, 1.2969909999519587];;;;;;280202;1;2023-12-04_18h16.18.981;REPSWITCH1_version2_list2;2022.2.4;143.8906897;
REPSWITCH1/PICTURE_199.png;falda;speak;darkblue;switch;2;T;2;3;2;2;Stim8_Set2;0;None;41;40;41;0;40;40;40;;;;;;;;;;;;;;;;;;;;;;;215.1355975;216.219062;216.219062;216.219062;216.219062;216.219062;216.219062;216.219062;216.219062;None;0;;C:\2023\REPSWITCH21092023\REPSWITCH_excgange\REPSWITCH_excgange\data/280202_REPSWITCH1_version2_list2_2023-12-04_18h16.18.981_micRespv2l2_recorded\recording_micRespv2l2_2023-12-04_18h19.51.684.wav;219.2403088;219.7403701;None;219.2403088;219.2403088;219.2403088;219.2403088;219.2403088;219.2403088;;;;;;;280202;1;2023-12-04_18h16.18.981;REPSWITCH1_version2_list2;2022.2.4;143.8906897;
REPSWITCH1/PICTURE_152.png;caracol;speak;darkblue;nontarget;2;NT;2;3;2;2;Stim2_Set2;1;switch;42;41;42;0;41;41;41;;;;;;;;;;;;;;;;;;;;;;;219.7403701;220.7891338;220.7891338;220.7891338;220.7891338;220.7891338;220.7891338;220.7891338;220.7891338;None;0;;C:\2023\REPSWITCH21092023\REPSWITCH_excgange\REPSWITCH_excgange\data/280202_REPSWITCH1_version2_list2_2023-12-04_18h16.18.981_micRespv2l2_recorded\recording_micRespv2l2_2023-12-04_18h19.56.255.wav;223.8172962;;None;223.8172962;223.8172962;223.8172962;223.8172962;223.8172962;223.8172962;;;;;;;280202;1;2023-12-04_18h16.18.981;REPSWITCH1_version2_list2;2022.2.4;143.8906897;
REPSWITCH1/PICTURE_152.png;caracol;speak;darkblue;repeat;2;T;2;3;2;2;Stim2_Set2;0;None;43;42;43;0;42;42;42;;;;;;;;;;;;;;;;;;;;;;;224.3173461;225.40083;225.40083;225.40083;225.40083;225.40083;225.40083;225.40083;225.40083;None;0;;C:\2023\REPSWITCH21092023\REPSWITCH_excgange\REPSWITCH_excgange\data/280202_REPSWITCH1_version2_list2_2023-12-04_18h16.18.981_micRespv2l2_recorded\recording_micRespv2l2_2023-12-04_18h20.00.866.wav;228.4289919;;None;228.4289919;228.4289919;228.4289919;228.4289919;228.4289919;228.4289919;;;;;;;280202;1;2023-12-04_18h16.18.981;REPSWITCH1_version2_list2;2022.2.4;143.8906897;
REPSWITCH1/PICTURE_381.png;fresa;type;gold;filler;1;F;2;3;2;2;Stim2_Set1;0;None;44;43;44;0;43;43;43;;;;;;;;;;;;;;;;;;;;;;;228.9290549;230.0889596;230.0889596;230.0889596;230.0889596;230.0889596;230.0889596;230.0889596;230.0889596;['f', 'r', 'e', 's', 'a'];0;fresa;C:\2023\REPSWITCH21092023\REPSWITCH_excgange\REPSWITCH_excgange\data/280202_REPSWITCH1_version2_list2_2023-12-04_18h16.18.981_micRespv2l2_recorded\recording_micRespv2l2_2023-12-04_18h20.05.554.wav;233.1101873;233.6102484;None;233.1101873;233.1101873;233.1101873;233.1101873;233.1101873;233.1101873;[0.8088386999443173, 0.9623524998314679, 1.0779647999443114, 1.2585923001170158, 1.421341700013727];;;;;;280202;1;2023-12-04_18h16.18.981;REPSWITCH1_version2_list2;2022.2.4;143.8906897;
REPSWITCH1/PICTURE_175.png;pintor;speak;darkblue;nontarget;2;NT;2;3;2;2;Stim1_Set2;1;switch;45;44;45;0;44;44;44;;;;;;;;;;;;;;;;;;;;;;;233.6102484;234.7075885;234.7075885;234.7075885;234.7075885;234.7075885;234.7075885;234.7075885;234.7075885;None;0;;C:\2023\REPSWITCH21092023\REPSWITCH_excgange\REPSWITCH_excgange\data/280202_REPSWITCH1_version2_list2_2023-12-04_18h16.18.981_micRespv2l2_recorded\recording_micRespv2l2_2023-12-04_18h20.10.174.wav;237.7357955;;None;237.7357955;237.7357955;237.7357955;237.7357955;237.7357955;237.7357955;;;;;;;280202;1;2023-12-04_18h16.18.981;REPSWITCH1_version2_list2;2022.2.4;143.8906897;
REPSWITCH1/PICTURE_175.png;pintor;speak;darkblue;repeat;2;T;2;3;2;2;Stim1_Set2;0;None;46;45;46;0;45;45;45;;;;;;;;;;;;;;;;;;;;;;;238.235819;239.3610213;239.3610213;239.3610213;239.3610213;239.3610213;239.3610213;239.3610213;239.3610213;None;0;;C:\2023\REPSWITCH21092023\REPSWITCH_excgange\REPSWITCH_excgange\data/280202_REPSWITCH1_version2_list2_2023-12-04_18h16.18.981_micRespv2l2_recorded\recording_micRespv2l2_2023-12-04_18h20.14.826.wav;242.3891784;;None;242.3891784;242.3891784;242.3891784;242.3891784;242.3891784;242.3891784;;;;;;;280202;1;2023-12-04_18h16.18.981;REPSWITCH1_version2_list2;2022.2.4;143.8906897;
REPSWITCH1/PICTURE_178.png;puente;type;gold;filler;1;F;2;3;2;2;Stim1_Set1;0;None;47;46;47;0;46;46;46;;;;;;;;;;;;;;;;;;;;;;;242.8892462;244.0005567;244.0005567;244.0005567;244.0005567;244.0005567;244.0005567;244.0005567;244.0005567;['p', 'u', 'n', 'backspace', 'e', 'n', 't', 'e'];0;puente;C:\2023\REPSWITCH21092023\REPSWITCH_excgange\REPSWITCH_excgange\data/280202_REPSWITCH1_version2_list2_2023-12-04_18h16.18.981_micRespv2l2_recorded\recording_micRespv2l2_2023-12-04_18h20.19.466.wav;247.0217166;247.5217861;None;247.0217166;247.0217166;247.0217166;247.0217166;247.0217166;247.0217166;[0.8146917005069554, 1.0748923001810908, 1.2812337004579604, 1.6633202005177736, 2.3491349001415074, 2.435797500424087, 2.526522600091994, 2.5873205005191267];;;;;;280202;1;2023-12-04_18h16.18.981;REPSWITCH1_version2_list2;2022.2.4;143.8906897;
REPSWITCH1/PICTURE_19.png;pavo;speak;darkblue;filler;2;F;2;3;2;2;Stim5_Set1;0;None;48;47;48;0;47;47;47;;;;;;;;;;;;;;;;;;;;;;;247.5217861;248.5844073;248.5844073;248.5844073;248.5844073;248.5844073;248.5844073;248.5844073;248.5844073;None;0;;C:\2023\REPSWITCH21092023\REPSWITCH_excgange\REPSWITCH_excgange\data/280202_REPSWITCH1_version2_list2_2023-12-04_18h16.18.981_micRespv2l2_recorded\recording_micRespv2l2_2023-12-04_18h20.24.049.wav;251.6125984;;None;251.6125984;251.6125984;251.6125984;251.6125984;251.6125984;251.6125984;;;;;;;280202;1;2023-12-04_18h16.18.981;REPSWITCH1_version2_list2;2022.2.4;143.8906897;
REPSWITCH1/PICTURE_264.png;mano;speak;darkblue;nontarget;2;NT;2;3;2;2;Stim3_Set2;1;repeat;49;48;49;0;48;48;48;;;;;;;;;;;;;;;;;;;;;;;252.1126864;253.1892687;253.1892687;253.1892687;253.1892687;253.1892687;253.1892687;253.1892687;253.1892687;None;0;;C:\2023\REPSWITCH21092023\REPSWITCH_excgange\REPSWITCH_excgange\data/280202_REPSWITCH1_version2_list2_2023-12-04_18h16.18.981_micRespv2l2_recorded\recording_micRespv2l2_2023-12-04_18h20.28.654.wav;256.2104436;256.710508;None;256.2104436;256.2104436;256.2104436;256.2104436;256.2104436;256.2104436;;;;;;;280202;1;2023-12-04_18h16.18.981;REPSWITCH1_version2_list2;2022.2.4;143.8906897;
REPSWITCH1/PICTURE_264.png;mano;type;gold;switch;1;T;2;3;2;2;Stim3_Set2;0;None;50;49;50;0;49;49;49;;;;;;;;;;;;;;;;;;;;;;;256.710508;257.8356665;257.8356665;257.8356665;257.8356665;257.8356665;257.8356665;257.8356665;257.8356665;['m', 'a', 'n', 'o'];0;mano;C:\2023\REPSWITCH21092023\REPSWITCH_excgange\REPSWITCH_excgange\data/280202_REPSWITCH1_version2_list2_2023-12-04_18h16.18.981_micRespv2l2_recorded\recording_micRespv2l2_2023-12-04_18h20.33.301.wav;260.856889;261.3570005;None;260.856889;260.856889;260.856889;260.856889;260.856889;260.856889;[0.8266131998971105, 0.8883905997499824, 0.9831416001543403, 1.1365721998736262];;;;;;280202;1;2023-12-04_18h16.18.981;REPSWITCH1_version2_list2;2022.2.4;143.8906897;
REPSWITCH1/PICTURE_446.png;cerdo;type;gold;filler;1;F;3;3;2;2;Stim7_Set2;0;None;51;50;51;0;50;50;50;;;;;;;;;;;;;;;;;;;;;;;261.3570005;262.530717;262.530717;262.530717;262.530717;262.530717;262.530717;262.530717;262.530717;['c', 'e', 'r', 'd', 'o'];0;cerdo;C:\2023\REPSWITCH21092023\REPSWITCH_excgange\REPSWITCH_excgange\data/280202_REPSWITCH1_version2_list2_2023-12-04_18h16.18.981_micRespv2l2_recorded\recording_micRespv2l2_2023-12-04_18h20.37.996.wav;265.5589558;;space;265.5589558;265.5589558;265.5589558;265.5589558;265.5589558;265.5589558;[0.7363265999592841, 0.8839324000291526, 0.988512699957937, 1.1687647001817822, 1.3451253999955952];266.0589333;266.0589333;8.828882;;;280202;1;2023-12-04_18h16.18.981;REPSWITCH1_version2_list2;2022.2.4;143.8906897;
REPSWITCH1/PICTURE_235.png;aguja;type;gold;nontarget;1;NT;3;3;2;2;Stim4_Set3;1;repeat;52;51;52;0;51;51;51;;;;;;;;;;;;;;;;;;;;;;;274.900403;275.9492088;275.9492088;275.9492088;275.9492088;275.9492088;275.9492088;275.9492088;275.9492088;['e', 's', 'p', 'backspace', 'backspace', 'backspace', 'a', 'h', 'backspace', 'g'];0;ag;C:\2023\REPSWITCH21092023\REPSWITCH_excgange\REPSWITCH_excgange\data/280202_REPSWITCH1_version2_list2_2023-12-04_18h16.18.981_micRespv2l2_recorded\recording_micRespv2l2_2023-12-04_18h20.51.414.wav;278.9773447;;None;278.9773447;278.9773447;278.9773447;278.9773447;278.9773447;278.9773447;[0.8688567001372576, 1.0034444001503289, 1.198205899912864, 1.502504600211978, 1.6460261000320315, 1.9698822000063956, 2.1046437001787126, 2.3556746002286673, 2.787513100076467, 2.9333247002214193];;;;;;280202;1;2023-12-04_18h16.18.981;REPSWITCH1_version2_list2;2022.2.4;143.8906897;
REPSWITCH1/PICTURE_235.png;aguja;speak;darkblue;switch;2;T;3;3;2;2;Stim4_Set3;0;None;53;52;53;0;52;52;52;;;;;;;;;;;;;;;;;;;;;;;279.4773932;280.5122417;280.5122417;280.5122417;280.5122417;280.5122417;280.5122417;280.5122417;280.5122417;None;0;;C:\2023\REPSWITCH21092023\REPSWITCH_excgange\REPSWITCH_excgange\data/280202_REPSWITCH1_version2_list2_2023-12-04_18h16.18.981_micRespv2l2_recorded\recording_micRespv2l2_2023-12-04_18h20.55.977.wav;283.5334466;284.0335494;None;283.5334466;283.5334466;283.5334466;283.5334466;283.5334466;283.5334466;;;;;;;280202;1;2023-12-04_18h16.18.981;REPSWITCH1_version2_list2;2022.2.4;143.8906897;
REPSWITCH1/PICTURE_552.png;manzana;speak;darkblue;filler;2;F;3;3;2;2;Stim6_Set2;0;None;54;53;54;0;53;53;53;;;;;;;;;;;;;;;;;;;;;;;284.0335494;285.1309398;285.1309398;285.1309398;285.1309398;285.1309398;285.1309398;285.1309398;285.1309398;None;0;;C:\2023\REPSWITCH21092023\REPSWITCH_excgange\REPSWITCH_excgange\data/280202_REPSWITCH1_version2_list2_2023-12-04_18h16.18.981_micRespv2l2_recorded\recording_micRespv2l2_2023-12-04_18h21.00.595.wav;288.1521457;288.6521944;None;288.1521457;288.1521457;288.1521457;288.1521457;288.1521457;288.1521457;;;;;;;280202;1;2023-12-04_18h16.18.981;REPSWITCH1_version2_list2;2022.2.4;143.8906897;
REPSWITCH1/PICTURE_271.png;conejo;speak;darkblue;nontarget;2;NT;3;3;2;2;Stim7_Set3;1;repeat;55;54;55;0;54;54;54;;;;;;;;;;;;;;;;;;;;;;;288.6521944;289.7287452;289.7287452;289.7287452;289.7287452;289.7287452;289.7287452;289.7287452;289.7287452;None;0;;C:\2023\REPSWITCH21092023\REPSWITCH_excgange\REPSWITCH_excgange\data/280202_REPSWITCH1_version2_list2_2023-12-04_18h16.18.981_micRespv2l2_recorded\recording_micRespv2l2_2023-12-04_18h21.05.193.wav;292.749948;293.2500137;None;292.749948;292.749948;292.749948;292.749948;292.749948;292.749948;;;;;;;280202;1;2023-12-04_18h16.18.981;REPSWITCH1_version2_list2;2022.2.4;143.8906897;
REPSWITCH1/PICTURE_271.png;conejo;type;gold;switch;1;T;3;3;2;2;Stim7_Set3;0;None;56;55;56;0;55;55;55;;;;;;;;;;;;;;;;;;;;;;;293.2500137;294.2987574;294.2987574;294.2987574;294.2987574;294.2987574;294.2987574;294.2987574;294.2987574;['c', 'o', 'n', 'e', 'j', 'o'];0;conejo;C:\2023\REPSWITCH21092023\REPSWITCH_excgange\REPSWITCH_excgange\data/280202_REPSWITCH1_version2_list2_2023-12-04_18h16.18.981_micRespv2l2_recorded\recording_micRespv2l2_2023-12-04_18h21.09.764.wav;297.3199839;297.8201559;None;297.3199839;297.3199839;297.3199839;297.3199839;297.3199839;297.3199839;[0.8125671003945172, 0.9241434005089104, 1.093920100480318, 1.1948783001862466, 1.3154757004231215, 1.4948387001641095];;;;;;280202;1;2023-12-04_18h16.18.981;REPSWITCH1_version2_list2;2022.2.4;143.8906897;
REPSWITCH1/PICTURE_610.png;miel;type;gold;nontarget;1;NT;3;3;2;2;Stim2_Set3;1;repeat;57;56;57;0;56;56;56;;;;;;;;;;;;;;;;;;;;;;;297.8201559;298.9243745;298.9243745;298.9243745;298.9243745;298.9243745;298.9243745;298.9243745;298.9243745;['m', 'i', 'e', 'l'];0;miel;C:\2023\REPSWITCH21092023\REPSWITCH_excgange\REPSWITCH_excgange\data/280202_REPSWITCH1_version2_list2_2023-12-04_18h16.18.981_micRespv2l2_recorded\recording_micRespv2l2_2023-12-04_18h21.14.390.wav;301.9525466;;None;301.9525466;301.9525466;301.9525466;301.9525466;301.9525466;301.9525466;[0.8420728002674878, 0.9938612999394536, 1.0416963999159634, 1.1623023999854922];;;;;;280202;1;2023-12-04_18h16.18.981;REPSWITCH1_version2_list2;2022.2.4;143.8906897;
REPSWITCH1/PICTURE_610.png;miel;speak;darkblue;switch;2;T;3;3;2;2;Stim2_Set3;0;None;58;57;58;0;57;57;57;;;;;;;;;;;;;;;;;;;;;;;302.4526396;303.5222497;303.5222497;303.5222497;303.5222497;303.5222497;303.5222497;303.5222497;303.5222497;None;0;;C:\2023\REPSWITCH21092023\REPSWITCH_excgange\REPSWITCH_excgange\data/280202_REPSWITCH1_version2_list2_2023-12-04_18h16.18.981_micRespv2l2_recorded\recording_micRespv2l2_2023-12-04_18h21.18.988.wav;306.5503971;;None;306.5503971;306.5503971;306.5503971;306.5503971;306.5503971;306.5503971;;;;;;;280202;1;2023-12-04_18h16.18.981;REPSWITCH1_version2_list2;2022.2.4;143.8906897;
REPSWITCH1/PICTURE_199.png;falda;type;gold;filler;1;F;3;3;2;2;Stim8_Set2;0;None;59;58;59;0;58;58;58;;;;;;;;;;;;;;;;;;;;;;;307.0505147;308.2173749;308.2173749;308.2173749;308.2173749;308.2173749;308.2173749;308.2173749;308.2173749;['f', 'a', 'l', 'd', 'a'];0;falda;C:\2023\REPSWITCH21092023\REPSWITCH_excgange\REPSWITCH_excgange\data/280202_REPSWITCH1_version2_list2_2023-12-04_18h16.18.981_micRespv2l2_recorded\recording_micRespv2l2_2023-12-04_18h21.23.682.wav;311.2385171;311.7385772;None;311.2385171;311.2385171;311.2385171;311.2385171;311.2385171;311.2385171;[0.778606400359422, 0.956334600225091, 1.0530094001442194, 1.218458500225097, 1.3242283002473414];;;;;;280202;1;2023-12-04_18h16.18.981;REPSWITCH1_version2_list2;2022.2.4;143.8906897;
REPSWITCH1/PICTURE_464.png;goma;speak;darkblue;nontarget;2;NT;3;3;2;2;Stim6_Set3;1;switch;60;59;60;0;59;59;59;;;;;;;;;;;;;;;;;;;;;;;311.7385772;312.9331772;312.9331772;312.9331772;312.9331772;312.9331772;312.9331772;312.9331772;312.9331772;['g', 'o', 'm', 'a'];0;goma;C:\2023\REPSWITCH21092023\REPSWITCH_excgange\REPSWITCH_excgange\data/280202_REPSWITCH1_version2_list2_2023-12-04_18h16.18.981_micRespv2l2_recorded\recording_micRespv2l2_2023-12-04_18h21.28.398.wav;315.9543751;316.4544828;None;315.9543751;315.9543751;315.9543751;315.9543751;315.9543751;315.9543751;[1.1604924001730978, 1.2691731001250446, 1.4185950001701713, 1.5282220002263784];;;;;;280202;1;2023-12-04_18h16.18.981;REPSWITCH1_version2_list2;2022.2.4;143.8906897;
REPSWITCH1/PICTURE_464.png;goma;speak;darkblue;repeat;2;T;3;3;2;2;Stim6_Set3;0;None;61;60;61;0;60;60;60;;;;;;;;;;;;;;;;;;;;;;;316.4544828;317.5032321;317.5032321;317.5032321;317.5032321;317.5032321;317.5032321;317.5032321;317.5032321;None;0;;C:\2023\REPSWITCH21092023\REPSWITCH_excgange\REPSWITCH_excgange\data/280202_REPSWITCH1_version2_list2_2023-12-04_18h16.18.981_micRespv2l2_recorded\recording_micRespv2l2_2023-12-04_18h21.32.968.wav;320.5245287;321.0245334;None;320.5245287;320.5245287;320.5245287;320.5245287;320.5245287;320.5245287;;;;;;;280202;1;2023-12-04_18h16.18.981;REPSWITCH1_version2_list2;2022.2.4;143.8906897;
REPSWITCH1/PICTURE_152.png;caracol;type;gold;filler;1;F;3;3;2;2;Stim2_Set2;0;None;62;61;62;0;61;61;61;;;;;;;;;;;;;;;;;;;;;;;321.0245334;322.0802111;322.0802111;322.0802111;322.0802111;322.0802111;322.0802111;322.0802111;322.0802111;['c', 'a', 'r', 'a', 'c', 'o', 'l'];0;caracol;C:\2023\REPSWITCH21092023\REPSWITCH_excgange\REPSWITCH_excgange\data/280202_REPSWITCH1_version2_list2_2023-12-04_18h16.18.981_micRespv2l2_recorded\recording_micRespv2l2_2023-12-04_18h21.37.546.wav;325.1014523;325.6014968;None;325.1014523;325.1014523;325.1014523;325.1014523;325.1014523;325.1014523;[0.9207566999830306, 1.1121209999546409, 1.1732645998708904, 1.307538399938494, 1.4970368999056518, 1.5899573997594416, 1.7469766000285745];;;;;;280202;1;2023-12-04_18h16.18.981;REPSWITCH1_version2_list2;2022.2.4;143.8906897;
REPSWITCH1/PICTURE_320.png;iglesia;speak;darkblue;nontarget;2;NT;3;3;2;2;Stim8_Set3;1;switch;63;62;63;0;62;62;62;;;;;;;;;;;;;;;;;;;;;;;325.6014968;326.7406234;326.7406234;326.7406234;326.7406234;326.7406234;326.7406234;326.7406234;326.7406234;None;0;;C:\2023\REPSWITCH21092023\REPSWITCH_excgange\REPSWITCH_excgange\data/280202_REPSWITCH1_version2_list2_2023-12-04_18h16.18.981_micRespv2l2_recorded\recording_micRespv2l2_2023-12-04_18h21.42.206.wav;329.7686925;;None;329.7686925;329.7686925;329.7686925;329.7686925;329.7686925;329.7686925;;;;;;;280202;1;2023-12-04_18h16.18.981;REPSWITCH1_version2_list2;2022.2.4;143.8906897;
REPSWITCH1/PICTURE_320.png;iglesia;speak;darkblue;repeat;2;T;3;3;2;2;Stim8_Set3;0;None;64;63;64;0;63;63;63;;;;;;;;;;;;;;;;;;;;;;;330.2688343;331.3939545;331.3939545;331.3939545;331.3939545;331.3939545;331.3939545;331.3939545;331.3939545;None;0;;C:\2023\REPSWITCH21092023\REPSWITCH_excgange\REPSWITCH_excgange\data/280202_REPSWITCH1_version2_list2_2023-12-04_18h16.18.981_micRespv2l2_recorded\recording_micRespv2l2_2023-12-04_18h21.46.859.wav;334.4221191;;None;334.4221191;334.4221191;334.4221191;334.4221191;334.4221191;334.4221191;;;;;;;280202;1;2023-12-04_18h16.18.981;REPSWITCH1_version2_list2;2022.2.4;143.8906897;
REPSWITCH1/PICTURE_35.png;oreja;speak;darkblue;nontarget;2;NT;3;3;2;2;Stim5_Set3;0;None;65;64;65;0;64;64;64;;;;;;;;;;;;;;;;;;;;;;;334.9221704;335.9431579;335.9431579;335.9431579;335.9431579;335.9431579;335.9431579;335.9431579;335.9431579;None;0;;C:\2023\REPSWITCH21092023\REPSWITCH_excgange\REPSWITCH_excgange\data/280202_REPSWITCH1_version2_list2_2023-12-04_18h16.18.981_micRespv2l2_recorded\recording_micRespv2l2_2023-12-04_18h21.51.407.wav;338.9644589;339.4644341;None;338.9644589;338.9644589;338.9644589;338.9644589;338.9644589;338.9644589;;;;;;;280202;1;2023-12-04_18h16.18.981;REPSWITCH1_version2_list2;2022.2.4;143.8906897;
REPSWITCH1/PICTURE_35.png;oreja;type;gold;switch;1;T;3;3;2;2;Stim5_Set3;0;None;66;65;66;0;65;65;65;;;;;;;;;;;;;;;;;;;;;;;339.4644341;340.5201236;340.5201236;340.5201236;340.5201236;340.5201236;340.5201236;340.5201236;340.5201236;['o', 'r', 'e', 'j', 'a'];0;oreja;C:\2023\REPSWITCH21092023\REPSWITCH_excgange\REPSWITCH_excgange\data/280202_REPSWITCH1_version2_list2_2023-12-04_18h16.18.981_micRespv2l2_recorded\recording_micRespv2l2_2023-12-04_18h21.55.984.wav;343.5414088;344.041436;None;343.5414088;343.5414088;343.5414088;343.5414088;343.5414088;343.5414088;[0.9863769002258778, 1.0711174001917243, 1.1717504002153873, 1.289521099999547, 1.5047383001074195];;;;;;280202;1;2023-12-04_18h16.18.981;REPSWITCH1_version2_list2;2022.2.4;143.8906897;
REPSWITCH1/PICTURE_517.png;cuerda;speak;darkblue;filler;2;F;3;3;2;2;Stim4_Set2;0;None;67;66;67;0;66;66;66;;;;;;;;;;;;;;;;;;;;;;;344.041436;345.1666018;345.1666018;345.1666018;345.1666018;345.1666018;345.1666018;345.1666018;345.1666018;None;0;;C:\2023\REPSWITCH21092023\REPSWITCH_excgange\REPSWITCH_excgange\data/280202_REPSWITCH1_version2_list2_2023-12-04_18h16.18.981_micRespv2l2_recorded\recording_micRespv2l2_2023-12-04_18h22.00.632.wav;348.1878296;348.6878624;None;348.1878296;348.1878296;348.1878296;348.1878296;348.1878296;348.1878296;;;;;;;280202;1;2023-12-04_18h16.18.981;REPSWITCH1_version2_list2;2022.2.4;143.8906897;
REPSWITCH1/PICTURE_30.png;granja;type;gold;filler;1;F;3;3;2;2;Stim5_Set2;1;switch;68;67;68;0;67;67;67;;;;;;;;;;;;;;;;;;;;;;;348.6878624;349.7297274;349.7297274;349.7297274;349.7297274;349.7297274;349.7297274;349.7297274;349.7297274;['g', 'r', 'a', 'n', 'j', 'a'];0;granja;C:\2023\REPSWITCH21092023\REPSWITCH_excgange\REPSWITCH_excgange\data/280202_REPSWITCH1_version2_list2_2023-12-04_18h16.18.981_micRespv2l2_recorded\recording_micRespv2l2_2023-12-04_18h22.05.195.wav;352.750897;353.2509575;None;352.750897;352.750897;352.750897;352.750897;352.750897;352.750897;[1.1260917000472546, 1.168969000224024, 1.242718200199306, 1.3733570999465883, 1.5482820002362132, 1.9241623999550939];;;;;;280202;1;2023-12-04_18h16.18.981;REPSWITCH1_version2_list2;2022.2.4;143.8906897;
REPSWITCH1/PICTURE_242.png;cartero;type;gold;nontarget;1;NT;3;3;2;2;Stim3_Set3;0;None;69;68;69;0;68;68;68;;;;;;;;;;;;;;;;;;;;;;;353.2509575;354.2928527;354.2928527;354.2928527;354.2928527;354.2928527;354.2928527;354.2928527;354.2928527;['c', 'a', 'r', 't', 'e', 'r', 'o'];0;cartero;C:\2023\REPSWITCH21092023\REPSWITCH_excgange\REPSWITCH_excgange\data/280202_REPSWITCH1_version2_list2_2023-12-04_18h16.18.981_micRespv2l2_recorded\recording_micRespv2l2_2023-12-04_18h22.09.758.wav;357.3140732;357.8140824;None;357.3140732;357.3140732;357.3140732;357.3140732;357.3140732;357.3140732;[0.796537300106138, 0.9471661001443863, 1.1385806002654135, 1.3092156001366675, 1.3779806001111865, 1.455029800068587, 1.6537386002019048];;;;;;280202;1;2023-12-04_18h16.18.981;REPSWITCH1_version2_list2;2022.2.4;143.8906897;
REPSWITCH1/PICTURE_242.png;cartero;type;gold;repeat;1;T;3;3;2;2;Stim3_Set3;0;None;70;69;70;0;69;69;69;;;;;;;;;;;;;;;;;;;;;;;357.8140824;358.8837304;358.8837304;358.8837304;358.8837304;358.8837304;358.8837304;358.8837304;358.8837304;['c', 'a', 'r', 't', 'e', 'r', 'i', 'backspace', 'o'];0;cartero;C:\2023\REPSWITCH21092023\REPSWITCH_excgange\REPSWITCH_excgange\data/280202_REPSWITCH1_version2_list2_2023-12-04_18h16.18.981_micRespv2l2_recorded\recording_micRespv2l2_2023-12-04_18h22.14.349.wav;361.9048659;362.4049393;None;361.9048659;361.9048659;361.9048659;361.9048659;361.9048659;361.9048659;[0.7899273005314171, 0.9593149004504085, 1.1606271001510322, 1.3231805004179478, 1.413821800146252, 1.4849038003012538, 1.8958091004751623, 2.2497193003073335, 2.547425900120288];;;;;;280202;1;2023-12-04_18h16.18.981;REPSWITCH1_version2_list2;2022.2.4;143.8906897;
REPSWITCH1/PICTURE_264.png;mano;speak;darkblue;filler;2;F;3;3;2;2;Stim3_Set2;1;switch;71;70;71;0;70;70;70;;;;;;;;;;;;;;;;;;;;;;;362.4049393;363.5231464;363.5231464;363.5231464;363.5231464;363.5231464;363.5231464;363.5231464;363.5231464;None;0;;C:\2023\REPSWITCH21092023\REPSWITCH_excgange\REPSWITCH_excgange\data/280202_REPSWITCH1_version2_list2_2023-12-04_18h16.18.981_micRespv2l2_recorded\recording_micRespv2l2_2023-12-04_18h22.18.988.wav;366.5443994;367.0444658;None;366.5443994;366.5443994;366.5443994;366.5443994;366.5443994;366.5443994;;;;;;;280202;1;2023-12-04_18h16.18.981;REPSWITCH1_version2_list2;2022.2.4;143.8906897;
REPSWITCH1/PICTURE_576.png;guante;type;gold;nontarget;1;NT;3;3;2;2;Stim1_Set3;1;switch;72;71;72;0;71;71;71;;;;;;;;;;;;;;;;;;;;;;;367.0444658;368.141857;368.141857;368.141857;368.141857;368.141857;368.141857;368.141857;368.141857;['g', 'u', 'a', 'n', 't', 'e'];0;guante;C:\2023\REPSWITCH21092023\REPSWITCH_excgange\REPSWITCH_excgange\data/280202_REPSWITCH1_version2_list2_2023-12-04_18h16.18.981_micRespv2l2_recorded\recording_micRespv2l2_2023-12-04_18h22.23.607.wav;371.163072;371.6631152;None;371.163072;371.163072;371.163072;371.163072;371.163072;371.163072;[0.9806935000233352, 1.091228200122714, 1.1928793997503817, 1.2656736001372337, 1.358918699901551, 1.533498200122267];;;;;;280202;1;2023-12-04_18h16.18.981;REPSWITCH1_version2_list2;2022.2.4;143.8906897;
REPSWITCH1/PICTURE_576.png;guante;type;gold;repeat;1;T;3;3;2;2;Stim1_Set3;0;None;73;72;73;0;72;72;72;;;;;;;;;;;;;;;;;;;;;;;371.6631152;372.7188508;372.7188508;372.7188508;372.7188508;372.7188508;372.7188508;372.7188508;372.7188508;['g', 'u', 'a', 'n', 't', 'e', 's', 'backspace'];0;guante;C:\2023\REPSWITCH21092023\REPSWITCH_excgange\REPSWITCH_excgange\data/280202_REPSWITCH1_version2_list2_2023-12-04_18h16.18.981_micRespv2l2_recorded\recording_micRespv2l2_2023-12-04_18h22.28.184.wav;375.7400143;376.2401183;None;375.7400143;375.7400143;375.7400143;375.7400143;375.7400143;375.7400143;[0.8855016999877989, 1.0233041001483798, 1.1189484000205994, 1.1969925998710096, 1.3086513997986913, 1.3707996997982264, 1.5484545999206603, 1.9540931000374258];;;;;;280202;1;2023-12-04_18h16.18.981;REPSWITCH1_version2_list2;2022.2.4;143.8906897;
REPSWITCH1/PICTURE_175.png;pintor;speak;darkblue;filler;2;F;3;3;2;2;Stim1_Set2;0;None;74;73;74;0;73;73;73;;;;;;;;;;;;;;;;;;;;;;;376.2401183;377.3305183;377.3305183;377.3305183;377.3305183;377.3305183;377.3305183;377.3305183;377.3305183;None;0;;C:\2023\REPSWITCH21092023\REPSWITCH_excgange\REPSWITCH_excgange\data/280202_REPSWITCH1_version2_list2_2023-12-04_18h16.18.981_micRespv2l2_recorded\recording_micRespv2l2_2023-12-04_18h22.32.797.wav;380.3517581;380.8518276;None;380.3517581;380.3517581;380.3517581;380.3517581;380.3517581;380.3517581;;;;;;;280202;1;2023-12-04_18h16.18.981;REPSWITCH1_version2_list2;2022.2.4;143.8906897;
REPSWITCH1/PICTURE_498.png;taza;type;gold;nontarget;1;NT;4;3;2;2;Stim4_Set4;0;None;75;74;75;0;74;74;74;;;;;;;;;;;;;;;;;;;;;;;380.8518276;381.9422466;381.9422466;381.9422466;381.9422466;381.9422466;381.9422466;381.9422466;381.9422466;['t', 'a', 'z', 'a'];0;taza;C:\2023\REPSWITCH21092023\REPSWITCH_excgange\REPSWITCH_excgange\data/280202_REPSWITCH1_version2_list2_2023-12-04_18h16.18.981_micRespv2l2_recorded\recording_micRespv2l2_2023-12-04_18h22.37.407.wav;384.9634885;385.4635324;None;384.9634885;384.9634885;384.9634885;384.9634885;384.9634885;384.9634885;[0.7940290998667479, 0.900664699729532, 1.1109700999222696, 1.3651483999565244];;;;;;280202;1;2023-12-04_18h16.18.981;REPSWITCH1_version2_list2;2022.2.4;143.8906897;
REPSWITCH1/PICTURE_498.png;taza;type;gold;repeat;1;T;4;3;2;2;Stim4_Set4;0;None;76;75;76;0;75;75;75;;;;;;;;;;;;;;;;;;;;;;;385.4635324;386.4706144;386.4706144;386.4706144;386.4706144;386.4706144;386.4706144;386.4706144;386.4706144;['t', 'a', 'z', 'a'];0;taza;C:\2023\REPSWITCH21092023\REPSWITCH_excgange\REPSWITCH_excgange\data/280202_REPSWITCH1_version2_list2_2023-12-04_18h16.18.981_micRespv2l2_recorded\recording_micRespv2l2_2023-12-04_18h22.41.935.wav;389.4918393;389.9919011;None;389.4918393;389.4918393;389.4918393;389.4918393;389.4918393;389.4918393;[0.7555341003462672, 0.8787721004337072, 1.0980982002802193, 1.3114534001797438];;;;;;280202;1;2023-12-04_18h16.18.981;REPSWITCH1_version2_list2;2022.2.4;143.8906897;
REPSWITCH1/PICTURE_235.png;aguja;speak;darkblue;filler;2;F;4;3;2;2;Stim4_Set3;0;None;77;76;77;0;76;76;76;;;;;;;;;;;;;;;;;;;;;;;389.9919011;391.0963043;391.0963043;391.0963043;391.0963043;391.0963043;391.0963043;391.0963043;391.0963043;None;0;;C:\2023\REPSWITCH21092023\REPSWITCH_excgange\REPSWITCH_excgange\data/280202_REPSWITCH1_version2_list2_2023-12-04_18h16.18.981_micRespv2l2_recorded\recording_micRespv2l2_2023-12-04_18h22.46.561.wav;394.124481;;None;394.124481;394.124481;394.124481;394.124481;394.124481;394.124481;;;;;;;280202;1;2023-12-04_18h16.18.981;REPSWITCH1_version2_list2;2022.2.4;143.8906897;
REPSWITCH1/PICTURE_338.png;regalo;type;gold;nontarget;1;NT;4;3;2;2;Stim6_Set4;1;switch;78;77;78;0;77;77;77;;;;;;;;;;;;;;;;;;;;;;;394.6245475;395.7496446;395.7496446;395.7496446;395.7496446;395.7496446;395.7496446;395.7496446;395.7496446;['r', 'e', 'g', 'a', 'l', 'o'];0;regalo;C:\2023\REPSWITCH21092023\REPSWITCH_excgange\REPSWITCH_excgange\data/280202_REPSWITCH1_version2_list2_2023-12-04_18h16.18.981_micRespv2l2_recorded\recording_micRespv2l2_2023-12-04_18h22.51.215.wav;398.7708929;399.2709728;None;398.7708929;398.7708929;398.7708929;398.7708929;398.7708929;398.7708929;[1.2317051999270916, 1.28448580019176, 1.4702388998121023, 1.6527424999512732, 1.720729200169444, 1.8482097000814974];;;;;;280202;1;2023-12-04_18h16.18.981;REPSWITCH1_version2_list2;2022.2.4;143.8906897;
REPSWITCH1/PICTURE_338.png;regalo;speak;darkblue;switch;2;T;4;3;2;2;Stim6_Set4;0;None;79;78;79;0;78;78;78;;;;;;;;;;;;;;;;;;;;;;;399.2709728;400.4793937;400.4793937;400.4793937;400.4793937;400.4793937;400.4793937;400.4793937;400.4793937;None;0;;C:\2023\REPSWITCH21092023\REPSWITCH_excgange\REPSWITCH_excgange\data/280202_REPSWITCH1_version2_list2_2023-12-04_18h16.18.981_micRespv2l2_recorded\recording_micRespv2l2_2023-12-04_18h22.55.944.wav;403.5076251;;None;403.5076251;403.5076251;403.5076251;403.5076251;403.5076251;403.5076251;;;;;;;280202;1;2023-12-04_18h16.18.981;REPSWITCH1_version2_list2;2022.2.4;143.8906897;
REPSWITCH1/PICTURE_719.png;baño;speak;darkblue;nontarget;2;NT;4;3;2;2;Stim2_Set4;1;repeat;80;79;80;0;79;79;79;;;;;;;;;;;;;;;;;;;;;;;404.0076602;405.1744643;405.1744643;405.1744643;405.1744643;405.1744643;405.1744643;405.1744643;405.1744643;None;0;;C:\2023\REPSWITCH21092023\REPSWITCH_excgange\REPSWITCH_excgange\data/280202_REPSWITCH1_version2_list2_2023-12-04_18h16.18.981_micRespv2l2_recorded\recording_micRespv2l2_2023-12-04_18h23.00.640.wav;408.2026731;;None;408.2026731;408.2026731;408.2026731;408.2026731;408.2026731;408.2026731;;;;;;;280202;1;2023-12-04_18h16.18.981;REPSWITCH1_version2_list2;2022.2.4;143.8906897;
REPSWITCH1/PICTURE_719.png;baño;speak;darkblue;repeat;2;T;4;3;2;2;Stim2_Set4;0;None;81;80;81;0;80;80;80;;;;;;;;;;;;;;;;;;;;;;;408.7027163;409.7723163;409.7723163;409.7723163;409.7723163;409.7723163;409.7723163;409.7723163;409.7723163;None;0;;C:\2023\REPSWITCH21092023\REPSWITCH_excgange\REPSWITCH_excgange\data/280202_REPSWITCH1_version2_list2_2023-12-04_18h16.18.981_micRespv2l2_recorded\recording_micRespv2l2_2023-12-04_18h23.05.238.wav;412.8004829;;None;412.8004829;412.8004829;412.8004829;412.8004829;412.8004829;412.8004829;;;;;;;280202;1;2023-12-04_18h16.18.981;REPSWITCH1_version2_list2;2022.2.4;143.8906897;
REPSWITCH1/PICTURE_271.png;conejo;type;gold;filler;1;F;4;3;2;2;Stim7_Set3;0;None;82;81;82;0;81;81;81;;;;;;;;;;;;;;;;;;;;;;;413.3005453;414.3840235;414.3840235;414.3840235;414.3840235;414.3840235;414.3840235;414.3840235;414.3840235;['c', 'o', 'n', 'e', 'j', 'o'];0;conejo;C:\2023\REPSWITCH21092023\REPSWITCH_excgange\REPSWITCH_excgange\data/280202_REPSWITCH1_version2_list2_2023-12-04_18h16.18.981_micRespv2l2_recorded\recording_micRespv2l2_2023-12-04_18h23.09.849.wav;417.4053242;417.9053242;None;417.4053242;417.4053242;417.4053242;417.4053242;417.4053242;417.4053242;[0.8641152000054717, 1.0415642000734806, 1.213967700023204, 1.3355232002213597, 1.408315199892968, 1.5720772999338806];;;;;;280202;1;2023-12-04_18h16.18.981;REPSWITCH1_version2_list2;2022.2.4;143.8906897;
REPSWITCH1/PICTURE_610.png;miel;speak;darkblue;filler;2;F;4;3;2;2;Stim2_Set3;0;None;83;82;83;0;82;82;82;;;;;;;;;;;;;;;;;;;;;;;417.9053242;419.0999378;419.0999378;419.0999378;419.0999378;419.0999378;419.0999378;419.0999378;419.0999378;None;0;;C:\2023\REPSWITCH21092023\REPSWITCH_excgange\REPSWITCH_excgange\data/280202_REPSWITCH1_version2_list2_2023-12-04_18h16.18.981_micRespv2l2_recorded\recording_micRespv2l2_2023-12-04_18h23.14.565.wav;422.1281413;;None;422.1281413;422.1281413;422.1281413;422.1281413;422.1281413;422.1281413;;;;;;;280202;1;2023-12-04_18h16.18.981;REPSWITCH1_version2_list2;2022.2.4;143.8906897;
REPSWITCH1/PICTURE_687.png;camisa;speak;darkblue;nontarget;2;NT;4;3;2;2;Stim5_Set4;1;repeat;84;83;84;0;83;83;83;;;;;;;;;;;;;;;;;;;;;;;422.6281714;423.7185738;423.7185738;423.7185738;423.7185738;423.7185738;423.7185738;423.7185738;423.7185738;None;0;;C:\2023\REPSWITCH21092023\REPSWITCH_excgange\REPSWITCH_excgange\data/280202_REPSWITCH1_version2_list2_2023-12-04_18h16.18.981_micRespv2l2_recorded\recording_micRespv2l2_2023-12-04_18h23.19.183.wav;426.7397977;427.239846;None;426.7397977;426.7397977;426.7397977;426.7397977;426.7397977;426.7397977;;;;;;;280202;1;2023-12-04_18h16.18.981;REPSWITCH1_version2_list2;2022.2.4;143.8906897;
REPSWITCH1/PICTURE_687.png;camisa;type;gold;switch;1;T;4;3;2;2;Stim5_Set4;0;None;85;84;85;0;84;84;84;;;;;;;;;;;;;;;;;;;;;;;427.239846;428.2886203;428.2886203;428.2886203;428.2886203;428.2886203;428.2886203;428.2886203;428.2886203;['c', 'a', 'i', 's', 'a', 'backspace', 'backspace', 'backspace', 'i', 'o', 's'];0;caios;C:\2023\REPSWITCH21092023\REPSWITCH_excgange\REPSWITCH_excgange\data/280202_REPSWITCH1_version2_list2_2023-12-04_18h16.18.981_micRespv2l2_recorded\recording_micRespv2l2_2023-12-04_18h23.23.753.wav;431.3098254;431.8098919;None;431.3098254;431.3098254;431.3098254;431.3098254;431.3098254;431.3098254;[1.0146315000019968, 1.1431669001467526, 1.7254901002161205, 1.8171471999958158, 1.9278188003227115, 2.1593031003139913, 2.3038173001259565, 2.4204349000938237, 2.858238000422716, 2.8622211003676057, 2.9718516003340483];;;;;;280202;1;2023-12-04_18h16.18.981;REPSWITCH1_version2_list2;2022.2.4;143.8906897;
REPSWITCH1/PICTURE_319.png;vaca;type;gold;nontarget;1;NT;4;3;2;2;Stim1_Set4;0;None;86;85;86;0;85;85;85;;;;;;;;;;;;;;;;;;;;;;;431.8098919;432.9142232;432.9142232;432.9142232;432.9142232;432.9142232;432.9142232;432.9142232;432.9142232;['v', 'a', 'c', 'a'];0;vaca;C:\2023\REPSWITCH21092023\REPSWITCH_excgange\REPSWITCH_excgange\data/280202_REPSWITCH1_version2_list2_2023-12-04_18h16.18.981_micRespv2l2_recorded\recording_micRespv2l2_2023-12-04_18h23.28.380.wav;435.9354424;436.4355441;None;435.9354424;435.9354424;435.9354424;435.9354424;435.9354424;435.9354424;[0.8565314002335072, 1.0212344001047313, 1.1948101003654301, 1.3133391002193093];;;;;;280202;1;2023-12-04_18h16.18.981;REPSWITCH1_version2_list2;2022.2.4;143.8906897;
REPSWITCH1/PICTURE_319.png;vaca;speak;darkblue;switch;2;T;4;3;2;2;Stim1_Set4;0;None;87;86;87;0;86;86;86;;;;;;;;;;;;;;;;;;;;;;;436.4355441;437.4426363;437.4426363;437.4426363;437.4426363;437.4426363;437.4426363;437.4426363;437.4426363;None;0;;C:\2023\REPSWITCH21092023\REPSWITCH_excgange\REPSWITCH_excgange\data/280202_REPSWITCH1_version2_list2_2023-12-04_18h16.18.981_micRespv2l2_recorded\recording_micRespv2l2_2023-12-04_18h23.32.908.wav;440.4638231;440.9638832;None;440.4638231;440.4638231;440.4638231;440.4638231;440.4638231;440.4638231;;;;;;;280202;1;2023-12-04_18h16.18.981;REPSWITCH1_version2_list2;2022.2.4;143.8906897;
REPSWITCH1/PICTURE_464.png;goma;type;gold;filler;1;F;4;3;2;2;Stim6_Set3;1;switch;88;87;88;0;87;87;87;;;;;;;;;;;;;;;;;;;;;;;440.9638832;442.0057126;442.0057126;442.0057126;442.0057126;442.0057126;442.0057126;442.0057126;442.0057126;['g', 'o', 'm', 'a'];0;goma;C:\2023\REPSWITCH21092023\REPSWITCH_excgange\REPSWITCH_excgange\data/280202_REPSWITCH1_version2_list2_2023-12-04_18h16.18.981_micRespv2l2_recorded\recording_micRespv2l2_2023-12-04_18h23.37.471.wav;445.0269222;445.5270215;None;445.0269222;445.0269222;445.0269222;445.0269222;445.0269222;445.0269222;[1.155177699867636, 1.3963673999533057, 1.5558807998895645, 1.6170189999975264];;;;;;280202;1;2023-12-04_18h16.18.981;REPSWITCH1_version2_list2;2022.2.4;143.8906897;
REPSWITCH1/PICTURE_728.png;pulpo;speak;darkblue;nontarget;2;NT;4;3;2;2;Stim8_Set4;1;switch;89;88;89;0;88;88;88;;;;;;;;;;;;;;;;;;;;;;;445.5270215;446.6660902;446.6660902;446.6660902;446.6660902;446.6660902;446.6660902;446.6660902;446.6660902;None;0;;C:\2023\REPSWITCH21092023\REPSWITCH_excgange\REPSWITCH_excgange\data/280202_REPSWITCH1_version2_list2_2023-12-04_18h16.18.981_micRespv2l2_recorded\recording_micRespv2l2_2023-12-04_18h23.42.131.wav;449.6942972;;None;449.6942972;449.6942972;449.6942972;449.6942972;449.6942972;449.6942972;;;;;;;280202;1;2023-12-04_18h16.18.981;REPSWITCH1_version2_list2;2022.2.4;143.8906897;
REPSWITCH1/PICTURE_728.png;pulpo;speak;darkblue;repeat;2;T;4;3;2;2;Stim8_Set4;0;None;90;89;90;0;89;89;89;;;;;;;;;;;;;;;;;;;;;;;450.1942758;451.270816;451.270816;451.270816;451.270816;451.270816;451.270816;451.270816;451.270816;None;0;;C:\2023\REPSWITCH21092023\REPSWITCH_excgange\REPSWITCH_excgange\data/280202_REPSWITCH1_version2_list2_2023-12-04_18h16.18.981_micRespv2l2_recorded\recording_micRespv2l2_2023-12-04_18h23.46.736.wav;454.2921033;454.7921161;None;454.2921033;454.2921033;454.2921033;454.2921033;454.2921033;454.2921033;;;;;;;280202;1;2023-12-04_18h16.18.981;REPSWITCH1_version2_list2;2022.2.4;143.8906897;
REPSWITCH1/PICTURE_320.png;iglesia;type;gold;filler;1;F;4;3;2;2;Stim8_Set3;0;None;91;90;91;0;90;90;90;;;;;;;;;;;;;;;;;;;;;;;454.7921161;455.9589106;455.9589106;455.9589106;455.9589106;455.9589106;455.9589106;455.9589106;455.9589106;['i', 'g', 'l', 'e', 's', 'i', 'a'];0;iglesia;C:\2023\REPSWITCH21092023\REPSWITCH_excgange\REPSWITCH_excgange\data/280202_REPSWITCH1_version2_list2_2023-12-04_18h16.18.981_micRespv2l2_recorded\recording_micRespv2l2_2023-12-04_18h23.51.424.wav;458.9801613;459.4802357;None;458.9801613;458.9801613;458.9801613;458.9801613;458.9801613;458.9801613;[0.9663009000942111, 1.0571138001978397, 1.211585400160402, 1.3262248001992702, 1.5719463001005352, 1.6676632999442518, 1.7856223001144826];;;;;;280202;1;2023-12-04_18h16.18.981;REPSWITCH1_version2_list2;2022.2.4;143.8906897;
REPSWITCH1/PICTURE_576.png;guante;speak;darkblue;filler;2;F;4;3;2;2;Stim1_Set3;0;None;92;91;92;0;91;91;91;;;;;;;;;;;;;;;;;;;;;;;459.4802357;460.6470326;460.6470326;460.6470326;460.6470326;460.6470326;460.6470326;460.6470326;460.6470326;None;0;;C:\2023\REPSWITCH21092023\REPSWITCH_excgange\REPSWITCH_excgange\data/280202_REPSWITCH1_version2_list2_2023-12-04_18h16.18.981_micRespv2l2_recorded\recording_micRespv2l2_2023-12-04_18h23.56.112.wav;463.6752342;;None;463.6752342;463.6752342;463.6752342;463.6752342;463.6752342;463.6752342;;;;;;;280202;1;2023-12-04_18h16.18.981;REPSWITCH1_version2_list2;2022.2.4;143.8906897;
REPSWITCH1/PICTURE_8.png;pierna;speak;darkblue;nontarget;2;NT;4;3;2;2;Stim3_Set4;1;repeat;93;92;93;0;92;92;92;;;;;;;;;;;;;;;;;;;;;;;464.1752831;465.328311;465.328311;465.328311;465.328311;465.328311;465.328311;465.328311;465.328311;None;0;;C:\2023\REPSWITCH21092023\REPSWITCH_excgange\REPSWITCH_excgange\data/280202_REPSWITCH1_version2_list2_2023-12-04_18h16.18.981_micRespv2l2_recorded\recording_micRespv2l2_2023-12-04_18h24.00.793.wav;468.3494702;468.8495028;None;468.3494702;468.3494702;468.3494702;468.3494702;468.3494702;468.3494702;;;;;;;280202;1;2023-12-04_18h16.18.981;REPSWITCH1_version2_list2;2022.2.4;143.8906897;
REPSWITCH1/PICTURE_8.png;pierna;type;gold;switch;1;T;4;3;2;2;Stim3_Set4;0;None;94;93;94;0;93;93;93;;;;;;;;;;;;;;;;;;;;;;;468.8495028;470.1135971;470.1135971;470.1135971;470.1135971;470.1135971;470.1135971;470.1135971;470.1135971;['p', 'i', 'e', 'r', 'n', 'a'];0;pierna;C:\2023\REPSWITCH21092023\REPSWITCH_excgange\REPSWITCH_excgange\data/280202_REPSWITCH1_version2_list2_2023-12-04_18h16.18.981_micRespv2l2_recorded\recording_micRespv2l2_2023-12-04_18h24.05.578.wav;473.1347839;473.634838;None;473.1347839;473.1347839;473.1347839;473.1347839;473.1347839;473.1347839;[1.340621500276029, 1.5241255001164973, 1.606742599979043, 1.6595608000643551, 1.7526390999555588, 1.8672241000458598];;;;;;280202;1;2023-12-04_18h16.18.981;REPSWITCH1_version2_list2;2022.2.4;143.8906897;
REPSWITCH1/PICTURE_673.png;tenedor;speak;darkblue;filler;2;F;4;3;2;2;Extra5;0;None;95;94;95;0;94;94;94;;;;;;;;;;;;;;;;;;;;;;;473.634838;474.7461878;474.7461878;474.7461878;474.7461878;474.7461878;474.7461878;474.7461878;474.7461878;None;0;;C:\2023\REPSWITCH21092023\REPSWITCH_excgange\REPSWITCH_excgange\data/280202_REPSWITCH1_version2_list2_2023-12-04_18h16.18.981_micRespv2l2_recorded\recording_micRespv2l2_2023-12-04_18h24.10.211.wav;477.7673325;478.2674465;None;477.7673325;477.7673325;477.7673325;477.7673325;477.7673325;477.7673325;;;;;;;280202;1;2023-12-04_18h16.18.981;REPSWITCH1_version2_list2;2022.2.4;143.8906897;
REPSWITCH1/PICTURE_35.png;oreja;type;gold;filler;1;F;4;3;2;2;Stim5_Set3;1;switch;96;95;96;0;95;95;95;;;;;;;;;;;;;;;;;;;;;;;478.2674465;479.378702;479.378702;479.378702;479.378702;479.378702;479.378702;479.378702;479.378702;['o', 'r', 'e', 'j', 'a'];0;oreja;C:\2023\REPSWITCH21092023\REPSWITCH_excgange\REPSWITCH_excgange\data/280202_REPSWITCH1_version2_list2_2023-12-04_18h16.18.981_micRespv2l2_recorded\recording_micRespv2l2_2023-12-04_18h24.14.843.wav;482.3998951;482.8999803;None;482.3998951;482.3998951;482.3998951;482.3998951;482.3998951;482.3998951;[1.274993299972266, 1.399661600124091, 1.423522099852562, 1.52046940010041, 1.6600608001463115];;;;;;280202;1;2023-12-04_18h16.18.981;REPSWITCH1_version2_list2;2022.2.4;143.8906897;
REPSWITCH1/PICTURE_663.png;columna;speak;darkblue;filler;2;F;4;3;2;2;Extra6;0;None;97;96;97;0;96;96;96;;;;;;;;;;;;;;;;;;;;;;;482.8999803;483.9348718;483.9348718;483.9348718;483.9348718;483.9348718;483.9348718;483.9348718;483.9348718;None;0;;C:\2023\REPSWITCH21092023\REPSWITCH_excgange\REPSWITCH_excgange\data/280202_REPSWITCH1_version2_list2_2023-12-04_18h16.18.981_micRespv2l2_recorded\recording_micRespv2l2_2023-12-04_18h24.19.401.wav;486.9630095;;None;486.9630095;486.9630095;486.9630095;486.9630095;486.9630095;486.9630095;;;;;;;280202;1;2023-12-04_18h16.18.981;REPSWITCH1_version2_list2;2022.2.4;143.8906897;
REPSWITCH1/PICTURE_242.png;cartero;type;gold;filler;1;F;4;3;2;2;Stim3_Set3;1;switch;98;97;98;0;97;97;97;;;;;;;;;;;;;;;;;;;;;;;487.4630928;488.5326591;488.5326591;488.5326591;488.5326591;488.5326591;488.5326591;488.5326591;488.5326591;['c', 'a', 'r', 't', 'e', 'e', 'r', 'i', 'backspace', 'backspace', 'o', 'backspace', 'backspace', 'r'];0;carter;C:\2023\REPSWITCH21092023\REPSWITCH_excgange\REPSWITCH_excgange\data/280202_REPSWITCH1_version2_list2_2023-12-04_18h16.18.981_micRespv2l2_recorded\recording_micRespv2l2_2023-12-04_18h24.23.998.wav;491.5538925;492.0539454;None;491.5538925;491.5538925;491.5538925;491.5538925;491.5538925;491.5538925;[0.7632130002602935, 0.9107239004224539, 1.0560195003636181, 1.25670070014894, 1.3464236003346741, 1.5517144002951682, 1.5676555004902184, 1.7311168001033366, 2.069584400393069, 2.222378700505942, 2.436021600384265, 2.695123700425029, 2.829705400392413, 2.953292400110513];;;;;;280202;1;2023-12-04_18h16.18.981;REPSWITCH1_version2_list2;2022.2.4;143.8906897;
REPSWITCH1/PICTURE_48.png;bombero;type;gold;nontarget;1;NT;4;3;2;2;Stim7_Set4;1;repeat;99;98;99;0;98;98;98;;;;;;;;;;;;;;;;;;;;;;;492.0539454;493.1374557;493.1374557;493.1374557;493.1374557;493.1374557;493.1374557;493.1374557;493.1374557;['b', 'o', 'm', 'b', 'e', 'r', 'o'];0;bombero;C:\2023\REPSWITCH21092023\REPSWITCH_excgange\REPSWITCH_excgange\data/280202_REPSWITCH1_version2_list2_2023-12-04_18h16.18.981_micRespv2l2_recorded\recording_micRespv2l2_2023-12-04_18h24.28.602.wav;496.1586739;496.6587868;None;496.1586739;496.1586739;496.1586739;496.1586739;496.1586739;496.1586739;[0.9011701000854373, 1.1058062999509275, 1.2772110998630524, 1.469877999741584, 1.6121755000203848, 1.6649915999732912, 1.8195458999834955];;;;;;280202;1;2023-12-04_18h16.18.981;REPSWITCH1_version2_list2;2022.2.4;143.8906897;
REPSWITCH1/PICTURE_48.png;bombero;type;gold;repeat;1;T;4;3;2;2;Stim7_Set4;0;None;100;99;100;0;99;99;99;;;;;;;;;;;;;;;;;;;;;;;496.6587868;497.7074833;497.7074833;497.7074833;497.7074833;497.7074833;497.7074833;497.7074833;497.7074833;['b', 'o', 'm', 'b', 'e', 'r', 'o'];0;bombero;C:\2023\REPSWITCH21092023\REPSWITCH_excgange\REPSWITCH_excgange\data/280202_REPSWITCH1_version2_list2_2023-12-04_18h16.18.981_micRespv2l2_recorded\recording_micRespv2l2_2023-12-04_18h24.33.172.wav;500.7286841;501.2287589;None;500.7286841;500.7286841;500.7286841;500.7286841;500.7286841;500.7286841;[0.8743287003599107, 1.1016123001463711, 1.2847340004518628, 1.4920191001147032, 1.6051717004738748, 1.6669936003163457, 1.8172760005109012];;;;;;280202;1;2023-12-04_18h16.18.981;REPSWITCH1_version2_list2;2022.2.4;143.8906897;
REPSWITCH1/PICTURE_391.png;cadena;speak;darkblue;filler;2;F;4;3;2;2;Extra2;0;None;101;100;101;0;100;100;100;;;;;;;;;;;;;;;;;;;;;;;501.2287589;502.2844589;502.2844589;502.2844589;502.2844589;502.2844589;502.2844589;502.2844589;502.2844589;None;0;;C:\2023\REPSWITCH21092023\REPSWITCH_excgange\REPSWITCH_excgange\data/280202_REPSWITCH1_version2_list2_2023-12-04_18h16.18.981_micRespv2l2_recorded\recording_micRespv2l2_2023-12-04_18h24.37.749.wav;505.3127183;;None;505.3127183;505.3127183;505.3127183;505.3127183;505.3127183;505.3127183;;;;;;;280202;1;2023-12-04_18h16.18.981;REPSWITCH1_version2_list2;2022.2.4;143.8906897;
REPSWITCH1/PICTURE_590.png;escoba;type;gold;filler;1;F;4;3;2;2;Extra3;0;None;102;101;102;0;101;101;101;;;;;;;;;;;;;;;;;;;;;;;505.8126958;506.9032126;506.9032126;506.9032126;506.9032126;506.9032126;506.9032126;506.9032126;506.9032126;['e', 's', 'c', 'o', 'b', 'a'];0;escoba;C:\2023\REPSWITCH21092023\REPSWITCH_excgange\REPSWITCH_excgange\data/280202_REPSWITCH1_version2_list2_2023-12-04_18h16.18.981_micRespv2l2_recorded\recording_micRespv2l2_2023-12-04_18h24.42.368.wav;509.9243929;510.4244365;space;509.9243929;509.9243929;509.9243929;509.9243929;509.9243929;509.9243929;[0.7915345001965761, 0.9592003002762794, 1.1316634002141654, 1.2562804999761283, 1.4644548003561795, 1.5681402003392577];510.4244365;510.4244365;4.6208155;;;280202;1;2023-12-04_18h16.18.981;REPSWITCH1_version2_list2;2022.2.4;143.8906897;
REPSWITCH1/PICTURE_340.png;espejo;type;gold;filler;1;F;1;1;2;2;Extra1;0;None;103;102;1;0;102;102;102;;;;;;;;;;;;;;;;;;;;;;;515.0569878;516.1960064;516.1960064;516.1960064;516.1960064;516.1960064;516.1960064;516.1960064;516.1960064;['e', 's', 'p', 'e', 'j', 'o', 'p', 'backspace'];0;espejo;C:\2023\REPSWITCH21092023\REPSWITCH_excgange\REPSWITCH_excgange\data/280202_REPSWITCH1_version2_list2_2023-12-04_18h16.18.981_micRespv2l2_recorded\recording_micRespv2l2_2023-12-04_18h24.51.661.wav;519.2172492;519.7173291;None;519.2172492;519.2172492;519.2172492;519.2172492;519.2172492;519.2172492;[0.7244035000912845, 0.8778253998607397, 1.0036903000436723, 1.1267213998362422, 1.253230500034988, 1.4426032998599112, 1.4465785999782383, 1.9275058000348508];;;;;;280202;1;2023-12-04_18h16.18.981;REPSWITCH1_version2_list2;2022.2.4;143.8906897;
REPSWITCH1/PICTURE_391.png;cadena;speak;darkblue;filler;2;F;1;1;2;2;Extra2;0;None;104;103;2;0;103;103;103;;;;;;;;;;;;;;;;;;;;;;;519.7173291;520.8563747;520.8563747;520.8563747;520.8563747;520.8563747;520.8563747;520.8563747;520.8563747;None;0;;C:\2023\REPSWITCH21092023\REPSWITCH_excgange\REPSWITCH_excgange\data/280202_REPSWITCH1_version2_list2_2023-12-04_18h16.18.981_micRespv2l2_recorded\recording_micRespv2l2_2023-12-04_18h24.56.322.wav;523.8845455;;None;523.8845455;523.8845455;523.8845455;523.8845455;523.8845455;523.8845455;;;;;;;280202;1;2023-12-04_18h16.18.981;REPSWITCH1_version2_list2;2022.2.4;143.8906897;
REPSWITCH1/PICTURE_178.png;puente;speak;darkblue;nontarget;2;NT;1;1;2;2;Stim1_Set1;1;repeat;105;104;3;0;104;104;104;;;;;;;;;;;;;;;;;;;;;;;524.3846142;525.5097488;525.5097488;525.5097488;525.5097488;525.5097488;525.5097488;525.5097488;525.5097488;None;0;;C:\2023\REPSWITCH21092023\REPSWITCH_excgange\REPSWITCH_excgange\data/280202_REPSWITCH1_version2_list2_2023-12-04_18h16.18.981_micRespv2l2_recorded\recording_micRespv2l2_2023-12-04_18h25.00.974.wav;528.5309825;529.0310615;None;528.5309825;528.5309825;528.5309825;528.5309825;528.5309825;528.5309825;;;;;;;280202;1;2023-12-04_18h16.18.981;REPSWITCH1_version2_list2;2022.2.4;143.8906897;
REPSWITCH1/PICTURE_178.png;puente;speak;darkblue;repeat;2;T;1;1;2;2;Stim1_Set1;0;None;106;105;4;0;105;105;105;;;;;;;;;;;;;;;;;;;;;;;529.0310615;530.0311924;530.0311924;530.0311924;530.0311924;530.0311924;530.0311924;530.0311924;530.0311924;None;0;;C:\2023\REPSWITCH21092023\REPSWITCH_excgange\REPSWITCH_excgange\data/280202_REPSWITCH1_version2_list2_2023-12-04_18h16.18.981_micRespv2l2_recorded\recording_micRespv2l2_2023-12-04_18h25.05.496.wav;533.0524634;533.5524804;None;533.0524634;533.0524634;533.0524634;533.0524634;533.0524634;533.0524634;;;;;;;280202;1;2023-12-04_18h16.18.981;REPSWITCH1_version2_list2;2022.2.4;143.8906897;
REPSWITCH1/PICTURE_319.png;vaca;type;gold;filler;1;F;1;1;2;2;Stim1_Set4;0;None;107;106;5;0;106;106;106;;;;;;;;;;;;;;;;;;;;;;;533.5524804;534.6845637;534.6845637;534.6845637;534.6845637;534.6845637;534.6845637;534.6845637;534.6845637;['v', 'a', 'c', 'a'];0;vaca;C:\2023\REPSWITCH21092023\REPSWITCH_excgange\REPSWITCH_excgange\data/280202_REPSWITCH1_version2_list2_2023-12-04_18h16.18.981_micRespv2l2_recorded\recording_micRespv2l2_2023-12-04_18h25.10.150.wav;537.705843;538.2058559;None;537.705843;537.705843;537.705843;537.705843;537.705843;537.705843;[0.7843321999534965, 0.9582684999331832, 1.1391063001938164, 1.254850400146097];;;;;;280202;1;2023-12-04_18h16.18.981;REPSWITCH1_version2_list2;2022.2.4;143.8906897;
REPSWITCH1/PICTURE_381.png;fresa;speak;darkblue;nontarget;2;NT;1;1;2;2;Stim2_Set1;1;switch;108;107;6;0;107;107;107;;;;;;;;;;;;;;;;;;;;;;;538.2058559;539.282462;539.282462;539.282462;539.282462;539.282462;539.282462;539.282462;539.282462;None;0;;C:\2023\REPSWITCH21092023\REPSWITCH_excgange\REPSWITCH_excgange\data/280202_REPSWITCH1_version2_list2_2023-12-04_18h16.18.981_micRespv2l2_recorded\recording_micRespv2l2_2023-12-04_18h25.14.747.wav;542.3036326;542.8036643;None;542.3036326;542.3036326;542.3036326;542.3036326;542.3036326;542.3036326;;;;;;;280202;1;2023-12-04_18h16.18.981;REPSWITCH1_version2_list2;2022.2.4;143.8906897;
REPSWITCH1/PICTURE_381.png;fresa;speak;darkblue;repeat;2;T;1;1;2;2;Stim2_Set1;0;None;109;108;7;0;108;108;108;;;;;;;;;;;;;;;;;;;;;;;542.8036643;543.928852;543.928852;543.928852;543.928852;543.928852;543.928852;543.928852;543.928852;None;0;;C:\2023\REPSWITCH21092023\REPSWITCH_excgange\REPSWITCH_excgange\data/280202_REPSWITCH1_version2_list2_2023-12-04_18h16.18.981_micRespv2l2_recorded\recording_micRespv2l2_2023-12-04_18h25.19.395.wav;546.9570283;;None;546.9570283;546.9570283;546.9570283;546.9570283;546.9570283;546.9570283;;;;;;;280202;1;2023-12-04_18h16.18.981;REPSWITCH1_version2_list2;2022.2.4;143.8906897;
REPSWITCH1/PICTURE_719.png;baño;type;gold;filler;1;F;1;1;2;2;Stim2_Set4;1;switch;110;109;8;0;109;109;109;;;;;;;;;;;;;;;;;;;;;;;547.4570872;548.5544359;548.5544359;548.5544359;548.5544359;548.5544359;548.5544359;548.5544359;548.5544359;['b', 'a', 'ñ', 'o'];0;baño;C:\2023\REPSWITCH21092023\REPSWITCH_excgange\REPSWITCH_excgange\data/280202_REPSWITCH1_version2_list2_2023-12-04_18h16.18.981_micRespv2l2_recorded\recording_micRespv2l2_2023-12-04_18h25.24.020.wav;551.5756592;552.0757982;None;551.5756592;551.5756592;551.5756592;551.5756592;551.5756592;551.5756592;[0.8709168997593224, 0.9718541000038385, 1.3756339997053146, 1.5550663997419178];;;;;;280202;1;2023-12-04_18h16.18.981;REPSWITCH1_version2_list2;2022.2.4;143.8906897;
REPSWITCH1/PICTURE_135.png;traje;speak;darkblue;nontarget;2;NT;1;1;2;2;Stim3_Set1;0;None;111;110;9;0;110;110;110;;;;;;;;;;;;;;;;;;;;;;;552.0757982;553.1036752;553.1036752;553.1036752;553.1036752;553.1036752;553.1036752;553.1036752;553.1036752;None;0;;C:\2023\REPSWITCH21092023\REPSWITCH_excgange\REPSWITCH_excgange\data/280202_REPSWITCH1_version2_list2_2023-12-04_18h16.18.981_micRespv2l2_recorded\recording_micRespv2l2_2023-12-04_18h25.28.569.wav;556.1248602;556.6249515;None;556.1248602;556.1248602;556.1248602;556.1248602;556.1248602;556.1248602;;;;;;;280202;1;2023-12-04_18h16.18.981;REPSWITCH1_version2_list2;2022.2.4;143.8906897;
REPSWITCH1/PICTURE_135.png;traje;type;gold;switch;1;T;1;1;2;2;Stim3_Set1;0;None;112;111;10;0;111;111;111;;;;;;;;;;;;;;;;;;;;;;;556.6249515;557.7154003;557.7154003;557.7154003;557.7154003;557.7154003;557.7154003;557.7154003;557.7154003;['t', 'r', 'a', 'j', 'e'];0;traje;C:\2023\REPSWITCH21092023\REPSWITCH_excgange\REPSWITCH_excgange\data/280202_REPSWITCH1_version2_list2_2023-12-04_18h16.18.981_micRespv2l2_recorded\recording_micRespv2l2_2023-12-04_18h25.33.180.wav;560.7366204;561.2366576;None;560.7366204;560.7366204;560.7366204;560.7366204;560.7366204;560.7366204;[0.6626594001427293, 0.8988501997664571, 1.0263859000988305, 1.1599620999768376, 1.3066559000872076];;;;;;280202;1;2023-12-04_18h16.18.981;REPSWITCH1_version2_list2;2022.2.4;143.8906897;
REPSWITCH1/PICTURE_687.png;camisa;speak;darkblue;filler;2;F;1;1;2;2;Stim5_Set4;0;None;113;112;11;0;112;112;112;;;;;;;;;;;;;;;;;;;;;;;561.2366576;562.2924296;562.2924296;562.2924296;562.2924296;562.2924296;562.2924296;562.2924296;562.2924296;None;0;;C:\2023\REPSWITCH21092023\REPSWITCH_excgange\REPSWITCH_excgange\data/280202_REPSWITCH1_version2_list2_2023-12-04_18h16.18.981_micRespv2l2_recorded\recording_micRespv2l2_2023-12-04_18h25.37.758.wav;565.3205508;;None;565.3205508;565.3205508;565.3205508;565.3205508;565.3205508;565.3205508;;;;;;;280202;1;2023-12-04_18h16.18.981;REPSWITCH1_version2_list2;2022.2.4;143.8906897;
REPSWITCH1/PICTURE_128.png;muñeca;type;gold;nontarget;1;NT;1;1;2;2;Stim4_Set1;1;switch;114;113;12;0;113;113;113;;;;;;;;;;;;;;;;;;;;;;;565.8205978;566.8762833;566.8762833;566.8762833;566.8762833;566.8762833;566.8762833;566.8762833;566.8762833;['m', 'u', 'ñ', 'e', 'c', 'a'];0;muñeca;C:\2023\REPSWITCH21092023\REPSWITCH_excgange\REPSWITCH_excgange\data/280202_REPSWITCH1_version2_list2_2023-12-04_18h16.18.981_micRespv2l2_recorded\recording_micRespv2l2_2023-12-04_18h25.42.342.wav;569.9044991;570.4045626;None;569.9044991;569.9044991;569.9044991;569.9044991;569.9044991;569.9044991;[0.8130688001401722, 1.0263885003514588, 1.376981900073588, 1.462700200267136, 1.6171133001334965, 1.7689848002046347];;;;;;280202;1;2023-12-04_18h16.18.981;REPSWITCH1_version2_list2;2022.2.4;143.8906897;
REPSWITCH1/PICTURE_128.png;muñeca;speak;darkblue;switch;2;T;1;1;2;2;Stim4_Set1;0;None;115;114;13;0;114;114;114;;;;;;;;;;;;;;;;;;;;;;;570.4045626;571.6199738;571.6199738;571.6199738;571.6199738;571.6199738;571.6199738;571.6199738;571.6199738;None;0;;C:\2023\REPSWITCH21092023\REPSWITCH_excgange\REPSWITCH_excgange\data/280202_REPSWITCH1_version2_list2_2023-12-04_18h16.18.981_micRespv2l2_recorded\recording_micRespv2l2_2023-12-04_18h25.47.086.wav;574.6482263;;None;574.6482263;574.6482263;574.6482263;574.6482263;574.6482263;574.6482263;;;;;;;280202;1;2023-12-04_18h16.18.981;REPSWITCH1_version2_list2;2022.2.4;143.8906897;
REPSWITCH1/PICTURE_8.png;pierna;speak;darkblue;filler;2;F;1;1;2;2;Stim3_Set4;0;None;116;115;14;0;115;115;115;;;;;;;;;;;;;;;;;;;;;;;575.1482137;576.2733995;576.2733995;576.2733995;576.2733995;576.2733995;576.2733995;576.2733995;576.2733995;None;0;;C:\2023\REPSWITCH21092023\REPSWITCH_excgange\REPSWITCH_excgange\data/280202_REPSWITCH1_version2_list2_2023-12-04_18h16.18.981_micRespv2l2_recorded\recording_micRespv2l2_2023-12-04_18h25.51.738.wav;579.3015576;;None;579.3015576;579.3015576;579.3015576;579.3015576;579.3015576;579.3015576;;;;;;;280202;1;2023-12-04_18h16.18.981;REPSWITCH1_version2_list2;2022.2.4;143.8906897;
REPSWITCH1/PICTURE_19.png;pavo;speak;darkblue;nontarget;2;NT;1;1;2;2;Stim5_Set1;0;None;117;116;15;0;116;116;116;;;;;;;;;;;;;;;;;;;;;;;579.8016064;580.8920707;580.8920707;580.8920707;580.8920707;580.8920707;580.8920707;580.8920707;580.8920707;None;0;;C:\2023\REPSWITCH21092023\REPSWITCH_excgange\REPSWITCH_excgange\data/280202_REPSWITCH1_version2_list2_2023-12-04_18h16.18.981_micRespv2l2_recorded\recording_micRespv2l2_2023-12-04_18h25.56.357.wav;583.9202178;;None;583.9202178;583.9202178;583.9202178;583.9202178;583.9202178;583.9202178;;;;;;;280202;1;2023-12-04_18h16.18.981;REPSWITCH1_version2_list2;2022.2.4;143.8906897;
REPSWITCH1/PICTURE_19.png;pavo;type;gold;switch;1;T;1;1;2;2;Stim5_Set1;0;None;118;117;16;0;117;117;117;;;;;;;;;;;;;;;;;;;;;;;584.4202868;585.5523613;585.5523613;585.5523613;585.5523613;585.5523613;585.5523613;585.5523613;585.5523613;['p', 'a', 'v', 'o'];0;pavo;C:\2023\REPSWITCH21092023\REPSWITCH_excgange\REPSWITCH_excgange\data/280202_REPSWITCH1_version2_list2_2023-12-04_18h16.18.981_micRespv2l2_recorded\recording_micRespv2l2_2023-12-04_18h26.01.017.wav;588.5735718;589.0736564;None;588.5735718;588.5735718;588.5735718;588.5735718;588.5735718;588.5735718;[0.8489050003699958, 0.8887476003728807, 1.132961300201714, 1.2357025002129376];;;;;;280202;1;2023-12-04_18h16.18.981;REPSWITCH1_version2_list2;2022.2.4;143.8906897;
REPSWITCH1/PICTURE_16.png;cazador;type;gold;nontarget;1;NT;1;1;2;2;Stim6_Set1;1;switch;119;118;17;0;118;118;118;;;;;;;;;;;;;;;;;;;;;;;589.0736564;590.0946937;590.0946937;590.0946937;590.0946937;590.0946937;590.0946937;590.0946937;590.0946937;['c', 'a', 'z', 'a', 'd', 'o', 'r'];0;cazador;C:\2023\REPSWITCH21092023\REPSWITCH_excgange\REPSWITCH_excgange\data/280202_REPSWITCH1_version2_list2_2023-12-04_18h16.18.981_micRespv2l2_recorded\recording_micRespv2l2_2023-12-04_18h26.05.561.wav;593.1227883;;None;593.1227883;593.1227883;593.1227883;593.1227883;593.1227883;593.1227883;[0.7611618000082672, 0.9508865000680089, 1.169131400063634, 1.4112217002548277, 1.6035682000219822, 1.7061935001984239, 1.82282799994573];;;;;;280202;1;2023-12-04_18h16.18.981;REPSWITCH1_version2_list2;2022.2.4;143.8906897;
REPSWITCH1/PICTURE_16.png;cazador;type;gold;repeat;1;T;1;1;2;2;Stim6_Set1;0;None;120;119;18;0;119;119;119;;;;;;;;;;;;;;;;;;;;;;;593.6228561;594.6647092;594.6647092;594.6647092;594.6647092;594.6647092;594.6647092;594.6647092;594.6647092;['c', 'a', 'z', 'a', 'd', 'o', 'r'];0;cazador;C:\2023\REPSWITCH21092023\REPSWITCH_excgange\REPSWITCH_excgange\data/280202_REPSWITCH1_version2_list2_2023-12-04_18h16.18.981_micRespv2l2_recorded\recording_micRespv2l2_2023-12-04_18h26.10.130.wav;597.6928432;;None;597.6928432;597.6928432;597.6928432;597.6928432;597.6928432;597.6928432;[0.8766528000123799, 1.0503889000974596, 1.2437414997257292, 1.4550075000151992, 1.6584606999531388, 1.7862921999767423, 1.8700449001044035];;;;;;280202;1;2023-12-04_18h16.18.981;REPSWITCH1_version2_list2;2022.2.4;143.8906897;
REPSWITCH1/PICTURE_498.png;taza;speak;darkblue;filler;2;F;1;1;2;2;Stim4_Set4;0;None;121;120;19;0;120;120;120;;;;;;;;;;;;;;;;;;;;;;;598.1929876;599.2695193;599.2695193;599.2695193;599.2695193;599.2695193;599.2695193;599.2695193;599.2695193;None;0;;C:\2023\REPSWITCH21092023\REPSWITCH_excgange\REPSWITCH_excgange\data/280202_REPSWITCH1_version2_list2_2023-12-04_18h16.18.981_micRespv2l2_recorded\recording_micRespv2l2_2023-12-04_18h26.14.735.wav;602.2906691;602.7907315;None;602.2906691;602.2906691;602.2906691;602.2906691;602.2906691;602.2906691;;;;;;;280202;1;2023-12-04_18h16.18.981;REPSWITCH1_version2_list2;2022.2.4;143.8906897;
REPSWITCH1/PICTURE_48.png;bombero;type;gold;filler;1;F;1;1;2;2;Stim7_Set4;0;None;122;121;20;0;121;121;121;;;;;;;;;;;;;;;;;;;;;;;602.7907315;603.9575927;603.9575927;603.9575927;603.9575927;603.9575927;603.9575927;603.9575927;603.9575927;['v', 'backspace', 'b', 'o', 'm', 'b', 'e', 'r', 'o'];0;bombero;C:\2023\REPSWITCH21092023\REPSWITCH_excgange\REPSWITCH_excgange\data/280202_REPSWITCH1_version2_list2_2023-12-04_18h16.18.981_micRespv2l2_recorded\recording_micRespv2l2_2023-12-04_18h26.19.423.wav;606.9787866;607.4789197;None;606.9787866;606.9787866;606.9787866;606.9787866;606.9787866;606.9787866;[0.8224070002324879, 1.1414793003350496, 1.3089177003130317, 1.455777000170201, 1.6328725004568696, 1.844130600336939, 1.9338636002503335, 1.984695200342685, 2.1740969005040824];;;;;;280202;1;2023-12-04_18h16.18.981;REPSWITCH1_version2_list2;2022.2.4;143.8906897;
REPSWITCH1/PICTURE_142.png;vaso;type;gold;nontarget;1;NT;1;1;2;2;Stim7_Set1;1;repeat;123;122;21;0;122;122;122;;;;;;;;;;;;;;;;;;;;;;;607.4789197;608.6387587;608.6387587;608.6387587;608.6387587;608.6387587;608.6387587;608.6387587;608.6387587;['v', 'a', 'a', 'o', 'backspace', 'backspace', 's', 'o'];0;vaso;C:\2023\REPSWITCH21092023\REPSWITCH_excgange\REPSWITCH_excgange\data/280202_REPSWITCH1_version2_list2_2023-12-04_18h16.18.981_micRespv2l2_recorded\recording_micRespv2l2_2023-12-04_18h26.24.104.wav;611.6669202;;None;611.6669202;611.6669202;611.6669202;611.6669202;611.6669202;611.6669202;[0.8267618999816477, 0.9933927999809384, 1.3288543000817299, 1.4409233001060784, 1.9309319001622498, 2.0675066001713276, 2.212418499868363, 2.298472300171852];;;;;;280202;1;2023-12-04_18h16.18.981;REPSWITCH1_version2_list2;2022.2.4;143.8906897;
REPSWITCH1/PICTURE_142.png;vaso;type;gold;repeat;1;T;1;1;2;2;Stim7_Set1;0;None;124;123;22;0;123;123;123;;;;;;;;;;;;;;;;;;;;;;;612.1669862;613.2990787;613.2990787;613.2990787;613.2990787;613.2990787;613.2990787;613.2990787;613.2990787;['v', 'a', 's', 'o'];0;vaso;C:\2023\REPSWITCH21092023\REPSWITCH_excgange\REPSWITCH_excgange\data/280202_REPSWITCH1_version2_list2_2023-12-04_18h16.18.981_micRespv2l2_recorded\recording_micRespv2l2_2023-12-04_18h26.28.764.wav;616.3272576;;None;616.3272576;616.3272576;616.3272576;616.3272576;616.3272576;616.3272576;[0.7643852001056075, 1.004362900275737, 1.1946838004514575, 1.448438800405711];;;;;;280202;1;2023-12-04_18h16.18.981;REPSWITCH1_version2_list2;2022.2.4;143.8906897;
REPSWITCH1/PICTURE_338.png;regalo;speak;darkblue;filler;2;F;1;1;2;2;Stim6_Set4;1;switch;125;124;23;0;124;124;124;;;;;;;;;;;;;;;;;;;;;;;616.8273556;617.9386006;617.9386006;617.9386006;617.9386006;617.9386006;617.9386006;617.9386006;617.9386006;None;0;;C:\2023\REPSWITCH21092023\REPSWITCH_excgange\REPSWITCH_excgange\data/280202_REPSWITCH1_version2_list2_2023-12-04_18h16.18.981_micRespv2l2_recorded\recording_micRespv2l2_2023-12-04_18h26.33.404.wav;620.9667367;;None;620.9667367;620.9667367;620.9667367;620.9667367;620.9667367;620.9667367;;;;;;;280202;1;2023-12-04_18h16.18.981;REPSWITCH1_version2_list2;2022.2.4;143.8906897;
REPSWITCH1/PICTURE_728.png;pulpo;type;gold;filler;1;F;1;1;2;2;Stim8_Set4;1;switch;126;125;24;0;125;125;125;;;;;;;;;;;;;;;;;;;;;;;621.4667977;622.5364182;622.5364182;622.5364182;622.5364182;622.5364182;622.5364182;622.5364182;622.5364182;['p', 'u', 'l', 'p', 'o'];0;pulpo;C:\2023\REPSWITCH21092023\REPSWITCH_excgange\REPSWITCH_excgange\data/280202_REPSWITCH1_version2_list2_2023-12-04_18h16.18.981_micRespv2l2_recorded\recording_micRespv2l2_2023-12-04_18h26.38.001.wav;625.5576259;626.0577449;None;625.5576259;625.5576259;625.5576259;625.5576259;625.5576259;625.5576259;[0.9760251003317535, 1.1647082003764808, 1.3795881001278758, 1.6417131000198424, 1.7782152001745999];;;;;;280202;1;2023-12-04_18h16.18.981;REPSWITCH1_version2_list2;2022.2.4;143.8906897;
REPSWITCH1/PICTURE_169.png;espalda;type;gold;nontarget;1;NT;1;1;2;2;Stim8_Set1;1;repeat;127;126;25;0;126;126;126;;;;;;;;;;;;;;;;;;;;;;;626.0577449;627.1759579;627.1759579;627.1759579;627.1759579;627.1759579;627.1759579;627.1759579;627.1759579;['e', 's', 'p', 'a', 'l', 'd', 'a'];0;espalda;C:\2023\REPSWITCH21092023\REPSWITCH_excgange\REPSWITCH_excgange\data/280202_REPSWITCH1_version2_list2_2023-12-04_18h16.18.981_micRespv2l2_recorded\recording_micRespv2l2_2023-12-04_18h26.42.641.wav;630.2040702;;None;630.2040702;630.2040702;630.2040702;630.2040702;630.2040702;630.2040702;[1.0107625001110137, 1.1575937001034617, 1.2544681001454592, 1.3760395999997854, 1.4398604999296367, 1.8156217001378536, 1.9242198998108506];;;;;;280202;1;2023-12-04_18h16.18.981;REPSWITCH1_version2_list2;2022.2.4;143.8906897;
REPSWITCH1/PICTURE_169.png;espalda;speak;darkblue;switch;2;T;1;1;2;2;Stim8_Set1;0;None;128;127;26;0;127;127;127;;;;;;;;;;;;;;;;;;;;;;;630.7041697;631.8015804;631.8015804;631.8015804;631.8015804;631.8015804;631.8015804;631.8015804;631.8015804;None;0;;C:\2023\REPSWITCH21092023\REPSWITCH_excgange\REPSWITCH_excgange\data/280202_REPSWITCH1_version2_list2_2023-12-04_18h16.18.981_micRespv2l2_recorded\recording_micRespv2l2_2023-12-04_18h26.47.267.wav;634.8296691;;None;634.8296691;634.8296691;634.8296691;634.8296691;634.8296691;634.8296691;;;;;;;280202;1;2023-12-04_18h16.18.981;REPSWITCH1_version2_list2;2022.2.4;143.8906897;
REPSWITCH1/PICTURE_178.png;puente;speak;darkblue;filler;2;F;2;1;2;2;Stim1_Set1;0;None;129;128;27;0;128;128;128;;;;;;;;;;;;;;;;;;;;;;;635.3297193;636.4062736;636.4062736;636.4062736;636.4062736;636.4062736;636.4062736;636.4062736;636.4062736;None;0;;C:\2023\REPSWITCH21092023\REPSWITCH_excgange\REPSWITCH_excgange\data/280202_REPSWITCH1_version2_list2_2023-12-04_18h16.18.981_micRespv2l2_recorded\recording_micRespv2l2_2023-12-04_18h26.51.871.wav;639.4344503;;None;639.4344503;639.4344503;639.4344503;639.4344503;639.4344503;639.4344503;;;;;;;280202;1;2023-12-04_18h16.18.981;REPSWITCH1_version2_list2;2022.2.4;143.8906897;
REPSWITCH1/PICTURE_175.png;pintor;type;gold;nontarget;1;NT;2;1;2;2;Stim1_Set2;1;switch;130;129;28;0;129;129;129;;;;;;;;;;;;;;;;;;;;;;;639.9345313;640.9832891;640.9832891;640.9832891;640.9832891;640.9832891;640.9832891;640.9832891;640.9832891;['p', 'i', 'n', 't', 'o', 'r'];0;pintor;C:\2023\REPSWITCH21092023\REPSWITCH_excgange\REPSWITCH_excgange\data/280202_REPSWITCH1_version2_list2_2023-12-04_18h16.18.981_micRespv2l2_recorded\recording_micRespv2l2_2023-12-04_18h26.56.449.wav;644.0114643;;None;644.0114643;644.0114643;644.0114643;644.0114643;644.0114643;644.0114643;[0.9534304002299905, 1.1436533001251519, 1.2874843999743462, 1.370470399968326, 1.4831711002625525, 1.5580950998701155];;;;;;280202;1;2023-12-04_18h16.18.981;REPSWITCH1_version2_list2;2022.2.4;143.8906897;
REPSWITCH1/PICTURE_175.png;pintor;type;gold;repeat;1;T;2;1;2;2;Stim1_Set2;0;None;131;130;29;0;130;130;130;;;;;;;;;;;;;;;;;;;;;;;644.51159;645.574133;645.574133;645.574133;645.574133;645.574133;645.574133;645.574133;645.574133;['p', 'i', 'n', 't', 'o', 'r'];0;pintor;C:\2023\REPSWITCH21092023\REPSWITCH_excgange\REPSWITCH_excgange\data/280202_REPSWITCH1_version2_list2_2023-12-04_18h16.18.981_micRespv2l2_recorded\recording_micRespv2l2_2023-12-04_18h27.01.040.wav;648.5953982;649.0954491;None;648.5953982;648.5953982;648.5953982;648.5953982;648.5953982;648.5953982;[0.9031417001970112, 1.0736717004328966, 1.2151844003237784, 1.2903266004286706, 1.4028392005711794, 1.4725986002013087];;;;;;280202;1;2023-12-04_18h16.18.981;REPSWITCH1_version2_list2;2022.2.4;143.8906897;
REPSWITCH1/PICTURE_381.png;fresa;speak;darkblue;filler;2;F;2;1;2;2;Stim2_Set1;0;None;132;131;30;0;131;131;131;;;;;;;;;;;;;;;;;;;;;;;649.0954491;650.1581198;650.1581198;650.1581198;650.1581198;650.1581198;650.1581198;650.1581198;650.1581198;None;0;;C:\2023\REPSWITCH21092023\REPSWITCH_excgange\REPSWITCH_excgange\data/280202_REPSWITCH1_version2_list2_2023-12-04_18h16.18.981_micRespv2l2_recorded\recording_micRespv2l2_2023-12-04_18h27.05.624.wav;653.1862952;;None;653.1862952;653.1862952;653.1862952;653.1862952;653.1862952;653.1862952;;;;;;;280202;1;2023-12-04_18h16.18.981;REPSWITCH1_version2_list2;2022.2.4;143.8906897;
REPSWITCH1/PICTURE_152.png;caracol;type;gold;nontarget;1;NT;2;1;2;2;Stim2_Set2;1;switch;133;132;31;0;132;132;132;;;;;;;;;;;;;;;;;;;;;;;653.686327;654.9088215;654.9088215;654.9088215;654.9088215;654.9088215;654.9088215;654.9088215;654.9088215;['c', 'a', 'r', 'r', 'a', 'c', 'o', 'l', 'backspace', 'backspace', 'backspace', 'backspace', 'backspace', 'a'];0;cara;C:\2023\REPSWITCH21092023\REPSWITCH_excgange\REPSWITCH_excgange\data/280202_REPSWITCH1_version2_list2_2023-12-04_18h16.18.981_micRespv2l2_recorded\recording_micRespv2l2_2023-12-04_18h27.10.374.wav;657.9369618;658.4370306;None;657.9369618;657.9369618;657.9369618;657.9369618;657.9369618;657.9369618;[0.8321113004349172, 1.0314182001166046, 1.0842146002687514, 1.189125300385058, 1.2209184002131224, 1.403336400166154, 1.5148728000931442, 1.6543870004825294, 2.2755591003224254, 2.453955300152302, 2.579546100459993, 2.7173014003783464, 2.816924000158906, 2.950531800277531];;;;;;280202;1;2023-12-04_18h16.18.981;REPSWITCH1_version2_list2;2022.2.4;143.8906897;
REPSWITCH1/PICTURE_152.png;caracol;type;gold;repeat;1;T;2;1;2;2;Stim2_Set2;0;None;134;133;32;0;133;133;133;;;;;;;;;;;;;;;;;;;;;;;658.4370306;659.5274525;659.5274525;659.5274525;659.5274525;659.5274525;659.5274525;659.5274525;659.5274525;['c', 'a', 'r', 'a', 'c', 'l', 'backspace', 'o', 'l'];0;caracol;C:\2023\REPSWITCH21092023\REPSWITCH_excgange\REPSWITCH_excgange\data/280202_REPSWITCH1_version2_list2_2023-12-04_18h16.18.981_micRespv2l2_recorded\recording_micRespv2l2_2023-12-04_18h27.14.993.wav;662.5555656;;None;662.5555656;662.5555656;662.5555656;662.5555656;662.5555656;662.5555656;[0.6539219999685884, 0.7824841998517513, 0.9569008997641504, 1.0675809998065233, 1.2747614001855254, 1.540165999904275, 1.8501377999782562, 2.1930185998789966, 2.3753843000158668];;;;;;280202;1;2023-12-04_18h16.18.981;REPSWITCH1_version2_list2;2022.2.4;143.8906897;
REPSWITCH1/PICTURE_128.png;muñeca;speak;darkblue;filler;2;F;2;1;2;2;Stim4_Set1;0;None;135;134;33;0;134;134;134;;;;;;;;;;;;;;;;;;;;;;;663.055619;664.1321348;664.1321348;664.1321348;664.1321348;664.1321348;664.1321348;664.1321348;664.1321348;None;0;;C:\2023\REPSWITCH21092023\REPSWITCH_excgange\REPSWITCH_excgange\data/280202_REPSWITCH1_version2_list2_2023-12-04_18h16.18.981_micRespv2l2_recorded\recording_micRespv2l2_2023-12-04_18h27.19.598.wav;667.1603199;;None;667.1603199;667.1603199;667.1603199;667.1603199;667.1603199;667.1603199;;;;;;;280202;1;2023-12-04_18h16.18.981;REPSWITCH1_version2_list2;2022.2.4;143.8906897;
REPSWITCH1/PICTURE_264.png;mano;type;gold;nontarget;1;NT;2;1;2;2;Stim3_Set2;0;None;136;135;34;0;135;135;135;;;;;;;;;;;;;;;;;;;;;;;667.6603984;668.70222;668.70222;668.70222;668.70222;668.70222;668.70222;668.70222;668.70222;['m', 'a', 'n', 'o'];0;mano;C:\2023\REPSWITCH21092023\REPSWITCH_excgange\REPSWITCH_excgange\data/280202_REPSWITCH1_version2_list2_2023-12-04_18h16.18.981_micRespv2l2_recorded\recording_micRespv2l2_2023-12-04_18h27.24.167.wav;671.723422;672.2235009;None;671.723422;671.723422;671.723422;671.723422;671.723422;671.723422;[0.9467759002000093, 1.021275999955833, 1.1109981001354754, 1.2763971998356283];;;;;;280202;1;2023-12-04_18h16.18.981;REPSWITCH1_version2_list2;2022.2.4;143.8906897;
REPSWITCH1/PICTURE_264.png;mano;speak;darkblue;switch;2;T;2;1;2;2;Stim3_Set2;0;None;137;136;35;0;136;136;136;;;;;;;;;;;;;;;;;;;;;;;672.2235009;673.3417428;673.3417428;673.3417428;673.3417428;673.3417428;673.3417428;673.3417428;673.3417428;None;0;;C:\2023\REPSWITCH21092023\REPSWITCH_excgange\REPSWITCH_excgange\data/280202_REPSWITCH1_version2_list2_2023-12-04_18h16.18.981_micRespv2l2_recorded\recording_micRespv2l2_2023-12-04_18h27.28.807.wav;676.3698615;;None;676.3698615;676.3698615;676.3698615;676.3698615;676.3698615;676.3698615;;;;;;;280202;1;2023-12-04_18h16.18.981;REPSWITCH1_version2_list2;2022.2.4;143.8906897;
REPSWITCH1/PICTURE_517.png;cuerda;speak;darkblue;nontarget;2;NT;2;1;2;2;Stim4_Set2;1;repeat;138;137;36;0;137;137;137;;;;;;;;;;;;;;;;;;;;;;;676.869949;677.9951023;677.9951023;677.9951023;677.9951023;677.9951023;677.9951023;677.9951023;677.9951023;None;0;;C:\2023\REPSWITCH21092023\REPSWITCH_excgange\REPSWITCH_excgange\data/280202_REPSWITCH1_version2_list2_2023-12-04_18h16.18.981_micRespv2l2_recorded\recording_micRespv2l2_2023-12-04_18h27.33.460.wav;681.0163926;681.5163936;None;681.0163926;681.0163926;681.0163926;681.0163926;681.0163926;681.0163926;;;;;;;280202;1;2023-12-04_18h16.18.981;REPSWITCH1_version2_list2;2022.2.4;143.8906897;
REPSWITCH1/PICTURE_517.png;cuerda;type;gold;switch;1;T;2;1;2;2;Stim4_Set2;0;None;139;138;37;0;138;138;138;;;;;;;;;;;;;;;;;;;;;;;681.5163936;682.5860418;682.5860418;682.5860418;682.5860418;682.5860418;682.5860418;682.5860418;682.5860418;['c', 'u', 'e', 'r', 'd', 'a'];0;cuerda;C:\2023\REPSWITCH21092023\REPSWITCH_excgange\REPSWITCH_excgange\data/280202_REPSWITCH1_version2_list2_2023-12-04_18h16.18.981_micRespv2l2_recorded\recording_micRespv2l2_2023-12-04_18h27.38.051.wav;685.6071806;686.1072727;None;685.6071806;685.6071806;685.6071806;685.6071806;685.6071806;685.6071806;[1.169007500167936, 1.2632519002072513, 1.3649720000103116, 1.424063100013882, 1.5991738000884652, 1.7189529999159276];;;;;;280202;1;2023-12-04_18h16.18.981;REPSWITCH1_version2_list2;2022.2.4;143.8906897;
