image;correctAns;respModal;frameColor;repSwitch;sequence;target;set;block;list;exp_version;stimulus;baseline;baseline_condition;trial_no;psychopy_trial;Column1;trialsREPSWITCH.thisRepN;trialsREPSWITCH.thisTrialN;trialsREPSWITCH.thisN;trialsREPSWITCH.thisIndex;textWelcome.started;textboxInstrMain1.started;textboxInstrMain1_2.started;textboxInstrMain1_3.started;keyInstrMain.started;keyInstrMain.keys;keyInstrMain.rt;textboxInstrMain2.started;textboxInstrMain2_2.started;textboxInstrMain2_3.started;textboxInstrMain2_4.started;textboxInstrMain2_5.started;textboxInstrMain2_6.started;textboxInstrMain2_7.started;textboxInstrMain2_8.started;textboxInstrMain2_9.started;textboxInstrMain2_10.started;textboxInstrMain2_11.started;textboxInstrMain2_12.started;keyInstrMain2.started;keyInstrMain2.keys;keyInstrMain2.rt;fixationITI.started;fixationITI.stopped;polygonColour.started;polygonWhite.started;imageObject.started;polygonType.started;textInput.started;keyResp.started;micRespv1l1.started;keyResp.keys;keyResp.corr;keyResp.rt;subjResponse;micRespv1l1.clip;textBlankLoop.started;textBlankLoop.stopped;keyPause.keys;polygonColour.stopped;polygonWhite.stopped;imageObject.stopped;polygonType.stopped;textInput.stopped;keyResp.stopped;textboxPause.started;keyPause.started;keyPause.rt;textboxGoodbye.started;textboxGoodbye.stopped;participant;session;date;expName;psychopyVersion;frameRate;Column2
;;;;;;;;;;;;;;;;;;;;;8.1732192;10.6656669;10.6656669;10.6656669;10.6656669;space;11.007128;;;;;;;;;;;;;;;;;;;;;;;;;;;;;;;;;;;;;;;;;;;;330101;1;2023-12-11_16h27.05.564;REPSWITCH1_version1_list1;2022.2.4;143.924446;
;;;;;;;;;;;;;;;;;;;;;;;;;;;;21.6880434;21.6880434;21.6880434;21.6880434;21.6880434;21.6880434;21.6880434;21.6880434;21.6880434;21.6880434;21.6880434;21.6880434;21.6880434;space;3.3249284;;;;;;;;;;;;;;;;;;;;;;;;;;;;;330101;1;2023-12-11_16h27.05.564;REPSWITCH1_version1_list1;2022.2.4;143.924446;
REPSWITCH1/PICTURE_340.png;espejo;type;darkblue;filler;1;F;1;1;1;1;Extra1;0;None;1;0;1;0;0;0;0;;;;;;;;;;;;;;;;;;;;;;;25.1050833;26.2441237;26.2441237;26.2441237;26.2441237;26.2441237;26.2441237;26.2441237;26.2441237;['e', 's', 'p', 'e', 'j'];0;[1.300102200359106, 1.8553179004229605, 2.029324700124562, 2.2069810004904866, 2.5651499005034566];espej;C:\2023\REPSWITCH21092023\REPSWITCH_excgange\REPSWITCH_excgange\data/330101_REPSWITCH1_version1_list1_2023-12-11_16h27.05.564_micRespv1l1_recorded\recording_micRespv1l1_2023-12-11_16h27.28.512.wav;29.2654287;29.7654032;None;;;;;;;;;;;;330101;1;2023-12-11_16h27.05.564;REPSWITCH1_version1_list1;2022.2.4;143.924446;
REPSWITCH1/PICTURE_391.png;cadena;speak;gold;filler;2;F;1;1;1;1;Extra2;0;None;2;1;2;0;1;1;1;;;;;;;;;;;;;;;;;;;;;;;29.7654032;30.8071951;30.8071951;30.8071951;30.8071951;30.8071951;30.8071951;30.8071951;30.8071951;None;0;;;C:\2023\REPSWITCH21092023\REPSWITCH_excgange\REPSWITCH_excgange\data/330101_REPSWITCH1_version1_list1_2023-12-11_16h27.05.564_micRespv1l1_recorded\recording_micRespv1l1_2023-12-11_16h27.33.079.wav;33.8353837;34.3355059;None;33.8353837;33.8353837;33.8353837;33.8353837;33.8353837;33.8353837;;;;;;330101;1;2023-12-11_16h27.05.564;REPSWITCH1_version1_list1;2022.2.4;143.924446;
REPSWITCH1/PICTURE_178.png;puente;speak;gold;nontarget;2;NT;1;1;1;1;Stim1_Set1;1;repeat;3;2;3;0;2;2;2;;;;;;;;;;;;;;;;;;;;;;;34.3355059;35.4606047;35.4606047;35.4606047;35.4606047;35.4606047;35.4606047;35.4606047;35.4606047;None;0;;;C:\2023\REPSWITCH21092023\REPSWITCH_excgange\REPSWITCH_excgange\data/330101_REPSWITCH1_version1_list1_2023-12-11_16h27.05.564_micRespv1l1_recorded\recording_micRespv1l1_2023-12-11_16h27.37.732.wav;38.4817994;38.9819074;None;38.4817994;38.4817994;38.4817994;38.4817994;38.4817994;38.4817994;;;;;;330101;1;2023-12-11_16h27.05.564;REPSWITCH1_version1_list1;2022.2.4;143.924446;
REPSWITCH1/PICTURE_178.png;puente;speak;gold;repeat;2;T;1;1;1;1;Stim1_Set1;0;None;4;3;4;0;3;3;3;;;;;;;;;;;;;;;;;;;;;;;38.9819074;40.1348159;40.1348159;40.1348159;40.1348159;40.1348159;40.1348159;40.1348159;40.1348159;None;0;;;C:\2023\REPSWITCH21092023\REPSWITCH_excgange\REPSWITCH_excgange\data/330101_REPSWITCH1_version1_list1_2023-12-11_16h27.05.564_micRespv1l1_recorded\recording_micRespv1l1_2023-12-11_16h27.42.406.wav;43.1560382;43.6561287;None;43.1560382;43.1560382;43.1560382;43.1560382;43.1560382;43.1560382;;;;;;330101;1;2023-12-11_16h27.05.564;REPSWITCH1_version1_list1;2022.2.4;143.924446;
REPSWITCH1/PICTURE_319.png;vaca;type;darkblue;filler;1;F;1;1;1;1;Stim1_Set4;0;None;5;4;5;0;4;4;4;;;;;;;;;;;;;;;;;;;;;;;43.6561287;44.7674374;44.7674374;44.7674374;44.7674374;44.7674374;44.7674374;44.7674374;44.7674374;['v', 'a', 'c', 'a'];0;[1.5089563000947237, 1.5996450004167855, 1.7401543003506958, 1.8612023000605404];vaca;C:\2023\REPSWITCH21092023\REPSWITCH_excgange\REPSWITCH_excgange\data/330101_REPSWITCH1_version1_list1_2023-12-11_16h27.05.564_micRespv1l1_recorded\recording_micRespv1l1_2023-12-11_16h27.47.038.wav;47.7886639;48.2886518;None;47.7886639;47.7886639;47.7886639;47.7886639;47.7886639;47.7886639;;;;;;330101;1;2023-12-11_16h27.05.564;REPSWITCH1_version1_list1;2022.2.4;143.924446;
REPSWITCH1/PICTURE_381.png;fresa;speak;gold;nontarget;2;NT;1;1;1;1;Stim2_Set1;1;switch;6;5;6;0;5;5;5;;;;;;;;;;;;;;;;;;;;;;;48.2886518;49.3721515;49.3721515;49.3721515;49.3721515;49.3721515;49.3721515;49.3721515;49.3721515;None;0;;;C:\2023\REPSWITCH21092023\REPSWITCH_excgange\REPSWITCH_excgange\data/330101_REPSWITCH1_version1_list1_2023-12-11_16h27.05.564_micRespv1l1_recorded\recording_micRespv1l1_2023-12-11_16h27.51.645.wav;52.4003542;;None;52.4003542;52.4003542;52.4003542;52.4003542;52.4003542;52.4003542;;;;;;330101;1;2023-12-11_16h27.05.564;REPSWITCH1_version1_list1;2022.2.4;143.924446;
REPSWITCH1/PICTURE_381.png;fresa;speak;gold;repeat;2;T;1;1;1;1;Stim2_Set1;0;None;7;6;7;0;6;6;6;;;;;;;;;;;;;;;;;;;;;;;52.9003943;54.0116812;54.0116812;54.0116812;54.0116812;54.0116812;54.0116812;54.0116812;54.0116812;None;0;;;C:\2023\REPSWITCH21092023\REPSWITCH_excgange\REPSWITCH_excgange\data/330101_REPSWITCH1_version1_list1_2023-12-11_16h27.05.564_micRespv1l1_recorded\recording_micRespv1l1_2023-12-11_16h27.56.283.wav;57.032887;57.5329477;None;57.032887;57.032887;57.032887;57.032887;57.032887;57.032887;;;;;;330101;1;2023-12-11_16h27.05.564;REPSWITCH1_version1_list1;2022.2.4;143.924446;
REPSWITCH1/PICTURE_719.png;baño;type;darkblue;filler;1;F;1;1;1;1;Stim2_Set4;1;switch;8;7;8;0;7;7;7;;;;;;;;;;;;;;;;;;;;;;;57.5329477;58.6164873;58.6164873;58.6164873;58.6164873;58.6164873;58.6164873;58.6164873;58.6164873;['b', 'a', 'ñ', 'o'];0;[1.1922023999504745, 1.2972531002014875, 1.7509729000739753, 1.8052114001475275];baño;C:\2023\REPSWITCH21092023\REPSWITCH_excgange\REPSWITCH_excgange\data/330101_REPSWITCH1_version1_list1_2023-12-11_16h27.05.564_micRespv1l1_recorded\recording_micRespv1l1_2023-12-11_16h28.00.887.wav;61.6376403;62.1377812;None;61.6376403;61.6376403;61.6376403;61.6376403;61.6376403;61.6376403;;;;;;330101;1;2023-12-11_16h27.05.564;REPSWITCH1_version1_list1;2022.2.4;143.924446;
REPSWITCH1/PICTURE_135.png;traje;speak;gold;nontarget;2;NT;1;1;1;1;Stim3_Set1;0;None;9;8;9;0;8;8;8;;;;;;;;;;;;;;;;;;;;;;;62.1377812;63.1656068;63.1656068;63.1656068;63.1656068;63.1656068;63.1656068;63.1656068;63.1656068;None;0;;;C:\2023\REPSWITCH21092023\REPSWITCH_excgange\REPSWITCH_excgange\data/330101_REPSWITCH1_version1_list1_2023-12-11_16h27.05.564_micRespv1l1_recorded\recording_micRespv1l1_2023-12-11_16h28.05.437.wav;66.1868831;66.6869213;None;66.1868831;66.1868831;66.1868831;66.1868831;66.1868831;66.1868831;;;;;;330101;1;2023-12-11_16h27.05.564;REPSWITCH1_version1_list1;2022.2.4;143.924446;
REPSWITCH1/PICTURE_135.png;traje;type;darkblue;switch;1;T;1;1;1;1;Stim3_Set1;0;None;10;9;10;0;9;9;9;;;;;;;;;;;;;;;;;;;;;;;66.6869213;67.7981642;67.7981642;67.7981642;67.7981642;67.7981642;67.7981642;67.7981642;67.7981642;['t', 'r', 'a', 'j', 'e'];0;[1.1406856002286077, 1.3010370000265539, 1.4803152000531554, 1.6527288001962006, 1.7617373000830412];traje;C:\2023\REPSWITCH21092023\REPSWITCH_excgange\REPSWITCH_excgange\data/330101_REPSWITCH1_version1_list1_2023-12-11_16h27.05.564_micRespv1l1_recorded\recording_micRespv1l1_2023-12-11_16h28.10.070.wav;70.8193725;71.319449;None;70.8193725;70.8193725;70.8193725;70.8193725;70.8193725;70.8193725;;;;;;330101;1;2023-12-11_16h27.05.564;REPSWITCH1_version1_list1;2022.2.4;143.924446;
REPSWITCH1/PICTURE_687.png;camisa;speak;gold;filler;2;F;1;1;1;1;Stim5_Set4;0;None;11;10;11;0;10;10;10;;;;;;;;;;;;;;;;;;;;;;;71.319449;72.368213;72.368213;72.368213;72.368213;72.368213;72.368213;72.368213;72.368213;None;0;;;C:\2023\REPSWITCH21092023\REPSWITCH_excgange\REPSWITCH_excgange\data/330101_REPSWITCH1_version1_list1_2023-12-11_16h27.05.564_micRespv1l1_recorded\recording_micRespv1l1_2023-12-11_16h28.14.640.wav;75.3894303;75.8894812;None;75.3894303;75.3894303;75.3894303;75.3894303;75.3894303;75.3894303;;;;;;330101;1;2023-12-11_16h27.05.564;REPSWITCH1_version1_list1;2022.2.4;143.924446;
REPSWITCH1/PICTURE_128.png;muñeca;type;darkblue;nontarget;1;NT;1;1;1;1;Stim4_Set1;1;switch;12;11;12;0;11;11;11;;;;;;;;;;;;;;;;;;;;;;;75.8894812;77.0285491;77.0285491;77.0285491;77.0285491;77.0285491;77.0285491;77.0285491;77.0285491;['m', 'u', 'ñ', 'e', 'z', 'a', 'backspace', 'backspace', 'c', 'a'];0;[1.1062427000142634, 1.2477405001409352, 1.5580134000629187, 1.7045077998191118, 2.1007920000702143, 2.2871669000014663, 2.5861734999343753, 2.7326787002384663, 2.790870999917388, 2.8416777998209];muñeca;C:\2023\REPSWITCH21092023\REPSWITCH_excgange\REPSWITCH_excgange\data/330101_REPSWITCH1_version1_list1_2023-12-11_16h27.05.564_micRespv1l1_recorded\recording_micRespv1l1_2023-12-11_16h28.19.300.wav;80.0497692;80.5498526;None;80.0497692;80.0497692;80.0497692;80.0497692;80.0497692;80.0497692;;;;;;330101;1;2023-12-11_16h27.05.564;REPSWITCH1_version1_list1;2022.2.4;143.924446;
REPSWITCH1/PICTURE_128.png;muñeca;speak;gold;switch;2;T;1;1;1;1;Stim4_Set1;0;None;13;12;13;0;12;12;12;;;;;;;;;;;;;;;;;;;;;;;80.5498526;81.6403034;81.6403034;81.6403034;81.6403034;81.6403034;81.6403034;81.6403034;81.6403034;None;0;;;C:\2023\REPSWITCH21092023\REPSWITCH_excgange\REPSWITCH_excgange\data/330101_REPSWITCH1_version1_list1_2023-12-11_16h27.05.564_micRespv1l1_recorded\recording_micRespv1l1_2023-12-11_16h28.23.912.wav;84.6614671;85.16154;None;84.6614671;84.6614671;84.6614671;84.6614671;84.6614671;84.6614671;;;;;;330101;1;2023-12-11_16h27.05.564;REPSWITCH1_version1_list1;2022.2.4;143.924446;
REPSWITCH1/PICTURE_8.png;pierna;speak;gold;filler;2;F;1;1;1;1;Stim3_Set4;0;None;14;13;14;0;13;13;13;;;;;;;;;;;;;;;;;;;;;;;85.16154;86.2658661;86.2658661;86.2658661;86.2658661;86.2658661;86.2658661;86.2658661;86.2658661;None;0;;;C:\2023\REPSWITCH21092023\REPSWITCH_excgange\REPSWITCH_excgange\data/330101_REPSWITCH1_version1_list1_2023-12-11_16h27.05.564_micRespv1l1_recorded\recording_micRespv1l1_2023-12-11_16h28.28.537.wav;89.2870943;89.7871914;None;89.2870943;89.2870943;89.2870943;89.2870943;89.2870943;89.2870943;;;;;;330101;1;2023-12-11_16h27.05.564;REPSWITCH1_version1_list1;2022.2.4;143.924446;
REPSWITCH1/PICTURE_19.png;pavo;speak;gold;nontarget;2;NT;1;1;1;1;Stim5_Set1;0;None;15;14;15;0;14;14;14;;;;;;;;;;;;;;;;;;;;;;;89.7871914;90.8150998;90.8150998;90.8150998;90.8150998;90.8150998;90.8150998;90.8150998;90.8150998;None;0;;;C:\2023\REPSWITCH21092023\REPSWITCH_excgange\REPSWITCH_excgange\data/330101_REPSWITCH1_version1_list1_2023-12-11_16h27.05.564_micRespv1l1_recorded\recording_micRespv1l1_2023-12-11_16h28.33.087.wav;93.8432562;;None;93.8432562;93.8432562;93.8432562;93.8432562;93.8432562;93.8432562;;;;;;330101;1;2023-12-11_16h27.05.564;REPSWITCH1_version1_list1;2022.2.4;143.924446;
REPSWITCH1/PICTURE_19.png;pavo;type;darkblue;switch;1;T;1;1;1;1;Stim5_Set1;0;None;16;15;16;0;15;15;15;;;;;;;;;;;;;;;;;;;;;;;94.3433266;95.4337347;95.4337347;95.4337347;95.4337347;95.4337347;95.4337347;95.4337347;95.4337347;['p', 'a', 'v', 'o'];0;[1.0690914001315832, 1.1448423000983894, 1.2514832001179457, 1.4135871999897063];pavo;C:\2023\REPSWITCH21092023\REPSWITCH_excgange\REPSWITCH_excgange\data/330101_REPSWITCH1_version1_list1_2023-12-11_16h27.05.564_micRespv1l1_recorded\recording_micRespv1l1_2023-12-11_16h28.37.705.wav;98.4549776;98.9550478;None;98.4549776;98.4549776;98.4549776;98.4549776;98.4549776;98.4549776;;;;;;330101;1;2023-12-11_16h27.05.564;REPSWITCH1_version1_list1;2022.2.4;143.924446;
REPSWITCH1/PICTURE_16.png;cazador;type;darkblue;nontarget;1;NT;1;1;1;1;Stim6_Set1;1;switch;17;16;17;0;16;16;16;;;;;;;;;;;;;;;;;;;;;;;98.9550478;100.0246181;100.0246181;100.0246181;100.0246181;100.0246181;100.0246181;100.0246181;100.0246181;['c', 'a', 'z', 'a', 'd', 'o', 'r'];0;[0.9158197999931872, 1.0403422000817955, 1.6166274002753198, 1.7815292002633214, 1.9341995003633201, 2.097444700077176, 2.221830800175667];cazador;C:\2023\REPSWITCH21092023\REPSWITCH_excgange\REPSWITCH_excgange\data/330101_REPSWITCH1_version1_list1_2023-12-11_16h27.05.564_micRespv1l1_recorded\recording_micRespv1l1_2023-12-11_16h28.42.296.wav;103.0458663;103.5459186;None;103.0458663;103.0458663;103.0458663;103.0458663;103.0458663;103.0458663;;;;;;330101;1;2023-12-11_16h27.05.564;REPSWITCH1_version1_list1;2022.2.4;143.924446;
REPSWITCH1/PICTURE_16.png;cazador;type;darkblue;repeat;1;T;1;1;1;1;Stim6_Set1;0;None;18;17;18;0;17;17;17;;;;;;;;;;;;;;;;;;;;;;;103.5459186;104.6015978;104.6015978;104.6015978;104.6015978;104.6015978;104.6015978;104.6015978;104.6015978;['c', 'a', 'z', 'a', 'd', 'o', 'r'];0;[1.375161100178957, 1.5087026003748178, 1.8149446002207696, 1.9451124002225697, 2.0687303002923727, 2.211478200275451, 2.3383350004442036];cazador;C:\2023\REPSWITCH21092023\REPSWITCH_excgange\REPSWITCH_excgange\data/330101_REPSWITCH1_version1_list1_2023-12-11_16h27.05.564_micRespv1l1_recorded\recording_micRespv1l1_2023-12-11_16h28.46.873.wav;107.6297904;;None;107.6297904;107.6297904;107.6297904;107.6297904;107.6297904;107.6297904;;;;;;330101;1;2023-12-11_16h27.05.564;REPSWITCH1_version1_list1;2022.2.4;143.924446;
REPSWITCH1/PICTURE_498.png;taza;speak;gold;filler;2;F;1;1;1;1;Stim4_Set4;0;None;19;18;19;0;18;18;18;;;;;;;;;;;;;;;;;;;;;;;108.1298805;109.2758677;109.2758677;109.2758677;109.2758677;109.2758677;109.2758677;109.2758677;109.2758677;None;0;;;C:\2023\REPSWITCH21092023\REPSWITCH_excgange\REPSWITCH_excgange\data/330101_REPSWITCH1_version1_list1_2023-12-11_16h27.05.564_micRespv1l1_recorded\recording_micRespv1l1_2023-12-11_16h28.51.548.wav;112.3040424;;None;112.3040424;112.3040424;112.3040424;112.3040424;112.3040424;112.3040424;;;;;;330101;1;2023-12-11_16h27.05.564;REPSWITCH1_version1_list1;2022.2.4;143.924446;
REPSWITCH1/PICTURE_48.png;bombero;type;darkblue;filler;1;F;1;1;1;1;Stim7_Set4;0;None;20;19;20;0;19;19;19;;;;;;;;;;;;;;;;;;;;;;;112.8040844;114.0958991;114.0958991;114.0958991;114.0958991;114.0958991;114.0958991;114.0958991;114.0958991;['b', 'o', 'm', 'b', 'e', 'r', 'o'];0;[0.8861899999901652, 1.0754586001858115, 1.1910088998265564, 1.3135716998949647, 1.5730522000230849, 1.6507401000708342, 1.8211591998115182];bombero;C:\2023\REPSWITCH21092023\REPSWITCH_excgange\REPSWITCH_excgange\data/330101_REPSWITCH1_version1_list1_2023-12-11_16h27.05.564_micRespv1l1_recorded\recording_micRespv1l1_2023-12-11_16h28.56.367.wav;117.1240848;;None;117.1240848;117.1240848;117.1240848;117.1240848;117.1240848;117.1240848;;;;;;330101;1;2023-12-11_16h27.05.564;REPSWITCH1_version1_list1;2022.2.4;143.924446;
REPSWITCH1/PICTURE_142.png;vaso;type;darkblue;nontarget;1;NT;1;1;1;1;Stim7_Set1;1;repeat;21;20;21;0;20;20;20;;;;;;;;;;;;;;;;;;;;;;;117.6241573;118.6798394;118.6798394;118.6798394;118.6798394;118.6798394;118.6798394;118.6798394;118.6798394;['v', 'a', 's', 'o'];0;[0.9691051002591848, 1.036265500355512, 1.199955700431019, 1.4232221003621817];vaso;C:\2023\REPSWITCH21092023\REPSWITCH_excgange\REPSWITCH_excgange\data/330101_REPSWITCH1_version1_list1_2023-12-11_16h27.05.564_micRespv1l1_recorded\recording_micRespv1l1_2023-12-11_16h29.00.952.wav;121.7080634;;None;121.7080634;121.7080634;121.7080634;121.7080634;121.7080634;121.7080634;;;;;;330101;1;2023-12-11_16h27.05.564;REPSWITCH1_version1_list1;2022.2.4;143.924446;
REPSWITCH1/PICTURE_142.png;vaso;type;darkblue;repeat;1;T;1;1;1;1;Stim7_Set1;0;None;22;21;22;0;21;21;21;;;;;;;;;;;;;;;;;;;;;;;122.2081077;123.2984915;123.2984915;123.2984915;123.2984915;123.2984915;123.2984915;123.2984915;123.2984915;['v', 'a', 's', 'o'];0;[0.7489207005128264, 0.8366736001335084, 0.9234831002540886, 1.1058595003560185];vaso;C:\2023\REPSWITCH21092023\REPSWITCH_excgange\REPSWITCH_excgange\data/330101_REPSWITCH1_version1_list1_2023-12-11_16h27.05.564_micRespv1l1_recorded\recording_micRespv1l1_2023-12-11_16h29.05.570.wav;126.3197454;126.8198077;None;126.3197454;126.3197454;126.3197454;126.3197454;126.3197454;126.3197454;;;;;;330101;1;2023-12-11_16h27.05.564;REPSWITCH1_version1_list1;2022.2.4;143.924446;
REPSWITCH1/PICTURE_338.png;regalo;speak;gold;filler;2;F;1;1;1;1;Stim6_Set4;1;switch;23;22;23;0;22;22;22;;;;;;;;;;;;;;;;;;;;;;;126.8198077;127.9518858;127.9518858;127.9518858;127.9518858;127.9518858;127.9518858;127.9518858;127.9518858;None;0;;;C:\2023\REPSWITCH21092023\REPSWITCH_excgange\REPSWITCH_excgange\data/330101_REPSWITCH1_version1_list1_2023-12-11_16h27.05.564_micRespv1l1_recorded\recording_micRespv1l1_2023-12-11_16h29.10.224.wav;130.9801178;;None;130.9801178;130.9801178;130.9801178;130.9801178;130.9801178;130.9801178;;;;;;330101;1;2023-12-11_16h27.05.564;REPSWITCH1_version1_list1;2022.2.4;143.924446;
REPSWITCH1/PICTURE_728.png;pulpo;type;darkblue;filler;1;F;1;1;1;1;Stim8_Set4;1;switch;24;23;24;0;23;23;23;;;;;;;;;;;;;;;;;;;;;;;131.4801386;132.5635974;132.5635974;132.5635974;132.5635974;132.5635974;132.5635974;132.5635974;132.5635974;['p', 'u', 'l', 'p', 'o'];0;[1.1766197001561522, 1.5364605002105236, 1.9214922999963164, 2.1555927000008523, 2.347924000117928];pulpo;C:\2023\REPSWITCH21092023\REPSWITCH_excgange\REPSWITCH_excgange\data/330101_REPSWITCH1_version1_list1_2023-12-11_16h27.05.564_micRespv1l1_recorded\recording_micRespv1l1_2023-12-11_16h29.14.835.wav;135.5917845;;None;135.5917845;135.5917845;135.5917845;135.5917845;135.5917845;135.5917845;;;;;;330101;1;2023-12-11_16h27.05.564;REPSWITCH1_version1_list1;2022.2.4;143.924446;
REPSWITCH1/PICTURE_169.png;espalda;type;darkblue;nontarget;1;NT;1;1;1;1;Stim8_Set1;1;repeat;25;24;25;0;24;24;24;;;;;;;;;;;;;;;;;;;;;;;136.0918568;137.0989128;137.0989128;137.0989128;137.0989128;137.0989128;137.0989128;137.0989128;137.0989128;['e', 's', 'p', 'a', 'l', 'd', 'a'];0;[0.8996558003127575, 1.1232580002397299, 1.2481880001723766, 1.3788646003231406, 1.5014047003351152, 1.641972000245005, 1.7210290003567934];espalda;C:\2023\REPSWITCH21092023\REPSWITCH_excgange\REPSWITCH_excgange\data/330101_REPSWITCH1_version1_list1_2023-12-11_16h27.05.564_micRespv1l1_recorded\recording_micRespv1l1_2023-12-11_16h29.19.371.wav;140.1271182;;None;140.1271182;140.1271182;140.1271182;140.1271182;140.1271182;140.1271182;;;;;;330101;1;2023-12-11_16h27.05.564;REPSWITCH1_version1_list1;2022.2.4;143.924446;
REPSWITCH1/PICTURE_169.png;espalda;speak;gold;switch;2;T;1;1;1;1;Stim8_Set1;0;None;26;25;26;0;25;25;25;;;;;;;;;;;;;;;;;;;;;;;140.6272504;141.662049;141.662049;141.662049;141.662049;141.662049;141.662049;141.662049;141.662049;None;0;;;C:\2023\REPSWITCH21092023\REPSWITCH_excgange\REPSWITCH_excgange\data/330101_REPSWITCH1_version1_list1_2023-12-11_16h27.05.564_micRespv1l1_recorded\recording_micRespv1l1_2023-12-11_16h29.23.934.wav;144.6902038;;None;144.6902038;144.6902038;144.6902038;144.6902038;144.6902038;144.6902038;;;;;;330101;1;2023-12-11_16h27.05.564;REPSWITCH1_version1_list1;2022.2.4;143.924446;
REPSWITCH1/PICTURE_178.png;puente;speak;gold;filler;2;F;2;1;1;1;Stim1_Set1;0;None;27;26;27;0;26;26;26;;;;;;;;;;;;;;;;;;;;;;;145.1902677;146.3154709;146.3154709;146.3154709;146.3154709;146.3154709;146.3154709;146.3154709;146.3154709;None;0;;;C:\2023\REPSWITCH21092023\REPSWITCH_excgange\REPSWITCH_excgange\data/330101_REPSWITCH1_version1_list1_2023-12-11_16h27.05.564_micRespv1l1_recorded\recording_micRespv1l1_2023-12-11_16h29.28.587.wav;149.3435712;;None;149.3435712;149.3435712;149.3435712;149.3435712;149.3435712;149.3435712;;;;;;330101;1;2023-12-11_16h27.05.564;REPSWITCH1_version1_list1;2022.2.4;143.924446;
REPSWITCH1/PICTURE_175.png;pintor;type;darkblue;nontarget;1;NT;2;1;1;1;Stim1_Set2;1;switch;28;27;28;0;27;27;27;;;;;;;;;;;;;;;;;;;;;;;149.8436486;151.0591207;151.0591207;151.0591207;151.0591207;151.0591207;151.0591207;151.0591207;151.0591207;['p', 'i', 'n', 't', 'o', 'r'];0;[1.1553742000833154, 1.2789933001622558, 1.409548600204289, 1.4842992001213133, 1.6368123004212976, 1.7637256002053618];pintor;C:\2023\REPSWITCH21092023\REPSWITCH_excgange\REPSWITCH_excgange\data/330101_REPSWITCH1_version1_list1_2023-12-11_16h27.05.564_micRespv1l1_recorded\recording_micRespv1l1_2023-12-11_16h29.33.330.wav;154.0803297;154.5803566;None;154.0803297;154.0803297;154.0803297;154.0803297;154.0803297;154.0803297;;;;;;330101;1;2023-12-11_16h27.05.564;REPSWITCH1_version1_list1;2022.2.4;143.924446;
REPSWITCH1/PICTURE_175.png;pintor;type;darkblue;repeat;1;T;2;1;1;1;Stim1_Set2;0;None;29;28;29;0;28;28;28;;;;;;;;;;;;;;;;;;;;;;;154.5803566;155.6569028;155.6569028;155.6569028;155.6569028;155.6569028;155.6569028;155.6569028;155.6569028;['p', 'i', 'n', 't', 'o', 'r'];0;[1.0375241003930569, 1.1361315003596246, 1.2776525001972914, 1.3753337003290653, 1.4819660000503063, 1.6224984000436962];pintor;C:\2023\REPSWITCH21092023\REPSWITCH_excgange\REPSWITCH_excgange\data/330101_REPSWITCH1_version1_list1_2023-12-11_16h27.05.564_micRespv1l1_recorded\recording_micRespv1l1_2023-12-11_16h29.37.929.wav;158.6781296;159.1782032;None;158.6781296;158.6781296;158.6781296;158.6781296;158.6781296;158.6781296;;;;;;330101;1;2023-12-11_16h27.05.564;REPSWITCH1_version1_list1;2022.2.4;143.924446;
REPSWITCH1/PICTURE_381.png;fresa;speak;gold;filler;2;F;2;1;1;1;Stim2_Set1;0;None;30;29;30;0;29;29;29;;;;;;;;;;;;;;;;;;;;;;;159.1782032;160.2894889;160.2894889;160.2894889;160.2894889;160.2894889;160.2894889;160.2894889;160.2894889;None;0;;;C:\2023\REPSWITCH21092023\REPSWITCH_excgange\REPSWITCH_excgange\data/330101_REPSWITCH1_version1_list1_2023-12-11_16h27.05.564_micRespv1l1_recorded\recording_micRespv1l1_2023-12-11_16h29.42.561.wav;163.3176486;;None;163.3176486;163.3176486;163.3176486;163.3176486;163.3176486;163.3176486;;;;;;330101;1;2023-12-11_16h27.05.564;REPSWITCH1_version1_list1;2022.2.4;143.924446;
REPSWITCH1/PICTURE_152.png;caracol;type;darkblue;nontarget;1;NT;2;1;1;1;Stim2_Set2;1;switch;31;30;31;0;30;30;30;;;;;;;;;;;;;;;;;;;;;;;163.817714;164.8873776;164.8873776;164.8873776;164.8873776;164.8873776;164.8873776;164.8873776;164.8873776;['c', 'a', 'r', 'a', 'c', 'o', 'l'];0;[1.0442011002451181, 1.1418130001984537, 1.3341633002273738, 1.474980200175196, 1.6354839000850916, 1.754048699978739, 1.9544714000076056];caracol;C:\2023\REPSWITCH21092023\REPSWITCH_excgange\REPSWITCH_excgange\data/330101_REPSWITCH1_version1_list1_2023-12-11_16h27.05.564_micRespv1l1_recorded\recording_micRespv1l1_2023-12-11_16h29.47.158.wav;167.908491;168.4086417;None;167.908491;167.908491;167.908491;167.908491;167.908491;167.908491;;;;;;330101;1;2023-12-11_16h27.05.564;REPSWITCH1_version1_list1;2022.2.4;143.924446;
REPSWITCH1/PICTURE_152.png;caracol;type;darkblue;repeat;1;T;2;1;1;1;Stim2_Set2;0;None;32;31;32;0;31;31;31;;;;;;;;;;;;;;;;;;;;;;;168.4086417;169.4850907;169.4850907;169.4850907;169.4850907;169.4850907;169.4850907;169.4850907;169.4850907;['c', 'a', 'r', 'a', 'c', 'o', 'l'];0;[0.721825800370425, 0.8084937003441155, 1.0008848002180457, 1.1316775004379451, 1.2995765004307032, 1.4563943003304303, 1.6767056002281606];caracol;C:\2023\REPSWITCH21092023\REPSWITCH_excgange\REPSWITCH_excgange\data/330101_REPSWITCH1_version1_list1_2023-12-11_16h27.05.564_micRespv1l1_recorded\recording_micRespv1l1_2023-12-11_16h29.51.757.wav;172.5063548;173.0063925;None;172.5063548;172.5063548;172.5063548;172.5063548;172.5063548;172.5063548;;;;;;330101;1;2023-12-11_16h27.05.564;REPSWITCH1_version1_list1;2022.2.4;143.924446;
REPSWITCH1/PICTURE_128.png;muñeca;speak;gold;filler;2;F;2;1;1;1;Stim4_Set1;0;None;33;32;33;0;32;32;32;;;;;;;;;;;;;;;;;;;;;;;173.0063925;174.152441;174.152441;174.152441;174.152441;174.152441;174.152441;174.152441;174.152441;None;0;;;C:\2023\REPSWITCH21092023\REPSWITCH_excgange\REPSWITCH_excgange\data/330101_REPSWITCH1_version1_list1_2023-12-11_16h27.05.564_micRespv1l1_recorded\recording_micRespv1l1_2023-12-11_16h29.56.424.wav;177.173689;177.6737009;None;177.173689;177.173689;177.173689;177.173689;177.173689;177.173689;;;;;;330101;1;2023-12-11_16h27.05.564;REPSWITCH1_version1_list1;2022.2.4;143.924446;
REPSWITCH1/PICTURE_264.png;mano;type;darkblue;nontarget;1;NT;2;1;1;1;Stim3_Set2;0;None;34;33;34;0;33;33;33;;;;;;;;;;;;;;;;;;;;;;;177.6737009;178.8196667;178.8196667;178.8196667;178.8196667;178.8196667;178.8196667;178.8196667;178.8196667;['m', 'a', 'n', 'o'];0;[0.9697227999567986, 1.0633715000003576, 1.2099163001403213, 1.328462699893862];mano;C:\2023\REPSWITCH21092023\REPSWITCH_excgange\REPSWITCH_excgange\data/330101_REPSWITCH1_version1_list1_2023-12-11_16h27.05.564_micRespv1l1_recorded\recording_micRespv1l1_2023-12-11_16h30.01.091.wav;181.8409166;182.3409742;None;181.8409166;181.8409166;181.8409166;181.8409166;181.8409166;181.8409166;;;;;;330101;1;2023-12-11_16h27.05.564;REPSWITCH1_version1_list1;2022.2.4;143.924446;
REPSWITCH1/PICTURE_264.png;mano;speak;gold;switch;2;T;2;1;1;1;Stim3_Set2;0;None;35;34;35;0;34;34;34;;;;;;;;;;;;;;;;;;;;;;;182.3409742;183.3897383;183.3897383;183.3897383;183.3897383;183.3897383;183.3897383;183.3897383;183.3897383;None;0;;;C:\2023\REPSWITCH21092023\REPSWITCH_excgange\REPSWITCH_excgange\data/330101_REPSWITCH1_version1_list1_2023-12-11_16h27.05.564_micRespv1l1_recorded\recording_micRespv1l1_2023-12-11_16h30.05.661.wav;186.4110191;186.9110907;None;186.4110191;186.4110191;186.4110191;186.4110191;186.4110191;186.4110191;;;;;;330101;1;2023-12-11_16h27.05.564;REPSWITCH1_version1_list1;2022.2.4;143.924446;
REPSWITCH1/PICTURE_517.png;cuerda;speak;gold;nontarget;2;NT;2;1;1;1;Stim4_Set2;1;repeat;36;35;36;0;35;35;35;;;;;;;;;;;;;;;;;;;;;;;186.9110907;188.0569902;188.0569902;188.0569902;188.0569902;188.0569902;188.0569902;188.0569902;188.0569902;None;0;;;C:\2023\REPSWITCH21092023\REPSWITCH_excgange\REPSWITCH_excgange\data/330101_REPSWITCH1_version1_list1_2023-12-11_16h27.05.564_micRespv1l1_recorded\recording_micRespv1l1_2023-12-11_16h30.10.328.wav;191.0782412;191.5782877;None;191.0782412;191.0782412;191.0782412;191.0782412;191.0782412;191.0782412;;;;;;330101;1;2023-12-11_16h27.05.564;REPSWITCH1_version1_list1;2022.2.4;143.924446;
REPSWITCH1/PICTURE_517.png;cuerda;type;darkblue;switch;1;T;2;1;1;1;Stim4_Set2;0;None;37;36;37;0;36;36;36;;;;;;;;;;;;;;;;;;;;;;;191.5782877;192.6964822;192.6964822;192.6964822;192.6964822;192.6964822;192.6964822;192.6964822;192.6964822;['c', 'u', 'e', 'r', 'd', 'a'];0;[0.8221819000318646, 1.0254927002824843, 1.1654163002967834, 1.257123399991542, 1.544656400103122, 1.6184799000620842];cuerda;C:\2023\REPSWITCH21092023\REPSWITCH_excgange\REPSWITCH_excgange\data/330101_REPSWITCH1_version1_list1_2023-12-11_16h27.05.564_micRespv1l1_recorded\recording_micRespv1l1_2023-12-11_16h30.14.968.wav;195.7246819;;None;195.7246819;195.7246819;195.7246819;195.7246819;195.7246819;195.7246819;;;;;;330101;1;2023-12-11_16h27.05.564;REPSWITCH1_version1_list1;2022.2.4;143.924446;
REPSWITCH1/PICTURE_135.png;traje;type;darkblue;filler;1;F;2;1;1;1;Stim3_Set1;0;None;38;37;38;0;37;37;37;;;;;;;;;;;;;;;;;;;;;;;196.2247412;197.3568607;197.3568607;197.3568607;197.3568607;197.3568607;197.3568607;197.3568607;197.3568607;['t', 'r', 'a', 'j', 'e'];0;[0.9469947000034153, 1.0153386001475155, 1.2924641002900898, 1.4498807000927627, 1.5654214001260698];traje;C:\2023\REPSWITCH21092023\REPSWITCH_excgange\REPSWITCH_excgange\data/330101_REPSWITCH1_version1_list1_2023-12-11_16h27.05.564_micRespv1l1_recorded\recording_micRespv1l1_2023-12-11_16h30.19.628.wav;200.378072;200.8781337;None;200.378072;200.378072;200.378072;200.378072;200.378072;200.378072;;;;;;330101;1;2023-12-11_16h27.05.564;REPSWITCH1_version1_list1;2022.2.4;143.924446;
REPSWITCH1/PICTURE_30.png;granja;type;darkblue;nontarget;1;NT;2;1;1;1;Stim5_Set2;1;repeat;39;38;39;0;38;38;38;;;;;;;;;;;;;;;;;;;;;;;200.8781337;202.107438;202.107438;202.107438;202.107438;202.107438;202.107438;202.107438;202.107438;['g', 'r', 'a', 'n'];0;[2.4816056001000106, 2.523998400196433, 2.755087799858302, 2.8946186997927725];gran;C:\2023\REPSWITCH21092023\REPSWITCH_excgange\REPSWITCH_excgange\data/330101_REPSWITCH1_version1_list1_2023-12-11_16h27.05.564_micRespv1l1_recorded\recording_micRespv1l1_2023-12-11_16h30.24.379.wav;205.1356291;;None;205.1356291;205.1356291;205.1356291;205.1356291;205.1356291;205.1356291;;;;;;330101;1;2023-12-11_16h27.05.564;REPSWITCH1_version1_list1;2022.2.4;143.924446;
REPSWITCH1/PICTURE_30.png;granja;speak;gold;switch;2;T;2;1;1;1;Stim5_Set2;0;None;40;39;40;0;39;39;39;;;;;;;;;;;;;;;;;;;;;;;205.6356867;206.7052706;206.7052706;206.7052706;206.7052706;206.7052706;206.7052706;206.7052706;206.7052706;None;0;;;C:\2023\REPSWITCH21092023\REPSWITCH_excgange\REPSWITCH_excgange\data/330101_REPSWITCH1_version1_list1_2023-12-11_16h27.05.564_micRespv1l1_recorded\recording_micRespv1l1_2023-12-11_16h30.28.977.wav;209.7334388;;None;209.7334388;209.7334388;209.7334388;209.7334388;209.7334388;209.7334388;;;;;;330101;1;2023-12-11_16h27.05.564;REPSWITCH1_version1_list1;2022.2.4;143.924446;
REPSWITCH1/PICTURE_142.png;vaso;type;darkblue;filler;1;F;2;1;1;1;Stim7_Set1;0;None;41;40;41;0;40;40;40;;;;;;;;;;;;;;;;;;;;;;;210.2335006;211.3030951;211.3030951;211.3030951;211.3030951;211.3030951;211.3030951;211.3030951;211.3030951;['v', 'a', 's', 'o'];0;[0.820008700247854, 0.9137201001867652, 1.0244147004559636, 1.1658888002857566];vaso;C:\2023\REPSWITCH21092023\REPSWITCH_excgange\REPSWITCH_excgange\data/330101_REPSWITCH1_version1_list1_2023-12-11_16h27.05.564_micRespv1l1_recorded\recording_micRespv1l1_2023-12-11_16h30.33.574.wav;214.3312867;;None;214.3312867;214.3312867;214.3312867;214.3312867;214.3312867;214.3312867;;;;;;330101;1;2023-12-11_16h27.05.564;REPSWITCH1_version1_list1;2022.2.4;143.924446;
REPSWITCH1/PICTURE_19.png;pavo;speak;gold;filler;2;F;2;1;1;1;Stim5_Set1;1;switch;42;41;42;0;41;41;41;;;;;;;;;;;;;;;;;;;;;;;214.8313419;215.8939863;215.8939863;215.8939863;215.8939863;215.8939863;215.8939863;215.8939863;215.8939863;None;0;;;C:\2023\REPSWITCH21092023\REPSWITCH_excgange\REPSWITCH_excgange\data/330101_REPSWITCH1_version1_list1_2023-12-11_16h27.05.564_micRespv1l1_recorded\recording_micRespv1l1_2023-12-11_16h30.38.165.wav;218.9221635;219.4222292;None;218.9221635;218.9221635;218.9221635;218.9221635;218.9221635;218.9221635;;;;;;330101;1;2023-12-11_16h27.05.564;REPSWITCH1_version1_list1;2022.2.4;143.924446;
REPSWITCH1/PICTURE_552.png;manzana;speak;gold;nontarget;2;NT;2;1;1;1;Stim6_Set2;1;repeat;43;42;43;0;42;42;42;;;;;;;;;;;;;;;;;;;;;;;219.4222292;220.5126472;220.5126472;220.5126472;220.5126472;220.5126472;220.5126472;220.5126472;220.5126472;None;0;;;C:\2023\REPSWITCH21092023\REPSWITCH_excgange\REPSWITCH_excgange\data/330101_REPSWITCH1_version1_list1_2023-12-11_16h27.05.564_micRespv1l1_recorded\recording_micRespv1l1_2023-12-11_16h30.42.785.wav;223.5408086;224.0408905;None;223.5408086;223.5408086;223.5408086;223.5408086;223.5408086;223.5408086;;;;;;330101;1;2023-12-11_16h27.05.564;REPSWITCH1_version1_list1;2022.2.4;143.924446;
REPSWITCH1/PICTURE_552.png;manzana;speak;gold;repeat;2;T;2;1;1;1;Stim6_Set2;0;None;44;43;44;0;43;43;43;;;;;;;;;;;;;;;;;;;;;;;224.0408905;225.23547;225.23547;225.23547;225.23547;225.23547;225.23547;225.23547;225.23547;None;0;;;C:\2023\REPSWITCH21092023\REPSWITCH_excgange\REPSWITCH_excgange\data/330101_REPSWITCH1_version1_list1_2023-12-11_16h27.05.564_micRespv1l1_recorded\recording_micRespv1l1_2023-12-11_16h30.47.506.wav;228.2636654;;None;228.2636654;228.2636654;228.2636654;228.2636654;228.2636654;228.2636654;;;;;;330101;1;2023-12-11_16h27.05.564;REPSWITCH1_version1_list1;2022.2.4;143.924446;
REPSWITCH1/PICTURE_16.png;cazador;type;darkblue;filler;1;F;2;1;1;1;Stim6_Set1;0;None;45;44;45;0;44;44;44;;;;;;;;;;;;;;;;;;;;;;;228.763722;229.8055231;229.8055231;229.8055231;229.8055231;229.8055231;229.8055231;229.8055231;229.8055231;['c', 'a', 'z', 'a', 'd', 'o', 'r'];0;[0.8018633001483977, 0.8755566002801061, 1.5799840004183352, 1.7105442001484334, 1.842024200130254, 2.015477000270039, 2.093048700131476];cazador;C:\2023\REPSWITCH21092023\REPSWITCH_excgange\REPSWITCH_excgange\data/330101_REPSWITCH1_version1_list1_2023-12-11_16h27.05.564_micRespv1l1_recorded\recording_micRespv1l1_2023-12-11_16h30.52.077.wav;232.8337155;;None;232.8337155;232.8337155;232.8337155;232.8337155;232.8337155;232.8337155;;;;;;330101;1;2023-12-11_16h27.05.564;REPSWITCH1_version1_list1;2022.2.4;143.924446;
REPSWITCH1/PICTURE_446.png;cerdo;speak;gold;nontarget;2;NT;2;1;1;1;Stim7_Set2;1;switch;46;45;46;0;45;45;45;;;;;;;;;;;;;;;;;;;;;;;233.3337774;234.4381097;234.4381097;234.4381097;234.4381097;234.4381097;234.4381097;234.4381097;234.4381097;None;0;;;C:\2023\REPSWITCH21092023\REPSWITCH_excgange\REPSWITCH_excgange\data/330101_REPSWITCH1_version1_list1_2023-12-11_16h27.05.564_micRespv1l1_recorded\recording_micRespv1l1_2023-12-11_16h30.56.710.wav;237.4663275;;None;237.4663275;237.4663275;237.4663275;237.4663275;237.4663275;237.4663275;;;;;;330101;1;2023-12-11_16h27.05.564;REPSWITCH1_version1_list1;2022.2.4;143.924446;
REPSWITCH1/PICTURE_446.png;cerdo;speak;gold;repeat;2;T;2;1;1;1;Stim7_Set2;0;None;47;46;47;0;46;46;46;;;;;;;;;;;;;;;;;;;;;;;237.9663978;239.0845224;239.0845224;239.0845224;239.0845224;239.0845224;239.0845224;239.0845224;239.0845224;None;0;;;C:\2023\REPSWITCH21092023\REPSWITCH_excgange\REPSWITCH_excgange\data/330101_REPSWITCH1_version1_list1_2023-12-11_16h27.05.564_micRespv1l1_recorded\recording_micRespv1l1_2023-12-11_16h31.01.356.wav;242.1057663;242.6058352;None;242.1057663;242.1057663;242.1057663;242.1057663;242.1057663;242.1057663;;;;;;330101;1;2023-12-11_16h27.05.564;REPSWITCH1_version1_list1;2022.2.4;143.924446;
REPSWITCH1/PICTURE_590.png;escoba;type;darkblue;filler;1;F;2;1;1;1;Extra3;0;None;48;47;48;0;47;47;47;;;;;;;;;;;;;;;;;;;;;;;242.6058352;243.7866031;243.7866031;243.7866031;243.7866031;243.7866031;243.7866031;243.7866031;243.7866031;['e', 's', 'c', 'o', 'b', 'a'];0;[1.1861815000884235, 1.4164355001412332, 1.8373314999043941, 1.9887757999822497, 2.362086799927056, 2.481896299868822];escoba;C:\2023\REPSWITCH21092023\REPSWITCH_excgange\REPSWITCH_excgange\data/330101_REPSWITCH1_version1_list1_2023-12-11_16h27.05.564_micRespv1l1_recorded\recording_micRespv1l1_2023-12-11_16h31.06.058.wav;246.8147125;;None;246.8147125;246.8147125;246.8147125;246.8147125;246.8147125;246.8147125;;;;;;330101;1;2023-12-11_16h27.05.564;REPSWITCH1_version1_list1;2022.2.4;143.924446;
REPSWITCH1/PICTURE_169.png;espalda;speak;gold;filler;2;F;2;1;1;1;Stim8_Set1;0;None;49;48;49;0;48;48;48;;;;;;;;;;;;;;;;;;;;;;;247.3147793;248.405274;248.405274;248.405274;248.405274;248.405274;248.405274;248.405274;248.405274;None;0;;;C:\2023\REPSWITCH21092023\REPSWITCH_excgange\REPSWITCH_excgange\data/330101_REPSWITCH1_version1_list1_2023-12-11_16h27.05.564_micRespv1l1_recorded\recording_micRespv1l1_2023-12-11_16h31.10.677.wav;251.4333512;;None;251.4333512;251.4333512;251.4333512;251.4333512;251.4333512;251.4333512;;;;;;330101;1;2023-12-11_16h27.05.564;REPSWITCH1_version1_list1;2022.2.4;143.924446;
REPSWITCH1/PICTURE_199.png;falda;speak;gold;nontarget;2;NT;2;1;1;1;Stim8_Set2;1;repeat;50;49;50;0;49;49;49;;;;;;;;;;;;;;;;;;;;;;;251.9334045;253.0169718;253.0169718;253.0169718;253.0169718;253.0169718;253.0169718;253.0169718;253.0169718;None;0;;;C:\2023\REPSWITCH21092023\REPSWITCH_excgange\REPSWITCH_excgange\data/330101_REPSWITCH1_version1_list1_2023-12-11_16h27.05.564_micRespv1l1_recorded\recording_micRespv1l1_2023-12-11_16h31.15.289.wav;256.0381548;256.538216;None;256.0381548;256.0381548;256.0381548;256.0381548;256.0381548;256.0381548;;;;;;330101;1;2023-12-11_16h27.05.564;REPSWITCH1_version1_list1;2022.2.4;143.924446;
REPSWITCH1/PICTURE_199.png;falda;type;darkblue;switch;1;T;2;1;1;1;Stim8_Set2;0;None;51;50;51;0;50;50;50;;;;;;;;;;;;;;;;;;;;;;;256.538216;257.6425287;257.6425287;257.6425287;257.6425287;257.6425287;257.6425287;257.6425287;257.6425287;['f', 'a', 'l', 's', 'backspace', 'd', 'a'];0;[0.906998900230974, 0.9906973000615835, 1.199062299914658, 1.3937530000694096, 1.8163780001923442, 1.9609623001888394, 2.0247305002994835];falda;C:\2023\REPSWITCH21092023\REPSWITCH_excgange\REPSWITCH_excgange\data/330101_REPSWITCH1_version1_list1_2023-12-11_16h27.05.564_micRespv1l1_recorded\recording_micRespv1l1_2023-12-11_16h31.19.914.wav;260.6707649;;space;260.6707649;260.6707649;260.6707649;260.6707649;260.6707649;260.6707649;261.170763;261.170763;13.6576056;;;330101;1;2023-12-11_16h27.05.564;REPSWITCH1_version1_list1;2022.2.4;143.924446;
REPSWITCH1/PICTURE_576.png;guante;type;darkblue;nontarget;1;NT;3;1;1;1;Stim1_Set3;0;None;52;51;52;0;51;51;51;;;;;;;;;;;;;;;;;;;;;;;274.8392218;275.9921457;275.9921457;275.9921457;275.9921457;275.9921457;275.9921457;275.9921457;275.9921457;['g', 'u', 'a', 'n', 't', 'e'];0;[1.2192903002724051, 1.2940296004526317, 1.4126311000436544, 1.6777482004836202, 1.7141102002933621, 1.8186401003040373];guante;C:\2023\REPSWITCH21092023\REPSWITCH_excgange\REPSWITCH_excgange\data/330101_REPSWITCH1_version1_list1_2023-12-11_16h27.05.564_micRespv1l1_recorded\recording_micRespv1l1_2023-12-11_16h31.38.263.wav;279.0133501;279.5134569;None;279.0133501;279.0133501;279.0133501;279.0133501;279.0133501;279.0133501;;;;;;330101;1;2023-12-11_16h27.05.564;REPSWITCH1_version1_list1;2022.2.4;143.924446;
REPSWITCH1/PICTURE_576.png;guante;speak;gold;switch;2;T;3;1;1;1;Stim1_Set3;0;None;53;52;53;0;52;52;52;;;;;;;;;;;;;;;;;;;;;;;279.5134569;280.5899804;280.5899804;280.5899804;280.5899804;280.5899804;280.5899804;280.5899804;280.5899804;None;0;;;C:\2023\REPSWITCH21092023\REPSWITCH_excgange\REPSWITCH_excgange\data/330101_REPSWITCH1_version1_list1_2023-12-11_16h27.05.564_micRespv1l1_recorded\recording_micRespv1l1_2023-12-11_16h31.42.862.wav;283.6181518;;None;283.6181518;283.6181518;283.6181518;283.6181518;283.6181518;283.6181518;;;;;;330101;1;2023-12-11_16h27.05.564;REPSWITCH1_version1_list1;2022.2.4;143.924446;
REPSWITCH1/PICTURE_646.png;tronco;speak;gold;filler;2;F;3;1;1;1;Extra4;0;None;54;53;54;0;53;53;53;;;;;;;;;;;;;;;;;;;;;;;284.1182183;285.2155891;285.2155891;285.2155891;285.2155891;285.2155891;285.2155891;285.2155891;285.2155891;None;0;;;C:\2023\REPSWITCH21092023\REPSWITCH_excgange\REPSWITCH_excgange\data/330101_REPSWITCH1_version1_list1_2023-12-11_16h27.05.564_micRespv1l1_recorded\recording_micRespv1l1_2023-12-11_16h31.47.488.wav;288.243831;;None;288.243831;288.243831;288.243831;288.243831;288.243831;288.243831;;;;;;330101;1;2023-12-11_16h27.05.564;REPSWITCH1_version1_list1;2022.2.4;143.924446;
REPSWITCH1/PICTURE_610.png;miel;speak;gold;nontarget;2;NT;3;1;1;1;Stim2_Set3;1;repeat;55;54;55;0;54;54;54;;;;;;;;;;;;;;;;;;;;;;;288.7438323;289.8065279;289.8065279;289.8065279;289.8065279;289.8065279;289.8065279;289.8065279;289.8065279;None;0;;;C:\2023\REPSWITCH21092023\REPSWITCH_excgange\REPSWITCH_excgange\data/330101_REPSWITCH1_version1_list1_2023-12-11_16h27.05.564_micRespv1l1_recorded\recording_micRespv1l1_2023-12-11_16h31.52.078.wav;292.8276593;293.3277614;None;292.8276593;292.8276593;292.8276593;292.8276593;292.8276593;292.8276593;;;;;;330101;1;2023-12-11_16h27.05.564;REPSWITCH1_version1_list1;2022.2.4;143.924446;
REPSWITCH1/PICTURE_610.png;miel;type;darkblue;switch;1;T;3;1;1;1;Stim2_Set3;0;None;56;55;56;0;55;55;55;;;;;;;;;;;;;;;;;;;;;;;293.3277614;294.3835187;294.3835187;294.3835187;294.3835187;294.3835187;294.3835187;294.3835187;294.3835187;['m', 'i', 'e', 'l'];0;[0.9847336001694202, 1.035561400000006, 1.1412263000383973, 1.2767333001829684];miel;C:\2023\REPSWITCH21092023\REPSWITCH_excgange\REPSWITCH_excgange\data/330101_REPSWITCH1_version1_list1_2023-12-11_16h27.05.564_micRespv1l1_recorded\recording_micRespv1l1_2023-12-11_16h31.56.655.wav;297.4116118;;None;297.4116118;297.4116118;297.4116118;297.4116118;297.4116118;297.4116118;;;;;;330101;1;2023-12-11_16h27.05.564;REPSWITCH1_version1_list1;2022.2.4;143.924446;
REPSWITCH1/PICTURE_175.png;pintor;type;darkblue;filler;1;F;3;1;1;1;Stim1_Set2;1;repeat;57;56;57;0;56;56;56;;;;;;;;;;;;;;;;;;;;;;;297.9117024;298.9812802;298.9812802;298.9812802;298.9812802;298.9812802;298.9812802;298.9812802;298.9812802;['p', 'i', 'n', 't', 'o', 'r'];0;[1.0094493003562093, 1.1381031004711986, 1.2616270002909005, 1.3523282003588974, 1.4420135002583265, 1.581544800195843];pintor;C:\2023\REPSWITCH21092023\REPSWITCH_excgange\REPSWITCH_excgange\data/330101_REPSWITCH1_version1_list1_2023-12-11_16h27.05.564_micRespv1l1_recorded\recording_micRespv1l1_2023-12-11_16h32.01.253.wav;302.0094993;;None;302.0094993;302.0094993;302.0094993;302.0094993;302.0094993;302.0094993;;;;;;330101;1;2023-12-11_16h27.05.564;REPSWITCH1_version1_list1;2022.2.4;143.924446;
REPSWITCH1/PICTURE_242.png;cartero;type;darkblue;nontarget;1;NT;3;1;1;1;Stim3_Set3;1;repeat;58;57;58;0;57;57;57;;;;;;;;;;;;;;;;;;;;;;;302.5094988;303.6833541;303.6833541;303.6833541;303.6833541;303.6833541;303.6833541;303.6833541;303.6833541;['c', 'a', 'r', 't', 'e', 'r', 'o'];0;[0.8380014998838305, 0.9182251002639532, 1.1085884999483824, 1.3458014000207186, 1.4773563002236187, 1.7718159998767078, 2.099044300150126];cartero;C:\2023\REPSWITCH21092023\REPSWITCH_excgange\REPSWITCH_excgange\data/330101_REPSWITCH1_version1_list1_2023-12-11_16h27.05.564_micRespv1l1_recorded\recording_micRespv1l1_2023-12-11_16h32.05.955.wav;306.7114378;;None;306.7114378;306.7114378;306.7114378;306.7114378;306.7114378;306.7114378;;;;;;330101;1;2023-12-11_16h27.05.564;REPSWITCH1_version1_list1;2022.2.4;143.924446;
REPSWITCH1/PICTURE_242.png;cartero;speak;gold;switch;2;T;3;1;1;1;Stim3_Set3;0;None;59;58;59;0;58;58;58;;;;;;;;;;;;;;;;;;;;;;;307.2115779;308.2811777;308.2811777;308.2811777;308.2811777;308.2811777;308.2811777;308.2811777;308.2811777;None;0;;;C:\2023\REPSWITCH21092023\REPSWITCH_excgange\REPSWITCH_excgange\data/330101_REPSWITCH1_version1_list1_2023-12-11_16h27.05.564_micRespv1l1_recorded\recording_micRespv1l1_2023-12-11_16h32.10.552.wav;311.3023224;311.8023759;None;311.3023224;311.3023224;311.3023224;311.3023224;311.3023224;311.3023224;;;;;;330101;1;2023-12-11_16h27.05.564;REPSWITCH1_version1_list1;2022.2.4;143.924446;
REPSWITCH1/PICTURE_152.png;caracol;speak;gold;filler;2;F;3;1;1;1;Stim2_Set2;0;None;60;59;60;0;59;59;59;;;;;;;;;;;;;;;;;;;;;;;311.8023759;312.9137323;312.9137323;312.9137323;312.9137323;312.9137323;312.9137323;312.9137323;312.9137323;None;0;;;C:\2023\REPSWITCH21092023\REPSWITCH_excgange\REPSWITCH_excgange\data/330101_REPSWITCH1_version1_list1_2023-12-11_16h27.05.564_micRespv1l1_recorded\recording_micRespv1l1_2023-12-11_16h32.15.186.wav;315.9418443;;None;315.9418443;315.9418443;315.9418443;315.9418443;315.9418443;315.9418443;;;;;;330101;1;2023-12-11_16h27.05.564;REPSWITCH1_version1_list1;2022.2.4;143.924446;
REPSWITCH1/PICTURE_517.png;cuerda;type;darkblue;filler;1;F;3;1;1;1;Stim4_Set2;0;None;61;60;61;0;60;60;60;;;;;;;;;;;;;;;;;;;;;;;316.4419117;317.5253567;317.5253567;317.5253567;317.5253567;317.5253567;317.5253567;317.5253567;317.5253567;['c', 'u', 'e', 'r', 'd', 'a'];0;[0.7805525003932416, 0.9938296005129814, 1.1044754004105926, 1.1582853002473712, 1.4187733004800975, 1.5313981003127992];cuerda;C:\2023\REPSWITCH21092023\REPSWITCH_excgange\REPSWITCH_excgange\data/330101_REPSWITCH1_version1_list1_2023-12-11_16h27.05.564_micRespv1l1_recorded\recording_micRespv1l1_2023-12-11_16h32.19.796.wav;320.5466829;321.0466693;None;320.5466829;320.5466829;320.5466829;320.5466829;320.5466829;320.5466829;;;;;;330101;1;2023-12-11_16h27.05.564;REPSWITCH1_version1_list1;2022.2.4;143.924446;
REPSWITCH1/PICTURE_235.png;aguja;speak;gold;nontarget;2;NT;3;1;1;1;Stim4_Set3;1;switch;62;61;62;0;61;61;61;;;;;;;;;;;;;;;;;;;;;;;321.0466693;322.1231951;322.1231951;322.1231951;322.1231951;322.1231951;322.1231951;322.1231951;322.1231951;None;0;;;C:\2023\REPSWITCH21092023\REPSWITCH_excgange\REPSWITCH_excgange\data/330101_REPSWITCH1_version1_list1_2023-12-11_16h27.05.564_micRespv1l1_recorded\recording_micRespv1l1_2023-12-11_16h32.24.394.wav;325.1444148;325.6445553;None;325.1444148;325.1444148;325.1444148;325.1444148;325.1444148;325.1444148;;;;;;330101;1;2023-12-11_16h27.05.564;REPSWITCH1_version1_list1;2022.2.4;143.924446;
REPSWITCH1/PICTURE_235.png;aguja;speak;gold;repeat;2;T;3;1;1;1;Stim4_Set3;0;None;63;62;63;0;62;62;62;;;;;;;;;;;;;;;;;;;;;;;325.6445553;326.7974417;326.7974417;326.7974417;326.7974417;326.7974417;326.7974417;326.7974417;326.7974417;None;0;;;C:\2023\REPSWITCH21092023\REPSWITCH_excgange\REPSWITCH_excgange\data/330101_REPSWITCH1_version1_list1_2023-12-11_16h27.05.564_micRespv1l1_recorded\recording_micRespv1l1_2023-12-11_16h32.29.069.wav;329.8186452;330.3187343;None;329.8186452;329.8186452;329.8186452;329.8186452;329.8186452;329.8186452;;;;;;330101;1;2023-12-11_16h27.05.564;REPSWITCH1_version1_list1;2022.2.4;143.924446;
REPSWITCH1/PICTURE_30.png;granja;type;darkblue;filler;1;F;3;1;1;1;Stim5_Set2;0;None;64;63;64;0;63;63;63;;;;;;;;;;;;;;;;;;;;;;;330.3187343;331.3882984;331.3882984;331.3882984;331.3882984;331.3882984;331.3882984;331.3882984;331.3882984;['g', 'r', 'r', 't', 'backspace', 'backspace', 'a', 'n', 'j', 'a'];0;[0.9907370000146329, 1.1232822998426855, 1.1452024998143315, 1.146181299816817, 1.7050252999179065, 2.0217980998568237, 2.206987800076604, 2.3718872000463307, 2.548612200189382, 2.6876019998453557];granja;C:\2023\REPSWITCH21092023\REPSWITCH_excgange\REPSWITCH_excgange\data/330101_REPSWITCH1_version1_list1_2023-12-11_16h27.05.564_micRespv1l1_recorded\recording_micRespv1l1_2023-12-11_16h32.33.660.wav;334.4164642;;None;334.4164642;334.4164642;334.4164642;334.4164642;334.4164642;334.4164642;;;;;;330101;1;2023-12-11_16h27.05.564;REPSWITCH1_version1_list1;2022.2.4;143.924446;
REPSWITCH1/PICTURE_552.png;manzana;speak;gold;filler;2;F;3;1;1;1;Stim6_Set2;1;switch;65;64;65;0;64;64;64;;;;;;;;;;;;;;;;;;;;;;;334.9165171;335.9583349;335.9583349;335.9583349;335.9583349;335.9583349;335.9583349;335.9583349;335.9583349;None;0;;;C:\2023\REPSWITCH21092023\REPSWITCH_excgange\REPSWITCH_excgange\data/330101_REPSWITCH1_version1_list1_2023-12-11_16h27.05.564_micRespv1l1_recorded\recording_micRespv1l1_2023-12-11_16h32.38.230.wav;338.9865098;;None;338.9865098;338.9865098;338.9865098;338.9865098;338.9865098;338.9865098;;;;;;330101;1;2023-12-11_16h27.05.564;REPSWITCH1_version1_list1;2022.2.4;143.924446;
REPSWITCH1/PICTURE_35.png;oreja;speak;gold;nontarget;2;NT;3;1;1;1;Stim5_Set3;1;repeat;66;65;66;0;65;65;65;;;;;;;;;;;;;;;;;;;;;;;339.4866778;340.632621;340.632621;340.632621;340.632621;340.632621;340.632621;340.632621;340.632621;None;0;;;C:\2023\REPSWITCH21092023\REPSWITCH_excgange\REPSWITCH_excgange\data/330101_REPSWITCH1_version1_list1_2023-12-11_16h27.05.564_micRespv1l1_recorded\recording_micRespv1l1_2023-12-11_16h32.42.904.wav;343.6607484;344.1608212;None;343.6607484;343.6607484;343.6607484;343.6607484;343.6607484;343.6607484;;;;;;330101;1;2023-12-11_16h27.05.564;REPSWITCH1_version1_list1;2022.2.4;143.924446;
REPSWITCH1/PICTURE_35.png;oreja;speak;gold;repeat;2;T;3;1;1;1;Stim5_Set3;0;None;67;66;67;0;66;66;66;;;;;;;;;;;;;;;;;;;;;;;344.1608212;345.3276325;345.3276325;345.3276325;345.3276325;345.3276325;345.3276325;345.3276325;345.3276325;None;0;;;C:\2023\REPSWITCH21092023\REPSWITCH_excgange\REPSWITCH_excgange\data/330101_REPSWITCH1_version1_list1_2023-12-11_16h27.05.564_micRespv1l1_recorded\recording_micRespv1l1_2023-12-11_16h32.47.599.wav;348.348878;348.8489264;None;348.348878;348.348878;348.348878;348.348878;348.348878;348.348878;;;;;;330101;1;2023-12-11_16h27.05.564;REPSWITCH1_version1_list1;2022.2.4;143.924446;
REPSWITCH1/PICTURE_673.png;tenedor;type;darkblue;filler;1;F;3;1;1;1;Extra5;0;None;68;67;68;0;67;67;67;;;;;;;;;;;;;;;;;;;;;;;348.8489264;349.9810546;349.9810546;349.9810546;349.9810546;349.9810546;349.9810546;349.9810546;349.9810546;['t', 'e', 'n', 'e', 'd', 'o', 'r'];0;[0.9393521999008954, 1.024079800117761, 1.1486714999191463, 1.2702721999958158, 1.4357074000872672, 1.5642694002017379, 1.7067960002459586];tenedor;C:\2023\REPSWITCH21092023\REPSWITCH_excgange\REPSWITCH_excgange\data/330101_REPSWITCH1_version1_list1_2023-12-11_16h27.05.564_micRespv1l1_recorded\recording_micRespv1l1_2023-12-11_16h32.52.252.wav;353.0092192;;None;353.0092192;353.0092192;353.0092192;353.0092192;353.0092192;353.0092192;;;;;;330101;1;2023-12-11_16h27.05.564;REPSWITCH1_version1_list1;2022.2.4;143.924446;
REPSWITCH1/PICTURE_464.png;goma;speak;gold;nontarget;2;NT;3;1;1;1;Stim6_Set3;0;None;69;68;69;0;68;68;68;;;;;;;;;;;;;;;;;;;;;;;353.5093402;354.5510606;354.5510606;354.5510606;354.5510606;354.5510606;354.5510606;354.5510606;354.5510606;None;0;;;C:\2023\REPSWITCH21092023\REPSWITCH_excgange\REPSWITCH_excgange\data/330101_REPSWITCH1_version1_list1_2023-12-11_16h27.05.564_micRespv1l1_recorded\recording_micRespv1l1_2023-12-11_16h32.56.822.wav;357.5792289;;None;357.5792289;357.5792289;357.5792289;357.5792289;357.5792289;357.5792289;;;;;;330101;1;2023-12-11_16h27.05.564;REPSWITCH1_version1_list1;2022.2.4;143.924446;
REPSWITCH1/PICTURE_464.png;goma;type;darkblue;switch;1;T;3;1;1;1;Stim6_Set3;0;None;70;69;70;0;69;69;69;;;;;;;;;;;;;;;;;;;;;;;358.079309;359.1975475;359.1975475;359.1975475;359.1975475;359.1975475;359.1975475;359.1975475;359.1975475;['g', 'o', 'm', 'a'];0;[0.9890490001998842, 1.1594694000668824, 1.2665813998319209, 1.3483841000124812];goma;C:\2023\REPSWITCH21092023\REPSWITCH_excgange\REPSWITCH_excgange\data/330101_REPSWITCH1_version1_list1_2023-12-11_16h27.05.564_micRespv1l1_recorded\recording_micRespv1l1_2023-12-11_16h33.01.469.wav;362.2187409;362.7188152;None;362.2187409;362.2187409;362.2187409;362.2187409;362.2187409;362.2187409;;;;;;330101;1;2023-12-11_16h27.05.564;REPSWITCH1_version1_list1;2022.2.4;143.924446;
REPSWITCH1/PICTURE_264.png;mano;speak;gold;filler;2;F;3;1;1;1;Stim3_Set2;0;None;71;70;71;0;70;70;70;;;;;;;;;;;;;;;;;;;;;;;362.7188152;363.8578686;363.8578686;363.8578686;363.8578686;363.8578686;363.8578686;363.8578686;363.8578686;None;0;;;C:\2023\REPSWITCH21092023\REPSWITCH_excgange\REPSWITCH_excgange\data/330101_REPSWITCH1_version1_list1_2023-12-11_16h27.05.564_micRespv1l1_recorded\recording_micRespv1l1_2023-12-11_16h33.06.129.wav;366.8861281;;None;366.8861281;366.8861281;366.8861281;366.8861281;366.8861281;366.8861281;;;;;;330101;1;2023-12-11_16h27.05.564;REPSWITCH1_version1_list1;2022.2.4;143.924446;
REPSWITCH1/PICTURE_271.png;conejo;type;darkblue;nontarget;1;NT;3;1;1;1;Stim7_Set3;1;switch;72;71;72;0;71;71;71;;;;;;;;;;;;;;;;;;;;;;;367.3861003;368.4278967;368.4278967;368.4278967;368.4278967;368.4278967;368.4278967;368.4278967;368.4278967;['c', 'o', 'n', 'e', 'j', 'o'];0;[0.9662839998491108, 1.0829456998035312, 1.2154044001363218, 1.322074799798429, 1.4516186001710594, 1.538344199769199];conejo;C:\2023\REPSWITCH21092023\REPSWITCH_excgange\REPSWITCH_excgange\data/330101_REPSWITCH1_version1_list1_2023-12-11_16h27.05.564_micRespv1l1_recorded\recording_micRespv1l1_2023-12-11_16h33.10.699.wav;371.449108;371.9491954;None;371.449108;371.449108;371.449108;371.449108;371.449108;371.449108;;;;;;330101;1;2023-12-11_16h27.05.564;REPSWITCH1_version1_list1;2022.2.4;143.924446;
REPSWITCH1/PICTURE_271.png;conejo;type;darkblue;repeat;1;T;3;1;1;1;Stim7_Set3;0;None;73;72;73;0;72;72;72;;;;;;;;;;;;;;;;;;;;;;;371.9491954;373.122944;373.122944;373.122944;373.122944;373.122944;373.122944;373.122944;373.122944;['c', 'o', 'n', 'e', 'j', 'o'];0;[0.9550588000565767, 1.0826278999447823, 1.193257899954915, 1.3148504002019763, 1.4513643002137542, 1.5500742997974157];conejo;C:\2023\REPSWITCH21092023\REPSWITCH_excgange\REPSWITCH_excgange\data/330101_REPSWITCH1_version1_list1_2023-12-11_16h27.05.564_micRespv1l1_recorded\recording_micRespv1l1_2023-12-11_16h33.15.394.wav;376.1510956;;None;376.1510956;376.1510956;376.1510956;376.1510956;376.1510956;376.1510956;;;;;;330101;1;2023-12-11_16h27.05.564;REPSWITCH1_version1_list1;2022.2.4;143.924446;
REPSWITCH1/PICTURE_446.png;cerdo;speak;gold;filler;2;F;3;1;1;1;Stim7_Set2;0;None;74;73;74;0;73;73;73;;;;;;;;;;;;;;;;;;;;;;;376.6511884;377.7416051;377.7416051;377.7416051;377.7416051;377.7416051;377.7416051;377.7416051;377.7416051;None;0;;;C:\2023\REPSWITCH21092023\REPSWITCH_excgange\REPSWITCH_excgange\data/330101_REPSWITCH1_version1_list1_2023-12-11_16h27.05.564_micRespv1l1_recorded\recording_micRespv1l1_2023-12-11_16h33.20.013.wav;380.7698047;;None;380.7698047;380.7698047;380.7698047;380.7698047;380.7698047;380.7698047;;;;;;330101;1;2023-12-11_16h27.05.564;REPSWITCH1_version1_list1;2022.2.4;143.924446;
REPSWITCH1/PICTURE_199.png;falda;type;darkblue;filler;1;F;3;1;1;1;Stim8_Set2;1;switch;75;74;75;0;74;74;74;;;;;;;;;;;;;;;;;;;;;;;381.2699276;382.4159155;382.4159155;382.4159155;382.4159155;382.4159155;382.4159155;382.4159155;382.4159155;['f', 'a', 'l', 'd', 'a'];0;[0.8796665002591908, 0.9856367004103959, 1.159602700266987, 1.3160923002287745, 1.4087794004008174];falda;C:\2023\REPSWITCH21092023\REPSWITCH_excgange\REPSWITCH_excgange\data/330101_REPSWITCH1_version1_list1_2023-12-11_16h27.05.564_micRespv1l1_recorded\recording_micRespv1l1_2023-12-11_16h33.24.687.wav;385.4370869;385.9371302;None;385.4370869;385.4370869;385.4370869;385.4370869;385.4370869;385.4370869;;;;;;330101;1;2023-12-11_16h27.05.564;REPSWITCH1_version1_list1;2022.2.4;143.924446;
REPSWITCH1/PICTURE_320.png;iglesia;type;darkblue;nontarget;1;NT;3;1;1;1;Stim8_Set3;1;repeat;76;75;76;0;75;75;75;;;;;;;;;;;;;;;;;;;;;;;385.9371302;387.0483957;387.0483957;387.0483957;387.0483957;387.0483957;387.0483957;387.0483957;387.0483957;['i', 'g', 'l', 'e', 's', 'i', 'a'];0;[1.1258261003531516, 1.2913726000115275, 1.435848300345242, 1.5704067000187933, 1.7548897000961006, 1.8602421004325151, 2.0110037000849843];iglesia;C:\2023\REPSWITCH21092023\REPSWITCH_excgange\REPSWITCH_excgange\data/330101_REPSWITCH1_version1_list1_2023-12-11_16h27.05.564_micRespv1l1_recorded\recording_micRespv1l1_2023-12-11_16h33.29.320.wav;390.0765703;;None;390.0765703;390.0765703;390.0765703;390.0765703;390.0765703;390.0765703;;;;;;330101;1;2023-12-11_16h27.05.564;REPSWITCH1_version1_list1;2022.2.4;143.924446;
REPSWITCH1/PICTURE_320.png;iglesia;type;darkblue;repeat;1;T;3;1;1;1;Stim8_Set3;0;None;77;76;77;0;76;76;76;;;;;;;;;;;;;;;;;;;;;;;390.5766414;391.715706;391.715706;391.715706;391.715706;391.715706;391.715706;391.715706;391.715706;['i', 'g', 'l', 'e', 's', 'i', 'a'];0;[0.9906421001069248, 1.1047231000848114, 1.356918300036341, 1.5735232001170516, 1.798652600031346, 1.9066309002228081, 2.112948799971491];iglesia;C:\2023\REPSWITCH21092023\REPSWITCH_excgange\REPSWITCH_excgange\data/330101_REPSWITCH1_version1_list1_2023-12-11_16h27.05.564_micRespv1l1_recorded\recording_micRespv1l1_2023-12-11_16h33.33.988.wav;394.743882;;None;394.743882;394.743882;394.743882;394.743882;394.743882;394.743882;;;;;;330101;1;2023-12-11_16h27.05.564;REPSWITCH1_version1_list1;2022.2.4;143.924446;
REPSWITCH1/PICTURE_576.png;guante;speak;gold;filler;2;F;4;1;1;1;Stim1_Set3;0;None;78;77;78;0;77;77;77;;;;;;;;;;;;;;;;;;;;;;;395.2439207;396.3413484;396.3413484;396.3413484;396.3413484;396.3413484;396.3413484;396.3413484;396.3413484;None;0;;;C:\2023\REPSWITCH21092023\REPSWITCH_excgange\REPSWITCH_excgange\data/330101_REPSWITCH1_version1_list1_2023-12-11_16h27.05.564_micRespv1l1_recorded\recording_micRespv1l1_2023-12-11_16h33.38.613.wav;399.3694415;;None;399.3694415;399.3694415;399.3694415;399.3694415;399.3694415;399.3694415;;;;;;330101;1;2023-12-11_16h27.05.564;REPSWITCH1_version1_list1;2022.2.4;143.924446;
REPSWITCH1/PICTURE_319.png;vaca;type;darkblue;nontarget;1;NT;4;1;1;1;Stim1_Set4;1;switch;79;78;79;0;78;78;78;;;;;;;;;;;;;;;;;;;;;;;399.8695758;400.9600252;400.9600252;400.9600252;400.9600252;400.9600252;400.9600252;400.9600252;400.9600252;['v', 'a', 'c', 'a'];0;[0.9017378999851644, 1.0066901999525726, 1.1545150000602007, 1.2881112000904977];vaca;C:\2023\REPSWITCH21092023\REPSWITCH_excgange\REPSWITCH_excgange\data/330101_REPSWITCH1_version1_list1_2023-12-11_16h27.05.564_micRespv1l1_recorded\recording_micRespv1l1_2023-12-11_16h33.43.232.wav;403.9812427;404.4812415;None;403.9812427;403.9812427;403.9812427;403.9812427;403.9812427;403.9812427;;;;;;330101;1;2023-12-11_16h27.05.564;REPSWITCH1_version1_list1;2022.2.4;143.924446;
REPSWITCH1/PICTURE_319.png;vaca;type;darkblue;repeat;1;T;4;1;1;1;Stim1_Set4;0;None;80;79;80;0;79;79;79;;;;;;;;;;;;;;;;;;;;;;;404.4812415;405.6342013;405.6342013;405.6342013;405.6342013;405.6342013;405.6342013;405.6342013;405.6342013;['v', 'a', 'c', 'a'];0;[0.7346655004657805, 0.8300227001309395, 0.9815103001892567, 1.1220465004444122];vaca;C:\2023\REPSWITCH21092023\REPSWITCH_excgange\REPSWITCH_excgange\data/330101_REPSWITCH1_version1_list1_2023-12-11_16h27.05.564_micRespv1l1_recorded\recording_micRespv1l1_2023-12-11_16h33.47.906.wav;408.6623286;409.1623866;None;408.6623286;408.6623286;408.6623286;408.6623286;408.6623286;408.6623286;;;;;;330101;1;2023-12-11_16h27.05.564;REPSWITCH1_version1_list1;2022.2.4;143.924446;
REPSWITCH1/PICTURE_719.png;baño;type;darkblue;nontarget;1;NT;4;1;1;1;Stim2_Set4;0;None;81;80;81;0;80;80;80;;;;;;;;;;;;;;;;;;;;;;;409.1623866;410.2250363;410.2250363;410.2250363;410.2250363;410.2250363;410.2250363;410.2250363;410.2250363;['b', 'a', 'ñ', 'o'];0;[0.9686738001182675, 1.052346299868077, 1.3359169997274876, 1.7619272000156343];baño;C:\2023\REPSWITCH21092023\REPSWITCH_excgange\REPSWITCH_excgange\data/330101_REPSWITCH1_version1_list1_2023-12-11_16h27.05.564_micRespv1l1_recorded\recording_micRespv1l1_2023-12-11_16h33.52.496.wav;413.2462853;413.7464028;None;413.2462853;413.2462853;413.2462853;413.2462853;413.2462853;413.2462853;;;;;;330101;1;2023-12-11_16h27.05.564;REPSWITCH1_version1_list1;2022.2.4;143.924446;
REPSWITCH1/PICTURE_719.png;baño;speak;gold;switch;2;T;4;1;1;1;Stim2_Set4;0;None;82;81;82;0;81;81;81;;;;;;;;;;;;;;;;;;;;;;;413.7464028;414.8784262;414.8784262;414.8784262;414.8784262;414.8784262;414.8784262;414.8784262;414.8784262;None;0;;;C:\2023\REPSWITCH21092023\REPSWITCH_excgange\REPSWITCH_excgange\data/330101_REPSWITCH1_version1_list1_2023-12-11_16h27.05.564_micRespv1l1_recorded\recording_micRespv1l1_2023-12-11_16h33.57.151.wav;417.9066168;;None;417.9066168;417.9066168;417.9066168;417.9066168;417.9066168;417.9066168;;;;;;330101;1;2023-12-11_16h27.05.564;REPSWITCH1_version1_list1;2022.2.4;143.924446;
REPSWITCH1/PICTURE_242.png;cartero;speak;gold;filler;2;F;4;1;1;1;Stim3_Set3;1;repeat;83;82;83;0;82;82;82;;;;;;;;;;;;;;;;;;;;;;;418.4066833;419.4623543;419.4623543;419.4623543;419.4623543;419.4623543;419.4623543;419.4623543;419.4623543;None;0;;;C:\2023\REPSWITCH21092023\REPSWITCH_excgange\REPSWITCH_excgange\data/330101_REPSWITCH1_version1_list1_2023-12-11_16h27.05.564_micRespv1l1_recorded\recording_micRespv1l1_2023-12-11_16h34.01.734.wav;422.4836126;422.9836744;None;422.4836126;422.4836126;422.4836126;422.4836126;422.4836126;422.4836126;;;;;;330101;1;2023-12-11_16h27.05.564;REPSWITCH1_version1_list1;2022.2.4;143.924446;
REPSWITCH1/PICTURE_610.png;miel;type;darkblue;filler;1;F;4;1;1;1;Stim2_Set3;0;None;84;83;84;0;83;83;83;;;;;;;;;;;;;;;;;;;;;;;422.9836744;424.1782999;424.1782999;424.1782999;424.1782999;424.1782999;424.1782999;424.1782999;424.1782999;['m', 'i', 'e', 'l'];0;[0.9989348002709448, 1.0378324002958834, 1.1913873003795743, 1.305976700503379];miel;C:\2023\REPSWITCH21092023\REPSWITCH_excgange\REPSWITCH_excgange\data/330101_REPSWITCH1_version1_list1_2023-12-11_16h27.05.564_micRespv1l1_recorded\recording_micRespv1l1_2023-12-11_16h34.06.450.wav;427.1995552;427.6995717;None;427.1995552;427.1995552;427.1995552;427.1995552;427.1995552;427.1995552;;;;;;330101;1;2023-12-11_16h27.05.564;REPSWITCH1_version1_list1;2022.2.4;143.924446;
REPSWITCH1/PICTURE_8.png;pierna;speak;gold;nontarget;2;NT;4;1;1;1;Stim3_Set4;1;switch;85;84;85;0;84;84;84;;;;;;;;;;;;;;;;;;;;;;;427.6995717;428.8108639;428.8108639;428.8108639;428.8108639;428.8108639;428.8108639;428.8108639;428.8108639;None;0;;;C:\2023\REPSWITCH21092023\REPSWITCH_excgange\REPSWITCH_excgange\data/330101_REPSWITCH1_version1_list1_2023-12-11_16h27.05.564_micRespv1l1_recorded\recording_micRespv1l1_2023-12-11_16h34.11.083.wav;431.8390026;;None;431.8390026;431.8390026;431.8390026;431.8390026;431.8390026;431.8390026;;;;;;330101;1;2023-12-11_16h27.05.564;REPSWITCH1_version1_list1;2022.2.4;143.924446;
REPSWITCH1/PICTURE_8.png;pierna;speak;gold;repeat;2;T;4;1;1;1;Stim3_Set4;0;None;86;85;86;0;85;85;85;;;;;;;;;;;;;;;;;;;;;;;432.3390348;433.4989265;433.4989265;433.4989265;433.4989265;433.4989265;433.4989265;433.4989265;433.4989265;None;0;;;C:\2023\REPSWITCH21092023\REPSWITCH_excgange\REPSWITCH_excgange\data/330101_REPSWITCH1_version1_list1_2023-12-11_16h27.05.564_micRespv1l1_recorded\recording_micRespv1l1_2023-12-11_16h34.15.770.wav;436.5202036;437.0203055;None;436.5202036;436.5202036;436.5202036;436.5202036;436.5202036;436.5202036;;;;;;330101;1;2023-12-11_16h27.05.564;REPSWITCH1_version1_list1;2022.2.4;143.924446;
REPSWITCH1/PICTURE_498.png;taza;speak;gold;nontarget;2;NT;4;1;1;1;Stim4_Set4;1;repeat;87;86;87;0;86;86;86;;;;;;;;;;;;;;;;;;;;;;;437.0203055;438.1245848;438.1245848;438.1245848;438.1245848;438.1245848;438.1245848;438.1245848;438.1245848;None;0;;;C:\2023\REPSWITCH21092023\REPSWITCH_excgange\REPSWITCH_excgange\data/330101_REPSWITCH1_version1_list1_2023-12-11_16h27.05.564_micRespv1l1_recorded\recording_micRespv1l1_2023-12-11_16h34.20.396.wav;441.1457725;441.6458456;None;441.1457725;441.1457725;441.1457725;441.1457725;441.1457725;441.1457725;;;;;;330101;1;2023-12-11_16h27.05.564;REPSWITCH1_version1_list1;2022.2.4;143.924446;
REPSWITCH1/PICTURE_498.png;taza;type;darkblue;switch;1;T;4;1;1;1;Stim4_Set4;0;None;88;87;88;0;87;87;87;;;;;;;;;;;;;;;;;;;;;;;441.6458456;442.7432072;442.7432072;442.7432072;442.7432072;442.7432072;442.7432072;442.7432072;442.7432072;['t', 'a', 'z', 'a'];0;[0.9470128999091685, 1.0815564999356866, 1.4827541997656226, 1.6408127998001873];taza;C:\2023\REPSWITCH21092023\REPSWITCH_excgange\REPSWITCH_excgange\data/330101_REPSWITCH1_version1_list1_2023-12-11_16h27.05.564_micRespv1l1_recorded\recording_micRespv1l1_2023-12-11_16h34.25.014.wav;445.7644216;446.2644895;None;445.7644216;445.7644216;445.7644216;445.7644216;445.7644216;445.7644216;;;;;;330101;1;2023-12-11_16h27.05.564;REPSWITCH1_version1_list1;2022.2.4;143.924446;
REPSWITCH1/PICTURE_235.png;aguja;speak;gold;filler;2;F;4;1;1;1;Stim4_Set3;0;None;89;88;89;0;88;88;88;;;;;;;;;;;;;;;;;;;;;;;446.2644895;447.2993718;447.2993718;447.2993718;447.2993718;447.2993718;447.2993718;447.2993718;447.2993718;None;0;;;C:\2023\REPSWITCH21092023\REPSWITCH_excgange\REPSWITCH_excgange\data/330101_REPSWITCH1_version1_list1_2023-12-11_16h27.05.564_micRespv1l1_recorded\recording_micRespv1l1_2023-12-11_16h34.29.571.wav;450.3275459;;None;450.3275459;450.3275459;450.3275459;450.3275459;450.3275459;450.3275459;;;;;;330101;1;2023-12-11_16h27.05.564;REPSWITCH1_version1_list1;2022.2.4;143.924446;
REPSWITCH1/PICTURE_35.png;oreja;type;darkblue;filler;1;F;4;1;1;1;Stim5_Set3;0;None;90;89;90;0;89;89;89;;;;;;;;;;;;;;;;;;;;;;;450.8276778;451.9111403;451.9111403;451.9111403;451.9111403;451.9111403;451.9111403;451.9111403;451.9111403;['o', 'r', 'e', 'j', 'a'];0;[1.1068989001214504, 1.210832200013101, 1.2566740000620484, 1.440064299851656, 1.554412200115621];oreja;C:\2023\REPSWITCH21092023\REPSWITCH_excgange\REPSWITCH_excgange\data/330101_REPSWITCH1_version1_list1_2023-12-11_16h27.05.564_micRespv1l1_recorded\recording_micRespv1l1_2023-12-11_16h34.34.183.wav;454.9322987;455.432354;None;454.9322987;454.9322987;454.9322987;454.9322987;454.9322987;454.9322987;;;;;;330101;1;2023-12-11_16h27.05.564;REPSWITCH1_version1_list1;2022.2.4;143.924446;
REPSWITCH1/PICTURE_687.png;camisa;type;darkblue;nontarget;1;NT;4;1;1;1;Stim5_Set4;1;repeat;91;90;91;0;90;90;90;;;;;;;;;;;;;;;;;;;;;;;455.432354;456.515914;456.515914;456.515914;456.515914;456.515914;456.515914;456.515914;456.515914;['c', 'a', 'm', 'i', 's', 'a'];0;[0.928857299964875, 1.032222299836576, 1.2039815997704864, 1.2658216999843717, 1.4262127997353673, 1.7024520998820662];camisa;C:\2023\REPSWITCH21092023\REPSWITCH_excgange\REPSWITCH_excgange\data/330101_REPSWITCH1_version1_list1_2023-12-11_16h27.05.564_micRespv1l1_recorded\recording_micRespv1l1_2023-12-11_16h34.38.787.wav;459.5370724;460.0371588;None;459.5370724;459.5370724;459.5370724;459.5370724;459.5370724;459.5370724;;;;;;330101;1;2023-12-11_16h27.05.564;REPSWITCH1_version1_list1;2022.2.4;143.924446;
REPSWITCH1/PICTURE_687.png;camisa;speak;gold;switch;2;T;4;1;1;1;Stim5_Set4;0;None;92;91;92;0;91;91;91;;;;;;;;;;;;;;;;;;;;;;;460.0371588;461.0997804;461.0997804;461.0997804;461.0997804;461.0997804;461.0997804;461.0997804;461.0997804;None;0;;;C:\2023\REPSWITCH21092023\REPSWITCH_excgange\REPSWITCH_excgange\data/330101_REPSWITCH1_version1_list1_2023-12-11_16h27.05.564_micRespv1l1_recorded\recording_micRespv1l1_2023-12-11_16h34.43.371.wav;464.1209831;464.6210763;None;464.1209831;464.1209831;464.1209831;464.1209831;464.1209831;464.1209831;;;;;;330101;1;2023-12-11_16h27.05.564;REPSWITCH1_version1_list1;2022.2.4;143.924446;
REPSWITCH1/PICTURE_338.png;regalo;speak;gold;nontarget;2;NT;4;1;1;1;Stim6_Set4;0;None;93;92;93;0;92;92;92;;;;;;;;;;;;;;;;;;;;;;;464.6210763;465.6976089;465.6976089;465.6976089;465.6976089;465.6976089;465.6976089;465.6976089;465.6976089;None;0;;;C:\2023\REPSWITCH21092023\REPSWITCH_excgange\REPSWITCH_excgange\data/330101_REPSWITCH1_version1_list1_2023-12-11_16h27.05.564_micRespv1l1_recorded\recording_micRespv1l1_2023-12-11_16h34.47.968.wav;468.7188554;469.2189122;None;468.7188554;468.7188554;468.7188554;468.7188554;468.7188554;468.7188554;;;;;;330101;1;2023-12-11_16h27.05.564;REPSWITCH1_version1_list1;2022.2.4;143.924446;
REPSWITCH1/PICTURE_338.png;regalo;speak;gold;repeat;2;T;4;1;1;1;Stim6_Set4;0;None;94;93;94;0;93;93;93;;;;;;;;;;;;;;;;;;;;;;;469.2189122;470.2677216;470.2677216;470.2677216;470.2677216;470.2677216;470.2677216;470.2677216;470.2677216;None;0;;;C:\2023\REPSWITCH21092023\REPSWITCH_excgange\REPSWITCH_excgange\data/330101_REPSWITCH1_version1_list1_2023-12-11_16h27.05.564_micRespv1l1_recorded\recording_micRespv1l1_2023-12-11_16h34.52.538.wav;473.2888968;473.7889595;None;473.2888968;473.2888968;473.2888968;473.2888968;473.2888968;473.2888968;;;;;;330101;1;2023-12-11_16h27.05.564;REPSWITCH1_version1_list1;2022.2.4;143.924446;
REPSWITCH1/PICTURE_663.png;columna;type;darkblue;filler;1;F;4;1;1;1;Extra6;0;None;95;94;95;0;94;94;94;;;;;;;;;;;;;;;;;;;;;;;473.7889595;474.8029694;474.8029694;474.8029694;474.8029694;474.8029694;474.8029694;474.8029694;474.8029694;['c', 'o', 'l', 'u', 'm', 'n', 'a'];0;[0.956213700119406, 1.1050073998048902, 1.3292467999272048, 1.5787793998606503, 1.853847799822688, 1.9914711997844279, 2.1172778997570276];columna;C:\2023\REPSWITCH21092023\REPSWITCH_excgange\REPSWITCH_excgange\data/330101_REPSWITCH1_version1_list1_2023-12-11_16h27.05.564_micRespv1l1_recorded\recording_micRespv1l1_2023-12-11_16h34.57.073.wav;477.8242111;478.3242511;None;477.8242111;477.8242111;477.8242111;477.8242111;477.8242111;477.8242111;;;;;;330101;1;2023-12-11_16h27.05.564;REPSWITCH1_version1_list1;2022.2.4;143.924446;
REPSWITCH1/PICTURE_271.png;conejo;speak;gold;filler;2;F;4;1;1;1;Stim7_Set3;0;None;96;95;96;0;95;95;95;;;;;;;;;;;;;;;;;;;;;;;478.3242511;479.4008506;479.4008506;479.4008506;479.4008506;479.4008506;479.4008506;479.4008506;479.4008506;None;0;;;C:\2023\REPSWITCH21092023\REPSWITCH_excgange\REPSWITCH_excgange\data/330101_REPSWITCH1_version1_list1_2023-12-11_16h27.05.564_micRespv1l1_recorded\recording_micRespv1l1_2023-12-11_16h35.01.673.wav;482.428987;;None;482.428987;482.428987;482.428987;482.428987;482.428987;482.428987;;;;;;330101;1;2023-12-11_16h27.05.564;REPSWITCH1_version1_list1;2022.2.4;143.924446;
REPSWITCH1/PICTURE_48.png;bombero;speak;gold;nontarget;2;NT;4;1;1;1;Stim7_Set4;0;None;97;96;97;0;96;96;96;;;;;;;;;;;;;;;;;;;;;;;482.9290467;483.9361163;483.9361163;483.9361163;483.9361163;483.9361163;483.9361163;483.9361163;483.9361163;None;0;;;C:\2023\REPSWITCH21092023\REPSWITCH_excgange\REPSWITCH_excgange\data/330101_REPSWITCH1_version1_list1_2023-12-11_16h27.05.564_micRespv1l1_recorded\recording_micRespv1l1_2023-12-11_16h35.06.208.wav;486.9642719;;None;486.9642719;486.9642719;486.9642719;486.9642719;486.9642719;486.9642719;;;;;;330101;1;2023-12-11_16h27.05.564;REPSWITCH1_version1_list1;2022.2.4;143.924446;
REPSWITCH1/PICTURE_48.png;bombero;type;darkblue;switch;1;T;4;1;1;1;Stim7_Set4;0;None;98;97;98;0;97;97;97;;;;;;;;;;;;;;;;;;;;;;;487.4643401;488.5548599;488.5548599;488.5548599;488.5548599;488.5548599;488.5548599;488.5548599;488.5548599;['b', 'o', 'm', 'b', 'e', 'r', 'o'];0;[0.9953784001991153, 1.1130959000438452, 1.234678600449115, 1.3672928004525602, 1.6080738003365695, 1.6937855002470315, 1.8482623002491891];bombero;C:\2023\REPSWITCH21092023\REPSWITCH_excgange\REPSWITCH_excgange\data/330101_REPSWITCH1_version1_list1_2023-12-11_16h27.05.564_micRespv1l1_recorded\recording_micRespv1l1_2023-12-11_16h35.10.826.wav;491.5760101;492.0760831;None;491.5760101;491.5760101;491.5760101;491.5760101;491.5760101;491.5760101;;;;;;330101;1;2023-12-11_16h27.05.564;REPSWITCH1_version1_list1;2022.2.4;143.924446;
REPSWITCH1/PICTURE_728.png;pulpo;type;darkblue;nontarget;1;NT;4;1;1;1;Stim8_Set4;0;None;99;98;99;0;98;98;98;;;;;;;;;;;;;;;;;;;;;;;492.0760831;493.1178771;493.1178771;493.1178771;493.1178771;493.1178771;493.1178771;493.1178771;493.1178771;['p', 'u', 'l', 'p', 'o'];0;[0.9092465001158416, 1.1009111003950238, 1.3968935003504157, 1.6671391003765166, 1.866742200218141];pulpo;C:\2023\REPSWITCH21092023\REPSWITCH_excgange\REPSWITCH_excgange\data/330101_REPSWITCH1_version1_list1_2023-12-11_16h27.05.564_micRespv1l1_recorded\recording_micRespv1l1_2023-12-11_16h35.15.389.wav;496.1391273;496.6391836;None;496.1391273;496.1391273;496.1391273;496.1391273;496.1391273;496.1391273;;;;;;330101;1;2023-12-11_16h27.05.564;REPSWITCH1_version1_list1;2022.2.4;143.924446;
REPSWITCH1/PICTURE_728.png;pulpo;type;darkblue;repeat;1;T;4;1;1;1;Stim8_Set4;0;None;100;99;100;0;99;99;99;;;;;;;;;;;;;;;;;;;;;;;496.6391836;497.7504829;497.7504829;497.7504829;497.7504829;497.7504829;497.7504829;497.7504829;497.7504829;['p', 'u', 'l', 'p', 'o'];0;[0.8597379000857472, 1.0291736000217497, 1.3690919000655413, 1.4776696003973484, 1.6092300000600517];pulpo;C:\2023\REPSWITCH21092023\REPSWITCH_excgange\REPSWITCH_excgange\data/330101_REPSWITCH1_version1_list1_2023-12-11_16h27.05.564_micRespv1l1_recorded\recording_micRespv1l1_2023-12-11_16h35.20.022.wav;500.7716532;501.2717215;None;500.7716532;500.7716532;500.7716532;500.7716532;500.7716532;500.7716532;;;;;;330101;1;2023-12-11_16h27.05.564;REPSWITCH1_version1_list1;2022.2.4;143.924446;
REPSWITCH1/PICTURE_320.png;iglesia;speak;gold;filler;1;F;4;1;1;1;Stim8_Set3;0;None;101;100;101;0;100;100;100;;;;;;;;;;;;;;;;;;;;;;;501.2717215;502.4107499;502.4107499;502.4107499;502.4107499;502.4107499;502.4107499;502.4107499;502.4107499;None;0;;;C:\2023\REPSWITCH21092023\REPSWITCH_excgange\REPSWITCH_excgange\data/330101_REPSWITCH1_version1_list1_2023-12-11_16h27.05.564_micRespv1l1_recorded\recording_micRespv1l1_2023-12-11_16h35.24.682.wav;505.4320152;505.9320666;None;505.4320152;505.4320152;505.4320152;505.4320152;505.4320152;505.4320152;;;;;;330101;1;2023-12-11_16h27.05.564;REPSWITCH1_version1_list1;2022.2.4;143.924446;
REPSWITCH1/PICTURE_464.png;goma;type;darkblue;filler;1;F;4;1;1;1;Stim6_Set3;0;None;102;101;102;0;101;101;101;;;;;;;;;;;;;;;;;;;;;;;505.9320666;507.0780453;507.0780453;507.0780453;507.0780453;507.0780453;507.0780453;507.0780453;507.0780453;['g', 'o', 'm', 'a'];0;[0.9431178001686931, 1.0661748005077243, 1.1942321001552045, 1.2918698000721633];goma;C:\2023\REPSWITCH21092023\REPSWITCH_excgange\REPSWITCH_excgange\data/330101_REPSWITCH1_version1_list1_2023-12-11_16h27.05.564_micRespv1l1_recorded\recording_micRespv1l1_2023-12-11_16h35.29.349.wav;510.0993177;510.5993133;space;510.0993177;510.0993177;510.0993177;510.0993177;510.0993177;510.0993177;510.5993133;510.5993133;10.637699;;;330101;1;2023-12-11_16h27.05.564;REPSWITCH1_version1_list1;2022.2.4;143.924446;
REPSWITCH1/PICTURE_663.png;columna;type;darkblue;filler;1;F;1;2;1;1;Extra6;0;None;103;102;1;0;102;102;102;;;;;;;;;;;;;;;;;;;;;;;521.2465759;522.323089;522.323089;522.323089;522.323089;522.323089;522.323089;522.323089;522.323089;['c', 'o', 'l', 'u', 'm', 'n', 'a'];0;[0.7428191001527011, 0.8846485000103712, 1.1288283001631498, 1.3083143001422286, 1.6013108002953231, 1.8431997001171112, 1.9259240999817848];columna;C:\2023\REPSWITCH21092023\REPSWITCH_excgange\REPSWITCH_excgange\data/330101_REPSWITCH1_version1_list1_2023-12-11_16h27.05.564_micRespv1l1_recorded\recording_micRespv1l1_2023-12-11_16h35.44.595.wav;525.344317;525.8443781;None;525.344317;525.344317;525.344317;525.344317;525.344317;525.344317;;;;;;330101;1;2023-12-11_16h27.05.564;REPSWITCH1_version1_list1;2022.2.4;143.924446;
REPSWITCH1/PICTURE_128.png;muñeca;speak;gold;nontarget;2;NT;1;2;1;1;Stim4_Set1;1;switch;104;103;2;0;103;103;103;;;;;;;;;;;;;;;;;;;;;;;525.8443781;526.976507;526.976507;526.976507;526.976507;526.976507;526.976507;526.976507;526.976507;None;0;;;C:\2023\REPSWITCH21092023\REPSWITCH_excgange\REPSWITCH_excgange\data/330101_REPSWITCH1_version1_list1_2023-12-11_16h27.05.564_micRespv1l1_recorded\recording_micRespv1l1_2023-12-11_16h35.49.249.wav;530.0046574;;None;530.0046574;530.0046574;530.0046574;530.0046574;530.0046574;530.0046574;;;;;;330101;1;2023-12-11_16h27.05.564;REPSWITCH1_version1_list1;2022.2.4;143.924446;
REPSWITCH1/PICTURE_128.png;muñeca;speak;gold;repeat;2;T;1;2;1;1;Stim4_Set1;0;None;105;104;3;0;104;104;104;;;;;;;;;;;;;;;;;;;;;;;530.5048127;531.7340486;531.7340486;531.7340486;531.7340486;531.7340486;531.7340486;531.7340486;531.7340486;None;0;;;C:\2023\REPSWITCH21092023\REPSWITCH_excgange\REPSWITCH_excgange\data/330101_REPSWITCH1_version1_list1_2023-12-11_16h27.05.564_micRespv1l1_recorded\recording_micRespv1l1_2023-12-11_16h35.54.006.wav;534.7622855;;None;534.7622855;534.7622855;534.7622855;534.7622855;534.7622855;534.7622855;;;;;;330101;1;2023-12-11_16h27.05.564;REPSWITCH1_version1_list1;2022.2.4;143.924446;
REPSWITCH1/PICTURE_8.png;pierna;type;darkblue;filler;1;F;1;2;1;1;Stim3_Set4;0;None;106;105;4;0;105;105;105;;;;;;;;;;;;;;;;;;;;;;;535.2622824;536.4082728;536.4082728;536.4082728;536.4082728;536.4082728;536.4082728;536.4082728;536.4082728;['p', 'i', 'e', 'r', 'n', 'a'];0;[0.9114532000385225, 1.0459821000695229, 1.1376189002767205, 1.2323016999289393, 1.4186905003152788, 1.5752083999104798];pierna;C:\2023\REPSWITCH21092023\REPSWITCH_excgange\REPSWITCH_excgange\data/330101_REPSWITCH1_version1_list1_2023-12-11_16h27.05.564_micRespv1l1_recorded\recording_micRespv1l1_2023-12-11_16h35.58.680.wav;539.4294988;539.9295875;None;539.4294988;539.4294988;539.4294988;539.4294988;539.4294988;539.4294988;;;;;;330101;1;2023-12-11_16h27.05.564;REPSWITCH1_version1_list1;2022.2.4;143.924446;
REPSWITCH1/PICTURE_135.png;traje;speak;gold;nontarget;2;NT;1;2;1;1;Stim3_Set1;1;switch;107;106;5;0;106;106;106;;;;;;;;;;;;;;;;;;;;;;;539.9295875;541.0061105;541.0061105;541.0061105;541.0061105;541.0061105;541.0061105;541.0061105;541.0061105;None;0;;;C:\2023\REPSWITCH21092023\REPSWITCH_excgange\REPSWITCH_excgange\data/330101_REPSWITCH1_version1_list1_2023-12-11_16h27.05.564_micRespv1l1_recorded\recording_micRespv1l1_2023-12-11_16h36.03.278.wav;544.0342658;;None;544.0342658;544.0342658;544.0342658;544.0342658;544.0342658;544.0342658;;;;;;330101;1;2023-12-11_16h27.05.564;REPSWITCH1_version1_list1;2022.2.4;143.924446;
REPSWITCH1/PICTURE_135.png;traje;speak;gold;repeat;2;T;1;2;1;1;Stim3_Set1;0;None;108;107;6;0;107;107;107;;;;;;;;;;;;;;;;;;;;;;;544.5343359;545.6386888;545.6386888;545.6386888;545.6386888;545.6386888;545.6386888;545.6386888;545.6386888;None;0;;;C:\2023\REPSWITCH21092023\REPSWITCH_excgange\REPSWITCH_excgange\data/330101_REPSWITCH1_version1_list1_2023-12-11_16h27.05.564_micRespv1l1_recorded\recording_micRespv1l1_2023-12-11_16h36.07.910.wav;548.6599029;549.1600407;None;548.6599029;548.6599029;548.6599029;548.6599029;548.6599029;548.6599029;;;;;;330101;1;2023-12-11_16h27.05.564;REPSWITCH1_version1_list1;2022.2.4;143.924446;
REPSWITCH1/PICTURE_673.png;tenedor;type;darkblue;filler;1;F;1;2;1;1;Extra5;0;None;109;108;7;0;108;108;108;;;;;;;;;;;;;;;;;;;;;;;549.1600407;550.1809975;550.1809975;550.1809975;550.1809975;550.1809975;550.1809975;550.1809975;550.1809975;['t', 'e', 'n', 'e', 'd', 'o', 'r'];0;[1.1425130004063249, 1.2262309002690017, 1.3856974001973867, 1.5013442002236843, 1.6572520001791418, 1.727886600419879, 1.8584132003597915];tenedor;C:\2023\REPSWITCH21092023\REPSWITCH_excgange\REPSWITCH_excgange\data/330101_REPSWITCH1_version1_list1_2023-12-11_16h27.05.564_micRespv1l1_recorded\recording_micRespv1l1_2023-12-11_16h36.12.452.wav;553.2022365;553.7022074;None;553.2022365;553.2022365;553.2022365;553.2022365;553.2022365;553.2022365;;;;;;330101;1;2023-12-11_16h27.05.564;REPSWITCH1_version1_list1;2022.2.4;143.924446;
REPSWITCH1/PICTURE_728.png;pulpo;speak;gold;filler;2;F;1;2;1;1;Stim8_Set4;0;None;110;109;8;0;109;109;109;;;;;;;;;;;;;;;;;;;;;;;553.7022074;554.7718389;554.7718389;554.7718389;554.7718389;554.7718389;554.7718389;554.7718389;554.7718389;None;0;;;C:\2023\REPSWITCH21092023\REPSWITCH_excgange\REPSWITCH_excgange\data/330101_REPSWITCH1_version1_list1_2023-12-11_16h27.05.564_micRespv1l1_recorded\recording_micRespv1l1_2023-12-11_16h36.17.043.wav;557.7999914;;None;557.7999914;557.7999914;557.7999914;557.7999914;557.7999914;557.7999914;;;;;;330101;1;2023-12-11_16h27.05.564;REPSWITCH1_version1_list1;2022.2.4;143.924446;
REPSWITCH1/PICTURE_16.png;cazador;speak;gold;nontarget;2;NT;1;2;1;1;Stim6_Set1;1;repeat;111;110;9;0;110;110;110;;;;;;;;;;;;;;;;;;;;;;;558.3000562;559.4043539;559.4043539;559.4043539;559.4043539;559.4043539;559.4043539;559.4043539;559.4043539;None;0;;;C:\2023\REPSWITCH21092023\REPSWITCH_excgange\REPSWITCH_excgange\data/330101_REPSWITCH1_version1_list1_2023-12-11_16h27.05.564_micRespv1l1_recorded\recording_micRespv1l1_2023-12-11_16h36.21.676.wav;562.4256761;562.9256639;None;562.4256761;562.4256761;562.4256761;562.4256761;562.4256761;562.4256761;;;;;;330101;1;2023-12-11_16h27.05.564;REPSWITCH1_version1_list1;2022.2.4;143.924446;
REPSWITCH1/PICTURE_16.png;cazador;type;darkblue;switch;1;T;1;2;1;1;Stim6_Set1;0;None;112;111;10;0;111;111;111;;;;;;;;;;;;;;;;;;;;;;;562.9256639;563.9535601;563.9535601;563.9535601;563.9535601;563.9535601;563.9535601;563.9535601;563.9535601;['c', 'a', 'z', 'a', 'd', 'o', 'r'];0;[0.7961957002989948, 0.9018352003768086, 1.2811625003814697, 1.6822118000127375, 1.8206528001464903, 1.9640087001025677, 2.0757113001309335];cazador;C:\2023\REPSWITCH21092023\REPSWITCH_excgange\REPSWITCH_excgange\data/330101_REPSWITCH1_version1_list1_2023-12-11_16h27.05.564_micRespv1l1_recorded\recording_micRespv1l1_2023-12-11_16h36.26.225.wav;566.9818179;;None;566.9818179;566.9818179;566.9818179;566.9818179;566.9818179;566.9818179;;;;;;330101;1;2023-12-11_16h27.05.564;REPSWITCH1_version1_list1;2022.2.4;143.924446;
REPSWITCH1/PICTURE_498.png;taza;type;darkblue;filler;1;F;1;2;1;1;Stim4_Set4;1;repeat;113;112;11;0;112;112;112;;;;;;;;;;;;;;;;;;;;;;;567.4818195;568.5444539;568.5444539;568.5444539;568.5444539;568.5444539;568.5444539;568.5444539;568.5444539;['t', 'a', 'z', 'a'];0;[0.8379866001196206, 0.886752299964428, 1.4371205000206828, 1.6049903999082744];taza;C:\2023\REPSWITCH21092023\REPSWITCH_excgange\REPSWITCH_excgange\data/330101_REPSWITCH1_version1_list1_2023-12-11_16h27.05.564_micRespv1l1_recorded\recording_micRespv1l1_2023-12-11_16h36.30.816.wav;571.5656959;572.0657551;None;571.5656959;571.5656959;571.5656959;571.5656959;571.5656959;571.5656959;;;;;;330101;1;2023-12-11_16h27.05.564;REPSWITCH1_version1_list1;2022.2.4;143.924446;
REPSWITCH1/PICTURE_381.png;fresa;type;darkblue;nontarget;1;NT;1;2;1;1;Stim2_Set1;1;repeat;114;113;12;0;113;113;113;;;;;;;;;;;;;;;;;;;;;;;572.0657551;573.0937058;573.0937058;573.0937058;573.0937058;573.0937058;573.0937058;573.0937058;573.0937058;['f', 'r', 'e', 's', 'a'];0;[0.9404139001853764, 1.1287431004457176, 1.3089552000164986, 1.576825600117445, 1.6935247001238167];fresa;C:\2023\REPSWITCH21092023\REPSWITCH_excgange\REPSWITCH_excgange\data/330101_REPSWITCH1_version1_list1_2023-12-11_16h27.05.564_micRespv1l1_recorded\recording_micRespv1l1_2023-12-11_16h36.35.365.wav;576.1219103;;None;576.1219103;576.1219103;576.1219103;576.1219103;576.1219103;576.1219103;;;;;;330101;1;2023-12-11_16h27.05.564;REPSWITCH1_version1_list1;2022.2.4;143.924446;
REPSWITCH1/PICTURE_381.png;fresa;speak;gold;switch;2;T;1;2;1;1;Stim2_Set1;0;None;115;114;13;0;114;114;114;;;;;;;;;;;;;;;;;;;;;;;576.6219143;577.6637314;577.6637314;577.6637314;577.6637314;577.6637314;577.6637314;577.6637314;577.6637314;None;0;;;C:\2023\REPSWITCH21092023\REPSWITCH_excgange\REPSWITCH_excgange\data/330101_REPSWITCH1_version1_list1_2023-12-11_16h27.05.564_micRespv1l1_recorded\recording_micRespv1l1_2023-12-11_16h36.39.936.wav;580.6919408;;None;580.6919408;580.6919408;580.6919408;580.6919408;580.6919408;580.6919408;;;;;;330101;1;2023-12-11_16h27.05.564;REPSWITCH1_version1_list1;2022.2.4;143.924446;
REPSWITCH1/PICTURE_178.png;puente;speak;gold;nontarget;2;NT;1;2;1;1;Stim1_Set1;0;None;116;115;14;0;115;115;115;;;;;;;;;;;;;;;;;;;;;;;581.1919538;582.2546061;582.2546061;582.2546061;582.2546061;582.2546061;582.2546061;582.2546061;582.2546061;None;0;;;C:\2023\REPSWITCH21092023\REPSWITCH_excgange\REPSWITCH_excgange\data/330101_REPSWITCH1_version1_list1_2023-12-11_16h27.05.564_micRespv1l1_recorded\recording_micRespv1l1_2023-12-11_16h36.44.526.wav;585.2758921;585.7758934;None;585.2758921;585.2758921;585.2758921;585.2758921;585.2758921;585.2758921;;;;;;330101;1;2023-12-11_16h27.05.564;REPSWITCH1_version1_list1;2022.2.4;143.924446;
REPSWITCH1/PICTURE_178.png;puente;type;darkblue;switch;1;T;1;2;1;1;Stim1_Set1;0;None;117;116;15;0;116;116;116;;;;;;;;;;;;;;;;;;;;;;;585.7758934;586.9080568;586.9080568;586.9080568;586.9080568;586.9080568;586.9080568;586.9080568;586.9080568;['p', 'u', 'n', 'e', 't', 'e', 'backspace', 'backspace', 'backspace'];0;[1.5439732004888356, 1.847760600503534, 1.9905782002024353, 1.9998070001602173, 2.1771494005806744, 2.330251100473106, 2.614402800332755, 2.771818700246513, 2.908360200468451];pun;C:\2023\REPSWITCH21092023\REPSWITCH_excgange\REPSWITCH_excgange\data/330101_REPSWITCH1_version1_list1_2023-12-11_16h27.05.564_micRespv1l1_recorded\recording_micRespv1l1_2023-12-11_16h36.49.179.wav;589.929194;590.4292528;None;589.929194;589.929194;589.929194;589.929194;589.929194;589.929194;;;;;;330101;1;2023-12-11_16h27.05.564;REPSWITCH1_version1_list1;2022.2.4;143.924446;
REPSWITCH1/PICTURE_719.png;baño;speak;gold;filler;2;F;1;2;1;1;Stim2_Set4;0;None;118;117;16;0;117;117;117;;;;;;;;;;;;;;;;;;;;;;;590.4292528;591.5822238;591.5822238;591.5822238;591.5822238;591.5822238;591.5822238;591.5822238;591.5822238;None;0;;;C:\2023\REPSWITCH21092023\REPSWITCH_excgange\REPSWITCH_excgange\data/330101_REPSWITCH1_version1_list1_2023-12-11_16h27.05.564_micRespv1l1_recorded\recording_micRespv1l1_2023-12-11_16h36.53.854.wav;594.6103418;;None;594.6103418;594.6103418;594.6103418;594.6103418;594.6103418;594.6103418;;;;;;330101;1;2023-12-11_16h27.05.564;REPSWITCH1_version1_list1;2022.2.4;143.924446;
REPSWITCH1/PICTURE_169.png;espalda;type;darkblue;nontarget;1;NT;1;2;1;1;Stim8_Set1;1;switch;119;118;17;0;118;118;118;;;;;;;;;;;;;;;;;;;;;;;595.1104333;596.2911794;596.2911794;596.2911794;596.2911794;596.2911794;596.2911794;596.2911794;596.2911794;['e', 's', 'p', 'a', 'l', 'ñ', 'backspace', 'd', 'a'];0;[1.1760955001227558, 1.3694471004419029, 1.4690732001326978, 1.6197994002141058, 1.7688382002525032, 1.7718377001583576, 2.2120498004369438, 2.4087132001295686, 2.459530200343579];espalda;C:\2023\REPSWITCH21092023\REPSWITCH_excgange\REPSWITCH_excgange\data/330101_REPSWITCH1_version1_list1_2023-12-11_16h27.05.564_micRespv1l1_recorded\recording_micRespv1l1_2023-12-11_16h36.58.562.wav;599.3123667;599.8124533;None;599.3123667;599.3123667;599.3123667;599.3123667;599.3123667;599.3123667;;;;;;330101;1;2023-12-11_16h27.05.564;REPSWITCH1_version1_list1;2022.2.4;143.924446;
REPSWITCH1/PICTURE_169.png;espalda;type;darkblue;repeat;1;T;1;2;1;1;Stim8_Set1;0;None;120;119;18;0;119;119;119;;;;;;;;;;;;;;;;;;;;;;;599.8124533;600.9028906;600.9028906;600.9028906;600.9028906;600.9028906;600.9028906;600.9028906;600.9028906;['e', 's', 'p', 'a', 'l', 'd', 'a'];0;[0.8577347001992166, 1.051281000021845, 1.1959052002057433, 1.331411600112915, 1.4419116000644863, 1.5724410000257194, 1.668131799902767];espalda;C:\2023\REPSWITCH21092023\REPSWITCH_excgange\REPSWITCH_excgange\data/330101_REPSWITCH1_version1_list1_2023-12-11_16h27.05.564_micRespv1l1_recorded\recording_micRespv1l1_2023-12-11_16h37.03.175.wav;603.9310244;;None;603.9310244;603.9310244;603.9310244;603.9310244;603.9310244;603.9310244;;;;;;330101;1;2023-12-11_16h27.05.564;REPSWITCH1_version1_list1;2022.2.4;143.924446;
REPSWITCH1/PICTURE_48.png;bombero;speak;gold;filler;2;F;1;2;1;1;Stim7_Set4;1;switch;121;120;19;0;120;120;120;;;;;;;;;;;;;;;;;;;;;;;604.4311215;605.5492986;605.5492986;605.5492986;605.5492986;605.5492986;605.5492986;605.5492986;605.5492986;None;0;;;C:\2023\REPSWITCH21092023\REPSWITCH_excgange\REPSWITCH_excgange\data/330101_REPSWITCH1_version1_list1_2023-12-11_16h27.05.564_micRespv1l1_recorded\recording_micRespv1l1_2023-12-11_16h37.07.821.wav;608.5705141;609.0706156;None;608.5705141;608.5705141;608.5705141;608.5705141;608.5705141;608.5705141;;;;;;330101;1;2023-12-11_16h27.05.564;REPSWITCH1_version1_list1;2022.2.4;143.924446;
REPSWITCH1/PICTURE_19.png;pavo;type;darkblue;nontarget;1;NT;1;2;1;1;Stim5_Set1;1;switch;122;121;20;0;121;121;121;;;;;;;;;;;;;;;;;;;;;;;609.0706156;610.2652078;610.2652078;610.2652078;610.2652078;610.2652078;610.2652078;610.2652078;610.2652078;['p', 'a', 'v', 'o'];0;[1.04513720003888, 1.136765300296247, 1.2493838001973927, 1.3476736000739038];pavo;C:\2023\REPSWITCH21092023\REPSWITCH_excgange\REPSWITCH_excgange\data/330101_REPSWITCH1_version1_list1_2023-12-11_16h27.05.564_micRespv1l1_recorded\recording_micRespv1l1_2023-12-11_16h37.12.537.wav;613.2933858;;None;613.2933858;613.2933858;613.2933858;613.2933858;613.2933858;613.2933858;;;;;;330101;1;2023-12-11_16h27.05.564;REPSWITCH1_version1_list1;2022.2.4;143.924446;
REPSWITCH1/PICTURE_19.png;pavo;type;darkblue;repeat;1;T;1;2;1;1;Stim5_Set1;0;None;123;122;21;0;122;122;122;;;;;;;;;;;;;;;;;;;;;;;613.7934582;614.904724;614.904724;614.904724;614.904724;614.904724;614.904724;614.904724;614.904724;['p', 'a', 'v', 'o'];0;[0.8701142999343574, 0.9667817000299692, 1.0804680003784597, 1.20004600007087];pavo;C:\2023\REPSWITCH21092023\REPSWITCH_excgange\REPSWITCH_excgange\data/330101_REPSWITCH1_version1_list1_2023-12-11_16h27.05.564_micRespv1l1_recorded\recording_micRespv1l1_2023-12-11_16h37.17.176.wav;617.9259092;618.4260176;None;617.9259092;617.9259092;617.9259092;617.9259092;617.9259092;617.9259092;;;;;;330101;1;2023-12-11_16h27.05.564;REPSWITCH1_version1_list1;2022.2.4;143.924446;
REPSWITCH1/PICTURE_319.png;vaca;speak;gold;filler;2;F;1;2;1;1;Stim1_Set4;0;None;124;123;22;0;123;123;123;;;;;;;;;;;;;;;;;;;;;;;618.4260176;619.6066961;619.6066961;619.6066961;619.6066961;619.6066961;619.6066961;619.6066961;619.6066961;None;0;;;C:\2023\REPSWITCH21092023\REPSWITCH_excgange\REPSWITCH_excgange\data/330101_REPSWITCH1_version1_list1_2023-12-11_16h27.05.564_micRespv1l1_recorded\recording_micRespv1l1_2023-12-11_16h37.21.878.wav;622.6349611;;None;622.6349611;622.6349611;622.6349611;622.6349611;622.6349611;622.6349611;;;;;;330101;1;2023-12-11_16h27.05.564;REPSWITCH1_version1_list1;2022.2.4;143.924446;
REPSWITCH1/PICTURE_338.png;regalo;type;darkblue;filler;1;F;1;2;1;1;Stim6_Set4;0;None;125;124;23;0;124;124;124;;;;;;;;;;;;;;;;;;;;;;;623.1349671;624.1976047;624.1976047;624.1976047;624.1976047;624.1976047;624.1976047;624.1976047;624.1976047;['r', 'e', 'g', 'a', 'l', 'o'];0;[0.8703710003755987, 0.9540881002321839, 1.2550376001745462, 1.371645400300622, 1.5813082004897296, 1.8136133002117276];regalo;C:\2023\REPSWITCH21092023\REPSWITCH_excgange\REPSWITCH_excgange\data/330101_REPSWITCH1_version1_list1_2023-12-11_16h27.05.564_micRespv1l1_recorded\recording_micRespv1l1_2023-12-11_16h37.26.468.wav;627.2189074;627.7189073;None;627.2189074;627.2189074;627.2189074;627.2189074;627.2189074;627.2189074;;;;;;330101;1;2023-12-11_16h27.05.564;REPSWITCH1_version1_list1;2022.2.4;143.924446;
REPSWITCH1/PICTURE_142.png;vaso;type;darkblue;nontarget;1;NT;1;2;1;1;Stim7_Set1;0;None;126;125;24;0;125;125;125;;;;;;;;;;;;;;;;;;;;;;;627.7189073;628.7607074;628.7607074;628.7607074;628.7607074;628.7607074;628.7607074;628.7607074;628.7607074;['v', 'a', 's', 'o'];0;[0.7618888998404145, 0.8488602000288665, 0.9744302998296916, 1.122860100120306];vaso;C:\2023\REPSWITCH21092023\REPSWITCH_excgange\REPSWITCH_excgange\data/330101_REPSWITCH1_version1_list1_2023-12-11_16h27.05.564_micRespv1l1_recorded\recording_micRespv1l1_2023-12-11_16h37.31.033.wav;631.7888717;;None;631.7888717;631.7888717;631.7888717;631.7888717;631.7888717;631.7888717;;;;;;330101;1;2023-12-11_16h27.05.564;REPSWITCH1_version1_list1;2022.2.4;143.924446;
REPSWITCH1/PICTURE_142.png;vaso;speak;gold;switch;2;T;1;2;1;1;Stim7_Set1;0;None;127;126;25;0;126;126;126;;;;;;;;;;;;;;;;;;;;;;;632.2889385;633.4071428;633.4071428;633.4071428;633.4071428;633.4071428;633.4071428;633.4071428;633.4071428;None;0;;;C:\2023\REPSWITCH21092023\REPSWITCH_excgange\REPSWITCH_excgange\data/330101_REPSWITCH1_version1_list1_2023-12-11_16h27.05.564_micRespv1l1_recorded\recording_micRespv1l1_2023-12-11_16h37.35.679.wav;636.4283392;636.9285063;None;636.4283392;636.4283392;636.4283392;636.4283392;636.4283392;636.4283392;;;;;;330101;1;2023-12-11_16h27.05.564;REPSWITCH1_version1_list1;2022.2.4;143.924446;
REPSWITCH1/PICTURE_687.png;camisa;type;darkblue;filler;1;F;1;2;1;1;Stim5_Set4;1;switch;128;127;26;0;127;127;127;;;;;;;;;;;;;;;;;;;;;;;636.9285063;638.0466575;638.0466575;638.0466575;638.0466575;638.0466575;638.0466575;638.0466575;638.0466575;['c', 'a', 'm', 'i', 's', 'a'];0;[0.9808173002675176, 1.0661116000264883, 1.234012400265783, 1.3157108002342284, 1.4712135000154376, 1.822314300108701];camisa;C:\2023\REPSWITCH21092023\REPSWITCH_excgange\REPSWITCH_excgange\data/330101_REPSWITCH1_version1_list1_2023-12-11_16h27.05.564_micRespv1l1_recorded\recording_micRespv1l1_2023-12-11_16h37.40.318.wav;641.0678818;641.5679344;None;641.0678818;641.0678818;641.0678818;641.0678818;641.0678818;641.0678818;;;;;;330101;1;2023-12-11_16h27.05.564;REPSWITCH1_version1_list1;2022.2.4;143.924446;
REPSWITCH1/PICTURE_30.png;granja;type;darkblue;nontarget;1;NT;2;2;1;1;Stim5_Set2;0;None;129;128;27;0;128;128;128;;;;;;;;;;;;;;;;;;;;;;;641.5679344;642.7278295;642.7278295;642.7278295;642.7278295;642.7278295;642.7278295;642.7278295;642.7278295;['g', 'r', 'a', 'n', 'j', 'a'];0;[1.357706899754703, 1.5032200999557972, 1.620779300108552, 1.8987078997306526, 1.9943764000199735, 2.0897868000902236];granja;C:\2023\REPSWITCH21092023\REPSWITCH_excgange\REPSWITCH_excgange\data/330101_REPSWITCH1_version1_list1_2023-12-11_16h27.05.564_micRespv1l1_recorded\recording_micRespv1l1_2023-12-11_16h37.45.000.wav;645.7560059;;None;645.7560059;645.7560059;645.7560059;645.7560059;645.7560059;645.7560059;;;;;;330101;1;2023-12-11_16h27.05.564;REPSWITCH1_version1_list1;2022.2.4;143.924446;
REPSWITCH1/PICTURE_30.png;granja;type;darkblue;repeat;1;T;2;2;1;1;Stim5_Set2;0;None;130;129;28;0;129;129;129;;;;;;;;;;;;;;;;;;;;;;;646.2560563;647.4714842;647.4714842;647.4714842;647.4714842;647.4714842;647.4714842;647.4714842;647.4714842;['g', 'r', 'a', 'n', 'j', 'a'];0;[0.7811897997744381, 0.9097647001035511, 0.9984610001556575, 1.1786074000410736, 1.277284299954772, 1.374676899984479];granja;C:\2023\REPSWITCH21092023\REPSWITCH_excgange\REPSWITCH_excgange\data/330101_REPSWITCH1_version1_list1_2023-12-11_16h27.05.564_micRespv1l1_recorded\recording_micRespv1l1_2023-12-11_16h37.49.744.wav;650.4996899;;None;650.4996899;650.4996899;650.4996899;650.4996899;650.4996899;650.4996899;;;;;;330101;1;2023-12-11_16h27.05.564;REPSWITCH1_version1_list1;2022.2.4;143.924446;
REPSWITCH1/PICTURE_128.png;muñeca;speak;gold;filler;2;F;2;2;1;1;Stim4_Set1;0;None;131;130;29;0;130;130;130;;;;;;;;;;;;;;;;;;;;;;;650.999733;652.0970883;652.0970883;652.0970883;652.0970883;652.0970883;652.0970883;652.0970883;652.0970883;None;0;;;C:\2023\REPSWITCH21092023\REPSWITCH_excgange\REPSWITCH_excgange\data/330101_REPSWITCH1_version1_list1_2023-12-11_16h27.05.564_micRespv1l1_recorded\recording_micRespv1l1_2023-12-11_16h37.54.369.wav;655.125254;;None;655.125254;655.125254;655.125254;655.125254;655.125254;655.125254;;;;;;330101;1;2023-12-11_16h27.05.564;REPSWITCH1_version1_list1;2022.2.4;143.924446;
REPSWITCH1/PICTURE_264.png;mano;type;darkblue;nontarget;1;NT;2;2;1;1;Stim3_Set2;1;switch;132;131;30;0;131;131;131;;;;;;;;;;;;;;;;;;;;;;;655.6253014;656.7436059;656.7436059;656.7436059;656.7436059;656.7436059;656.7436059;656.7436059;656.7436059;['m', 'a', 'n', 'o'];0;[0.8537376997992396, 0.9764049998484552, 1.1009269999340177, 1.2255945997312665];mano;C:\2023\REPSWITCH21092023\REPSWITCH_excgange\REPSWITCH_excgange\data/330101_REPSWITCH1_version1_list1_2023-12-11_16h27.05.564_micRespv1l1_recorded\recording_micRespv1l1_2023-12-11_16h37.59.015.wav;659.7647484;660.2648393;None;659.7647484;659.7647484;659.7647484;659.7647484;659.7647484;659.7647484;;;;;;330101;1;2023-12-11_16h27.05.564;REPSWITCH1_version1_list1;2022.2.4;143.924446;
REPSWITCH1/PICTURE_264.png;mano;type;darkblue;repeat;1;T;2;2;1;1;Stim3_Set2;0;None;133;132;31;0;132;132;132;;;;;;;;;;;;;;;;;;;;;;;660.2648393;661.2719161;661.2719161;661.2719161;661.2719161;661.2719161;661.2719161;661.2719161;661.2719161;['m', 'a', 'n', 'o'];0;[0.8153268001042306, 0.9214086998254061, 1.0549945998936892, 1.1108110998757184];mano;C:\2023\REPSWITCH21092023\REPSWITCH_excgange\REPSWITCH_excgange\data/330101_REPSWITCH1_version1_list1_2023-12-11_16h27.05.564_micRespv1l1_recorded\recording_micRespv1l1_2023-12-11_16h38.03.545.wav;664.300096;;None;664.300096;664.300096;664.300096;664.300096;664.300096;664.300096;;;;;;330101;1;2023-12-11_16h27.05.564;REPSWITCH1_version1_list1;2022.2.4;143.924446;
REPSWITCH1/PICTURE_175.png;pintor;type;darkblue;nontarget;1;NT;2;2;1;1;Stim1_Set2;0;None;134;133;32;0;133;133;133;;;;;;;;;;;;;;;;;;;;;;;664.800216;665.9739896;665.9739896;665.9739896;665.9739896;665.9739896;665.9739896;665.9739896;665.9739896;['p', 'i', 'n', 't', 'o', 'r'];0;[1.0467620003037155, 1.1314561003819108, 1.2679790002293885, 1.3407774004153907, 1.46535520022735, 1.6318448004312813];pintor;C:\2023\REPSWITCH21092023\REPSWITCH_excgange\REPSWITCH_excgange\data/330101_REPSWITCH1_version1_list1_2023-12-11_16h27.05.564_micRespv1l1_recorded\recording_micRespv1l1_2023-12-11_16h38.08.246.wav;668.9951436;669.4951942;None;668.9951436;668.9951436;668.9951436;668.9951436;668.9951436;668.9951436;;;;;;330101;1;2023-12-11_16h27.05.564;REPSWITCH1_version1_list1;2022.2.4;143.924446;
REPSWITCH1/PICTURE_175.png;pintor;speak;gold;switch;2;T;2;2;1;1;Stim1_Set2;0;None;135;134;33;0;134;134;134;;;;;;;;;;;;;;;;;;;;;;;669.4951942;670.6411994;670.6411994;670.6411994;670.6411994;670.6411994;670.6411994;670.6411994;670.6411994;None;0;;;C:\2023\REPSWITCH21092023\REPSWITCH_excgange\REPSWITCH_excgange\data/330101_REPSWITCH1_version1_list1_2023-12-11_16h27.05.564_micRespv1l1_recorded\recording_micRespv1l1_2023-12-11_16h38.12.912.wav;673.6624111;674.1624975;None;673.6624111;673.6624111;673.6624111;673.6624111;673.6624111;673.6624111;;;;;;330101;1;2023-12-11_16h27.05.564;REPSWITCH1_version1_list1;2022.2.4;143.924446;
REPSWITCH1/PICTURE_135.png;traje;speak;gold;filler;2;F;2;2;1;1;Stim3_Set1;1;repeat;136;135;34;0;135;135;135;;;;;;;;;;;;;;;;;;;;;;;674.1624975;675.2946041;675.2946041;675.2946041;675.2946041;675.2946041;675.2946041;675.2946041;675.2946041;None;0;;;C:\2023\REPSWITCH21092023\REPSWITCH_excgange\REPSWITCH_excgange\data/330101_REPSWITCH1_version1_list1_2023-12-11_16h27.05.564_micRespv1l1_recorded\recording_micRespv1l1_2023-12-11_16h38.17.566.wav;678.3158228;678.8158848;None;678.3158228;678.3158228;678.3158228;678.3158228;678.3158228;678.3158228;;;;;;330101;1;2023-12-11_16h27.05.564;REPSWITCH1_version1_list1;2022.2.4;143.924446;
REPSWITCH1/PICTURE_446.png;cerdo;speak;gold;nontarget;2;NT;2;2;1;1;Stim7_Set2;1;repeat;137;136;35;0;136;136;136;;;;;;;;;;;;;;;;;;;;;;;678.8158848;679.941055;679.941055;679.941055;679.941055;679.941055;679.941055;679.941055;679.941055;None;0;;;C:\2023\REPSWITCH21092023\REPSWITCH_excgange\REPSWITCH_excgange\data/330101_REPSWITCH1_version1_list1_2023-12-11_16h27.05.564_micRespv1l1_recorded\recording_micRespv1l1_2023-12-11_16h38.22.213.wav;682.9622687;683.4623778;None;682.9622687;682.9622687;682.9622687;682.9622687;682.9622687;682.9622687;;;;;;330101;1;2023-12-11_16h27.05.564;REPSWITCH1_version1_list1;2022.2.4;143.924446;
REPSWITCH1/PICTURE_446.png;cerdo;type;darkblue;switch;1;T;2;2;1;1;Stim7_Set2;0;None;138;137;36;0;137;137;137;;;;;;;;;;;;;;;;;;;;;;;683.4623778;684.5458265;684.5458265;684.5458265;684.5458265;684.5458265;684.5458265;684.5458265;684.5458265;['c', 'e', 'r', 'd', 'o'];0;[0.7573484997265041, 0.93319489993155, 1.072795500047505, 1.3343398999422789, 1.4582774001173675];cerdo;C:\2023\REPSWITCH21092023\REPSWITCH_excgange\REPSWITCH_excgange\data/330101_REPSWITCH1_version1_list1_2023-12-11_16h27.05.564_micRespv1l1_recorded\recording_micRespv1l1_2023-12-11_16h38.26.818.wav;687.5740464;;None;687.5740464;687.5740464;687.5740464;687.5740464;687.5740464;687.5740464;;;;;;330101;1;2023-12-11_16h27.05.564;REPSWITCH1_version1_list1;2022.2.4;143.924446;
REPSWITCH1/PICTURE_152.png;caracol;type;darkblue;nontarget;1;NT;2;2;1;1;Stim2_Set2;1;repeat;139;138;37;0;138;138;138;;;;;;;;;;;;;;;;;;;;;;;688.0741205;689.2130657;689.2130657;689.2130657;689.2130657;689.2130657;689.2130657;689.2130657;689.2130657;['c', 'a', 'r', 'a', 'c', 'o', 'l'];0;[0.7594185001216829, 0.8600449003279209, 1.0265234000980854, 1.2122533000074327, 1.3192032002843916, 1.481657600030303, 1.7031966000795364];caracol;C:\2023\REPSWITCH21092023\REPSWITCH_excgange\REPSWITCH_excgange\data/330101_REPSWITCH1_version1_list1_2023-12-11_16h27.05.564_micRespv1l1_recorded\recording_micRespv1l1_2023-12-11_16h38.31.485.wav;692.2412404;692.741323;None;692.2412404;692.2412404;692.2412404;692.2412404;692.2412404;692.2412404;;;;;;330101;1;2023-12-11_16h27.05.564;REPSWITCH1_version1_list1;2022.2.4;143.924446;
REPSWITCH1/PICTURE_152.png;caracol;speak;gold;switch;2;T;2;2;1;1;Stim2_Set2;0;None;140;139;38;0;139;139;139;;;;;;;;;;;;;;;;;;;;;;;692.741323;693.8178336;693.8178336;693.8178336;693.8178336;693.8178336;693.8178336;693.8178336;693.8178336;None;0;;;C:\2023\REPSWITCH21092023\REPSWITCH_excgange\REPSWITCH_excgange\data/330101_REPSWITCH1_version1_list1_2023-12-11_16h27.05.564_micRespv1l1_recorded\recording_micRespv1l1_2023-12-11_16h38.36.090.wav;696.8460288;;None;696.8460288;696.8460288;696.8460288;696.8460288;696.8460288;696.8460288;;;;;;330101;1;2023-12-11_16h27.05.564;REPSWITCH1_version1_list1;2022.2.4;143.924446;
REPSWITCH1/PICTURE_16.png;cazador;type;darkblue;filler;1;F;2;2;1;1;Stim6_Set1;0;None;141;140;39;0;140;140;140;;;;;;;;;;;;;;;;;;;;;;;697.346091;698.3949117;698.3949117;698.3949117;698.3949117;698.3949117;698.3949117;698.3949117;698.3949117;['c', 'a', 'z', 'a', 'd', 'backspace', 'd', 'o', 'r'];0;[0.7253967998549342, 0.8051161002367735, 1.2488184999674559, 1.5039611998945475, 1.6703741000965238, 2.0264400001615286, 2.357641200069338, 2.47423700010404, 2.5802016998641193];cazador;C:\2023\REPSWITCH21092023\REPSWITCH_excgange\REPSWITCH_excgange\data/330101_REPSWITCH1_version1_list1_2023-12-11_16h27.05.564_micRespv1l1_recorded\recording_micRespv1l1_2023-12-11_16h38.40.666.wav;701.4160808;701.9161143;None;701.4160808;701.4160808;701.4160808;701.4160808;701.4160808;701.4160808;;;;;;330101;1;2023-12-11_16h27.05.564;REPSWITCH1_version1_list1;2022.2.4;143.924446;
