image;correctAns;respModal;frameColor;repSwitch;sequence;target;set;block;list;exp_version;stimulus;baseline;baseline_condition;trial_no;psychopy_trial;Column1;trialsREPSWITCH.thisRepN;trialsREPSWITCH.thisTrialN;trialsREPSWITCH.thisN;trialsREPSWITCH.thisIndex;textWelcome.started;textboxInstrMain1.started;textboxInstrMain1_2.started;textboxInstrMain1_3.started;keyInstrMain.started;keyInstrMain.keys;keyInstrMain.rt;textboxInstrMain2.started;textboxInstrMain2_2.started;textboxInstrMain2_3.started;textboxInstrMain2_4.started;textboxInstrMain2_5.started;textboxInstrMain2_6.started;textboxInstrMain2_7.started;textboxInstrMain2_8.started;textboxInstrMain2_9.started;textboxInstrMain2_10.started;textboxInstrMain2_11.started;textboxInstrMain2_12.started;keyInstrMain2.started;keyInstrMain2.keys;keyInstrMain2.rt;fixationITI.started;fixationITI.stopped;polygonColour.started;polygonWhite.started;imageObject.started;polygonType.started;textInput.started;keyResp.started;micRespv2l1.started;keyResp.keys;keyResp.corr;keyResp.rt;subjResponse;micRespv2l1.clip;textBlankLoop.started;textBlankLoop.stopped;keyPause.keys;polygonColour.stopped;polygonWhite.stopped;imageObject.stopped;polygonType.stopped;textInput.stopped;keyResp.stopped;textboxPause.started;keyPause.started;keyPause.rt;textboxGoodbye.started;textboxGoodbye.stopped;participant;session;date;expName;psychopyVersion;frameRate;Column2
;;;;;;;;;;;;;;;;;;;;;11.816508;14.3090013;14.3090013;14.3090013;14.3090013;space;6.0813407;;;;;;;;;;;;;;;;;;;;;;;;;;;;;;;;;;;;;;;;;;;;340201;1;2023-12-12_09h18.08.937;REPSWITCH1_version2_list1;2022.2.4;143.9099469;
;;;;;;;;;;;;;;;;;;;;;;;;;;;;20.407021;20.407021;20.407021;20.407021;20.407021;20.407021;20.407021;20.407021;20.407021;20.407021;20.407021;20.407021;20.407021;space;2.4986183;;;;;;;;;;;;;;;;;;;;;;;;;;;;;340201;1;2023-12-12_09h18.08.937;REPSWITCH1_version2_list1;2022.2.4;143.9099469;
REPSWITCH1/PICTURE_340.png;espejo;type;gold;filler;1;F;1;1;1;2;Extra1;0;None;1;0;1;0;0;0;0;;;;;;;;;;;;;;;;;;;;;;;22.9976907;24.1158745;24.1158745;24.1158745;24.1158745;24.1158745;24.1158745;24.1158745;24.1158745;['e', 's', 'p', 'e', 'j', 'o'];0;[1.3321328000165522, 1.5720730000175536, 1.780152800027281, 1.9053273000754416, 2.059774700086564, 2.284263900015503];espejo;C:\2023\REPSWITCH21092023\REPSWITCH_excgange\REPSWITCH_excgange\data/340201_REPSWITCH1_version2_list1_2023-12-12_09h18.08.937_micRespv2l1_recorded\recording_micRespv2l1_2023-12-12_09h18.26.124.wav;27.1370703;27.63714;None;;;;;;;;;;;;340201;1;2023-12-12_09h18.08.937;REPSWITCH1_version2_list1;2022.2.4;143.9099469;
REPSWITCH1/PICTURE_391.png;cadena;speak;darkblue;filler;2;F;1;1;1;2;Extra2;0;None;2;1;2;0;1;1;1;;;;;;;;;;;;;;;;;;;;;;;27.63714;28.7484052;28.7484052;28.7484052;28.7484052;28.7484052;28.7484052;28.7484052;28.7484052;None;0;;;C:\2023\REPSWITCH21092023\REPSWITCH_excgange\REPSWITCH_excgange\data/340201_REPSWITCH1_version2_list1_2023-12-12_09h18.08.937_micRespv2l1_recorded\recording_micRespv2l1_2023-12-12_09h18.30.761.wav;31.7765701;32.2766286;None;31.7765701;31.7765701;31.7765701;31.7765701;31.7765701;31.7765701;;;;;;340201;1;2023-12-12_09h18.08.937;REPSWITCH1_version2_list1;2022.2.4;143.9099469;
REPSWITCH1/PICTURE_178.png;puente;speak;darkblue;nontarget;2;NT;1;1;1;2;Stim1_Set1;1;repeat;3;2;3;0;2;2;2;;;;;;;;;;;;;;;;;;;;;;;32.2766286;33.4365073;33.4365073;33.4365073;33.4365073;33.4365073;33.4365073;33.4365073;33.4365073;None;0;;;C:\2023\REPSWITCH21092023\REPSWITCH_excgange\REPSWITCH_excgange\data/340201_REPSWITCH1_version2_list1_2023-12-12_09h18.08.937_micRespv2l1_recorded\recording_micRespv2l1_2023-12-12_09h18.35.449.wav;36.4576988;36.9577865;None;36.4576988;36.4576988;36.4576988;36.4576988;36.4576988;36.4576988;;;;;;340201;1;2023-12-12_09h18.08.937;REPSWITCH1_version2_list1;2022.2.4;143.9099469;
REPSWITCH1/PICTURE_178.png;puente;speak;darkblue;repeat;2;T;1;1;1;2;Stim1_Set1;0;None;4;3;4;0;3;3;3;;;;;;;;;;;;;;;;;;;;;;;36.9577865;38.0690654;38.0690654;38.0690654;38.0690654;38.0690654;38.0690654;38.0690654;38.0690654;None;0;;;C:\2023\REPSWITCH21092023\REPSWITCH_excgange\REPSWITCH_excgange\data/340201_REPSWITCH1_version2_list1_2023-12-12_09h18.08.937_micRespv2l1_recorded\recording_micRespv2l1_2023-12-12_09h18.40.081.wav;41.0972016;;None;41.0972016;41.0972016;41.0972016;41.0972016;41.0972016;41.0972016;;;;;;340201;1;2023-12-12_09h18.08.937;REPSWITCH1_version2_list1;2022.2.4;143.9099469;
REPSWITCH1/PICTURE_319.png;vaca;type;gold;filler;1;F;1;1;1;2;Stim1_Set4;0;None;5;4;5;0;4;4;4;;;;;;;;;;;;;;;;;;;;;;;41.5972765;42.7363505;42.7363505;42.7363505;42.7363505;42.7363505;42.7363505;42.7363505;42.7363505;['v', 'a', 'c', 'a'];0;[1.1482779998332262, 1.3406950999051332, 1.4828850999474525, 1.6039005001075566];vaca;C:\2023\REPSWITCH21092023\REPSWITCH_excgange\REPSWITCH_excgange\data/340201_REPSWITCH1_version2_list1_2023-12-12_09h18.08.937_micRespv2l1_recorded\recording_micRespv2l1_2023-12-12_09h18.44.748.wav;45.7645139;;None;45.7645139;45.7645139;45.7645139;45.7645139;45.7645139;45.7645139;;;;;;340201;1;2023-12-12_09h18.08.937;REPSWITCH1_version2_list1;2022.2.4;143.9099469;
REPSWITCH1/PICTURE_381.png;fresa;speak;darkblue;nontarget;2;NT;1;1;1;2;Stim2_Set1;1;switch;6;5;6;0;5;5;5;;;;;;;;;;;;;;;;;;;;;;;46.2645873;47.2925019;47.2925019;47.2925019;47.2925019;47.2925019;47.2925019;47.2925019;47.2925019;None;0;;;C:\2023\REPSWITCH21092023\REPSWITCH_excgange\REPSWITCH_excgange\data/340201_REPSWITCH1_version2_list1_2023-12-12_09h18.08.937_micRespv2l1_recorded\recording_micRespv2l1_2023-12-12_09h18.49.304.wav;50.3137182;50.8137758;None;50.3137182;50.3137182;50.3137182;50.3137182;50.3137182;50.3137182;;;;;;340201;1;2023-12-12_09h18.08.937;REPSWITCH1_version2_list1;2022.2.4;143.9099469;
REPSWITCH1/PICTURE_381.png;fresa;speak;darkblue;repeat;2;T;1;1;1;2;Stim2_Set1;0;None;7;6;7;0;6;6;6;;;;;;;;;;;;;;;;;;;;;;;50.8137758;51.8348085;51.8348085;51.8348085;51.8348085;51.8348085;51.8348085;51.8348085;51.8348085;None;0;;;C:\2023\REPSWITCH21092023\REPSWITCH_excgange\REPSWITCH_excgange\data/340201_REPSWITCH1_version2_list1_2023-12-12_09h18.08.937_micRespv2l1_recorded\recording_micRespv2l1_2023-12-12_09h18.53.846.wav;54.8629055;;None;54.8629055;54.8629055;54.8629055;54.8629055;54.8629055;54.8629055;;;;;;340201;1;2023-12-12_09h18.08.937;REPSWITCH1_version2_list1;2022.2.4;143.9099469;
REPSWITCH1/PICTURE_719.png;baño;type;gold;filler;1;F;1;1;1;2;Stim2_Set4;1;switch;8;7;8;0;7;7;7;;;;;;;;;;;;;;;;;;;;;;;55.3630036;56.4117761;56.4117761;56.4117761;56.4117761;56.4117761;56.4117761;56.4117761;56.4117761;['b', 'a', 'ñ', 'o'];0;[1.1062421998940408, 1.285466399975121, 1.5403247997164726, 1.7537004998885095];baño;C:\2023\REPSWITCH21092023\REPSWITCH_excgange\REPSWITCH_excgange\data/340201_REPSWITCH1_version2_list1_2023-12-12_09h18.08.937_micRespv2l1_recorded\recording_micRespv2l1_2023-12-12_09h18.58.424.wav;59.439919;;None;59.439919;59.439919;59.439919;59.439919;59.439919;59.439919;;;;;;340201;1;2023-12-12_09h18.08.937;REPSWITCH1_version2_list1;2022.2.4;143.9099469;
REPSWITCH1/PICTURE_135.png;traje;speak;darkblue;nontarget;2;NT;1;1;1;2;Stim3_Set1;0;None;9;8;9;0;8;8;8;;;;;;;;;;;;;;;;;;;;;;;59.9399839;61.0720843;61.0720843;61.0720843;61.0720843;61.0720843;61.0720843;61.0720843;61.0720843;None;0;;;C:\2023\REPSWITCH21092023\REPSWITCH_excgange\REPSWITCH_excgange\data/340201_REPSWITCH1_version2_list1_2023-12-12_09h18.08.937_micRespv2l1_recorded\recording_micRespv2l1_2023-12-12_09h19.03.084.wav;64.1002287;;None;64.1002287;64.1002287;64.1002287;64.1002287;64.1002287;64.1002287;;;;;;340201;1;2023-12-12_09h18.08.937;REPSWITCH1_version2_list1;2022.2.4;143.9099469;
REPSWITCH1/PICTURE_135.png;traje;type;gold;switch;1;T;1;1;1;2;Stim3_Set1;0;None;10;9;10;0;9;9;9;;;;;;;;;;;;;;;;;;;;;;;64.6002902;65.7046318;65.7046318;65.7046318;65.7046318;65.7046318;65.7046318;65.7046318;65.7046318;['t', 'r', 'a', 'j', 'e'];0;[1.090862300246954, 1.255513799842447, 1.435253200121224, 1.6729954998008907, 1.8955696998164058];traje;C:\2023\REPSWITCH21092023\REPSWITCH_excgange\REPSWITCH_excgange\data/340201_REPSWITCH1_version2_list1_2023-12-12_09h18.08.937_micRespv2l1_recorded\recording_micRespv2l1_2023-12-12_09h19.07.715.wav;68.7258632;69.2259173;None;68.7258632;68.7258632;68.7258632;68.7258632;68.7258632;68.7258632;;;;;;340201;1;2023-12-12_09h18.08.937;REPSWITCH1_version2_list1;2022.2.4;143.9099469;
REPSWITCH1/PICTURE_687.png;camisa;speak;darkblue;filler;2;F;1;1;1;2;Stim5_Set4;0;None;11;10;11;0;10;10;10;;;;;;;;;;;;;;;;;;;;;;;69.2259173;70.3649661;70.3649661;70.3649661;70.3649661;70.3649661;70.3649661;70.3649661;70.3649661;None;0;;;C:\2023\REPSWITCH21092023\REPSWITCH_excgange\REPSWITCH_excgange\data/340201_REPSWITCH1_version2_list1_2023-12-12_09h18.08.937_micRespv2l1_recorded\recording_micRespv2l1_2023-12-12_09h19.12.377.wav;73.3861543;73.8862969;None;73.3861543;73.3861543;73.3861543;73.3861543;73.3861543;73.3861543;;;;;;340201;1;2023-12-12_09h18.08.937;REPSWITCH1_version2_list1;2022.2.4;143.9099469;
REPSWITCH1/PICTURE_128.png;muñeca;type;gold;nontarget;1;NT;1;1;1;2;Stim4_Set1;1;switch;12;11;12;0;11;11;11;;;;;;;;;;;;;;;;;;;;;;;73.8862969;74.9766752;74.9766752;74.9766752;74.9766752;74.9766752;74.9766752;74.9766752;74.9766752;['m', 'u', 'ñ'];0;[1.9236333998851478, 2.192671099677682, 2.801951499655843];muñ;C:\2023\REPSWITCH21092023\REPSWITCH_excgange\REPSWITCH_excgange\data/340201_REPSWITCH1_version2_list1_2023-12-12_09h18.08.937_micRespv2l1_recorded\recording_micRespv2l1_2023-12-12_09h19.16.989.wav;78.0049139;;None;78.0049139;78.0049139;78.0049139;78.0049139;78.0049139;78.0049139;;;;;;340201;1;2023-12-12_09h18.08.937;REPSWITCH1_version2_list1;2022.2.4;143.9099469;
REPSWITCH1/PICTURE_128.png;muñeca;speak;darkblue;switch;2;T;1;1;1;2;Stim4_Set1;0;None;13;12;13;0;12;12;12;;;;;;;;;;;;;;;;;;;;;;;78.5049188;79.5745786;79.5745786;79.5745786;79.5745786;79.5745786;79.5745786;79.5745786;79.5745786;None;0;;;C:\2023\REPSWITCH21092023\REPSWITCH_excgange\REPSWITCH_excgange\data/340201_REPSWITCH1_version2_list1_2023-12-12_09h18.08.937_micRespv2l1_recorded\recording_micRespv2l1_2023-12-12_09h19.21.586.wav;82.5957994;83.0957571;None;82.5957994;82.5957994;82.5957994;82.5957994;82.5957994;82.5957994;;;;;;340201;1;2023-12-12_09h18.08.937;REPSWITCH1_version2_list1;2022.2.4;143.9099469;
REPSWITCH1/PICTURE_8.png;pierna;speak;darkblue;filler;2;F;1;1;1;2;Stim3_Set4;0;None;14;13;14;0;13;13;13;;;;;;;;;;;;;;;;;;;;;;;83.0957571;84.2348201;84.2348201;84.2348201;84.2348201;84.2348201;84.2348201;84.2348201;84.2348201;None;0;;;C:\2023\REPSWITCH21092023\REPSWITCH_excgange\REPSWITCH_excgange\data/340201_REPSWITCH1_version2_list1_2023-12-12_09h18.08.937_micRespv2l1_recorded\recording_micRespv2l1_2023-12-12_09h19.26.247.wav;87.2630107;;None;87.2630107;87.2630107;87.2630107;87.2630107;87.2630107;87.2630107;;;;;;340201;1;2023-12-12_09h18.08.937;REPSWITCH1_version2_list1;2022.2.4;143.9099469;
REPSWITCH1/PICTURE_19.png;pavo;speak;darkblue;nontarget;2;NT;1;1;1;2;Stim5_Set1;0;None;15;14;15;0;14;14;14;;;;;;;;;;;;;;;;;;;;;;;87.7630559;88.8187717;88.8187717;88.8187717;88.8187717;88.8187717;88.8187717;88.8187717;88.8187717;None;0;;;C:\2023\REPSWITCH21092023\REPSWITCH_excgange\REPSWITCH_excgange\data/340201_REPSWITCH1_version2_list1_2023-12-12_09h18.08.937_micRespv2l1_recorded\recording_micRespv2l1_2023-12-12_09h19.30.831.wav;91.8399894;92.3400646;None;91.8399894;91.8399894;91.8399894;91.8399894;91.8399894;91.8399894;;;;;;340201;1;2023-12-12_09h18.08.937;REPSWITCH1_version2_list1;2022.2.4;143.9099469;
REPSWITCH1/PICTURE_19.png;pavo;type;gold;switch;1;T;1;1;1;2;Stim5_Set1;0;None;16;15;16;0;15;15;15;;;;;;;;;;;;;;;;;;;;;;;92.3400646;93.486035;93.486035;93.486035;93.486035;93.486035;93.486035;93.486035;93.486035;['p', 'a', 'v', 'o'];0;[0.8612556997686625, 1.10343369981274, 1.276866499800235, 1.5928106997162104];pavo;C:\2023\REPSWITCH21092023\REPSWITCH_excgange\REPSWITCH_excgange\data/340201_REPSWITCH1_version2_list1_2023-12-12_09h18.08.937_micRespv2l1_recorded\recording_micRespv2l1_2023-12-12_09h19.35.499.wav;96.5141865;;None;96.5141865;96.5141865;96.5141865;96.5141865;96.5141865;96.5141865;;;;;;340201;1;2023-12-12_09h18.08.937;REPSWITCH1_version2_list1;2022.2.4;143.9099469;
REPSWITCH1/PICTURE_16.png;cazador;type;gold;nontarget;1;NT;1;1;1;2;Stim6_Set1;1;switch;17;16;17;0;16;16;16;;;;;;;;;;;;;;;;;;;;;;;97.0142586;98.1603586;98.1603586;98.1603586;98.1603586;98.1603586;98.1603586;98.1603586;98.1603586;['c', 'a', 'z', 'd'];0;[2.262829899787903, 2.3345892997458577, 2.5119918999262154, 2.926619299687445];cazd;C:\2023\REPSWITCH21092023\REPSWITCH_excgange\REPSWITCH_excgange\data/340201_REPSWITCH1_version2_list1_2023-12-12_09h18.08.937_micRespv2l1_recorded\recording_micRespv2l1_2023-12-12_09h19.40.172.wav;101.1884387;;None;101.1884387;101.1884387;101.1884387;101.1884387;101.1884387;101.1884387;;;;;;340201;1;2023-12-12_09h18.08.937;REPSWITCH1_version2_list1;2022.2.4;143.9099469;
REPSWITCH1/PICTURE_16.png;cazador;type;gold;repeat;1;T;1;1;1;2;Stim6_Set1;0;None;18;17;18;0;17;17;17;;;;;;;;;;;;;;;;;;;;;;;101.6885787;102.8136581;102.8136581;102.8136581;102.8136581;102.8136581;102.8136581;102.8136581;102.8136581;['c', 'a', 'z', 'a', 'd', 'o', 'r'];0;[1.2940115998499095, 1.409482500050217, 1.5931355999782681, 1.8225448001176119, 2.0358333000913262, 2.2026396999135613, 2.3571786996908486];cazador;C:\2023\REPSWITCH21092023\REPSWITCH_excgange\REPSWITCH_excgange\data/340201_REPSWITCH1_version2_list1_2023-12-12_09h18.08.937_micRespv2l1_recorded\recording_micRespv2l1_2023-12-12_09h19.44.826.wav;105.8418329;;None;105.8418329;105.8418329;105.8418329;105.8418329;105.8418329;105.8418329;;;;;;340201;1;2023-12-12_09h18.08.937;REPSWITCH1_version2_list1;2022.2.4;143.9099469;
REPSWITCH1/PICTURE_498.png;taza;speak;darkblue;filler;2;F;1;1;1;2;Stim4_Set4;0;None;19;18;19;0;18;18;18;;;;;;;;;;;;;;;;;;;;;;;106.3418999;107.5087379;107.5087379;107.5087379;107.5087379;107.5087379;107.5087379;107.5087379;107.5087379;None;0;;;C:\2023\REPSWITCH21092023\REPSWITCH_excgange\REPSWITCH_excgange\data/340201_REPSWITCH1_version2_list1_2023-12-12_09h18.08.937_micRespv2l1_recorded\recording_micRespv2l1_2023-12-12_09h19.49.520.wav;110.5368968;;None;110.5368968;110.5368968;110.5368968;110.5368968;110.5368968;110.5368968;;;;;;340201;1;2023-12-12_09h18.08.937;REPSWITCH1_version2_list1;2022.2.4;143.9099469;
REPSWITCH1/PICTURE_48.png;bombero;type;gold;filler;1;F;1;1;1;2;Stim7_Set4;0;None;20;19;20;0;19;19;19;;;;;;;;;;;;;;;;;;;;;;;111.0369547;112.099629;112.099629;112.099629;112.099629;112.099629;112.099629;112.099629;112.099629;['b', 'o', 'm', 'e'];0;[1.6863330998457968, 1.9968558000400662, 2.258975800126791, 2.8784603998064995];bome;C:\2023\REPSWITCH21092023\REPSWITCH_excgange\REPSWITCH_excgange\data/340201_REPSWITCH1_version2_list1_2023-12-12_09h18.08.937_micRespv2l1_recorded\recording_micRespv2l1_2023-12-12_09h19.54.111.wav;115.1277596;;None;115.1277596;115.1277596;115.1277596;115.1277596;115.1277596;115.1277596;;;;;;340201;1;2023-12-12_09h18.08.937;REPSWITCH1_version2_list1;2022.2.4;143.9099469;
REPSWITCH1/PICTURE_142.png;vaso;type;gold;nontarget;1;NT;1;1;1;2;Stim7_Set1;1;repeat;21;20;21;0;20;20;20;;;;;;;;;;;;;;;;;;;;;;;115.6278356;116.739092;116.739092;116.739092;116.739092;116.739092;116.739092;116.739092;116.739092;['v', 'a', 's', 'o'];0;[1.028987499885261, 1.107063400093466, 1.2914637001231313, 1.3731488999910653];vaso;C:\2023\REPSWITCH21092023\REPSWITCH_excgange\REPSWITCH_excgange\data/340201_REPSWITCH1_version2_list1_2023-12-12_09h18.08.937_micRespv2l1_recorded\recording_micRespv2l1_2023-12-12_09h19.58.752.wav;119.7672464;;None;119.7672464;119.7672464;119.7672464;119.7672464;119.7672464;119.7672464;;;;;;340201;1;2023-12-12_09h18.08.937;REPSWITCH1_version2_list1;2022.2.4;143.9099469;
REPSWITCH1/PICTURE_142.png;vaso;type;gold;repeat;1;T;1;1;1;2;Stim7_Set1;0;None;22;21;22;0;21;21;21;;;;;;;;;;;;;;;;;;;;;;;120.2674042;121.413378;121.413378;121.413378;121.413378;121.413378;121.413378;121.413378;121.413378;['v', 'a', 's', 'o'];0;[0.8115571001544595, 0.906290499959141, 1.0819967002607882, 1.2085401001386344];vaso;C:\2023\REPSWITCH21092023\REPSWITCH_excgange\REPSWITCH_excgange\data/340201_REPSWITCH1_version2_list1_2023-12-12_09h18.08.937_micRespv2l1_recorded\recording_micRespv2l1_2023-12-12_09h20.03.424.wav;124.4345537;124.9346144;None;124.4345537;124.4345537;124.4345537;124.4345537;124.4345537;124.4345537;;;;;;340201;1;2023-12-12_09h18.08.937;REPSWITCH1_version2_list1;2022.2.4;143.9099469;
REPSWITCH1/PICTURE_338.png;regalo;speak;darkblue;filler;2;F;1;1;1;2;Stim6_Set4;1;switch;23;22;23;0;22;22;22;;;;;;;;;;;;;;;;;;;;;;;124.9346144;126.0250825;126.0250825;126.0250825;126.0250825;126.0250825;126.0250825;126.0250825;126.0250825;None;0;;;C:\2023\REPSWITCH21092023\REPSWITCH_excgange\REPSWITCH_excgange\data/340201_REPSWITCH1_version2_list1_2023-12-12_09h18.08.937_micRespv2l1_recorded\recording_micRespv2l1_2023-12-12_09h20.08.037.wav;129.0462412;129.5463246;None;129.0462412;129.0462412;129.0462412;129.0462412;129.0462412;129.0462412;;;;;;340201;1;2023-12-12_09h18.08.937;REPSWITCH1_version2_list1;2022.2.4;143.9099469;
REPSWITCH1/PICTURE_728.png;pulpo;type;gold;filler;1;F;1;1;1;2;Stim8_Set4;1;switch;24;23;24;0;23;23;23;;;;;;;;;;;;;;;;;;;;;;;129.5463246;130.6297884;130.6297884;130.6297884;130.6297884;130.6297884;130.6297884;130.6297884;130.6297884;['p', 'u', 'l', 'p', 'o'];0;[1.3287518001161516, 1.6277308003045619, 1.9170447001233697, 2.105922100134194, 2.2557172002270818];pulpo;C:\2023\REPSWITCH21092023\REPSWITCH_excgange\REPSWITCH_excgange\data/340201_REPSWITCH1_version2_list1_2023-12-12_09h18.08.937_micRespv2l1_recorded\recording_micRespv2l1_2023-12-12_09h20.12.641.wav;133.651031;134.1510612;None;133.651031;133.651031;133.651031;133.651031;133.651031;133.651031;;;;;;340201;1;2023-12-12_09h18.08.937;REPSWITCH1_version2_list1;2022.2.4;143.9099469;
REPSWITCH1/PICTURE_169.png;espalda;type;gold;nontarget;1;NT;1;1;1;2;Stim8_Set1;1;repeat;25;24;25;0;24;24;24;;;;;;;;;;;;;;;;;;;;;;;134.1510612;135.1859889;135.1859889;135.1859889;135.1859889;135.1859889;135.1859889;135.1859889;135.1859889;['e', 's', 'p', 'a', 'l', 'd', 'a'];0;[1.2765298997983336, 1.4760940000414848, 1.6389504000544548, 1.6921143997460604, 1.8638434996828437, 1.9734775996766984, 2.1668373998254538];espalda;C:\2023\REPSWITCH21092023\REPSWITCH_excgange\REPSWITCH_excgange\data/340201_REPSWITCH1_version2_list1_2023-12-12_09h18.08.937_micRespv2l1_recorded\recording_micRespv2l1_2023-12-12_09h20.17.198.wav;138.2141023;;None;138.2141023;138.2141023;138.2141023;138.2141023;138.2141023;138.2141023;;;;;;340201;1;2023-12-12_09h18.08.937;REPSWITCH1_version2_list1;2022.2.4;143.9099469;
REPSWITCH1/PICTURE_169.png;espalda;speak;darkblue;switch;2;T;1;1;1;2;Stim8_Set1;0;None;26;25;26;0;25;25;25;;;;;;;;;;;;;;;;;;;;;;;138.7141708;139.7490482;139.7490482;139.7490482;139.7490482;139.7490482;139.7490482;139.7490482;139.7490482;None;0;;;C:\2023\REPSWITCH21092023\REPSWITCH_excgange\REPSWITCH_excgange\data/340201_REPSWITCH1_version2_list1_2023-12-12_09h18.08.937_micRespv2l1_recorded\recording_micRespv2l1_2023-12-12_09h20.21.761.wav;142.7702829;143.2703479;None;142.7702829;142.7702829;142.7702829;142.7702829;142.7702829;142.7702829;;;;;;340201;1;2023-12-12_09h18.08.937;REPSWITCH1_version2_list1;2022.2.4;143.9099469;
REPSWITCH1/PICTURE_178.png;puente;speak;darkblue;filler;2;F;2;1;1;2;Stim1_Set1;0;None;27;26;27;0;26;26;26;;;;;;;;;;;;;;;;;;;;;;;143.2703479;144.5206068;144.5206068;144.5206068;144.5206068;144.5206068;144.5206068;144.5206068;144.5206068;None;0;;;C:\2023\REPSWITCH21092023\REPSWITCH_excgange\REPSWITCH_excgange\data/340201_REPSWITCH1_version2_list1_2023-12-12_09h18.08.937_micRespv2l1_recorded\recording_micRespv2l1_2023-12-12_09h20.26.532.wav;147.5417449;148.0418057;None;147.5417449;147.5417449;147.5417449;147.5417449;147.5417449;147.5417449;;;;;;340201;1;2023-12-12_09h18.08.937;REPSWITCH1_version2_list1;2022.2.4;143.9099469;
REPSWITCH1/PICTURE_175.png;pintor;type;gold;nontarget;1;NT;2;1;1;2;Stim1_Set2;1;switch;28;27;28;0;27;27;27;;;;;;;;;;;;;;;;;;;;;;;148.0418057;149.1739635;149.1739635;149.1739635;149.1739635;149.1739635;149.1739635;149.1739635;149.1739635;['p', 'i', 'n', 't', 'o', 'r'];0;[1.1653443002142012, 1.3787386999465525, 1.7510832003317773, 1.9802932003512979, 2.1138772000558674, 2.1746398000977933];pintor;C:\2023\REPSWITCH21092023\REPSWITCH_excgange\REPSWITCH_excgange\data/340201_REPSWITCH1_version2_list1_2023-12-12_09h18.08.937_micRespv2l1_recorded\recording_micRespv2l1_2023-12-12_09h20.31.186.wav;152.2021231;;None;152.2021231;152.2021231;152.2021231;152.2021231;152.2021231;152.2021231;;;;;;340201;1;2023-12-12_09h18.08.937;REPSWITCH1_version2_list1;2022.2.4;143.9099469;
REPSWITCH1/PICTURE_175.png;pintor;type;gold;repeat;1;T;2;1;1;2;Stim1_Set2;0;None;29;28;29;0;28;28;28;;;;;;;;;;;;;;;;;;;;;;;152.7021161;153.7578509;153.7578509;153.7578509;153.7578509;153.7578509;153.7578509;153.7578509;153.7578509;['p', 'i', 'n', 't', 'o', 'r'];0;[1.2322144000791013, 1.5991551000624895, 1.8084856001660228, 1.9622471001930535, 2.121049600187689, 2.2171515999361873];pintor;C:\2023\REPSWITCH21092023\REPSWITCH_excgange\REPSWITCH_excgange\data/340201_REPSWITCH1_version2_list1_2023-12-12_09h18.08.937_micRespv2l1_recorded\recording_micRespv2l1_2023-12-12_09h20.35.771.wav;156.7860149;;None;156.7860149;156.7860149;156.7860149;156.7860149;156.7860149;156.7860149;;;;;;340201;1;2023-12-12_09h18.08.937;REPSWITCH1_version2_list1;2022.2.4;143.9099469;
REPSWITCH1/PICTURE_381.png;fresa;speak;darkblue;filler;2;F;2;1;1;2;Stim2_Set1;0;None;30;29;30;0;29;29;29;;;;;;;;;;;;;;;;;;;;;;;157.2860519;158.445961;158.445961;158.445961;158.445961;158.445961;158.445961;158.445961;158.445961;None;0;;;C:\2023\REPSWITCH21092023\REPSWITCH_excgange\REPSWITCH_excgange\data/340201_REPSWITCH1_version2_list1_2023-12-12_09h18.08.937_micRespv2l1_recorded\recording_micRespv2l1_2023-12-12_09h20.40.459.wav;161.4741232;;None;161.4741232;161.4741232;161.4741232;161.4741232;161.4741232;161.4741232;;;;;;340201;1;2023-12-12_09h18.08.937;REPSWITCH1_version2_list1;2022.2.4;143.9099469;
REPSWITCH1/PICTURE_152.png;caracol;type;gold;nontarget;1;NT;2;1;1;2;Stim2_Set2;1;switch;31;30;31;0;30;30;30;;;;;;;;;;;;;;;;;;;;;;;161.9741512;163.0230057;163.0230057;163.0230057;163.0230057;163.0230057;163.0230057;163.0230057;163.0230057;['c', 'a', 'r', 'c', 'o', 'l'];0;[1.1263622003607452, 1.2489424999803305, 1.4223517002537847, 1.7319558002054691, 1.9172965004108846, 2.071822199970484];carcol;C:\2023\REPSWITCH21092023\REPSWITCH_excgange\REPSWITCH_excgange\data/340201_REPSWITCH1_version2_list1_2023-12-12_09h18.08.937_micRespv2l1_recorded\recording_micRespv2l1_2023-12-12_09h20.45.035.wav;166.0441491;166.5442119;None;166.0441491;166.0441491;166.0441491;166.0441491;166.0441491;166.0441491;;;;;;340201;1;2023-12-12_09h18.08.937;REPSWITCH1_version2_list1;2022.2.4;143.9099469;
REPSWITCH1/PICTURE_152.png;caracol;type;gold;repeat;1;T;2;1;1;2;Stim2_Set2;0;None;32;31;32;0;31;31;31;;;;;;;;;;;;;;;;;;;;;;;166.5442119;167.7111018;167.7111018;167.7111018;167.7111018;167.7111018;167.7111018;167.7111018;167.7111018;['c', 'a', 'r', 'a', 'c', 'o', 'l'];0;[0.7475092001259327, 0.9218758000060916, 1.0564156002365053, 1.1729868003167212, 1.3015173003077507, 1.599185900297016, 1.791852000169456];caracol;C:\2023\REPSWITCH21092023\REPSWITCH_excgange\REPSWITCH_excgange\data/340201_REPSWITCH1_version2_list1_2023-12-12_09h18.08.937_micRespv2l1_recorded\recording_micRespv2l1_2023-12-12_09h20.49.723.wav;170.7392677;;None;170.7392677;170.7392677;170.7392677;170.7392677;170.7392677;170.7392677;;;;;;340201;1;2023-12-12_09h18.08.937;REPSWITCH1_version2_list1;2022.2.4;143.9099469;
REPSWITCH1/PICTURE_128.png;muñeca;speak;darkblue;filler;2;F;2;1;1;2;Stim4_Set1;0;None;33;32;33;0;32;32;32;;;;;;;;;;;;;;;;;;;;;;;171.2392808;172.4131191;172.4131191;172.4131191;172.4131191;172.4131191;172.4131191;172.4131191;172.4131191;None;0;;;C:\2023\REPSWITCH21092023\REPSWITCH_excgange\REPSWITCH_excgange\data/340201_REPSWITCH1_version2_list1_2023-12-12_09h18.08.937_micRespv2l1_recorded\recording_micRespv2l1_2023-12-12_09h20.54.424.wav;175.4342849;175.9343581;None;175.4342849;175.4342849;175.4342849;175.4342849;175.4342849;175.4342849;;;;;;340201;1;2023-12-12_09h18.08.937;REPSWITCH1_version2_list1;2022.2.4;143.9099469;
REPSWITCH1/PICTURE_264.png;mano;type;gold;nontarget;1;NT;2;1;1;2;Stim3_Set2;0;None;34;33;34;0;33;33;33;;;;;;;;;;;;;;;;;;;;;;;175.9343581;176.9692232;176.9692232;176.9692232;176.9692232;176.9692232;176.9692232;176.9692232;176.9692232;['m', 'a', 'n', 'o'];0;[1.106613699812442, 1.200300700031221, 1.3200873001478612, 1.5353476000018418];mano;C:\2023\REPSWITCH21092023\REPSWITCH_excgange\REPSWITCH_excgange\data/340201_REPSWITCH1_version2_list1_2023-12-12_09h18.08.937_micRespv2l1_recorded\recording_micRespv2l1_2023-12-12_09h20.58.980.wav;179.9904519;180.4905075;None;179.9904519;179.9904519;179.9904519;179.9904519;179.9904519;179.9904519;;;;;;340201;1;2023-12-12_09h18.08.937;REPSWITCH1_version2_list1;2022.2.4;143.9099469;
REPSWITCH1/PICTURE_264.png;mano;speak;darkblue;switch;2;T;2;1;1;2;Stim3_Set2;0;None;35;34;35;0;34;34;34;;;;;;;;;;;;;;;;;;;;;;;180.4905075;181.5948432;181.5948432;181.5948432;181.5948432;181.5948432;181.5948432;181.5948432;181.5948432;None;0;;;C:\2023\REPSWITCH21092023\REPSWITCH_excgange\REPSWITCH_excgange\data/340201_REPSWITCH1_version2_list1_2023-12-12_09h18.08.937_micRespv2l1_recorded\recording_micRespv2l1_2023-12-12_09h21.03.607.wav;184.6230732;;None;184.6230732;184.6230732;184.6230732;184.6230732;184.6230732;184.6230732;;;;;;340201;1;2023-12-12_09h18.08.937;REPSWITCH1_version2_list1;2022.2.4;143.9099469;
REPSWITCH1/PICTURE_517.png;cuerda;speak;darkblue;nontarget;2;NT;2;1;1;2;Stim4_Set2;1;repeat;36;35;36;0;35;35;35;;;;;;;;;;;;;;;;;;;;;;;185.1230361;186.3524537;186.3524537;186.3524537;186.3524537;186.3524537;186.3524537;186.3524537;186.3524537;None;0;;;C:\2023\REPSWITCH21092023\REPSWITCH_excgange\REPSWITCH_excgange\data/340201_REPSWITCH1_version2_list1_2023-12-12_09h18.08.937_micRespv2l1_recorded\recording_micRespv2l1_2023-12-12_09h21.08.363.wav;189.3735833;189.8736825;None;189.3735833;189.3735833;189.3735833;189.3735833;189.3735833;189.3735833;;;;;;340201;1;2023-12-12_09h18.08.937;REPSWITCH1_version2_list1;2022.2.4;143.9099469;
REPSWITCH1/PICTURE_517.png;cuerda;type;gold;switch;1;T;2;1;1;2;Stim4_Set2;0;None;37;36;37;0;36;36;36;;;;;;;;;;;;;;;;;;;;;;;189.8736825;190.9086119;190.9086119;190.9086119;190.9086119;190.9086119;190.9086119;190.9086119;190.9086119;['c', 'u', 'e', 'r', 'd', 'a'];0;[0.660122400149703, 0.8364500002935529, 1.0207710000686347, 1.15734690008685, 1.317477300297469, 1.3403982003219426];cuerda;C:\2023\REPSWITCH21092023\REPSWITCH_excgange\REPSWITCH_excgange\data/340201_REPSWITCH1_version2_list1_2023-12-12_09h18.08.937_micRespv2l1_recorded\recording_micRespv2l1_2023-12-12_09h21.12.920.wav;193.9297799;194.4298602;None;193.9297799;193.9297799;193.9297799;193.9297799;193.9297799;193.9297799;;;;;;340201;1;2023-12-12_09h18.08.937;REPSWITCH1_version2_list1;2022.2.4;143.9099469;
REPSWITCH1/PICTURE_135.png;traje;type;gold;filler;1;F;2;1;1;2;Stim3_Set1;0;None;38;37;38;0;37;37;37;;;;;;;;;;;;;;;;;;;;;;;194.4298602;195.436984;195.436984;195.436984;195.436984;195.436984;195.436984;195.436984;195.436984;['t', 'r', 'a', 'j', 'e'];0;[1.2557613998651505, 1.4022613000124693, 1.492968900129199, 1.720053399913013, 1.821110799908638];traje;C:\2023\REPSWITCH21092023\REPSWITCH_excgange\REPSWITCH_excgange\data/340201_REPSWITCH1_version2_list1_2023-12-12_09h18.08.937_micRespv2l1_recorded\recording_micRespv2l1_2023-12-12_09h21.17.449.wav;198.4581954;198.9582551;None;198.4581954;198.4581954;198.4581954;198.4581954;198.4581954;198.4581954;;;;;;340201;1;2023-12-12_09h18.08.937;REPSWITCH1_version2_list1;2022.2.4;143.9099469;
REPSWITCH1/PICTURE_30.png;granja;type;gold;nontarget;1;NT;2;1;1;2;Stim5_Set2;1;repeat;39;38;39;0;38;38;38;;;;;;;;;;;;;;;;;;;;;;;198.9582551;200.0556577;200.0556577;200.0556577;200.0556577;200.0556577;200.0556577;200.0556577;200.0556577;['g', 'r', 'a', 'n', 'j', 'a'];0;[1.2360259997658432, 1.4064150000922382, 1.519073999952525, 1.7204577000811696, 1.9087795000523329, 1.9587376997806132];granja;C:\2023\REPSWITCH21092023\REPSWITCH_excgange\REPSWITCH_excgange\data/340201_REPSWITCH1_version2_list1_2023-12-12_09h18.08.937_micRespv2l1_recorded\recording_micRespv2l1_2023-12-12_09h21.22.068.wav;203.0837245;;None;203.0837245;203.0837245;203.0837245;203.0837245;203.0837245;203.0837245;;;;;;340201;1;2023-12-12_09h18.08.937;REPSWITCH1_version2_list1;2022.2.4;143.9099469;
REPSWITCH1/PICTURE_30.png;granja;speak;darkblue;switch;2;T;2;1;1;2;Stim5_Set2;0;None;40;39;40;0;39;39;39;;;;;;;;;;;;;;;;;;;;;;;203.5838122;204.7367326;204.7367326;204.7367326;204.7367326;204.7367326;204.7367326;204.7367326;204.7367326;None;0;;;C:\2023\REPSWITCH21092023\REPSWITCH_excgange\REPSWITCH_excgange\data/340201_REPSWITCH1_version2_list1_2023-12-12_09h18.08.937_micRespv2l1_recorded\recording_micRespv2l1_2023-12-12_09h21.26.750.wav;207.7649257;;None;207.7649257;207.7649257;207.7649257;207.7649257;207.7649257;207.7649257;;;;;;340201;1;2023-12-12_09h18.08.937;REPSWITCH1_version2_list1;2022.2.4;143.9099469;
REPSWITCH1/PICTURE_142.png;vaso;type;gold;filler;1;F;2;1;1;2;Stim7_Set1;0;None;41;40;41;0;40;40;40;;;;;;;;;;;;;;;;;;;;;;;208.265055;209.3484485;209.3484485;209.3484485;209.3484485;209.3484485;209.3484485;209.3484485;209.3484485;['v', 'a', 's', 'o'];0;[0.9888589000329375, 1.0807894002646208, 1.2668121000751853, 1.402627400122583];vaso;C:\2023\REPSWITCH21092023\REPSWITCH_excgange\REPSWITCH_excgange\data/340201_REPSWITCH1_version2_list1_2023-12-12_09h18.08.937_micRespv2l1_recorded\recording_micRespv2l1_2023-12-12_09h21.31.360.wav;212.3696905;212.8697567;None;212.3696905;212.3696905;212.3696905;212.3696905;212.3696905;212.3696905;;;;;;340201;1;2023-12-12_09h18.08.937;REPSWITCH1_version2_list1;2022.2.4;143.9099469;
REPSWITCH1/PICTURE_19.png;pavo;speak;darkblue;filler;2;F;2;1;1;2;Stim5_Set1;1;switch;42;41;42;0;41;41;41;;;;;;;;;;;;;;;;;;;;;;;212.8697567;213.9949448;213.9949448;213.9949448;213.9949448;213.9949448;213.9949448;213.9949448;213.9949448;None;0;;;C:\2023\REPSWITCH21092023\REPSWITCH_excgange\REPSWITCH_excgange\data/340201_REPSWITCH1_version2_list1_2023-12-12_09h18.08.937_micRespv2l1_recorded\recording_micRespv2l1_2023-12-12_09h21.36.007.wav;217.023124;;None;217.023124;217.023124;217.023124;217.023124;217.023124;217.023124;;;;;;340201;1;2023-12-12_09h18.08.937;REPSWITCH1_version2_list1;2022.2.4;143.9099469;
REPSWITCH1/PICTURE_552.png;manzana;speak;darkblue;nontarget;2;NT;2;1;1;2;Stim6_Set2;1;repeat;43;42;43;0;42;42;42;;;;;;;;;;;;;;;;;;;;;;;217.5231192;218.5857809;218.5857809;218.5857809;218.5857809;218.5857809;218.5857809;218.5857809;218.5857809;None;0;;;C:\2023\REPSWITCH21092023\REPSWITCH_excgange\REPSWITCH_excgange\data/340201_REPSWITCH1_version2_list1_2023-12-12_09h18.08.937_micRespv2l1_recorded\recording_micRespv2l1_2023-12-12_09h21.40.597.wav;221.6139689;;None;221.6139689;221.6139689;221.6139689;221.6139689;221.6139689;221.6139689;;;;;;340201;1;2023-12-12_09h18.08.937;REPSWITCH1_version2_list1;2022.2.4;143.9099469;
REPSWITCH1/PICTURE_552.png;manzana;speak;darkblue;repeat;2;T;2;1;1;2;Stim6_Set2;0;None;44;43;44;0;43;43;43;;;;;;;;;;;;;;;;;;;;;;;222.1140049;223.1558159;223.1558159;223.1558159;223.1558159;223.1558159;223.1558159;223.1558159;223.1558159;None;0;;;C:\2023\REPSWITCH21092023\REPSWITCH_excgange\REPSWITCH_excgange\data/340201_REPSWITCH1_version2_list1_2023-12-12_09h18.08.937_micRespv2l1_recorded\recording_micRespv2l1_2023-12-12_09h21.45.168.wav;226.1770203;226.6770935;None;226.1770203;226.1770203;226.1770203;226.1770203;226.1770203;226.1770203;;;;;;340201;1;2023-12-12_09h18.08.937;REPSWITCH1_version2_list1;2022.2.4;143.9099469;
REPSWITCH1/PICTURE_16.png;cazador;type;gold;filler;1;F;2;1;1;2;Stim6_Set1;0;None;45;44;45;0;44;44;44;;;;;;;;;;;;;;;;;;;;;;;226.6770935;227.8023398;227.8023398;227.8023398;227.8023398;227.8023398;227.8023398;227.8023398;227.8023398;['c', 'a', 'z', 'a', 'd', 'o', 'r'];0;[0.972397199831903, 1.124852600041777, 1.332742199767381, 1.5492799999192357, 1.672257199883461, 1.9717123000882566, 2.059419999830425];cazador;C:\2023\REPSWITCH21092023\REPSWITCH_excgange\REPSWITCH_excgange\data/340201_REPSWITCH1_version2_list1_2023-12-12_09h18.08.937_micRespv2l1_recorded\recording_micRespv2l1_2023-12-12_09h21.49.813.wav;230.8235031;231.3235661;None;230.8235031;230.8235031;230.8235031;230.8235031;230.8235031;230.8235031;;;;;;340201;1;2023-12-12_09h18.08.937;REPSWITCH1_version2_list1;2022.2.4;143.9099469;
REPSWITCH1/PICTURE_446.png;cerdo;speak;darkblue;nontarget;2;NT;2;1;1;2;Stim7_Set2;1;switch;46;45;46;0;45;45;45;;;;;;;;;;;;;;;;;;;;;;;231.3235661;232.4834382;232.4834382;232.4834382;232.4834382;232.4834382;232.4834382;232.4834382;232.4834382;None;0;;;C:\2023\REPSWITCH21092023\REPSWITCH_excgange\REPSWITCH_excgange\data/340201_REPSWITCH1_version2_list1_2023-12-12_09h18.08.937_micRespv2l1_recorded\recording_micRespv2l1_2023-12-12_09h21.54.496.wav;235.5116187;;None;235.5116187;235.5116187;235.5116187;235.5116187;235.5116187;235.5116187;;;;;;340201;1;2023-12-12_09h18.08.937;REPSWITCH1_version2_list1;2022.2.4;143.9099469;
REPSWITCH1/PICTURE_446.png;cerdo;speak;darkblue;repeat;2;T;2;1;1;2;Stim7_Set2;0;None;47;46;47;0;46;46;46;;;;;;;;;;;;;;;;;;;;;;;236.011663;237.1159975;237.1159975;237.1159975;237.1159975;237.1159975;237.1159975;237.1159975;237.1159975;None;0;;;C:\2023\REPSWITCH21092023\REPSWITCH_excgange\REPSWITCH_excgange\data/340201_REPSWITCH1_version2_list1_2023-12-12_09h18.08.937_micRespv2l1_recorded\recording_micRespv2l1_2023-12-12_09h21.59.128.wav;240.1442053;;None;240.1442053;240.1442053;240.1442053;240.1442053;240.1442053;240.1442053;;;;;;340201;1;2023-12-12_09h18.08.937;REPSWITCH1_version2_list1;2022.2.4;143.9099469;
REPSWITCH1/PICTURE_590.png;escoba;type;gold;filler;1;F;2;1;1;2;Extra3;0;None;48;47;48;0;47;47;47;;;;;;;;;;;;;;;;;;;;;;;240.6442019;241.7555527;241.7555527;241.7555527;241.7555527;241.7555527;241.7555527;241.7555527;241.7555527;['e', 's', 'c', 'o', 'b', 'a'];0;[1.1366774998605251, 1.327306800056249, 1.4768395996652544, 1.7398378998041153, 1.9803586998023093, 2.1110657998360693];escoba;C:\2023\REPSWITCH21092023\REPSWITCH_excgange\REPSWITCH_excgange\data/340201_REPSWITCH1_version2_list1_2023-12-12_09h18.08.937_micRespv2l1_recorded\recording_micRespv2l1_2023-12-12_09h22.03.768.wav;244.7836692;;None;244.7836692;244.7836692;244.7836692;244.7836692;244.7836692;244.7836692;;;;;;340201;1;2023-12-12_09h18.08.937;REPSWITCH1_version2_list1;2022.2.4;143.9099469;
REPSWITCH1/PICTURE_169.png;espalda;speak;darkblue;filler;2;F;2;1;1;2;Stim8_Set1;0;None;49;48;49;0;48;48;48;;;;;;;;;;;;;;;;;;;;;;;245.2837336;246.3671869;246.3671869;246.3671869;246.3671869;246.3671869;246.3671869;246.3671869;246.3671869;None;0;;;C:\2023\REPSWITCH21092023\REPSWITCH_excgange\REPSWITCH_excgange\data/340201_REPSWITCH1_version2_list1_2023-12-12_09h18.08.937_micRespv2l1_recorded\recording_micRespv2l1_2023-12-12_09h22.08.380.wav;249.3954477;;None;249.3954477;249.3954477;249.3954477;249.3954477;249.3954477;249.3954477;;;;;;340201;1;2023-12-12_09h18.08.937;REPSWITCH1_version2_list1;2022.2.4;143.9099469;
REPSWITCH1/PICTURE_199.png;falda;speak;darkblue;nontarget;2;NT;2;1;1;2;Stim8_Set2;1;repeat;50;49;50;0;49;49;49;;;;;;;;;;;;;;;;;;;;;;;249.89543;250.9858562;250.9858562;250.9858562;250.9858562;250.9858562;250.9858562;250.9858562;250.9858562;None;0;;;C:\2023\REPSWITCH21092023\REPSWITCH_excgange\REPSWITCH_excgange\data/340201_REPSWITCH1_version2_list1_2023-12-12_09h18.08.937_micRespv2l1_recorded\recording_micRespv2l1_2023-12-12_09h22.12.998.wav;254.0140148;;None;254.0140148;254.0140148;254.0140148;254.0140148;254.0140148;254.0140148;;;;;;340201;1;2023-12-12_09h18.08.937;REPSWITCH1_version2_list1;2022.2.4;143.9099469;
REPSWITCH1/PICTURE_199.png;falda;type;gold;switch;1;T;2;1;1;2;Stim8_Set2;0;None;51;50;51;0;50;50;50;;;;;;;;;;;;;;;;;;;;;;;254.5140822;255.6462741;255.6462741;255.6462741;255.6462741;255.6462741;255.6462741;255.6462741;255.6462741;['f', 'a', 'l', 'd', 'a'];0;[1.1068482999689877, 1.3147459998726845, 1.5872442997060716, 1.8825268996879458, 1.9563130997121334];falda;C:\2023\REPSWITCH21092023\REPSWITCH_excgange\REPSWITCH_excgange\data/340201_REPSWITCH1_version2_list1_2023-12-12_09h18.08.937_micRespv2l1_recorded\recording_micRespv2l1_2023-12-12_09h22.17.658.wav;258.6743849;;space;258.6743849;258.6743849;258.6743849;258.6743849;258.6743849;258.6743849;259.1744326;259.1744326;1.5636791;;;340201;1;2023-12-12_09h18.08.937;REPSWITCH1_version2_list1;2022.2.4;143.9099469;
REPSWITCH1/PICTURE_576.png;guante;type;gold;nontarget;1;NT;3;1;1;2;Stim1_Set3;0;None;52;51;52;0;51;51;51;;;;;;;;;;;;;;;;;;;;;;;260.7510805;261.8970215;261.8970215;261.8970215;261.8970215;261.8970215;261.8970215;261.8970215;261.8970215;['g', 'u', 'a', 'n', 't', 'e'];0;[1.8359870999120176, 2.0583367999643087, 2.1948812999762595, 2.310480599757284, 2.4861717000603676, 2.5300576998852193];guante;C:\2023\REPSWITCH21092023\REPSWITCH_excgange\REPSWITCH_excgange\data/340201_REPSWITCH1_version2_list1_2023-12-12_09h18.08.937_micRespv2l1_recorded\recording_micRespv2l1_2023-12-12_09h22.23.909.wav;264.9182443;265.4183876;None;264.9182443;264.9182443;264.9182443;264.9182443;264.9182443;264.9182443;;;;;;340201;1;2023-12-12_09h18.08.937;REPSWITCH1_version2_list1;2022.2.4;143.9099469;
REPSWITCH1/PICTURE_576.png;guante;speak;darkblue;switch;2;T;3;1;1;2;Stim1_Set3;0;None;53;52;53;0;52;52;52;;;;;;;;;;;;;;;;;;;;;;;265.4183876;266.5851161;266.5851161;266.5851161;266.5851161;266.5851161;266.5851161;266.5851161;266.5851161;None;0;;;C:\2023\REPSWITCH21092023\REPSWITCH_excgange\REPSWITCH_excgange\data/340201_REPSWITCH1_version2_list1_2023-12-12_09h18.08.937_micRespv2l1_recorded\recording_micRespv2l1_2023-12-12_09h22.28.596.wav;269.6064294;270.1064315;None;269.6064294;269.6064294;269.6064294;269.6064294;269.6064294;269.6064294;;;;;;340201;1;2023-12-12_09h18.08.937;REPSWITCH1_version2_list1;2022.2.4;143.9099469;
REPSWITCH1/PICTURE_646.png;tronco;speak;darkblue;filler;2;F;3;1;1;2;Extra4;0;None;54;53;54;0;53;53;53;;;;;;;;;;;;;;;;;;;;;;;270.1064315;271.3218426;271.3218426;271.3218426;271.3218426;271.3218426;271.3218426;271.3218426;271.3218426;None;0;;;C:\2023\REPSWITCH21092023\REPSWITCH_excgange\REPSWITCH_excgange\data/340201_REPSWITCH1_version2_list1_2023-12-12_09h18.08.937_micRespv2l1_recorded\recording_micRespv2l1_2023-12-12_09h22.33.333.wav;274.3431001;274.8431406;None;274.3431001;274.3431001;274.3431001;274.3431001;274.3431001;274.3431001;;;;;;340201;1;2023-12-12_09h18.08.937;REPSWITCH1_version2_list1;2022.2.4;143.9099469;
REPSWITCH1/PICTURE_610.png;miel;speak;darkblue;nontarget;2;NT;3;1;1;2;Stim2_Set3;1;repeat;55;54;55;0;54;54;54;;;;;;;;;;;;;;;;;;;;;;;274.8431406;275.9614516;275.9614516;275.9614516;275.9614516;275.9614516;275.9614516;275.9614516;275.9614516;None;0;;;C:\2023\REPSWITCH21092023\REPSWITCH_excgange\REPSWITCH_excgange\data/340201_REPSWITCH1_version2_list1_2023-12-12_09h18.08.937_micRespv2l1_recorded\recording_micRespv2l1_2023-12-12_09h22.37.972.wav;278.9825986;279.4826635;None;278.9825986;278.9825986;278.9825986;278.9825986;278.9825986;278.9825986;;;;;;340201;1;2023-12-12_09h18.08.937;REPSWITCH1_version2_list1;2022.2.4;143.9099469;
REPSWITCH1/PICTURE_610.png;miel;type;gold;switch;1;T;3;1;1;2;Stim2_Set3;0;None;56;55;56;0;55;55;55;;;;;;;;;;;;;;;;;;;;;;;279.4826635;280.6703379;280.6703379;280.6703379;280.6703379;280.6703379;280.6703379;280.6703379;280.6703379;['m', 'i', 'e', 'l'];0;[0.9662924003787339, 1.151199100073427, 1.2578446003608406, 1.4262489001266658];miel;C:\2023\REPSWITCH21092023\REPSWITCH_excgange\REPSWITCH_excgange\data/340201_REPSWITCH1_version2_list1_2023-12-12_09h18.08.937_micRespv2l1_recorded\recording_micRespv2l1_2023-12-12_09h22.42.682.wav;283.6985636;;None;283.6985636;283.6985636;283.6985636;283.6985636;283.6985636;283.6985636;;;;;;340201;1;2023-12-12_09h18.08.937;REPSWITCH1_version2_list1;2022.2.4;143.9099469;
REPSWITCH1/PICTURE_175.png;pintor;type;gold;filler;1;F;3;1;1;2;Stim1_Set2;1;repeat;57;56;57;0;56;56;56;;;;;;;;;;;;;;;;;;;;;;;284.1985605;285.2334186;285.2334186;285.2334186;285.2334186;285.2334186;285.2334186;285.2334186;285.2334186;['p', 'i', 'n', 't', 'r', 'o'];0;[1.0535571998916566, 1.2906960998661816, 1.5135825998149812, 1.7248749998398125, 1.9450980997644365, 2.10693349968642];pintro;C:\2023\REPSWITCH21092023\REPSWITCH_excgange\REPSWITCH_excgange\data/340201_REPSWITCH1_version2_list1_2023-12-12_09h18.08.937_micRespv2l1_recorded\recording_micRespv2l1_2023-12-12_09h22.47.246.wav;288.2616656;;None;288.2616656;288.2616656;288.2616656;288.2616656;288.2616656;288.2616656;;;;;;340201;1;2023-12-12_09h18.08.937;REPSWITCH1_version2_list1;2022.2.4;143.9099469;
REPSWITCH1/PICTURE_242.png;cartero;type;gold;nontarget;1;NT;3;1;1;2;Stim3_Set3;1;repeat;58;57;58;0;57;57;57;;;;;;;;;;;;;;;;;;;;;;;288.7616547;289.879857;289.879857;289.879857;289.879857;289.879857;289.879857;289.879857;289.879857;['c', 'a', 'r', 't', 'e', 'r', 'o'];0;[1.8876320999115705, 2.0210988000035286, 2.138724699616432, 2.308462099637836, 2.3881599996238947, 2.5486586997285485, 2.6483119996264577];cartero;C:\2023\REPSWITCH21092023\REPSWITCH_excgange\REPSWITCH_excgange\data/340201_REPSWITCH1_version2_list1_2023-12-12_09h18.08.937_micRespv2l1_recorded\recording_micRespv2l1_2023-12-12_09h22.51.892.wav;292.9080057;;None;292.9080057;292.9080057;292.9080057;292.9080057;292.9080057;292.9080057;;;;;;340201;1;2023-12-12_09h18.08.937;REPSWITCH1_version2_list1;2022.2.4;143.9099469;
REPSWITCH1/PICTURE_242.png;cartero;speak;darkblue;switch;2;T;3;1;1;2;Stim3_Set3;0;None;59;58;59;0;58;58;58;;;;;;;;;;;;;;;;;;;;;;;293.4081432;294.4151666;294.4151666;294.4151666;294.4151666;294.4151666;294.4151666;294.4151666;294.4151666;None;0;;;C:\2023\REPSWITCH21092023\REPSWITCH_excgange\REPSWITCH_excgange\data/340201_REPSWITCH1_version2_list1_2023-12-12_09h18.08.937_micRespv2l1_recorded\recording_micRespv2l1_2023-12-12_09h22.56.427.wav;297.436418;297.9364709;None;297.436418;297.436418;297.436418;297.436418;297.436418;297.436418;;;;;;340201;1;2023-12-12_09h18.08.937;REPSWITCH1_version2_list1;2022.2.4;143.9099469;
REPSWITCH1/PICTURE_152.png;caracol;speak;darkblue;filler;2;F;3;1;1;2;Stim2_Set2;0;None;60;59;60;0;59;59;59;;;;;;;;;;;;;;;;;;;;;;;297.9364709;298.9852004;298.9852004;298.9852004;298.9852004;298.9852004;298.9852004;298.9852004;298.9852004;None;0;;;C:\2023\REPSWITCH21092023\REPSWITCH_excgange\REPSWITCH_excgange\data/340201_REPSWITCH1_version2_list1_2023-12-12_09h18.08.937_micRespv2l1_recorded\recording_micRespv2l1_2023-12-12_09h23.00.998.wav;302.0133963;;None;302.0133963;302.0133963;302.0133963;302.0133963;302.0133963;302.0133963;;;;;;340201;1;2023-12-12_09h18.08.937;REPSWITCH1_version2_list1;2022.2.4;143.9099469;
REPSWITCH1/PICTURE_517.png;cuerda;type;gold;filler;1;F;3;1;1;2;Stim4_Set2;0;None;61;60;61;0;60;60;60;;;;;;;;;;;;;;;;;;;;;;;302.5135493;303.6733886;303.6733886;303.6733886;303.6733886;303.6733886;303.6733886;303.6733886;303.6733886;['c', 'u', 'e', 'r', 'd', 'a'];0;[0.8533244002610445, 1.0269614001736045, 1.1873771999962628, 1.342837099917233, 1.503337699919939, 1.5820848001167178];cuerda;C:\2023\REPSWITCH21092023\REPSWITCH_excgange\REPSWITCH_excgange\data/340201_REPSWITCH1_version2_list1_2023-12-12_09h18.08.937_micRespv2l1_recorded\recording_micRespv2l1_2023-12-12_09h23.05.686.wav;306.7015066;;None;306.7015066;306.7015066;306.7015066;306.7015066;306.7015066;306.7015066;;;;;;340201;1;2023-12-12_09h18.08.937;REPSWITCH1_version2_list1;2022.2.4;143.9099469;
REPSWITCH1/PICTURE_235.png;aguja;speak;darkblue;nontarget;2;NT;3;1;1;2;Stim4_Set3;1;switch;62;61;62;0;61;61;61;;;;;;;;;;;;;;;;;;;;;;;307.2015648;308.2780949;308.2780949;308.2780949;308.2780949;308.2780949;308.2780949;308.2780949;308.2780949;None;0;;;C:\2023\REPSWITCH21092023\REPSWITCH_excgange\REPSWITCH_excgange\data/340201_REPSWITCH1_version2_list1_2023-12-12_09h18.08.937_micRespv2l1_recorded\recording_micRespv2l1_2023-12-12_09h23.10.290.wav;311.3062818;;None;311.3062818;311.3062818;311.3062818;311.3062818;311.3062818;311.3062818;;;;;;340201;1;2023-12-12_09h18.08.937;REPSWITCH1_version2_list1;2022.2.4;143.9099469;
REPSWITCH1/PICTURE_235.png;aguja;speak;darkblue;repeat;2;T;3;1;1;2;Stim4_Set3;0;None;63;62;63;0;62;62;62;;;;;;;;;;;;;;;;;;;;;;;311.8064181;312.8828951;312.8828951;312.8828951;312.8828951;312.8828951;312.8828951;312.8828951;312.8828951;None;0;;;C:\2023\REPSWITCH21092023\REPSWITCH_excgange\REPSWITCH_excgange\data/340201_REPSWITCH1_version2_list1_2023-12-12_09h18.08.937_micRespv2l1_recorded\recording_micRespv2l1_2023-12-12_09h23.14.894.wav;315.904087;316.4041562;None;315.904087;315.904087;315.904087;315.904087;315.904087;315.904087;;;;;;340201;1;2023-12-12_09h18.08.937;REPSWITCH1_version2_list1;2022.2.4;143.9099469;
REPSWITCH1/PICTURE_30.png;granja;type;gold;filler;1;F;3;1;1;2;Stim5_Set2;0;None;64;63;64;0;63;63;63;;;;;;;;;;;;;;;;;;;;;;;316.4041562;317.522373;317.522373;317.522373;317.522373;317.522373;317.522373;317.522373;317.522373;['g', 'r', 'a', 'n', 'j', 'a'];0;[1.0187296997755766, 1.1852036998607218, 1.3356637000106275, 1.5971295996569097, 1.877743899822235, 1.9870899999514222];granja;C:\2023\REPSWITCH21092023\REPSWITCH_excgange\REPSWITCH_excgange\data/340201_REPSWITCH1_version2_list1_2023-12-12_09h18.08.937_micRespv2l1_recorded\recording_micRespv2l1_2023-12-12_09h23.19.535.wav;320.5505485;;None;320.5505485;320.5505485;320.5505485;320.5505485;320.5505485;320.5505485;;;;;;340201;1;2023-12-12_09h18.08.937;REPSWITCH1_version2_list1;2022.2.4;143.9099469;
REPSWITCH1/PICTURE_552.png;manzana;speak;darkblue;filler;2;F;3;1;1;2;Stim6_Set2;1;switch;65;64;65;0;64;64;64;;;;;;;;;;;;;;;;;;;;;;;321.0506213;322.1896702;322.1896702;322.1896702;322.1896702;322.1896702;322.1896702;322.1896702;322.1896702;None;0;;;C:\2023\REPSWITCH21092023\REPSWITCH_excgange\REPSWITCH_excgange\data/340201_REPSWITCH1_version2_list1_2023-12-12_09h18.08.937_micRespv2l1_recorded\recording_micRespv2l1_2023-12-12_09h23.24.202.wav;325.2108936;325.7110164;None;325.2108936;325.2108936;325.2108936;325.2108936;325.2108936;325.2108936;;;;;;340201;1;2023-12-12_09h18.08.937;REPSWITCH1_version2_list1;2022.2.4;143.9099469;
REPSWITCH1/PICTURE_35.png;oreja;speak;darkblue;nontarget;2;NT;3;1;1;2;Stim5_Set3;1;repeat;66;65;66;0;65;65;65;;;;;;;;;;;;;;;;;;;;;;;325.7110164;326.8499759;326.8499759;326.8499759;326.8499759;326.8499759;326.8499759;326.8499759;326.8499759;None;0;;;C:\2023\REPSWITCH21092023\REPSWITCH_excgange\REPSWITCH_excgange\data/340201_REPSWITCH1_version2_list1_2023-12-12_09h18.08.937_micRespv2l1_recorded\recording_micRespv2l1_2023-12-12_09h23.28.862.wav;329.8711879;330.3712844;None;329.8711879;329.8711879;329.8711879;329.8711879;329.8711879;329.8711879;;;;;;340201;1;2023-12-12_09h18.08.937;REPSWITCH1_version2_list1;2022.2.4;143.9099469;
REPSWITCH1/PICTURE_35.png;oreja;speak;darkblue;repeat;2;T;3;1;1;2;Stim5_Set3;0;None;67;66;67;0;66;66;66;;;;;;;;;;;;;;;;;;;;;;;330.3712844;331.4617185;331.4617185;331.4617185;331.4617185;331.4617185;331.4617185;331.4617185;331.4617185;None;0;;;C:\2023\REPSWITCH21092023\REPSWITCH_excgange\REPSWITCH_excgange\data/340201_REPSWITCH1_version2_list1_2023-12-12_09h18.08.937_micRespv2l1_recorded\recording_micRespv2l1_2023-12-12_09h23.33.474.wav;334.48987;;None;334.48987;334.48987;334.48987;334.48987;334.48987;334.48987;;;;;;340201;1;2023-12-12_09h18.08.937;REPSWITCH1_version2_list1;2022.2.4;143.9099469;
REPSWITCH1/PICTURE_673.png;tenedor;type;gold;filler;1;F;3;1;1;2;Extra5;0;None;68;67;68;0;67;67;67;;;;;;;;;;;;;;;;;;;;;;;334.9899746;336.1428575;336.1428575;336.1428575;336.1428575;336.1428575;336.1428575;336.1428575;336.1428575;['t', 'e', 'n', 'e', 'd', 'o', 'r'];0;[1.0346257998608053, 1.21601099986583, 1.339654099661857, 1.7919605998322368, 2.021288199815899, 2.5760439997538924, 2.643809899687767];tenedor;C:\2023\REPSWITCH21092023\REPSWITCH_excgange\REPSWITCH_excgange\data/340201_REPSWITCH1_version2_list1_2023-12-12_09h18.08.937_micRespv2l1_recorded\recording_micRespv2l1_2023-12-12_09h23.38.155.wav;339.171019;;None;339.171019;339.171019;339.171019;339.171019;339.171019;339.171019;;;;;;340201;1;2023-12-12_09h18.08.937;REPSWITCH1_version2_list1;2022.2.4;143.9099469;
REPSWITCH1/PICTURE_464.png;goma;speak;darkblue;nontarget;2;NT;3;1;1;2;Stim6_Set3;0;None;69;68;69;0;68;68;68;;;;;;;;;;;;;;;;;;;;;;;339.6711605;340.7893992;340.7893992;340.7893992;340.7893992;340.7893992;340.7893992;340.7893992;340.7893992;None;0;;;C:\2023\REPSWITCH21092023\REPSWITCH_excgange\REPSWITCH_excgange\data/340201_REPSWITCH1_version2_list1_2023-12-12_09h18.08.937_micRespv2l1_recorded\recording_micRespv2l1_2023-12-12_09h23.42.801.wav;343.8106169;344.3106134;None;343.8106169;343.8106169;343.8106169;343.8106169;343.8106169;343.8106169;;;;;;340201;1;2023-12-12_09h18.08.937;REPSWITCH1_version2_list1;2022.2.4;143.9099469;
REPSWITCH1/PICTURE_464.png;goma;type;gold;switch;1;T;3;1;1;2;Stim6_Set3;0;None;70;69;70;0;69;69;69;;;;;;;;;;;;;;;;;;;;;;;344.3106134;345.5399466;345.5399466;345.5399466;345.5399466;345.5399466;345.5399466;345.5399466;345.5399466;['g', 'o', 'm', 'a'];0;[1.0152398003265262, 1.3112071002833545, 1.5485100001096725, 1.6391668999567628];goma;C:\2023\REPSWITCH21092023\REPSWITCH_excgange\REPSWITCH_excgange\data/340201_REPSWITCH1_version2_list1_2023-12-12_09h18.08.937_micRespv2l1_recorded\recording_micRespv2l1_2023-12-12_09h23.47.552.wav;348.5611514;349.0612386;None;348.5611514;348.5611514;348.5611514;348.5611514;348.5611514;348.5611514;;;;;;340201;1;2023-12-12_09h18.08.937;REPSWITCH1_version2_list1;2022.2.4;143.9099469;
REPSWITCH1/PICTURE_264.png;mano;speak;darkblue;filler;2;F;3;1;1;2;Stim3_Set2;0;None;71;70;71;0;70;70;70;;;;;;;;;;;;;;;;;;;;;;;349.0612386;350.1516293;350.1516293;350.1516293;350.1516293;350.1516293;350.1516293;350.1516293;350.1516293;None;0;;;C:\2023\REPSWITCH21092023\REPSWITCH_excgange\REPSWITCH_excgange\data/340201_REPSWITCH1_version2_list1_2023-12-12_09h18.08.937_micRespv2l1_recorded\recording_micRespv2l1_2023-12-12_09h23.52.164.wav;353.1798987;;None;353.1798987;353.1798987;353.1798987;353.1798987;353.1798987;353.1798987;;;;;;340201;1;2023-12-12_09h18.08.937;REPSWITCH1_version2_list1;2022.2.4;143.9099469;
REPSWITCH1/PICTURE_271.png;conejo;type;gold;nontarget;1;NT;3;1;1;2;Stim7_Set3;1;switch;72;71;72;0;71;71;71;;;;;;;;;;;;;;;;;;;;;;;353.6799006;354.7495599;354.7495599;354.7495599;354.7495599;354.7495599;354.7495599;354.7495599;354.7495599;['c', 'o', 'n', 'e', 'j', 'o'];0;[1.0148827000521123, 1.1552810999564826, 1.3785386998206377, 1.4871621998026967, 1.6307473997585475, 1.8532336996868253];conejo;C:\2023\REPSWITCH21092023\REPSWITCH_excgange\REPSWITCH_excgange\data/340201_REPSWITCH1_version2_list1_2023-12-12_09h18.08.937_micRespv2l1_recorded\recording_micRespv2l1_2023-12-12_09h23.56.761.wav;357.7707622;358.2707845;None;357.7707622;357.7707622;357.7707622;357.7707622;357.7707622;357.7707622;;;;;;340201;1;2023-12-12_09h18.08.937;REPSWITCH1_version2_list1;2022.2.4;143.9099469;
REPSWITCH1/PICTURE_271.png;conejo;type;gold;repeat;1;T;3;1;1;2;Stim7_Set3;0;None;73;72;73;0;72;72;72;;;;;;;;;;;;;;;;;;;;;;;358.2707845;359.4584212;359.4584212;359.4584212;359.4584212;359.4584212;359.4584212;359.4584212;359.4584212;['c', 'o', 'n', 'e', 'j', 'o'];0;[1.0271200998686254, 1.1606385996565223, 1.408836799673736, 1.5555027998052537, 1.6512854997999966, 1.858875900041312];conejo;C:\2023\REPSWITCH21092023\REPSWITCH_excgange\REPSWITCH_excgange\data/340201_REPSWITCH1_version2_list1_2023-12-12_09h18.08.937_micRespv2l1_recorded\recording_micRespv2l1_2023-12-12_09h24.01.471.wav;362.4796298;362.9797284;None;362.4796298;362.4796298;362.4796298;362.4796298;362.4796298;362.4796298;;;;;;340201;1;2023-12-12_09h18.08.937;REPSWITCH1_version2_list1;2022.2.4;143.9099469;
REPSWITCH1/PICTURE_446.png;cerdo;speak;darkblue;filler;2;F;3;1;1;2;Stim7_Set2;0;None;74;73;74;0;73;73;73;;;;;;;;;;;;;;;;;;;;;;;362.9797284;364.1882348;364.1882348;364.1882348;364.1882348;364.1882348;364.1882348;364.1882348;364.1882348;None;0;;;C:\2023\REPSWITCH21092023\REPSWITCH_excgange\REPSWITCH_excgange\data/340201_REPSWITCH1_version2_list1_2023-12-12_09h18.08.937_micRespv2l1_recorded\recording_micRespv2l1_2023-12-12_09h24.06.201.wav;367.216398;;None;367.216398;367.216398;367.216398;367.216398;367.216398;367.216398;;;;;;340201;1;2023-12-12_09h18.08.937;REPSWITCH1_version2_list1;2022.2.4;143.9099469;
REPSWITCH1/PICTURE_199.png;falda;type;gold;filler;1;F;3;1;1;2;Stim8_Set2;1;switch;75;74;75;0;74;74;74;;;;;;;;;;;;;;;;;;;;;;;367.7164633;368.8416123;368.8416123;368.8416123;368.8416123;368.8416123;368.8416123;368.8416123;368.8416123;['f', 'a', 'l', 'd', 'a'];0;[0.9902925998903811, 1.148811399936676, 1.3232110999524593, 1.6461892002262175, 1.7449022000655532];falda;C:\2023\REPSWITCH21092023\REPSWITCH_excgange\REPSWITCH_excgange\data/340201_REPSWITCH1_version2_list1_2023-12-12_09h18.08.937_micRespv2l1_recorded\recording_micRespv2l1_2023-12-12_09h24.10.854.wav;371.8628103;372.3629103;None;371.8628103;371.8628103;371.8628103;371.8628103;371.8628103;371.8628103;;;;;;340201;1;2023-12-12_09h18.08.937;REPSWITCH1_version2_list1;2022.2.4;143.9099469;
REPSWITCH1/PICTURE_320.png;iglesia;type;gold;nontarget;1;NT;3;1;1;2;Stim8_Set3;1;repeat;76;75;76;0;75;75;75;;;;;;;;;;;;;;;;;;;;;;;372.3629103;373.4533009;373.4533009;373.4533009;373.4533009;373.4533009;373.4533009;373.4533009;373.4533009;['i', 'g', 'l', 'e', 's', 'i', 'a'];0;[1.2085793996229768, 1.4208616996183991, 1.5750838997773826, 1.7186049995943904, 1.935944499913603, 2.1502158995717764, 2.2737981998361647];iglesia;C:\2023\REPSWITCH21092023\REPSWITCH_excgange\REPSWITCH_excgange\data/340201_REPSWITCH1_version2_list1_2023-12-12_09h18.08.937_micRespv2l1_recorded\recording_micRespv2l1_2023-12-12_09h24.15.466.wav;376.4814999;;None;376.4814999;376.4814999;376.4814999;376.4814999;376.4814999;376.4814999;;;;;;340201;1;2023-12-12_09h18.08.937;REPSWITCH1_version2_list1;2022.2.4;143.9099469;
REPSWITCH1/PICTURE_320.png;iglesia;type;gold;repeat;1;T;3;1;1;2;Stim8_Set3;0;None;77;76;77;0;76;76;76;;;;;;;;;;;;;;;;;;;;;;;376.9816265;378.0789776;378.0789776;378.0789776;378.0789776;378.0789776;378.0789776;378.0789776;378.0789776;['i', 'g', 'l', 'e', 's', 'i', 'a'];0;[0.793455199804157, 1.0306505002081394, 1.2101567001082003, 1.381906600203365, 1.654066499788314, 1.8382398001849651, 2.0435407999902964];iglesia;C:\2023\REPSWITCH21092023\REPSWITCH_excgange\REPSWITCH_excgange\data/340201_REPSWITCH1_version2_list1_2023-12-12_09h18.08.937_micRespv2l1_recorded\recording_micRespv2l1_2023-12-12_09h24.20.091.wav;381.1001444;381.6002279;None;381.1001444;381.1001444;381.1001444;381.1001444;381.1001444;381.1001444;;;;;;340201;1;2023-12-12_09h18.08.937;REPSWITCH1_version2_list1;2022.2.4;143.9099469;
REPSWITCH1/PICTURE_576.png;guante;speak;darkblue;filler;2;F;4;1;1;2;Stim1_Set3;0;None;78;77;78;0;77;77;77;;;;;;;;;;;;;;;;;;;;;;;381.6002279;382.6698607;382.6698607;382.6698607;382.6698607;382.6698607;382.6698607;382.6698607;382.6698607;None;0;;;C:\2023\REPSWITCH21092023\REPSWITCH_excgange\REPSWITCH_excgange\data/340201_REPSWITCH1_version2_list1_2023-12-12_09h18.08.937_micRespv2l1_recorded\recording_micRespv2l1_2023-12-12_09h24.24.682.wav;385.6980259;;None;385.6980259;385.6980259;385.6980259;385.6980259;385.6980259;385.6980259;;;;;;340201;1;2023-12-12_09h18.08.937;REPSWITCH1_version2_list1;2022.2.4;143.9099469;
REPSWITCH1/PICTURE_319.png;vaca;type;gold;nontarget;1;NT;4;1;1;2;Stim1_Set4;1;switch;79;78;79;0;78;78;78;;;;;;;;;;;;;;;;;;;;;;;386.1980321;387.281591;387.281591;387.281591;387.281591;387.281591;387.281591;387.281591;387.281591;['v', 'a', 'c', 'a'];0;[1.0955722001381218, 1.216187299694866, 1.3448363998904824, 1.4349182001315057];vaca;C:\2023\REPSWITCH21092023\REPSWITCH_excgange\REPSWITCH_excgange\data/340201_REPSWITCH1_version2_list1_2023-12-12_09h18.08.937_micRespv2l1_recorded\recording_micRespv2l1_2023-12-12_09h24.29.293.wav;390.3027627;390.8028132;None;390.3027627;390.3027627;390.3027627;390.3027627;390.3027627;390.3027627;;;;;;340201;1;2023-12-12_09h18.08.937;REPSWITCH1_version2_list1;2022.2.4;143.9099469;
REPSWITCH1/PICTURE_319.png;vaca;type;gold;repeat;1;T;4;1;1;2;Stim1_Set4;0;None;80;79;80;0;79;79;79;;;;;;;;;;;;;;;;;;;;;;;390.8028132;391.8724401;391.8724401;391.8724401;391.8724401;391.8724401;391.8724401;391.8724401;391.8724401;['v', 'a', 'c', 'a'];0;[0.9374710000120103, 1.0471012997440994, 1.1746602999046445, 1.2636313997209072];vaca;C:\2023\REPSWITCH21092023\REPSWITCH_excgange\REPSWITCH_excgange\data/340201_REPSWITCH1_version2_list1_2023-12-12_09h18.08.937_micRespv2l1_recorded\recording_micRespv2l1_2023-12-12_09h24.33.884.wav;394.8937188;395.3937679;None;394.8937188;394.8937188;394.8937188;394.8937188;394.8937188;394.8937188;;;;;;340201;1;2023-12-12_09h18.08.937;REPSWITCH1_version2_list1;2022.2.4;143.9099469;
REPSWITCH1/PICTURE_719.png;baño;type;gold;nontarget;1;NT;4;1;1;2;Stim2_Set4;0;None;81;80;81;0;80;80;80;;;;;;;;;;;;;;;;;;;;;;;395.3937679;396.4980025;396.4980025;396.4980025;396.4980025;396.4980025;396.4980025;396.4980025;396.4980025;['b', 'a', 'ñ', 'o'];0;[1.0736007997766137, 1.193186900112778, 1.7648771000094712, 2.0041013001464307];baño;C:\2023\REPSWITCH21092023\REPSWITCH_excgange\REPSWITCH_excgange\data/340201_REPSWITCH1_version2_list1_2023-12-12_09h18.08.937_micRespv2l1_recorded\recording_micRespv2l1_2023-12-12_09h24.38.510.wav;399.5192153;400.0193181;None;399.5192153;399.5192153;399.5192153;399.5192153;399.5192153;399.5192153;;;;;;340201;1;2023-12-12_09h18.08.937;REPSWITCH1_version2_list1;2022.2.4;143.9099469;
REPSWITCH1/PICTURE_719.png;baño;speak;darkblue;switch;2;T;4;1;1;2;Stim2_Set4;0;None;82;81;82;0;81;81;81;;;;;;;;;;;;;;;;;;;;;;;400.0193181;401.1444669;401.1444669;401.1444669;401.1444669;401.1444669;401.1444669;401.1444669;401.1444669;None;0;;;C:\2023\REPSWITCH21092023\REPSWITCH_excgange\REPSWITCH_excgange\data/340201_REPSWITCH1_version2_list1_2023-12-12_09h18.08.937_micRespv2l1_recorded\recording_micRespv2l1_2023-12-12_09h24.43.157.wav;404.1726484;;None;404.1726484;404.1726484;404.1726484;404.1726484;404.1726484;404.1726484;;;;;;340201;1;2023-12-12_09h18.08.937;REPSWITCH1_version2_list1;2022.2.4;143.9099469;
REPSWITCH1/PICTURE_242.png;cartero;speak;darkblue;filler;2;F;4;1;1;2;Stim3_Set3;1;repeat;83;82;83;0;82;82;82;;;;;;;;;;;;;;;;;;;;;;;404.6727002;405.7423183;405.7423183;405.7423183;405.7423183;405.7423183;405.7423183;405.7423183;405.7423183;None;0;;;C:\2023\REPSWITCH21092023\REPSWITCH_excgange\REPSWITCH_excgange\data/340201_REPSWITCH1_version2_list1_2023-12-12_09h18.08.937_micRespv2l1_recorded\recording_micRespv2l1_2023-12-12_09h24.47.754.wav;408.7704632;409.270597;None;408.7704632;408.7704632;408.7704632;408.7704632;408.7704632;408.7704632;;;;;;340201;1;2023-12-12_09h18.08.937;REPSWITCH1_version2_list1;2022.2.4;143.9099469;
REPSWITCH1/PICTURE_610.png;miel;type;gold;filler;1;F;4;1;1;2;Stim2_Set3;0;None;84;83;84;0;83;83;83;;;;;;;;;;;;;;;;;;;;;;;409.270597;410.3470469;410.3470469;410.3470469;410.3470469;410.3470469;410.3470469;410.3470469;410.3470469;['m', 'i', 'e', 'l'];0;[1.0008220998570323, 1.1871934002265334, 1.2842230000533164, 1.4449669998139143];miel;C:\2023\REPSWITCH21092023\REPSWITCH_excgange\REPSWITCH_excgange\data/340201_REPSWITCH1_version2_list1_2023-12-12_09h18.08.937_micRespv2l1_recorded\recording_micRespv2l1_2023-12-12_09h24.52.359.wav;413.3683208;413.8683519;None;413.3683208;413.3683208;413.3683208;413.3683208;413.3683208;413.3683208;;;;;;340201;1;2023-12-12_09h18.08.937;REPSWITCH1_version2_list1;2022.2.4;143.9099469;
REPSWITCH1/PICTURE_8.png;pierna;speak;darkblue;nontarget;2;NT;4;1;1;2;Stim3_Set4;1;switch;85;84;85;0;84;84;84;;;;;;;;;;;;;;;;;;;;;;;413.8683519;415.0004405;415.0004405;415.0004405;415.0004405;415.0004405;415.0004405;415.0004405;415.0004405;None;0;;;C:\2023\REPSWITCH21092023\REPSWITCH_excgange\REPSWITCH_excgange\data/340201_REPSWITCH1_version2_list1_2023-12-12_09h18.08.937_micRespv2l1_recorded\recording_micRespv2l1_2023-12-12_09h24.57.013.wav;418.0286901;418.5287094;None;418.0286901;418.0286901;418.0286901;418.0286901;418.0286901;418.0286901;;;;;;340201;1;2023-12-12_09h18.08.937;REPSWITCH1_version2_list1;2022.2.4;143.9099469;
REPSWITCH1/PICTURE_8.png;pierna;speak;darkblue;repeat;2;T;4;1;1;2;Stim3_Set4;0;None;86;85;86;0;85;85;85;;;;;;;;;;;;;;;;;;;;;;;418.5287094;419.702522;419.702522;419.702522;419.702522;419.702522;419.702522;419.702522;419.702522;None;0;;;C:\2023\REPSWITCH21092023\REPSWITCH_excgange\REPSWITCH_excgange\data/340201_REPSWITCH1_version2_list1_2023-12-12_09h18.08.937_micRespv2l1_recorded\recording_micRespv2l1_2023-12-12_09h25.01.713.wav;422.723695;423.2237509;None;422.723695;422.723695;422.723695;422.723695;422.723695;422.723695;;;;;;340201;1;2023-12-12_09h18.08.937;REPSWITCH1_version2_list1;2022.2.4;143.9099469;
REPSWITCH1/PICTURE_498.png;taza;speak;darkblue;nontarget;2;NT;4;1;1;2;Stim4_Set4;1;repeat;87;86;87;0;86;86;86;;;;;;;;;;;;;;;;;;;;;;;423.2237509;424.265543;424.265543;424.265543;424.265543;424.265543;424.265543;424.265543;424.265543;None;0;;;C:\2023\REPSWITCH21092023\REPSWITCH_excgange\REPSWITCH_excgange\data/340201_REPSWITCH1_version2_list1_2023-12-12_09h18.08.937_micRespv2l1_recorded\recording_micRespv2l1_2023-12-12_09h25.06.277.wav;427.2868532;427.7868569;None;427.2868532;427.2868532;427.2868532;427.2868532;427.2868532;427.2868532;;;;;;340201;1;2023-12-12_09h18.08.937;REPSWITCH1_version2_list1;2022.2.4;143.9099469;
REPSWITCH1/PICTURE_498.png;taza;type;gold;switch;1;T;4;1;1;2;Stim4_Set4;0;None;88;87;88;0;87;87;87;;;;;;;;;;;;;;;;;;;;;;;427.7868569;428.8703534;428.8703534;428.8703534;428.8703534;428.8703534;428.8703534;428.8703534;428.8703534;['t', 'a', 'z', 'a'];0;[0.992537499871105, 1.1001924998126924, 1.2905713999643922, 1.3504030997864902];taza;C:\2023\REPSWITCH21092023\REPSWITCH_excgange\REPSWITCH_excgange\data/340201_REPSWITCH1_version2_list1_2023-12-12_09h18.08.937_micRespv2l1_recorded\recording_micRespv2l1_2023-12-12_09h25.10.882.wav;431.8915556;432.3916933;None;431.8915556;431.8915556;431.8915556;431.8915556;431.8915556;431.8915556;;;;;;340201;1;2023-12-12_09h18.08.937;REPSWITCH1_version2_list1;2022.2.4;143.9099469;
REPSWITCH1/PICTURE_235.png;aguja;speak;darkblue;filler;2;F;4;1;1;2;Stim4_Set3;0;None;89;88;89;0;88;88;88;;;;;;;;;;;;;;;;;;;;;;;432.3916933;433.5376535;433.5376535;433.5376535;433.5376535;433.5376535;433.5376535;433.5376535;433.5376535;None;0;;;C:\2023\REPSWITCH21092023\REPSWITCH_excgange\REPSWITCH_excgange\data/340201_REPSWITCH1_version2_list1_2023-12-12_09h18.08.937_micRespv2l1_recorded\recording_micRespv2l1_2023-12-12_09h25.15.550.wav;436.5657772;;None;436.5657772;436.5657772;436.5657772;436.5657772;436.5657772;436.5657772;;;;;;340201;1;2023-12-12_09h18.08.937;REPSWITCH1_version2_list1;2022.2.4;143.9099469;
REPSWITCH1/PICTURE_35.png;oreja;type;gold;filler;1;F;4;1;1;2;Stim5_Set3;0;None;90;89;90;0;89;89;89;;;;;;;;;;;;;;;;;;;;;;;437.065853;438.1979315;438.1979315;438.1979315;438.1979315;438.1979315;438.1979315;438.1979315;438.1979315;['o', 'r', 'e', 'j', 'a'];0;[1.2100249999202788, 1.3975812997668982, 1.6091276998631656, 1.8252224000170827, 1.9249010998755693];oreja;C:\2023\REPSWITCH21092023\REPSWITCH_excgange\REPSWITCH_excgange\data/340201_REPSWITCH1_version2_list1_2023-12-12_09h18.08.937_micRespv2l1_recorded\recording_micRespv2l1_2023-12-12_09h25.20.210.wav;441.2260907;;None;441.2260907;441.2260907;441.2260907;441.2260907;441.2260907;441.2260907;;;;;;340201;1;2023-12-12_09h18.08.937;REPSWITCH1_version2_list1;2022.2.4;143.9099469;
REPSWITCH1/PICTURE_687.png;camisa;type;gold;nontarget;1;NT;4;1;1;2;Stim5_Set4;1;repeat;91;90;91;0;90;90;90;;;;;;;;;;;;;;;;;;;;;;;441.7261615;442.7471199;442.7471199;442.7471199;442.7471199;442.7471199;442.7471199;442.7471199;442.7471199;['c', 'a', 'm', 'i', 's', 'a'];0;[0.9064213996753097, 1.048895999789238, 1.2313298997469246, 1.4256482999771833, 1.5004102997481823, 1.7017530999146402];camisa;C:\2023\REPSWITCH21092023\REPSWITCH_excgange\REPSWITCH_excgange\data/340201_REPSWITCH1_version2_list1_2023-12-12_09h18.08.937_micRespv2l1_recorded\recording_micRespv2l1_2023-12-12_09h25.24.759.wav;445.7753172;;None;445.7753172;445.7753172;445.7753172;445.7753172;445.7753172;445.7753172;;;;;;340201;1;2023-12-12_09h18.08.937;REPSWITCH1_version2_list1;2022.2.4;143.9099469;
REPSWITCH1/PICTURE_687.png;camisa;speak;darkblue;switch;2;T;4;1;1;2;Stim5_Set4;0;None;92;91;92;0;91;91;91;;;;;;;;;;;;;;;;;;;;;;;446.2753725;447.4144124;447.4144124;447.4144124;447.4144124;447.4144124;447.4144124;447.4144124;447.4144124;None;0;;;C:\2023\REPSWITCH21092023\REPSWITCH_excgange\REPSWITCH_excgange\data/340201_REPSWITCH1_version2_list1_2023-12-12_09h18.08.937_micRespv2l1_recorded\recording_micRespv2l1_2023-12-12_09h25.29.426.wav;450.4356567;450.9357872;None;450.4356567;450.4356567;450.4356567;450.4356567;450.4356567;450.4356567;;;;;;340201;1;2023-12-12_09h18.08.937;REPSWITCH1_version2_list1;2022.2.4;143.9099469;
REPSWITCH1/PICTURE_338.png;regalo;speak;darkblue;nontarget;2;NT;4;1;1;2;Stim6_Set4;0;None;93;92;93;0;92;92;92;;;;;;;;;;;;;;;;;;;;;;;450.9357872;451.9705794;451.9705794;451.9705794;451.9705794;451.9705794;451.9705794;451.9705794;451.9705794;None;0;;;C:\2023\REPSWITCH21092023\REPSWITCH_excgange\REPSWITCH_excgange\data/340201_REPSWITCH1_version2_list1_2023-12-12_09h18.08.937_micRespv2l1_recorded\recording_micRespv2l1_2023-12-12_09h25.33.982.wav;454.9917782;455.4919484;None;454.9917782;454.9917782;454.9917782;454.9917782;454.9917782;454.9917782;;;;;;340201;1;2023-12-12_09h18.08.937;REPSWITCH1_version2_list1;2022.2.4;143.9099469;
REPSWITCH1/PICTURE_338.png;regalo;speak;darkblue;repeat;2;T;4;1;1;2;Stim6_Set4;0;None;94;93;94;0;93;93;93;;;;;;;;;;;;;;;;;;;;;;;455.4919484;456.5614443;456.5614443;456.5614443;456.5614443;456.5614443;456.5614443;456.5614443;456.5614443;None;0;;;C:\2023\REPSWITCH21092023\REPSWITCH_excgange\REPSWITCH_excgange\data/340201_REPSWITCH1_version2_list1_2023-12-12_09h18.08.937_micRespv2l1_recorded\recording_micRespv2l1_2023-12-12_09h25.38.573.wav;459.589643;;None;459.589643;459.589643;459.589643;459.589643;459.589643;459.589643;;;;;;340201;1;2023-12-12_09h18.08.937;REPSWITCH1_version2_list1;2022.2.4;143.9099469;
REPSWITCH1/PICTURE_663.png;columna;type;gold;filler;1;F;4;1;1;2;Extra6;0;None;95;94;95;0;94;94;94;;;;;;;;;;;;;;;;;;;;;;;460.0897008;461.1384806;461.1384806;461.1384806;461.1384806;461.1384806;461.1384806;461.1384806;461.1384806;['c', 'o', 'l', 'u', 'm', 'n', 'a'];0;[1.1698400001041591, 1.3629270000383258, 1.5463762003928423, 1.784831800032407, 1.9869283004663885, 2.152853200212121, 2.2538250000216067];columna;C:\2023\REPSWITCH21092023\REPSWITCH_excgange\REPSWITCH_excgange\data/340201_REPSWITCH1_version2_list1_2023-12-12_09h18.08.937_micRespv2l1_recorded\recording_micRespv2l1_2023-12-12_09h25.43.150.wav;464.1666255;;None;464.1666255;464.1666255;464.1666255;464.1666255;464.1666255;464.1666255;;;;;;340201;1;2023-12-12_09h18.08.937;REPSWITCH1_version2_list1;2022.2.4;143.9099469;
REPSWITCH1/PICTURE_271.png;conejo;speak;darkblue;filler;2;F;4;1;1;2;Stim7_Set3;0;None;96;95;96;0;95;95;95;;;;;;;;;;;;;;;;;;;;;;;464.6666966;465.7848895;465.7848895;465.7848895;465.7848895;465.7848895;465.7848895;465.7848895;465.7848895;None;0;;;C:\2023\REPSWITCH21092023\REPSWITCH_excgange\REPSWITCH_excgange\data/340201_REPSWITCH1_version2_list1_2023-12-12_09h18.08.937_micRespv2l1_recorded\recording_micRespv2l1_2023-12-12_09h25.47.797.wav;468.8130471;469.3131114;None;468.8130471;468.8130471;468.8130471;468.8130471;468.8130471;468.8130471;;;;;;340201;1;2023-12-12_09h18.08.937;REPSWITCH1_version2_list1;2022.2.4;143.9099469;
REPSWITCH1/PICTURE_48.png;bombero;speak;darkblue;nontarget;2;NT;4;1;1;2;Stim7_Set4;0;None;97;96;97;0;96;96;96;;;;;;;;;;;;;;;;;;;;;;;469.3131114;470.3618931;470.3618931;470.3618931;470.3618931;470.3618931;470.3618931;470.3618931;470.3618931;None;0;;;C:\2023\REPSWITCH21092023\REPSWITCH_excgange\REPSWITCH_excgange\data/340201_REPSWITCH1_version2_list1_2023-12-12_09h18.08.937_micRespv2l1_recorded\recording_micRespv2l1_2023-12-12_09h25.52.374.wav;473.3900319;;None;473.3900319;473.3900319;473.3900319;473.3900319;473.3900319;473.3900319;;;;;;340201;1;2023-12-12_09h18.08.937;REPSWITCH1_version2_list1;2022.2.4;143.9099469;
REPSWITCH1/PICTURE_48.png;bombero;type;gold;switch;1;T;4;1;1;2;Stim7_Set4;0;None;98;97;98;0;97;97;97;;;;;;;;;;;;;;;;;;;;;;;473.8900992;475.0014485;475.0014485;475.0014485;475.0014485;475.0014485;475.0014485;475.0014485;475.0014485;['b', 'o', 'm', 'b', 'e', 'r', 'o'];0;[0.9368110997602344, 1.2906257999129593, 1.6407246999442577, 1.9020337997935712, 2.024676099885255, 2.1916006999090314, 2.3321655998006463];bombero;C:\2023\REPSWITCH21092023\REPSWITCH_excgange\REPSWITCH_excgange\data/340201_REPSWITCH1_version2_list1_2023-12-12_09h18.08.937_micRespv2l1_recorded\recording_micRespv2l1_2023-12-12_09h25.57.014.wav;478.0295538;478.529628;None;478.0295538;478.0295538;478.0295538;478.0295538;478.0295538;478.0295538;;;;;;340201;1;2023-12-12_09h18.08.937;REPSWITCH1_version2_list1;2022.2.4;143.9099469;
REPSWITCH1/PICTURE_728.png;pulpo;type;gold;nontarget;1;NT;4;1;1;2;Stim8_Set4;0;None;99;98;99;0;98;98;98;;;;;;;;;;;;;;;;;;;;;;;478.529628;479.6478183;479.6478183;479.6478183;479.6478183;479.6478183;479.6478183;479.6478183;479.6478183;['p', 'u', 'l', 'p', 'o'];0;[1.0443386998958886, 1.282885099761188, 1.534427999984473, 1.7370432000607252, 1.9054792998358607];pulpo;C:\2023\REPSWITCH21092023\REPSWITCH_excgange\REPSWITCH_excgange\data/340201_REPSWITCH1_version2_list1_2023-12-12_09h18.08.937_micRespv2l1_recorded\recording_micRespv2l1_2023-12-12_09h26.01.659.wav;482.6690194;483.1690965;None;482.6690194;482.6690194;482.6690194;482.6690194;482.6690194;482.6690194;;;;;;340201;1;2023-12-12_09h18.08.937;REPSWITCH1_version2_list1;2022.2.4;143.9099469;
REPSWITCH1/PICTURE_728.png;pulpo;type;gold;repeat;1;T;4;1;1;2;Stim8_Set4;0;None;100;99;100;0;99;99;99;;;;;;;;;;;;;;;;;;;;;;;483.1690965;484.2248198;484.2248198;484.2248198;484.2248198;484.2248198;484.2248198;484.2248198;484.2248198;['p', 'u', 'l', 'p', 'o'];0;[1.0644982000812888, 1.3627761001698673, 1.6179379001259804, 1.8600833998061717, 1.9717346001416445];pulpo;C:\2023\REPSWITCH21092023\REPSWITCH_excgange\REPSWITCH_excgange\data/340201_REPSWITCH1_version2_list1_2023-12-12_09h18.08.937_micRespv2l1_recorded\recording_micRespv2l1_2023-12-12_09h26.06.237.wav;487.246018;487.746082;None;487.246018;487.246018;487.246018;487.246018;487.246018;487.246018;;;;;;340201;1;2023-12-12_09h18.08.937;REPSWITCH1_version2_list1;2022.2.4;143.9099469;
REPSWITCH1/PICTURE_320.png;iglesia;speak;darkblue;filler;1;F;4;1;1;2;Stim8_Set3;0;None;101;100;101;0;100;100;100;;;;;;;;;;;;;;;;;;;;;;;487.746082;488.8712745;488.8712745;488.8712745;488.8712745;488.8712745;488.8712745;488.8712745;488.8712745;None;0;;;C:\2023\REPSWITCH21092023\REPSWITCH_excgange\REPSWITCH_excgange\data/340201_REPSWITCH1_version2_list1_2023-12-12_09h18.08.937_micRespv2l1_recorded\recording_micRespv2l1_2023-12-12_09h26.10.883.wav;491.8924874;492.3925382;None;491.8924874;491.8924874;491.8924874;491.8924874;491.8924874;491.8924874;;;;;;340201;1;2023-12-12_09h18.08.937;REPSWITCH1_version2_list1;2022.2.4;143.9099469;
REPSWITCH1/PICTURE_464.png;goma;type;gold;filler;1;F;4;1;1;2;Stim6_Set3;0;None;102;101;102;0;101;101;101;;;;;;;;;;;;;;;;;;;;;;;492.3925382;493.4690683;493.4690683;493.4690683;493.4690683;493.4690683;493.4690683;493.4690683;493.4690683;['g', 'o', 'm', 'a'];0;[1.0675014997832477, 1.1979538002051413, 1.4233184000477195, 1.5691096000373363];goma;C:\2023\REPSWITCH21092023\REPSWITCH_excgange\REPSWITCH_excgange\data/340201_REPSWITCH1_version2_list1_2023-12-12_09h18.08.937_micRespv2l1_recorded\recording_micRespv2l1_2023-12-12_09h26.15.481.wav;496.4902993;496.9903639;space;496.4902993;496.4902993;496.4902993;496.4902993;496.4902993;496.4902993;496.9903639;496.9903639;13.5889082;;;340201;1;2023-12-12_09h18.08.937;REPSWITCH1_version2_list1;2022.2.4;143.9099469;
REPSWITCH1/PICTURE_663.png;columna;type;gold;filler;1;F;1;2;1;2;Extra6;0;None;103;102;1;0;102;102;102;;;;;;;;;;;;;;;;;;;;;;;510.5893725;511.7284875;511.7284875;511.7284875;511.7284875;511.7284875;511.7284875;511.7284875;511.7284875;['c', 'o', 'l', 'u', 'm', 'n', 'a'];0;[1.1999882003292441, 1.3557818001136184, 1.5235097999684513, 1.7403871002607048, 1.936998300254345, 2.109416800085455, 2.2330016000196338];columna;C:\2023\REPSWITCH21092023\REPSWITCH_excgange\REPSWITCH_excgange\data/340201_REPSWITCH1_version2_list1_2023-12-12_09h18.08.937_micRespv2l1_recorded\recording_micRespv2l1_2023-12-12_09h26.33.740.wav;514.7497125;515.2497175;None;514.7497125;514.7497125;514.7497125;514.7497125;514.7497125;514.7497125;;;;;;340201;1;2023-12-12_09h18.08.937;REPSWITCH1_version2_list1;2022.2.4;143.9099469;
REPSWITCH1/PICTURE_128.png;muñeca;speak;darkblue;nontarget;2;NT;1;2;1;2;Stim4_Set1;1;switch;104;103;2;0;103;103;103;;;;;;;;;;;;;;;;;;;;;;;515.2497175;516.3749264;516.3749264;516.3749264;516.3749264;516.3749264;516.3749264;516.3749264;516.3749264;None;0;;;C:\2023\REPSWITCH21092023\REPSWITCH_excgange\REPSWITCH_excgange\data/340201_REPSWITCH1_version2_list1_2023-12-12_09h18.08.937_micRespv2l1_recorded\recording_micRespv2l1_2023-12-12_09h26.38.387.wav;519.4030238;;None;519.4030238;519.4030238;519.4030238;519.4030238;519.4030238;519.4030238;;;;;;340201;1;2023-12-12_09h18.08.937;REPSWITCH1_version2_list1;2022.2.4;143.9099469;
REPSWITCH1/PICTURE_128.png;muñeca;speak;darkblue;repeat;2;T;1;2;1;2;Stim4_Set1;0;None;105;104;3;0;104;104;104;;;;;;;;;;;;;;;;;;;;;;;519.9031558;521.1324964;521.1324964;521.1324964;521.1324964;521.1324964;521.1324964;521.1324964;521.1324964;None;0;;;C:\2023\REPSWITCH21092023\REPSWITCH_excgange\REPSWITCH_excgange\data/340201_REPSWITCH1_version2_list1_2023-12-12_09h18.08.937_micRespv2l1_recorded\recording_micRespv2l1_2023-12-12_09h26.43.144.wav;524.1606149;;None;524.1606149;524.1606149;524.1606149;524.1606149;524.1606149;524.1606149;;;;;;340201;1;2023-12-12_09h18.08.937;REPSWITCH1_version2_list1;2022.2.4;143.9099469;
REPSWITCH1/PICTURE_8.png;pierna;type;gold;filler;1;F;1;2;1;2;Stim3_Set4;0;None;106;105;4;0;105;105;105;;;;;;;;;;;;;;;;;;;;;;;524.6606816;525.7997368;525.7997368;525.7997368;525.7997368;525.7997368;525.7997368;525.7997368;525.7997368;['p', 'i', 'e', 'r', 'n', 'a'];0;[1.022065100260079, 1.2591821998357773, 1.4084871001541615, 1.5722143999300897, 1.774523800238967, 1.91316320002079];pierna;C:\2023\REPSWITCH21092023\REPSWITCH_excgange\REPSWITCH_excgange\data/340201_REPSWITCH1_version2_list1_2023-12-12_09h18.08.937_micRespv2l1_recorded\recording_micRespv2l1_2023-12-12_09h26.47.812.wav;528.8209238;529.321059;None;528.8209238;528.8209238;528.8209238;528.8209238;528.8209238;528.8209238;;;;;;340201;1;2023-12-12_09h18.08.937;REPSWITCH1_version2_list1;2022.2.4;143.9099469;
REPSWITCH1/PICTURE_135.png;traje;speak;darkblue;nontarget;2;NT;1;2;1;2;Stim3_Set1;1;switch;107;106;5;0;106;106;106;;;;;;;;;;;;;;;;;;;;;;;529.321059;530.3628212;530.3628212;530.3628212;530.3628212;530.3628212;530.3628212;530.3628212;530.3628212;None;0;;;C:\2023\REPSWITCH21092023\REPSWITCH_excgange\REPSWITCH_excgange\data/340201_REPSWITCH1_version2_list1_2023-12-12_09h18.08.937_micRespv2l1_recorded\recording_micRespv2l1_2023-12-12_09h26.52.375.wav;533.3840446;533.8840851;None;533.3840446;533.3840446;533.3840446;533.3840446;533.3840446;533.3840446;;;;;;340201;1;2023-12-12_09h18.08.937;REPSWITCH1_version2_list1;2022.2.4;143.9099469;
REPSWITCH1/PICTURE_135.png;traje;speak;darkblue;repeat;2;T;1;2;1;2;Stim3_Set1;0;None;108;107;6;0;107;107;107;;;;;;;;;;;;;;;;;;;;;;;533.8840851;534.9745402;534.9745402;534.9745402;534.9745402;534.9745402;534.9745402;534.9745402;534.9745402;None;0;;;C:\2023\REPSWITCH21092023\REPSWITCH_excgange\REPSWITCH_excgange\data/340201_REPSWITCH1_version2_list1_2023-12-12_09h18.08.937_micRespv2l1_recorded\recording_micRespv2l1_2023-12-12_09h26.56.986.wav;537.9957512;538.4958248;None;537.9957512;537.9957512;537.9957512;537.9957512;537.9957512;537.9957512;;;;;;340201;1;2023-12-12_09h18.08.937;REPSWITCH1_version2_list1;2022.2.4;143.9099469;
REPSWITCH1/PICTURE_673.png;tenedor;type;gold;filler;1;F;1;2;1;2;Extra5;0;None;109;108;7;0;108;108;108;;;;;;;;;;;;;;;;;;;;;;;538.4958248;539.6071382;539.6071382;539.6071382;539.6071382;539.6071382;539.6071382;539.6071382;539.6071382;['t', 'e', 'n', 'e', 'd', 'o', 'r'];0;[0.9898831001482904, 1.158322500064969, 1.310767199844122, 1.4333941000513732, 1.639772499911487, 1.869461600203067, 2.009072800166905];tenedor;C:\2023\REPSWITCH21092023\REPSWITCH_excgange\REPSWITCH_excgange\data/340201_REPSWITCH1_version2_list1_2023-12-12_09h18.08.937_micRespv2l1_recorded\recording_micRespv2l1_2023-12-12_09h27.01.619.wav;542.6282848;543.128382;None;542.6282848;542.6282848;542.6282848;542.6282848;542.6282848;542.6282848;;;;;;340201;1;2023-12-12_09h18.08.937;REPSWITCH1_version2_list1;2022.2.4;143.9099469;
REPSWITCH1/PICTURE_728.png;pulpo;speak;darkblue;filler;2;F;1;2;1;2;Stim8_Set4;0;None;110;109;8;0;109;109;109;;;;;;;;;;;;;;;;;;;;;;;543.128382;544.1562853;544.1562853;544.1562853;544.1562853;544.1562853;544.1562853;544.1562853;544.1562853;None;0;;;C:\2023\REPSWITCH21092023\REPSWITCH_excgange\REPSWITCH_excgange\data/340201_REPSWITCH1_version2_list1_2023-12-12_09h18.08.937_micRespv2l1_recorded\recording_micRespv2l1_2023-12-12_09h27.06.167.wav;547.1774891;547.6775895;None;547.1774891;547.1774891;547.1774891;547.1774891;547.1774891;547.1774891;;;;;;340201;1;2023-12-12_09h18.08.937;REPSWITCH1_version2_list1;2022.2.4;143.9099469;
REPSWITCH1/PICTURE_16.png;cazador;speak;darkblue;nontarget;2;NT;1;2;1;2;Stim6_Set1;1;repeat;111;110;9;0;110;110;110;;;;;;;;;;;;;;;;;;;;;;;547.6775895;548.7749427;548.7749427;548.7749427;548.7749427;548.7749427;548.7749427;548.7749427;548.7749427;None;0;;;C:\2023\REPSWITCH21092023\REPSWITCH_excgange\REPSWITCH_excgange\data/340201_REPSWITCH1_version2_list1_2023-12-12_09h18.08.937_micRespv2l1_recorded\recording_micRespv2l1_2023-12-12_09h27.10.787.wav;551.8031198;;None;551.8031198;551.8031198;551.8031198;551.8031198;551.8031198;551.8031198;;;;;;340201;1;2023-12-12_09h18.08.937;REPSWITCH1_version2_list1;2022.2.4;143.9099469;
REPSWITCH1/PICTURE_16.png;cazador;type;gold;switch;1;T;1;2;1;2;Stim6_Set1;0;None;112;111;10;0;111;111;111;;;;;;;;;;;;;;;;;;;;;;;552.3032682;553.3867296;553.3867296;553.3867296;553.3867296;553.3867296;553.3867296;553.3867296;553.3867296;['c', 'a', 'z', 'a', 'd', 'o', 'r'];0;[1.0164804998785257, 1.1309005999937654, 1.33554059965536, 1.5432702996768057, 1.7039005998522043, 2.0287973997183144, 2.1543837999925017];cazador;C:\2023\REPSWITCH21092023\REPSWITCH_excgange\REPSWITCH_excgange\data/340201_REPSWITCH1_version2_list1_2023-12-12_09h18.08.937_micRespv2l1_recorded\recording_micRespv2l1_2023-12-12_09h27.15.398.wav;556.407948;556.9080228;None;556.407948;556.407948;556.407948;556.407948;556.407948;556.407948;;;;;;340201;1;2023-12-12_09h18.08.937;REPSWITCH1_version2_list1;2022.2.4;143.9099469;
REPSWITCH1/PICTURE_498.png;taza;type;gold;filler;1;F;1;2;1;2;Stim4_Set4;1;repeat;113;112;11;0;112;112;112;;;;;;;;;;;;;;;;;;;;;;;556.9080228;557.9776046;557.9776046;557.9776046;557.9776046;557.9776046;557.9776046;557.9776046;557.9776046;['t', 'a', 'z', 'a'];0;[0.9852666999213398, 1.076219200156629, 1.2376929000020027, 1.3163900999352336];taza;C:\2023\REPSWITCH21092023\REPSWITCH_excgange\REPSWITCH_excgange\data/340201_REPSWITCH1_version2_list1_2023-12-12_09h18.08.937_micRespv2l1_recorded\recording_micRespv2l1_2023-12-12_09h27.19.989.wav;560.9988416;561.4989038;None;560.9988416;560.9988416;560.9988416;560.9988416;560.9988416;560.9988416;;;;;;340201;1;2023-12-12_09h18.08.937;REPSWITCH1_version2_list1;2022.2.4;143.9099469;
REPSWITCH1/PICTURE_381.png;fresa;type;gold;nontarget;1;NT;1;2;1;2;Stim2_Set1;1;repeat;114;113;12;0;113;113;113;;;;;;;;;;;;;;;;;;;;;;;561.4989038;562.6309696;562.6309696;562.6309696;562.6309696;562.6309696;562.6309696;562.6309696;562.6309696;['f', 'r', 'e', 's', 'a'];0;[0.980517900083214, 1.1597966998815536, 1.3122894996777177, 1.4360806997865438, 1.6391527997329831];fresa;C:\2023\REPSWITCH21092023\REPSWITCH_excgange\REPSWITCH_excgange\data/340201_REPSWITCH1_version2_list1_2023-12-12_09h18.08.937_micRespv2l1_recorded\recording_micRespv2l1_2023-12-12_09h27.24.644.wav;565.659082;;None;565.659082;565.659082;565.659082;565.659082;565.659082;565.659082;;;;;;340201;1;2023-12-12_09h18.08.937;REPSWITCH1_version2_list1;2022.2.4;143.9099469;
REPSWITCH1/PICTURE_381.png;fresa;speak;darkblue;switch;2;T;1;2;1;2;Stim2_Set1;0;None;115;114;13;0;114;114;114;;;;;;;;;;;;;;;;;;;;;;;566.1591855;567.3329275;567.3329275;567.3329275;567.3329275;567.3329275;567.3329275;567.3329275;567.3329275;None;0;;;C:\2023\REPSWITCH21092023\REPSWITCH_excgange\REPSWITCH_excgange\data/340201_REPSWITCH1_version2_list1_2023-12-12_09h18.08.937_micRespv2l1_recorded\recording_micRespv2l1_2023-12-12_09h27.29.345.wav;570.3611012;;None;570.3611012;570.3611012;570.3611012;570.3611012;570.3611012;570.3611012;;;;;;340201;1;2023-12-12_09h18.08.937;REPSWITCH1_version2_list1;2022.2.4;143.9099469;
REPSWITCH1/PICTURE_178.png;puente;speak;darkblue;nontarget;2;NT;1;2;1;2;Stim1_Set1;0;None;116;115;14;0;115;115;115;;;;;;;;;;;;;;;;;;;;;;;570.8611956;571.9655175;571.9655175;571.9655175;571.9655175;571.9655175;571.9655175;571.9655175;571.9655175;None;0;;;C:\2023\REPSWITCH21092023\REPSWITCH_excgange\REPSWITCH_excgange\data/340201_REPSWITCH1_version2_list1_2023-12-12_09h18.08.937_micRespv2l1_recorded\recording_micRespv2l1_2023-12-12_09h27.33.978.wav;574.9936713;;None;574.9936713;574.9936713;574.9936713;574.9936713;574.9936713;574.9936713;;;;;;340201;1;2023-12-12_09h18.08.937;REPSWITCH1_version2_list1;2022.2.4;143.9099469;
REPSWITCH1/PICTURE_178.png;puente;type;gold;switch;1;T;1;2;1;2;Stim1_Set1;0;None;117;116;15;0;116;116;116;;;;;;;;;;;;;;;;;;;;;;;575.4937399;576.5772679;576.5772679;576.5772679;576.5772679;576.5772679;576.5772679;576.5772679;576.5772679;['p', 'u', 'e', 'n', 't', 'e'];0;[1.3566959002055228, 1.631127499975264, 1.829877800308168, 1.9253980000503361, 2.140677399933338, 2.230343900155276];puente;C:\2023\REPSWITCH21092023\REPSWITCH_excgange\REPSWITCH_excgange\data/340201_REPSWITCH1_version2_list1_2023-12-12_09h18.08.937_micRespv2l1_recorded\recording_micRespv2l1_2023-12-12_09h27.38.588.wav;579.5984471;580.0985112;None;579.5984471;579.5984471;579.5984471;579.5984471;579.5984471;579.5984471;;;;;;340201;1;2023-12-12_09h18.08.937;REPSWITCH1_version2_list1;2022.2.4;143.9099469;
REPSWITCH1/PICTURE_719.png;baño;speak;darkblue;filler;2;F;1;2;1;2;Stim2_Set4;0;None;118;117;16;0;117;117;117;;;;;;;;;;;;;;;;;;;;;;;580.0985112;581.1264379;581.1264379;581.1264379;581.1264379;581.1264379;581.1264379;581.1264379;581.1264379;None;0;;;C:\2023\REPSWITCH21092023\REPSWITCH_excgange\REPSWITCH_excgange\data/340201_REPSWITCH1_version2_list1_2023-12-12_09h18.08.937_micRespv2l1_recorded\recording_micRespv2l1_2023-12-12_09h27.43.139.wav;584.1545855;;None;584.1545855;584.1545855;584.1545855;584.1545855;584.1545855;584.1545855;;;;;;340201;1;2023-12-12_09h18.08.937;REPSWITCH1_version2_list1;2022.2.4;143.9099469;
REPSWITCH1/PICTURE_169.png;espalda;type;gold;nontarget;1;NT;1;2;1;2;Stim8_Set1;1;switch;119;118;17;0;118;118;118;;;;;;;;;;;;;;;;;;;;;;;584.6547448;585.6756238;585.6756238;585.6756238;585.6756238;585.6756238;585.6756238;585.6756238;585.6756238;['e', 's', 'p', 'a', 'l', 'd', 'a'];0;[0.9865561998449266, 1.172238899860531, 1.562413000036031, 1.7240010001696646, 1.817752500064671, 2.1069232998415828, 2.1956222001463175];espalda;C:\2023\REPSWITCH21092023\REPSWITCH_excgange\REPSWITCH_excgange\data/340201_REPSWITCH1_version2_list1_2023-12-12_09h18.08.937_micRespv2l1_recorded\recording_micRespv2l1_2023-12-12_09h27.47.687.wav;588.6968784;589.1969801;None;588.6968784;588.6968784;588.6968784;588.6968784;588.6968784;588.6968784;;;;;;340201;1;2023-12-12_09h18.08.937;REPSWITCH1_version2_list1;2022.2.4;143.9099469;
REPSWITCH1/PICTURE_169.png;espalda;type;gold;repeat;1;T;1;2;1;2;Stim8_Set1;0;None;120;119;18;0;119;119;119;;;;;;;;;;;;;;;;;;;;;;;589.1969801;590.3706831;590.3706831;590.3706831;590.3706831;590.3706831;590.3706831;590.3706831;590.3706831;['e', 's', 'p', 'a', 'l', 'd', 'a'];0;[0.8560287998989224, 1.0929084001109004, 1.237231200095266, 1.3638351000845432, 1.4814447001554072, 1.7794834999367595, 1.8980049001984298];espalda;C:\2023\REPSWITCH21092023\REPSWITCH_excgange\REPSWITCH_excgange\data/340201_REPSWITCH1_version2_list1_2023-12-12_09h18.08.937_micRespv2l1_recorded\recording_micRespv2l1_2023-12-12_09h27.52.383.wav;593.3919053;593.8919697;None;593.3919053;593.3919053;593.3919053;593.3919053;593.3919053;593.3919053;;;;;;340201;1;2023-12-12_09h18.08.937;REPSWITCH1_version2_list1;2022.2.4;143.9099469;
REPSWITCH1/PICTURE_48.png;bombero;speak;darkblue;filler;2;F;1;2;1;2;Stim7_Set4;1;switch;121;120;19;0;120;120;120;;;;;;;;;;;;;;;;;;;;;;;593.8919697;594.9477318;594.9477318;594.9477318;594.9477318;594.9477318;594.9477318;594.9477318;594.9477318;None;0;;;C:\2023\REPSWITCH21092023\REPSWITCH_excgange\REPSWITCH_excgange\data/340201_REPSWITCH1_version2_list1_2023-12-12_09h18.08.937_micRespv2l1_recorded\recording_micRespv2l1_2023-12-12_09h27.56.960.wav;597.9758291;;None;597.9758291;597.9758291;597.9758291;597.9758291;597.9758291;597.9758291;;;;;;340201;1;2023-12-12_09h18.08.937;REPSWITCH1_version2_list1;2022.2.4;143.9099469;
REPSWITCH1/PICTURE_19.png;pavo;type;gold;nontarget;1;NT;1;2;1;2;Stim5_Set1;1;switch;122;121;20;0;121;121;121;;;;;;;;;;;;;;;;;;;;;;;598.4759055;599.5872408;599.5872408;599.5872408;599.5872408;599.5872408;599.5872408;599.5872408;599.5872408;['p', 'a', 'v', 'o'];0;[1.0045105000026524, 1.1550443000160158, 1.3110770997591317, 1.575180099811405];pavo;C:\2023\REPSWITCH21092023\REPSWITCH_excgange\REPSWITCH_excgange\data/340201_REPSWITCH1_version2_list1_2023-12-12_09h18.08.937_micRespv2l1_recorded\recording_micRespv2l1_2023-12-12_09h28.01.599.wav;602.6083917;603.1084652;None;602.6083917;602.6083917;602.6083917;602.6083917;602.6083917;602.6083917;;;;;;340201;1;2023-12-12_09h18.08.937;REPSWITCH1_version2_list1;2022.2.4;143.9099469;
REPSWITCH1/PICTURE_19.png;pavo;type;gold;repeat;1;T;1;2;1;2;Stim5_Set1;0;None;123;122;21;0;122;122;122;;;;;;;;;;;;;;;;;;;;;;;603.1084652;604.2058269;604.2058269;604.2058269;604.2058269;604.2058269;604.2058269;604.2058269;604.2058269;['p', 'a', 'v', 'o'];0;[1.1357256998308003, 1.2675852999091148, 1.421090199612081, 1.7143070995807648];pavo;C:\2023\REPSWITCH21092023\REPSWITCH_excgange\REPSWITCH_excgange\data/340201_REPSWITCH1_version2_list1_2023-12-12_09h18.08.937_micRespv2l1_recorded\recording_micRespv2l1_2023-12-12_09h28.06.218.wav;607.2340273;;None;607.2340273;607.2340273;607.2340273;607.2340273;607.2340273;607.2340273;;;;;;340201;1;2023-12-12_09h18.08.937;REPSWITCH1_version2_list1;2022.2.4;143.9099469;
REPSWITCH1/PICTURE_319.png;vaca;speak;darkblue;filler;2;F;1;2;1;2;Stim1_Set4;0;None;124;123;22;0;123;123;123;;;;;;;;;;;;;;;;;;;;;;;607.7341374;608.8175442;608.8175442;608.8175442;608.8175442;608.8175442;608.8175442;608.8175442;608.8175442;None;0;;;C:\2023\REPSWITCH21092023\REPSWITCH_excgange\REPSWITCH_excgange\data/340201_REPSWITCH1_version2_list1_2023-12-12_09h18.08.937_micRespv2l1_recorded\recording_micRespv2l1_2023-12-12_09h28.10.829.wav;611.8388697;612.3388403;None;611.8388697;611.8388697;611.8388697;611.8388697;611.8388697;611.8388697;;;;;;340201;1;2023-12-12_09h18.08.937;REPSWITCH1_version2_list1;2022.2.4;143.9099469;
REPSWITCH1/PICTURE_338.png;regalo;type;gold;filler;1;F;1;2;1;2;Stim6_Set4;0;None;125;124;23;0;124;124;124;;;;;;;;;;;;;;;;;;;;;;;612.3388403;613.4084461;613.4084461;613.4084461;613.4084461;613.4084461;613.4084461;613.4084461;613.4084461;['r', 'e', 'g', 'a', 'l', 'o'];0;[1.293476200196892, 1.4797617001459002, 1.6114357002079487, 1.8293441999703646, 1.9821274001151323, 2.1489618998020887];regalo;C:\2023\REPSWITCH21092023\REPSWITCH_excgange\REPSWITCH_excgange\data/340201_REPSWITCH1_version2_list1_2023-12-12_09h18.08.937_micRespv2l1_recorded\recording_micRespv2l1_2023-12-12_09h28.15.420.wav;616.4296512;616.9297353;None;616.4296512;616.4296512;616.4296512;616.4296512;616.4296512;616.4296512;;;;;;340201;1;2023-12-12_09h18.08.937;REPSWITCH1_version2_list1;2022.2.4;143.9099469;
REPSWITCH1/PICTURE_142.png;vaso;type;gold;nontarget;1;NT;1;2;1;2;Stim7_Set1;0;None;126;125;24;0;125;125;125;;;;;;;;;;;;;;;;;;;;;;;616.9297353;618.1104256;618.1104256;618.1104256;618.1104256;618.1104256;618.1104256;618.1104256;618.1104256;['v', 'a', 's', 'o'];0;[0.9468057001940906, 1.0245051998645067, 1.2149749998934567, 1.3578154002316296];vaso;C:\2023\REPSWITCH21092023\REPSWITCH_excgange\REPSWITCH_excgange\data/340201_REPSWITCH1_version2_list1_2023-12-12_09h18.08.937_micRespv2l1_recorded\recording_micRespv2l1_2023-12-12_09h28.20.122.wav;621.131643;621.6317361;None;621.131643;621.131643;621.131643;621.131643;621.131643;621.131643;;;;;;340201;1;2023-12-12_09h18.08.937;REPSWITCH1_version2_list1;2022.2.4;143.9099469;
REPSWITCH1/PICTURE_142.png;vaso;speak;darkblue;switch;2;T;1;2;1;2;Stim7_Set1;0;None;127;126;25;0;126;126;126;;;;;;;;;;;;;;;;;;;;;;;621.6317361;622.7221927;622.7221927;622.7221927;622.7221927;622.7221927;622.7221927;622.7221927;622.7221927;None;0;;;C:\2023\REPSWITCH21092023\REPSWITCH_excgange\REPSWITCH_excgange\data/340201_REPSWITCH1_version2_list1_2023-12-12_09h18.08.937_micRespv2l1_recorded\recording_micRespv2l1_2023-12-12_09h28.24.734.wav;625.7504036;;None;625.7504036;625.7504036;625.7504036;625.7504036;625.7504036;625.7504036;;;;;;340201;1;2023-12-12_09h18.08.937;REPSWITCH1_version2_list1;2022.2.4;143.9099469;
REPSWITCH1/PICTURE_687.png;camisa;type;gold;filler;1;F;1;2;1;2;Stim5_Set4;1;switch;128;127;26;0;127;127;127;;;;;;;;;;;;;;;;;;;;;;;626.2504064;627.361659;627.361659;627.361659;627.361659;627.361659;627.361659;627.361659;627.361659;None;0;;;C:\2023\REPSWITCH21092023\REPSWITCH_excgange\REPSWITCH_excgange\data/340201_REPSWITCH1_version2_list1_2023-12-12_09h18.08.937_micRespv2l1_recorded\recording_micRespv2l1_2023-12-12_09h28.29.374.wav;630.382874;630.8829396;None;630.382874;630.382874;630.382874;630.382874;630.382874;630.382874;;;;;;340201;1;2023-12-12_09h18.08.937;REPSWITCH1_version2_list1;2022.2.4;143.9099469;
REPSWITCH1/PICTURE_30.png;granja;type;gold;nontarget;1;NT;2;2;1;2;Stim5_Set2;0;None;129;128;27;0;128;128;128;;;;;;;;;;;;;;;;;;;;;;;630.8829396;631.9803182;631.9803182;631.9803182;631.9803182;631.9803182;631.9803182;631.9803182;631.9803182;None;0;;;C:\2023\REPSWITCH21092023\REPSWITCH_excgange\REPSWITCH_excgange\data/340201_REPSWITCH1_version2_list1_2023-12-12_09h18.08.937_micRespv2l1_recorded\recording_micRespv2l1_2023-12-12_09h28.33.993.wav;635.0085113;;None;635.0085113;635.0085113;635.0085113;635.0085113;635.0085113;635.0085113;;;;;;340201;1;2023-12-12_09h18.08.937;REPSWITCH1_version2_list1;2022.2.4;143.9099469;
REPSWITCH1/PICTURE_30.png;granja;type;gold;repeat;1;T;2;2;1;2;Stim5_Set2;0;None;130;129;28;0;129;129;129;;;;;;;;;;;;;;;;;;;;;;;635.5085678;636.6684756;636.6684756;636.6684756;636.6684756;636.6684756;636.6684756;636.6684756;636.6684756;['g', 'r', 'a', 'n', 'j', 'a'];0;[0.9661318999715149, 1.1538758999668062, 1.2645677998661995, 1.5245631001889706, 1.719224900007248, 1.8368301000446081];granja;C:\2023\REPSWITCH21092023\REPSWITCH_excgange\REPSWITCH_excgange\data/340201_REPSWITCH1_version2_list1_2023-12-12_09h18.08.937_micRespv2l1_recorded\recording_micRespv2l1_2023-12-12_09h28.38.681.wav;639.6966164;;None;639.6966164;639.6966164;639.6966164;639.6966164;639.6966164;639.6966164;;;;;;340201;1;2023-12-12_09h18.08.937;REPSWITCH1_version2_list1;2022.2.4;143.9099469;
REPSWITCH1/PICTURE_128.png;muñeca;speak;darkblue;filler;2;F;2;2;1;2;Stim4_Set1;0;None;131;130;29;0;130;130;130;;;;;;;;;;;;;;;;;;;;;;;640.1967566;641.2176376;641.2176376;641.2176376;641.2176376;641.2176376;641.2176376;641.2176376;641.2176376;None;0;;;C:\2023\REPSWITCH21092023\REPSWITCH_excgange\REPSWITCH_excgange\data/340201_REPSWITCH1_version2_list1_2023-12-12_09h18.08.937_micRespv2l1_recorded\recording_micRespv2l1_2023-12-12_09h28.43.230.wav;644.2458216;;None;644.2458216;644.2458216;644.2458216;644.2458216;644.2458216;644.2458216;;;;;;340201;1;2023-12-12_09h18.08.937;REPSWITCH1_version2_list1;2022.2.4;143.9099469;
REPSWITCH1/PICTURE_264.png;mano;type;gold;nontarget;1;NT;2;2;1;2;Stim3_Set2;1;switch;132;131;30;0;131;131;131;;;;;;;;;;;;;;;;;;;;;;;644.7458527;645.94055;645.94055;645.94055;645.94055;645.94055;645.94055;645.94055;645.94055;['m', 'a', 'n', 'o'];0;[1.0303811999037862, 1.1410032999701798, 1.243431800045073, 1.4955795998685062];mano;C:\2023\REPSWITCH21092023\REPSWITCH_excgange\REPSWITCH_excgange\data/340201_REPSWITCH1_version2_list1_2023-12-12_09h18.08.937_micRespv2l1_recorded\recording_micRespv2l1_2023-12-12_09h28.47.952.wav;648.961723;649.4618789;None;648.961723;648.961723;648.961723;648.961723;648.961723;648.961723;;;;;;340201;1;2023-12-12_09h18.08.937;REPSWITCH1_version2_list1;2022.2.4;143.9099469;
REPSWITCH1/PICTURE_264.png;mano;type;gold;repeat;1;T;2;2;1;2;Stim3_Set2;0;None;133;132;31;0;132;132;132;;;;;;;;;;;;;;;;;;;;;;;649.4618789;650.5939668;650.5939668;650.5939668;650.5939668;650.5939668;650.5939668;650.5939668;650.5939668;['m', 'a', 'n', 'o'];0;[0.8027845998294652, 0.9233718998730183, 1.075820999685675, 1.3399825999513268];mano;C:\2023\REPSWITCH21092023\REPSWITCH_excgange\REPSWITCH_excgange\data/340201_REPSWITCH1_version2_list1_2023-12-12_09h18.08.937_micRespv2l1_recorded\recording_micRespv2l1_2023-12-12_09h28.52.606.wav;653.6220415;;None;653.6220415;653.6220415;653.6220415;653.6220415;653.6220415;653.6220415;;;;;;340201;1;2023-12-12_09h18.08.937;REPSWITCH1_version2_list1;2022.2.4;143.9099469;
REPSWITCH1/PICTURE_175.png;pintor;type;gold;nontarget;1;NT;2;2;1;2;Stim1_Set2;0;None;134;133;32;0;133;133;133;;;;;;;;;;;;;;;;;;;;;;;654.122129;655.1570448;655.1570448;655.1570448;655.1570448;655.1570448;655.1570448;655.1570448;655.1570448;['p', 'n', 'backspace', 'i', 'n'];0;[1.1412697997875512, 1.7881009997799993, 2.378131099976599, 2.739879900123924, 2.898712399881333];pin;C:\2023\REPSWITCH21092023\REPSWITCH_excgange\REPSWITCH_excgange\data/340201_REPSWITCH1_version2_list1_2023-12-12_09h18.08.937_micRespv2l1_recorded\recording_micRespv2l1_2023-12-12_09h28.57.169.wav;658.1852353;;None;658.1852353;658.1852353;658.1852353;658.1852353;658.1852353;658.1852353;;;;;;340201;1;2023-12-12_09h18.08.937;REPSWITCH1_version2_list1;2022.2.4;143.9099469;
REPSWITCH1/PICTURE_175.png;pintor;speak;darkblue;switch;2;T;2;2;1;2;Stim1_Set2;0;None;135;134;33;0;134;134;134;;;;;;;;;;;;;;;;;;;;;;;658.6852397;659.85202;659.85202;659.85202;659.85202;659.85202;659.85202;659.85202;659.85202;None;0;;;C:\2023\REPSWITCH21092023\REPSWITCH_excgange\REPSWITCH_excgange\data/340201_REPSWITCH1_version2_list1_2023-12-12_09h18.08.937_micRespv2l1_recorded\recording_micRespv2l1_2023-12-12_09h29.01.865.wav;662.8802267;;None;662.8802267;662.8802267;662.8802267;662.8802267;662.8802267;662.8802267;;;;;;340201;1;2023-12-12_09h18.08.937;REPSWITCH1_version2_list1;2022.2.4;143.9099469;
REPSWITCH1/PICTURE_135.png;traje;speak;darkblue;filler;2;F;2;2;1;2;Stim3_Set1;1;repeat;136;135;34;0;135;135;135;;;;;;;;;;;;;;;;;;;;;;;663.3803632;664.5749051;664.5749051;664.5749051;664.5749051;664.5749051;664.5749051;664.5749051;664.5749051;None;0;;;C:\2023\REPSWITCH21092023\REPSWITCH_excgange\REPSWITCH_excgange\data/340201_REPSWITCH1_version2_list1_2023-12-12_09h18.08.937_micRespv2l1_recorded\recording_micRespv2l1_2023-12-12_09h29.06.587.wav;667.5961765;668.0961843;None;667.5961765;667.5961765;667.5961765;667.5961765;667.5961765;667.5961765;;;;;;340201;1;2023-12-12_09h18.08.937;REPSWITCH1_version2_list1;2022.2.4;143.9099469;
REPSWITCH1/PICTURE_446.png;cerdo;speak;darkblue;nontarget;2;NT;2;2;1;2;Stim7_Set2;1;repeat;137;136;35;0;136;136;136;;;;;;;;;;;;;;;;;;;;;;;668.0961843;669.1866086;669.1866086;669.1866086;669.1866086;669.1866086;669.1866086;669.1866086;669.1866086;None;0;;;C:\2023\REPSWITCH21092023\REPSWITCH_excgange\REPSWITCH_excgange\data/340201_REPSWITCH1_version2_list1_2023-12-12_09h18.08.937_micRespv2l1_recorded\recording_micRespv2l1_2023-12-12_09h29.11.198.wav;672.2078153;672.7078706;None;672.2078153;672.2078153;672.2078153;672.2078153;672.2078153;672.2078153;;;;;;340201;1;2023-12-12_09h18.08.937;REPSWITCH1_version2_list1;2022.2.4;143.9099469;
REPSWITCH1/PICTURE_446.png;cerdo;type;gold;switch;1;T;2;2;1;2;Stim7_Set2;0;None;138;137;36;0;137;137;137;;;;;;;;;;;;;;;;;;;;;;;672.7078706;673.8261191;673.8261191;673.8261191;673.8261191;673.8261191;673.8261191;673.8261191;673.8261191;['c', 'e', 'r', 'd', 'o'];0;[0.9946490000002086, 1.136184100061655, 1.2697383002378047, 1.4282050002366304, 1.5927284001372755];cerdo;C:\2023\REPSWITCH21092023\REPSWITCH_excgange\REPSWITCH_excgange\data/340201_REPSWITCH1_version2_list1_2023-12-12_09h18.08.937_micRespv2l1_recorded\recording_micRespv2l1_2023-12-12_09h29.15.837.wav;676.8473315;677.3474537;None;676.8473315;676.8473315;676.8473315;676.8473315;676.8473315;676.8473315;;;;;;340201;1;2023-12-12_09h18.08.937;REPSWITCH1_version2_list1;2022.2.4;143.9099469;
REPSWITCH1/PICTURE_152.png;caracol;type;gold;nontarget;1;NT;2;2;1;2;Stim2_Set2;1;repeat;139;138;37;0;138;138;138;;;;;;;;;;;;;;;;;;;;;;;677.3474537;678.4517289;678.4517289;678.4517289;678.4517289;678.4517289;678.4517289;678.4517289;678.4517289;['c', 'a', 'r', 'a', 'c', 'o', 'l'];0;[0.9480093000456691, 1.0535830999724567, 1.1562469997443259, 1.2738449000753462, 1.362460599746555, 1.6255322000943124, 1.8161423997953534];caracol;C:\2023\REPSWITCH21092023\REPSWITCH_excgange\REPSWITCH_excgange\data/340201_REPSWITCH1_version2_list1_2023-12-12_09h18.08.937_micRespv2l1_recorded\recording_micRespv2l1_2023-12-12_09h29.20.463.wav;681.4729014;681.9730532;None;681.4729014;681.4729014;681.4729014;681.4729014;681.4729014;681.4729014;;;;;;340201;1;2023-12-12_09h18.08.937;REPSWITCH1_version2_list1;2022.2.4;143.9099469;
REPSWITCH1/PICTURE_152.png;caracol;speak;darkblue;switch;2;T;2;2;1;2;Stim2_Set2;0;None;140;139;38;0;139;139;139;;;;;;;;;;;;;;;;;;;;;;;681.9730532;683.0773788;683.0773788;683.0773788;683.0773788;683.0773788;683.0773788;683.0773788;683.0773788;None;0;;;C:\2023\REPSWITCH21092023\REPSWITCH_excgange\REPSWITCH_excgange\data/340201_REPSWITCH1_version2_list1_2023-12-12_09h18.08.937_micRespv2l1_recorded\recording_micRespv2l1_2023-12-12_09h29.25.089.wav;686.1055499;;None;686.1055499;686.1055499;686.1055499;686.1055499;686.1055499;686.1055499;;;;;;340201;1;2023-12-12_09h18.08.937;REPSWITCH1_version2_list1;2022.2.4;143.9099469;
REPSWITCH1/PICTURE_16.png;cazador;type;gold;filler;1;F;2;2;1;2;Stim6_Set1;0;None;141;140;39;0;140;140;140;;;;;;;;;;;;;;;;;;;;;;;686.6055574;687.7029815;687.7029815;687.7029815;687.7029815;687.7029815;687.7029815;687.7029815;687.7029815;['c', 'a'];0;[2.3919322001747787, 2.7823160998523235, 2.983021200168878];caz;C:\2023\REPSWITCH21092023\REPSWITCH_excgange\REPSWITCH_excgange\data/340201_REPSWITCH1_version2_list1_2023-12-12_09h18.08.937_micRespv2l1_recorded\recording_micRespv2l1_2023-12-12_09h29.29.715.wav;690.7241145;691.2242872;None;690.7241145;690.7241145;690.7241145;690.7241145;690.7241145;690.7241145;;;;;;340201;1;2023-12-12_09h18.08.937;REPSWITCH1_version2_list1;2022.2.4;143.9099469;
REPSWITCH1/PICTURE_381.png;fresa;speak;darkblue;filler;2;F;2;2;1;2;Stim2_Set1;0;None;142;141;40;0;141;141;141;;;;;;;;;;;;;;;;;;;;;;;691.2242872;692.4466116;692.4466116;692.4466116;692.4466116;692.4466116;692.4466116;692.4466116;692.4466116;None;0;;;C:\2023\REPSWITCH21092023\REPSWITCH_excgange\REPSWITCH_excgange\data/340201_REPSWITCH1_version2_list1_2023-12-12_09h18.08.937_micRespv2l1_recorded\recording_micRespv2l1_2023-12-12_09h29.34.459.wav;695.4747556;;None;695.4747556;695.4747556;695.4747556;695.4747556;695.4747556;695.4747556;;;;;;340201;1;2023-12-12_09h18.08.937;REPSWITCH1_version2_list1;2022.2.4;143.9099469;
REPSWITCH1/PICTURE_19.png;pavo;type;gold;filler;1;F;2;2;1;2;Stim5_Set1;0;None;143;142;41;0;142;142;142;;;;;;;;;;;;;;;;;;;;;;;695.9748178;697.0096887;697.0096887;697.0096887;697.0096887;697.0096887;697.0096887;697.0096887;697.0096887;['p', 'a', 'v', 'o'];0;[1.2247307999059558, 1.3612656998448074, 1.5473410999402404, 1.8400506996549666];pavo;C:\2023\REPSWITCH21092023\REPSWITCH_excgange\REPSWITCH_excgange\data/340201_REPSWITCH1_version2_list1_2023-12-12_09h18.08.937_micRespv2l1_recorded\recording_micRespv2l1_2023-12-12_09h29.39.022.wav;700.0378701;;None;700.0378701;700.0378701;700.0378701;700.0378701;700.0378701;700.0378701;;;;;;340201;1;2023-12-12_09h18.08.937;REPSWITCH1_version2_list1;2022.2.4;143.9099469;
