image;correctAns;respModal;frameColor;repSwitch;sequence;target;set;block;list;exp_version;stimulus;baseline;baseline_condition;trial_no;psychopy_trial;Column1;trialsREPSWITCH.thisRepN;trialsREPSWITCH.thisTrialN;trialsREPSWITCH.thisN;trialsREPSWITCH.thisIndex;textWelcome.started;textboxInstrMain1.started;textboxInstrMain1_2.started;textboxInstrMain1_3.started;keyInstrMain.started;keyInstrMain.keys;keyInstrMain.rt;textboxInstrMain2.started;textboxInstrMain2_2.started;textboxInstrMain2_3.started;textboxInstrMain2_4.started;textboxInstrMain2_5.started;textboxInstrMain2_6.started;textboxInstrMain2_7.started;textboxInstrMain2_8.started;textboxInstrMain2_9.started;textboxInstrMain2_10.started;textboxInstrMain2_11.started;textboxInstrMain2_12.started;keyInstrMain2.started;keyInstrMain2.keys;keyInstrMain2.rt;fixationITI.started;fixationITI.stopped;polygonColour.started;polygonWhite.started;imageObject.started;polygonType.started;textInput.started;keyResp.started;micRespv1l2.started;keyResp.keys;keyResp.corr;subjResponse;micRespv1l2.clip;textBlankLoop.started;textBlankLoop.stopped;keyPause.keys;polygonColour.stopped;polygonWhite.stopped;imageObject.stopped;polygonType.stopped;textInput.stopped;keyResp.stopped;keyResp.rt;textboxPause.started;keyPause.started;keyPause.rt;textboxGoodbye.started;textboxGoodbye.stopped;participant;session;date;expName;psychopyVersion;frameRate;Column2
;;;;;;;;;;;;;;;;;;;;;8.8743264;11.3670666;11.3670666;11.3670666;11.3670666;space;2.2884113;;;;;;;;;;;;;;;;;;;;;;;;;;;;;;;;;;;;;;;;;;;;350102;1;2023-12-12_15h10.50.951;REPSWITCH1_version1_list2;2022.2.4;143.8615018;
;;;;;;;;;;;;;;;;;;;;;;;;;;;;13.6729389;13.6729389;13.6729389;13.6729389;13.6729389;13.6729389;13.6729389;13.6729389;13.6729389;13.6729389;13.6729389;13.6729389;13.6729389;space;1.471643;;;;;;;;;;;;;;;;;;;;;;;;;;;;;350102;1;2023-12-12_15h10.50.951;REPSWITCH1_version1_list2;2022.2.4;143.8615018;
REPSWITCH1/PICTURE_646.png;tronco;speak;gold;filler;2;F;1;3;2;1;Extra4;0;None;1;0;1;0;0;0;0;;;;;;;;;;;;;;;;;;;;;;;15.2356068;16.3400717;16.3400717;16.3400717;16.3400717;16.3400717;16.3400717;16.3400717;16.3400717;None;0;;C:\2023\REPSWITCH21092023\REPSWITCH_excgange\REPSWITCH_excgange\data/350102_REPSWITCH1_version1_list2_2023-12-12_15h10.50.951_micRespv1l2_recorded\recording_micRespv1l2_2023-12-12_15h11.03.302.wav;19.3612493;19.8612509;None;;;;;;;;;;;;;350102;1;2023-12-12_15h10.50.951;REPSWITCH1_version1_list2;2022.2.4;143.8615018;
REPSWITCH1/PICTURE_340.png;espejo;type;darkblue;filler;1;F;1;3;2;1;Extra1;0;None;2;1;2;0;1;1;1;;;;;;;;;;;;;;;;;;;;;;;19.8612509;20.9169496;20.9169496;20.9169496;20.9169496;20.9169496;20.9169496;20.9169496;20.9169496;['e', 's', 'p', 'e', 'j', 'o'];0;espejo;C:\2023\REPSWITCH21092023\REPSWITCH_excgange\REPSWITCH_excgange\data/350102_REPSWITCH1_version1_list2_2023-12-12_15h10.50.951_micRespv1l2_recorded\recording_micRespv1l2_2023-12-12_15h11.07.884.wav;23.9381334;24.438305;None;23.9381334;23.9381334;23.9381334;23.9381334;23.9381334;23.9381334;[1.1569344997406006, 1.3247871999628842, 1.4623091998510063, 1.5573904998600483, 2.2702336995862424, 2.3646637997590005];;;;;;350102;1;2023-12-12_15h10.50.951;REPSWITCH1_version1_list2;2022.2.4;143.8615018;
REPSWITCH1/PICTURE_338.png;regalo;speak;gold;filler;2;F;1;3;2;1;Stim6_Set4;0;None;3;2;3;0;2;2;2;;;;;;;;;;;;;;;;;;;;;;;24.438305;25.5356061;25.5356061;25.5356061;25.5356061;25.5356061;25.5356061;25.5356061;25.5356061;None;0;;C:\2023\REPSWITCH21092023\REPSWITCH_excgange\REPSWITCH_excgange\data/350102_REPSWITCH1_version1_list2_2023-12-12_15h10.50.951_micRespv1l2_recorded\recording_micRespv1l2_2023-12-12_15h11.12.503.wav;28.5568003;29.0568996;None;28.5568003;28.5568003;28.5568003;28.5568003;28.5568003;28.5568003;;;;;;;350102;1;2023-12-12_15h10.50.951;REPSWITCH1_version1_list2;2022.2.4;143.8615018;
REPSWITCH1/PICTURE_142.png;vaso;speak;gold;nontarget;2;NT;1;3;2;1;Stim7_Set1;1;repeat;4;3;4;0;3;3;3;;;;;;;;;;;;;;;;;;;;;;;29.0568996;30.1473035;30.1473035;30.1473035;30.1473035;30.1473035;30.1473035;30.1473035;30.1473035;None;0;;C:\2023\REPSWITCH21092023\REPSWITCH_excgange\REPSWITCH_excgange\data/350102_REPSWITCH1_version1_list2_2023-12-12_15h10.50.951_micRespv1l2_recorded\recording_micRespv1l2_2023-12-12_15h11.17.114.wav;33.1685113;33.6686417;None;33.1685113;33.1685113;33.1685113;33.1685113;33.1685113;33.1685113;;;;;;;350102;1;2023-12-12_15h10.50.951;REPSWITCH1_version1_list2;2022.2.4;143.8615018;
REPSWITCH1/PICTURE_142.png;vaso;speak;gold;repeat;2;T;1;3;2;1;Stim7_Set1;0;None;5;4;5;0;4;4;4;;;;;;;;;;;;;;;;;;;;;;;33.6686417;34.7520782;34.7520782;34.7520782;34.7520782;34.7520782;34.7520782;34.7520782;34.7520782;None;0;;C:\2023\REPSWITCH21092023\REPSWITCH_excgange\REPSWITCH_excgange\data/350102_REPSWITCH1_version1_list2_2023-12-12_15h10.50.951_micRespv1l2_recorded\recording_micRespv1l2_2023-12-12_15h11.21.719.wav;37.7733265;38.2733859;None;37.7733265;37.7733265;37.7733265;37.7733265;37.7733265;37.7733265;;;;;;;350102;1;2023-12-12_15h10.50.951;REPSWITCH1_version1_list2;2022.2.4;143.8615018;
REPSWITCH1/PICTURE_498.png;taza;type;darkblue;filler;1;F;1;3;2;1;Stim4_Set4;0;None;6;5;6;0;5;5;5;;;;;;;;;;;;;;;;;;;;;;;38.2733859;39.301285;39.301285;39.301285;39.301285;39.301285;39.301285;39.301285;39.301285;['t', 'a', 'z', 'a'];0;taza;C:\2023\REPSWITCH21092023\REPSWITCH_excgange\REPSWITCH_excgange\data/350102_REPSWITCH1_version1_list2_2023-12-12_15h10.50.951_micRespv1l2_recorded\recording_micRespv1l2_2023-12-12_15h11.26.268.wav;42.3225062;42.8225959;None;42.3225062;42.3225062;42.3225062;42.3225062;42.3225062;42.3225062;[1.2021574000827968, 1.281884899828583, 1.4924770998768508, 1.6474301000125706];;;;;;350102;1;2023-12-12_15h10.50.951;REPSWITCH1_version1_list2;2022.2.4;143.8615018;
REPSWITCH1/PICTURE_16.png;cazador;speak;gold;nontarget;2;NT;1;3;2;1;Stim6_Set1;1;switch;7;6;7;0;6;6;6;;;;;;;;;;;;;;;;;;;;;;;42.8225959;43.9130806;43.9130806;43.9130806;43.9130806;43.9130806;43.9130806;43.9130806;43.9130806;None;0;;C:\2023\REPSWITCH21092023\REPSWITCH_excgange\REPSWITCH_excgange\data/350102_REPSWITCH1_version1_list2_2023-12-12_15h10.50.951_micRespv1l2_recorded\recording_micRespv1l2_2023-12-12_15h11.30.880.wav;46.9342422;47.4342898;None;46.9342422;46.9342422;46.9342422;46.9342422;46.9342422;46.9342422;;;;;;;350102;1;2023-12-12_15h10.50.951;REPSWITCH1_version1_list2;2022.2.4;143.8615018;
REPSWITCH1/PICTURE_16.png;cazador;speak;gold;repeat;2;T;1;3;2;1;Stim6_Set1;0;None;8;7;8;0;7;7;7;;;;;;;;;;;;;;;;;;;;;;;47.4342898;48.5386951;48.5386951;48.5386951;48.5386951;48.5386951;48.5386951;48.5386951;48.5386951;None;0;;C:\2023\REPSWITCH21092023\REPSWITCH_excgange\REPSWITCH_excgange\data/350102_REPSWITCH1_version1_list2_2023-12-12_15h10.50.951_micRespv1l2_recorded\recording_micRespv1l2_2023-12-12_15h11.35.505.wav;51.5598373;52.0599175;None;51.5598373;51.5598373;51.5598373;51.5598373;51.5598373;51.5598373;;;;;;;350102;1;2023-12-12_15h10.50.951;REPSWITCH1_version1_list2;2022.2.4;143.8615018;
REPSWITCH1/PICTURE_719.png;baño;type;darkblue;filler;1;F;1;3;2;1;Stim2_Set4;0;None;9;8;9;0;8;8;8;;;;;;;;;;;;;;;;;;;;;;;52.0599175;53.1156257;53.1156257;53.1156257;53.1156257;53.1156257;53.1156257;53.1156257;53.1156257;['b', 'a', 'ñ', 'o'];0;baño;C:\2023\REPSWITCH21092023\REPSWITCH_excgange\REPSWITCH_excgange\data/350102_REPSWITCH1_version1_list2_2023-12-12_15h10.50.951_micRespv1l2_recorded\recording_micRespv1l2_2023-12-12_15h11.40.082.wav;56.1368031;56.636967;None;56.1368031;56.1368031;56.1368031;56.1368031;56.1368031;56.1368031;[1.034717199858278, 1.1641207998618484, 1.6564867002889514, 1.8198341000825167];;;;;;350102;1;2023-12-12_15h10.50.951;REPSWITCH1_version1_list2;2022.2.4;143.8615018;
REPSWITCH1/PICTURE_169.png;espalda;speak;gold;nontarget;2;NT;1;3;2;1;Stim8_Set1;0;None;10;9;10;0;9;9;9;;;;;;;;;;;;;;;;;;;;;;;56.636967;57.699526;57.699526;57.699526;57.699526;57.699526;57.699526;57.699526;57.699526;None;0;;C:\2023\REPSWITCH21092023\REPSWITCH_excgange\REPSWITCH_excgange\data/350102_REPSWITCH1_version1_list2_2023-12-12_15h10.50.951_micRespv1l2_recorded\recording_micRespv1l2_2023-12-12_15h11.44.667.wav;60.7207414;61.2209114;None;60.7207414;60.7207414;60.7207414;60.7207414;60.7207414;60.7207414;;;;;;;350102;1;2023-12-12_15h10.50.951;REPSWITCH1_version1_list2;2022.2.4;143.8615018;
REPSWITCH1/PICTURE_169.png;espalda;type;darkblue;switch;1;T;1;3;2;1;Stim8_Set1;0;None;11;10;11;0;10;10;10;;;;;;;;;;;;;;;;;;;;;;;61.2209114;62.3112624;62.3112624;62.3112624;62.3112624;62.3112624;62.3112624;62.3112624;62.3112624;['e', 's', 'p', 'a', 'l', 'd', 'a'];0;espalda;C:\2023\REPSWITCH21092023\REPSWITCH_excgange\REPSWITCH_excgange\data/350102_REPSWITCH1_version1_list2_2023-12-12_15h10.50.951_micRespv1l2_recorded\recording_micRespv1l2_2023-12-12_15h11.49.278.wav;65.3325406;65.8325107;None;65.3325406;65.3325406;65.3325406;65.3325406;65.3325406;65.3325406;[0.9990519997663796, 1.1982505000196397, 1.305936699733138, 1.4175457996316254, 1.5610724999569356, 1.6687082997523248, 1.855050599668175];;;;;;350102;1;2023-12-12_15h10.50.951;REPSWITCH1_version1_list2;2022.2.4;143.8615018;
REPSWITCH1/PICTURE_687.png;camisa;type;darkblue;filler;1;F;1;3;2;1;Stim5_Set4;0;None;12;11;12;0;11;11;11;;;;;;;;;;;;;;;;;;;;;;;65.8325107;66.8674445;66.8674445;66.8674445;66.8674445;66.8674445;66.8674445;66.8674445;66.8674445;['c', 'a', 'm', 'i', 's', 'a'];0;camisa;C:\2023\REPSWITCH21092023\REPSWITCH_excgange\REPSWITCH_excgange\data/350102_REPSWITCH1_version1_list2_2023-12-12_15h10.50.951_micRespv1l2_recorded\recording_micRespv1l2_2023-12-12_15h11.53.835.wav;69.89556;;None;69.89556;69.89556;69.89556;69.89556;69.89556;69.89556;[1.5086721000261605, 1.6282390002161264, 1.8966469001024961, 2.069073900114745, 2.1378994998522103, 2.3331885002553463];;;;;;350102;1;2023-12-12_15h10.50.951;REPSWITCH1_version1_list2;2022.2.4;143.8615018;
REPSWITCH1/PICTURE_178.png;puente;type;darkblue;nontarget;1;NT;1;3;2;1;Stim1_Set1;1;repeat;13;12;13;0;12;12;12;;;;;;;;;;;;;;;;;;;;;;;70.3956085;71.5277509;71.5277509;71.5277509;71.5277509;71.5277509;71.5277509;71.5277509;71.5277509;['p', 'u', 'e', 'n', 't', 'e'];0;puente;C:\2023\REPSWITCH21092023\REPSWITCH_excgange\REPSWITCH_excgange\data/350102_REPSWITCH1_version1_list2_2023-12-12_15h10.50.951_micRespv1l2_recorded\recording_micRespv1l2_2023-12-12_15h11.58.495.wav;74.555913;;None;74.555913;74.555913;74.555913;74.555913;74.555913;74.555913;[1.4284028001129627, 1.8284252998419106, 1.932078099809587, 2.062722499947995, 2.194576600100845, 2.413154900074005];;;;;;350102;1;2023-12-12_15h10.50.951;REPSWITCH1_version1_list2;2022.2.4;143.8615018;
REPSWITCH1/PICTURE_178.png;puente;speak;gold;switch;2;T;1;3;2;1;Stim1_Set1;0;None;14;13;14;0;13;13;13;;;;;;;;;;;;;;;;;;;;;;;75.0559788;76.0699893;76.0699893;76.0699893;76.0699893;76.0699893;76.0699893;76.0699893;76.0699893;None;0;;C:\2023\REPSWITCH21092023\REPSWITCH_excgange\REPSWITCH_excgange\data/350102_REPSWITCH1_version1_list2_2023-12-12_15h10.50.951_micRespv1l2_recorded\recording_micRespv1l2_2023-12-12_15h12.03.037.wav;79.0912902;79.5913695;None;79.0912902;79.0912902;79.0912902;79.0912902;79.0912902;79.0912902;;;;;;;350102;1;2023-12-12_15h10.50.951;REPSWITCH1_version1_list2;2022.2.4;143.8615018;
REPSWITCH1/PICTURE_128.png;muñeca;speak;gold;nontarget;2;NT;1;3;2;1;Stim4_Set1;1;repeat;15;14;15;0;14;14;14;;;;;;;;;;;;;;;;;;;;;;;79.5913695;80.6053878;80.6053878;80.6053878;80.6053878;80.6053878;80.6053878;80.6053878;80.6053878;None;0;;C:\2023\REPSWITCH21092023\REPSWITCH_excgange\REPSWITCH_excgange\data/350102_REPSWITCH1_version1_list2_2023-12-12_15h10.50.951_micRespv1l2_recorded\recording_micRespv1l2_2023-12-12_15h12.07.572.wav;83.6265146;84.1266424;None;83.6265146;83.6265146;83.6265146;83.6265146;83.6265146;83.6265146;;;;;;;350102;1;2023-12-12_15h10.50.951;REPSWITCH1_version1_list2;2022.2.4;143.8615018;
REPSWITCH1/PICTURE_128.png;muñeca;type;darkblue;switch;1;T;1;3;2;1;Stim4_Set1;0;None;16;15;16;0;15;15;15;;;;;;;;;;;;;;;;;;;;;;;84.1266424;85.1822936;85.1822936;85.1822936;85.1822936;85.1822936;85.1822936;85.1822936;85.1822936;['m', 'u', 'ñ', 'e', 'c', 'a'];0;muñeca;C:\2023\REPSWITCH21092023\REPSWITCH_excgange\REPSWITCH_excgange\data/350102_REPSWITCH1_version1_list2_2023-12-12_15h10.50.951_micRespv1l2_recorded\recording_micRespv1l2_2023-12-12_15h12.12.149.wav;88.2035113;88.7035757;None;88.2035113;88.2035113;88.2035113;88.2035113;88.2035113;88.2035113;[0.9920427999459207, 1.1976411999203265, 1.578821400180459, 1.68146779993549, 1.9525707000866532, 2.0252847000956535];;;;;;350102;1;2023-12-12_15h10.50.951;REPSWITCH1_version1_list2;2022.2.4;143.8615018;
REPSWITCH1/PICTURE_319.png;vaca;speak;gold;filler;2;F;1;3;2;1;Stim1_Set4;1;switch;17;16;17;0;16;16;16;;;;;;;;;;;;;;;;;;;;;;;88.7035757;89.7523754;89.7523754;89.7523754;89.7523754;89.7523754;89.7523754;89.7523754;89.7523754;None;0;;C:\2023\REPSWITCH21092023\REPSWITCH_excgange\REPSWITCH_excgange\data/350102_REPSWITCH1_version1_list2_2023-12-12_15h10.50.951_micRespv1l2_recorded\recording_micRespv1l2_2023-12-12_15h12.16.719.wav;92.7735486;93.2736074;None;92.7735486;92.7735486;92.7735486;92.7735486;92.7735486;92.7735486;;;;;;;350102;1;2023-12-12_15h10.50.951;REPSWITCH1_version1_list2;2022.2.4;143.8615018;
REPSWITCH1/PICTURE_728.png;pulpo;speak;gold;filler;2;F;1;3;2;1;Stim8_Set4;0;None;18;17;18;0;17;17;17;;;;;;;;;;;;;;;;;;;;;;;93.2736074;94.4682612;94.4682612;94.4682612;94.4682612;94.4682612;94.4682612;94.4682612;94.4682612;None;0;;C:\2023\REPSWITCH21092023\REPSWITCH_excgange\REPSWITCH_excgange\data/350102_REPSWITCH1_version1_list2_2023-12-12_15h10.50.951_micRespv1l2_recorded\recording_micRespv1l2_2023-12-12_15h12.21.436.wav;97.4894379;97.989524;None;97.4894379;97.4894379;97.4894379;97.4894379;97.4894379;97.4894379;;;;;;;350102;1;2023-12-12_15h10.50.951;REPSWITCH1_version1_list2;2022.2.4;143.8615018;
REPSWITCH1/PICTURE_381.png;fresa;type;darkblue;nontarget;1;NT;1;3;2;1;Stim2_Set1;1;switch;19;18;19;0;18;18;18;;;;;;;;;;;;;;;;;;;;;;;97.989524;99.135508;99.135508;99.135508;99.135508;99.135508;99.135508;99.135508;99.135508;['f', 'r', 'e', 's', 'a'];0;fresa;C:\2023\REPSWITCH21092023\REPSWITCH_excgange\REPSWITCH_excgange\data/350102_REPSWITCH1_version1_list2_2023-12-12_15h10.50.951_micRespv1l2_recorded\recording_micRespv1l2_2023-12-12_15h12.26.103.wav;102.1567293;102.6568191;None;102.1567293;102.1567293;102.1567293;102.1567293;102.1567293;102.1567293;[1.63702919986099, 1.8134201001375914, 1.9968032999895513, 2.1814938001334667, 2.3768477998673916];;;;;;350102;1;2023-12-12_15h10.50.951;REPSWITCH1_version1_list2;2022.2.4;143.8615018;
REPSWITCH1/PICTURE_381.png;fresa;type;darkblue;repeat;1;T;1;3;2;1;Stim2_Set1;0;None;20;19;20;0;19;19;19;;;;;;;;;;;;;;;;;;;;;;;102.6568191;103.7334093;103.7334093;103.7334093;103.7334093;103.7334093;103.7334093;103.7334093;103.7334093;['f', 'r', 'e', 's', 'a'];0;fresa;C:\2023\REPSWITCH21092023\REPSWITCH_excgange\REPSWITCH_excgange\data/350102_REPSWITCH1_version1_list2_2023-12-12_15h10.50.951_micRespv1l2_recorded\recording_micRespv1l2_2023-12-12_15h12.30.701.wav;106.7615159;;None;106.7615159;106.7615159;106.7615159;106.7615159;106.7615159;106.7615159;[1.138970599975437, 1.337658400181681, 1.88419030001387, 2.083460799884051, 2.269824500195682];;;;;;350102;1;2023-12-12_15h10.50.951;REPSWITCH1_version1_list2;2022.2.4;143.8615018;
REPSWITCH1/PICTURE_8.png;pierna;speak;gold;filler;2;F;1;3;2;1;Stim3_Set4;0;None;21;20;21;0;20;20;20;;;;;;;;;;;;;;;;;;;;;;;107.2615644;108.3034604;108.3034604;108.3034604;108.3034604;108.3034604;108.3034604;108.3034604;108.3034604;None;0;;C:\2023\REPSWITCH21092023\REPSWITCH_excgange\REPSWITCH_excgange\data/350102_REPSWITCH1_version1_list2_2023-12-12_15h10.50.951_micRespv1l2_recorded\recording_micRespv1l2_2023-12-12_15h12.35.271.wav;111.3315431;;None;111.3315431;111.3315431;111.3315431;111.3315431;111.3315431;111.3315431;;;;;;;350102;1;2023-12-12_15h10.50.951;REPSWITCH1_version1_list2;2022.2.4;143.8615018;
REPSWITCH1/PICTURE_48.png;bombero;speak;gold;filler;2;F;1;3;2;1;Stim7_Set4;0;None;22;21;22;0;21;21;21;;;;;;;;;;;;;;;;;;;;;;;111.8316076;112.8595308;112.8595308;112.8595308;112.8595308;112.8595308;112.8595308;112.8595308;112.8595308;None;0;;C:\2023\REPSWITCH21092023\REPSWITCH_excgange\REPSWITCH_excgange\data/350102_REPSWITCH1_version1_list2_2023-12-12_15h10.50.951_micRespv1l2_recorded\recording_micRespv1l2_2023-12-12_15h12.39.827.wav;115.8807747;116.3809125;None;115.8807747;115.8807747;115.8807747;115.8807747;115.8807747;115.8807747;;;;;;;350102;1;2023-12-12_15h10.50.951;REPSWITCH1_version1_list2;2022.2.4;143.8615018;
REPSWITCH1/PICTURE_135.png;traje;type;darkblue;nontarget;1;NT;1;3;2;1;Stim3_Set1;1;switch;23;22;23;0;22;22;22;;;;;;;;;;;;;;;;;;;;;;;116.3809125;117.4851339;117.4851339;117.4851339;117.4851339;117.4851339;117.4851339;117.4851339;117.4851339;['t', 'r', 'a', 'j', 'e'];0;traje;C:\2023\REPSWITCH21092023\REPSWITCH_excgange\REPSWITCH_excgange\data/350102_REPSWITCH1_version1_list2_2023-12-12_15h10.50.951_micRespv1l2_recorded\recording_micRespv1l2_2023-12-12_15h12.44.452.wav;120.5063921;121.0064308;None;120.5063921;120.5063921;120.5063921;120.5063921;120.5063921;120.5063921;[1.2982394001446664, 1.4576965998858213, 1.5958770997822285, 2.0148049001581967, 2.0582840000279248];;;;;;350102;1;2023-12-12_15h10.50.951;REPSWITCH1_version1_list2;2022.2.4;143.8615018;
REPSWITCH1/PICTURE_135.png;traje;type;darkblue;repeat;1;T;1;3;2;1;Stim3_Set1;0;None;24;23;24;0;23;23;23;;;;;;;;;;;;;;;;;;;;;;;121.0064308;122.0968495;122.0968495;122.0968495;122.0968495;122.0968495;122.0968495;122.0968495;122.0968495;['t', 'r', 'a', 'j', 'e'];0;traje;C:\2023\REPSWITCH21092023\REPSWITCH_excgange\REPSWITCH_excgange\data/350102_REPSWITCH1_version1_list2_2023-12-12_15h10.50.951_micRespv1l2_recorded\recording_micRespv1l2_2023-12-12_15h12.49.064.wav;125.1180589;125.6181626;None;125.1180589;125.1180589;125.1180589;125.1180589;125.1180589;125.1180589;[1.096775900106877, 1.2463726000860333, 1.3609138000756502, 1.7476050001569092, 1.780489600263536];;;;;;350102;1;2023-12-12_15h10.50.951;REPSWITCH1_version1_list2;2022.2.4;143.8615018;
REPSWITCH1/PICTURE_19.png;pavo;type;darkblue;nontarget;1;NT;1;3;2;1;Stim5_Set1;1;repeat;25;24;25;0;24;24;24;;;;;;;;;;;;;;;;;;;;;;;125.6181626;126.6600021;126.6600021;126.6600021;126.6600021;126.6600021;126.6600021;126.6600021;126.6600021;['p', 'a', 'v', 'o'];0;pavo;C:\2023\REPSWITCH21092023\REPSWITCH_excgange\REPSWITCH_excgange\data/350102_REPSWITCH1_version1_list2_2023-12-12_15h10.50.951_micRespv1l2_recorded\recording_micRespv1l2_2023-12-12_15h12.53.628.wav;129.6882122;;None;129.6882122;129.6882122;129.6882122;129.6882122;129.6882122;129.6882122;[1.2665125001221895, 1.3742023999802768, 1.6395479999482632, 1.7766414997167885];;;;;;350102;1;2023-12-12_15h10.50.951;REPSWITCH1_version1_list2;2022.2.4;143.8615018;
REPSWITCH1/PICTURE_19.png;pavo;speak;gold;switch;2;T;1;3;2;1;Stim5_Set1;0;None;26;25;26;0;25;25;25;;;;;;;;;;;;;;;;;;;;;;;130.1882119;131.2855816;131.2855816;131.2855816;131.2855816;131.2855816;131.2855816;131.2855816;131.2855816;None;0;;C:\2023\REPSWITCH21092023\REPSWITCH_excgange\REPSWITCH_excgange\data/350102_REPSWITCH1_version1_list2_2023-12-12_15h10.50.951_micRespv1l2_recorded\recording_micRespv1l2_2023-12-12_15h12.58.253.wav;134.3137424;;None;134.3137424;134.3137424;134.3137424;134.3137424;134.3137424;134.3137424;;;;;;;350102;1;2023-12-12_15h10.50.951;REPSWITCH1_version1_list2;2022.2.4;143.8615018;
REPSWITCH1/PICTURE_142.png;vaso;speak;gold;filler;2;F;2;3;2;1;Stim7_Set1;0;None;27;26;27;0;26;26;26;;;;;;;;;;;;;;;;;;;;;;;134.8138071;135.8973471;135.8973471;135.8973471;135.8973471;135.8973471;135.8973471;135.8973471;135.8973471;None;0;;C:\2023\REPSWITCH21092023\REPSWITCH_excgange\REPSWITCH_excgange\data/350102_REPSWITCH1_version1_list2_2023-12-12_15h10.50.951_micRespv1l2_recorded\recording_micRespv1l2_2023-12-12_15h13.02.864.wav;138.9184903;139.4185562;None;138.9184903;138.9184903;138.9184903;138.9184903;138.9184903;138.9184903;;;;;;;350102;1;2023-12-12_15h10.50.951;REPSWITCH1_version1_list2;2022.2.4;143.8615018;
REPSWITCH1/PICTURE_135.png;traje;type;darkblue;filler;1;F;2;3;2;1;Stim3_Set1;0;None;28;27;28;0;27;27;27;;;;;;;;;;;;;;;;;;;;;;;139.4185562;140.5576104;140.5576104;140.5576104;140.5576104;140.5576104;140.5576104;140.5576104;140.5576104;['t', 'r', 'a', 'j', 'e'];0;traje;C:\2023\REPSWITCH21092023\REPSWITCH_excgange\REPSWITCH_excgange\data/350102_REPSWITCH1_version1_list2_2023-12-12_15h10.50.951_micRespv1l2_recorded\recording_micRespv1l2_2023-12-12_15h13.07.524.wav;143.5789076;144.0788974;None;143.5789076;143.5789076;143.5789076;143.5789076;143.5789076;143.5789076;[1.198605400044471, 1.3540814998559654, 1.4613298000767827, 1.8588197999633849, 1.9076907997950912];;;;;;350102;1;2023-12-12_15h10.50.951;REPSWITCH1_version1_list2;2022.2.4;143.8615018;
REPSWITCH1/PICTURE_446.png;cerdo;type;darkblue;nontarget;1;NT;2;3;2;1;Stim7_Set2;0;None;29;28;29;0;28;28;28;;;;;;;;;;;;;;;;;;;;;;;144.0788974;145.0999322;145.0999322;145.0999322;145.0999322;145.0999322;145.0999322;145.0999322;145.0999322;['c', 'e', 'r', 'd', 'o'];0;cerdo;C:\2023\REPSWITCH21092023\REPSWITCH_excgange\REPSWITCH_excgange\data/350102_REPSWITCH1_version1_list2_2023-12-12_15h10.50.951_micRespv1l2_recorded\recording_micRespv1l2_2023-12-12_15h13.12.067.wav;148.1281229;;None;148.1281229;148.1281229;148.1281229;148.1281229;148.1281229;148.1281229;[1.091082299593836, 1.204802299849689, 1.4004115997813642, 1.584699499886483, 1.6623908998444676];;;;;;350102;1;2023-12-12_15h10.50.951;REPSWITCH1_version1_list2;2022.2.4;143.8615018;
REPSWITCH1/PICTURE_446.png;cerdo;type;darkblue;repeat;1;T;2;3;2;1;Stim7_Set2;0;None;30;29;30;0;29;29;29;;;;;;;;;;;;;;;;;;;;;;;148.6281107;149.7810552;149.7810552;149.7810552;149.7810552;149.7810552;149.7810552;149.7810552;149.7810552;['c', 'e', 'r', 'd', 'o'];0;cerdo;C:\2023\REPSWITCH21092023\REPSWITCH_excgange\REPSWITCH_excgange\data/350102_REPSWITCH1_version1_list2_2023-12-12_15h10.50.951_micRespv1l2_recorded\recording_micRespv1l2_2023-12-12_15h13.16.748.wav;152.8092831;;None;152.8092831;152.8092831;152.8092831;152.8092831;152.8092831;152.8092831;[1.0078890998847783, 1.326048499904573, 1.4955124999396503, 1.665962700266391, 1.770720100030303];;;;;;350102;1;2023-12-12_15h10.50.951;REPSWITCH1_version1_list2;2022.2.4;143.8615018;
REPSWITCH1/PICTURE_16.png;cazador;speak;gold;filler;2;F;2;3;2;1;Stim6_Set1;0;None;31;30;31;0;30;30;30;;;;;;;;;;;;;;;;;;;;;;;153.3092937;154.3372712;154.3372712;154.3372712;154.3372712;154.3372712;154.3372712;154.3372712;154.3372712;None;0;;C:\2023\REPSWITCH21092023\REPSWITCH_excgange\REPSWITCH_excgange\data/350102_REPSWITCH1_version1_list2_2023-12-12_15h10.50.951_micRespv1l2_recorded\recording_micRespv1l2_2023-12-12_15h13.21.304.wav;157.365371;;None;157.365371;157.365371;157.365371;157.365371;157.365371;157.365371;;;;;;;350102;1;2023-12-12_15h10.50.951;REPSWITCH1_version1_list2;2022.2.4;143.8615018;
REPSWITCH1/PICTURE_552.png;manzana;type;darkblue;nontarget;1;NT;2;3;2;1;Stim6_Set2;1;switch;32;31;32;0;31;31;31;;;;;;;;;;;;;;;;;;;;;;;157.8654279;158.9558921;158.9558921;158.9558921;158.9558921;158.9558921;158.9558921;158.9558921;158.9558921;['m', 'a', 'n', 'z', 'a', 'n', 'a'];0;manzana;C:\2023\REPSWITCH21092023\REPSWITCH_excgange\REPSWITCH_excgange\data/350102_REPSWITCH1_version1_list2_2023-12-12_15h10.50.951_micRespv1l2_recorded\recording_micRespv1l2_2023-12-12_15h13.25.924.wav;161.9840368;;None;161.9840368;161.9840368;161.9840368;161.9840368;161.9840368;161.9840368;[1.2684603999368846, 1.9261239999905229, 2.144330400042236, 2.22417449997738, 2.4142344002611935, 2.524380899965763, 2.5821274002082646];;;;;;350102;1;2023-12-12_15h10.50.951;REPSWITCH1_version1_list2;2022.2.4;143.8615018;
REPSWITCH1/PICTURE_552.png;manzana;type;darkblue;repeat;1;T;2;3;2;1;Stim6_Set2;0;None;33;32;33;0;32;32;32;;;;;;;;;;;;;;;;;;;;;;;162.484102;163.6301079;163.6301079;163.6301079;163.6301079;163.6301079;163.6301079;163.6301079;163.6301079;['m', 'a', 'n', 'z', 'a', 'n', 'a'];0;manzana;C:\2023\REPSWITCH21092023\REPSWITCH_excgange\REPSWITCH_excgange\data/350102_REPSWITCH1_version1_list2_2023-12-12_15h10.50.951_micRespv1l2_recorded\recording_micRespv1l2_2023-12-12_15h13.30.598.wav;166.658271;;None;166.658271;166.658271;166.658271;166.658271;166.658271;166.658271;[0.8082324997521937, 0.9058863995596766, 1.015481099486351, 1.18813919974491, 1.3725734995678067, 1.4981431998312473, 1.5453345994465053];;;;;;350102;1;2023-12-12_15h10.50.951;REPSWITCH1_version1_list2;2022.2.4;143.8615018;
REPSWITCH1/PICTURE_517.png;cuerda;type;darkblue;nontarget;1;NT;2;3;2;1;Stim4_Set2;0;None;34;33;34;0;33;33;33;;;;;;;;;;;;;;;;;;;;;;;167.1583157;168.2417822;168.2417822;168.2417822;168.2417822;168.2417822;168.2417822;168.2417822;168.2417822;['c', 'u', 'e', 'r', 'd', 'a'];0;cuerda;C:\2023\REPSWITCH21092023\REPSWITCH_excgange\REPSWITCH_excgange\data/350102_REPSWITCH1_version1_list2_2023-12-12_15h10.50.951_micRespv1l2_recorded\recording_micRespv1l2_2023-12-12_15h13.35.209.wav;171.2630797;171.7630952;None;171.2630797;171.2630797;171.2630797;171.2630797;171.2630797;171.2630797;[1.0593750001862645, 1.2041755001991987, 1.30998450005427, 1.5053131999447942, 1.6797024998813868, 1.8789888001047075];;;;;;350102;1;2023-12-12_15h10.50.951;REPSWITCH1_version1_list2;2022.2.4;143.8615018;
REPSWITCH1/PICTURE_517.png;cuerda;speak;gold;switch;2;T;2;3;2;1;Stim4_Set2;0;None;35;34;35;0;34;34;34;;;;;;;;;;;;;;;;;;;;;;;171.7630952;172.8326737;172.8326737;172.8326737;172.8326737;172.8326737;172.8326737;172.8326737;172.8326737;None;0;;C:\2023\REPSWITCH21092023\REPSWITCH_excgange\REPSWITCH_excgange\data/350102_REPSWITCH1_version1_list2_2023-12-12_15h10.50.951_micRespv1l2_recorded\recording_micRespv1l2_2023-12-12_15h13.39.799.wav;175.8539001;176.354048;None;175.8539001;175.8539001;175.8539001;175.8539001;175.8539001;175.8539001;;;;;;;350102;1;2023-12-12_15h10.50.951;REPSWITCH1_version1_list2;2022.2.4;143.8615018;
REPSWITCH1/PICTURE_169.png;espalda;speak;gold;filler;2;F;2;3;2;1;Stim8_Set1;1;repeat;36;35;36;0;35;35;35;;;;;;;;;;;;;;;;;;;;;;;176.354048;177.4513989;177.4513989;177.4513989;177.4513989;177.4513989;177.4513989;177.4513989;177.4513989;None;0;;C:\2023\REPSWITCH21092023\REPSWITCH_excgange\REPSWITCH_excgange\data/350102_REPSWITCH1_version1_list2_2023-12-12_15h10.50.951_micRespv1l2_recorded\recording_micRespv1l2_2023-12-12_15h13.44.418.wav;180.472619;180.9726004;None;180.472619;180.472619;180.472619;180.472619;180.472619;180.472619;;;;;;;350102;1;2023-12-12_15h10.50.951;REPSWITCH1_version1_list2;2022.2.4;143.8615018;
REPSWITCH1/PICTURE_30.png;granja;speak;gold;nontarget;2;NT;2;3;2;1;Stim5_Set2;1;repeat;37;36;37;0;36;36;36;;;;;;;;;;;;;;;;;;;;;;;180.9726004;182.0352875;182.0352875;182.0352875;182.0352875;182.0352875;182.0352875;182.0352875;182.0352875;None;0;;C:\2023\REPSWITCH21092023\REPSWITCH_excgange\REPSWITCH_excgange\data/350102_REPSWITCH1_version1_list2_2023-12-12_15h10.50.951_micRespv1l2_recorded\recording_micRespv1l2_2023-12-12_15h13.49.003.wav;185.0634497;185.5634901;None;185.0634497;185.0634497;185.0634497;185.0634497;185.0634497;185.0634497;;;;;;;350102;1;2023-12-12_15h10.50.951;REPSWITCH1_version1_list2;2022.2.4;143.8615018;
REPSWITCH1/PICTURE_30.png;granja;type;darkblue;switch;1;T;2;3;2;1;Stim5_Set2;0;None;38;37;38;0;37;37;37;;;;;;;;;;;;;;;;;;;;;;;185.5634901;186.7650482;186.7650482;186.7650482;186.7650482;186.7650482;186.7650482;186.7650482;186.7650482;['g', 'r', 'a', 'n', 'j', 'a'];0;granja;C:\2023\REPSWITCH21092023\REPSWITCH_excgange\REPSWITCH_excgange\data/350102_REPSWITCH1_version1_list2_2023-12-12_15h10.50.951_micRespv1l2_recorded\recording_micRespv1l2_2023-12-12_15h13.53.732.wav;189.7862565;190.2863585;None;189.7862565;189.7862565;189.7862565;189.7862565;189.7862565;189.7862565;[1.5650190995074809, 1.7486285995692015, 1.8602833994664252, 2.2838681996800005, 2.3755240999162197, 2.4931536996737123];;;;;;350102;1;2023-12-12_15h10.50.951;REPSWITCH1_version1_list2;2022.2.4;143.8615018;
REPSWITCH1/PICTURE_128.png;muñeca;type;darkblue;filler;1;F;2;3;2;1;Stim4_Set1;1;repeat;39;38;39;0;38;38;38;;;;;;;;;;;;;;;;;;;;;;;190.2863585;191.3767852;191.3767852;191.3767852;191.3767852;191.3767852;191.3767852;191.3767852;191.3767852;['m', 'u', 'ñ', 'e', 'c', 'a'];0;muñeca;C:\2023\REPSWITCH21092023\REPSWITCH_excgange\REPSWITCH_excgange\data/350102_REPSWITCH1_version1_list2_2023-12-12_15h10.50.951_micRespv1l2_recorded\recording_micRespv1l2_2023-12-12_15h13.58.344.wav;194.3979735;194.8980781;None;194.3979735;194.3979735;194.3979735;194.3979735;194.3979735;194.3979735;[1.0305031002499163, 1.4271940002217889, 2.00137609988451, 2.1020106999203563, 2.424347400199622, 2.491143099963665];;;;;;350102;1;2023-12-12_15h10.50.951;REPSWITCH1_version1_list2;2022.2.4;143.8615018;
REPSWITCH1/PICTURE_199.png;falda;type;darkblue;nontarget;1;NT;2;3;2;1;Stim8_Set2;0;None;40;39;40;0;39;39;39;;;;;;;;;;;;;;;;;;;;;;;194.8980781;196.0162682;196.0162682;196.0162682;196.0162682;196.0162682;196.0162682;196.0162682;196.0162682;['f', 'a', 'l', 'd', 'a'];0;falda;C:\2023\REPSWITCH21092023\REPSWITCH_excgange\REPSWITCH_excgange\data/350102_REPSWITCH1_version1_list2_2023-12-12_15h10.50.951_micRespv1l2_recorded\recording_micRespv1l2_2023-12-12_15h14.02.984.wav;199.0444305;;None;199.0444305;199.0444305;199.0444305;199.0444305;199.0444305;199.0444305;[1.4111438998952508, 1.651302699930966, 1.761549700051546, 1.9045436000451446, 2.0784469000063837];;;;;;350102;1;2023-12-12_15h10.50.951;REPSWITCH1_version1_list2;2022.2.4;143.8615018;
REPSWITCH1/PICTURE_199.png;falda;speak;gold;switch;2;T;2;3;2;1;Stim8_Set2;0;None;41;40;41;0;40;40;40;;;;;;;;;;;;;;;;;;;;;;;199.5444774;200.6349604;200.6349604;200.6349604;200.6349604;200.6349604;200.6349604;200.6349604;200.6349604;None;0;;C:\2023\REPSWITCH21092023\REPSWITCH_excgange\REPSWITCH_excgange\data/350102_REPSWITCH1_version1_list2_2023-12-12_15h10.50.951_micRespv1l2_recorded\recording_micRespv1l2_2023-12-12_15h14.07.603.wav;203.6631396;;None;203.6631396;203.6631396;203.6631396;203.6631396;203.6631396;203.6631396;;;;;;;350102;1;2023-12-12_15h10.50.951;REPSWITCH1_version1_list2;2022.2.4;143.8615018;
REPSWITCH1/PICTURE_152.png;caracol;speak;gold;nontarget;2;NT;2;3;2;1;Stim2_Set2;1;switch;42;41;42;0;41;41;41;;;;;;;;;;;;;;;;;;;;;;;204.1632191;205.3369383;205.3369383;205.3369383;205.3369383;205.3369383;205.3369383;205.3369383;205.3369383;None;0;;C:\2023\REPSWITCH21092023\REPSWITCH_excgange\REPSWITCH_excgange\data/350102_REPSWITCH1_version1_list2_2023-12-12_15h10.50.951_micRespv1l2_recorded\recording_micRespv1l2_2023-12-12_15h14.12.304.wav;208.3581605;208.8582406;None;208.3581605;208.3581605;208.3581605;208.3581605;208.3581605;208.3581605;;;;;;;350102;1;2023-12-12_15h10.50.951;REPSWITCH1_version1_list2;2022.2.4;143.8615018;
REPSWITCH1/PICTURE_152.png;caracol;speak;gold;repeat;2;T;2;3;2;1;Stim2_Set2;0;None;43;42;43;0;42;42;42;;;;;;;;;;;;;;;;;;;;;;;208.8582406;209.9486855;209.9486855;209.9486855;209.9486855;209.9486855;209.9486855;209.9486855;209.9486855;None;0;;C:\2023\REPSWITCH21092023\REPSWITCH_excgange\REPSWITCH_excgange\data/350102_REPSWITCH1_version1_list2_2023-12-12_15h10.50.951_micRespv1l2_recorded\recording_micRespv1l2_2023-12-12_15h14.16.915.wav;212.9698918;213.4699505;None;212.9698918;212.9698918;212.9698918;212.9698918;212.9698918;212.9698918;;;;;;;350102;1;2023-12-12_15h10.50.951;REPSWITCH1_version1_list2;2022.2.4;143.8615018;
REPSWITCH1/PICTURE_381.png;fresa;type;darkblue;filler;1;F;2;3;2;1;Stim2_Set1;0;None;44;43;44;0;43;43;43;;;;;;;;;;;;;;;;;;;;;;;213.4699505;214.5673823;214.5673823;214.5673823;214.5673823;214.5673823;214.5673823;214.5673823;214.5673823;['f', 'r', 'e', 's', 'a'];0;fresa;C:\2023\REPSWITCH21092023\REPSWITCH_excgange\REPSWITCH_excgange\data/350102_REPSWITCH1_version1_list2_2023-12-12_15h10.50.951_micRespv1l2_recorded\recording_micRespv1l2_2023-12-12_15h14.21.535.wav;217.5954812;;None;217.5954812;217.5954812;217.5954812;217.5954812;217.5954812;217.5954812;[1.1205182000994682, 1.2978465999476612, 1.456330900080502, 1.5749214999377728, 1.7513707000762224];;;;;;350102;1;2023-12-12_15h10.50.951;REPSWITCH1_version1_list2;2022.2.4;143.8615018;
REPSWITCH1/PICTURE_175.png;pintor;speak;gold;nontarget;2;NT;2;3;2;1;Stim1_Set2;1;switch;45;44;45;0;44;44;44;;;;;;;;;;;;;;;;;;;;;;;218.0955205;219.2068581;219.2068581;219.2068581;219.2068581;219.2068581;219.2068581;219.2068581;219.2068581;None;0;;C:\2023\REPSWITCH21092023\REPSWITCH_excgange\REPSWITCH_excgange\data/350102_REPSWITCH1_version1_list2_2023-12-12_15h10.50.951_micRespv1l2_recorded\recording_micRespv1l2_2023-12-12_15h14.26.173.wav;222.2280555;222.7281524;None;222.2280555;222.2280555;222.2280555;222.2280555;222.2280555;222.2280555;;;;;;;350102;1;2023-12-12_15h10.50.951;REPSWITCH1_version1_list2;2022.2.4;143.8615018;
REPSWITCH1/PICTURE_175.png;pintor;speak;gold;repeat;2;T;2;3;2;1;Stim1_Set2;0;None;46;45;46;0;45;45;45;;;;;;;;;;;;;;;;;;;;;;;222.7281524;223.7560044;223.7560044;223.7560044;223.7560044;223.7560044;223.7560044;223.7560044;223.7560044;None;0;;C:\2023\REPSWITCH21092023\REPSWITCH_excgange\REPSWITCH_excgange\data/350102_REPSWITCH1_version1_list2_2023-12-12_15h10.50.951_micRespv1l2_recorded\recording_micRespv1l2_2023-12-12_15h14.30.723.wav;226.7772328;227.2773038;None;226.7772328;226.7772328;226.7772328;226.7772328;226.7772328;226.7772328;;;;;;;350102;1;2023-12-12_15h10.50.951;REPSWITCH1_version1_list2;2022.2.4;143.8615018;
REPSWITCH1/PICTURE_178.png;puente;type;darkblue;filler;1;F;2;3;2;1;Stim1_Set1;0;None;47;46;47;0;46;46;46;;;;;;;;;;;;;;;;;;;;;;;227.2773038;228.3538707;228.3538707;228.3538707;228.3538707;228.3538707;228.3538707;228.3538707;228.3538707;['p', 'u', 'e', 'n', 't', 'e'];0;puente;C:\2023\REPSWITCH21092023\REPSWITCH_excgange\REPSWITCH_excgange\data/350102_REPSWITCH1_version1_list2_2023-12-12_15h10.50.951_micRespv1l2_recorded\recording_micRespv1l2_2023-12-12_15h14.35.321.wav;231.3820143;231.882075;None;231.3820143;231.3820143;231.3820143;231.3820143;231.3820143;231.3820143;[1.3887636996805668, 1.6805535997264087, 1.7712617996148765, 1.9247678997926414, 2.0543279997073114, 2.254961199592799];;;;;;350102;1;2023-12-12_15h10.50.951;REPSWITCH1_version1_list2;2022.2.4;143.8615018;
REPSWITCH1/PICTURE_19.png;pavo;speak;gold;filler;2;F;2;3;2;1;Stim5_Set1;0;None;48;47;48;0;47;47;47;;;;;;;;;;;;;;;;;;;;;;;231.882075;232.9378126;232.9378126;232.9378126;232.9378126;232.9378126;232.9378126;232.9378126;232.9378126;None;0;;C:\2023\REPSWITCH21092023\REPSWITCH_excgange\REPSWITCH_excgange\data/350102_REPSWITCH1_version1_list2_2023-12-12_15h10.50.951_micRespv1l2_recorded\recording_micRespv1l2_2023-12-12_15h14.39.905.wav;235.9659538;;None;235.9659538;235.9659538;235.9659538;235.9659538;235.9659538;235.9659538;;;;;;;350102;1;2023-12-12_15h10.50.951;REPSWITCH1_version1_list2;2022.2.4;143.8615018;
REPSWITCH1/PICTURE_264.png;mano;speak;gold;nontarget;2;NT;2;3;2;1;Stim3_Set2;1;repeat;49;48;49;0;48;48;48;;;;;;;;;;;;;;;;;;;;;;;236.4660818;237.5564372;237.5564372;237.5564372;237.5564372;237.5564372;237.5564372;237.5564372;237.5564372;None;0;;C:\2023\REPSWITCH21092023\REPSWITCH_excgange\REPSWITCH_excgange\data/350102_REPSWITCH1_version1_list2_2023-12-12_15h10.50.951_micRespv1l2_recorded\recording_micRespv1l2_2023-12-12_15h14.44.524.wav;240.577639;241.0777418;None;240.577639;240.577639;240.577639;240.577639;240.577639;240.577639;;;;;;;350102;1;2023-12-12_15h10.50.951;REPSWITCH1_version1_list2;2022.2.4;143.8615018;
REPSWITCH1/PICTURE_264.png;mano;type;darkblue;switch;1;T;2;3;2;1;Stim3_Set2;0;None;50;49;50;0;49;49;49;;;;;;;;;;;;;;;;;;;;;;;241.0777418;242.1334964;242.1334964;242.1334964;242.1334964;242.1334964;242.1334964;242.1334964;242.1334964;['m', 'a', 'n', 'o'];0;mano;C:\2023\REPSWITCH21092023\REPSWITCH_excgange\REPSWITCH_excgange\data/350102_REPSWITCH1_version1_list2_2023-12-12_15h10.50.951_micRespv1l2_recorded\recording_micRespv1l2_2023-12-12_15h14.49.101.wav;245.1615797;;None;245.1615797;245.1615797;245.1615797;245.1615797;245.1615797;245.1615797;[1.1041451999917626, 1.2177575998939574, 1.400209499988705, 1.5234266999177635];;;;;;350102;1;2023-12-12_15h10.50.951;REPSWITCH1_version1_list2;2022.2.4;143.8615018;
REPSWITCH1/PICTURE_446.png;cerdo;type;darkblue;filler;1;F;3;3;2;1;Stim7_Set2;0;None;51;50;51;0;50;50;50;;;;;;;;;;;;;;;;;;;;;;;245.6617509;246.7104732;246.7104732;246.7104732;246.7104732;246.7104732;246.7104732;246.7104732;246.7104732;['c', 'e', 'r', 'd', 'o'];0;cerdo;C:\2023\REPSWITCH21092023\REPSWITCH_excgange\REPSWITCH_excgange\data/350102_REPSWITCH1_version1_list2_2023-12-12_15h10.50.951_micRespv1l2_recorded\recording_micRespv1l2_2023-12-12_15h14.53.678.wav;249.7316177;250.2317188;space;249.7316177;249.7316177;249.7316177;249.7316177;249.7316177;249.7316177;[1.1066450998187065, 1.2172619001939893, 1.3952838000841439, 1.5841308999806643, 1.709006099961698];250.2317188;250.2317188;2.5517983;;;350102;1;2023-12-12_15h10.50.951;REPSWITCH1_version1_list2;2022.2.4;143.8615018;
REPSWITCH1/PICTURE_235.png;aguja;type;darkblue;nontarget;1;NT;3;3;2;1;Stim4_Set3;1;repeat;52;51;52;0;51;51;51;;;;;;;;;;;;;;;;;;;;;;;252.7945486;253.9474654;253.9474654;253.9474654;253.9474654;253.9474654;253.9474654;253.9474654;253.9474654;['a', 'g', 'u', 'j', 'a'];0;aguja;C:\2023\REPSWITCH21092023\REPSWITCH_excgange\REPSWITCH_excgange\data/350102_REPSWITCH1_version1_list2_2023-12-12_15h10.50.951_micRespv1l2_recorded\recording_micRespv1l2_2023-12-12_15h15.00.914.wav;256.9686848;257.4687764;None;256.9686848;256.9686848;256.9686848;256.9686848;256.9686848;256.9686848;[1.2362269996665418, 1.44057899992913, 1.8305144999176264, 1.9891420998610556, 2.056337599642575];;;;;;350102;1;2023-12-12_15h10.50.951;REPSWITCH1_version1_list2;2022.2.4;143.8615018;
REPSWITCH1/PICTURE_235.png;aguja;speak;gold;switch;2;T;3;3;2;1;Stim4_Set3;0;None;53;52;53;0;52;52;52;;;;;;;;;;;;;;;;;;;;;;;257.4687764;258.5870092;258.5870092;258.5870092;258.5870092;258.5870092;258.5870092;258.5870092;258.5870092;None;0;;C:\2023\REPSWITCH21092023\REPSWITCH_excgange\REPSWITCH_excgange\data/350102_REPSWITCH1_version1_list2_2023-12-12_15h10.50.951_micRespv1l2_recorded\recording_micRespv1l2_2023-12-12_15h15.05.555.wav;261.6151807;;None;261.6151807;261.6151807;261.6151807;261.6151807;261.6151807;261.6151807;;;;;;;350102;1;2023-12-12_15h10.50.951;REPSWITCH1_version1_list2;2022.2.4;143.8615018;
REPSWITCH1/PICTURE_552.png;manzana;speak;gold;filler;2;F;3;3;2;1;Stim6_Set2;0;None;54;53;54;0;53;53;53;;;;;;;;;;;;;;;;;;;;;;;262.1152194;263.2612203;263.2612203;263.2612203;263.2612203;263.2612203;263.2612203;263.2612203;263.2612203;None;0;;C:\2023\REPSWITCH21092023\REPSWITCH_excgange\REPSWITCH_excgange\data/350102_REPSWITCH1_version1_list2_2023-12-12_15h10.50.951_micRespv1l2_recorded\recording_micRespv1l2_2023-12-12_15h15.10.228.wav;266.2893542;;None;266.2893542;266.2893542;266.2893542;266.2893542;266.2893542;266.2893542;;;;;;;350102;1;2023-12-12_15h10.50.951;REPSWITCH1_version1_list2;2022.2.4;143.8615018;
REPSWITCH1/PICTURE_271.png;conejo;speak;gold;nontarget;2;NT;3;3;2;1;Stim7_Set3;1;repeat;55;54;55;0;54;54;54;;;;;;;;;;;;;;;;;;;;;;;266.7894199;267.8313063;267.8313063;267.8313063;267.8313063;267.8313063;267.8313063;267.8313063;267.8313063;None;0;;C:\2023\REPSWITCH21092023\REPSWITCH_excgange\REPSWITCH_excgange\data/350102_REPSWITCH1_version1_list2_2023-12-12_15h10.50.951_micRespv1l2_recorded\recording_micRespv1l2_2023-12-12_15h15.14.799.wav;270.8524402;271.3525199;None;270.8524402;270.8524402;270.8524402;270.8524402;270.8524402;270.8524402;;;;;;;350102;1;2023-12-12_15h10.50.951;REPSWITCH1_version1_list2;2022.2.4;143.8615018;
REPSWITCH1/PICTURE_271.png;conejo;type;darkblue;switch;1;T;3;3;2;1;Stim7_Set3;0;None;56;55;56;0;55;55;55;;;;;;;;;;;;;;;;;;;;;;;271.3525199;272.4846119;272.4846119;272.4846119;272.4846119;272.4846119;272.4846119;272.4846119;272.4846119;['c', 'o', 'n', 'e', 'j', 'o'];0;conejo;C:\2023\REPSWITCH21092023\REPSWITCH_excgange\REPSWITCH_excgange\data/350102_REPSWITCH1_version1_list2_2023-12-12_15h10.50.951_micRespv1l2_recorded\recording_micRespv1l2_2023-12-12_15h15.19.451.wav;275.5127874;;None;275.5127874;275.5127874;275.5127874;275.5127874;275.5127874;275.5127874;[1.176520399749279, 1.3459172998555005, 1.487149799708277, 1.6077547995373607, 1.758621999528259, 1.8739808998070657];;;;;;350102;1;2023-12-12_15h10.50.951;REPSWITCH1_version1_list2;2022.2.4;143.8615018;
REPSWITCH1/PICTURE_610.png;miel;type;darkblue;nontarget;1;NT;3;3;2;1;Stim2_Set3;1;repeat;57;56;57;0;56;56;56;;;;;;;;;;;;;;;;;;;;;;;276.0128594;277.1380048;277.1380048;277.1380048;277.1380048;277.1380048;277.1380048;277.1380048;277.1380048;['m', 'i', 'e', 'l'];0;miel;C:\2023\REPSWITCH21092023\REPSWITCH_excgange\REPSWITCH_excgange\data/350102_REPSWITCH1_version1_list2_2023-12-12_15h10.50.951_micRespv1l2_recorded\recording_micRespv1l2_2023-12-12_15h15.24.104.wav;280.1593296;280.6593244;None;280.1593296;280.1593296;280.1593296;280.1593296;280.1593296;280.1593296;[1.009056699462235, 1.1276587997563183, 1.1874489998444915, 1.3439193996600807];;;;;;350102;1;2023-12-12_15h10.50.951;REPSWITCH1_version1_list2;2022.2.4;143.8615018;
REPSWITCH1/PICTURE_610.png;miel;speak;gold;switch;2;T;3;3;2;1;Stim2_Set3;0;None;58;57;58;0;57;57;57;;;;;;;;;;;;;;;;;;;;;;;280.6593244;281.7497593;281.7497593;281.7497593;281.7497593;281.7497593;281.7497593;281.7497593;281.7497593;None;0;;C:\2023\REPSWITCH21092023\REPSWITCH_excgange\REPSWITCH_excgange\data/350102_REPSWITCH1_version1_list2_2023-12-12_15h10.50.951_micRespv1l2_recorded\recording_micRespv1l2_2023-12-12_15h15.28.717.wav;284.7709355;285.2710313;None;284.7709355;284.7709355;284.7709355;284.7709355;284.7709355;284.7709355;;;;;;;350102;1;2023-12-12_15h10.50.951;REPSWITCH1_version1_list2;2022.2.4;143.8615018;
REPSWITCH1/PICTURE_199.png;falda;type;darkblue;filler;1;F;3;3;2;1;Stim8_Set2;0;None;59;58;59;0;58;58;58;;;;;;;;;;;;;;;;;;;;;;;285.2710313;286.3475469;286.3475469;286.3475469;286.3475469;286.3475469;286.3475469;286.3475469;286.3475469;['f', 'a', 'l', 'd', 'a'];0;falda;C:\2023\REPSWITCH21092023\REPSWITCH_excgange\REPSWITCH_excgange\data/350102_REPSWITCH1_version1_list2_2023-12-12_15h10.50.951_micRespv1l2_recorded\recording_micRespv1l2_2023-12-12_15h15.33.314.wav;289.368801;289.8688604;None;289.368801;289.368801;289.368801;289.368801;289.368801;289.368801;[1.2753393994644284, 1.5374535997398198, 1.636783699505031, 1.7603538995608687, 1.9606872997246683];;;;;;350102;1;2023-12-12_15h10.50.951;REPSWITCH1_version1_list2;2022.2.4;143.8615018;
REPSWITCH1/PICTURE_464.png;goma;speak;gold;nontarget;2;NT;3;3;2;1;Stim6_Set3;1;switch;60;59;60;0;59;59;59;;;;;;;;;;;;;;;;;;;;;;;289.8688604;290.9315205;290.9315205;290.9315205;290.9315205;290.9315205;290.9315205;290.9315205;290.9315205;None;0;;C:\2023\REPSWITCH21092023\REPSWITCH_excgange\REPSWITCH_excgange\data/350102_REPSWITCH1_version1_list2_2023-12-12_15h10.50.951_micRespv1l2_recorded\recording_micRespv1l2_2023-12-12_15h15.37.898.wav;293.9527371;294.4527975;None;293.9527371;293.9527371;293.9527371;293.9527371;293.9527371;293.9527371;;;;;;;350102;1;2023-12-12_15h10.50.951;REPSWITCH1_version1_list2;2022.2.4;143.8615018;
REPSWITCH1/PICTURE_464.png;goma;speak;gold;repeat;2;T;3;3;2;1;Stim6_Set3;0;None;61;60;61;0;60;60;60;;;;;;;;;;;;;;;;;;;;;;;294.4527975;295.5016087;295.5016087;295.5016087;295.5016087;295.5016087;295.5016087;295.5016087;295.5016087;None;0;;C:\2023\REPSWITCH21092023\REPSWITCH_excgange\REPSWITCH_excgange\data/350102_REPSWITCH1_version1_list2_2023-12-12_15h10.50.951_micRespv1l2_recorded\recording_micRespv1l2_2023-12-12_15h15.42.469.wav;298.5227752;299.0228422;None;298.5227752;298.5227752;298.5227752;298.5227752;298.5227752;298.5227752;;;;;;;350102;1;2023-12-12_15h10.50.951;REPSWITCH1_version1_list2;2022.2.4;143.8615018;
REPSWITCH1/PICTURE_152.png;caracol;type;darkblue;filler;1;F;3;3;2;1;Stim2_Set2;0;None;62;61;62;0;61;61;61;;;;;;;;;;;;;;;;;;;;;;;299.0228422;300.0993508;300.0993508;300.0993508;300.0993508;300.0993508;300.0993508;300.0993508;300.0993508;['c', 'a', 'r', 'a', 'c', 'o', 'l'];0;caracol;C:\2023\REPSWITCH21092023\REPSWITCH_excgange\REPSWITCH_excgange\data/350102_REPSWITCH1_version1_list2_2023-12-12_15h10.50.951_micRespv1l2_recorded\recording_micRespv1l2_2023-12-12_15h15.47.066.wav;303.1275174;;None;303.1275174;303.1275174;303.1275174;303.1275174;303.1275174;303.1275174;[1.041429600212723, 1.2716763000935316, 1.424161999952048, 1.4880328997969627, 1.7759770001284778, 1.9763413001783192, 2.1236775000579655];;;;;;350102;1;2023-12-12_15h10.50.951;REPSWITCH1_version1_list2;2022.2.4;143.8615018;
REPSWITCH1/PICTURE_320.png;iglesia;speak;gold;nontarget;2;NT;3;3;2;1;Stim8_Set3;1;switch;63;62;63;0;62;62;62;;;;;;;;;;;;;;;;;;;;;;;303.6275705;304.6417089;304.6417089;304.6417089;304.6417089;304.6417089;304.6417089;304.6417089;304.6417089;None;0;;C:\2023\REPSWITCH21092023\REPSWITCH_excgange\REPSWITCH_excgange\data/350102_REPSWITCH1_version1_list2_2023-12-12_15h10.50.951_micRespv1l2_recorded\recording_micRespv1l2_2023-12-12_15h15.51.610.wav;307.6698061;308.1699421;None;307.6698061;307.6698061;307.6698061;307.6698061;307.6698061;307.6698061;;;;;;;350102;1;2023-12-12_15h10.50.951;REPSWITCH1_version1_list2;2022.2.4;143.8615018;
REPSWITCH1/PICTURE_320.png;iglesia;speak;gold;repeat;2;T;3;3;2;1;Stim8_Set3;0;None;64;63;64;0;63;63;63;;;;;;;;;;;;;;;;;;;;;;;308.1699421;309.2533884;309.2533884;309.2533884;309.2533884;309.2533884;309.2533884;309.2533884;309.2533884;None;0;;C:\2023\REPSWITCH21092023\REPSWITCH_excgange\REPSWITCH_excgange\data/350102_REPSWITCH1_version1_list2_2023-12-12_15h10.50.951_micRespv1l2_recorded\recording_micRespv1l2_2023-12-12_15h15.56.221.wav;312.2815246;;None;312.2815246;312.2815246;312.2815246;312.2815246;312.2815246;312.2815246;;;;;;;350102;1;2023-12-12_15h10.50.951;REPSWITCH1_version1_list2;2022.2.4;143.8615018;
REPSWITCH1/PICTURE_35.png;oreja;speak;gold;nontarget;2;NT;3;3;2;1;Stim5_Set3;0;None;65;64;65;0;64;64;64;;;;;;;;;;;;;;;;;;;;;;;312.7815647;313.9414772;313.9414772;313.9414772;313.9414772;313.9414772;313.9414772;313.9414772;313.9414772;None;0;;C:\2023\REPSWITCH21092023\REPSWITCH_excgange\REPSWITCH_excgange\data/350102_REPSWITCH1_version1_list2_2023-12-12_15h10.50.951_micRespv1l2_recorded\recording_micRespv1l2_2023-12-12_15h16.00.908.wav;316.9627032;317.4628261;None;316.9627032;316.9627032;316.9627032;316.9627032;316.9627032;316.9627032;;;;;;;350102;1;2023-12-12_15h10.50.951;REPSWITCH1_version1_list2;2022.2.4;143.8615018;
REPSWITCH1/PICTURE_35.png;oreja;type;darkblue;switch;1;T;3;3;2;1;Stim5_Set3;0;None;66;65;66;0;65;65;65;;;;;;;;;;;;;;;;;;;;;;;317.4628261;318.553199;318.553199;318.553199;318.553199;318.553199;318.553199;318.553199;318.553199;['o', 'r', 'e', 'j', 'a'];0;oreja;C:\2023\REPSWITCH21092023\REPSWITCH_excgange\REPSWITCH_excgange\data/350102_REPSWITCH1_version1_list2_2023-12-12_15h10.50.951_micRespv1l2_recorded\recording_micRespv1l2_2023-12-12_15h16.05.520.wav;321.574385;322.0744336;None;321.574385;321.574385;321.574385;321.574385;321.574385;321.574385;[0.8911302001215518, 1.0123974001035094, 1.2169961002655327, 1.382948700338602, 1.4698362001217902];;;;;;350102;1;2023-12-12_15h10.50.951;REPSWITCH1_version1_list2;2022.2.4;143.8615018;
REPSWITCH1/PICTURE_517.png;cuerda;speak;gold;filler;2;F;3;3;2;1;Stim4_Set2;0;None;67;66;67;0;66;66;66;;;;;;;;;;;;;;;;;;;;;;;322.0744336;323.171915;323.171915;323.171915;323.171915;323.171915;323.171915;323.171915;323.171915;None;0;;C:\2023\REPSWITCH21092023\REPSWITCH_excgange\REPSWITCH_excgange\data/350102_REPSWITCH1_version1_list2_2023-12-12_15h10.50.951_micRespv1l2_recorded\recording_micRespv1l2_2023-12-12_15h16.10.138.wav;326.1930736;326.6932058;None;326.1930736;326.1930736;326.1930736;326.1930736;326.1930736;326.1930736;;;;;;;350102;1;2023-12-12_15h10.50.951;REPSWITCH1_version1_list2;2022.2.4;143.8615018;
REPSWITCH1/PICTURE_30.png;granja;type;darkblue;filler;1;F;3;3;2;1;Stim5_Set2;1;switch;68;67;68;0;67;67;67;;;;;;;;;;;;;;;;;;;;;;;326.6932058;327.7766479;327.7766479;327.7766479;327.7766479;327.7766479;327.7766479;327.7766479;327.7766479;['f', 'backspace', 'g', 'r', 'a', 'n', 'j'];0;granj;C:\2023\REPSWITCH21092023\REPSWITCH_excgange\REPSWITCH_excgange\data/350102_REPSWITCH1_version1_list2_2023-12-12_15h10.50.951_micRespv1l2_recorded\recording_micRespv1l2_2023-12-12_15h16.14.744.wav;330.8048515;;None;330.8048515;330.8048515;330.8048515;330.8048515;330.8048515;330.8048515;[1.3148993998765945, 1.9549864996224642, 2.23407969949767, 2.4403124996460974, 2.6945100999437273, 2.7687181998044252, 2.967887499835342];;;;;;350102;1;2023-12-12_15h10.50.951;REPSWITCH1_version1_list2;2022.2.4;143.8615018;
REPSWITCH1/PICTURE_242.png;cartero;type;darkblue;nontarget;1;NT;3;3;2;1;Stim3_Set3;0;None;69;68;69;0;68;68;68;;;;;;;;;;;;;;;;;;;;;;;331.3048476;332.3744649;332.3744649;332.3744649;332.3744649;332.3744649;332.3744649;332.3744649;332.3744649;['c', 'a', 'r', 't', 'e', 'r', 'o'];0;cartero;C:\2023\REPSWITCH21092023\REPSWITCH_excgange\REPSWITCH_excgange\data/350102_REPSWITCH1_version1_list2_2023-12-12_15h10.50.951_micRespv1l2_recorded\recording_micRespv1l2_2023-12-12_15h16.19.341.wav;335.3956699;335.8957953;None;335.3956699;335.3956699;335.3956699;335.3956699;335.3956699;335.3956699;[1.0747559000737965, 1.3006660998798907, 1.565003799740225, 1.7703583999536932, 1.991610599681735, 2.11122029973194, 2.727625200059265];;;;;;350102;1;2023-12-12_15h10.50.951;REPSWITCH1_version1_list2;2022.2.4;143.8615018;
REPSWITCH1/PICTURE_242.png;cartero;type;darkblue;repeat;1;T;3;3;2;1;Stim3_Set3;0;None;70;69;70;0;69;69;69;;;;;;;;;;;;;;;;;;;;;;;335.8957953;337.0000219;337.0000219;337.0000219;337.0000219;337.0000219;337.0000219;337.0000219;337.0000219;['c', 'a', 'r', 't', 'e', 'r', 'o'];0;cartero;C:\2023\REPSWITCH21092023\REPSWITCH_excgange\REPSWITCH_excgange\data/350102_REPSWITCH1_version1_list2_2023-12-12_15h10.50.951_micRespv1l2_recorded\recording_micRespv1l2_2023-12-12_15h16.23.967.wav;340.0282081;;None;340.0282081;340.0282081;340.0282081;340.0282081;340.0282081;340.0282081;[0.8014451996423304, 1.0277419998310506, 1.1194005995057523, 1.181176099460572, 1.3207388995215297, 1.4928077994845808, 1.633394599892199];;;;;;350102;1;2023-12-12_15h10.50.951;REPSWITCH1_version1_list2;2022.2.4;143.8615018;
REPSWITCH1/PICTURE_264.png;mano;speak;gold;filler;2;F;3;3;2;1;Stim3_Set2;1;switch;71;70;71;0;70;70;70;;;;;;;;;;;;;;;;;;;;;;;340.5282806;341.639557;341.639557;341.639557;341.639557;341.639557;341.639557;341.639557;341.639557;None;0;;C:\2023\REPSWITCH21092023\REPSWITCH_excgange\REPSWITCH_excgange\data/350102_REPSWITCH1_version1_list2_2023-12-12_15h10.50.951_micRespv1l2_recorded\recording_micRespv1l2_2023-12-12_15h16.28.607.wav;344.6677158;;None;344.6677158;344.6677158;344.6677158;344.6677158;344.6677158;344.6677158;;;;;;;350102;1;2023-12-12_15h10.50.951;REPSWITCH1_version1_list2;2022.2.4;143.8615018;
REPSWITCH1/PICTURE_576.png;guante;type;darkblue;nontarget;1;NT;3;3;2;1;Stim1_Set3;1;switch;72;71;72;0;71;71;71;;;;;;;;;;;;;;;;;;;;;;;345.1677836;346.292936;346.292936;346.292936;346.292936;346.292936;346.292936;346.292936;346.292936;['g', 'u', 'a', 'b', 'n', 't', 'e'];0;guante;C:\2023\REPSWITCH21092023\REPSWITCH_excgange\REPSWITCH_excgange\data/350102_REPSWITCH1_version1_list2_2023-12-12_15h10.50.951_micRespv1l2_recorded\recording_micRespv1l2_2023-12-12_15h16.33.260.wav;349.3211059;;None;349.3211059;349.3211059;349.3211059;349.3211059;349.3211059;349.3211059;[1.1575603000819683, 1.4190903999842703, 1.5077952998690307, 1.6918835998512805, 1.69288200000301, 2.6090954998508096, 2.8234772998839617];;;;;;350102;1;2023-12-12_15h10.50.951;REPSWITCH1_version1_list2;2022.2.4;143.8615018;
REPSWITCH1/PICTURE_576.png;guante;type;darkblue;repeat;1;T;3;3;2;1;Stim1_Set3;0;None;73;72;73;0;72;72;72;;;;;;;;;;;;;;;;;;;;;;;349.8212342;351.0226916;351.0226916;351.0226916;351.0226916;351.0226916;351.0226916;351.0226916;351.0226916;['g', 'u', 'a', 'n', 't', 'e'];0;guante;C:\2023\REPSWITCH21092023\REPSWITCH_excgange\REPSWITCH_excgange\data/350102_REPSWITCH1_version1_list2_2023-12-12_15h10.50.951_micRespv1l2_recorded\recording_micRespv1l2_2023-12-12_15h16.37.991.wav;354.050892;;None;354.050892;354.050892;354.050892;354.050892;354.050892;354.050892;[0.8525817994959652, 0.9906322997994721, 1.0946735995821655, 1.2255721995607018, 1.3730174996890128, 1.5685787997208536];;;;;;350102;1;2023-12-12_15h10.50.951;REPSWITCH1_version1_list2;2022.2.4;143.8615018;
REPSWITCH1/PICTURE_175.png;pintor;speak;gold;filler;2;F;3;3;2;1;Stim1_Set2;0;None;74;73;74;0;73;73;73;;;;;;;;;;;;;;;;;;;;;;;354.5510331;355.5858488;355.5858488;355.5858488;355.5858488;355.5858488;355.5858488;355.5858488;355.5858488;None;0;;C:\2023\REPSWITCH21092023\REPSWITCH_excgange\REPSWITCH_excgange\data/350102_REPSWITCH1_version1_list2_2023-12-12_15h10.50.951_micRespv1l2_recorded\recording_micRespv1l2_2023-12-12_15h16.42.553.wav;358.6139958;;None;358.6139958;358.6139958;358.6139958;358.6139958;358.6139958;358.6139958;;;;;;;350102;1;2023-12-12_15h10.50.951;REPSWITCH1_version1_list2;2022.2.4;143.8615018;
REPSWITCH1/PICTURE_498.png;taza;type;darkblue;nontarget;1;NT;4;3;2;1;Stim4_Set4;0;None;75;74;75;0;74;74;74;;;;;;;;;;;;;;;;;;;;;;;359.1140521;360.3294821;360.3294821;360.3294821;360.3294821;360.3294821;360.3294821;360.3294821;360.3294821;['t', 'a', 'z', 'a'];0;taza;C:\2023\REPSWITCH21092023\REPSWITCH_excgange\REPSWITCH_excgange\data/350102_REPSWITCH1_version1_list2_2023-12-12_15h10.50.951_micRespv1l2_recorded\recording_micRespv1l2_2023-12-12_15h16.47.296.wav;363.3576581;;None;363.3576581;363.3576581;363.3576581;363.3576581;363.3576581;363.3576581;[1.0195275996811688, 1.1231729998253286, 1.568399699870497, 1.835799299646169];;;;;;350102;1;2023-12-12_15h10.50.951;REPSWITCH1_version1_list2;2022.2.4;143.8615018;
REPSWITCH1/PICTURE_498.png;taza;type;darkblue;repeat;1;T;4;3;2;1;Stim4_Set4;0;None;76;75;76;0;75;75;75;;;;;;;;;;;;;;;;;;;;;;;363.8577239;365.0523838;365.0523838;365.0523838;365.0523838;365.0523838;365.0523838;365.0523838;365.0523838;['t', 'a', 'z', 'a'];0;taza;C:\2023\REPSWITCH21092023\REPSWITCH_excgange\REPSWITCH_excgange\data/350102_REPSWITCH1_version1_list2_2023-12-12_15h10.50.951_micRespv1l2_recorded\recording_micRespv1l2_2023-12-12_15h16.52.019.wav;368.0804812;;None;368.0804812;368.0804812;368.0804812;368.0804812;368.0804812;368.0804812;[1.2506987997330725, 1.36533119995147, 1.5712972995825112, 1.7585465996526182];;;;;;350102;1;2023-12-12_15h10.50.951;REPSWITCH1_version1_list2;2022.2.4;143.8615018;
REPSWITCH1/PICTURE_235.png;aguja;speak;gold;filler;2;F;4;3;2;1;Stim4_Set3;0;None;77;76;77;0;76;76;76;;;;;;;;;;;;;;;;;;;;;;;368.5805515;369.64324;369.64324;369.64324;369.64324;369.64324;369.64324;369.64324;369.64324;None;0;;C:\2023\REPSWITCH21092023\REPSWITCH_excgange\REPSWITCH_excgange\data/350102_REPSWITCH1_version1_list2_2023-12-12_15h10.50.951_micRespv1l2_recorded\recording_micRespv1l2_2023-12-12_15h16.56.610.wav;372.6713663;;None;372.6713663;372.6713663;372.6713663;372.6713663;372.6713663;372.6713663;;;;;;;350102;1;2023-12-12_15h10.50.951;REPSWITCH1_version1_list2;2022.2.4;143.8615018;
REPSWITCH1/PICTURE_338.png;regalo;type;darkblue;nontarget;1;NT;4;3;2;1;Stim6_Set4;1;switch;78;77;78;0;77;77;77;;;;;;;;;;;;;;;;;;;;;;;373.1714315;374.2271644;374.2271644;374.2271644;374.2271644;374.2271644;374.2271644;374.2271644;374.2271644;['r', 'e', 'g', 'a', 'l', 'o'];0;regalo;C:\2023\REPSWITCH21092023\REPSWITCH_excgange\REPSWITCH_excgange\data/350102_REPSWITCH1_version1_list2_2023-12-12_15h10.50.951_micRespv1l2_recorded\recording_micRespv1l2_2023-12-12_15h17.01.195.wav;377.2553592;;None;377.2553592;377.2553592;377.2553592;377.2553592;377.2553592;377.2553592;[1.0068723000586033, 1.1356842000968754, 1.314389199949801, 1.4271208997815847, 1.7361507997848094, 1.8860001000575721];;;;;;350102;1;2023-12-12_15h10.50.951;REPSWITCH1_version1_list2;2022.2.4;143.8615018;
REPSWITCH1/PICTURE_338.png;regalo;speak;gold;switch;2;T;4;3;2;1;Stim6_Set4;0;None;79;78;79;0;78;78;78;;;;;;;;;;;;;;;;;;;;;;;377.7553629;378.9013523;378.9013523;378.9013523;378.9013523;378.9013523;378.9013523;378.9013523;378.9013523;None;0;;C:\2023\REPSWITCH21092023\REPSWITCH_excgange\REPSWITCH_excgange\data/350102_REPSWITCH1_version1_list2_2023-12-12_15h10.50.951_micRespv1l2_recorded\recording_micRespv1l2_2023-12-12_15h17.05.869.wav;381.9295965;;None;381.9295965;381.9295965;381.9295965;381.9295965;381.9295965;381.9295965;;;;;;;350102;1;2023-12-12_15h10.50.951;REPSWITCH1_version1_list2;2022.2.4;143.8615018;
REPSWITCH1/PICTURE_719.png;baño;speak;gold;nontarget;2;NT;4;3;2;1;Stim2_Set4;1;repeat;80;79;80;0;79;79;79;;;;;;;;;;;;;;;;;;;;;;;382.4296116;383.5686738;383.5686738;383.5686738;383.5686738;383.5686738;383.5686738;383.5686738;383.5686738;None;0;;C:\2023\REPSWITCH21092023\REPSWITCH_excgange\REPSWITCH_excgange\data/350102_REPSWITCH1_version1_list2_2023-12-12_15h10.50.951_micRespv1l2_recorded\recording_micRespv1l2_2023-12-12_15h17.10.536.wav;386.5968936;;None;386.5968936;386.5968936;386.5968936;386.5968936;386.5968936;386.5968936;;;;;;;350102;1;2023-12-12_15h10.50.951;REPSWITCH1_version1_list2;2022.2.4;143.8615018;
REPSWITCH1/PICTURE_719.png;baño;speak;gold;repeat;2;T;4;3;2;1;Stim2_Set4;0;None;81;80;81;0;80;80;80;;;;;;;;;;;;;;;;;;;;;;;387.0968913;388.15264;388.15264;388.15264;388.15264;388.15264;388.15264;388.15264;388.15264;None;0;;C:\2023\REPSWITCH21092023\REPSWITCH_excgange\REPSWITCH_excgange\data/350102_REPSWITCH1_version1_list2_2023-12-12_15h10.50.951_micRespv1l2_recorded\recording_micRespv1l2_2023-12-12_15h17.15.119.wav;391.1738218;391.6738829;None;391.1738218;391.1738218;391.1738218;391.1738218;391.1738218;391.1738218;;;;;;;350102;1;2023-12-12_15h10.50.951;REPSWITCH1_version1_list2;2022.2.4;143.8615018;
REPSWITCH1/PICTURE_271.png;conejo;type;darkblue;filler;1;F;4;3;2;1;Stim7_Set3;0;None;82;81;82;0;81;81;81;;;;;;;;;;;;;;;;;;;;;;;391.6738829;392.8616014;392.8616014;392.8616014;392.8616014;392.8616014;392.8616014;392.8616014;392.8616014;['c', 'o', 'n', 'e', 'j', 'o'];0;conejo;C:\2023\REPSWITCH21092023\REPSWITCH_excgange\REPSWITCH_excgange\data/350102_REPSWITCH1_version1_list2_2023-12-12_15h10.50.951_micRespv1l2_recorded\recording_micRespv1l2_2023-12-12_15h17.19.829.wav;395.8828446;396.3828988;None;395.8828446;395.8828446;395.8828446;395.8828446;395.8828446;395.8828446;[0.8889154000207782, 1.2439565998502076, 1.4322930998168886, 1.5697280997410417, 1.715273399837315, 1.8327699000947177];;;;;;350102;1;2023-12-12_15h10.50.951;REPSWITCH1_version1_list2;2022.2.4;143.8615018;
REPSWITCH1/PICTURE_610.png;miel;speak;gold;filler;2;F;4;3;2;1;Stim2_Set3;0;None;83;82;83;0;82;82;82;;;;;;;;;;;;;;;;;;;;;;;396.3828988;397.4454592;397.4454592;397.4454592;397.4454592;397.4454592;397.4454592;397.4454592;397.4454592;None;0;;C:\2023\REPSWITCH21092023\REPSWITCH_excgange\REPSWITCH_excgange\data/350102_REPSWITCH1_version1_list2_2023-12-12_15h10.50.951_micRespv1l2_recorded\recording_micRespv1l2_2023-12-12_15h17.24.413.wav;400.4736495;400.9737123;None;400.4736495;400.4736495;400.4736495;400.4736495;400.4736495;400.4736495;;;;;;;350102;1;2023-12-12_15h10.50.951;REPSWITCH1_version1_list2;2022.2.4;143.8615018;
REPSWITCH1/PICTURE_687.png;camisa;speak;gold;nontarget;2;NT;4;3;2;1;Stim5_Set4;1;repeat;84;83;84;0;83;83;83;;;;;;;;;;;;;;;;;;;;;;;400.9737123;402.0155758;402.0155758;402.0155758;402.0155758;402.0155758;402.0155758;402.0155758;402.0155758;None;0;;C:\2023\REPSWITCH21092023\REPSWITCH_excgange\REPSWITCH_excgange\data/350102_REPSWITCH1_version1_list2_2023-12-12_15h10.50.951_micRespv1l2_recorded\recording_micRespv1l2_2023-12-12_15h17.28.982.wav;405.0367508;405.5368339;None;405.0367508;405.0367508;405.0367508;405.0367508;405.0367508;405.0367508;;;;;;;350102;1;2023-12-12_15h10.50.951;REPSWITCH1_version1_list2;2022.2.4;143.8615018;
REPSWITCH1/PICTURE_687.png;camisa;type;darkblue;switch;1;T;4;3;2;1;Stim5_Set4;0;None;85;84;85;0;84;84;84;;;;;;;;;;;;;;;;;;;;;;;405.5368339;406.6550366;406.6550366;406.6550366;406.6550366;406.6550366;406.6550366;406.6550366;406.6550366;['c', 'm', 'a', 'backspace', 'backspace', 'a', 'm'];0;cam;C:\2023\REPSWITCH21092023\REPSWITCH_excgange\REPSWITCH_excgange\data/350102_REPSWITCH1_version1_list2_2023-12-12_15h10.50.951_micRespv1l2_recorded\recording_micRespv1l2_2023-12-12_15h17.33.622.wav;409.6762486;410.176295;None;409.6762486;409.6762486;409.6762486;409.6762486;409.6762486;409.6762486;[0.7949053002521396, 1.1173866000026464, 1.6492876000702381, 2.3563276999630034, 2.511792399920523, 2.656255300156772, 2.8924680002965033];;;;;;350102;1;2023-12-12_15h10.50.951;REPSWITCH1_version1_list2;2022.2.4;143.8615018;
REPSWITCH1/PICTURE_319.png;vaca;type;darkblue;nontarget;1;NT;4;3;2;1;Stim1_Set4;0;None;86;85;86;0;85;85;85;;;;;;;;;;;;;;;;;;;;;;;410.176295;411.2875811;411.2875811;411.2875811;411.2875811;411.2875811;411.2875811;411.2875811;411.2875811;['v', 'a', 'c', 'a'];0;vaca;C:\2023\REPSWITCH21092023\REPSWITCH_excgange\REPSWITCH_excgange\data/350102_REPSWITCH1_version1_list2_2023-12-12_15h10.50.951_micRespv1l2_recorded\recording_micRespv1l2_2023-12-12_15h17.38.254.wav;414.3087605;414.8088509;None;414.3087605;414.3087605;414.3087605;414.3087605;414.3087605;414.3087605;[0.9428555001504719, 1.0006229998543859, 1.1471667997539043, 1.2119375001639128];;;;;;350102;1;2023-12-12_15h10.50.951;REPSWITCH1_version1_list2;2022.2.4;143.8615018;
REPSWITCH1/PICTURE_319.png;vaca;speak;gold;switch;2;T;4;3;2;1;Stim1_Set4;0;None;87;86;87;0;86;86;86;;;;;;;;;;;;;;;;;;;;;;;414.8088509;415.9131723;415.9131723;415.9131723;415.9131723;415.9131723;415.9131723;415.9131723;415.9131723;None;0;;C:\2023\REPSWITCH21092023\REPSWITCH_excgange\REPSWITCH_excgange\data/350102_REPSWITCH1_version1_list2_2023-12-12_15h10.50.951_micRespv1l2_recorded\recording_micRespv1l2_2023-12-12_15h17.42.880.wav;418.9413255;;None;418.9413255;418.9413255;418.9413255;418.9413255;418.9413255;418.9413255;;;;;;;350102;1;2023-12-12_15h10.50.951;REPSWITCH1_version1_list2;2022.2.4;143.8615018;
REPSWITCH1/PICTURE_464.png;goma;type;darkblue;filler;1;F;4;3;2;1;Stim6_Set3;1;switch;88;87;88;0;87;87;87;;;;;;;;;;;;;;;;;;;;;;;419.4413888;420.4762762;420.4762762;420.4762762;420.4762762;420.4762762;420.4762762;420.4762762;420.4762762;['g', 'o', 'm', 'a'];0;goma;C:\2023\REPSWITCH21092023\REPSWITCH_excgange\REPSWITCH_excgange\data/350102_REPSWITCH1_version1_list2_2023-12-12_15h10.50.951_micRespv1l2_recorded\recording_micRespv1l2_2023-12-12_15h17.47.442.wav;423.4975473;423.9976336;None;423.4975473;423.4975473;423.4975473;423.4975473;423.4975473;423.4975473;[1.194185100030154, 1.3783892998471856, 1.4985503000207245, 1.593159900046885];;;;;;350102;1;2023-12-12_15h10.50.951;REPSWITCH1_version1_list2;2022.2.4;143.8615018;
REPSWITCH1/PICTURE_728.png;pulpo;speak;gold;nontarget;2;NT;4;3;2;1;Stim8_Set4;1;switch;89;88;89;0;88;88;88;;;;;;;;;;;;;;;;;;;;;;;423.9976336;425.0463283;425.0463283;425.0463283;425.0463283;425.0463283;425.0463283;425.0463283;425.0463283;None;0;;C:\2023\REPSWITCH21092023\REPSWITCH_excgange\REPSWITCH_excgange\data/350102_REPSWITCH1_version1_list2_2023-12-12_15h10.50.951_micRespv1l2_recorded\recording_micRespv1l2_2023-12-12_15h17.52.013.wav;428.0744828;;None;428.0744828;428.0744828;428.0744828;428.0744828;428.0744828;428.0744828;;;;;;;350102;1;2023-12-12_15h10.50.951;REPSWITCH1_version1_list2;2022.2.4;143.8615018;
REPSWITCH1/PICTURE_728.png;pulpo;speak;gold;repeat;2;T;4;3;2;1;Stim8_Set4;0;None;90;89;90;0;89;89;89;;;;;;;;;;;;;;;;;;;;;;;428.574531;429.7066563;429.7066563;429.7066563;429.7066563;429.7066563;429.7066563;429.7066563;429.7066563;None;0;;C:\2023\REPSWITCH21092023\REPSWITCH_excgange\REPSWITCH_excgange\data/350102_REPSWITCH1_version1_list2_2023-12-12_15h10.50.951_micRespv1l2_recorded\recording_micRespv1l2_2023-12-12_15h17.56.674.wav;432.7348452;;None;432.7348452;432.7348452;432.7348452;432.7348452;432.7348452;432.7348452;;;;;;;350102;1;2023-12-12_15h10.50.951;REPSWITCH1_version1_list2;2022.2.4;143.8615018;
REPSWITCH1/PICTURE_320.png;iglesia;type;darkblue;filler;1;F;4;3;2;1;Stim8_Set3;0;None;91;90;91;0;90;90;90;;;;;;;;;;;;;;;;;;;;;;;433.2348978;434.2628019;434.2628019;434.2628019;434.2628019;434.2628019;434.2628019;434.2628019;434.2628019;['i', 'g', 'l', 'e', 's', 'i', 'a'];0;iglesia;C:\2023\REPSWITCH21092023\REPSWITCH_excgange\REPSWITCH_excgange\data/350102_REPSWITCH1_version1_list2_2023-12-12_15h10.50.951_micRespv1l2_recorded\recording_micRespv1l2_2023-12-12_15h18.01.230.wav;437.2840144;437.7841758;None;437.2840144;437.2840144;437.2840144;437.2840144;437.2840144;437.2840144;[1.089811199810356, 1.273413599934429, 1.4468310996890068, 1.5741619998589158, 1.7675173999741673, 1.8711756998673081, 1.968839899636805];;;;;;350102;1;2023-12-12_15h10.50.951;REPSWITCH1_version1_list2;2022.2.4;143.8615018;
REPSWITCH1/PICTURE_576.png;guante;speak;gold;filler;2;F;4;3;2;1;Stim1_Set3;0;None;92;91;92;0;91;91;91;;;;;;;;;;;;;;;;;;;;;;;437.7841758;438.916248;438.916248;438.916248;438.916248;438.916248;438.916248;438.916248;438.916248;None;0;;C:\2023\REPSWITCH21092023\REPSWITCH_excgange\REPSWITCH_excgange\data/350102_REPSWITCH1_version1_list2_2023-12-12_15h10.50.951_micRespv1l2_recorded\recording_micRespv1l2_2023-12-12_15h18.05.883.wav;441.9373851;442.4374596;None;441.9373851;441.9373851;441.9373851;441.9373851;441.9373851;441.9373851;;;;;;;350102;1;2023-12-12_15h10.50.951;REPSWITCH1_version1_list2;2022.2.4;143.8615018;
REPSWITCH1/PICTURE_8.png;pierna;speak;gold;nontarget;2;NT;4;3;2;1;Stim3_Set4;1;repeat;93;92;93;0;92;92;92;;;;;;;;;;;;;;;;;;;;;;;442.4374596;443.6182079;443.6182079;443.6182079;443.6182079;443.6182079;443.6182079;443.6182079;443.6182079;None;0;;C:\2023\REPSWITCH21092023\REPSWITCH_excgange\REPSWITCH_excgange\data/350102_REPSWITCH1_version1_list2_2023-12-12_15h10.50.951_micRespv1l2_recorded\recording_micRespv1l2_2023-12-12_15h18.10.585.wav;446.6394051;447.1394672;None;446.6394051;446.6394051;446.6394051;446.6394051;446.6394051;446.6394051;;;;;;;350102;1;2023-12-12_15h10.50.951;REPSWITCH1_version1_list2;2022.2.4;143.8615018;
REPSWITCH1/PICTURE_8.png;pierna;type;darkblue;switch;1;T;4;3;2;1;Stim3_Set4;0;None;94;93;94;0;93;93;93;;;;;;;;;;;;;;;;;;;;;;;447.1394672;448.1812779;448.1812779;448.1812779;448.1812779;448.1812779;448.1812779;448.1812779;448.1812779;['p', 'i', 'e', 'r', 'n', 'a'];0;pierna;C:\2023\REPSWITCH21092023\REPSWITCH_excgange\REPSWITCH_excgange\data/350102_REPSWITCH1_version1_list2_2023-12-12_15h10.50.951_micRespv1l2_recorded\recording_micRespv1l2_2023-12-12_15h18.15.148.wav;451.2024896;451.7025892;None;451.2024896;451.2024896;451.2024896;451.2024896;451.2024896;451.2024896;[1.0360521995462477, 1.1975003997795284, 1.2333878995850682, 1.4147745994850993, 1.5227511995472014, 1.6207272997125983];;;;;;350102;1;2023-12-12_15h10.50.951;REPSWITCH1_version1_list2;2022.2.4;143.8615018;
REPSWITCH1/PICTURE_673.png;tenedor;speak;gold;filler;2;F;4;3;2;1;Extra5;0;None;95;94;95;0;94;94;94;;;;;;;;;;;;;;;;;;;;;;;451.7025892;452.8068792;452.8068792;452.8068792;452.8068792;452.8068792;452.8068792;452.8068792;452.8068792;None;0;;C:\2023\REPSWITCH21092023\REPSWITCH_excgange\REPSWITCH_excgange\data/350102_REPSWITCH1_version1_list2_2023-12-12_15h10.50.951_micRespv1l2_recorded\recording_micRespv1l2_2023-12-12_15h18.19.775.wav;455.8351091;;None;455.8351091;455.8351091;455.8351091;455.8351091;455.8351091;455.8351091;;;;;;;350102;1;2023-12-12_15h10.50.951;REPSWITCH1_version1_list2;2022.2.4;143.8615018;
REPSWITCH1/PICTURE_35.png;oreja;type;darkblue;filler;1;F;4;3;2;1;Stim5_Set3;1;switch;96;95;96;0;95;95;95;;;;;;;;;;;;;;;;;;;;;;;456.3351402;457.4741677;457.4741677;457.4741677;457.4741677;457.4741677;457.4741677;457.4741677;457.4741677;['o', 'r', 'e', 'j', 'a'];0;oreja;C:\2023\REPSWITCH21092023\REPSWITCH_excgange\REPSWITCH_excgange\data/350102_REPSWITCH1_version1_list2_2023-12-12_15h10.50.951_micRespv1l2_recorded\recording_micRespv1l2_2023-12-12_15h18.24.442.wav;460.495384;460.9954526;None;460.495384;460.495384;460.495384;460.495384;460.495384;460.495384;[0.9368378999643028, 1.0465639997273684, 1.245069199707359, 1.3945462997071445, 1.5111563000828028];;;;;;350102;1;2023-12-12_15h10.50.951;REPSWITCH1_version1_list2;2022.2.4;143.8615018;
REPSWITCH1/PICTURE_663.png;columna;speak;gold;filler;2;F;4;3;2;1;Extra6;0;None;97;96;97;0;96;96;96;;;;;;;;;;;;;;;;;;;;;;;460.9954526;462.0650772;462.0650772;462.0650772;462.0650772;462.0650772;462.0650772;462.0650772;462.0650772;None;0;;C:\2023\REPSWITCH21092023\REPSWITCH_excgange\REPSWITCH_excgange\data/350102_REPSWITCH1_version1_list2_2023-12-12_15h10.50.951_micRespv1l2_recorded\recording_micRespv1l2_2023-12-12_15h18.29.033.wav;465.0932257;465.5932871;None;465.0932257;465.0932257;465.0932257;465.0932257;465.0932257;465.0932257;;;;;;;350102;1;2023-12-12_15h10.50.951;REPSWITCH1_version1_list2;2022.2.4;143.8615018;
REPSWITCH1/PICTURE_242.png;cartero;type;darkblue;filler;1;F;4;3;2;1;Stim3_Set3;1;switch;98;97;98;0;97;97;97;;;;;;;;;;;;;;;;;;;;;;;465.5932871;466.6143335;466.6143335;466.6143335;466.6143335;466.6143335;466.6143335;466.6143335;466.6143335;['c', 'a', 'r', 't', 'e', 'r', 'o'];0;cartero;C:\2023\REPSWITCH21092023\REPSWITCH_excgange\REPSWITCH_excgange\data/350102_REPSWITCH1_version1_list2_2023-12-12_15h10.50.951_micRespv1l2_recorded\recording_micRespv1l2_2023-12-12_15h18.33.580.wav;469.6354754;470.1355672;None;469.6354754;469.6354754;469.6354754;469.6354754;469.6354754;469.6354754;[1.0383963994681835, 1.2742973999120295, 1.377959399484098, 1.470638099592179, 1.5699775996617973, 1.7505556996911764, 1.9080701996572316];;;;;;350102;1;2023-12-12_15h10.50.951;REPSWITCH1_version1_list2;2022.2.4;143.8615018;
REPSWITCH1/PICTURE_48.png;bombero;type;darkblue;nontarget;1;NT;4;3;2;1;Stim7_Set4;1;repeat;99;98;99;0;98;98;98;;;;;;;;;;;;;;;;;;;;;;;470.1355672;471.2260491;471.2260491;471.2260491;471.2260491;471.2260491;471.2260491;471.2260491;471.2260491;['b', 'o', 'n', 'backspace', 'm'];0;bom;C:\2023\REPSWITCH21092023\REPSWITCH_excgange\REPSWITCH_excgange\data/350102_REPSWITCH1_version1_list2_2023-12-12_15h10.50.951_micRespv1l2_recorded\recording_micRespv1l2_2023-12-12_15h18.38.193.wav;474.2541644;;None;474.2541644;474.2541644;474.2541644;474.2541644;474.2541644;474.2541644;[1.3879936998710036, 1.5245342999696732, 1.6245943997055292, 2.4849725998938084, 2.823097199667245];;;;;;350102;1;2023-12-12_15h10.50.951;REPSWITCH1_version1_list2;2022.2.4;143.8615018;
REPSWITCH1/PICTURE_48.png;bombero;type;darkblue;repeat;1;T;4;3;2;1;Stim7_Set4;0;None;100;99;100;0;99;99;99;;;;;;;;;;;;;;;;;;;;;;;474.7542252;475.7891425;475.7891425;475.7891425;475.7891425;475.7891425;475.7891425;475.7891425;475.7891425;['b', 'o', 'm', 'b', 'e', 'r', 'o'];0;bombero;C:\2023\REPSWITCH21092023\REPSWITCH_excgange\REPSWITCH_excgange\data/350102_REPSWITCH1_version1_list2_2023-12-12_15h10.50.951_micRespv1l2_recorded\recording_micRespv1l2_2023-12-12_15h18.42.756.wav;478.8172543;;None;478.8172543;478.8172543;478.8172543;478.8172543;478.8172543;478.8172543;[0.9705085996538401, 1.1816299995407462, 1.3580698994919658, 1.5962403998710215, 1.6789980996400118, 1.845965199638158, 1.902555599808693];;;;;;350102;1;2023-12-12_15h10.50.951;REPSWITCH1_version1_list2;2022.2.4;143.8615018;
REPSWITCH1/PICTURE_391.png;cadena;speak;gold;filler;2;F;4;3;2;1;Extra2;0;None;101;100;101;0;100;100;100;;;;;;;;;;;;;;;;;;;;;;;479.3172878;480.4703142;480.4703142;480.4703142;480.4703142;480.4703142;480.4703142;480.4703142;480.4703142;None;0;;C:\2023\REPSWITCH21092023\REPSWITCH_excgange\REPSWITCH_excgange\data/350102_REPSWITCH1_version1_list2_2023-12-12_15h10.50.951_micRespv1l2_recorded\recording_micRespv1l2_2023-12-12_15h18.47.437.wav;483.4984059;;None;483.4984059;483.4984059;483.4984059;483.4984059;483.4984059;483.4984059;;;;;;;350102;1;2023-12-12_15h10.50.951;REPSWITCH1_version1_list2;2022.2.4;143.8615018;
REPSWITCH1/PICTURE_590.png;escoba;type;darkblue;filler;1;F;4;3;2;1;Extra3;0;None;102;101;102;0;101;101;101;;;;;;;;;;;;;;;;;;;;;;;483.9984677;485.1653361;485.1653361;485.1653361;485.1653361;485.1653361;485.1653361;485.1653361;485.1653361;['e', 's', 'c', 'o', 'b', 'a'];0;escoba;C:\2023\REPSWITCH21092023\REPSWITCH_excgange\REPSWITCH_excgange\data/350102_REPSWITCH1_version1_list2_2023-12-12_15h10.50.951_micRespv1l2_recorded\recording_micRespv1l2_2023-12-12_15h18.52.132.wav;488.1865343;488.686596;space;488.1865343;488.1865343;488.1865343;488.1865343;488.1865343;488.1865343;[1.2627467000856996, 1.4444384002126753, 1.7282489999197423, 1.8249411000870168, 2.100134199950844, 2.206803699955344];488.686596;488.686596;5.4314492;;;350102;1;2023-12-12_15h10.50.951;REPSWITCH1_version1_list2;2022.2.4;143.8615018;
REPSWITCH1/PICTURE_340.png;espejo;type;darkblue;filler;1;F;1;1;2;1;Extra1;0;None;103;102;1;0;102;102;102;;;;;;;;;;;;;;;;;;;;;;;494.1317665;495.2361334;495.2361334;495.2361334;495.2361334;495.2361334;495.2361334;495.2361334;495.2361334;['e', 's', 'e', 'j', 'o'];0;esejo;C:\2023\REPSWITCH21092023\REPSWITCH_excgange\REPSWITCH_excgange\data/350102_REPSWITCH1_version1_list2_2023-12-12_15h10.50.951_micRespv1l2_recorded\recording_micRespv1l2_2023-12-12_15h19.02.203.wav;498.257347;498.7573488;None;498.257347;498.257347;498.257347;498.257347;498.257347;498.257347;[1.8508923999033868, 2.0295703997835517, 2.454171999823302, 2.5358948996290565, 2.61662989994511];;;;;;350102;1;2023-12-12_15h10.50.951;REPSWITCH1_version1_list2;2022.2.4;143.8615018;
REPSWITCH1/PICTURE_391.png;cadena;speak;gold;filler;2;F;1;1;2;1;Extra2;0;None;104;103;2;0;103;103;103;;;;;;;;;;;;;;;;;;;;;;;498.7573488;499.8825782;499.8825782;499.8825782;499.8825782;499.8825782;499.8825782;499.8825782;499.8825782;None;0;;C:\2023\REPSWITCH21092023\REPSWITCH_excgange\REPSWITCH_excgange\data/350102_REPSWITCH1_version1_list2_2023-12-12_15h10.50.951_micRespv1l2_recorded\recording_micRespv1l2_2023-12-12_15h19.06.851.wav;502.9107029;;None;502.9107029;502.9107029;502.9107029;502.9107029;502.9107029;502.9107029;;;;;;;350102;1;2023-12-12_15h10.50.951;REPSWITCH1_version1_list2;2022.2.4;143.8615018;
REPSWITCH1/PICTURE_178.png;puente;speak;gold;nontarget;2;NT;1;1;2;1;Stim1_Set1;1;repeat;105;104;3;0;104;104;104;;;;;;;;;;;;;;;;;;;;;;;503.4108321;504.4942898;504.4942898;504.4942898;504.4942898;504.4942898;504.4942898;504.4942898;504.4942898;None;0;;C:\2023\REPSWITCH21092023\REPSWITCH_excgange\REPSWITCH_excgange\data/350102_REPSWITCH1_version1_list2_2023-12-12_15h10.50.951_micRespv1l2_recorded\recording_micRespv1l2_2023-12-12_15h19.11.461.wav;507.5154356;508.0155338;None;507.5154356;507.5154356;507.5154356;507.5154356;507.5154356;507.5154356;;;;;;;350102;1;2023-12-12_15h10.50.951;REPSWITCH1_version1_list2;2022.2.4;143.8615018;
REPSWITCH1/PICTURE_178.png;puente;speak;gold;repeat;2;T;1;1;2;1;Stim1_Set1;0;None;106;105;4;0;105;105;105;;;;;;;;;;;;;;;;;;;;;;;508.0155338;509.10596;509.10596;509.10596;509.10596;509.10596;509.10596;509.10596;509.10596;None;0;;C:\2023\REPSWITCH21092023\REPSWITCH_excgange\REPSWITCH_excgange\data/350102_REPSWITCH1_version1_list2_2023-12-12_15h10.50.951_micRespv1l2_recorded\recording_micRespv1l2_2023-12-12_15h19.16.073.wav;512.1271861;512.627273;None;512.1271861;512.1271861;512.1271861;512.1271861;512.1271861;512.1271861;;;;;;;350102;1;2023-12-12_15h10.50.951;REPSWITCH1_version1_list2;2022.2.4;143.8615018;
REPSWITCH1/PICTURE_319.png;vaca;type;darkblue;filler;1;F;1;1;2;1;Stim1_Set4;0;None;107;106;5;0;106;106;106;;;;;;;;;;;;;;;;;;;;;;;512.627273;513.6551774;513.6551774;513.6551774;513.6551774;513.6551774;513.6551774;513.6551774;513.6551774;['v', 'a', 'c', 'a'];0;vaca;C:\2023\REPSWITCH21092023\REPSWITCH_excgange\REPSWITCH_excgange\data/350102_REPSWITCH1_version1_list2_2023-12-12_15h10.50.951_micRespv1l2_recorded\recording_micRespv1l2_2023-12-12_15h19.20.622.wav;516.68331;;None;516.68331;516.68331;516.68331;516.68331;516.68331;516.68331;[0.9059775997884572, 0.9608114999718964, 1.1158460997976363, 1.1637194999493659];;;;;;350102;1;2023-12-12_15h10.50.951;REPSWITCH1_version1_list2;2022.2.4;143.8615018;
REPSWITCH1/PICTURE_381.png;fresa;speak;gold;nontarget;2;NT;1;1;2;1;Stim2_Set1;1;switch;108;107;6;0;107;107;107;;;;;;;;;;;;;;;;;;;;;;;517.1833773;518.4197355;518.4197355;518.4197355;518.4197355;518.4197355;518.4197355;518.4197355;518.4197355;None;0;;C:\2023\REPSWITCH21092023\REPSWITCH_excgange\REPSWITCH_excgange\data/350102_REPSWITCH1_version1_list2_2023-12-12_15h10.50.951_micRespv1l2_recorded\recording_micRespv1l2_2023-12-12_15h19.25.387.wav;521.4479272;;None;521.4479272;521.4479272;521.4479272;521.4479272;521.4479272;521.4479272;;;;;;;350102;1;2023-12-12_15h10.50.951;REPSWITCH1_version1_list2;2022.2.4;143.8615018;
REPSWITCH1/PICTURE_381.png;fresa;speak;gold;repeat;2;T;1;1;2;1;Stim2_Set1;0;None;109;108;7;0;108;108;108;;;;;;;;;;;;;;;;;;;;;;;521.9479029;523.0730689;523.0730689;523.0730689;523.0730689;523.0730689;523.0730689;523.0730689;523.0730689;None;0;;C:\2023\REPSWITCH21092023\REPSWITCH_excgange\REPSWITCH_excgange\data/350102_REPSWITCH1_version1_list2_2023-12-12_15h10.50.951_micRespv1l2_recorded\recording_micRespv1l2_2023-12-12_15h19.30.039.wav;526.0942759;526.594336;None;526.0942759;526.0942759;526.0942759;526.0942759;526.0942759;526.0942759;;;;;;;350102;1;2023-12-12_15h10.50.951;REPSWITCH1_version1_list2;2022.2.4;143.8615018;
REPSWITCH1/PICTURE_719.png;baño;type;darkblue;filler;1;F;1;1;2;1;Stim2_Set4;1;switch;110;109;8;0;109;109;109;;;;;;;;;;;;;;;;;;;;;;;526.594336;527.726504;527.726504;527.726504;527.726504;527.726504;527.726504;527.726504;527.726504;['b', 'a', 'ñ', 'o'];0;baño;C:\2023\REPSWITCH21092023\REPSWITCH_excgange\REPSWITCH_excgange\data/350102_REPSWITCH1_version1_list2_2023-12-12_15h10.50.951_micRespv1l2_recorded\recording_micRespv1l2_2023-12-12_15h19.34.694.wav;530.7546243;531.2547699;None;530.7546243;530.7546243;530.7546243;530.7546243;530.7546243;530.7546243;[1.0265434999018908, 1.1899409997276962, 1.5958618996664882, 1.7188299000263214];;;;;;350102;1;2023-12-12_15h10.50.951;REPSWITCH1_version1_list2;2022.2.4;143.8615018;
REPSWITCH1/PICTURE_135.png;traje;speak;gold;nontarget;2;NT;1;1;2;1;Stim3_Set1;0;None;111;110;9;0;110;110;110;;;;;;;;;;;;;;;;;;;;;;;531.2547699;532.3589917;532.3589917;532.3589917;532.3589917;532.3589917;532.3589917;532.3589917;532.3589917;None;0;;C:\2023\REPSWITCH21092023\REPSWITCH_excgange\REPSWITCH_excgange\data/350102_REPSWITCH1_version1_list2_2023-12-12_15h10.50.951_micRespv1l2_recorded\recording_micRespv1l2_2023-12-12_15h19.39.326.wav;535.3802585;535.8802775;None;535.3802585;535.3802585;535.3802585;535.3802585;535.3802585;535.3802585;;;;;;;350102;1;2023-12-12_15h10.50.951;REPSWITCH1_version1_list2;2022.2.4;143.8615018;
REPSWITCH1/PICTURE_135.png;traje;type;darkblue;switch;1;T;1;1;2;1;Stim3_Set1;0;None;112;111;10;0;111;111;111;;;;;;;;;;;;;;;;;;;;;;;535.8802775;537.0332338;537.0332338;537.0332338;537.0332338;537.0332338;537.0332338;537.0332338;537.0332338;['t', 'r', 'a', 'j', 'e'];0;traje;C:\2023\REPSWITCH21092023\REPSWITCH_excgange\REPSWITCH_excgange\data/350102_REPSWITCH1_version1_list2_2023-12-12_15h10.50.951_micRespv1l2_recorded\recording_micRespv1l2_2023-12-12_15h19.44.000.wav;540.0545134;540.5544914;None;540.0545134;540.0545134;540.0545134;540.0545134;540.0545134;540.0545134;[1.1424435996450484, 1.289922900032252, 1.363674699794501, 1.730840299744159, 2.654329299926758];;;;;;350102;1;2023-12-12_15h10.50.951;REPSWITCH1_version1_list2;2022.2.4;143.8615018;
REPSWITCH1/PICTURE_687.png;camisa;speak;gold;filler;2;F;1;1;2;1;Stim5_Set4;0;None;113;112;11;0;112;112;112;;;;;;;;;;;;;;;;;;;;;;;540.5544914;541.5824262;541.5824262;541.5824262;541.5824262;541.5824262;541.5824262;541.5824262;541.5824262;None;0;;C:\2023\REPSWITCH21092023\REPSWITCH_excgange\REPSWITCH_excgange\data/350102_REPSWITCH1_version1_list2_2023-12-12_15h10.50.951_micRespv1l2_recorded\recording_micRespv1l2_2023-12-12_15h19.48.550.wav;544.6106104;;None;544.6106104;544.6106104;544.6106104;544.6106104;544.6106104;544.6106104;;;;;;;350102;1;2023-12-12_15h10.50.951;REPSWITCH1_version1_list2;2022.2.4;143.8615018;
REPSWITCH1/PICTURE_128.png;muñeca;type;darkblue;nontarget;1;NT;1;1;2;1;Stim4_Set1;1;switch;114;113;12;0;113;113;113;;;;;;;;;;;;;;;;;;;;;;;545.1106795;546.2219491;546.2219491;546.2219491;546.2219491;546.2219491;546.2219491;546.2219491;546.2219491;['m', 'u', 'ñ', 'e', 'c', 'a'];0;muñeca;C:\2023\REPSWITCH21092023\REPSWITCH_excgange\REPSWITCH_excgange\data/350102_REPSWITCH1_version1_list2_2023-12-12_15h10.50.951_micRespv1l2_recorded\recording_micRespv1l2_2023-12-12_15h19.53.189.wav;549.2501094;;None;549.2501094;549.2501094;549.2501094;549.2501094;549.2501094;549.2501094;[1.5643206997774541, 1.7108122995123267, 2.2491555996239185, 2.3657323997467756, 2.5999832996167243, 2.6587817994877696];;;;;;350102;1;2023-12-12_15h10.50.951;REPSWITCH1_version1_list2;2022.2.4;143.8615018;
REPSWITCH1/PICTURE_128.png;muñeca;speak;gold;switch;2;T;1;1;2;1;Stim4_Set1;0;None;115;114;13;0;114;114;114;;;;;;;;;;;;;;;;;;;;;;;549.7501621;550.8614558;550.8614558;550.8614558;550.8614558;550.8614558;550.8614558;550.8614558;550.8614558;None;0;;C:\2023\REPSWITCH21092023\REPSWITCH_excgange\REPSWITCH_excgange\data/350102_REPSWITCH1_version1_list2_2023-12-12_15h10.50.951_micRespv1l2_recorded\recording_micRespv1l2_2023-12-12_15h19.57.829.wav;553.8826909;554.3828027;None;553.8826909;553.8826909;553.8826909;553.8826909;553.8826909;553.8826909;;;;;;;350102;1;2023-12-12_15h10.50.951;REPSWITCH1_version1_list2;2022.2.4;143.8615018;
REPSWITCH1/PICTURE_8.png;pierna;speak;gold;filler;2;F;1;1;2;1;Stim3_Set4;0;None;116;115;14;0;115;115;115;;;;;;;;;;;;;;;;;;;;;;;554.3828027;555.4036838;555.4036838;555.4036838;555.4036838;555.4036838;555.4036838;555.4036838;555.4036838;None;0;;C:\2023\REPSWITCH21092023\REPSWITCH_excgange\REPSWITCH_excgange\data/350102_REPSWITCH1_version1_list2_2023-12-12_15h10.50.951_micRespv1l2_recorded\recording_micRespv1l2_2023-12-12_15h20.02.370.wav;558.4249302;558.9249905;None;558.4249302;558.4249302;558.4249302;558.4249302;558.4249302;558.4249302;;;;;;;350102;1;2023-12-12_15h10.50.951;REPSWITCH1_version1_list2;2022.2.4;143.8615018;
REPSWITCH1/PICTURE_19.png;pavo;speak;gold;nontarget;2;NT;1;1;2;1;Stim5_Set1;0;None;117;116;15;0;116;116;116;;;;;;;;;;;;;;;;;;;;;;;558.9249905;560.0084668;560.0084668;560.0084668;560.0084668;560.0084668;560.0084668;560.0084668;560.0084668;None;0;;C:\2023\REPSWITCH21092023\REPSWITCH_excgange\REPSWITCH_excgange\data/350102_REPSWITCH1_version1_list2_2023-12-12_15h10.50.951_micRespv1l2_recorded\recording_micRespv1l2_2023-12-12_15h20.06.975.wav;563.0296634;563.5297583;None;563.0296634;563.0296634;563.0296634;563.0296634;563.0296634;563.0296634;;;;;;;350102;1;2023-12-12_15h10.50.951;REPSWITCH1_version1_list2;2022.2.4;143.8615018;
REPSWITCH1/PICTURE_19.png;pavo;type;darkblue;switch;1;T;1;1;2;1;Stim5_Set1;0;None;118;117;16;0;117;117;117;;;;;;;;;;;;;;;;;;;;;;;563.5297583;564.6479743;564.6479743;564.6479743;564.6479743;564.6479743;564.6479743;564.6479743;564.6479743;['p', 'a', 'v', 'o'];0;pavo;C:\2023\REPSWITCH21092023\REPSWITCH_excgange\REPSWITCH_excgange\data/350102_REPSWITCH1_version1_list2_2023-12-12_15h10.50.951_micRespv1l2_recorded\recording_micRespv1l2_2023-12-12_15h20.11.616.wav;567.6761565;;None;567.6761565;567.6761565;567.6761565;567.6761565;567.6761565;567.6761565;[1.3651914997026324, 1.4790548998862505, 1.7949852999299765, 1.8737344997934997];;;;;;350102;1;2023-12-12_15h10.50.951;REPSWITCH1_version1_list2;2022.2.4;143.8615018;
REPSWITCH1/PICTURE_16.png;cazador;type;darkblue;nontarget;1;NT;1;1;2;1;Stim6_Set1;1;switch;119;118;17;0;118;118;118;;;;;;;;;;;;;;;;;;;;;;;568.1762069;569.2458116;569.2458116;569.2458116;569.2458116;569.2458116;569.2458116;569.2458116;569.2458116;['c', 'a', 'z', 'a', 'd', 'o', 'r'];0;cazador;C:\2023\REPSWITCH21092023\REPSWITCH_excgange\REPSWITCH_excgange\data/350102_REPSWITCH1_version1_list2_2023-12-12_15h10.50.951_micRespv1l2_recorded\recording_micRespv1l2_2023-12-12_15h20.16.212.wav;572.2670242;572.7671205;None;572.2670242;572.2670242;572.2670242;572.2670242;572.2670242;572.2670242;[0.9318396998569369, 1.1685003000311553, 1.3636847999878228, 1.5362702999264002, 1.7146181999705732, 1.8033250998705626, 1.9144242997281253];;;;;;350102;1;2023-12-12_15h10.50.951;REPSWITCH1_version1_list2;2022.2.4;143.8615018;
REPSWITCH1/PICTURE_16.png;cazador;type;darkblue;repeat;1;T;1;1;2;1;Stim6_Set1;0;None;120;119;18;0;119;119;119;;;;;;;;;;;;;;;;;;;;;;;572.7671205;573.8853415;573.8853415;573.8853415;573.8853415;573.8853415;573.8853415;573.8853415;573.8853415;['c', 'a', 'a', 'z', 'a', 'd', 'o', 'r'];0;caazador;C:\2023\REPSWITCH21092023\REPSWITCH_excgange\REPSWITCH_excgange\data/350102_REPSWITCH1_version1_list2_2023-12-12_15h10.50.951_micRespv1l2_recorded\recording_micRespv1l2_2023-12-12_15h20.20.853.wav;576.913435;;None;576.913435;576.913435;576.913435;576.913435;576.913435;576.913435;[0.7329571000300348, 0.9787869998253882, 1.0525393998250365, 1.1831064000725746, 1.3605030002072453, 1.529363099951297, 1.6336906999349594, 1.7194138001650572];;;;;;350102;1;2023-12-12_15h10.50.951;REPSWITCH1_version1_list2;2022.2.4;143.8615018;
REPSWITCH1/PICTURE_498.png;taza;speak;gold;filler;2;F;1;1;2;1;Stim4_Set4;0;None;121;120;19;0;120;120;120;;;;;;;;;;;;;;;;;;;;;;;577.4135124;578.5386559;578.5386559;578.5386559;578.5386559;578.5386559;578.5386559;578.5386559;578.5386559;None;0;;C:\2023\REPSWITCH21092023\REPSWITCH_excgange\REPSWITCH_excgange\data/350102_REPSWITCH1_version1_list2_2023-12-12_15h10.50.951_micRespv1l2_recorded\recording_micRespv1l2_2023-12-12_15h20.25.506.wav;581.5598695;582.0599733;None;581.5598695;581.5598695;581.5598695;581.5598695;581.5598695;581.5598695;;;;;;;350102;1;2023-12-12_15h10.50.951;REPSWITCH1_version1_list2;2022.2.4;143.8615018;
REPSWITCH1/PICTURE_48.png;bombero;type;darkblue;filler;1;F;1;1;2;1;Stim7_Set4;0;None;122;121;20;0;121;121;121;;;;;;;;;;;;;;;;;;;;;;;582.0599733;583.1573444;583.1573444;583.1573444;583.1573444;583.1573444;583.1573444;583.1573444;583.1573444;['b', 'o', 'm', 'b', 'e', 'r', 'p'];0;bomberp;C:\2023\REPSWITCH21092023\REPSWITCH_excgange\REPSWITCH_excgange\data/350102_REPSWITCH1_version1_list2_2023-12-12_15h10.50.951_micRespv1l2_recorded\recording_micRespv1l2_2023-12-12_15h20.30.124.wav;586.1785692;586.6786317;None;586.1785692;586.1785692;586.1785692;586.1785692;586.1785692;586.1785692;[1.2391473995521665, 1.4787642997689545, 1.703038899693638, 1.9731364999897778, 2.043932299595326, 2.1972529999911785, 2.4958222997374833];;;;;;350102;1;2023-12-12_15h10.50.951;REPSWITCH1_version1_list2;2022.2.4;143.8615018;
REPSWITCH1/PICTURE_142.png;vaso;type;darkblue;nontarget;1;NT;1;1;2;1;Stim7_Set1;1;repeat;123;122;21;0;122;122;122;;;;;;;;;;;;;;;;;;;;;;;586.6786317;587.7343245;587.7343245;587.7343245;587.7343245;587.7343245;587.7343245;587.7343245;587.7343245;['v', 'a', 's', 'o'];0;vaso;C:\2023\REPSWITCH21092023\REPSWITCH_excgange\REPSWITCH_excgange\data/350102_REPSWITCH1_version1_list2_2023-12-12_15h10.50.951_micRespv1l2_recorded\recording_micRespv1l2_2023-12-12_15h20.34.701.wav;590.7555628;591.2556899;None;590.7555628;590.7555628;590.7555628;590.7555628;590.7555628;590.7555628;[1.6265579997561872, 1.7112761996686459, 1.9484826996922493, 2.1488337996415794];;;;;;350102;1;2023-12-12_15h10.50.951;REPSWITCH1_version1_list2;2022.2.4;143.8615018;
REPSWITCH1/PICTURE_142.png;vaso;type;darkblue;repeat;1;T;1;1;2;1;Stim7_Set1;0;None;124;123;22;0;123;123;123;;;;;;;;;;;;;;;;;;;;;;;591.2556899;592.4154816;592.4154816;592.4154816;592.4154816;592.4154816;592.4154816;592.4154816;592.4154816;['v', 'a', 's', 'o'];0;vaso;C:\2023\REPSWITCH21092023\REPSWITCH_excgange\REPSWITCH_excgange\data/350102_REPSWITCH1_version1_list2_2023-12-12_15h10.50.951_micRespv1l2_recorded\recording_micRespv1l2_2023-12-12_15h20.39.383.wav;595.4436714;;None;595.4436714;595.4436714;595.4436714;595.4436714;595.4436714;595.4436714;[0.9513360001146793, 1.0489676999859512, 1.2409946001134813, 1.3850301997736096];;;;;;350102;1;2023-12-12_15h10.50.951;REPSWITCH1_version1_list2;2022.2.4;143.8615018;
REPSWITCH1/PICTURE_338.png;regalo;speak;gold;filler;2;F;1;1;2;1;Stim6_Set4;1;switch;125;124;23;0;124;124;124;;;;;;;;;;;;;;;;;;;;;;;595.9437393;597.0272578;597.0272578;597.0272578;597.0272578;597.0272578;597.0272578;597.0272578;597.0272578;None;0;;C:\2023\REPSWITCH21092023\REPSWITCH_excgange\REPSWITCH_excgange\data/350102_REPSWITCH1_version1_list2_2023-12-12_15h10.50.951_micRespv1l2_recorded\recording_micRespv1l2_2023-12-12_15h20.43.994.wav;600.0484423;600.5484878;None;600.0484423;600.0484423;600.0484423;600.0484423;600.0484423;600.0484423;;;;;;;350102;1;2023-12-12_15h10.50.951;REPSWITCH1_version1_list2;2022.2.4;143.8615018;
REPSWITCH1/PICTURE_728.png;pulpo;type;darkblue;filler;1;F;1;1;2;1;Stim8_Set4;1;switch;126;125;24;0;125;125;125;;;;;;;;;;;;;;;;;;;;;;;600.5484878;601.7153826;601.7153826;601.7153826;601.7153826;601.7153826;601.7153826;601.7153826;601.7153826;['p', 'u', 'l', 'p', 'o'];0;pulpo;C:\2023\REPSWITCH21092023\REPSWITCH_excgange\REPSWITCH_excgange\data/350102_REPSWITCH1_version1_list2_2023-12-12_15h10.50.951_micRespv1l2_recorded\recording_micRespv1l2_2023-12-12_15h20.48.682.wav;604.7366168;605.2366247;None;604.7366168;604.7366168;604.7366168;604.7366168;604.7366168;604.7366168;[1.076684399973601, 1.3116683000698686, 1.5319203999824822, 1.7662050002254546, 1.8708664001896977];;;;;;350102;1;2023-12-12_15h10.50.951;REPSWITCH1_version1_list2;2022.2.4;143.8615018;
REPSWITCH1/PICTURE_169.png;espalda;type;darkblue;nontarget;1;NT;1;1;2;1;Stim8_Set1;1;repeat;127;126;25;0;126;126;126;;;;;;;;;;;;;;;;;;;;;;;605.2366247;606.2714605;606.2714605;606.2714605;606.2714605;606.2714605;606.2714605;606.2714605;606.2714605;['e', 's', 'p', 'a', 'l', 'd', 'a'];0;espalda;C:\2023\REPSWITCH21092023\REPSWITCH_excgange\REPSWITCH_excgange\data/350102_REPSWITCH1_version1_list2_2023-12-12_15h10.50.951_micRespv1l2_recorded\recording_micRespv1l2_2023-12-12_15h20.53.238.wav;609.2927187;609.7927758;None;609.2927187;609.2927187;609.2927187;609.2927187;609.2927187;609.2927187;[0.9810122000053525, 1.2052735998295248, 1.2760354997590184, 1.3936398001387715, 1.5241968999616802, 1.620933999773115, 1.8211560999043286];;;;;;350102;1;2023-12-12_15h10.50.951;REPSWITCH1_version1_list2;2022.2.4;143.8615018;
REPSWITCH1/PICTURE_169.png;espalda;speak;gold;switch;2;T;1;1;2;1;Stim8_Set1;0;None;128;127;26;0;127;127;127;;;;;;;;;;;;;;;;;;;;;;;609.7927758;610.8484985;610.8484985;610.8484985;610.8484985;610.8484985;610.8484985;610.8484985;610.8484985;None;0;;C:\2023\REPSWITCH21092023\REPSWITCH_excgange\REPSWITCH_excgange\data/350102_REPSWITCH1_version1_list2_2023-12-12_15h10.50.951_micRespv1l2_recorded\recording_micRespv1l2_2023-12-12_15h20.57.816.wav;613.8697033;614.3697725;None;613.8697033;613.8697033;613.8697033;613.8697033;613.8697033;613.8697033;;;;;;;350102;1;2023-12-12_15h10.50.951;REPSWITCH1_version1_list2;2022.2.4;143.8615018;
REPSWITCH1/PICTURE_178.png;puente;speak;gold;filler;2;F;2;1;2;1;Stim1_Set1;0;None;129;128;27;0;128;128;128;;;;;;;;;;;;;;;;;;;;;;;614.3697725;615.5018791;615.5018791;615.5018791;615.5018791;615.5018791;615.5018791;615.5018791;615.5018791;None;0;;C:\2023\REPSWITCH21092023\REPSWITCH_excgange\REPSWITCH_excgange\data/350102_REPSWITCH1_version1_list2_2023-12-12_15h10.50.951_micRespv1l2_recorded\recording_micRespv1l2_2023-12-12_15h21.02.468.wav;618.5230917;619.0231508;None;618.5230917;618.5230917;618.5230917;618.5230917;618.5230917;618.5230917;;;;;;;350102;1;2023-12-12_15h10.50.951;REPSWITCH1_version1_list2;2022.2.4;143.8615018;
REPSWITCH1/PICTURE_175.png;pintor;type;darkblue;nontarget;1;NT;2;1;2;1;Stim1_Set2;1;switch;130;129;28;0;129;129;129;;;;;;;;;;;;;;;;;;;;;;;619.0231508;620.1205001;620.1205001;620.1205001;620.1205001;620.1205001;620.1205001;620.1205001;620.1205001;['p', 'i', 'n', 't', 'o', 'r'];0;pintor;C:\2023\REPSWITCH21092023\REPSWITCH_excgange\REPSWITCH_excgange\data/350102_REPSWITCH1_version1_list2_2023-12-12_15h10.50.951_micRespv1l2_recorded\recording_micRespv1l2_2023-12-12_15h21.07.088.wav;623.1417567;623.6418139;None;623.1417567;623.1417567;623.1417567;623.1417567;623.1417567;623.1417567;[1.0325009003281593, 1.2293162001296878, 1.2840950000099838, 1.3798360000364482, 1.500398499891162, 1.5891467002220452];;;;;;350102;1;2023-12-12_15h10.50.951;REPSWITCH1_version1_list2;2022.2.4;143.8615018;
REPSWITCH1/PICTURE_175.png;pintor;type;darkblue;repeat;1;T;2;1;2;1;Stim1_Set2;0;None;131;130;29;0;130;130;130;;;;;;;;;;;;;;;;;;;;;;;623.6418139;624.7253654;624.7253654;624.7253654;624.7253654;624.7253654;624.7253654;624.7253654;624.7253654;['p', 'i', 'n', 't', 'r', 'backspace', 'o', 'r'];0;pintor;C:\2023\REPSWITCH21092023\REPSWITCH_excgange\REPSWITCH_excgange\data/350102_REPSWITCH1_version1_list2_2023-12-12_15h10.50.951_micRespv1l2_recorded\recording_micRespv1l2_2023-12-12_15h21.11.693.wav;627.7464967;628.2465733;None;627.7464967;627.7464967;627.7464967;627.7464967;627.7464967;627.7464967;[1.1691374997608364, 1.4581621997058392, 1.6981110996566713, 1.8090896997600794, 2.002646299544722, 2.5427068998105824, 2.813904999755323, 2.8599787997081876];;;;;;350102;1;2023-12-12_15h10.50.951;REPSWITCH1_version1_list2;2022.2.4;143.8615018;
REPSWITCH1/PICTURE_381.png;fresa;speak;gold;filler;2;F;2;1;2;1;Stim2_Set1;0;None;132;131;30;0;131;131;131;;;;;;;;;;;;;;;;;;;;;;;628.2465733;629.3787004;629.3787004;629.3787004;629.3787004;629.3787004;629.3787004;629.3787004;629.3787004;None;0;;C:\2023\REPSWITCH21092023\REPSWITCH_excgange\REPSWITCH_excgange\data/350102_REPSWITCH1_version1_list2_2023-12-12_15h10.50.951_micRespv1l2_recorded\recording_micRespv1l2_2023-12-12_15h21.16.347.wav;632.4068586;;None;632.4068586;632.4068586;632.4068586;632.4068586;632.4068586;632.4068586;;;;;;;350102;1;2023-12-12_15h10.50.951;REPSWITCH1_version1_list2;2022.2.4;143.8615018;
REPSWITCH1/PICTURE_152.png;caracol;type;darkblue;nontarget;1;NT;2;1;2;1;Stim2_Set2;1;switch;133;132;31;0;132;132;132;;;;;;;;;;;;;;;;;;;;;;;632.9069899;633.9765098;633.9765098;633.9765098;633.9765098;633.9765098;633.9765098;633.9765098;633.9765098;['c', 'a', 'r', 'a', 'c', 'o', 'l'];0;caracol;C:\2023\REPSWITCH21092023\REPSWITCH_excgange\REPSWITCH_excgange\data/350102_REPSWITCH1_version1_list2_2023-12-12_15h10.50.951_micRespv1l2_recorded\recording_micRespv1l2_2023-12-12_15h21.20.943.wav;636.9976978;637.4978057;None;636.9976978;636.9976978;636.9976978;636.9976978;636.9976978;636.9976978;[0.7607689001597464, 0.9592225002124906, 1.1787085998803377, 1.3780680000782013, 1.5684320000000298, 1.6494446001015604, 1.8560998998582363];;;;;;350102;1;2023-12-12_15h10.50.951;REPSWITCH1_version1_list2;2022.2.4;143.8615018;
REPSWITCH1/PICTURE_152.png;caracol;type;darkblue;repeat;1;T;2;1;2;1;Stim2_Set2;0;None;134;133;32;0;133;133;133;;;;;;;;;;;;;;;;;;;;;;;637.4978057;638.6646472;638.6646472;638.6646472;638.6646472;638.6646472;638.6646472;638.6646472;638.6646472;['c', 'a', 'r', 'a', 'c', 'o', 'l'];0;caracol;C:\2023\REPSWITCH21092023\REPSWITCH_excgange\REPSWITCH_excgange\data/350102_REPSWITCH1_version1_list2_2023-12-12_15h10.50.951_micRespv1l2_recorded\recording_micRespv1l2_2023-12-12_15h21.25.632.wav;641.6928062;;None;641.6928062;641.6928062;641.6928062;641.6928062;641.6928062;641.6928062;[0.8671415001153946, 1.1222862000577152, 1.3100038999691606, 1.506544599775225, 1.7049887999892235, 1.7657209997996688, 1.972036600112915];;;;;;350102;1;2023-12-12_15h10.50.951;REPSWITCH1_version1_list2;2022.2.4;143.8615018;
REPSWITCH1/PICTURE_128.png;muñeca;speak;gold;filler;2;F;2;1;2;1;Stim4_Set1;0;None;135;134;33;0;134;134;134;;;;;;;;;;;;;;;;;;;;;;;642.1928992;643.2208367;643.2208367;643.2208367;643.2208367;643.2208367;643.2208367;643.2208367;643.2208367;None;0;;C:\2023\REPSWITCH21092023\REPSWITCH_excgange\REPSWITCH_excgange\data/350102_REPSWITCH1_version1_list2_2023-12-12_15h10.50.951_micRespv1l2_recorded\recording_micRespv1l2_2023-12-12_15h21.30.187.wav;646.2489278;;None;646.2489278;646.2489278;646.2489278;646.2489278;646.2489278;646.2489278;;;;;;;350102;1;2023-12-12_15h10.50.951;REPSWITCH1_version1_list2;2022.2.4;143.8615018;
REPSWITCH1/PICTURE_264.png;mano;type;darkblue;nontarget;1;NT;2;1;2;1;Stim3_Set2;0;None;136;135;34;0;135;135;135;;;;;;;;;;;;;;;;;;;;;;;646.7490807;647.839503;647.839503;647.839503;647.839503;647.839503;647.839503;647.839503;647.839503;['m', 'a', 'n', 'o'];0;mano;C:\2023\REPSWITCH21092023\REPSWITCH_excgange\REPSWITCH_excgange\data/350102_REPSWITCH1_version1_list2_2023-12-12_15h10.50.951_micRespv1l2_recorded\recording_micRespv1l2_2023-12-12_15h21.34.806.wav;650.8607271;651.3607434;None;650.8607271;650.8607271;650.8607271;650.8607271;650.8607271;650.8607271;[0.7817793996073306, 0.9651083997450769, 1.1010019998066127, 1.2021570997312665];;;;;;350102;1;2023-12-12_15h10.50.951;REPSWITCH1_version1_list2;2022.2.4;143.8615018;
REPSWITCH1/PICTURE_264.png;mano;speak;gold;switch;2;T;2;1;2;1;Stim3_Set2;0;None;137;136;35;0;136;136;136;;;;;;;;;;;;;;;;;;;;;;;651.3607434;652.4998252;652.4998252;652.4998252;652.4998252;652.4998252;652.4998252;652.4998252;652.4998252;None;0;;C:\2023\REPSWITCH21092023\REPSWITCH_excgange\REPSWITCH_excgange\data/350102_REPSWITCH1_version1_list2_2023-12-12_15h10.50.951_micRespv1l2_recorded\recording_micRespv1l2_2023-12-12_15h21.39.468.wav;655.5279331;;None;655.5279331;655.5279331;655.5279331;655.5279331;655.5279331;655.5279331;;;;;;;350102;1;2023-12-12_15h10.50.951;REPSWITCH1_version1_list2;2022.2.4;143.8615018;
REPSWITCH1/PICTURE_517.png;cuerda;speak;gold;nontarget;2;NT;2;1;2;1;Stim4_Set2;1;repeat;138;137;36;0;137;137;137;;;;;;;;;;;;;;;;;;;;;;;656.0279946;657.1253876;657.1253876;657.1253876;657.1253876;657.1253876;657.1253876;657.1253876;657.1253876;None;0;;C:\2023\REPSWITCH21092023\REPSWITCH_excgange\REPSWITCH_excgange\data/350102_REPSWITCH1_version1_list2_2023-12-12_15h10.50.951_micRespv1l2_recorded\recording_micRespv1l2_2023-12-12_15h21.44.092.wav;660.1466606;660.6467499;None;660.1466606;660.1466606;660.1466606;660.1466606;660.1466606;660.1466606;;;;;;;350102;1;2023-12-12_15h10.50.951;REPSWITCH1_version1_list2;2022.2.4;143.8615018;
REPSWITCH1/PICTURE_517.png;cuerda;type;darkblue;switch;1;T;2;1;2;1;Stim4_Set2;0;None;139;138;37;0;138;138;138;;;;;;;;;;;;;;;;;;;;;;;660.6467499;661.7648633;661.7648633;661.7648633;661.7648633;661.7648633;661.7648633;661.7648633;661.7648633;['c', 'u', 'e', 'r', 'd', 'a'];0;cuerda;C:\2023\REPSWITCH21092023\REPSWITCH_excgange\REPSWITCH_excgange\data/350102_REPSWITCH1_version1_list2_2023-12-12_15h10.50.951_micRespv1l2_recorded\recording_micRespv1l2_2023-12-12_15h21.48.733.wav;664.7930407;;None;664.7930407;664.7930407;664.7930407;664.7930407;664.7930407;664.7930407;[1.124055499676615, 1.5050805998034775, 1.5691908998414874, 1.7561468998901546, 1.926581799518317, 2.120930999517441];;;;;;350102;1;2023-12-12_15h10.50.951;REPSWITCH1_version1_list2;2022.2.4;143.8615018;
REPSWITCH1/PICTURE_135.png;traje;type;darkblue;filler;1;F;2;1;2;1;Stim3_Set1;0;None;140;139;38;0;139;139;139;;;;;;;;;;;;;;;;;;;;;;;665.2931891;666.4391799;666.4391799;666.4391799;666.4391799;666.4391799;666.4391799;666.4391799;666.4391799;['t', 'r', 'a', 'j', 'e'];0;traje;C:\2023\REPSWITCH21092023\REPSWITCH_excgange\REPSWITCH_excgange\data/350102_REPSWITCH1_version1_list2_2023-12-12_15h10.50.951_micRespv1l2_recorded\recording_micRespv1l2_2023-12-12_15h21.53.406.wav;669.4672452;;None;669.4672452;669.4672452;669.4672452;669.4672452;669.4672452;669.4672452;[0.9778470997698605, 1.2300617001019418, 1.4482804001308978, 1.5688697001896799, 1.6695399000309408];;;;;;350102;1;2023-12-12_15h10.50.951;REPSWITCH1_version1_list2;2022.2.4;143.8615018;
REPSWITCH1/PICTURE_30.png;granja;type;darkblue;nontarget;1;NT;2;1;2;1;Stim5_Set2;1;repeat;141;140;39;0;140;140;140;;;;;;;;;;;;;;;;;;;;;;;669.9672987;671.0160764;671.0160764;671.0160764;671.0160764;671.0160764;671.0160764;671.0160764;671.0160764;['g', 'r', 'a', 'n', 'j', 'a'];0;granja;C:\2023\REPSWITCH21092023\REPSWITCH_excgange\REPSWITCH_excgange\data/350102_REPSWITCH1_version1_list2_2023-12-12_15h10.50.951_micRespv1l2_recorded\recording_micRespv1l2_2023-12-12_15h21.57.984.wav;674.0443067;;None;674.0443067;674.0443067;674.0443067;674.0443067;674.0443067;674.0443067;[1.261596099473536, 1.4855196997523308, 2.349116999655962, 2.470991099718958, 2.586601499468088, 2.627475899644196];;;;;;350102;1;2023-12-12_15h10.50.951;REPSWITCH1_version1_list2;2022.2.4;143.8615018;
REPSWITCH1/PICTURE_30.png;granja;speak;gold;switch;2;T;2;1;2;1;Stim5_Set2;0;None;142;141;40;0;141;141;141;;;;;;;;;;;;;;;;;;;;;;;674.5443093;675.6069452;675.6069452;675.6069452;675.6069452;675.6069452;675.6069452;675.6069452;675.6069452;None;0;;C:\2023\REPSWITCH21092023\REPSWITCH_excgange\REPSWITCH_excgange\data/350102_REPSWITCH1_version1_list2_2023-12-12_15h10.50.951_micRespv1l2_recorded\recording_micRespv1l2_2023-12-12_15h22.02.575.wav;678.6351547;;None;678.6351547;678.6351547;678.6351547;678.6351547;678.6351547;678.6351547;;;;;;;350102;1;2023-12-12_15h10.50.951;REPSWITCH1_version1_list2;2022.2.4;143.8615018;
