image;correctAns;respModal;frameColor;repSwitch;sequence;target;set;block;list;exp_version;stimulus;baseline;baseline_condition;trial_no;psychopy_trial;Column1;trialsREPSWITCH.thisRepN;trialsREPSWITCH.thisTrialN;trialsREPSWITCH.thisN;trialsREPSWITCH.thisIndex;textWelcome.started;textboxInstrMain1.started;textboxInstrMain1_2.started;textboxInstrMain1_3.started;keyInstrMain.started;keyInstrMain.keys;keyInstrMain.rt;textboxInstrMain2.started;textboxInstrMain2_2.started;textboxInstrMain2_3.started;textboxInstrMain2_4.started;textboxInstrMain2_5.started;textboxInstrMain2_6.started;textboxInstrMain2_7.started;textboxInstrMain2_8.started;textboxInstrMain2_9.started;textboxInstrMain2_10.started;textboxInstrMain2_11.started;textboxInstrMain2_12.started;keyInstrMain2.started;keyInstrMain2.keys;keyInstrMain2.rt;fixationITI.started;fixationITI.stopped;polygonColour.started;polygonWhite.started;imageObject.started;polygonType.started;textInput.started;keyResp.started;micRespv1l3.started;keyResp.keys;keyResp.corr;keyResp.rt;subjResponse;micRespv1l3.clip;textBlankLoop.started;textBlankLoop.stopped;keyPause.keys;polygonColour.stopped;polygonWhite.stopped;imageObject.stopped;polygonType.stopped;textInput.stopped;keyResp.stopped;textboxPause.started;keyPause.started;keyPause.rt;textboxGoodbye.started;textboxGoodbye.stopped;participant;session;date;expName;psychopyVersion;frameRate;Column2
;;;;;;;;;;;;;;;;;;;;;8.9533785;11.4510889;11.4510889;11.4510889;11.4510889;space;2.8971208;;;;;;;;;;;;;;;;;;;;;;;;;;;;;;;;;;;;;;;;;;;;370103;1;2023-12-13_09h39.12.096;REPSWITCH1_version1_list3;2022.2.4;143.924446;
;;;;;;;;;;;;;;;;;;;;;;;;;;;;14.368149;14.368149;14.368149;14.368149;14.368149;14.368149;14.368149;14.368149;14.368149;14.368149;14.368149;14.368149;14.368149;space;1.5355857;;;;;;;;;;;;;;;;;;;;;;;;;;;;;370103;1;2023-12-13_09h39.12.096;REPSWITCH1_version1_list3;2022.2.4;143.924446;
REPSWITCH1/PICTURE_663.png;columna;type;darkblue;filler;1;F;1;2;3;1;Extra6;0;None;1;0;1;0;0;0;0;;;;;;;;;;;;;;;;;;;;;;;16.0072723;17.0560406;17.0560406;17.0560406;17.0560406;17.0560406;17.0560406;17.0560406;17.0560406;['c', 'o', 'l', 'u', 'm', 'n', 'a'];0;[1.4470371003262699, 1.5473719001747668, 1.723105600103736, 1.950621800031513, 2.0352956000715494, 2.185212700162083, 2.4403639999218285];columna;C:\2023\REPSWITCH21092023\REPSWITCH_excgange\REPSWITCH_excgange\data/370103_REPSWITCH1_version1_list3_2023-12-13_09h39.12.096_micRespv1l3_recorded\recording_micRespv1l3_2023-12-13_09h39.25.075.wav;20.0772033;20.5773735;None;;;;;;;;;;;;370103;1;2023-12-13_09h39.12.096;REPSWITCH1_version1_list3;2022.2.4;143.924446;
REPSWITCH1/PICTURE_128.png;muñeca;speak;gold;nontarget;2;NT;1;2;3;1;Stim4_Set1;1;switch;2;1;2;0;1;1;1;;;;;;;;;;;;;;;;;;;;;;;20.5773735;21.6815785;21.6815785;21.6815785;21.6815785;21.6815785;21.6815785;21.6815785;21.6815785;None;0;;;C:\2023\REPSWITCH21092023\REPSWITCH_excgange\REPSWITCH_excgange\data/370103_REPSWITCH1_version1_list3_2023-12-13_09h39.12.096_micRespv1l3_recorded\recording_micRespv1l3_2023-12-13_09h39.29.706.wav;24.7097791;25.2098558;None;24.7097791;24.7097791;24.7097791;24.7097791;24.7097791;24.7097791;;;;;;370103;1;2023-12-13_09h39.12.096;REPSWITCH1_version1_list3;2022.2.4;143.924446;
REPSWITCH1/PICTURE_128.png;muñeca;speak;gold;repeat;2;T;1;2;3;1;Stim4_Set1;0;None;3;2;3;0;2;2;2;;;;;;;;;;;;;;;;;;;;;;;25.2098558;26.2933375;26.2933375;26.2933375;26.2933375;26.2933375;26.2933375;26.2933375;26.2933375;None;0;;;C:\2023\REPSWITCH21092023\REPSWITCH_excgange\REPSWITCH_excgange\data/370103_REPSWITCH1_version1_list3_2023-12-13_09h39.12.096_micRespv1l3_recorded\recording_micRespv1l3_2023-12-13_09h39.34.316.wav;29.3215078;;None;29.3215078;29.3215078;29.3215078;29.3215078;29.3215078;29.3215078;;;;;;370103;1;2023-12-13_09h39.12.096;REPSWITCH1_version1_list3;2022.2.4;143.924446;
REPSWITCH1/PICTURE_8.png;pierna;type;darkblue;filler;1;F;1;2;3;1;Stim3_Set4;0;None;4;3;4;0;3;3;3;;;;;;;;;;;;;;;;;;;;;;;29.8215699;30.8772504;30.8772504;30.8772504;30.8772504;30.8772504;30.8772504;30.8772504;30.8772504;['p', 'i', 'e', 'r', 'n', 'a'];0;[1.0259187002666295, 1.1245553004555404, 1.2551427003927529, 1.3112855004146695, 1.46811080025509, 1.5279257004149258];pierna;C:\2023\REPSWITCH21092023\REPSWITCH_excgange\REPSWITCH_excgange\data/370103_REPSWITCH1_version1_list3_2023-12-13_09h39.12.096_micRespv1l3_recorded\recording_micRespv1l3_2023-12-13_09h39.38.900.wav;33.9054396;34.4055642;None;33.9054396;33.9054396;33.9054396;33.9054396;33.9054396;33.9054396;;;;;;370103;1;2023-12-13_09h39.12.096;REPSWITCH1_version1_list3;2022.2.4;143.924446;
REPSWITCH1/PICTURE_135.png;traje;speak;gold;nontarget;2;NT;1;2;3;1;Stim3_Set1;1;switch;5;4;5;0;4;4;4;;;;;;;;;;;;;;;;;;;;;;;34.4055642;35.4681656;35.4681656;35.4681656;35.4681656;35.4681656;35.4681656;35.4681656;35.4681656;None;0;;;C:\2023\REPSWITCH21092023\REPSWITCH_excgange\REPSWITCH_excgange\data/370103_REPSWITCH1_version1_list3_2023-12-13_09h39.12.096_micRespv1l3_recorded\recording_micRespv1l3_2023-12-13_09h39.43.491.wav;38.4963243;38.9964319;None;38.4963243;38.4963243;38.4963243;38.4963243;38.4963243;38.4963243;;;;;;370103;1;2023-12-13_09h39.12.096;REPSWITCH1_version1_list3;2022.2.4;143.924446;
REPSWITCH1/PICTURE_135.png;traje;speak;gold;repeat;2;T;1;2;3;1;Stim3_Set1;0;None;6;5;6;0;5;5;5;;;;;;;;;;;;;;;;;;;;;;;38.9964319;40.135509;40.135509;40.135509;40.135509;40.135509;40.135509;40.135509;40.135509;None;0;;;C:\2023\REPSWITCH21092023\REPSWITCH_excgange\REPSWITCH_excgange\data/370103_REPSWITCH1_version1_list3_2023-12-13_09h39.12.096_micRespv1l3_recorded\recording_micRespv1l3_2023-12-13_09h39.48.157.wav;43.1635598;;None;43.1635598;43.1635598;43.1635598;43.1635598;43.1635598;43.1635598;;;;;;370103;1;2023-12-13_09h39.12.096;REPSWITCH1_version1_list3;2022.2.4;143.924446;
REPSWITCH1/PICTURE_673.png;tenedor;type;darkblue;filler;1;F;1;2;3;1;Extra5;0;None;7;6;7;0;6;6;6;;;;;;;;;;;;;;;;;;;;;;;43.663663;44.8096436;44.8096436;44.8096436;44.8096436;44.8096436;44.8096436;44.8096436;44.8096436;['t', 'e', 'n', 'e', 'd', 'o', 'r'];0;[0.9626798997633159, 1.0352662997320294, 1.165253299754113, 1.2688386999070644, 1.4611557996831834, 1.5850780000910163, 1.655840199906379];tenedor;C:\2023\REPSWITCH21092023\REPSWITCH_excgange\REPSWITCH_excgange\data/370103_REPSWITCH1_version1_list3_2023-12-13_09h39.12.096_micRespv1l3_recorded\recording_micRespv1l3_2023-12-13_09h39.52.832.wav;47.8378337;48.3378583;None;47.8378337;47.8378337;47.8378337;47.8378337;47.8378337;47.8378337;;;;;;370103;1;2023-12-13_09h39.12.096;REPSWITCH1_version1_list3;2022.2.4;143.924446;
REPSWITCH1/PICTURE_728.png;pulpo;speak;gold;filler;2;F;1;2;3;1;Stim8_Set4;0;None;8;7;8;0;7;7;7;;;;;;;;;;;;;;;;;;;;;;;48.3378583;49.3727007;49.3727007;49.3727007;49.3727007;49.3727007;49.3727007;49.3727007;49.3727007;None;0;;;C:\2023\REPSWITCH21092023\REPSWITCH_excgange\REPSWITCH_excgange\data/370103_REPSWITCH1_version1_list3_2023-12-13_09h39.12.096_micRespv1l3_recorded\recording_micRespv1l3_2023-12-13_09h39.57.397.wav;52.4008929;52.9009778;None;52.4008929;52.4008929;52.4008929;52.4008929;52.4008929;52.4008929;;;;;;370103;1;2023-12-13_09h39.12.096;REPSWITCH1_version1_list3;2022.2.4;143.924446;
REPSWITCH1/PICTURE_16.png;cazador;speak;gold;nontarget;2;NT;1;2;3;1;Stim6_Set1;1;repeat;9;8;9;0;8;8;8;;;;;;;;;;;;;;;;;;;;;;;52.9009778;54.0052683;54.0052683;54.0052683;54.0052683;54.0052683;54.0052683;54.0052683;54.0052683;None;0;;;C:\2023\REPSWITCH21092023\REPSWITCH_excgange\REPSWITCH_excgange\data/370103_REPSWITCH1_version1_list3_2023-12-13_09h39.12.096_micRespv1l3_recorded\recording_micRespv1l3_2023-12-13_09h40.02.029.wav;57.0334994;57.5335233;None;57.0334994;57.0334994;57.0334994;57.0334994;57.0334994;57.0334994;;;;;;370103;1;2023-12-13_09h39.12.096;REPSWITCH1_version1_list3;2022.2.4;143.924446;
REPSWITCH1/PICTURE_16.png;cazador;type;darkblue;switch;1;T;1;2;3;1;Stim6_Set1;0;None;10;9;10;0;9;9;9;;;;;;;;;;;;;;;;;;;;;;;57.5335233;58.5684642;58.5684642;58.5684642;58.5684642;58.5684642;58.5684642;58.5684642;58.5684642;['c', 'a', 'z', 'a', 'd', 'o', 'r'];0;[1.1066874000243843, 1.2329651000909507, 1.4910889002494514, 1.6925023002550006, 1.7672723000869155, 1.9068176001310349, 1.9885447002016008];cazador;C:\2023\REPSWITCH21092023\REPSWITCH_excgange\REPSWITCH_excgange\data/370103_REPSWITCH1_version1_list3_2023-12-13_09h39.12.096_micRespv1l3_recorded\recording_micRespv1l3_2023-12-13_09h40.06.591.wav;61.5965538;62.0966324;None;61.5965538;61.5965538;61.5965538;61.5965538;61.5965538;61.5965538;;;;;;370103;1;2023-12-13_09h39.12.096;REPSWITCH1_version1_list3;2022.2.4;143.924446;
REPSWITCH1/PICTURE_498.png;taza;type;darkblue;filler;1;F;1;2;3;1;Stim4_Set4;1;repeat;11;10;11;0;10;10;10;;;;;;;;;;;;;;;;;;;;;;;62.0966324;63.2217786;63.2217786;63.2217786;63.2217786;63.2217786;63.2217786;63.2217786;63.2217786;['t', 'a', 'z', 'a'];0;[0.8656339002773166, 0.9672900000587106, 1.194497600197792, 1.4007689002901316];taza;C:\2023\REPSWITCH21092023\REPSWITCH_excgange\REPSWITCH_excgange\data/370103_REPSWITCH1_version1_list3_2023-12-13_09h39.12.096_micRespv1l3_recorded\recording_micRespv1l3_2023-12-13_09h40.11.245.wav;66.2499296;;None;66.2499296;66.2499296;66.2499296;66.2499296;66.2499296;66.2499296;;;;;;370103;1;2023-12-13_09h39.12.096;REPSWITCH1_version1_list3;2022.2.4;143.924446;
REPSWITCH1/PICTURE_381.png;fresa;type;darkblue;nontarget;1;NT;1;2;3;1;Stim2_Set1;1;repeat;12;11;12;0;11;11;11;;;;;;;;;;;;;;;;;;;;;;;66.7499969;67.7918904;67.7918904;67.7918904;67.7918904;67.7918904;67.7918904;67.7918904;67.7918904;['f', 'r', 'e', 's', 'a'];0;[0.9654987002722919, 1.2484458000399172, 1.3081682999618351, 1.5810124003328383, 1.6517973002046347];fresa;C:\2023\REPSWITCH21092023\REPSWITCH_excgange\REPSWITCH_excgange\data/370103_REPSWITCH1_version1_list3_2023-12-13_09h39.12.096_micRespv1l3_recorded\recording_micRespv1l3_2023-12-13_09h40.15.812.wav;70.8130296;71.3131142;None;;;;;;;;;;;;370103;1;2023-12-13_09h39.12.096;REPSWITCH1_version1_list3;2022.2.4;143.924446;
REPSWITCH1/PICTURE_381.png;fresa;speak;gold;switch;2;T;1;2;3;1;Stim2_Set1;0;None;13;12;13;0;12;12;12;;;;;;;;;;;;;;;;;;;;;;;71.3131142;72.3896208;72.3896208;72.3896208;72.3896208;72.3896208;72.3896208;72.3896208;72.3896208;None;0;;;C:\2023\REPSWITCH21092023\REPSWITCH_excgange\REPSWITCH_excgange\data/370103_REPSWITCH1_version1_list3_2023-12-13_09h39.12.096_micRespv1l3_recorded\recording_micRespv1l3_2023-12-13_09h40.20.413.wav;75.4178577;;None;75.4178577;75.4178577;75.4178577;75.4178577;75.4178577;75.4178577;;;;;;370103;1;2023-12-13_09h39.12.096;REPSWITCH1_version1_list3;2022.2.4;143.924446;
REPSWITCH1/PICTURE_178.png;puente;speak;gold;nontarget;2;NT;1;2;3;1;Stim1_Set1;0;None;14;13;14;0;13;13;13;;;;;;;;;;;;;;;;;;;;;;;75.9178599;76.9457879;76.9457879;76.9457879;76.9457879;76.9457879;76.9457879;76.9457879;76.9457879;None;0;;;C:\2023\REPSWITCH21092023\REPSWITCH_excgange\REPSWITCH_excgange\data/370103_REPSWITCH1_version1_list3_2023-12-13_09h39.12.096_micRespv1l3_recorded\recording_micRespv1l3_2023-12-13_09h40.24.969.wav;79.9739526;80.4740193;None;79.9739526;79.9739526;79.9739526;79.9739526;79.9739526;79.9739526;;;;;;370103;1;2023-12-13_09h39.12.096;REPSWITCH1_version1_list3;2022.2.4;143.924446;
REPSWITCH1/PICTURE_178.png;puente;type;darkblue;switch;1;T;1;2;3;1;Stim1_Set1;0;None;15;14;15;0;14;14;14;;;;;;;;;;;;;;;;;;;;;;;80.4740193;81.5297995;81.5297995;81.5297995;81.5297995;81.5297995;81.5297995;81.5297995;81.5297995;['p', 'u', 'e', 'n', 't', 'e'];0;[0.968138700351119, 1.092731200158596, 1.2242903001606464, 1.3478710004128516, 1.452930100262165, 1.538599600084126];puente;C:\2023\REPSWITCH21092023\REPSWITCH_excgange\REPSWITCH_excgange\data/370103_REPSWITCH1_version1_list3_2023-12-13_09h39.12.096_micRespv1l3_recorded\recording_micRespv1l3_2023-12-13_09h40.29.551.wav;84.5509358;85.0509995;None;84.5509358;84.5509358;84.5509358;84.5509358;84.5509358;84.5509358;;;;;;370103;1;2023-12-13_09h39.12.096;REPSWITCH1_version1_list3;2022.2.4;143.924446;
REPSWITCH1/PICTURE_719.png;baño;speak;gold;filler;2;F;1;2;3;1;Stim2_Set4;0;None;16;15;16;0;15;15;15;;;;;;;;;;;;;;;;;;;;;;;85.0509995;86.2457023;86.2457023;86.2457023;86.2457023;86.2457023;86.2457023;86.2457023;86.2457023;None;0;;;C:\2023\REPSWITCH21092023\REPSWITCH_excgange\REPSWITCH_excgange\data/370103_REPSWITCH1_version1_list3_2023-12-13_09h39.12.096_micRespv1l3_recorded\recording_micRespv1l3_2023-12-13_09h40.34.270.wav;89.2738566;89.7738397;None;89.2738566;89.2738566;89.2738566;89.2738566;89.2738566;89.2738566;;;;;;370103;1;2023-12-13_09h39.12.096;REPSWITCH1_version1_list3;2022.2.4;143.924446;
REPSWITCH1/PICTURE_169.png;espalda;type;darkblue;nontarget;1;NT;1;2;3;1;Stim8_Set1;1;switch;17;16;17;0;16;16;16;;;;;;;;;;;;;;;;;;;;;;;89.7738397;90.8573344;90.8573344;90.8573344;90.8573344;90.8573344;90.8573344;90.8573344;90.8573344;['e', 's', 'p', 'a', 'l', 'd', 'a'];0;[0.909550900105387, 0.9573292001150548, 1.1278985999524593, 1.2386298002675176, 1.3392552002333105, 1.44826229987666, 1.5389316999353468];espalda;C:\2023\REPSWITCH21092023\REPSWITCH_excgange\REPSWITCH_excgange\data/370103_REPSWITCH1_version1_list3_2023-12-13_09h39.12.096_micRespv1l3_recorded\recording_micRespv1l3_2023-12-13_09h40.38.880.wav;93.885586;;None;93.885586;93.885586;93.885586;93.885586;93.885586;93.885586;;;;;;370103;1;2023-12-13_09h39.12.096;REPSWITCH1_version1_list3;2022.2.4;143.924446;
REPSWITCH1/PICTURE_169.png;espalda;type;darkblue;repeat;1;T;1;2;3;1;Stim8_Set1;0;None;18;17;18;0;17;17;17;;;;;;;;;;;;;;;;;;;;;;;94.3855787;95.4482456;95.4482456;95.4482456;95.4482456;95.4482456;95.4482456;95.4482456;95.4482456;['e', 's', 'p', 'a', 'l', 'd', 'a'];0;[0.9401933001354337, 0.9959992999210954, 1.1448806999251246, 1.275441600009799, 1.3974600997753441, 1.5378682999871671, 1.6085943998768926];espalda;C:\2023\REPSWITCH21092023\REPSWITCH_excgange\REPSWITCH_excgange\data/370103_REPSWITCH1_version1_list3_2023-12-13_09h39.12.096_micRespv1l3_recorded\recording_micRespv1l3_2023-12-13_09h40.43.471.wav;98.4764543;;None;98.4764543;98.4764543;98.4764543;98.4764543;98.4764543;98.4764543;;;;;;370103;1;2023-12-13_09h39.12.096;REPSWITCH1_version1_list3;2022.2.4;143.924446;
REPSWITCH1/PICTURE_48.png;bombero;speak;gold;filler;2;F;1;2;3;1;Stim7_Set4;1;switch;19;18;19;0;18;18;18;;;;;;;;;;;;;;;;;;;;;;;98.9764577;100.0599236;100.0599236;100.0599236;100.0599236;100.0599236;100.0599236;100.0599236;100.0599236;None;0;;;C:\2023\REPSWITCH21092023\REPSWITCH_excgange\REPSWITCH_excgange\data/370103_REPSWITCH1_version1_list3_2023-12-13_09h39.12.096_micRespv1l3_recorded\recording_micRespv1l3_2023-12-13_09h40.48.082.wav;103.088112;;None;103.088112;103.088112;103.088112;103.088112;103.088112;103.088112;;;;;;370103;1;2023-12-13_09h39.12.096;REPSWITCH1_version1_list3;2022.2.4;143.924446;
REPSWITCH1/PICTURE_19.png;pavo;type;darkblue;nontarget;1;NT;1;2;3;1;Stim5_Set1;1;switch;20;19;20;0;19;19;19;;;;;;;;;;;;;;;;;;;;;;;103.5881745;104.6785988;104.6785988;104.6785988;104.6785988;104.6785988;104.6785988;104.6785988;104.6785988;['p', 'a', 'v', 'o'];0;[1.2098487000912428, 1.370308100245893, 1.5558860003948212, 1.7357412003912032];pavo;C:\2023\REPSWITCH21092023\REPSWITCH_excgange\REPSWITCH_excgange\data/370103_REPSWITCH1_version1_list3_2023-12-13_09h39.12.096_micRespv1l3_recorded\recording_micRespv1l3_2023-12-13_09h40.52.702.wav;107.706771;;None;107.706771;107.706771;107.706771;107.706771;107.706771;107.706771;;;;;;370103;1;2023-12-13_09h39.12.096;REPSWITCH1_version1_list3;2022.2.4;143.924446;
REPSWITCH1/PICTURE_19.png;pavo;type;darkblue;repeat;1;T;1;2;3;1;Stim5_Set1;0;None;21;20;21;0;20;20;20;;;;;;;;;;;;;;;;;;;;;;;108.2068969;109.4778428;109.4778428;109.4778428;109.4778428;109.4778428;109.4778428;109.4778428;109.4778428;['p', 'a', 'v', 'o'];0;[0.8998538004234433, 1.0822323001921177, 1.1449863002635539, 1.3799057002179325];pavo;C:\2023\REPSWITCH21092023\REPSWITCH_excgange\REPSWITCH_excgange\data/370103_REPSWITCH1_version1_list3_2023-12-13_09h39.12.096_micRespv1l3_recorded\recording_micRespv1l3_2023-12-13_09h40.57.501.wav;112.5059897;;None;112.5059897;112.5059897;112.5059897;112.5059897;112.5059897;112.5059897;;;;;;370103;1;2023-12-13_09h39.12.096;REPSWITCH1_version1_list3;2022.2.4;143.924446;
REPSWITCH1/PICTURE_319.png;vaca;speak;gold;filler;2;F;1;2;3;1;Stim1_Set4;0;None;22;21;22;0;21;21;21;;;;;;;;;;;;;;;;;;;;;;;113.00609;114.1034894;114.1034894;114.1034894;114.1034894;114.1034894;114.1034894;114.1034894;114.1034894;None;0;;;C:\2023\REPSWITCH21092023\REPSWITCH_excgange\REPSWITCH_excgange\data/370103_REPSWITCH1_version1_list3_2023-12-13_09h39.12.096_micRespv1l3_recorded\recording_micRespv1l3_2023-12-13_09h41.02.137.wav;117.1385639;117.6386391;None;117.1037995;117.1037995;117.1037995;117.1037995;117.1037995;117.1037995;;;;;;370103;1;2023-12-13_09h39.12.096;REPSWITCH1_version1_list3;2022.2.4;143.924446;
REPSWITCH1/PICTURE_338.png;regalo;type;darkblue;filler;1;F;1;2;3;1;Stim6_Set4;0;None;23;22;23;0;22;22;22;;;;;;;;;;;;;;;;;;;;;;;117.6386391;118.8332971;118.8332971;118.8332971;118.8332971;118.8332971;118.8332971;118.8332971;118.8332971;['r', 'e', 'g', 'a', 'l', 'o'];0;[0.9592104000039399, 1.091937500052154, 1.2930137002840638, 1.356816700194031, 1.477381099946797, 1.6455347002483904];regalo;C:\2023\REPSWITCH21092023\REPSWITCH_excgange\REPSWITCH_excgange\data/370103_REPSWITCH1_version1_list3_2023-12-13_09h39.12.096_micRespv1l3_recorded\recording_micRespv1l3_2023-12-13_09h41.06.857.wav;121.8614084;122.361529;None;121.8614084;121.8614084;121.8614084;121.8614084;121.8614084;121.8614084;;;;;;370103;1;2023-12-13_09h39.12.096;REPSWITCH1_version1_list3;2022.2.4;143.924446;
REPSWITCH1/PICTURE_142.png;vaso;type;darkblue;nontarget;1;NT;1;2;3;1;Stim7_Set1;0;None;24;23;24;0;23;23;23;;;;;;;;;;;;;;;;;;;;;;;122.361529;123.4657822;123.4657822;123.4657822;123.4657822;123.4657822;123.4657822;123.4657822;123.4657822;['v', 'a', 's', 'o'];0;[0.909232399892062, 1.0898317000828683, 1.1725544999353588, 1.3502730000764132];vaso;C:\2023\REPSWITCH21092023\REPSWITCH_excgange\REPSWITCH_excgange\data/370103_REPSWITCH1_version1_list3_2023-12-13_09h39.12.096_micRespv1l3_recorded\recording_micRespv1l3_2023-12-13_09h41.11.489.wav;126.4939494;126.9939941;None;126.4939494;126.4939494;126.4939494;126.4939494;126.4939494;126.4939494;;;;;;370103;1;2023-12-13_09h39.12.096;REPSWITCH1_version1_list3;2022.2.4;143.924446;
REPSWITCH1/PICTURE_142.png;vaso;speak;gold;switch;2;T;1;2;3;1;Stim7_Set1;0;None;25;24;25;0;24;24;24;;;;;;;;;;;;;;;;;;;;;;;126.9939941;128.1192213;128.1192213;128.1192213;128.1192213;128.1192213;128.1192213;128.1192213;128.1192213;None;0;;;C:\2023\REPSWITCH21092023\REPSWITCH_excgange\REPSWITCH_excgange\data/370103_REPSWITCH1_version1_list3_2023-12-13_09h39.12.096_micRespv1l3_recorded\recording_micRespv1l3_2023-12-13_09h41.16.141.wav;131.1403744;131.6404617;None;131.1403744;131.1403744;131.1403744;131.1403744;131.1403744;131.1403744;;;;;;370103;1;2023-12-13_09h39.12.096;REPSWITCH1_version1_list3;2022.2.4;143.924446;
REPSWITCH1/PICTURE_687.png;camisa;type;darkblue;filler;1;F;1;2;3;1;Stim5_Set4;1;switch;26;25;26;0;25;25;25;;;;;;;;;;;;;;;;;;;;;;;131.6404617;132.6961589;132.6961589;132.6961589;132.6961589;132.6961589;132.6961589;132.6961589;132.6961589;['c', 'a', 'm', 'i', 's', 'a'];0;[1.166421600151807, 1.2232042998075485, 1.342826799955219, 1.4564479999244213, 1.5272065000608563, 1.6368400999344885];camisa;C:\2023\REPSWITCH21092023\REPSWITCH_excgange\REPSWITCH_excgange\data/370103_REPSWITCH1_version1_list3_2023-12-13_09h39.12.096_micRespv1l3_recorded\recording_micRespv1l3_2023-12-13_09h41.20.720.wav;135.7243365;136.2244015;None;135.7243365;135.7243365;135.7243365;135.7243365;135.7243365;135.7243365;;;;;;370103;1;2023-12-13_09h39.12.096;REPSWITCH1_version1_list3;2022.2.4;143.924446;
REPSWITCH1/PICTURE_30.png;granja;type;darkblue;nontarget;1;NT;2;2;3;1;Stim5_Set2;0;None;27;26;27;0;26;26;26;;;;;;;;;;;;;;;;;;;;;;;136.2244015;137.3633977;137.3633977;137.3633977;137.3633977;137.3633977;137.3633977;137.3633977;137.3633977;['g', 'r', 'a', 'n', 'j', 'a'];0;[2.17787959985435, 2.256768699735403, 2.4155970998108387, 2.580634099896997, 2.651587199885398, 2.8289947998709977];granja;C:\2023\REPSWITCH21092023\REPSWITCH_excgange\REPSWITCH_excgange\data/370103_REPSWITCH1_version1_list3_2023-12-13_09h39.12.096_micRespv1l3_recorded\recording_micRespv1l3_2023-12-13_09h41.25.387.wav;140.3915888;140.8916757;None;140.3915888;140.3915888;140.3915888;140.3915888;140.3915888;140.3915888;;;;;;370103;1;2023-12-13_09h39.12.096;REPSWITCH1_version1_list3;2022.2.4;143.924446;
REPSWITCH1/PICTURE_30.png;granja;type;darkblue;repeat;1;T;2;2;3;1;Stim5_Set2;0;None;28;27;28;0;27;27;27;;;;;;;;;;;;;;;;;;;;;;;140.8916757;142.0168317;142.0168317;142.0168317;142.0168317;142.0168317;142.0168317;142.0168317;142.0168317;['g', 'r', 'a', 'n', 'j', 'a'];0;[0.823078800458461, 0.8868617000989616, 0.9964931001886725, 1.1393560003489256, 1.2001171000301838, 1.4582519000396132];granja;C:\2023\REPSWITCH21092023\REPSWITCH_excgange\REPSWITCH_excgange\data/370103_REPSWITCH1_version1_list3_2023-12-13_09h39.12.096_micRespv1l3_recorded\recording_micRespv1l3_2023-12-13_09h41.30.039.wav;145.0450343;;None;145.0450343;145.0450343;145.0450343;145.0450343;145.0450343;145.0450343;;;;;;370103;1;2023-12-13_09h39.12.096;REPSWITCH1_version1_list3;2022.2.4;143.924446;
REPSWITCH1/PICTURE_128.png;muñeca;speak;gold;filler;2;F;2;2;3;1;Stim4_Set1;0;None;29;28;29;0;28;28;28;;;;;;;;;;;;;;;;;;;;;;;145.5451191;146.6354972;146.6354972;146.6354972;146.6354972;146.6354972;146.6354972;146.6354972;146.6354972;None;0;;;C:\2023\REPSWITCH21092023\REPSWITCH_excgange\REPSWITCH_excgange\data/370103_REPSWITCH1_version1_list3_2023-12-13_09h39.12.096_micRespv1l3_recorded\recording_micRespv1l3_2023-12-13_09h41.34.658.wav;149.6567046;150.1567463;None;149.6567046;149.6567046;149.6567046;149.6567046;149.6567046;149.6567046;;;;;;370103;1;2023-12-13_09h39.12.096;REPSWITCH1_version1_list3;2022.2.4;143.924446;
REPSWITCH1/PICTURE_264.png;mano;type;darkblue;nontarget;1;NT;2;2;3;1;Stim3_Set2;1;switch;30;29;30;0;29;29;29;;;;;;;;;;;;;;;;;;;;;;;150.1567463;151.2264322;151.2264322;151.2264322;151.2264322;151.2264322;151.2264322;151.2264322;151.2264322;['m', 'a', 'n', 'o'];0;[0.7902219002135098, 1.114255900029093, 1.1970367999747396, 1.5530137000605464];mano;C:\2023\REPSWITCH21092023\REPSWITCH_excgange\REPSWITCH_excgange\data/370103_REPSWITCH1_version1_list3_2023-12-13_09h39.12.096_micRespv1l3_recorded\recording_micRespv1l3_2023-12-13_09h41.39.250.wav;154.2545395;154.7546002;None;154.2545395;154.2545395;154.2545395;154.2545395;154.2545395;154.2545395;;;;;;370103;1;2023-12-13_09h39.12.096;REPSWITCH1_version1_list3;2022.2.4;143.924446;
REPSWITCH1/PICTURE_264.png;mano;type;darkblue;repeat;1;T;2;2;3;1;Stim3_Set2;0;None;31;30;31;0;30;30;30;;;;;;;;;;;;;;;;;;;;;;;154.7546002;155.8033353;155.8033353;155.8033353;155.8033353;155.8033353;155.8033353;155.8033353;155.8033353;['m', 'a', 'n', 'o'];0;[0.6838752003386617, 0.8433234002441168, 0.9712358000688255, 1.0442977002821863];mano;C:\2023\REPSWITCH21092023\REPSWITCH_excgange\REPSWITCH_excgange\data/370103_REPSWITCH1_version1_list3_2023-12-13_09h39.12.096_micRespv1l3_recorded\recording_micRespv1l3_2023-12-13_09h41.43.826.wav;158.8315133;;None;158.8315133;158.8315133;158.8315133;158.8315133;158.8315133;158.8315133;;;;;;370103;1;2023-12-13_09h39.12.096;REPSWITCH1_version1_list3;2022.2.4;143.924446;
REPSWITCH1/PICTURE_175.png;pintor;type;darkblue;nontarget;1;NT;2;2;3;1;Stim1_Set2;0;None;32;31;32;0;31;31;31;;;;;;;;;;;;;;;;;;;;;;;159.331628;160.4845214;160.4845214;160.4845214;160.4845214;160.4845214;160.4845214;160.4845214;160.4845214;['p', 'i', 'n', 't', 'o', 'r', 'a'];0;[1.3050313000567257, 1.438580000307411, 1.667089099995792, 1.7638012003153563, 1.9900666000321507, 2.0707829003222287, 2.188350500073284];pintora;C:\2023\REPSWITCH21092023\REPSWITCH_excgange\REPSWITCH_excgange\data/370103_REPSWITCH1_version1_list3_2023-12-13_09h39.12.096_micRespv1l3_recorded\recording_micRespv1l3_2023-12-13_09h41.48.509.wav;163.5127715;164.0127593;None;163.5127715;163.5127715;163.5127715;163.5127715;163.5127715;163.5127715;;;;;;370103;1;2023-12-13_09h39.12.096;REPSWITCH1_version1_list3;2022.2.4;143.924446;
REPSWITCH1/PICTURE_175.png;pintor;speak;gold;switch;2;T;2;2;3;1;Stim1_Set2;0;None;33;32;33;0;32;32;32;;;;;;;;;;;;;;;;;;;;;;;164.0127593;165.1171247;165.1171247;165.1171247;165.1171247;165.1171247;165.1171247;165.1171247;165.1171247;None;0;;;C:\2023\REPSWITCH21092023\REPSWITCH_excgange\REPSWITCH_excgange\data/370103_REPSWITCH1_version1_list3_2023-12-13_09h39.12.096_micRespv1l3_recorded\recording_micRespv1l3_2023-12-13_09h41.53.139.wav;168.138275;168.6383663;None;168.138275;168.138275;168.138275;168.138275;168.138275;168.138275;;;;;;370103;1;2023-12-13_09h39.12.096;REPSWITCH1_version1_list3;2022.2.4;143.924446;
REPSWITCH1/PICTURE_135.png;traje;speak;gold;filler;2;F;2;2;3;1;Stim3_Set1;1;repeat;34;33;34;0;33;33;33;;;;;;;;;;;;;;;;;;;;;;;168.6383663;169.8121161;169.8121161;169.8121161;169.8121161;169.8121161;169.8121161;169.8121161;169.8121161;None;0;;;C:\2023\REPSWITCH21092023\REPSWITCH_excgange\REPSWITCH_excgange\data/370103_REPSWITCH1_version1_list3_2023-12-13_09h39.12.096_micRespv1l3_recorded\recording_micRespv1l3_2023-12-13_09h41.57.834.wav;172.8334374;173.3334367;None;172.8334374;172.8334374;172.8334374;172.8334374;172.8334374;172.8334374;;;;;;370103;1;2023-12-13_09h39.12.096;REPSWITCH1_version1_list3;2022.2.4;143.924446;
REPSWITCH1/PICTURE_446.png;cerdo;speak;gold;nontarget;2;NT;2;2;3;1;Stim7_Set2;1;repeat;35;34;35;0;34;34;34;;;;;;;;;;;;;;;;;;;;;;;173.3334367;174.4446874;174.4446874;174.4446874;174.4446874;174.4446874;174.4446874;174.4446874;174.4446874;None;0;;;C:\2023\REPSWITCH21092023\REPSWITCH_excgange\REPSWITCH_excgange\data/370103_REPSWITCH1_version1_list3_2023-12-13_09h39.12.096_micRespv1l3_recorded\recording_micRespv1l3_2023-12-13_09h42.02.468.wav;177.4728348;177.9728954;None;177.4728348;177.4728348;177.4728348;177.4728348;177.4728348;177.4728348;;;;;;370103;1;2023-12-13_09h39.12.096;REPSWITCH1_version1_list3;2022.2.4;143.924446;
REPSWITCH1/PICTURE_446.png;cerdo;type;darkblue;switch;1;T;2;2;3;1;Stim7_Set2;0;None;36;35;36;0;35;35;35;;;;;;;;;;;;;;;;;;;;;;;177.9728954;179.028605;179.028605;179.028605;179.028605;179.028605;179.028605;179.028605;179.028605;['c', 'e', 'r', 'd', 'o'];0;[0.7742969002574682, 0.9910862003453076, 1.0339257000014186, 1.2203036001883447, 1.3358971001580358];cerdo;C:\2023\REPSWITCH21092023\REPSWITCH_excgange\REPSWITCH_excgange\data/370103_REPSWITCH1_version1_list3_2023-12-13_09h39.12.096_micRespv1l3_recorded\recording_micRespv1l3_2023-12-13_09h42.07.050.wav;182.0498244;182.5498724;None;182.0498244;182.0498244;182.0498244;182.0498244;182.0498244;182.0498244;;;;;;370103;1;2023-12-13_09h39.12.096;REPSWITCH1_version1_list3;2022.2.4;143.924446;
REPSWITCH1/PICTURE_152.png;caracol;type;darkblue;nontarget;1;NT;2;2;3;1;Stim2_Set2;1;repeat;37;36;37;0;36;36;36;;;;;;;;;;;;;;;;;;;;;;;182.5498724;183.6542062;183.6542062;183.6542062;183.6542062;183.6542062;183.6542062;183.6542062;183.6542062;['c', 'a', 'r', 'a', 'c', 'o', 'l'];0;[1.1082419999875128, 1.2418419001623988, 1.4679988999851048, 1.6076015001162887, 1.6874722000211477, 1.8466602000407875, 2.040891700424254];caracol;C:\2023\REPSWITCH21092023\REPSWITCH_excgange\REPSWITCH_excgange\data/370103_REPSWITCH1_version1_list3_2023-12-13_09h39.12.096_micRespv1l3_recorded\recording_micRespv1l3_2023-12-13_09h42.11.677.wav;186.6824684;;None;186.6824684;186.6824684;186.6824684;186.6824684;186.6824684;186.6824684;;;;;;370103;1;2023-12-13_09h39.12.096;REPSWITCH1_version1_list3;2022.2.4;143.924446;
REPSWITCH1/PICTURE_152.png;caracol;speak;gold;switch;2;T;2;2;3;1;Stim2_Set2;0;None;38;37;38;0;37;37;37;;;;;;;;;;;;;;;;;;;;;;;187.1824369;188.2937168;188.2937168;188.2937168;188.2937168;188.2937168;188.2937168;188.2937168;188.2937168;None;0;;;C:\2023\REPSWITCH21092023\REPSWITCH_excgange\REPSWITCH_excgange\data/370103_REPSWITCH1_version1_list3_2023-12-13_09h39.12.096_micRespv1l3_recorded\recording_micRespv1l3_2023-12-13_09h42.16.317.wav;191.3218658;;None;191.3218658;191.3218658;191.3218658;191.3218658;191.3218658;191.3218658;;;;;;370103;1;2023-12-13_09h39.12.096;REPSWITCH1_version1_list3;2022.2.4;143.924446;
REPSWITCH1/PICTURE_16.png;cazador;type;darkblue;filler;1;F;2;2;3;1;Stim6_Set1;0;None;39;38;39;0;38;38;38;;;;;;;;;;;;;;;;;;;;;;;191.8219551;192.9054954;192.9054954;192.9054954;192.9054954;192.9054954;192.9054954;192.9054954;192.9054954;['c', 'a', 'z', 'a', 'd', 'o', 'r'];0;[0.8192674000747502, 0.9210638999938965, 1.1780448998324573, 1.400603000074625, 1.7962170001119375, 1.955975600052625, 2.08364380011335];cazador;C:\2023\REPSWITCH21092023\REPSWITCH_excgange\REPSWITCH_excgange\data/370103_REPSWITCH1_version1_list3_2023-12-13_09h39.12.096_micRespv1l3_recorded\recording_micRespv1l3_2023-12-13_09h42.20.927.wav;195.9266892;196.4267317;None;195.9266892;195.9266892;195.9266892;195.9266892;195.9266892;195.9266892;;;;;;370103;1;2023-12-13_09h39.12.096;REPSWITCH1_version1_list3;2022.2.4;143.924446;
REPSWITCH1/PICTURE_381.png;fresa;speak;gold;filler;2;F;2;2;3;1;Stim2_Set1;0;None;40;39;40;0;39;39;39;;;;;;;;;;;;;;;;;;;;;;;196.4267317;197.558853;197.558853;197.558853;197.558853;197.558853;197.558853;197.558853;197.558853;None;0;;;C:\2023\REPSWITCH21092023\REPSWITCH_excgange\REPSWITCH_excgange\data/370103_REPSWITCH1_version1_list3_2023-12-13_09h39.12.096_micRespv1l3_recorded\recording_micRespv1l3_2023-12-13_09h42.25.581.wav;200.5800814;201.0801228;None;200.5800814;200.5800814;200.5800814;200.5800814;200.5800814;200.5800814;;;;;;370103;1;2023-12-13_09h39.12.096;REPSWITCH1_version1_list3;2022.2.4;143.924446;
REPSWITCH1/PICTURE_19.png;pavo;type;darkblue;filler;1;F;2;2;3;1;Stim5_Set1;0;None;41;40;41;0;40;40;40;;;;;;;;;;;;;;;;;;;;;;;201.0801228;202.3302782;202.3302782;202.3302782;202.3302782;202.3302782;202.3302782;202.3302782;202.3302782;['p', 'a', 'v', 'o'];0;[1.0119221997447312, 1.129453499801457, 1.169187500141561, 1.3356607998721302];pavo;C:\2023\REPSWITCH21092023\REPSWITCH_excgange\REPSWITCH_excgange\data/370103_REPSWITCH1_version1_list3_2023-12-13_09h39.12.096_micRespv1l3_recorded\recording_micRespv1l3_2023-12-13_09h42.30.353.wav;205.358513;;None;205.358513;205.358513;205.358513;205.358513;205.358513;205.358513;;;;;;370103;1;2023-12-13_09h39.12.096;REPSWITCH1_version1_list3;2022.2.4;143.924446;
REPSWITCH1/PICTURE_517.png;cuerda;speak;gold;nontarget;2;NT;2;2;3;1;Stim4_Set2;1;switch;42;41;42;0;41;41;41;;;;;;;;;;;;;;;;;;;;;;;205.8585254;206.8933815;206.8933815;206.8933815;206.8933815;206.8933815;206.8933815;206.8933815;206.8933815;None;0;;;C:\2023\REPSWITCH21092023\REPSWITCH_excgange\REPSWITCH_excgange\data/370103_REPSWITCH1_version1_list3_2023-12-13_09h39.12.096_micRespv1l3_recorded\recording_micRespv1l3_2023-12-13_09h42.34.917.wav;209.9216276;210.4216179;None;209.9216276;209.9216276;209.9216276;209.9216276;209.9216276;209.9216276;;;;;;370103;1;2023-12-13_09h39.12.096;REPSWITCH1_version1_list3;2022.2.4;143.924446;
REPSWITCH1/PICTURE_517.png;cuerda;speak;gold;repeat;2;T;2;2;3;1;Stim4_Set2;0;None;43;42;43;0;42;42;42;;;;;;;;;;;;;;;;;;;;;;;210.4216179;211.5399081;211.5399081;211.5399081;211.5399081;211.5399081;211.5399081;211.5399081;211.5399081;None;0;;;C:\2023\REPSWITCH21092023\REPSWITCH_excgange\REPSWITCH_excgange\data/370103_REPSWITCH1_version1_list3_2023-12-13_09h39.12.096_micRespv1l3_recorded\recording_micRespv1l3_2023-12-13_09h42.39.562.wav;214.5680337;;None;214.5680337;214.5680337;214.5680337;214.5680337;214.5680337;214.5680337;;;;;;370103;1;2023-12-13_09h39.12.096;REPSWITCH1_version1_list3;2022.2.4;143.924446;
REPSWITCH1/PICTURE_178.png;puente;type;darkblue;filler;1;F;2;2;3;1;Stim1_Set1;0;None;44;43;44;0;43;43;43;;;;;;;;;;;;;;;;;;;;;;;215.0680556;216.1584929;216.1584929;216.1584929;216.1584929;216.1584929;216.1584929;216.1584929;216.1584929;['p', 'u', 'e', 'n', 't', 'e'];0;[0.9389640004374087, 1.0595633001066744, 1.2100939000956714, 1.337937300093472, 1.4353106003254652, 1.4762794002890587];puente;C:\2023\REPSWITCH21092023\REPSWITCH_excgange\REPSWITCH_excgange\data/370103_REPSWITCH1_version1_list3_2023-12-13_09h39.12.096_micRespv1l3_recorded\recording_micRespv1l3_2023-12-13_09h42.44.180.wav;219.1797203;219.6798287;None;219.1797203;219.1797203;219.1797203;219.1797203;219.1797203;219.1797203;;;;;;370103;1;2023-12-13_09h39.12.096;REPSWITCH1_version1_list3;2022.2.4;143.924446;
REPSWITCH1/PICTURE_199.png;falda;speak;gold;nontarget;2;NT;2;2;3;1;Stim8_Set2;1;switch;45;44;45;0;44;44;44;;;;;;;;;;;;;;;;;;;;;;;219.6798287;220.7563915;220.7563915;220.7563915;220.7563915;220.7563915;220.7563915;220.7563915;220.7563915;None;0;;;C:\2023\REPSWITCH21092023\REPSWITCH_excgange\REPSWITCH_excgange\data/370103_REPSWITCH1_version1_list3_2023-12-13_09h39.12.096_micRespv1l3_recorded\recording_micRespv1l3_2023-12-13_09h42.48.780.wav;223.7844877;224.284562;None;223.7844877;223.7844877;223.7844877;223.7844877;223.7844877;223.7844877;;;;;;370103;1;2023-12-13_09h39.12.096;REPSWITCH1_version1_list3;2022.2.4;143.924446;
REPSWITCH1/PICTURE_199.png;falda;speak;gold;repeat;2;T;2;2;3;1;Stim8_Set2;0;None;46;45;46;0;45;45;45;;;;;;;;;;;;;;;;;;;;;;;224.284562;225.3403014;225.3403014;225.3403014;225.3403014;225.3403014;225.3403014;225.3403014;225.3403014;None;0;;;C:\2023\REPSWITCH21092023\REPSWITCH_excgange\REPSWITCH_excgange\data/370103_REPSWITCH1_version1_list3_2023-12-13_09h39.12.096_micRespv1l3_recorded\recording_micRespv1l3_2023-12-13_09h42.53.362.wav;228.3614641;228.8615218;None;228.3614641;228.3614641;228.3614641;228.3614641;228.3614641;228.3614641;;;;;;370103;1;2023-12-13_09h39.12.096;REPSWITCH1_version1_list3;2022.2.4;143.924446;
REPSWITCH1/PICTURE_169.png;espalda;type;darkblue;filler;1;F;2;2;3;1;Stim8_Set1;0;None;47;46;47;0;46;46;46;;;;;;;;;;;;;;;;;;;;;;;228.8615218;230.0075152;230.0075152;230.0075152;230.0075152;230.0075152;230.0075152;230.0075152;230.0075152;['e', 's', 'p', 'a', 'l', 'a', 'backspace', 'd', 'a'];0;[0.8143417001701891, 0.8741280999965966, 0.9947112998925149, 1.1630767001770437, 1.2517936998046935, 1.4560932000167668, 1.8853374999016523, 1.9846491999924183, 2.0405688998289406];espalda;C:\2023\REPSWITCH21092023\REPSWITCH_excgange\REPSWITCH_excgange\data/370103_REPSWITCH1_version1_list3_2023-12-13_09h39.12.096_micRespv1l3_recorded\recording_micRespv1l3_2023-12-13_09h42.58.029.wav;233.028794;233.5287904;None;233.028794;233.028794;233.028794;233.028794;233.028794;233.028794;;;;;;370103;1;2023-12-13_09h39.12.096;REPSWITCH1_version1_list3;2022.2.4;143.924446;
REPSWITCH1/PICTURE_142.png;vaso;speak;gold;filler;2;F;2;2;3;1;Stim7_Set1;0;None;48;47;48;0;47;47;47;;;;;;;;;;;;;;;;;;;;;;;233.5287904;234.6817931;234.6817931;234.6817931;234.6817931;234.6817931;234.6817931;234.6817931;234.6817931;None;0;;;C:\2023\REPSWITCH21092023\REPSWITCH_excgange\REPSWITCH_excgange\data/370103_REPSWITCH1_version1_list3_2023-12-13_09h39.12.096_micRespv1l3_recorded\recording_micRespv1l3_2023-12-13_09h43.02.704.wav;237.7029397;238.2030378;None;237.7029397;237.7029397;237.7029397;237.7029397;237.7029397;237.7029397;;;;;;370103;1;2023-12-13_09h39.12.096;REPSWITCH1_version1_list3;2022.2.4;143.924446;
REPSWITCH1/PICTURE_552.png;manzana;speak;gold;nontarget;2;NT;2;2;3;1;Stim6_Set2;0;None;49;48;49;0;48;48;48;;;;;;;;;;;;;;;;;;;;;;;238.2030378;239.3420919;239.3420919;239.3420919;239.3420919;239.3420919;239.3420919;239.3420919;239.3420919;None;0;;;C:\2023\REPSWITCH21092023\REPSWITCH_excgange\REPSWITCH_excgange\data/370103_REPSWITCH1_version1_list3_2023-12-13_09h39.12.096_micRespv1l3_recorded\recording_micRespv1l3_2023-12-13_09h43.07.364.wav;242.3632727;242.8633729;None;242.3632727;242.3632727;242.3632727;242.3632727;242.3632727;242.3632727;;;;;;370103;1;2023-12-13_09h39.12.096;REPSWITCH1_version1_list3;2022.2.4;143.924446;
REPSWITCH1/PICTURE_552.png;manzana;type;darkblue;switch;1;T;2;2;3;1;Stim6_Set2;0;None;50;49;50;0;49;49;49;;;;;;;;;;;;;;;;;;;;;;;242.8633729;243.9330245;243.9330245;243.9330245;243.9330245;243.9330245;243.9330245;243.9330245;243.9330245;['f', 'r', 'e', 's', 'a'];0;[0.7900705002248287, 1.1790338000282645, 1.2967189000919461, 1.5758690000511706, 1.7728137001395226];fresa;C:\2023\REPSWITCH21092023\REPSWITCH_excgange\REPSWITCH_excgange\data/370103_REPSWITCH1_version1_list3_2023-12-13_09h39.12.096_micRespv1l3_recorded\recording_micRespv1l3_2023-12-13_09h43.11.956.wav;246.9542263;247.4542643;None;246.9542263;246.9542263;246.9542263;246.9542263;246.9542263;246.9542263;;;;;;370103;1;2023-12-13_09h39.12.096;REPSWITCH1_version1_list3;2022.2.4;143.924446;
REPSWITCH1/PICTURE_590.png;escoba;speak;gold;filler;2;F;1;2;3;1;Extra3;0;None;51;50;51;0;50;50;50;;;;;;;;;;;;;;;;;;;;;;;247.4542643;248.482167;248.482167;248.482167;248.482167;248.482167;248.482167;248.482167;248.482167;None;0;;;C:\2023\REPSWITCH21092023\REPSWITCH_excgange\REPSWITCH_excgange\data/370103_REPSWITCH1_version1_list3_2023-12-13_09h39.12.096_micRespv1l3_recorded\recording_micRespv1l3_2023-12-13_09h43.16.505.wav;251.5104124;252.0103928;space;251.5104124;251.5104124;251.5104124;251.5104124;251.5104124;251.5104124;252.0103928;252.0103928;0.6593492;;;370103;1;2023-12-13_09h39.12.096;REPSWITCH1_version1_list3;2022.2.4;143.924446;
REPSWITCH1/PICTURE_552.png;manzana;type;darkblue;filler;1;F;3;2;3;1;Stim6_Set2;0;None;52;51;52;0;51;51;51;;;;;;;;;;;;;;;;;;;;;;;252.6771538;253.6911711;253.6911711;253.6911711;253.6911711;253.6911711;253.6911711;253.6911711;253.6911711;['f', 'r', 'e', 's', 'a'];0;[0.7239356003701687, 0.9554837001487613, 1.0272265002131462, 1.235529700294137, 1.3013360002078116];fresa;C:\2023\REPSWITCH21092023\REPSWITCH_excgange\REPSWITCH_excgange\data/370103_REPSWITCH1_version1_list3_2023-12-13_09h39.12.096_micRespv1l3_recorded\recording_micRespv1l3_2023-12-13_09h43.21.712.wav;256.7124156;257.2124782;None;256.7124156;256.7124156;256.7124156;256.7124156;256.7124156;256.7124156;;;;;;370103;1;2023-12-13_09h39.12.096;REPSWITCH1_version1_list3;2022.2.4;143.924446;
REPSWITCH1/PICTURE_464.png;goma;type;darkblue;nontarget;1;NT;3;2;3;1;Stim6_Set3;1;repeat;53;52;53;0;52;52;52;;;;;;;;;;;;;;;;;;;;;;;257.2124782;258.3723556;258.3723556;258.3723556;258.3723556;258.3723556;258.3723556;258.3723556;258.3723556;['g', 'o', 'm', 'a'];0;[1.03826649999246, 1.207187999971211, 1.3490031999535859, 1.4911124999634922];goma;C:\2023\REPSWITCH21092023\REPSWITCH_excgange\REPSWITCH_excgange\data/370103_REPSWITCH1_version1_list3_2023-12-13_09h39.12.096_micRespv1l3_recorded\recording_micRespv1l3_2023-12-13_09h43.26.396.wav;261.4005292;261.9005918;None;261.4005292;261.4005292;261.4005292;261.4005292;261.4005292;261.4005292;;;;;;370103;1;2023-12-13_09h39.12.096;REPSWITCH1_version1_list3;2022.2.4;143.924446;
REPSWITCH1/PICTURE_464.png;goma;speak;gold;switch;2;T;3;2;3;1;Stim6_Set3;0;None;54;53;54;0;53;53;53;;;;;;;;;;;;;;;;;;;;;;;261.9005918;263.0257997;263.0257997;263.0257997;263.0257997;263.0257997;263.0257997;263.0257997;263.0257997;None;0;;;C:\2023\REPSWITCH21092023\REPSWITCH_excgange\REPSWITCH_excgange\data/370103_REPSWITCH1_version1_list3_2023-12-13_09h39.12.096_micRespv1l3_recorded\recording_micRespv1l3_2023-12-13_09h43.31.048.wav;266.046945;266.5470432;None;266.046945;266.046945;266.046945;266.046945;266.046945;266.046945;;;;;;370103;1;2023-12-13_09h39.12.096;REPSWITCH1_version1_list3;2022.2.4;143.924446;
REPSWITCH1/PICTURE_30.png;granja;speak;gold;filler;2;F;3;2;3;1;Stim5_Set2;0;None;55;54;55;0;54;54;54;;;;;;;;;;;;;;;;;;;;;;;266.5470432;267.6652086;267.6652086;267.6652086;267.6652086;267.6652086;267.6652086;267.6652086;267.6652086;None;0;;;C:\2023\REPSWITCH21092023\REPSWITCH_excgange\REPSWITCH_excgange\data/370103_REPSWITCH1_version1_list3_2023-12-13_09h39.12.096_micRespv1l3_recorded\recording_micRespv1l3_2023-12-13_09h43.35.688.wav;270.6934473;;None;270.6934473;270.6934473;270.6934473;270.6934473;270.6934473;270.6934473;;;;;;370103;1;2023-12-13_09h39.12.096;REPSWITCH1_version1_list3;2022.2.4;143.924446;
REPSWITCH1/PICTURE_235.png;aguja;speak;gold;nontarget;2;NT;3;2;3;1;Stim4_Set3;1;repeat;56;55;56;0;55;55;55;;;;;;;;;;;;;;;;;;;;;;;271.1934801;272.3950255;272.3950255;272.3950255;272.3950255;272.3950255;272.3950255;272.3950255;272.3950255;None;0;;;C:\2023\REPSWITCH21092023\REPSWITCH_excgange\REPSWITCH_excgange\data/370103_REPSWITCH1_version1_list3_2023-12-13_09h39.12.096_micRespv1l3_recorded\recording_micRespv1l3_2023-12-13_09h43.40.418.wav;275.4231958;;None;275.4231958;275.4231958;275.4231958;275.4231958;275.4231958;275.4231958;;;;;;370103;1;2023-12-13_09h39.12.096;REPSWITCH1_version1_list3;2022.2.4;143.924446;
REPSWITCH1/PICTURE_235.png;aguja;type;darkblue;switch;1;T;3;2;3;1;Stim4_Set3;0;None;57;56;57;0;56;56;56;;;;;;;;;;;;;;;;;;;;;;;275.9232501;276.9581315;276.9581315;276.9581315;276.9581315;276.9581315;276.9581315;276.9581315;276.9581315;['a', 'g', 'u', 'j', 'a'];0;[0.9345215004868805, 0.9893232001923025, 1.178691300097853, 1.3780946005135775, 1.4301541005261242];aguja;C:\2023\REPSWITCH21092023\REPSWITCH_excgange\REPSWITCH_excgange\data/370103_REPSWITCH1_version1_list3_2023-12-13_09h39.12.096_micRespv1l3_recorded\recording_micRespv1l3_2023-12-13_09h43.44.981.wav;279.9793919;280.4794144;None;279.9793919;279.9793919;279.9793919;279.9793919;279.9793919;279.9793919;;;;;;370103;1;2023-12-13_09h39.12.096;REPSWITCH1_version1_list3;2022.2.4;143.924446;
REPSWITCH1/PICTURE_391.png;cadena;type;darkblue;filler;1;F;3;2;3;1;Extra2;0;None;58;57;58;0;57;57;57;;;;;;;;;;;;;;;;;;;;;;;280.4794144;281.5142787;281.5142787;281.5142787;281.5142787;281.5142787;281.5142787;281.5142787;281.5142787;['c', 'a', 'e', 'backspace', 'd', 'e', 'n', 'a'];0;[1.175576000008732, 1.2781899003311992, 1.5184220001101494, 1.9100909000262618, 2.029714100062847, 2.096452900208533, 2.321096300147474, 2.511150199919939];cadena;C:\2023\REPSWITCH21092023\REPSWITCH_excgange\REPSWITCH_excgange\data/370103_REPSWITCH1_version1_list3_2023-12-13_09h39.12.096_micRespv1l3_recorded\recording_micRespv1l3_2023-12-13_09h43.49.537.wav;284.5425195;;None;284.5425195;284.5425195;284.5425195;284.5425195;284.5425195;284.5425195;;;;;;370103;1;2023-12-13_09h39.12.096;REPSWITCH1_version1_list3;2022.2.4;143.924446;
REPSWITCH1/PICTURE_320.png;iglesia;type;darkblue;nontarget;1;NT;3;2;3;1;Stim8_Set3;0;None;59;58;59;0;58;58;58;;;;;;;;;;;;;;;;;;;;;;;285.0425077;286.1815913;286.1815913;286.1815913;286.1815913;286.1815913;286.1815913;286.1815913;286.1815913;['i', 'g', 'l', 'e', 's', 'i', 'a'];0;[1.3959653000347316, 1.519538899883628, 1.6541634001769125, 1.7404637997969985, 1.8391518997959793, 1.9686541999690235, 2.098221200052649];iglesia;C:\2023\REPSWITCH21092023\REPSWITCH_excgange\REPSWITCH_excgange\data/370103_REPSWITCH1_version1_list3_2023-12-13_09h39.12.096_micRespv1l3_recorded\recording_micRespv1l3_2023-12-13_09h43.54.204.wav;289.2097237;;None;289.2097237;289.2097237;289.2097237;289.2097237;289.2097237;289.2097237;;;;;;370103;1;2023-12-13_09h39.12.096;REPSWITCH1_version1_list3;2022.2.4;143.924446;
REPSWITCH1/PICTURE_320.png;iglesia;speak;gold;switch;2;T;3;2;3;1;Stim8_Set3;0;None;60;59;60;0;59;59;59;;;;;;;;;;;;;;;;;;;;;;;289.7097675;290.7793888;290.7793888;290.7793888;290.7793888;290.7793888;290.7793888;290.7793888;290.7793888;None;0;;;C:\2023\REPSWITCH21092023\REPSWITCH_excgange\REPSWITCH_excgange\data/370103_REPSWITCH1_version1_list3_2023-12-13_09h39.12.096_micRespv1l3_recorded\recording_micRespv1l3_2023-12-13_09h43.58.802.wav;293.8006103;294.3006374;None;293.8006103;293.8006103;293.8006103;293.8006103;293.8006103;293.8006103;;;;;;370103;1;2023-12-13_09h39.12.096;REPSWITCH1_version1_list3;2022.2.4;143.924446;
REPSWITCH1/PICTURE_175.png;pintor;type;darkblue;filler;1;F;3;2;3;1;Stim1_Set2;0;None;61;60;61;0;60;60;60;;;;;;;;;;;;;;;;;;;;;;;294.3006374;295.3841543;295.3841543;295.3841543;295.3841543;295.3841543;295.3841543;295.3841543;295.3841543;['p', 'i', 'n', 't', 'o', 'r'];0;[0.9854144002310932, 1.080096300225705, 1.307024100329727, 1.9569525001570582, 1.9958166000433266, 2.2141382000409067];pintor;C:\2023\REPSWITCH21092023\REPSWITCH_excgange\REPSWITCH_excgange\data/370103_REPSWITCH1_version1_list3_2023-12-13_09h39.12.096_micRespv1l3_recorded\recording_micRespv1l3_2023-12-13_09h44.03.407.wav;298.4123073;;None;298.4123073;298.4123073;298.4123073;298.4123073;298.4123073;298.4123073;;;;;;370103;1;2023-12-13_09h39.12.096;REPSWITCH1_version1_list3;2022.2.4;143.924446;
REPSWITCH1/PICTURE_271.png;conejo;speak;gold;nontarget;2;NT;3;2;3;1;Stim7_Set3;1;switch;62;61;62;0;61;61;61;;;;;;;;;;;;;;;;;;;;;;;298.9123497;299.9750324;299.9750324;299.9750324;299.9750324;299.9750324;299.9750324;299.9750324;299.9750324;None;0;;;C:\2023\REPSWITCH21092023\REPSWITCH_excgange\REPSWITCH_excgange\data/370103_REPSWITCH1_version1_list3_2023-12-13_09h39.12.096_micRespv1l3_recorded\recording_micRespv1l3_2023-12-13_09h44.07.999.wav;303.0032779;303.5032728;None;303.0032779;303.0032779;303.0032779;303.0032779;303.0032779;303.0032779;;;;;;370103;1;2023-12-13_09h39.12.096;REPSWITCH1_version1_list3;2022.2.4;143.924446;
REPSWITCH1/PICTURE_271.png;conejo;speak;gold;repeat;2;T;3;2;3;1;Stim7_Set3;0;None;63;62;63;0;62;62;62;;;;;;;;;;;;;;;;;;;;;;;303.5032728;304.5867529;304.5867529;304.5867529;304.5867529;304.5867529;304.5867529;304.5867529;304.5867529;None;0;;;C:\2023\REPSWITCH21092023\REPSWITCH_excgange\REPSWITCH_excgange\data/370103_REPSWITCH1_version1_list3_2023-12-13_09h39.12.096_micRespv1l3_recorded\recording_micRespv1l3_2023-12-13_09h44.12.608.wav;307.6080014;308.1081097;None;307.6080014;307.6080014;307.6080014;307.6080014;307.6080014;307.6080014;;;;;;370103;1;2023-12-13_09h39.12.096;REPSWITCH1_version1_list3;2022.2.4;143.924446;
REPSWITCH1/PICTURE_446.png;cerdo;speak;gold;filler;2;F;3;2;3;1;Stim7_Set2;0;None;64;63;64;0;63;63;63;;;;;;;;;;;;;;;;;;;;;;;308.1081097;309.2540361;309.2540361;309.2540361;309.2540361;309.2540361;309.2540361;309.2540361;309.2540361;None;0;;;C:\2023\REPSWITCH21092023\REPSWITCH_excgange\REPSWITCH_excgange\data/370103_REPSWITCH1_version1_list3_2023-12-13_09h39.12.096_micRespv1l3_recorded\recording_micRespv1l3_2023-12-13_09h44.17.276.wav;312.2752822;312.7753842;None;312.2752822;312.2752822;312.2752822;312.2752822;312.2752822;312.2752822;;;;;;370103;1;2023-12-13_09h39.12.096;REPSWITCH1_version1_list3;2022.2.4;143.924446;
REPSWITCH1/PICTURE_152.png;caracol;type;darkblue;filler;1;F;3;2;3;1;Stim2_Set2;0;None;65;64;65;0;64;64;64;;;;;;;;;;;;;;;;;;;;;;;312.7753842;313.8796878;313.8796878;313.8796878;313.8796878;313.8796878;313.8796878;313.8796878;313.8796878;['c', 'a', 'r', 'a', 'c', 'o', 'l'];0;[0.7976675000973046, 0.982636499684304, 1.1550505999475718, 1.3217687997967005, 1.4489230001345277, 1.5946955000981688, 1.7973063997924328];caracol;C:\2023\REPSWITCH21092023\REPSWITCH_excgange\REPSWITCH_excgange\data/370103_REPSWITCH1_version1_list3_2023-12-13_09h39.12.096_micRespv1l3_recorded\recording_micRespv1l3_2023-12-13_09h44.21.902.wav;316.9009083;317.4009011;None;316.9009083;316.9009083;316.9009083;316.9009083;316.9009083;316.9009083;;;;;;370103;1;2023-12-13_09h39.12.096;REPSWITCH1_version1_list3;2022.2.4;143.924446;
REPSWITCH1/PICTURE_576.png;guante;speak;gold;nontarget;2;NT;3;2;3;1;Stim1_Set3;1;switch;66;65;66;0;65;65;65;;;;;;;;;;;;;;;;;;;;;;;317.4009011;318.5052574;318.5052574;318.5052574;318.5052574;318.5052574;318.5052574;318.5052574;318.5052574;None;0;;;C:\2023\REPSWITCH21092023\REPSWITCH_excgange\REPSWITCH_excgange\data/370103_REPSWITCH1_version1_list3_2023-12-13_09h39.12.096_micRespv1l3_recorded\recording_micRespv1l3_2023-12-13_09h44.26.528.wav;321.5334802;322.0334805;None;321.5334802;321.5334802;321.5334802;321.5334802;321.5334802;321.5334802;;;;;;370103;1;2023-12-13_09h39.12.096;REPSWITCH1_version1_list3;2022.2.4;143.924446;
REPSWITCH1/PICTURE_576.png;guante;speak;gold;repeat;2;T;3;2;3;1;Stim1_Set3;0;None;67;66;67;0;66;66;66;;;;;;;;;;;;;;;;;;;;;;;322.0334805;323.1586084;323.1586084;323.1586084;323.1586084;323.1586084;323.1586084;323.1586084;323.1586084;None;0;;;C:\2023\REPSWITCH21092023\REPSWITCH_excgange\REPSWITCH_excgange\data/370103_REPSWITCH1_version1_list3_2023-12-13_09h39.12.096_micRespv1l3_recorded\recording_micRespv1l3_2023-12-13_09h44.31.180.wav;326.1798539;326.6799673;None;326.1798539;326.1798539;326.1798539;326.1798539;326.1798539;326.1798539;;;;;;370103;1;2023-12-13_09h39.12.096;REPSWITCH1_version1_list3;2022.2.4;143.924446;
REPSWITCH1/PICTURE_242.png;cartero;speak;gold;nontarget;2;NT;3;2;3;1;Stim3_Set3;0;None;68;67;68;0;67;67;67;;;;;;;;;;;;;;;;;;;;;;;326.6799673;327.7147508;327.7147508;327.7147508;327.7147508;327.7147508;327.7147508;327.7147508;327.7147508;None;0;;;C:\2023\REPSWITCH21092023\REPSWITCH_excgange\REPSWITCH_excgange\data/370103_REPSWITCH1_version1_list3_2023-12-13_09h39.12.096_micRespv1l3_recorded\recording_micRespv1l3_2023-12-13_09h44.35.738.wav;330.7429417;331.2430169;None;330.7429417;330.7429417;330.7429417;330.7429417;330.7429417;330.7429417;;;;;;370103;1;2023-12-13_09h39.12.096;REPSWITCH1_version1_list3;2022.2.4;143.924446;
REPSWITCH1/PICTURE_242.png;cartero;type;darkblue;switch;1;T;3;2;3;1;Stim3_Set3;0;None;69;68;69;0;68;68;68;;;;;;;;;;;;;;;;;;;;;;;331.2430169;332.3265548;332.3265548;332.3265548;332.3265548;332.3265548;332.3265548;332.3265548;332.3265548;['c', 'r', 'a', 'backspace', 'backspace', 'a', 'r', 't', 'e', 'r', 'o'];0;[0.8659798000007868, 1.093206100165844, 1.1921829003840685, 1.6002142000943422, 1.7647533002309501, 1.8912359001114964, 2.063291000202298, 2.2730329004116356, 2.4421471999958158, 2.513879199977964, 2.716493600048125];cartero;C:\2023\REPSWITCH21092023\REPSWITCH_excgange\REPSWITCH_excgange\data/370103_REPSWITCH1_version1_list3_2023-12-13_09h39.12.096_micRespv1l3_recorded\recording_micRespv1l3_2023-12-13_09h44.40.348.wav;335.3477007;335.8477587;None;335.3477007;335.3477007;335.3477007;335.3477007;335.3477007;335.3477007;;;;;;370103;1;2023-12-13_09h39.12.096;REPSWITCH1_version1_list3;2022.2.4;143.924446;
REPSWITCH1/PICTURE_517.png;cuerda;speak;gold;filler;2;F;3;2;3;1;Stim4_Set2;0;None;70;69;70;0;69;69;69;;;;;;;;;;;;;;;;;;;;;;;335.8477587;336.924321;336.924321;336.924321;336.924321;336.924321;336.924321;336.924321;336.924321;None;0;;;C:\2023\REPSWITCH21092023\REPSWITCH_excgange\REPSWITCH_excgange\data/370103_REPSWITCH1_version1_list3_2023-12-13_09h39.12.096_micRespv1l3_recorded\recording_micRespv1l3_2023-12-13_09h44.44.946.wav;339.945542;340.4456188;None;339.945542;339.945542;339.945542;339.945542;339.945542;339.945542;;;;;;370103;1;2023-12-13_09h39.12.096;REPSWITCH1_version1_list3;2022.2.4;143.924446;
REPSWITCH1/PICTURE_646.png;tronco;type;darkblue;filler;1;F;3;2;3;1;Extra4;0;None;71;70;71;0;70;70;70;;;;;;;;;;;;;;;;;;;;;;;340.4456188;341.5777491;341.5777491;341.5777491;341.5777491;341.5777491;341.5777491;341.5777491;341.5777491;['t', 'r', 'o', 'n', 'c', 'o'];0;[0.9409028002992272, 0.9997150003910065, 1.1143415002152324, 1.2396988002583385, 1.384410200174898, 1.5199924004264176];tronco;C:\2023\REPSWITCH21092023\REPSWITCH_excgange\REPSWITCH_excgange\data/370103_REPSWITCH1_version1_list3_2023-12-13_09h39.12.096_micRespv1l3_recorded\recording_micRespv1l3_2023-12-13_09h44.49.601.wav;344.6058611;345.1059984;None;344.6058611;344.6058611;344.6058611;344.6058611;344.6058611;344.6058611;;;;;;370103;1;2023-12-13_09h39.12.096;REPSWITCH1_version1_list3;2022.2.4;143.924446;
REPSWITCH1/PICTURE_35.png;oreja;type;darkblue;nontarget;1;NT;3;2;3;1;Stim5_Set3;1;repeat;72;71;72;0;71;71;71;;;;;;;;;;;;;;;;;;;;;;;345.1059984;346.2866623;346.2866623;346.2866623;346.2866623;346.2866623;346.2866623;346.2866623;346.2866623;['o', 'r', 'e', 'j', 'a'];0;[0.8389368001371622, 1.0233216998167336, 1.1352885998785496, 1.3026327998377383, 1.3627566001378];oreja;C:\2023\REPSWITCH21092023\REPSWITCH_excgange\REPSWITCH_excgange\data/370103_REPSWITCH1_version1_list3_2023-12-13_09h39.12.096_micRespv1l3_recorded\recording_micRespv1l3_2023-12-13_09h44.54.310.wav;349.3148098;349.8148736;None;349.3148098;349.3148098;349.3148098;349.3148098;349.3148098;349.3148098;;;;;;370103;1;2023-12-13_09h39.12.096;REPSWITCH1_version1_list3;2022.2.4;143.924446;
REPSWITCH1/PICTURE_35.png;oreja;type;darkblue;repeat;1;T;3;2;3;1;Stim5_Set3;0;None;73;72;73;0;72;72;72;;;;;;;;;;;;;;;;;;;;;;;349.8148736;350.9262142;350.9262142;350.9262142;350.9262142;350.9262142;350.9262142;350.9262142;350.9262142;['o', 'r', 'e', 'j', 'a'];0;[0.7077550999820232, 0.8243545000441372, 0.9030407001264393, 1.0755158001556993, 1.1263341000303626];oreja;C:\2023\REPSWITCH21092023\REPSWITCH_excgange\REPSWITCH_excgange\data/370103_REPSWITCH1_version1_list3_2023-12-13_09h39.12.096_micRespv1l3_recorded\recording_micRespv1l3_2023-12-13_09h44.58.949.wav;353.954331;;None;353.954331;353.954331;353.954331;353.954331;353.954331;353.954331;;;;;;370103;1;2023-12-13_09h39.12.096;REPSWITCH1_version1_list3;2022.2.4;143.924446;
REPSWITCH1/PICTURE_199.png;falda;speak;gold;filler;2;F;3;2;3;1;Stim8_Set2;0;None;74;73;74;0;73;73;73;;;;;;;;;;;;;;;;;;;;;;;354.4544023;355.5031873;355.5031873;355.5031873;355.5031873;355.5031873;355.5031873;355.5031873;355.5031873;None;0;;;C:\2023\REPSWITCH21092023\REPSWITCH_excgange\REPSWITCH_excgange\data/370103_REPSWITCH1_version1_list3_2023-12-13_09h39.12.096_micRespv1l3_recorded\recording_micRespv1l3_2023-12-13_09h45.03.526.wav;358.5313253;;None;358.5313253;358.5313253;358.5313253;358.5313253;358.5313253;358.5313253;;;;;;370103;1;2023-12-13_09h39.12.096;REPSWITCH1_version1_list3;2022.2.4;143.924446;
REPSWITCH1/PICTURE_610.png;miel;type;darkblue;nontarget;1;NT;3;2;3;1;Stim2_Set3;1;switch;75;74;75;0;74;74;74;;;;;;;;;;;;;;;;;;;;;;;359.0313899;360.1912759;360.1912759;360.1912759;360.1912759;360.1912759;360.1912759;360.1912759;360.1912759;['m', 'i', 'e', 'l'];0;[0.7737983004190028, 0.8767419001087546, 1.0122809004969895, 1.1318876002915204];miel;C:\2023\REPSWITCH21092023\REPSWITCH_excgange\REPSWITCH_excgange\data/370103_REPSWITCH1_version1_list3_2023-12-13_09h39.12.096_micRespv1l3_recorded\recording_micRespv1l3_2023-12-13_09h45.08.215.wav;363.2194121;363.7195305;None;363.2194121;363.2194121;363.2194121;363.2194121;363.2194121;363.2194121;;;;;;370103;1;2023-12-13_09h39.12.096;REPSWITCH1_version1_list3;2022.2.4;143.924446;
REPSWITCH1/PICTURE_610.png;miel;type;darkblue;repeat;1;T;3;2;3;1;Stim2_Set3;0;None;76;75;76;0;75;75;75;;;;;;;;;;;;;;;;;;;;;;;363.7195305;364.7683393;364.7683393;364.7683393;364.7683393;364.7683393;364.7683393;364.7683393;364.7683393;['m', 'i', 'e', 'l'];0;[0.7293736999854445, 0.8589812000282109, 1.0183971002697945, 1.160282399971038];miel;C:\2023\REPSWITCH21092023\REPSWITCH_excgange\REPSWITCH_excgange\data/370103_REPSWITCH1_version1_list3_2023-12-13_09h39.12.096_micRespv1l3_recorded\recording_micRespv1l3_2023-12-13_09h45.12.791.wav;367.7964268;;None;367.7964268;367.7964268;367.7964268;367.7964268;367.7964268;367.7964268;;;;;;370103;1;2023-12-13_09h39.12.096;REPSWITCH1_version1_list3;2022.2.4;143.924446;
REPSWITCH1/PICTURE_264.png;mano;type;darkblue;filler;1;F;3;2;3;1;Stim3_Set2;1;repeat;77;76;77;0;76;76;76;;;;;;;;;;;;;;;;;;;;;;;368.2964919;369.3105281;369.3105281;369.3105281;369.3105281;369.3105281;369.3105281;369.3105281;369.3105281;['m', 'a', 'n', 'o'];0;[0.6939504002220929, 0.8619535001926124, 1.028718600049615, 1.083564800210297];mano;C:\2023\REPSWITCH21092023\REPSWITCH_excgange\REPSWITCH_excgange\data/370103_REPSWITCH1_version1_list3_2023-12-13_09h39.12.096_micRespv1l3_recorded\recording_micRespv1l3_2023-12-13_09h45.17.333.wav;372.3386474;;None;372.3386474;372.3386474;372.3386474;372.3386474;372.3386474;372.3386474;;;;;;370103;1;2023-12-13_09h39.12.096;REPSWITCH1_version1_list3;2022.2.4;143.924446;
REPSWITCH1/PICTURE_464.png;goma;speak;gold;filler;2;F;4;2;3;1;Stim6_Set3;0;None;78;77;78;0;77;77;77;;;;;;;;;;;;;;;;;;;;;;;372.8387114;373.9361996;373.9361996;373.9361996;373.9361996;373.9361996;373.9361996;373.9361996;373.9361996;None;0;;;C:\2023\REPSWITCH21092023\REPSWITCH_excgange\REPSWITCH_excgange\data/370103_REPSWITCH1_version1_list3_2023-12-13_09h39.12.096_micRespv1l3_recorded\recording_micRespv1l3_2023-12-13_09h45.21.958.wav;376.9573532;377.4574826;None;376.9573532;376.9573532;376.9573532;376.9573532;376.9573532;376.9573532;;;;;;370103;1;2023-12-13_09h39.12.096;REPSWITCH1_version1_list3;2022.2.4;143.924446;
REPSWITCH1/PICTURE_8.png;pierna;type;darkblue;nontarget;1;NT;4;2;3;1;Stim3_Set4;1;switch;79;78;79;0;78;78;78;;;;;;;;;;;;;;;;;;;;;;;377.4574826;378.5061866;378.5061866;378.5061866;378.5061866;378.5061866;378.5061866;378.5061866;378.5061866;['p', 'i', 'e', 'r', 'n', 'a'];0;[1.0315895001403987, 1.1362677002325654, 1.2589069004170597, 1.3186679002828896, 1.4422859004698694, 1.551275800447911];pierna;C:\2023\REPSWITCH21092023\REPSWITCH_excgange\REPSWITCH_excgange\data/370103_REPSWITCH1_version1_list3_2023-12-13_09h39.12.096_micRespv1l3_recorded\recording_micRespv1l3_2023-12-13_09h45.26.528.wav;381.5273802;382.0274622;None;381.5273802;381.5273802;381.5273802;381.5273802;381.5273802;381.5273802;;;;;;370103;1;2023-12-13_09h39.12.096;REPSWITCH1_version1_list3;2022.2.4;143.924446;
REPSWITCH1/PICTURE_8.png;pierna;type;darkblue;repeat;1;T;4;2;3;1;Stim3_Set4;0;None;80;79;80;0;79;79;79;;;;;;;;;;;;;;;;;;;;;;;382.0274622;383.1317851;383.1317851;383.1317851;383.1317851;383.1317851;383.1317851;383.1317851;383.1317851;['p', 'i', 'e', 'r', 'n', 'a'];0;[0.6210461999289691, 0.7148798000998795, 0.857439000159502, 0.9282053001224995, 1.07201710017398, 1.1856408002786338];pierna;C:\2023\REPSWITCH21092023\REPSWITCH_excgange\REPSWITCH_excgange\data/370103_REPSWITCH1_version1_list3_2023-12-13_09h39.12.096_micRespv1l3_recorded\recording_micRespv1l3_2023-12-13_09h45.31.155.wav;386.159938;;None;386.159938;386.159938;386.159938;386.159938;386.159938;386.159938;;;;;;370103;1;2023-12-13_09h39.12.096;REPSWITCH1_version1_list3;2022.2.4;143.924446;
REPSWITCH1/PICTURE_728.png;pulpo;type;darkblue;nontarget;1;NT;4;2;3;1;Stim8_Set4;1;repeat;81;80;81;0;80;80;80;;;;;;;;;;;;;;;;;;;;;;;386.6600083;387.7782265;387.7782265;387.7782265;387.7782265;387.7782265;387.7782265;387.7782265;387.7782265;['p', 'u', 'l', 'p', 'o'];0;[0.7359289000742137, 0.8338930001482368, 1.0394918001256883, 1.250136099755764, 1.3259239997714758];pulpo;C:\2023\REPSWITCH21092023\REPSWITCH_excgange\REPSWITCH_excgange\data/370103_REPSWITCH1_version1_list3_2023-12-13_09h39.12.096_micRespv1l3_recorded\recording_micRespv1l3_2023-12-13_09h45.35.800.wav;390.7994558;391.2995093;None;390.7994558;390.7994558;390.7994558;390.7994558;390.7994558;390.7994558;;;;;;370103;1;2023-12-13_09h39.12.096;REPSWITCH1_version1_list3;2022.2.4;143.924446;
REPSWITCH1/PICTURE_728.png;pulpo;speak;gold;switch;2;T;4;2;3;1;Stim8_Set4;0;None;82;81;82;0;81;81;81;;;;;;;;;;;;;;;;;;;;;;;391.2995093;392.348232;392.348232;392.348232;392.348232;392.348232;392.348232;392.348232;392.348232;None;0;;;C:\2023\REPSWITCH21092023\REPSWITCH_excgange\REPSWITCH_excgange\data/370103_REPSWITCH1_version1_list3_2023-12-13_09h39.12.096_micRespv1l3_recorded\recording_micRespv1l3_2023-12-13_09h45.40.370.wav;395.3764898;;None;395.3764898;395.3764898;395.3764898;395.3764898;395.3764898;395.3764898;;;;;;370103;1;2023-12-13_09h39.12.096;REPSWITCH1_version1_list3;2022.2.4;143.924446;
REPSWITCH1/PICTURE_235.png;aguja;type;darkblue;filler;1;F;4;2;3;1;Stim4_Set3;0;None;83;82;83;0;82;82;82;;;;;;;;;;;;;;;;;;;;;;;395.8764944;396.9113813;396.9113813;396.9113813;396.9113813;396.9113813;396.9113813;396.9113813;396.9113813;['a', 'g', 'u', 'j', 'a'];0;[0.8829475999809802, 0.9307548999786377, 1.0832552998326719, 1.2636668998748064, 1.5019991002045572];aguja;C:\2023\REPSWITCH21092023\REPSWITCH_excgange\REPSWITCH_excgange\data/370103_REPSWITCH1_version1_list3_2023-12-13_09h39.12.096_micRespv1l3_recorded\recording_micRespv1l3_2023-12-13_09h45.44.933.wav;399.9395965;;None;399.9395965;399.9395965;399.9395965;399.9395965;399.9395965;399.9395965;;;;;;370103;1;2023-12-13_09h39.12.096;REPSWITCH1_version1_list3;2022.2.4;143.924446;
REPSWITCH1/PICTURE_498.png;taza;speak;gold;nontarget;2;NT;4;2;3;1;Stim4_Set4;1;switch;84;83;84;0;83;83;83;;;;;;;;;;;;;;;;;;;;;;;400.4395973;401.5299954;401.5299954;401.5299954;401.5299954;401.5299954;401.5299954;401.5299954;401.5299954;None;0;;;C:\2023\REPSWITCH21092023\REPSWITCH_excgange\REPSWITCH_excgange\data/370103_REPSWITCH1_version1_list3_2023-12-13_09h39.12.096_micRespv1l3_recorded\recording_micRespv1l3_2023-12-13_09h45.49.553.wav;404.5582692;;None;404.5582692;404.5582692;404.5582692;404.5582692;404.5582692;404.5582692;;;;;;370103;1;2023-12-13_09h39.12.096;REPSWITCH1_version1_list3;2022.2.4;143.924446;
REPSWITCH1/PICTURE_498.png;taza;speak;gold;repeat;2;T;4;2;3;1;Stim4_Set4;0;None;85;84;85;0;84;84;84;;;;;;;;;;;;;;;;;;;;;;;405.0582585;406.1556357;406.1556357;406.1556357;406.1556357;406.1556357;406.1556357;406.1556357;406.1556357;None;0;;;C:\2023\REPSWITCH21092023\REPSWITCH_excgange\REPSWITCH_excgange\data/370103_REPSWITCH1_version1_list3_2023-12-13_09h39.12.096_micRespv1l3_recorded\recording_micRespv1l3_2023-12-13_09h45.54.178.wav;409.1768592;409.6769008;None;409.1768592;409.1768592;409.1768592;409.1768592;409.1768592;409.1768592;;;;;;370103;1;2023-12-13_09h39.12.096;REPSWITCH1_version1_list3;2022.2.4;143.924446;
REPSWITCH1/PICTURE_719.png;baño;speak;gold;nontarget;2;NT;4;2;3;1;Stim2_Set4;0;None;86;85;86;0;85;85;85;;;;;;;;;;;;;;;;;;;;;;;409.6769008;410.7812298;410.7812298;410.7812298;410.7812298;410.7812298;410.7812298;410.7812298;410.7812298;None;0;;;C:\2023\REPSWITCH21092023\REPSWITCH_excgange\REPSWITCH_excgange\data/370103_REPSWITCH1_version1_list3_2023-12-13_09h39.12.096_micRespv1l3_recorded\recording_micRespv1l3_2023-12-13_09h45.58.803.wav;413.802451;414.3025265;None;413.802451;413.802451;413.802451;413.802451;413.802451;413.802451;;;;;;370103;1;2023-12-13_09h39.12.096;REPSWITCH1_version1_list3;2022.2.4;143.924446;
REPSWITCH1/PICTURE_719.png;baño;type;darkblue;switch;1;T;4;2;3;1;Stim2_Set4;0;None;87;86;87;0;86;86;86;;;;;;;;;;;;;;;;;;;;;;;414.3025265;415.4693619;415.4693619;415.4693619;415.4693619;415.4693619;415.4693619;415.4693619;415.4693619;['b', 'a', 'ñ', 'o'];0;[0.8134316001087427, 0.9350553001277149, 1.1537760999053717, 1.2593572000041604];baño;C:\2023\REPSWITCH21092023\REPSWITCH_excgange\REPSWITCH_excgange\data/370103_REPSWITCH1_version1_list3_2023-12-13_09h39.12.096_micRespv1l3_recorded\recording_micRespv1l3_2023-12-13_09h46.03.492.wav;418.4975212;;None;418.4975212;418.4975212;418.4975212;418.4975212;418.4975212;418.4975212;;;;;;370103;1;2023-12-13_09h39.12.096;REPSWITCH1_version1_list3;2022.2.4;143.924446;
REPSWITCH1/PICTURE_320.png;iglesia;speak;gold;filler;2;F;4;2;3;1;Stim8_Set3;0;None;88;87;88;0;87;87;87;;;;;;;;;;;;;;;;;;;;;;;418.9975827;420.1018722;420.1018722;420.1018722;420.1018722;420.1018722;420.1018722;420.1018722;420.1018722;None;0;;;C:\2023\REPSWITCH21092023\REPSWITCH_excgange\REPSWITCH_excgange\data/370103_REPSWITCH1_version1_list3_2023-12-13_09h39.12.096_micRespv1l3_recorded\recording_micRespv1l3_2023-12-13_09h46.08.124.wav;423.1231224;423.6231773;None;423.1231224;423.1231224;423.1231224;423.1231224;423.1231224;423.1231224;;;;;;370103;1;2023-12-13_09h39.12.096;REPSWITCH1_version1_list3;2022.2.4;143.924446;
REPSWITCH1/PICTURE_48.png;bombero;type;darkblue;nontarget;1;NT;4;2;3;1;Stim7_Set4;1;switch;89;88;89;0;88;88;88;;;;;;;;;;;;;;;;;;;;;;;423.6231773;424.6927637;424.6927637;424.6927637;424.6927637;424.6927637;424.6927637;424.6927637;424.6927637;['b', 'o', 'm', 'b', 'e', 'r', 'o'];0;[1.0801264997571707, 1.1907561998814344, 1.4182053999975324, 1.6523095001466572, 1.8396840998902917, 1.9541174001060426, 2.02927209995687];bombero;C:\2023\REPSWITCH21092023\REPSWITCH_excgange\REPSWITCH_excgange\data/370103_REPSWITCH1_version1_list3_2023-12-13_09h39.12.096_micRespv1l3_recorded\recording_micRespv1l3_2023-12-13_09h46.12.715.wav;427.7140769;428.2140698;None;427.7140769;427.7140769;427.7140769;427.7140769;427.7140769;427.7140769;;;;;;370103;1;2023-12-13_09h39.12.096;REPSWITCH1_version1_list3;2022.2.4;143.924446;
REPSWITCH1/PICTURE_48.png;bombero;speak;gold;switch;2;T;4;2;3;1;Stim7_Set4;0;None;90;89;90;0;89;89;89;;;;;;;;;;;;;;;;;;;;;;;428.2140698;429.2837156;429.2837156;429.2837156;429.2837156;429.2837156;429.2837156;429.2837156;429.2837156;None;0;;;C:\2023\REPSWITCH21092023\REPSWITCH_excgange\REPSWITCH_excgange\data/370103_REPSWITCH1_version1_list3_2023-12-13_09h39.12.096_micRespv1l3_recorded\recording_micRespv1l3_2023-12-13_09h46.17.306.wav;432.3048494;432.8049579;None;432.3048494;432.3048494;432.3048494;432.3048494;432.3048494;432.3048494;;;;;;370103;1;2023-12-13_09h39.12.096;REPSWITCH1_version1_list3;2022.2.4;143.924446;
REPSWITCH1/PICTURE_576.png;guante;type;darkblue;filler;1;F;4;2;3;1;Stim1_Set3;0;None;91;90;91;0;90;90;90;;;;;;;;;;;;;;;;;;;;;;;432.8049579;433.9231386;433.9231386;433.9231386;433.9231386;433.9231386;433.9231386;433.9231386;433.9231386;['g', 'u', 'a', 'n', 't', 'e'];0;[0.6910072001628578, 0.8227808005176485, 0.9253175002522767, 1.0349372001364827, 1.2262991000898182, 1.2516254005022347];guante;C:\2023\REPSWITCH21092023\REPSWITCH_excgange\REPSWITCH_excgange\data/370103_REPSWITCH1_version1_list3_2023-12-13_09h39.12.096_micRespv1l3_recorded\recording_micRespv1l3_2023-12-13_09h46.21.945.wav;436.9443614;437.4444501;None;436.9443614;436.9443614;436.9443614;436.9443614;436.9443614;436.9443614;;;;;;370103;1;2023-12-13_09h39.12.096;REPSWITCH1_version1_list3;2022.2.4;143.924446;
REPSWITCH1/PICTURE_271.png;conejo;speak;gold;filler;2;F;4;2;3;1;Stim7_Set3;0;None;92;91;92;0;91;91;91;;;;;;;;;;;;;;;;;;;;;;;437.4444501;438.4654426;438.4654426;438.4654426;438.4654426;438.4654426;438.4654426;438.4654426;438.4654426;None;0;;;C:\2023\REPSWITCH21092023\REPSWITCH_excgange\REPSWITCH_excgange\data/370103_REPSWITCH1_version1_list3_2023-12-13_09h39.12.096_micRespv1l3_recorded\recording_micRespv1l3_2023-12-13_09h46.26.487.wav;441.4866337;441.986686;None;441.4866337;441.4866337;441.4866337;441.4866337;441.4866337;441.4866337;;;;;;370103;1;2023-12-13_09h39.12.096;REPSWITCH1_version1_list3;2022.2.4;143.924446;
REPSWITCH1/PICTURE_319.png;vaca;speak;gold;nontarget;2;NT;4;2;3;1;Stim1_Set4;1;repeat;93;92;93;0;92;92;92;;;;;;;;;;;;;;;;;;;;;;;441.986686;443.1396503;443.1396503;443.1396503;443.1396503;443.1396503;443.1396503;443.1396503;443.1396503;None;0;;;C:\2023\REPSWITCH21092023\REPSWITCH_excgange\REPSWITCH_excgange\data/370103_REPSWITCH1_version1_list3_2023-12-13_09h39.12.096_micRespv1l3_recorded\recording_micRespv1l3_2023-12-13_09h46.31.161.wav;446.1608472;446.6609326;None;446.1608472;446.1608472;446.1608472;446.1608472;446.1608472;446.1608472;;;;;;370103;1;2023-12-13_09h39.12.096;REPSWITCH1_version1_list3;2022.2.4;143.924446;
REPSWITCH1/PICTURE_319.png;vaca;speak;gold;repeat;2;T;4;2;3;1;Stim1_Set4;0;None;94;93;94;0;93;93;93;;;;;;;;;;;;;;;;;;;;;;;446.6609326;447.7652334;447.7652334;447.7652334;447.7652334;447.7652334;447.7652334;447.7652334;447.7652334;None;0;;;C:\2023\REPSWITCH21092023\REPSWITCH_excgange\REPSWITCH_excgange\data/370103_REPSWITCH1_version1_list3_2023-12-13_09h39.12.096_micRespv1l3_recorded\recording_micRespv1l3_2023-12-13_09h46.35.787.wav;450.7865219;451.2865334;None;450.7865219;450.7865219;450.7865219;450.7865219;450.7865219;450.7865219;;;;;;370103;1;2023-12-13_09h39.12.096;REPSWITCH1_version1_list3;2022.2.4;143.924446;
REPSWITCH1/PICTURE_242.png;cartero;type;darkblue;filler;1;F;4;2;3;1;Stim3_Set3;0;None;95;94;95;0;94;94;94;;;;;;;;;;;;;;;;;;;;;;;451.2865334;452.3700027;452.3700027;452.3700027;452.3700027;452.3700027;452.3700027;452.3700027;452.3700027;['c', 'a', 'r', 't', 'e', 'r', 'o'];0;[0.9073136001825333, 1.0522770001553, 1.2322007003240287, 1.3230714001692832, 1.4475861000828445, 1.518346100114286, 1.6837566001340747];cartero;C:\2023\REPSWITCH21092023\REPSWITCH_excgange\REPSWITCH_excgange\data/370103_REPSWITCH1_version1_list3_2023-12-13_09h39.12.096_micRespv1l3_recorded\recording_micRespv1l3_2023-12-13_09h46.40.391.wav;455.3912578;455.8913132;None;455.3912578;455.3912578;455.3912578;455.3912578;455.3912578;455.3912578;;;;;;370103;1;2023-12-13_09h39.12.096;REPSWITCH1_version1_list3;2022.2.4;143.924446;
REPSWITCH1/PICTURE_35.png;oreja;speak;gold;filler;2;F;4;2;3;1;Stim5_Set3;1;switch;96;95;96;0;95;95;95;;;;;;;;;;;;;;;;;;;;;;;455.8913132;456.9678328;456.9678328;456.9678328;456.9678328;456.9678328;456.9678328;456.9678328;456.9678328;None;0;;;C:\2023\REPSWITCH21092023\REPSWITCH_excgange\REPSWITCH_excgange\data/370103_REPSWITCH1_version1_list3_2023-12-13_09h39.12.096_micRespv1l3_recorded\recording_micRespv1l3_2023-12-13_09h46.44.990.wav;459.9890719;460.4891378;None;459.9890719;459.9890719;459.9890719;459.9890719;459.9890719;459.9890719;;;;;;370103;1;2023-12-13_09h39.12.096;REPSWITCH1_version1_list3;2022.2.4;143.924446;
REPSWITCH1/PICTURE_338.png;regalo;speak;gold;nontarget;2;NT;4;2;3;1;Stim6_Set4;1;repeat;97;96;97;0;96;96;96;;;;;;;;;;;;;;;;;;;;;;;460.4891378;461.6490148;461.6490148;461.6490148;461.6490148;461.6490148;461.6490148;461.6490148;461.6490148;None;0;;;C:\2023\REPSWITCH21092023\REPSWITCH_excgange\REPSWITCH_excgange\data/370103_REPSWITCH1_version1_list3_2023-12-13_09h39.12.096_micRespv1l3_recorded\recording_micRespv1l3_2023-12-13_09h46.49.670.wav;464.670272;465.1702953;None;464.670272;464.670272;464.670272;464.670272;464.670272;464.670272;;;;;;370103;1;2023-12-13_09h39.12.096;REPSWITCH1_version1_list3;2022.2.4;143.924446;
REPSWITCH1/PICTURE_338.png;regalo;type;darkblue;switch;1;T;4;2;3;1;Stim6_Set4;0;None;98;97;98;0;97;97;97;;;;;;;;;;;;;;;;;;;;;;;465.1702953;466.2537699;466.2537699;466.2537699;466.2537699;466.2537699;466.2537699;466.2537699;466.2537699;['r', 'e', 'g', 'a', 'l', 'o'];0;[0.8221613001078367, 0.9078683000989258, 1.1012514000758529, 1.2050140001811087, 1.318633500020951, 1.53320029983297];regalo;C:\2023\REPSWITCH21092023\REPSWITCH_excgange\REPSWITCH_excgange\data/370103_REPSWITCH1_version1_list3_2023-12-13_09h39.12.096_micRespv1l3_recorded\recording_micRespv1l3_2023-12-13_09h46.54.276.wav;469.2750181;469.7751496;None;469.2750181;469.2750181;469.2750181;469.2750181;469.2750181;469.2750181;;;;;;370103;1;2023-12-13_09h39.12.096;REPSWITCH1_version1_list3;2022.2.4;143.924446;
REPSWITCH1/PICTURE_687.png;camisa;type;darkblue;nontarget;1;NT;4;2;3;1;Stim5_Set4;0;None;99;98;99;0;98;98;98;;;;;;;;;;;;;;;;;;;;;;;469.7751496;470.8863579;470.8863579;470.8863579;470.8863579;470.8863579;470.8863579;470.8863579;470.8863579;['c', 'a', 'm', 's', 'a', 'backspace', 'backspace', 'i', 's', 'a'];0;[0.7474811002612114, 0.8581417999230325, 0.9690070003271103, 1.1744377999566495, 1.3525690999813378, 1.7352963001467288, 1.8928265003487468, 2.450286699924618, 2.6069940999150276, 2.7707036999054253];camisa;C:\2023\REPSWITCH21092023\REPSWITCH_excgange\REPSWITCH_excgange\data/370103_REPSWITCH1_version1_list3_2023-12-13_09h39.12.096_micRespv1l3_recorded\recording_micRespv1l3_2023-12-13_09h46.58.908.wav;473.9075774;474.4076174;None;473.9075774;473.9075774;473.9075774;473.9075774;473.9075774;473.9075774;;;;;;370103;1;2023-12-13_09h39.12.096;REPSWITCH1_version1_list3;2022.2.4;143.924446;
REPSWITCH1/PICTURE_687.png;camisa;type;darkblue;repeat;1;T;4;2;3;1;Stim5_Set4;0;None;100;99;100;0;99;99;99;;;;;;;;;;;;;;;;;;;;;;;474.4076174;475.5189134;475.5189134;475.5189134;475.5189134;475.5189134;475.5189134;475.5189134;475.5189134;['c', 'a', 'm', 'i', 's', 'a'];0;[1.127386000007391, 1.2130936002358794, 1.3290847004391253, 1.435692600440234, 1.6536939004436135, 1.8483259002678096];camisa;C:\2023\REPSWITCH21092023\REPSWITCH_excgange\REPSWITCH_excgange\data/370103_REPSWITCH1_version1_list3_2023-12-13_09h39.12.096_micRespv1l3_recorded\recording_micRespv1l3_2023-12-13_09h47.03.542.wav;478.5471016;;None;478.5471016;478.5471016;478.5471016;478.5471016;478.5471016;478.5471016;;;;;;370103;1;2023-12-13_09h39.12.096;REPSWITCH1_version1_list3;2022.2.4;143.924446;
REPSWITCH1/PICTURE_340.png;espejo;speak;gold;filler;2;F;4;2;3;1;Extra1;0;None;101;100;101;0;100;100;100;;;;;;;;;;;;;;;;;;;;;;;479.0471293;480.1237093;480.1237093;480.1237093;480.1237093;480.1237093;480.1237093;480.1237093;480.1237093;None;0;;;C:\2023\REPSWITCH21092023\REPSWITCH_excgange\REPSWITCH_excgange\data/370103_REPSWITCH1_version1_list3_2023-12-13_09h39.12.096_micRespv1l3_recorded\recording_micRespv1l3_2023-12-13_09h47.08.147.wav;483.1518165;483.6518965;None;483.1518165;483.1518165;483.1518165;483.1518165;483.1518165;483.1518165;;;;;;370103;1;2023-12-13_09h39.12.096;REPSWITCH1_version1_list3;2022.2.4;143.924446;
REPSWITCH1/PICTURE_610.png;miel;type;darkblue;filler;1;F;4;2;3;1;Stim2_Set3;0;None;102;101;102;0;101;101;101;;;;;;;;;;;;;;;;;;;;;;;483.6518965;484.8742893;484.8742893;484.8742893;484.8742893;484.8742893;484.8742893;484.8742893;484.8742893;['m', 'i', 'e', 'l'];0;[0.7673674002289772, 0.8232233999297023, 1.1700482000596821, 1.3800099999643862];miel;C:\2023\REPSWITCH21092023\REPSWITCH_excgange\REPSWITCH_excgange\data/370103_REPSWITCH1_version1_list3_2023-12-13_09h39.12.096_micRespv1l3_recorded\recording_micRespv1l3_2023-12-13_09h47.12.896.wav;487.8955904;488.3956627;space;487.8955904;487.8955904;487.8955904;487.8955904;487.8955904;487.8955904;488.3956627;488.3956627;0.74796;;;370103;1;2023-12-13_09h39.12.096;REPSWITCH1_version1_list3;2022.2.4;143.924446;
REPSWITCH1/PICTURE_8.png;pierna;type;darkblue;filler;1;F;1;4;3;1;Stim3_Set4;0;None;103;102;1;0;102;102;102;;;;;;;;;;;;;;;;;;;;;;;489.1526395;490.2986179;490.2986179;490.2986179;490.2986179;490.2986179;490.2986179;490.2986179;490.2986179;['p', 'i', 'e', 'r', 'n', 'a'];0;[0.9926565997302532, 1.0844217999838293, 1.1940553998574615, 1.2350310999900103, 1.3635082999244332, 1.502059199847281];pierna;C:\2023\REPSWITCH21092023\REPSWITCH_excgange\REPSWITCH_excgange\data/370103_REPSWITCH1_version1_list3_2023-12-13_09h39.12.096_micRespv1l3_recorded\recording_micRespv1l3_2023-12-13_09h47.18.320.wav;493.3198123;493.8198886;None;493.3198123;493.3198123;493.3198123;493.3198123;493.3198123;493.3198123;;;;;;370103;1;2023-12-13_09h39.12.096;REPSWITCH1_version1_list3;2022.2.4;143.924446;
REPSWITCH1/PICTURE_498.png;taza;speak;gold;filler;2;F;1;4;3;1;Stim4_Set4;0;None;104;103;2;0;103;103;103;;;;;;;;;;;;;;;;;;;;;;;493.8198886;494.9520024;494.9520024;494.9520024;494.9520024;494.9520024;494.9520024;494.9520024;494.9520024;None;0;;;C:\2023\REPSWITCH21092023\REPSWITCH_excgange\REPSWITCH_excgange\data/370103_REPSWITCH1_version1_list3_2023-12-13_09h39.12.096_micRespv1l3_recorded\recording_micRespv1l3_2023-12-13_09h47.22.975.wav;497.9801814;498.4802398;None;497.9801814;497.9801814;497.9801814;497.9801814;497.9801814;497.9801814;;;;;;370103;1;2023-12-13_09h39.12.096;REPSWITCH1_version1_list3;2022.2.4;143.924446;
REPSWITCH1/PICTURE_19.png;pavo;speak;gold;nontarget;2;NT;1;4;3;1;Stim5_Set1;1;repeat;105;104;3;0;104;104;104;;;;;;;;;;;;;;;;;;;;;;;498.4802398;499.5289796;499.5289796;499.5289796;499.5289796;499.5289796;499.5289796;499.5289796;499.5289796;None;0;;;C:\2023\REPSWITCH21092023\REPSWITCH_excgange\REPSWITCH_excgange\data/370103_REPSWITCH1_version1_list3_2023-12-13_09h39.12.096_micRespv1l3_recorded\recording_micRespv1l3_2023-12-13_09h47.27.551.wav;502.5572288;;None;502.5572288;502.5572288;502.5572288;502.5572288;502.5572288;502.5572288;;;;;;370103;1;2023-12-13_09h39.12.096;REPSWITCH1_version1_list3;2022.2.4;143.924446;
REPSWITCH1/PICTURE_19.png;pavo;speak;gold;repeat;2;T;1;4;3;1;Stim5_Set1;0;None;106;105;4;0;105;105;105;;;;;;;;;;;;;;;;;;;;;;;503.0572298;504.1545745;504.1545745;504.1545745;504.1545745;504.1545745;504.1545745;504.1545745;504.1545745;None;0;;;C:\2023\REPSWITCH21092023\REPSWITCH_excgange\REPSWITCH_excgange\data/370103_REPSWITCH1_version1_list3_2023-12-13_09h39.12.096_micRespv1l3_recorded\recording_micRespv1l3_2023-12-13_09h47.32.176.wav;507.1757944;507.6758895;None;507.1757944;507.1757944;507.1757944;507.1757944;507.1757944;507.1757944;;;;;;370103;1;2023-12-13_09h39.12.096;REPSWITCH1_version1_list3;2022.2.4;143.924446;
REPSWITCH1/PICTURE_319.png;vaca;type;darkblue;filler;1;F;1;4;3;1;Stim1_Set4;1;repeat;107;106;5;0;106;106;106;;;;;;;;;;;;;;;;;;;;;;;507.6758895;508.759389;508.759389;508.759389;508.759389;508.759389;508.759389;508.759389;508.759389;['v', 'a', 'c', 'a'];0;[0.9148495998233557, 0.993652299977839, 1.2435870999470353, 1.3024213998578489];vaca;C:\2023\REPSWITCH21092023\REPSWITCH_excgange\REPSWITCH_excgange\data/370103_REPSWITCH1_version1_list3_2023-12-13_09h39.12.096_micRespv1l3_recorded\recording_micRespv1l3_2023-12-13_09h47.36.781.wav;511.7805912;512.2806235;None;511.7805912;511.7805912;511.7805912;511.7805912;511.7805912;511.7805912;;;;;;370103;1;2023-12-13_09h39.12.096;REPSWITCH1_version1_list3;2022.2.4;143.924446;
REPSWITCH1/PICTURE_169.png;espalda;speak;gold;nontarget;2;NT;1;4;3;1;Stim8_Set1;1;switch;108;107;6;0;107;107;107;;;;;;;;;;;;;;;;;;;;;;;512.2806235;513.322455;513.322455;513.322455;513.322455;513.322455;513.322455;513.322455;513.322455;None;0;;;C:\2023\REPSWITCH21092023\REPSWITCH_excgange\REPSWITCH_excgange\data/370103_REPSWITCH1_version1_list3_2023-12-13_09h39.12.096_micRespv1l3_recorded\recording_micRespv1l3_2023-12-13_09h47.41.345.wav;516.3436559;516.8437358;None;516.3436559;516.3436559;516.3436559;516.3436559;516.3436559;516.3436559;;;;;;370103;1;2023-12-13_09h39.12.096;REPSWITCH1_version1_list3;2022.2.4;143.924446;
REPSWITCH1/PICTURE_169.png;espalda;speak;gold;repeat;2;T;1;4;3;1;Stim8_Set1;0;None;109;108;7;0;108;108;108;;;;;;;;;;;;;;;;;;;;;;;516.8437358;517.843874;517.843874;517.843874;517.843874;517.843874;517.843874;517.843874;517.843874;None;0;;;C:\2023\REPSWITCH21092023\REPSWITCH_excgange\REPSWITCH_excgange\data/370103_REPSWITCH1_version1_list3_2023-12-13_09h39.12.096_micRespv1l3_recorded\recording_micRespv1l3_2023-12-13_09h47.45.866.wav;520.8651754;521.3651821;None;520.8651754;520.8651754;520.8651754;520.8651754;520.8651754;520.8651754;;;;;;370103;1;2023-12-13_09h39.12.096;REPSWITCH1_version1_list3;2022.2.4;143.924446;
REPSWITCH1/PICTURE_728.png;pulpo;type;darkblue;filler;1;F;1;4;3;1;Stim8_Set4;0;None;110;109;8;0;109;109;109;;;;;;;;;;;;;;;;;;;;;;;521.3651821;522.4278184;522.4278184;522.4278184;522.4278184;522.4278184;522.4278184;522.4278184;522.4278184;['p', 'u', 'l', 'p', 'o'];0;[0.8210265003144741, 0.9316441002301872, 1.176188400015235, 1.4038117001764476, 1.4958639000542462];pulpo;C:\2023\REPSWITCH21092023\REPSWITCH_excgange\REPSWITCH_excgange\data/370103_REPSWITCH1_version1_list3_2023-12-13_09h39.12.096_micRespv1l3_recorded\recording_micRespv1l3_2023-12-13_09h47.50.450.wav;525.4490606;525.9491265;None;525.4490606;525.4490606;525.4490606;525.4490606;525.4490606;525.4490606;;;;;;370103;1;2023-12-13_09h39.12.096;REPSWITCH1_version1_list3;2022.2.4;143.924446;
REPSWITCH1/PICTURE_142.png;vaso;speak;gold;nontarget;2;NT;1;4;3;1;Stim7_Set1;1;switch;111;110;9;0;110;110;110;;;;;;;;;;;;;;;;;;;;;;;525.9491265;527.0326038;527.0326038;527.0326038;527.0326038;527.0326038;527.0326038;527.0326038;527.0326038;None;0;;;C:\2023\REPSWITCH21092023\REPSWITCH_excgange\REPSWITCH_excgange\data/370103_REPSWITCH1_version1_list3_2023-12-13_09h39.12.096_micRespv1l3_recorded\recording_micRespv1l3_2023-12-13_09h47.55.054.wav;530.0538025;530.5539667;None;530.0538025;530.0538025;530.0538025;530.0538025;530.0538025;530.0538025;;;;;;370103;1;2023-12-13_09h39.12.096;REPSWITCH1_version1_list3;2022.2.4;143.924446;
REPSWITCH1/PICTURE_142.png;vaso;type;darkblue;switch;1;T;1;4;3;1;Stim7_Set1;0;None;112;111;10;0;111;111;111;;;;;;;;;;;;;;;;;;;;;;;530.5539667;531.6512411;531.6512411;531.6512411;531.6512411;531.6512411;531.6512411;531.6512411;531.6512411;['v', 'a', 's', 'o'];0;[0.5743430005386472, 0.6593671003356576, 0.7953468002378941, 0.9439269001595676];vaso;C:\2023\REPSWITCH21092023\REPSWITCH_excgange\REPSWITCH_excgange\data/370103_REPSWITCH1_version1_list3_2023-12-13_09h39.12.096_micRespv1l3_recorded\recording_micRespv1l3_2023-12-13_09h47.59.673.wav;534.6725502;535.172628;None;534.6725502;534.6725502;534.6725502;534.6725502;534.6725502;534.6725502;;;;;;370103;1;2023-12-13_09h39.12.096;REPSWITCH1_version1_list3;2022.2.4;143.924446;
REPSWITCH1/PICTURE_338.png;regalo;type;darkblue;filler;1;F;1;4;3;1;Stim6_Set4;1;repeat;113;112;11;0;112;112;112;;;;;;;;;;;;;;;;;;;;;;;535.172628;536.2768856;536.2768856;536.2768856;536.2768856;536.2768856;536.2768856;536.2768856;536.2768856;['r', 'e', 'g', 'a', 'l', 'o'];0;[0.7165346001274884, 0.8032438005320728, 1.0048725004307926, 1.0766366003081203, 1.2071976005099714, 1.5967704001814127];regalo;C:\2023\REPSWITCH21092023\REPSWITCH_excgange\REPSWITCH_excgange\data/370103_REPSWITCH1_version1_list3_2023-12-13_09h39.12.096_micRespv1l3_recorded\recording_micRespv1l3_2023-12-13_09h48.04.299.wav;539.3050405;;None;539.3050405;539.3050405;539.3050405;539.3050405;539.3050405;539.3050405;;;;;;370103;1;2023-12-13_09h39.12.096;REPSWITCH1_version1_list3;2022.2.4;143.924446;
REPSWITCH1/PICTURE_135.png;traje;type;darkblue;nontarget;1;NT;1;4;3;1;Stim3_Set1;1;repeat;114;113;12;0;113;113;113;;;;;;;;;;;;;;;;;;;;;;;539.805107;540.8816779;540.8816779;540.8816779;540.8816779;540.8816779;540.8816779;540.8816779;540.8816779;['t', 'r', 'a', 'j', 'e'];0;[1.0142637002281845, 1.028245999943465, 1.3082870999351144, 1.483699900098145, 1.5803673998452723];traje;C:\2023\REPSWITCH21092023\REPSWITCH_excgange\REPSWITCH_excgange\data/370103_REPSWITCH1_version1_list3_2023-12-13_09h39.12.096_micRespv1l3_recorded\recording_micRespv1l3_2023-12-13_09h48.08.904.wav;543.9098103;;None;543.9098103;543.9098103;543.9098103;543.9098103;543.9098103;543.9098103;;;;;;370103;1;2023-12-13_09h39.12.096;REPSWITCH1_version1_list3;2022.2.4;143.924446;
REPSWITCH1/PICTURE_135.png;traje;speak;gold;switch;2;T;1;4;3;1;Stim3_Set1;0;None;115;114;13;0;114;114;114;;;;;;;;;;;;;;;;;;;;;;;544.4099255;545.6392349;545.6392349;545.6392349;545.6392349;545.6392349;545.6392349;545.6392349;545.6392349;None;0;;;C:\2023\REPSWITCH21092023\REPSWITCH_excgange\REPSWITCH_excgange\data/370103_REPSWITCH1_version1_list3_2023-12-13_09h39.12.096_micRespv1l3_recorded\recording_micRespv1l3_2023-12-13_09h48.13.662.wav;548.660467;549.1604977;None;548.660467;548.660467;548.660467;548.660467;548.660467;548.660467;;;;;;370103;1;2023-12-13_09h39.12.096;REPSWITCH1_version1_list3;2022.2.4;143.924446;
REPSWITCH1/PICTURE_381.png;fresa;speak;gold;nontarget;2;NT;1;4;3;1;Stim2_Set1;1;repeat;116;115;14;0;115;115;115;;;;;;;;;;;;;;;;;;;;;;;549.1604977;550.2440337;550.2440337;550.2440337;550.2440337;550.2440337;550.2440337;550.2440337;550.2440337;None;0;;;C:\2023\REPSWITCH21092023\REPSWITCH_excgange\REPSWITCH_excgange\data/370103_REPSWITCH1_version1_list3_2023-12-13_09h39.12.096_micRespv1l3_recorded\recording_micRespv1l3_2023-12-13_09h48.18.266.wav;553.2652806;553.7652679;None;553.2652806;553.2652806;553.2652806;553.2652806;553.2652806;553.2652806;;;;;;370103;1;2023-12-13_09h39.12.096;REPSWITCH1_version1_list3;2022.2.4;143.924446;
REPSWITCH1/PICTURE_381.png;fresa;type;darkblue;switch;1;T;1;4;3;1;Stim2_Set1;0;None;117;116;15;0;116;116;116;;;;;;;;;;;;;;;;;;;;;;;553.7652679;554.8278918;554.8278918;554.8278918;554.8278918;554.8278918;554.8278918;554.8278918;554.8278918;['f', 'r', 'e', 's', 'a'];0;[0.720201900228858, 0.9225324001163244, 1.0136341000907123, 1.2667276998981833, 1.5401985999196768];fresa;C:\2023\REPSWITCH21092023\REPSWITCH_excgange\REPSWITCH_excgange\data/370103_REPSWITCH1_version1_list3_2023-12-13_09h39.12.096_micRespv1l3_recorded\recording_micRespv1l3_2023-12-13_09h48.22.849.wav;557.8491421;558.3492032;None;557.8491421;557.8491421;557.8491421;557.8491421;557.8491421;557.8491421;;;;;;370103;1;2023-12-13_09h39.12.096;REPSWITCH1_version1_list3;2022.2.4;143.924446;
REPSWITCH1/PICTURE_48.png;bombero;type;darkblue;filler;1;F;1;4;3;1;Stim7_Set4;0;None;118;117;16;0;117;117;117;;;;;;;;;;;;;;;;;;;;;;;558.3492032;559.4882545;559.4882545;559.4882545;559.4882545;559.4882545;559.4882545;559.4882545;559.4882545;['b', 'o', 'm', 'b', 'e', 'r', 'o'];0;[0.9329204000532627, 1.036536999978125, 1.2548376000486314, 1.4562113001011312, 1.5393047002144158, 1.6256420002318919, 1.7283233003690839];bombero;C:\2023\REPSWITCH21092023\REPSWITCH_excgange\REPSWITCH_excgange\data/370103_REPSWITCH1_version1_list3_2023-12-13_09h39.12.096_micRespv1l3_recorded\recording_micRespv1l3_2023-12-13_09h48.27.510.wav;562.5164226;;None;562.5164226;562.5164226;562.5164226;562.5164226;562.5164226;562.5164226;;;;;;370103;1;2023-12-13_09h39.12.096;REPSWITCH1_version1_list3;2022.2.4;143.924446;
REPSWITCH1/PICTURE_687.png;camisa;speak;gold;filler;2;F;1;4;3;1;Stim5_Set4;0;None;119;118;17;0;118;118;118;;;;;;;;;;;;;;;;;;;;;;;563.0164804;564.1347478;564.1347478;564.1347478;564.1347478;564.1347478;564.1347478;564.1347478;564.1347478;None;0;;;C:\2023\REPSWITCH21092023\REPSWITCH_excgange\REPSWITCH_excgange\data/370103_REPSWITCH1_version1_list3_2023-12-13_09h39.12.096_micRespv1l3_recorded\recording_micRespv1l3_2023-12-13_09h48.32.156.wav;567.1558896;567.6559722;None;567.1558896;567.1558896;567.1558896;567.1558896;567.1558896;567.1558896;;;;;;370103;1;2023-12-13_09h39.12.096;REPSWITCH1_version1_list3;2022.2.4;143.924446;
REPSWITCH1/PICTURE_128.png;muñeca;type;darkblue;nontarget;1;NT;1;4;3;1;Stim4_Set1;0;None;120;119;18;0;119;119;119;;;;;;;;;;;;;;;;;;;;;;;567.6559722;568.7117382;568.7117382;568.7117382;568.7117382;568.7117382;568.7117382;568.7117382;568.7117382;['m', 'u', 'ñ', 'e', 'c', 'a'];0;[0.8481987002305686, 1.0223278999328613, 1.3043881999328732, 1.5571860000491142, 1.869459600187838, 1.9989566998556256];muñeca;C:\2023\REPSWITCH21092023\REPSWITCH_excgange\REPSWITCH_excgange\data/370103_REPSWITCH1_version1_list3_2023-12-13_09h39.12.096_micRespv1l3_recorded\recording_micRespv1l3_2023-12-13_09h48.36.734.wav;571.7328709;572.2329989;None;571.7328709;571.7328709;571.7328709;571.7328709;571.7328709;571.7328709;;;;;;370103;1;2023-12-13_09h39.12.096;REPSWITCH1_version1_list3;2022.2.4;143.924446;
REPSWITCH1/PICTURE_128.png;muñeca;type;darkblue;repeat;1;T;1;4;3;1;Stim4_Set1;0;None;121;120;19;0;120;120;120;;;;;;;;;;;;;;;;;;;;;;;572.2329989;573.3233709;573.3233709;573.3233709;573.3233709;573.3233709;573.3233709;573.3233709;573.3233709;['m', 'm', 'u', 'backspace', 'backspace', 'u', 'ñ', 'e'];0;[0.7392823002301157, 0.9496157001703978, 1.2416315004229546, 1.629091600421816, 1.7696908004581928, 2.0866315001621842, 2.204255100339651, 2.940127400215715];muñe;C:\2023\REPSWITCH21092023\REPSWITCH_excgange\REPSWITCH_excgange\data/370103_REPSWITCH1_version1_list3_2023-12-13_09h39.12.096_micRespv1l3_recorded\recording_micRespv1l3_2023-12-13_09h48.41.346.wav;576.3515609;;None;576.3515609;576.3515609;576.3515609;576.3515609;576.3515609;576.3515609;;;;;;370103;1;2023-12-13_09h39.12.096;REPSWITCH1_version1_list3;2022.2.4;143.924446;
REPSWITCH1/PICTURE_719.png;baño;speak;gold;filler;2;F;1;4;3;1;Stim2_Set4;1;switch;122;121;20;0;121;121;121;;;;;;;;;;;;;;;;;;;;;;;576.8516082;577.9768499;577.9768499;577.9768499;577.9768499;577.9768499;577.9768499;577.9768499;577.9768499;None;0;;;C:\2023\REPSWITCH21092023\REPSWITCH_excgange\REPSWITCH_excgange\data/370103_REPSWITCH1_version1_list3_2023-12-13_09h39.12.096_micRespv1l3_recorded\recording_micRespv1l3_2023-12-13_09h48.45.999.wav;580.9980073;581.4981046;None;580.9980073;580.9980073;580.9980073;580.9980073;580.9980073;580.9980073;;;;;;370103;1;2023-12-13_09h39.12.096;REPSWITCH1_version1_list3;2022.2.4;143.924446;
REPSWITCH1/PICTURE_178.png;puente;type;darkblue;nontarget;1;NT;1;4;3;1;Stim1_Set1;1;switch;123;122;21;0;122;122;122;;;;;;;;;;;;;;;;;;;;;;;581.4981046;582.560703;582.560703;582.560703;582.560703;582.560703;582.560703;582.560703;582.560703;['p', 'u', 'e', 'n', 't', 'e'];0;[0.798709399998188, 0.892804800067097, 1.0313363000750542, 1.1198057001456618, 1.2181346002034843, 1.2390256999060512];puente;C:\2023\REPSWITCH21092023\REPSWITCH_excgange\REPSWITCH_excgange\data/370103_REPSWITCH1_version1_list3_2023-12-13_09h39.12.096_micRespv1l3_recorded\recording_micRespv1l3_2023-12-13_09h48.50.582.wav;585.5820247;586.0820099;None;585.5820247;585.5820247;585.5820247;585.5820247;585.5820247;585.5820247;;;;;;370103;1;2023-12-13_09h39.12.096;REPSWITCH1_version1_list3;2022.2.4;143.924446;
REPSWITCH1/PICTURE_178.png;puente;type;darkblue;repeat;1;T;1;4;3;1;Stim1_Set1;0;None;124;123;22;0;123;123;123;;;;;;;;;;;;;;;;;;;;;;;586.0820099;587.1169311;587.1169311;587.1169311;587.1169311;587.1169311;587.1169311;587.1169311;587.1169311;['o', 'p', 'u', 'e', 'n', 't', 'e'];0;[0.7728036004118621, 0.7737649003975093, 1.2171593001112342, 1.3427032004110515, 1.4653148003853858, 1.542031000368297, 1.5889072003774345];puente;C:\2023\REPSWITCH21092023\REPSWITCH_excgange\REPSWITCH_excgange\data/370103_REPSWITCH1_version1_list3_2023-12-13_09h39.12.096_micRespv1l3_recorded\recording_micRespv1l3_2023-12-13_09h48.55.139.wav;590.1450665;;None;590.1450665;590.1450665;590.1450665;590.1450665;590.1450665;590.1450665;;;;;;370103;1;2023-12-13_09h39.12.096;REPSWITCH1_version1_list3;2022.2.4;143.924446;
REPSWITCH1/PICTURE_16.png;cazador;type;darkblue;nontarget;1;NT;1;4;3;1;Stim6_Set1;1;repeat;125;124;23;0;124;124;124;;;;;;;;;;;;;;;;;;;;;;;590.6451148;591.6591479;591.6591479;591.6591479;591.6591479;591.6591479;591.6591479;591.6591479;591.6591479;['c', 'a', 'a', 'backspace', 'z', 'a', 'd', 'o', 'r'];0;[1.0731235002167523, 1.1777731999754906, 1.446874000132084, 1.9401933001354337, 2.0338330999948084, 2.290427400264889, 2.3731717001646757, 2.4698434001766145, 2.6194527000188828];cazador;C:\2023\REPSWITCH21092023\REPSWITCH_excgange\REPSWITCH_excgange\data/370103_REPSWITCH1_version1_list3_2023-12-13_09h39.12.096_micRespv1l3_recorded\recording_micRespv1l3_2023-12-13_09h48.59.682.wav;594.6803398;595.1804251;None;594.6803398;594.6803398;594.6803398;594.6803398;594.6803398;594.6803398;;;;;;370103;1;2023-12-13_09h39.12.096;REPSWITCH1_version1_list3;2022.2.4;143.924446;
REPSWITCH1/PICTURE_16.png;cazador;speak;gold;switch;2;T;1;4;3;1;Stim6_Set1;0;None;126;125;24;0;125;125;125;;;;;;;;;;;;;;;;;;;;;;;595.1804251;596.2570161;596.2570161;596.2570161;596.2570161;596.2570161;596.2570161;596.2570161;596.2570161;None;0;;;C:\2023\REPSWITCH21092023\REPSWITCH_excgange\REPSWITCH_excgange\data/370103_REPSWITCH1_version1_list3_2023-12-13_09h39.12.096_micRespv1l3_recorded\recording_micRespv1l3_2023-12-13_09h49.04.280.wav;599.2781969;599.7782497;None;599.2781969;599.2781969;599.2781969;599.2781969;599.2781969;599.2781969;;;;;;370103;1;2023-12-13_09h39.12.096;REPSWITCH1_version1_list3;2022.2.4;143.924446;
REPSWITCH1/PICTURE_19.png;pavo;type;darkblue;filler;1;F;2;4;3;1;Stim5_Set1;0;None;127;126;25;0;126;126;126;;;;;;;;;;;;;;;;;;;;;;;599.7782497;600.9381811;600.9381811;600.9381811;600.9381811;600.9381811;600.9381811;600.9381811;600.9381811;['p', 'a', 'v', 'o'];0;[0.8051522001624107, 0.9636467001400888, 1.0191535004414618, 1.1735800001770258];pavo;C:\2023\REPSWITCH21092023\REPSWITCH_excgange\REPSWITCH_excgange\data/370103_REPSWITCH1_version1_list3_2023-12-13_09h39.12.096_micRespv1l3_recorded\recording_micRespv1l3_2023-12-13_09h49.08.961.wav;603.9593373;604.4594084;None;603.9593373;603.9593373;603.9593373;603.9593373;603.9593373;603.9593373;;;;;;370103;1;2023-12-13_09h39.12.096;REPSWITCH1_version1_list3;2022.2.4;143.924446;
REPSWITCH1/PICTURE_199.png;falda;type;darkblue;nontarget;1;NT;2;4;3;1;Stim8_Set2;1;repeat;128;127;26;0;127;127;127;;;;;;;;;;;;;;;;;;;;;;;604.4594084;605.612337;605.612337;605.612337;605.612337;605.612337;605.612337;605.612337;605.612337;['f', 'a', 'l', 'd', 'a'];0;[0.7573777004145086, 0.8770036003552377, 0.9641506001353264, 1.1810782002285123, 1.214998200070113];falda;C:\2023\REPSWITCH21092023\REPSWITCH_excgange\REPSWITCH_excgange\data/370103_REPSWITCH1_version1_list3_2023-12-13_09h39.12.096_micRespv1l3_recorded\recording_micRespv1l3_2023-12-13_09h49.13.635.wav;608.633547;609.1336312;None;608.633547;608.633547;608.633547;608.633547;608.633547;608.633547;;;;;;370103;1;2023-12-13_09h39.12.096;REPSWITCH1_version1_list3;2022.2.4;143.924446;
REPSWITCH1/PICTURE_199.png;falda;type;darkblue;repeat;1;T;2;4;3;1;Stim8_Set2;0;None;129;128;27;0;128;128;128;;;;;;;;;;;;;;;;;;;;;;;609.1336312;610.1685261;610.1685261;610.1685261;610.1685261;610.1685261;610.1685261;610.1685261;610.1685261;['f', 'a', 'l', 'd', 'a'];0;[0.6673763003200293, 0.7940472001209855, 0.9285699999891222, 1.045155200175941, 1.1627624002285302];falda;C:\2023\REPSWITCH21092023\REPSWITCH_excgange\REPSWITCH_excgange\data/370103_REPSWITCH1_version1_list3_2023-12-13_09h39.12.096_micRespv1l3_recorded\recording_micRespv1l3_2023-12-13_09h49.18.191.wav;613.1966763;;None;613.1966763;613.1966763;613.1966763;613.1966763;613.1966763;613.1966763;;;;;;370103;1;2023-12-13_09h39.12.096;REPSWITCH1_version1_list3;2022.2.4;143.924446;
REPSWITCH1/PICTURE_178.png;puente;speak;gold;filler;2;F;2;4;3;1;Stim1_Set1;1;switch;130;129;28;0;129;129;129;;;;;;;;;;;;;;;;;;;;;;;613.6967126;614.7732592;614.7732592;614.7732592;614.7732592;614.7732592;614.7732592;614.7732592;614.7732592;None;0;;;C:\2023\REPSWITCH21092023\REPSWITCH_excgange\REPSWITCH_excgange\data/370103_REPSWITCH1_version1_list3_2023-12-13_09h39.12.096_micRespv1l3_recorded\recording_micRespv1l3_2023-12-13_09h49.22.796.wav;617.794511;618.2945599;None;617.794511;617.794511;617.794511;617.794511;617.794511;617.794511;;;;;;370103;1;2023-12-13_09h39.12.096;REPSWITCH1_version1_list3;2022.2.4;143.924446;
REPSWITCH1/PICTURE_517.png;cuerda;type;darkblue;nontarget;1;NT;2;4;3;1;Stim4_Set2;1;switch;131;130;29;0;130;130;130;;;;;;;;;;;;;;;;;;;;;;;618.2945599;619.468344;619.468344;619.468344;619.468344;619.468344;619.468344;619.468344;619.468344;['c', 'u', 'e', 'r', 'd', 'a'];0;[1.205631300341338, 1.389010100159794, 1.461823500227183, 1.5106577002443373, 1.7440448002889752, 1.8689348003827035];cuerda;C:\2023\REPSWITCH21092023\REPSWITCH_excgange\REPSWITCH_excgange\data/370103_REPSWITCH1_version1_list3_2023-12-13_09h39.12.096_micRespv1l3_recorded\recording_micRespv1l3_2023-12-13_09h49.27.491.wav;622.4965863;;None;622.4965863;622.4965863;622.4965863;622.4965863;622.4965863;622.4965863;;;;;;370103;1;2023-12-13_09h39.12.096;REPSWITCH1_version1_list3;2022.2.4;143.924446;
REPSWITCH1/PICTURE_517.png;cuerda;type;darkblue;repeat;1;T;2;4;3;1;Stim4_Set2;0;None;132;131;30;0;131;131;131;;;;;;;;;;;;;;;;;;;;;;;622.9965541;624.1148412;624.1148412;624.1148412;624.1148412;624.1148412;624.1148412;624.1148412;624.1148412;['c', 'u', 'e', 'r', 'd', 'a'];0;[0.8440800001844764, 1.0405862000770867, 1.093410899862647, 1.1910668001510203, 1.4304710999131203, 1.551001800224185];cuerda;C:\2023\REPSWITCH21092023\REPSWITCH_excgange\REPSWITCH_excgange\data/370103_REPSWITCH1_version1_list3_2023-12-13_09h39.12.096_micRespv1l3_recorded\recording_micRespv1l3_2023-12-13_09h49.32.137.wav;627.1359727;627.6360726;None;627.1359727;627.1359727;627.1359727;627.1359727;627.1359727;627.1359727;;;;;;370103;1;2023-12-13_09h39.12.096;REPSWITCH1_version1_list3;2022.2.4;143.924446;
REPSWITCH1/PICTURE_169.png;espalda;type;darkblue;filler;1;F;2;4;3;1;Stim8_Set1;0;None;133;132;31;0;132;132;132;;;;;;;;;;;;;;;;;;;;;;;627.6360726;628.6779052;628.6779052;628.6779052;628.6779052;628.6779052;628.6779052;628.6779052;628.6779052;['e', 's', 'p', 'a', 'l', 'd', 'a'];0;[0.7556742001324892, 0.8314529000781476, 0.9540340001694858, 1.1107532000169158, 1.1884902003221214, 1.3190767001360655, 1.4196842000819743];espalda;C:\2023\REPSWITCH21092023\REPSWITCH_excgange\REPSWITCH_excgange\data/370103_REPSWITCH1_version1_list3_2023-12-13_09h39.12.096_micRespv1l3_recorded\recording_micRespv1l3_2023-12-13_09h49.36.701.wav;631.7060605;;None;631.7060605;631.7060605;631.7060605;631.7060605;631.7060605;631.7060605;;;;;;370103;1;2023-12-13_09h39.12.096;REPSWITCH1_version1_list3;2022.2.4;143.924446;
REPSWITCH1/PICTURE_673.png;tenedor;speak;gold;filler;2;F;2;4;3;1;Extra5;0;None;134;133;32;0;133;133;133;;;;;;;;;;;;;;;;;;;;;;;632.2061018;633.3382701;633.3382701;633.3382701;633.3382701;633.3382701;633.3382701;633.3382701;633.3382701;None;0;;;C:\2023\REPSWITCH21092023\REPSWITCH_excgange\REPSWITCH_excgange\data/370103_REPSWITCH1_version1_list3_2023-12-13_09h39.12.096_micRespv1l3_recorded\recording_micRespv1l3_2023-12-13_09h49.41.360.wav;636.3594456;636.8595067;None;636.3594456;636.3594456;636.3594456;636.3594456;636.3594456;636.3594456;;;;;;370103;1;2023-12-13_09h39.12.096;REPSWITCH1_version1_list3;2022.2.4;143.924446;
REPSWITCH1/PICTURE_142.png;vaso;type;darkblue;filler;1;F;2;4;3;1;Stim7_Set1;1;switch;135;134;33;0;134;134;134;;;;;;;;;;;;;;;;;;;;;;;636.8595067;637.908233;637.908233;637.908233;637.908233;637.908233;637.908233;637.908233;637.908233;['v', 'a', 's', 'o'];0;[0.7639458002522588, 0.8815607004798949, 1.0041475002653897, 1.0938495001755655];vaso;C:\2023\REPSWITCH21092023\REPSWITCH_excgange\REPSWITCH_excgange\data/370103_REPSWITCH1_version1_list3_2023-12-13_09h39.12.096_micRespv1l3_recorded\recording_micRespv1l3_2023-12-13_09h49.45.930.wav;640.9294896;641.4295352;None;640.9294896;640.9294896;640.9294896;640.9294896;640.9294896;640.9294896;;;;;;370103;1;2023-12-13_09h39.12.096;REPSWITCH1_version1_list3;2022.2.4;143.924446;
REPSWITCH1/PICTURE_552.png;manzana;type;darkblue;nontarget;1;NT;2;4;3;1;Stim6_Set2;1;repeat;136;135;34;0;135;135;135;;;;;;;;;;;;;;;;;;;;;;;641.4295352;642.53385;642.53385;642.53385;642.53385;642.53385;642.53385;642.53385;642.53385;['f', 'r', 'e', 's', 'a'];0;[0.9106914000585675, 1.1578569998964667, 1.239628499839455, 1.4518448999151587, 1.5382248000241816];fresa;C:\2023\REPSWITCH21092023\REPSWITCH_excgange\REPSWITCH_excgange\data/370103_REPSWITCH1_version1_list3_2023-12-13_09h39.12.096_micRespv1l3_recorded\recording_micRespv1l3_2023-12-13_09h49.50.556.wav;645.562031;;None;645.562031;645.562031;645.562031;645.562031;645.562031;645.562031;;;;;;370103;1;2023-12-13_09h39.12.096;REPSWITCH1_version1_list3;2022.2.4;143.924446;
REPSWITCH1/PICTURE_552.png;manzana;speak;gold;switch;1;T;2;4;3;1;Stim6_Set2;0;None;137;136;35;0;136;136;136;;;;;;;;;;;;;;;;;;;;;;;646.0621105;647.2220021;647.2220021;647.2220021;647.2220021;647.2220021;647.2220021;647.2220021;647.2220021;None;0;;;C:\2023\REPSWITCH21092023\REPSWITCH_excgange\REPSWITCH_excgange\data/370103_REPSWITCH1_version1_list3_2023-12-13_09h39.12.096_micRespv1l3_recorded\recording_micRespv1l3_2023-12-13_09h49.55.244.wav;650.2501538;;None;650.2501538;650.2501538;650.2501538;650.2501538;650.2501538;650.2501538;;;;;;370103;1;2023-12-13_09h39.12.096;REPSWITCH1_version1_list3;2022.2.4;143.924446;
REPSWITCH1/PICTURE_135.png;traje;speak;gold;filler;2;F;2;4;3;1;Stim3_Set1;0;None;138;137;36;0;137;137;137;;;;;;;;;;;;;;;;;;;;;;;650.7502216;651.937866;651.937866;651.937866;651.937866;651.937866;651.937866;651.937866;651.937866;None;0;;;C:\2023\REPSWITCH21092023\REPSWITCH_excgange\REPSWITCH_excgange\data/370103_REPSWITCH1_version1_list3_2023-12-13_09h39.12.096_micRespv1l3_recorded\recording_micRespv1l3_2023-12-13_09h49.59.959.wav;654.9591117;655.4591742;None;654.9591117;654.9591117;654.9591117;654.9591117;654.9591117;654.9591117;;;;;;370103;1;2023-12-13_09h39.12.096;REPSWITCH1_version1_list3;2022.2.4;143.924446;
REPSWITCH1/PICTURE_152.png;caracol;speak;gold;nontarget;2;NT;2;4;3;1;Stim2_Set2;1;repeat;139;138;37;0;138;138;138;;;;;;;;;;;;;;;;;;;;;;;655.4591742;656.4940897;656.4940897;656.4940897;656.4940897;656.4940897;656.4940897;656.4940897;656.4940897;None;0;;;C:\2023\REPSWITCH21092023\REPSWITCH_excgange\REPSWITCH_excgange\data/370103_REPSWITCH1_version1_list3_2023-12-13_09h39.12.096_micRespv1l3_recorded\recording_micRespv1l3_2023-12-13_09h50.04.516.wav;659.5222072;;None;659.5222072;659.5222072;659.5222072;659.5222072;659.5222072;659.5222072;;;;;;370103;1;2023-12-13_09h39.12.096;REPSWITCH1_version1_list3;2022.2.4;143.924446;
REPSWITCH1/PICTURE_152.png;caracol;type;darkblue;switch;1;T;2;4;3;1;Stim2_Set2;0;None;140;139;38;0;139;139;139;;;;;;;;;;;;;;;;;;;;;;;660.0222697;661.1474141;661.1474141;661.1474141;661.1474141;661.1474141;661.1474141;661.1474141;661.1474141;['c', 'a', 'r', 'a', 'c', 'o', 'l'];0;[0.6605018000118434, 0.985321800224483, 1.1288800002075732, 1.2737944000400603, 1.3664743001572788, 1.8004517001099885, 2.0436322004534304];caracol;C:\2023\REPSWITCH21092023\REPSWITCH_excgange\REPSWITCH_excgange\data/370103_REPSWITCH1_version1_list3_2023-12-13_09h39.12.096_micRespv1l3_recorded\recording_micRespv1l3_2023-12-13_09h50.09.170.wav;664.1686115;664.6686776;None;664.1686115;664.1686115;664.1686115;664.1686115;664.1686115;664.1686115;;;;;;370103;1;2023-12-13_09h39.12.096;REPSWITCH1_version1_list3;2022.2.4;143.924446;
