image;correctAns;respModal;frameColor;repSwitch;sequence;target;set;block;list;exp_version;stimulus;baseline;baseline_condition;trial_no;psychopy_trial;Column1;trialsREPSWITCH.thisRepN;trialsREPSWITCH.thisTrialN;trialsREPSWITCH.thisN;trialsREPSWITCH.thisIndex;textWelcome.started;textboxInstrMain1.started;textboxInstrMain1_2.started;textboxInstrMain1_3.started;keyInstrMain.started;keyInstrMain.keys;keyInstrMain.rt;textboxInstrMain2.started;textboxInstrMain2_2.started;textboxInstrMain2_3.started;textboxInstrMain2_4.started;textboxInstrMain2_5.started;textboxInstrMain2_6.started;textboxInstrMain2_7.started;textboxInstrMain2_8.started;textboxInstrMain2_9.started;textboxInstrMain2_10.started;textboxInstrMain2_11.started;textboxInstrMain2_12.started;keyInstrMain2.started;keyInstrMain2.keys;keyInstrMain2.rt;fixationITI.started;fixationITI.stopped;polygonColour.started;polygonWhite.started;imageObject.started;polygonType.started;textInput.started;keyResp.started;micRespv2l4.started;keyResp.keys;keyResp.corr;keyResp.rt;subjResponse;micRespv2l4.clip;textBlankLoop.started;textBlankLoop.stopped;keyPause.keys;polygonColour.stopped;polygonWhite.stopped;imageObject.stopped;polygonType.stopped;textInput.stopped;keyResp.stopped;textboxPause.started;keyPause.started;keyPause.rt;textboxGoodbye.started;textboxGoodbye.stopped;participant;session;date;expName;psychopyVersion;frameRate;Column2
;;;;;;;;;;;;;;;;;;;;;8.9503917;11.4491645;11.4491645;11.4491645;11.4491645;space;4.5690096;;;;;;;;;;;;;;;;;;;;;;;;;;;;;;;;;;;;;;;;;;;;400204;1;2023-12-13_17h42.06.165;REPSWITCH1_version2_list4;2022.2.4;144.0405393;
;;;;;;;;;;;;;;;;;;;;;;;;;;;;16.0331211;16.0331211;16.0331211;16.0331211;16.0331211;16.0331211;16.0331211;16.0331211;16.0331211;16.0331211;16.0331211;16.0331211;16.0331211;space;3.6123658;;;;;;;;;;;;;;;;;;;;;;;;;;;;;400204;1;2023-12-13_17h42.06.165;REPSWITCH1_version2_list4;2022.2.4;144.0405393;
REPSWITCH1/PICTURE_8.png;pierna;type;gold;filler;1;F;1;4;4;2;Stim3_Set4;0;None;1;0;1;0;0;0;0;;;;;;;;;;;;;;;;;;;;;;;19.7489117;20.7976619;20.7976619;20.7976619;20.7976619;20.7976619;20.7976619;20.7976619;20.7976619;['p', 'i', 'e', 'r', 'n', 'a'];0;[0.6652551000006497, 0.7599682998843491, 0.8818967998959124, 0.9509490001946688, 1.2384466999210417, 1.3680102000944316];pierna;C:\2023\REPSWITCH21092023\REPSWITCH_excgange\REPSWITCH_excgange\data/400204_REPSWITCH1_version2_list4_2023-12-13_17h42.06.165_micRespv2l4_recorded\recording_micRespv2l4_2023-12-13_17h42.22.794.wav;23.8188832;24.3189384;None;;;;;;;;;;;;400204;1;2023-12-13_17h42.06.165;REPSWITCH1_version2_list4;2022.2.4;144.0405393;
REPSWITCH1/PICTURE_498.png;taza;speak;darkblue;filler;2;F;1;4;4;2;Stim4_Set4;0;None;2;1;2;0;1;1;1;;;;;;;;;;;;;;;;;;;;;;;24.3189384;25.444094;25.444094;25.444094;25.444094;25.444094;25.444094;25.444094;25.444094;None;0;;;C:\2023\REPSWITCH21092023\REPSWITCH_excgange\REPSWITCH_excgange\data/400204_REPSWITCH1_version2_list4_2023-12-13_17h42.06.165_micRespv2l4_recorded\recording_micRespv2l4_2023-12-13_17h42.27.443.wav;28.4722715;;None;28.4722715;28.4722715;28.4722715;28.4722715;28.4722715;28.4722715;;;;;;400204;1;2023-12-13_17h42.06.165;REPSWITCH1_version2_list4;2022.2.4;144.0405393;
REPSWITCH1/PICTURE_19.png;pavo;speak;darkblue;nontarget;2;NT;1;4;4;2;Stim5_Set1;1;repeat;3;2;3;0;2;2;2;;;;;;;;;;;;;;;;;;;;;;;28.9724023;30.0557853;30.0557853;30.0557853;30.0557853;30.0557853;30.0557853;30.0557853;30.0557853;None;0;;;C:\2023\REPSWITCH21092023\REPSWITCH_excgange\REPSWITCH_excgange\data/400204_REPSWITCH1_version2_list4_2023-12-13_17h42.06.165_micRespv2l4_recorded\recording_micRespv2l4_2023-12-13_17h42.32.056.wav;33.0839629;;None;33.0839629;33.0839629;33.0839629;33.0839629;33.0839629;33.0839629;;;;;;400204;1;2023-12-13_17h42.06.165;REPSWITCH1_version2_list4;2022.2.4;144.0405393;
REPSWITCH1/PICTURE_19.png;pavo;speak;darkblue;repeat;2;T;1;4;4;2;Stim5_Set1;0;None;4;3;4;0;3;3;3;;;;;;;;;;;;;;;;;;;;;;;33.5840246;34.7230686;34.7230686;34.7230686;34.7230686;34.7230686;34.7230686;34.7230686;34.7230686;None;0;;;C:\2023\REPSWITCH21092023\REPSWITCH_excgange\REPSWITCH_excgange\data/400204_REPSWITCH1_version2_list4_2023-12-13_17h42.06.165_micRespv2l4_recorded\recording_micRespv2l4_2023-12-13_17h42.36.722.wav;37.7513276;;None;37.7513276;37.7513276;37.7513276;37.7513276;37.7513276;37.7513276;;;;;;400204;1;2023-12-13_17h42.06.165;REPSWITCH1_version2_list4;2022.2.4;144.0405393;
REPSWITCH1/PICTURE_319.png;vaca;type;gold;filler;1;F;1;4;4;2;Stim1_Set4;1;repeat;5;4;5;0;4;4;4;;;;;;;;;;;;;;;;;;;;;;;38.2513328;39.2931961;39.2931961;39.2931961;39.2931961;39.2931961;39.2931961;39.2931961;39.2931961;['v', 'a', 'c', 'a'];0;[0.8540032999590039, 0.9599091000854969, 1.1735149002633989, 1.2517126998864114];vaca;C:\2023\REPSWITCH21092023\REPSWITCH_excgange\REPSWITCH_excgange\data/400204_REPSWITCH1_version2_list4_2023-12-13_17h42.06.165_micRespv2l4_recorded\recording_micRespv2l4_2023-12-13_17h42.41.292.wav;42.3213124;;None;42.3213124;42.3213124;42.3213124;42.3213124;42.3213124;42.3213124;;;;;;400204;1;2023-12-13_17h42.06.165;REPSWITCH1_version2_list4;2022.2.4;144.0405393;
REPSWITCH1/PICTURE_169.png;espalda;speak;darkblue;nontarget;2;NT;1;4;4;2;Stim8_Set1;1;switch;6;5;6;0;5;5;5;;;;;;;;;;;;;;;;;;;;;;;42.8213695;43.8423611;43.8423611;43.8423611;43.8423611;43.8423611;43.8423611;43.8423611;43.8423611;None;0;;;C:\2023\REPSWITCH21092023\REPSWITCH_excgange\REPSWITCH_excgange\data/400204_REPSWITCH1_version2_list4_2023-12-13_17h42.06.165_micRespv2l4_recorded\recording_micRespv2l4_2023-12-13_17h42.45.841.wav;46.8636151;47.3636245;None;46.8636151;46.8636151;46.8636151;46.8636151;46.8636151;46.8636151;;;;;;400204;1;2023-12-13_17h42.06.165;REPSWITCH1_version2_list4;2022.2.4;144.0405393;
REPSWITCH1/PICTURE_169.png;espalda;speak;darkblue;repeat;2;T;1;4;4;2;Stim8_Set1;0;None;7;6;7;0;6;6;6;;;;;;;;;;;;;;;;;;;;;;;47.3636245;48.4470929;48.4470929;48.4470929;48.4470929;48.4470929;48.4470929;48.4470929;48.4470929;None;0;;;C:\2023\REPSWITCH21092023\REPSWITCH_excgange\REPSWITCH_excgange\data/400204_REPSWITCH1_version2_list4_2023-12-13_17h42.06.165_micRespv2l4_recorded\recording_micRespv2l4_2023-12-13_17h42.50.445.wav;51.4683393;51.9684731;None;51.4683393;51.4683393;51.4683393;51.4683393;51.4683393;51.4683393;;;;;;400204;1;2023-12-13_17h42.06.165;REPSWITCH1_version2_list4;2022.2.4;144.0405393;
REPSWITCH1/PICTURE_728.png;pulpo;type;gold;filler;1;F;1;4;4;2;Stim8_Set4;0;None;8;7;8;0;7;7;7;;;;;;;;;;;;;;;;;;;;;;;51.9684731;53.0241246;53.0241246;53.0241246;53.0241246;53.0241246;53.0241246;53.0241246;53.0241246;['p', 'u', 'l', 'p', 'o'];0;[0.6153780999593437, 0.724014800041914, 0.9104573000222445, 1.0618678000755608, 1.137557900045067];pulpo;C:\2023\REPSWITCH21092023\REPSWITCH_excgange\REPSWITCH_excgange\data/400204_REPSWITCH1_version2_list4_2023-12-13_17h42.06.165_micRespv2l4_recorded\recording_micRespv2l4_2023-12-13_17h42.55.022.wav;56.0522707;;None;56.0522707;56.0522707;56.0522707;56.0522707;56.0522707;56.0522707;;;;;;400204;1;2023-12-13_17h42.06.165;REPSWITCH1_version2_list4;2022.2.4;144.0405393;
REPSWITCH1/PICTURE_142.png;vaso;speak;darkblue;nontarget;2;NT;1;4;4;2;Stim7_Set1;1;switch;9;8;9;0;8;8;8;;;;;;;;;;;;;;;;;;;;;;;56.5523213;57.5872442;57.5872442;57.5872442;57.5872442;57.5872442;57.5872442;57.5872442;57.5872442;None;0;;;C:\2023\REPSWITCH21092023\REPSWITCH_excgange\REPSWITCH_excgange\data/400204_REPSWITCH1_version2_list4_2023-12-13_17h42.06.165_micRespv2l4_recorded\recording_micRespv2l4_2023-12-13_17h42.59.587.wav;60.6153919;61.1154349;None;60.6153919;60.6153919;60.6153919;60.6153919;60.6153919;60.6153919;;;;;;400204;1;2023-12-13_17h42.06.165;REPSWITCH1_version2_list4;2022.2.4;144.0405393;
REPSWITCH1/PICTURE_142.png;vaso;type;gold;switch;1;T;1;4;4;2;Stim7_Set1;0;None;10;9;10;0;9;9;9;;;;;;;;;;;;;;;;;;;;;;;61.1154349;62.1225145;62.1225145;62.1225145;62.1225145;62.1225145;62.1225145;62.1225145;62.1225145;['v', 'a', 'w', 'o', 'backspace', 'backspace', 's', 'o'];0;[0.8170277997851372, 0.9370637000538409, 1.0630042999982834, 1.12968929996714, 1.8041205001063645, 1.9826453998684883, 2.074339299928397, 2.2905884999781847];vaso;C:\2023\REPSWITCH21092023\REPSWITCH_excgange\REPSWITCH_excgange\data/400204_REPSWITCH1_version2_list4_2023-12-13_17h42.06.165_micRespv2l4_recorded\recording_micRespv2l4_2023-12-13_17h43.04.122.wav;65.1507431;;None;65.1507431;65.1507431;65.1507431;65.1507431;65.1507431;65.1507431;;;;;;400204;1;2023-12-13_17h42.06.165;REPSWITCH1_version2_list4;2022.2.4;144.0405393;
REPSWITCH1/PICTURE_338.png;regalo;type;gold;filler;1;F;1;4;4;2;Stim6_Set4;1;repeat;11;10;11;0;10;10;10;;;;;;;;;;;;;;;;;;;;;;;65.650718;66.7897732;66.7897732;66.7897732;66.7897732;66.7897732;66.7897732;66.7897732;66.7897732;['r', 'e', 'g', 'a', 'l', 'o'];0;[1.0108862998895347, 1.1006934000179172, 1.2552159000188112, 1.3166633998043835, 1.4973081997595727, 1.6750754998065531];regalo;C:\2023\REPSWITCH21092023\REPSWITCH_excgange\REPSWITCH_excgange\data/400204_REPSWITCH1_version2_list4_2023-12-13_17h42.06.165_micRespv2l4_recorded\recording_micRespv2l4_2023-12-13_17h43.08.789.wav;69.810997;70.3110617;None;69.810997;69.810997;69.810997;69.810997;69.810997;69.810997;;;;;;400204;1;2023-12-13_17h42.06.165;REPSWITCH1_version2_list4;2022.2.4;144.0405393;
REPSWITCH1/PICTURE_135.png;traje;type;gold;nontarget;1;NT;1;4;4;2;Stim3_Set1;1;repeat;12;11;12;0;11;11;11;;;;;;;;;;;;;;;;;;;;;;;70.3110617;71.3806612;71.3806612;71.3806612;71.3806612;71.3806612;71.3806612;71.3806612;71.3806612;['t', 'r', 'a', 'j', 'e'];0;[0.7648424999788404, 0.9054379998706281, 0.9921516999602318, 1.1488258996978402, 1.2405169000849128];traje;C:\2023\REPSWITCH21092023\REPSWITCH_excgange\REPSWITCH_excgange\data/400204_REPSWITCH1_version2_list4_2023-12-13_17h42.06.165_micRespv2l4_recorded\recording_micRespv2l4_2023-12-13_17h43.13.380.wav;74.4088397;;None;74.4088397;74.4088397;74.4088397;74.4088397;74.4088397;74.4088397;;;;;;400204;1;2023-12-13_17h42.06.165;REPSWITCH1_version2_list4;2022.2.4;144.0405393;
REPSWITCH1/PICTURE_135.png;traje;speak;darkblue;switch;2;T;1;4;4;2;Stim3_Set1;0;None;13;12;13;0;12;12;12;;;;;;;;;;;;;;;;;;;;;;;74.9088928;76.0340393;76.0340393;76.0340393;76.0340393;76.0340393;76.0340393;76.0340393;76.0340393;None;0;;;C:\2023\REPSWITCH21092023\REPSWITCH_excgange\REPSWITCH_excgange\data/400204_REPSWITCH1_version2_list4_2023-12-13_17h42.06.165_micRespv2l4_recorded\recording_micRespv2l4_2023-12-13_17h43.18.034.wav;79.0622224;;None;79.0622224;79.0622224;79.0622224;79.0622224;79.0622224;79.0622224;;;;;;400204;1;2023-12-13_17h42.06.165;REPSWITCH1_version2_list4;2022.2.4;144.0405393;
REPSWITCH1/PICTURE_381.png;fresa;speak;darkblue;nontarget;2;NT;1;4;4;2;Stim2_Set1;1;repeat;14;13;14;0;13;13;13;;;;;;;;;;;;;;;;;;;;;;;79.5622835;80.7568898;80.7568898;80.7568898;80.7568898;80.7568898;80.7568898;80.7568898;80.7568898;None;0;;;C:\2023\REPSWITCH21092023\REPSWITCH_excgange\REPSWITCH_excgange\data/400204_REPSWITCH1_version2_list4_2023-12-13_17h42.06.165_micRespv2l4_recorded\recording_micRespv2l4_2023-12-13_17h43.22.756.wav;83.7850465;;None;83.7850465;83.7850465;83.7850465;83.7850465;83.7850465;83.7850465;;;;;;400204;1;2023-12-13_17h42.06.165;REPSWITCH1_version2_list4;2022.2.4;144.0405393;
REPSWITCH1/PICTURE_381.png;fresa;type;gold;switch;1;T;1;4;4;2;Stim2_Set1;0;None;15;14;15;0;14;14;14;;;;;;;;;;;;;;;;;;;;;;;84.2851122;85.340815;85.340815;85.340815;85.340815;85.340815;85.340815;85.340815;85.340815;['f', 'r', 'e', 's', 'a'];0;[0.639805399812758, 0.8152030995115638, 0.9504189998842776, 1.1865626997314394, 1.3431436996906996];fresa;C:\2023\REPSWITCH21092023\REPSWITCH_excgange\REPSWITCH_excgange\data/400204_REPSWITCH1_version2_list4_2023-12-13_17h42.06.165_micRespv2l4_recorded\recording_micRespv2l4_2023-12-13_17h43.27.340.wav;88.3620376;88.8621014;None;88.3620376;88.3620376;88.3620376;88.3620376;88.3620376;88.3620376;;;;;;400204;1;2023-12-13_17h42.06.165;REPSWITCH1_version2_list4;2022.2.4;144.0405393;
REPSWITCH1/PICTURE_48.png;bombero;type;gold;filler;1;F;1;4;4;2;Stim7_Set4;0;None;16;15;16;0;15;15;15;;;;;;;;;;;;;;;;;;;;;;;88.8621014;89.9664609;89.9664609;89.9664609;89.9664609;89.9664609;89.9664609;89.9664609;89.9664609;['b', 'o', 'm', 'b', 'e', 'r', 'o'];0;[1.0626836000010371, 1.2120277001522481, 1.363481900189072, 1.4612028999254107, 1.6147015001624823, 1.679445100016892, 1.8239842001348734];bombero;C:\2023\REPSWITCH21092023\REPSWITCH_excgange\REPSWITCH_excgange\data/400204_REPSWITCH1_version2_list4_2023-12-13_17h42.06.165_micRespv2l4_recorded\recording_micRespv2l4_2023-12-13_17h43.31.966.wav;92.9876656;93.4877355;None;92.9876656;92.9876656;92.9876656;92.9876656;92.9876656;92.9876656;;;;;;400204;1;2023-12-13_17h42.06.165;REPSWITCH1_version2_list4;2022.2.4;144.0405393;
REPSWITCH1/PICTURE_687.png;camisa;speak;darkblue;filler;2;F;1;4;4;2;Stim5_Set4;0;None;17;16;17;0;16;16;16;;;;;;;;;;;;;;;;;;;;;;;93.4877355;94.5434391;94.5434391;94.5434391;94.5434391;94.5434391;94.5434391;94.5434391;94.5434391;None;0;;;C:\2023\REPSWITCH21092023\REPSWITCH_excgange\REPSWITCH_excgange\data/400204_REPSWITCH1_version2_list4_2023-12-13_17h42.06.165_micRespv2l4_recorded\recording_micRespv2l4_2023-12-13_17h43.36.542.wav;97.5646232;98.0647186;None;97.5646232;97.5646232;97.5646232;97.5646232;97.5646232;97.5646232;;;;;;400204;1;2023-12-13_17h42.06.165;REPSWITCH1_version2_list4;2022.2.4;144.0405393;
REPSWITCH1/PICTURE_128.png;muñeca;type;gold;nontarget;1;NT;1;4;4;2;Stim4_Set1;0;None;18;17;18;0;17;17;17;;;;;;;;;;;;;;;;;;;;;;;98.0647186;99.1620742;99.1620742;99.1620742;99.1620742;99.1620742;99.1620742;99.1620742;99.1620742;['m', 'u', 'ñ', 'e', 'c', 'a'];0;[1.4010711000300944, 1.5784660996869206, 1.7777964998967946, 1.8324612998403609, 2.0009173997677863, 2.0995578998699784];muñeca;C:\2023\REPSWITCH21092023\REPSWITCH_excgange\REPSWITCH_excgange\data/400204_REPSWITCH1_version2_list4_2023-12-13_17h42.06.165_micRespv2l4_recorded\recording_micRespv2l4_2023-12-13_17h43.41.161.wav;102.1833059;102.6834556;None;102.1833059;102.1833059;102.1833059;102.1833059;102.1833059;102.1833059;;;;;;400204;1;2023-12-13_17h42.06.165;REPSWITCH1_version2_list4;2022.2.4;144.0405393;
REPSWITCH1/PICTURE_128.png;muñeca;type;gold;repeat;1;T;1;4;4;2;Stim4_Set1;0;None;19;18;19;0;18;18;18;;;;;;;;;;;;;;;;;;;;;;;102.6834556;103.7738581;103.7738581;103.7738581;103.7738581;103.7738581;103.7738581;103.7738581;103.7738581;['m', 'u', 'ñ', 'e', 'c', 'a'];0;[0.7065941002219915, 0.863507800269872, 1.0094016999937594, 1.1010305001400411, 1.2554717999882996, 1.3571792002767324];muñeca;C:\2023\REPSWITCH21092023\REPSWITCH_excgange\REPSWITCH_excgange\data/400204_REPSWITCH1_version2_list4_2023-12-13_17h42.06.165_micRespv2l4_recorded\recording_micRespv2l4_2023-12-13_17h43.45.773.wav;106.7949983;107.2950948;None;106.7949983;106.7949983;106.7949983;106.7949983;106.7949983;106.7949983;;;;;;400204;1;2023-12-13_17h42.06.165;REPSWITCH1_version2_list4;2022.2.4;144.0405393;
REPSWITCH1/PICTURE_719.png;baño;speak;darkblue;filler;2;F;1;4;4;2;Stim2_Set4;1;switch;20;19;20;0;19;19;19;;;;;;;;;;;;;;;;;;;;;;;107.2950948;108.3577869;108.3577869;108.3577869;108.3577869;108.3577869;108.3577869;108.3577869;108.3577869;None;0;;;C:\2023\REPSWITCH21092023\REPSWITCH_excgange\REPSWITCH_excgange\data/400204_REPSWITCH1_version2_list4_2023-12-13_17h42.06.165_micRespv2l4_recorded\recording_micRespv2l4_2023-12-13_17h43.50.357.wav;111.3789264;111.8790788;None;111.3789264;111.3789264;111.3789264;111.3789264;111.3789264;111.3789264;;;;;;400204;1;2023-12-13_17h42.06.165;REPSWITCH1_version2_list4;2022.2.4;144.0405393;
REPSWITCH1/PICTURE_178.png;puente;type;gold;nontarget;1;NT;1;4;4;2;Stim1_Set1;1;switch;21;20;21;0;20;20;20;;;;;;;;;;;;;;;;;;;;;;;111.8790788;112.9903118;112.9903118;112.9903118;112.9903118;112.9903118;112.9903118;112.9903118;112.9903118;['p', 'u', 'e', 'n', 't', 'e'];0;[0.7886564997024834, 0.905218799598515, 1.0478298999369144, 1.3268159995786846, 1.4415176999755204, 1.5529467999003828];puente;C:\2023\REPSWITCH21092023\REPSWITCH_excgange\REPSWITCH_excgange\data/400204_REPSWITCH1_version2_list4_2023-12-13_17h42.06.165_micRespv2l4_recorded\recording_micRespv2l4_2023-12-13_17h43.54.988.wav;116.011517;116.5115828;None;116.011517;116.011517;116.011517;116.011517;116.011517;116.011517;;;;;;400204;1;2023-12-13_17h42.06.165;REPSWITCH1_version2_list4;2022.2.4;144.0405393;
REPSWITCH1/PICTURE_178.png;puente;type;gold;repeat;1;T;1;4;4;2;Stim1_Set1;0;None;22;21;22;0;21;21;21;;;;;;;;;;;;;;;;;;;;;;;116.5115828;117.5742013;117.5742013;117.5742013;117.5742013;117.5742013;117.5742013;117.5742013;117.5742013;['p', 'u', 'e', 'n', 't', 'e'];0;[0.588644300121814, 0.6823403998278081, 0.7730413000099361, 0.9778460999950767, 1.07666390016675, 1.1692373999394476];puente;C:\2023\REPSWITCH21092023\REPSWITCH_excgange\REPSWITCH_excgange\data/400204_REPSWITCH1_version2_list4_2023-12-13_17h42.06.165_micRespv2l4_recorded\recording_micRespv2l4_2023-12-13_17h43.59.574.wav;120.6024014;;None;120.6024014;120.6024014;120.6024014;120.6024014;120.6024014;120.6024014;;;;;;400204;1;2023-12-13_17h42.06.165;REPSWITCH1_version2_list4;2022.2.4;144.0405393;
REPSWITCH1/PICTURE_16.png;cazador;type;gold;nontarget;1;NT;1;4;4;2;Stim6_Set1;1;repeat;23;22;23;0;22;22;22;;;;;;;;;;;;;;;;;;;;;;;121.1025323;122.1650861;122.1650861;122.1650861;122.1650861;122.1650861;122.1650861;122.1650861;122.1650861;['c', 'a', 'z', 'a', 'd', 'o', 'r'];0;[0.7138926996849477, 0.8855597996152937, 1.1187819000333548, 1.2792953997850418, 1.4118557996116579, 1.495531799737364, 1.5802955999970436];cazador;C:\2023\REPSWITCH21092023\REPSWITCH_excgange\REPSWITCH_excgange\data/400204_REPSWITCH1_version2_list4_2023-12-13_17h42.06.165_micRespv2l4_recorded\recording_micRespv2l4_2023-12-13_17h44.04.164.wav;125.1863162;125.6863949;None;125.1863162;125.1863162;125.1863162;125.1863162;125.1863162;125.1863162;;;;;;400204;1;2023-12-13_17h42.06.165;REPSWITCH1_version2_list4;2022.2.4;144.0405393;
REPSWITCH1/PICTURE_16.png;cazador;speak;darkblue;switch;2;T;1;4;4;2;Stim6_Set1;0;None;24;23;24;0;23;23;23;;;;;;;;;;;;;;;;;;;;;;;125.6863949;126.7212331;126.7212331;126.7212331;126.7212331;126.7212331;126.7212331;126.7212331;126.7212331;None;0;;;C:\2023\REPSWITCH21092023\REPSWITCH_excgange\REPSWITCH_excgange\data/400204_REPSWITCH1_version2_list4_2023-12-13_17h42.06.165_micRespv2l4_recorded\recording_micRespv2l4_2023-12-13_17h44.08.720.wav;129.7424757;130.2425626;None;129.7424757;129.7424757;129.7424757;129.7424757;129.7424757;129.7424757;;;;;;400204;1;2023-12-13_17h42.06.165;REPSWITCH1_version2_list4;2022.2.4;144.0405393;
REPSWITCH1/PICTURE_19.png;pavo;type;gold;filler;1;F;2;4;4;2;Stim5_Set1;0;None;25;24;25;0;24;24;24;;;;;;;;;;;;;;;;;;;;;;;130.2425626;131.3260841;131.3260841;131.3260841;131.3260841;131.3260841;131.3260841;131.3260841;131.3260841;['p', 'a', 'v', 'o'];0;[0.5906641995534301, 0.6764078997075558, 0.8378627998754382, 0.9315159996040165];pavo;C:\2023\REPSWITCH21092023\REPSWITCH_excgange\REPSWITCH_excgange\data/400204_REPSWITCH1_version2_list4_2023-12-13_17h42.06.165_micRespv2l4_recorded\recording_micRespv2l4_2023-12-13_17h44.13.325.wav;134.3541952;;None;134.3541952;134.3541952;134.3541952;134.3541952;134.3541952;134.3541952;;;;;;400204;1;2023-12-13_17h42.06.165;REPSWITCH1_version2_list4;2022.2.4;144.0405393;
REPSWITCH1/PICTURE_199.png;falda;type;gold;nontarget;1;NT;2;4;4;2;Stim8_Set2;1;repeat;26;25;26;0;25;25;25;;;;;;;;;;;;;;;;;;;;;;;134.8542617;135.9099908;135.9099908;135.9099908;135.9099908;135.9099908;135.9099908;135.9099908;135.9099908;['f', 'a', 'l', 'd', 'a'];0;[0.8362765000201762, 0.962898500263691, 1.0844895001500845, 1.2259833002462983, 1.327995200175792];falda;C:\2023\REPSWITCH21092023\REPSWITCH_excgange\REPSWITCH_excgange\data/400204_REPSWITCH1_version2_list4_2023-12-13_17h42.06.165_micRespv2l4_recorded\recording_micRespv2l4_2023-12-13_17h44.17.909.wav;138.9381669;;None;138.9381669;138.9381669;138.9381669;138.9381669;138.9381669;138.9381669;;;;;;400204;1;2023-12-13_17h42.06.165;REPSWITCH1_version2_list4;2022.2.4;144.0405393;
REPSWITCH1/PICTURE_199.png;falda;type;gold;repeat;1;T;2;4;4;2;Stim8_Set2;0;None;27;26;27;0;26;26;26;;;;;;;;;;;;;;;;;;;;;;;139.4381945;140.5216839;140.5216839;140.5216839;140.5216839;140.5216839;140.5216839;140.5216839;140.5216839;['f', 'a', 'l', 'd', 'a'];0;[0.5519723994657397, 0.6367417997680604, 0.7733617997728288, 0.9138905997388065, 1.024194499477744];falda;C:\2023\REPSWITCH21092023\REPSWITCH_excgange\REPSWITCH_excgange\data/400204_REPSWITCH1_version2_list4_2023-12-13_17h42.06.165_micRespv2l4_recorded\recording_micRespv2l4_2023-12-13_17h44.22.521.wav;143.5498538;;None;143.5498538;143.5498538;143.5498538;143.5498538;143.5498538;143.5498538;;;;;;400204;1;2023-12-13_17h42.06.165;REPSWITCH1_version2_list4;2022.2.4;144.0405393;
REPSWITCH1/PICTURE_178.png;puente;speak;darkblue;filler;2;F;2;4;4;2;Stim1_Set1;1;switch;28;27;28;0;27;27;27;;;;;;;;;;;;;;;;;;;;;;;144.0498824;145.1681324;145.1681324;145.1681324;145.1681324;145.1681324;145.1681324;145.1681324;145.1681324;None;0;;;C:\2023\REPSWITCH21092023\REPSWITCH_excgange\REPSWITCH_excgange\data/400204_REPSWITCH1_version2_list4_2023-12-13_17h42.06.165_micRespv2l4_recorded\recording_micRespv2l4_2023-12-13_17h44.27.168.wav;148.1893515;148.6894061;None;148.1893515;148.1893515;148.1893515;148.1893515;148.1893515;148.1893515;;;;;;400204;1;2023-12-13_17h42.06.165;REPSWITCH1_version2_list4;2022.2.4;144.0405393;
REPSWITCH1/PICTURE_517.png;cuerda;type;gold;nontarget;1;NT;2;4;4;2;Stim4_Set2;1;switch;29;28;29;0;28;28;28;;;;;;;;;;;;;;;;;;;;;;;148.6894061;149.842345;149.842345;149.842345;149.842345;149.842345;149.842345;149.842345;149.842345;['c', 'u', 'e', 'r', 'd', 'a'];0;[0.7166377999819815, 0.7993728998117149, 0.9000014001503587, 0.9818061999976635, 1.1677258997224271, 1.2823453000746667];cuerda;C:\2023\REPSWITCH21092023\REPSWITCH_excgange\REPSWITCH_excgange\data/400204_REPSWITCH1_version2_list4_2023-12-13_17h42.06.165_micRespv2l4_recorded\recording_micRespv2l4_2023-12-13_17h44.31.842.wav;152.8704803;153.3705849;None;152.8704803;152.8704803;152.8704803;152.8704803;152.8704803;152.8704803;;;;;;400204;1;2023-12-13_17h42.06.165;REPSWITCH1_version2_list4;2022.2.4;144.0405393;
REPSWITCH1/PICTURE_517.png;cuerda;type;gold;repeat;1;T;2;4;4;2;Stim4_Set2;0;None;30;29;30;0;29;29;29;;;;;;;;;;;;;;;;;;;;;;;153.3705849;154.3916014;154.3916014;154.3916014;154.3916014;154.3916014;154.3916014;154.3916014;154.3916014;['c', 'u', 'e', 'r', 'd', 'a'];0;[0.6637933999300003, 0.7863431996665895, 0.8671123995445669, 0.9219222995452583, 1.1600882997736335, 1.2644734997302294];cuerda;C:\2023\REPSWITCH21092023\REPSWITCH_excgange\REPSWITCH_excgange\data/400204_REPSWITCH1_version2_list4_2023-12-13_17h42.06.165_micRespv2l4_recorded\recording_micRespv2l4_2023-12-13_17h44.36.391.wav;157.4127393;157.9128474;None;157.4127393;157.4127393;157.4127393;157.4127393;157.4127393;157.4127393;;;;;;400204;1;2023-12-13_17h42.06.165;REPSWITCH1_version2_list4;2022.2.4;144.0405393;
REPSWITCH1/PICTURE_169.png;espalda;type;gold;filler;1;F;2;4;4;2;Stim8_Set1;0;None;31;30;31;0;30;30;30;;;;;;;;;;;;;;;;;;;;;;;157.9128474;159.0866103;159.0866103;159.0866103;159.0866103;159.0866103;159.0866103;159.0866103;159.0866103;['e', 's', 'p', 'a', 'l', 'd', 'a'];0;[0.6519384998828173, 0.7614698996767402, 0.8780778995715082, 1.0154665997251868, 1.1350531997159123, 1.2584082996472716, 1.3809352996759117];espalda;C:\2023\REPSWITCH21092023\REPSWITCH_excgange\REPSWITCH_excgange\data/400204_REPSWITCH1_version2_list4_2023-12-13_17h42.06.165_micRespv2l4_recorded\recording_micRespv2l4_2023-12-13_17h44.41.086.wav;162.1078359;162.6078845;None;162.1078359;162.1078359;162.1078359;162.1078359;162.1078359;162.1078359;;;;;;400204;1;2023-12-13_17h42.06.165;REPSWITCH1_version2_list4;2022.2.4;144.0405393;
REPSWITCH1/PICTURE_673.png;tenedor;speak;darkblue;filler;2;F;2;4;4;2;Extra5;0;None;32;31;32;0;31;31;31;;;;;;;;;;;;;;;;;;;;;;;162.6078845;163.7470039;163.7470039;163.7470039;163.7470039;163.7470039;163.7470039;163.7470039;163.7470039;None;0;;;C:\2023\REPSWITCH21092023\REPSWITCH_excgange\REPSWITCH_excgange\data/400204_REPSWITCH1_version2_list4_2023-12-13_17h42.06.165_micRespv2l4_recorded\recording_micRespv2l4_2023-12-13_17h44.45.746.wav;166.7681328;167.2681981;None;166.7681328;166.7681328;166.7681328;166.7681328;166.7681328;166.7681328;;;;;;400204;1;2023-12-13_17h42.06.165;REPSWITCH1_version2_list4;2022.2.4;144.0405393;
REPSWITCH1/PICTURE_142.png;vaso;type;gold;filler;1;F;2;4;4;2;Stim7_Set1;1;switch;33;32;33;0;32;32;32;;;;;;;;;;;;;;;;;;;;;;;167.2681981;168.4281091;168.4281091;168.4281091;168.4281091;168.4281091;168.4281091;168.4281091;168.4281091;['v', 'a', 's', 'o'];0;[0.5660919002257288, 0.6607655002735555, 0.7413868000730872, 0.8460253998637199];vaso;C:\2023\REPSWITCH21092023\REPSWITCH_excgange\REPSWITCH_excgange\data/400204_REPSWITCH1_version2_list4_2023-12-13_17h42.06.165_micRespv2l4_recorded\recording_micRespv2l4_2023-12-13_17h44.50.427.wav;171.4493048;171.9494763;None;171.4493048;171.4493048;171.4493048;171.4493048;171.4493048;171.4493048;;;;;;400204;1;2023-12-13_17h42.06.165;REPSWITCH1_version2_list4;2022.2.4;144.0405393;
REPSWITCH1/PICTURE_552.png;manzana;type;gold;nontarget;1;NT;2;4;4;2;Stim6_Set2;1;repeat;34;33;34;0;33;33;33;;;;;;;;;;;;;;;;;;;;;;;171.9494763;173.1023929;173.1023929;173.1023929;173.1023929;173.1023929;173.1023929;173.1023929;173.1023929;['m', 'a', 'n', 'z', 'a', 'n', 'a'];0;[0.7941212998703122, 0.8588967998512089, 1.000495399814099, 1.0692719998769462, 1.2188588995486498, 1.3388441996648908, 1.7706438996829093];manzana;C:\2023\REPSWITCH21092023\REPSWITCH_excgange\REPSWITCH_excgange\data/400204_REPSWITCH1_version2_list4_2023-12-13_17h42.06.165_micRespv2l4_recorded\recording_micRespv2l4_2023-12-13_17h44.55.103.wav;176.1305766;;None;176.1305766;176.1305766;176.1305766;176.1305766;176.1305766;176.1305766;;;;;;400204;1;2023-12-13_17h42.06.165;REPSWITCH1_version2_list4;2022.2.4;144.0405393;
REPSWITCH1/PICTURE_552.png;manzana;speak;darkblue;switch;1;T;2;4;4;2;Stim6_Set2;0;None;35;34;35;0;34;34;34;;;;;;;;;;;;;;;;;;;;;;;176.630572;177.7140267;177.7140267;177.7140267;177.7140267;177.7140267;177.7140267;177.7140267;177.7140267;None;0;;;C:\2023\REPSWITCH21092023\REPSWITCH_excgange\REPSWITCH_excgange\data/400204_REPSWITCH1_version2_list4_2023-12-13_17h42.06.165_micRespv2l4_recorded\recording_micRespv2l4_2023-12-13_17h44.59.713.wav;180.7352495;181.2353441;None;180.7352495;180.7352495;180.7352495;180.7352495;180.7352495;180.7352495;;;;;;400204;1;2023-12-13_17h42.06.165;REPSWITCH1_version2_list4;2022.2.4;144.0405393;
REPSWITCH1/PICTURE_135.png;traje;speak;darkblue;filler;2;F;2;4;4;2;Stim3_Set1;0;None;36;35;36;0;35;35;35;;;;;;;;;;;;;;;;;;;;;;;181.2353441;182.4785873;182.4785873;182.4785873;182.4785873;182.4785873;182.4785873;182.4785873;182.4785873;None;0;;;C:\2023\REPSWITCH21092023\REPSWITCH_excgange\REPSWITCH_excgange\data/400204_REPSWITCH1_version2_list4_2023-12-13_17h42.06.165_micRespv2l4_recorded\recording_micRespv2l4_2023-12-13_17h45.04.477.wav;185.4997951;185.9999278;None;185.4997951;185.4997951;185.4997951;185.4997951;185.4997951;185.4997951;;;;;;400204;1;2023-12-13_17h42.06.165;REPSWITCH1_version2_list4;2022.2.4;144.0405393;
REPSWITCH1/PICTURE_152.png;caracol;speak;darkblue;nontarget;2;NT;2;4;4;2;Stim2_Set2;1;repeat;37;36;37;0;36;36;36;;;;;;;;;;;;;;;;;;;;;;;185.9999278;187.1667352;187.1667352;187.1667352;187.1667352;187.1667352;187.1667352;187.1667352;187.1667352;None;0;;;C:\2023\REPSWITCH21092023\REPSWITCH_excgange\REPSWITCH_excgange\data/400204_REPSWITCH1_version2_list4_2023-12-13_17h42.06.165_micRespv2l4_recorded\recording_micRespv2l4_2023-12-13_17h45.09.165.wav;190.1879546;190.6879337;None;190.1879546;190.1879546;190.1879546;190.1879546;190.1879546;190.1879546;;;;;;400204;1;2023-12-13_17h42.06.165;REPSWITCH1_version2_list4;2022.2.4;144.0405393;
REPSWITCH1/PICTURE_152.png;caracol;type;gold;switch;1;T;2;4;4;2;Stim2_Set2;0;None;38;37;38;0;37;37;37;;;;;;;;;;;;;;;;;;;;;;;190.6879337;191.7853983;191.7853983;191.7853983;191.7853983;191.7853983;191.7853983;191.7853983;191.7853983;['c', 'a', 'r', 'a', 'c', 'o', 'l'];0;[0.6280696000903845, 0.7576272999867797, 0.8852057997137308, 1.0117633999325335, 1.245980499777943, 1.5260950000956655, 1.7059400998987257];caracol;C:\2023\REPSWITCH21092023\REPSWITCH_excgange\REPSWITCH_excgange\data/400204_REPSWITCH1_version2_list4_2023-12-13_17h42.06.165_micRespv2l4_recorded\recording_micRespv2l4_2023-12-13_17h45.13.784.wav;194.8135223;;None;194.8135223;194.8135223;194.8135223;194.8135223;194.8135223;194.8135223;;;;;;400204;1;2023-12-13_17h42.06.165;REPSWITCH1_version2_list4;2022.2.4;144.0405393;
REPSWITCH1/PICTURE_381.png;fresa;type;gold;filler;1;F;2;4;4;2;Stim2_Set1;0;None;39;38;39;0;38;38;38;;;;;;;;;;;;;;;;;;;;;;;195.313576;196.4664848;196.4664848;196.4664848;196.4664848;196.4664848;196.4664848;196.4664848;196.4664848;['f', 'r', 'e', 's', 'a'];0;[0.5232131998054683, 0.7275120997801423, 0.8271812996827066, 0.9746948997490108, 1.1082413997501135];fresa;C:\2023\REPSWITCH21092023\REPSWITCH_excgange\REPSWITCH_excgange\data/400204_REPSWITCH1_version2_list4_2023-12-13_17h42.06.165_micRespv2l4_recorded\recording_micRespv2l4_2023-12-13_17h45.18.465.wav;199.4877142;199.9878096;None;199.4877142;199.4877142;199.4877142;199.4877142;199.4877142;199.4877142;;;;;;400204;1;2023-12-13_17h42.06.165;REPSWITCH1_version2_list4;2022.2.4;144.0405393;
REPSWITCH1/PICTURE_446.png;cerdo;type;gold;nontarget;1;NT;2;4;4;2;Stim7_Set2;1;repeat;40;39;40;0;39;39;39;;;;;;;;;;;;;;;;;;;;;;;199.9878096;201.0435695;201.0435695;201.0435695;201.0435695;201.0435695;201.0435695;201.0435695;201.0435695;['c', 'e', 'r', 'd', 'o'];0;[0.8251434001140296, 0.945095700211823, 1.0411911001428962, 1.199955299962312, 1.3275299002416432];cerdo;C:\2023\REPSWITCH21092023\REPSWITCH_excgange\REPSWITCH_excgange\data/400204_REPSWITCH1_version2_list4_2023-12-13_17h42.06.165_micRespv2l4_recorded\recording_micRespv2l4_2023-12-13_17h45.23.043.wav;204.0647047;204.5647937;None;204.0647047;204.0647047;204.0647047;204.0647047;204.0647047;204.0647047;;;;;;400204;1;2023-12-13_17h42.06.165;REPSWITCH1_version2_list4;2022.2.4;144.0405393;
REPSWITCH1/PICTURE_446.png;cerdo;speak;darkblue;switch;2;T;2;4;4;2;Stim7_Set2;0;None;41;40;41;0;40;40;40;;;;;;;;;;;;;;;;;;;;;;;204.5647937;205.5926797;205.5926797;205.5926797;205.5926797;205.5926797;205.5926797;205.5926797;205.5926797;None;0;;;C:\2023\REPSWITCH21092023\REPSWITCH_excgange\REPSWITCH_excgange\data/400204_REPSWITCH1_version2_list4_2023-12-13_17h42.06.165_micRespv2l4_recorded\recording_micRespv2l4_2023-12-13_17h45.27.591.wav;208.6139294;209.1139759;None;208.6139294;208.6139294;208.6139294;208.6139294;208.6139294;208.6139294;;;;;;400204;1;2023-12-13_17h42.06.165;REPSWITCH1_version2_list4;2022.2.4;144.0405393;
REPSWITCH1/PICTURE_264.png;mano;speak;darkblue;nontarget;2;NT;2;4;4;2;Stim3_Set2;0;None;42;41;42;0;41;41;41;;;;;;;;;;;;;;;;;;;;;;;209.1139759;210.3503299;210.3503299;210.3503299;210.3503299;210.3503299;210.3503299;210.3503299;210.3503299;None;0;;;C:\2023\REPSWITCH21092023\REPSWITCH_excgange\REPSWITCH_excgange\data/400204_REPSWITCH1_version2_list4_2023-12-13_17h42.06.165_micRespv2l4_recorded\recording_micRespv2l4_2023-12-13_17h45.32.349.wav;213.3715834;213.8715632;None;213.3715834;213.3715834;213.3715834;213.3715834;213.3715834;213.3715834;;;;;;400204;1;2023-12-13_17h42.06.165;REPSWITCH1_version2_list4;2022.2.4;144.0405393;
REPSWITCH1/PICTURE_264.png;mano;speak;darkblue;repeat;2;T;2;4;4;2;Stim3_Set2;0;None;43;42;43;0;42;42;42;;;;;;;;;;;;;;;;;;;;;;;213.8715632;215.0592302;215.0592302;215.0592302;215.0592302;215.0592302;215.0592302;215.0592302;215.0592302;None;0;;;C:\2023\REPSWITCH21092023\REPSWITCH_excgange\REPSWITCH_excgange\data/400204_REPSWITCH1_version2_list4_2023-12-13_17h42.06.165_micRespv2l4_recorded\recording_micRespv2l4_2023-12-13_17h45.37.059.wav;218.0804638;218.5805194;None;218.0804638;218.0804638;218.0804638;218.0804638;218.0804638;218.0804638;;;;;;400204;1;2023-12-13_17h42.06.165;REPSWITCH1_version2_list4;2022.2.4;144.0405393;
REPSWITCH1/PICTURE_128.png;muñeca;type;gold;filler;1;F;2;4;4;2;Stim4_Set1;0;None;44;43;44;0;43;43;43;;;;;;;;;;;;;;;;;;;;;;;218.5805194;219.7125985;219.7125985;219.7125985;219.7125985;219.7125985;219.7125985;219.7125985;219.7125985;['m', 'u', 'ñ', 'e', 'c', 'a'];0;[0.6440379000268877, 0.791523199994117, 0.9076319998130202, 1.0062380000017583, 1.166771899908781, 1.2514836001209915];muñeca;C:\2023\REPSWITCH21092023\REPSWITCH_excgange\REPSWITCH_excgange\data/400204_REPSWITCH1_version2_list4_2023-12-13_17h42.06.165_micRespv2l4_recorded\recording_micRespv2l4_2023-12-13_17h45.41.712.wav;222.7408102;;None;222.7408102;222.7408102;222.7408102;222.7408102;222.7408102;222.7408102;;;;;;400204;1;2023-12-13_17h42.06.165;REPSWITCH1_version2_list4;2022.2.4;144.0405393;
REPSWITCH1/PICTURE_30.png;granja;speak;darkblue;nontarget;2;NT;2;4;4;2;Stim5_Set2;1;switch;45;44;45;0;44;44;44;;;;;;;;;;;;;;;;;;;;;;;223.2408442;224.3798882;224.3798882;224.3798882;224.3798882;224.3798882;224.3798882;224.3798882;224.3798882;None;0;;;C:\2023\REPSWITCH21092023\REPSWITCH_excgange\REPSWITCH_excgange\data/400204_REPSWITCH1_version2_list4_2023-12-13_17h42.06.165_micRespv2l4_recorded\recording_micRespv2l4_2023-12-13_17h45.46.380.wav;227.4080988;227.908121;None;227.4080988;227.4080988;227.4080988;227.4080988;227.4080988;227.4080988;;;;;;400204;1;2023-12-13_17h42.06.165;REPSWITCH1_version2_list4;2022.2.4;144.0405393;
REPSWITCH1/PICTURE_30.png;granja;speak;darkblue;repeat;2;T;2;4;4;2;Stim5_Set2;0;None;46;45;46;0;45;45;45;;;;;;;;;;;;;;;;;;;;;;;227.908121;229.0819028;229.0819028;229.0819028;229.0819028;229.0819028;229.0819028;229.0819028;229.0819028;None;0;;;C:\2023\REPSWITCH21092023\REPSWITCH_excgange\REPSWITCH_excgange\data/400204_REPSWITCH1_version2_list4_2023-12-13_17h42.06.165_micRespv2l4_recorded\recording_micRespv2l4_2023-12-13_17h45.51.081.wav;232.1101073;;None;232.1101073;232.1101073;232.1101073;232.1101073;232.1101073;232.1101073;;;;;;400204;1;2023-12-13_17h42.06.165;REPSWITCH1_version2_list4;2022.2.4;144.0405393;
REPSWITCH1/PICTURE_646.png;tronco;type;gold;filler;1;F;2;4;4;2;Extra4;0;None;47;46;47;0;46;46;46;;;;;;;;;;;;;;;;;;;;;;;232.6101214;233.7491808;233.7491808;233.7491808;233.7491808;233.7491808;233.7491808;233.7491808;233.7491808;['t', 'r', 'o', 'n', 'c', 'o'];0;[0.6360670998692513, 0.8014935995452106, 1.182658499572426, 1.3472201996482909, 1.4867177996784449, 1.600370700005442];tronco;C:\2023\REPSWITCH21092023\REPSWITCH_excgange\REPSWITCH_excgange\data/400204_REPSWITCH1_version2_list4_2023-12-13_17h42.06.165_micRespv2l4_recorded\recording_micRespv2l4_2023-12-13_17h45.55.748.wav;236.7704666;237.270475;None;236.7704666;236.7704666;236.7704666;236.7704666;236.7704666;236.7704666;;;;;;400204;1;2023-12-13_17h42.06.165;REPSWITCH1_version2_list4;2022.2.4;144.0405393;
REPSWITCH1/PICTURE_16.png;cazador;speak;darkblue;filler;2;F;2;4;4;2;Stim6_Set1;0;None;48;47;48;0;47;47;47;;;;;;;;;;;;;;;;;;;;;;;237.270475;238.4511833;238.4511833;238.4511833;238.4511833;238.4511833;238.4511833;238.4511833;238.4511833;None;0;;;C:\2023\REPSWITCH21092023\REPSWITCH_excgange\REPSWITCH_excgange\data/400204_REPSWITCH1_version2_list4_2023-12-13_17h42.06.165_micRespv2l4_recorded\recording_micRespv2l4_2023-12-13_17h46.00.450.wav;241.4793909;;None;241.4793909;241.4793909;241.4793909;241.4793909;241.4793909;241.4793909;;;;;;400204;1;2023-12-13_17h42.06.165;REPSWITCH1_version2_list4;2022.2.4;144.0405393;
REPSWITCH1/PICTURE_175.png;pintor;speak;darkblue;nontarget;2;NT;2;4;4;2;Stim1_Set2;1;repeat;49;48;49;0;48;48;48;;;;;;;;;;;;;;;;;;;;;;;241.9794195;242.9934533;242.9934533;242.9934533;242.9934533;242.9934533;242.9934533;242.9934533;242.9934533;None;0;;;C:\2023\REPSWITCH21092023\REPSWITCH_excgange\REPSWITCH_excgange\data/400204_REPSWITCH1_version2_list4_2023-12-13_17h42.06.165_micRespv2l4_recorded\recording_micRespv2l4_2023-12-13_17h46.04.992.wav;246.0146762;246.5147408;None;246.0146762;246.0146762;246.0146762;246.0146762;246.0146762;246.0146762;;;;;;400204;1;2023-12-13_17h42.06.165;REPSWITCH1_version2_list4;2022.2.4;144.0405393;
REPSWITCH1/PICTURE_175.png;pintor;type;gold;switch;1;T;2;4;4;2;Stim1_Set2;0;None;50;49;50;0;49;49;49;;;;;;;;;;;;;;;;;;;;;;;246.5147408;247.6399419;247.6399419;247.6399419;247.6399419;247.6399419;247.6399419;247.6399419;247.6399419;['p', 'o', 'backspace', 'i', 'n', 't', 'o', 'r'];0;[0.923335799947381, 1.0090351998806, 1.4236699999310076, 1.658143199980259, 1.8085769000463188, 1.898330600000918, 2.022941299714148, 2.095603199675679];pintor;C:\2023\REPSWITCH21092023\REPSWITCH_excgange\REPSWITCH_excgange\data/400204_REPSWITCH1_version2_list4_2023-12-13_17h42.06.165_micRespv2l4_recorded\recording_micRespv2l4_2023-12-13_17h46.09.638.wav;250.6611134;251.1611785;None;250.6611134;250.6611134;250.6611134;250.6611134;250.6611134;250.6611134;;;;;;400204;1;2023-12-13_17h42.06.165;REPSWITCH1_version2_list4;2022.2.4;144.0405393;
REPSWITCH1/PICTURE_663.png;columna;speak;darkblue;filler;2;F;4;4;4;2;Extra6;0;None;51;50;51;0;50;50;50;;;;;;;;;;;;;;;;;;;;;;;251.1611785;252.2099922;252.2099922;252.2099922;252.2099922;252.2099922;252.2099922;252.2099922;252.2099922;None;0;;;C:\2023\REPSWITCH21092023\REPSWITCH_excgange\REPSWITCH_excgange\data/400204_REPSWITCH1_version2_list4_2023-12-13_17h42.06.165_micRespv2l4_recorded\recording_micRespv2l4_2023-12-13_17h46.14.209.wav;255.231128;255.7312276;space;255.231128;255.231128;255.231128;255.231128;255.231128;255.231128;255.7312276;255.7312276;4.9424059;;;400204;1;2023-12-13_17h42.06.165;REPSWITCH1_version2_list4;2022.2.4;144.0405393;
REPSWITCH1/PICTURE_35.png;oreja;type;gold;nontarget;1;NT;3;4;4;2;Stim5_Set3;0;None;52;51;52;0;51;51;51;;;;;;;;;;;;;;;;;;;;;;;260.6832672;261.8014839;261.8014839;261.8014839;261.8014839;261.8014839;261.8014839;261.8014839;261.8014839;['o', 'r', 'e', 'j', 'a'];0;[0.6850425000302494, 0.7988640000112355, 0.903613599948585, 1.038175499998033, 1.1099588996730745];oreja;C:\2023\REPSWITCH21092023\REPSWITCH_excgange\REPSWITCH_excgange\data/400204_REPSWITCH1_version2_list4_2023-12-13_17h42.06.165_micRespv2l4_recorded\recording_micRespv2l4_2023-12-13_17h46.23.801.wav;264.8296963;;None;264.8296963;264.8296963;264.8296963;264.8296963;264.8296963;264.8296963;;;;;;400204;1;2023-12-13_17h42.06.165;REPSWITCH1_version2_list4;2022.2.4;144.0405393;
REPSWITCH1/PICTURE_35.png;oreja;speak;darkblue;switch;2;T;3;4;4;2;Stim5_Set3;0;None;53;52;53;0;52;52;52;;;;;;;;;;;;;;;;;;;;;;;265.3297065;266.3784696;266.3784696;266.3784696;266.3784696;266.3784696;266.3784696;266.3784696;266.3784696;None;0;;;C:\2023\REPSWITCH21092023\REPSWITCH_excgange\REPSWITCH_excgange\data/400204_REPSWITCH1_version2_list4_2023-12-13_17h42.06.165_micRespv2l4_recorded\recording_micRespv2l4_2023-12-13_17h46.28.378.wav;269.4066313;;None;269.4066313;269.4066313;269.4066313;269.4066313;269.4066313;269.4066313;;;;;;400204;1;2023-12-13_17h42.06.165;REPSWITCH1_version2_list4;2022.2.4;144.0405393;
REPSWITCH1/PICTURE_199.png;falda;speak;darkblue;filler;2;F;3;4;4;2;Stim8_Set2;0;None;54;53;54;0;53;53;53;;;;;;;;;;;;;;;;;;;;;;;269.9066935;270.9624594;270.9624594;270.9624594;270.9624594;270.9624594;270.9624594;270.9624594;270.9624594;None;0;;;C:\2023\REPSWITCH21092023\REPSWITCH_excgange\REPSWITCH_excgange\data/400204_REPSWITCH1_version2_list4_2023-12-13_17h42.06.165_micRespv2l4_recorded\recording_micRespv2l4_2023-12-13_17h46.32.962.wav;273.9906372;;None;273.9906372;273.9906372;273.9906372;273.9906372;273.9906372;273.9906372;;;;;;400204;1;2023-12-13_17h42.06.165;REPSWITCH1_version2_list4;2022.2.4;144.0405393;
REPSWITCH1/PICTURE_576.png;guante;speak;darkblue;nontarget;2;NT;3;4;4;2;Stim1_Set3;1;repeat;55;54;55;0;54;54;54;;;;;;;;;;;;;;;;;;;;;;;274.4906575;275.5324324;275.5324324;275.5324324;275.5324324;275.5324324;275.5324324;275.5324324;275.5324324;None;0;;;C:\2023\REPSWITCH21092023\REPSWITCH_excgange\REPSWITCH_excgange\data/400204_REPSWITCH1_version2_list4_2023-12-13_17h42.06.165_micRespv2l4_recorded\recording_micRespv2l4_2023-12-13_17h46.37.531.wav;278.553666;279.0537103;None;278.553666;278.553666;278.553666;278.553666;278.553666;278.553666;;;;;;400204;1;2023-12-13_17h42.06.165;REPSWITCH1_version2_list4;2022.2.4;144.0405393;
REPSWITCH1/PICTURE_576.png;guante;type;gold;switch;1;T;3;4;4;2;Stim1_Set3;0;None;56;55;56;0;55;55;55;;;;;;;;;;;;;;;;;;;;;;;279.0537103;280.2136002;280.2136002;280.2136002;280.2136002;280.2136002;280.2136002;280.2136002;280.2136002;['g', 'u', 'a', 'n', 't', 'e'];0;[0.6302939001470804, 0.7315842998214066, 0.8242868999950588, 0.9398869001306593, 1.0594740002416074, 1.1292524999007583];guante;C:\2023\REPSWITCH21092023\REPSWITCH_excgange\REPSWITCH_excgange\data/400204_REPSWITCH1_version2_list4_2023-12-13_17h42.06.165_micRespv2l4_recorded\recording_micRespv2l4_2023-12-13_17h46.42.212.wav;283.2348376;283.7349519;None;283.2348376;283.2348376;283.2348376;283.2348376;283.2348376;283.2348376;;;;;;400204;1;2023-12-13_17h42.06.165;REPSWITCH1_version2_list4;2022.2.4;144.0405393;
REPSWITCH1/PICTURE_517.png;cuerda;type;gold;filler;1;F;3;4;4;2;Stim4_Set2;1;repeat;57;56;57;0;56;56;56;;;;;;;;;;;;;;;;;;;;;;;283.7349519;284.7906448;284.7906448;284.7906448;284.7906448;284.7906448;284.7906448;284.7906448;284.7906448;['c', 'u', 'e', 'r', 'd', 'a'];0;[0.6947281998582184, 0.8103622999042273, 0.8841212997213006, 0.971836700104177, 1.155569899827242, 1.2661898001097143];cuerda;C:\2023\REPSWITCH21092023\REPSWITCH_excgange\REPSWITCH_excgange\data/400204_REPSWITCH1_version2_list4_2023-12-13_17h42.06.165_micRespv2l4_recorded\recording_micRespv2l4_2023-12-13_17h46.46.790.wav;287.8188446;;None;287.8188446;287.8188446;287.8188446;287.8188446;287.8188446;287.8188446;;;;;;400204;1;2023-12-13_17h42.06.165;REPSWITCH1_version2_list4;2022.2.4;144.0405393;
REPSWITCH1/PICTURE_271.png;conejo;type;gold;nontarget;1;NT;3;4;4;2;Stim7_Set3;1;repeat;58;57;58;0;57;57;57;;;;;;;;;;;;;;;;;;;;;;;288.3188205;289.5412707;289.5412707;289.5412707;289.5412707;289.5412707;289.5412707;289.5412707;289.5412707;['c', 'o', 'n', 'e', 'j', 'o'];0;[0.6736670001409948, 0.7713192002847791, 0.9029212002642453, 0.9579535000957549, 1.098479500040412, 1.2569466000422835];conejo;C:\2023\REPSWITCH21092023\REPSWITCH_excgange\REPSWITCH_excgange\data/400204_REPSWITCH1_version2_list4_2023-12-13_17h42.06.165_micRespv2l4_recorded\recording_micRespv2l4_2023-12-13_17h46.51.540.wav;292.5694565;;None;292.5694565;292.5694565;292.5694565;292.5694565;292.5694565;292.5694565;;;;;;400204;1;2023-12-13_17h42.06.165;REPSWITCH1_version2_list4;2022.2.4;144.0405393;
REPSWITCH1/PICTURE_271.png;conejo;speak;darkblue;switch;2;T;3;4;4;2;Stim7_Set3;0;None;59;58;59;0;58;58;58;;;;;;;;;;;;;;;;;;;;;;;293.0694717;294.1668151;294.1668151;294.1668151;294.1668151;294.1668151;294.1668151;294.1668151;294.1668151;None;0;;;C:\2023\REPSWITCH21092023\REPSWITCH_excgange\REPSWITCH_excgange\data/400204_REPSWITCH1_version2_list4_2023-12-13_17h42.06.165_micRespv2l4_recorded\recording_micRespv2l4_2023-12-13_17h46.56.167.wav;297.1950596;;None;297.1950596;297.1950596;297.1950596;297.1950596;297.1950596;297.1950596;;;;;;400204;1;2023-12-13_17h42.06.165;REPSWITCH1_version2_list4;2022.2.4;144.0405393;
REPSWITCH1/PICTURE_552.png;manzana;type;gold;filler;1;F;3;4;4;2;Stim6_Set2;0;None;60;59;60;0;59;59;59;;;;;;;;;;;;;;;;;;;;;;;297.6950379;298.7924428;298.7924428;298.7924428;298.7924428;298.7924428;298.7924428;298.7924428;298.7924428;['m', 'a', 'n', 'z', 'a', 'n', 'a'];0;[0.5574500998482108, 0.6401292998343706, 0.7418193998746574, 0.841800699941814, 1.0227251998148859, 1.1164009999483824, 1.2330022999085486];manzana;C:\2023\REPSWITCH21092023\REPSWITCH_excgange\REPSWITCH_excgange\data/400204_REPSWITCH1_version2_list4_2023-12-13_17h42.06.165_micRespv2l4_recorded\recording_micRespv2l4_2023-12-13_17h47.00.791.wav;301.813634;302.3137298;None;301.813634;301.813634;301.813634;301.813634;301.813634;301.813634;;;;;;400204;1;2023-12-13_17h42.06.165;REPSWITCH1_version2_list4;2022.2.4;144.0405393;
REPSWITCH1/PICTURE_242.png;cartero;speak;darkblue;nontarget;2;NT;3;4;4;2;Stim3_Set3;1;switch;61;60;61;0;60;60;60;;;;;;;;;;;;;;;;;;;;;;;302.3137298;303.3555463;303.3555463;303.3555463;303.3555463;303.3555463;303.3555463;303.3555463;303.3555463;None;0;;;C:\2023\REPSWITCH21092023\REPSWITCH_excgange\REPSWITCH_excgange\data/400204_REPSWITCH1_version2_list4_2023-12-13_17h42.06.165_micRespv2l4_recorded\recording_micRespv2l4_2023-12-13_17h47.05.354.wav;306.3768321;306.8768121;None;306.3768321;306.3768321;306.3768321;306.3768321;306.3768321;306.3768321;;;;;;400204;1;2023-12-13_17h42.06.165;REPSWITCH1_version2_list4;2022.2.4;144.0405393;
REPSWITCH1/PICTURE_242.png;cartero;speak;darkblue;repeat;2;T;3;4;4;2;Stim3_Set3;0;None;62;61;62;0;61;61;61;;;;;;;;;;;;;;;;;;;;;;;306.8768121;307.9464173;307.9464173;307.9464173;307.9464173;307.9464173;307.9464173;307.9464173;307.9464173;None;0;;;C:\2023\REPSWITCH21092023\REPSWITCH_excgange\REPSWITCH_excgange\data/400204_REPSWITCH1_version2_list4_2023-12-13_17h42.06.165_micRespv2l4_recorded\recording_micRespv2l4_2023-12-13_17h47.09.946.wav;310.9745868;;None;310.9745868;310.9745868;310.9745868;310.9745868;310.9745868;310.9745868;;;;;;400204;1;2023-12-13_17h42.06.165;REPSWITCH1_version2_list4;2022.2.4;144.0405393;
REPSWITCH1/PICTURE_152.png;caracol;speak;darkblue;filler;2;F;3;4;4;2;Stim2_Set2;0;None;63;62;63;0;62;62;62;;;;;;;;;;;;;;;;;;;;;;;311.4746532;312.5581124;312.5581124;312.5581124;312.5581124;312.5581124;312.5581124;312.5581124;312.5581124;None;0;;;C:\2023\REPSWITCH21092023\REPSWITCH_excgange\REPSWITCH_excgange\data/400204_REPSWITCH1_version2_list4_2023-12-13_17h42.06.165_micRespv2l4_recorded\recording_micRespv2l4_2023-12-13_17h47.14.558.wav;315.586296;;None;315.586296;315.586296;315.586296;315.586296;315.586296;315.586296;;;;;;400204;1;2023-12-13_17h42.06.165;REPSWITCH1_version2_list4;2022.2.4;144.0405393;
REPSWITCH1/PICTURE_446.png;cerdo;type;gold;filler;1;F;3;4;4;2;Stim7_Set2;1;switch;64;63;64;0;63;63;63;;;;;;;;;;;;;;;;;;;;;;;316.0863953;317.1767761;317.1767761;317.1767761;317.1767761;317.1767761;317.1767761;317.1767761;317.1767761;['c', 'e', 'r', 'd', 'o'];0;[0.49630949972197413, 0.6256424998864532, 0.7325355000793934, 0.9008301999419928, 1.0097731999121606];cerdo;C:\2023\REPSWITCH21092023\REPSWITCH_excgange\REPSWITCH_excgange\data/400204_REPSWITCH1_version2_list4_2023-12-13_17h42.06.165_micRespv2l4_recorded\recording_micRespv2l4_2023-12-13_17h47.19.176.wav;320.2049844;;None;320.2049844;320.2049844;320.2049844;320.2049844;320.2049844;320.2049844;;;;;;400204;1;2023-12-13_17h42.06.165;REPSWITCH1_version2_list4;2022.2.4;144.0405393;
REPSWITCH1/PICTURE_610.png;miel;speak;darkblue;nontarget;2;NT;3;4;4;2;Stim2_Set3;1;switch;65;64;65;0;64;64;64;;;;;;;;;;;;;;;;;;;;;;;320.7050615;321.7884941;321.7884941;321.7884941;321.7884941;321.7884941;321.7884941;321.7884941;321.7884941;None;0;;;C:\2023\REPSWITCH21092023\REPSWITCH_excgange\REPSWITCH_excgange\data/400204_REPSWITCH1_version2_list4_2023-12-13_17h42.06.165_micRespv2l4_recorded\recording_micRespv2l4_2023-12-13_17h47.23.788.wav;324.8166736;;None;324.8166736;324.8166736;324.8166736;324.8166736;324.8166736;324.8166736;;;;;;400204;1;2023-12-13_17h42.06.165;REPSWITCH1_version2_list4;2022.2.4;144.0405393;
REPSWITCH1/PICTURE_610.png;miel;speak;darkblue;repeat;2;T;3;4;4;2;Stim2_Set3;0;None;66;65;66;0;65;65;65;;;;;;;;;;;;;;;;;;;;;;;325.3168205;326.4142003;326.4142003;326.4142003;326.4142003;326.4142003;326.4142003;326.4142003;326.4142003;None;0;;;C:\2023\REPSWITCH21092023\REPSWITCH_excgange\REPSWITCH_excgange\data/400204_REPSWITCH1_version2_list4_2023-12-13_17h42.06.165_micRespv2l4_recorded\recording_micRespv2l4_2023-12-13_17h47.28.413.wav;329.4353876;329.9354132;None;329.4353876;329.4353876;329.4353876;329.4353876;329.4353876;329.4353876;;;;;;400204;1;2023-12-13_17h42.06.165;REPSWITCH1_version2_list4;2022.2.4;144.0405393;
REPSWITCH1/PICTURE_320.png;iglesia;speak;darkblue;nontarget;2;NT;3;4;4;2;Stim8_Set3;1;repeat;67;66;67;0;66;66;66;;;;;;;;;;;;;;;;;;;;;;;329.9354132;331.0536132;331.0536132;331.0536132;331.0536132;331.0536132;331.0536132;331.0536132;331.0536132;None;0;;;C:\2023\REPSWITCH21092023\REPSWITCH_excgange\REPSWITCH_excgange\data/400204_REPSWITCH1_version2_list4_2023-12-13_17h42.06.165_micRespv2l4_recorded\recording_micRespv2l4_2023-12-13_17h47.33.053.wav;334.0818093;;None;334.0818093;334.0818093;334.0818093;334.0818093;334.0818093;334.0818093;;;;;;400204;1;2023-12-13_17h42.06.165;REPSWITCH1_version2_list4;2022.2.4;144.0405393;
REPSWITCH1/PICTURE_320.png;iglesia;type;gold;switch;1;T;3;4;4;2;Stim8_Set3;0;None;68;67;68;0;67;67;67;;;;;;;;;;;;;;;;;;;;;;;334.5818272;335.6444638;335.6444638;335.6444638;335.6444638;335.6444638;335.6444638;335.6444638;335.6444638;['i', 'n', 'backspace', 'g', 'l', 'e', 's', 'a', 'backspace', 'i', 'a'];0;[0.5047031994909048, 0.6493616998195648, 1.0087689994834363, 1.1455996995791793, 1.285409199539572, 1.3963617999106646, 1.485735499765724, 1.763778599910438, 2.0568727995269, 2.2412354997359216, 2.2980528995394707];iglesia;C:\2023\REPSWITCH21092023\REPSWITCH_excgange\REPSWITCH_excgange\data/400204_REPSWITCH1_version2_list4_2023-12-13_17h42.06.165_micRespv2l4_recorded\recording_micRespv2l4_2023-12-13_17h47.37.643.wav;338.6657447;339.165856;None;338.6657447;338.6657447;338.6657447;338.6657447;338.6657447;338.6657447;;;;;;400204;1;2023-12-13_17h42.06.165;REPSWITCH1_version2_list4;2022.2.4;144.0405393;
REPSWITCH1/PICTURE_30.png;granja;speak;darkblue;filler;2;F;3;4;4;2;Stim5_Set2;0;None;69;68;69;0;68;68;68;;;;;;;;;;;;;;;;;;;;;;;339.165856;340.290951;340.290951;340.290951;340.290951;340.290951;340.290951;340.290951;340.290951;None;0;;;C:\2023\REPSWITCH21092023\REPSWITCH_excgange\REPSWITCH_excgange\data/400204_REPSWITCH1_version2_list4_2023-12-13_17h42.06.165_micRespv2l4_recorded\recording_micRespv2l4_2023-12-13_17h47.42.290.wav;343.3191097;;None;343.3191097;343.3191097;343.3191097;343.3191097;343.3191097;343.3191097;;;;;;400204;1;2023-12-13_17h42.06.165;REPSWITCH1_version2_list4;2022.2.4;144.0405393;
REPSWITCH1/PICTURE_264.png;mano;type;gold;filler;1;F;3;4;4;2;Stim3_Set2;0;None;70;69;70;0;69;69;69;;;;;;;;;;;;;;;;;;;;;;;343.8192358;345.0346084;345.0346084;345.0346084;345.0346084;345.0346084;345.0346084;345.0346084;345.0346084;['a', 'backspace', 'm', 'a', 'n', 'o'];0;[0.6346848998218775, 0.9755735998041928, 1.2067959997802973, 1.3312369999475777, 1.4093593996949494, 1.5059745996259153];mano;C:\2023\REPSWITCH21092023\REPSWITCH_excgange\REPSWITCH_excgange\data/400204_REPSWITCH1_version2_list4_2023-12-13_17h42.06.165_micRespv2l4_recorded\recording_micRespv2l4_2023-12-13_17h47.47.033.wav;348.0558001;348.5559451;None;348.0558001;348.0558001;348.0558001;348.0558001;348.0558001;348.0558001;;;;;;400204;1;2023-12-13_17h42.06.165;REPSWITCH1_version2_list4;2022.2.4;144.0405393;
REPSWITCH1/PICTURE_464.png;goma;type;gold;nontarget;1;NT;3;4;4;2;Stim6_Set3;0;None;71;70;71;0;70;70;70;;;;;;;;;;;;;;;;;;;;;;;348.5559451;349.6046266;349.6046266;349.6046266;349.6046266;349.6046266;349.6046266;349.6046266;349.6046266;['g', 'o', 'm', 'a'];0;[0.70981469983235, 0.7914734994992614, 0.9260230995714664, 0.9718718994408846];goma;C:\2023\REPSWITCH21092023\REPSWITCH_excgange\REPSWITCH_excgange\data/400204_REPSWITCH1_version2_list4_2023-12-13_17h42.06.165_micRespv2l4_recorded\recording_micRespv2l4_2023-12-13_17h47.51.604.wav;352.6258568;353.1259248;None;352.6258568;352.6258568;352.6258568;352.6258568;352.6258568;352.6258568;;;;;;400204;1;2023-12-13_17h42.06.165;REPSWITCH1_version2_list4;2022.2.4;144.0405393;
REPSWITCH1/PICTURE_464.png;goma;type;gold;repeat;1;T;3;4;4;2;Stim6_Set3;0;None;72;71;72;0;71;71;71;;;;;;;;;;;;;;;;;;;;;;;353.1259248;354.1677998;354.1677998;354.1677998;354.1677998;354.1677998;354.1677998;354.1677998;354.1677998;['g', 'o', 'm', 'a'];0;[0.6455986998043954, 0.7243881998583674, 0.8548772996291518, 0.9654959999024868];goma;C:\2023\REPSWITCH21092023\REPSWITCH_excgange\REPSWITCH_excgange\data/400204_REPSWITCH1_version2_list4_2023-12-13_17h42.06.165_micRespv2l4_recorded\recording_micRespv2l4_2023-12-13_17h47.56.167.wav;357.188955;357.6890061;None;357.188955;357.188955;357.188955;357.188955;357.188955;357.188955;;;;;;400204;1;2023-12-13_17h42.06.165;REPSWITCH1_version2_list4;2022.2.4;144.0405393;
REPSWITCH1/PICTURE_175.png;pintor;speak;darkblue;filler;2;F;3;4;4;2;Stim1_Set2;0;None;73;72;73;0;72;72;72;;;;;;;;;;;;;;;;;;;;;;;357.6890061;358.7864718;358.7864718;358.7864718;358.7864718;358.7864718;358.7864718;358.7864718;358.7864718;None;0;;;C:\2023\REPSWITCH21092023\REPSWITCH_excgange\REPSWITCH_excgange\data/400204_REPSWITCH1_version2_list4_2023-12-13_17h42.06.165_micRespv2l4_recorded\recording_micRespv2l4_2023-12-13_17h48.00.786.wav;361.8145901;;None;361.8145901;361.8145901;361.8145901;361.8145901;361.8145901;361.8145901;;;;;;400204;1;2023-12-13_17h42.06.165;REPSWITCH1_version2_list4;2022.2.4;144.0405393;
REPSWITCH1/PICTURE_235.png;aguja;type;gold;nontarget;1;NT;3;4;4;2;Stim4_Set3;1;switch;74;73;74;0;73;73;73;;;;;;;;;;;;;;;;;;;;;;;362.314637;363.4120085;363.4120085;363.4120085;363.4120085;363.4120085;363.4120085;363.4120085;363.4120085;['a', 'g', 'u', 'j', 'a'];0;[0.725823299959302, 0.880307000130415, 1.2563330000266433, 1.4271225999109447, 1.5134669002145529];aguja;C:\2023\REPSWITCH21092023\REPSWITCH_excgange\REPSWITCH_excgange\data/400204_REPSWITCH1_version2_list4_2023-12-13_17h42.06.165_micRespv2l4_recorded\recording_micRespv2l4_2023-12-13_17h48.05.411.wav;366.4333209;366.9333159;None;366.4333209;366.4333209;366.4333209;366.4333209;366.4333209;366.4333209;;;;;;400204;1;2023-12-13_17h42.06.165;REPSWITCH1_version2_list4;2022.2.4;144.0405393;
REPSWITCH1/PICTURE_235.png;aguja;type;gold;repeat;1;T;3;4;4;2;Stim4_Set3;0;None;75;74;75;0;74;74;74;;;;;;;;;;;;;;;;;;;;;;;366.9333159;368.0238308;368.0238308;368.0238308;368.0238308;368.0238308;368.0238308;368.0238308;368.0238308;['a', 'g', 'u', 'j', 'a'];0;[0.5668034995906055, 0.7187336995266378, 0.8256792998872697, 1.0016136998310685, 1.0751918996684253];aguja;C:\2023\REPSWITCH21092023\REPSWITCH_excgange\REPSWITCH_excgange\data/400204_REPSWITCH1_version2_list4_2023-12-13_17h42.06.165_micRespv2l4_recorded\recording_micRespv2l4_2023-12-13_17h48.10.023.wav;371.0449309;371.5449914;None;371.0449309;371.0449309;371.0449309;371.0449309;371.0449309;371.0449309;;;;;;400204;1;2023-12-13_17h42.06.165;REPSWITCH1_version2_list4;2022.2.4;144.0405393;
REPSWITCH1/PICTURE_576.png;guante;type;gold;filler;1;F;4;4;4;2;Stim1_Set3;1;repeat;76;75;76;0;75;75;75;;;;;;;;;;;;;;;;;;;;;;;371.5449914;372.6910214;372.6910214;372.6910214;372.6910214;372.6910214;372.6910214;372.6910214;372.6910214;['g', 'u', 'a', 'n', 't', 'e'];0;[0.599083200097084, 0.7086521000601351, 0.7904198998585343, 0.9195488002151251, 1.0034497999586165, 1.081177200190723];guante;C:\2023\REPSWITCH21092023\REPSWITCH_excgange\REPSWITCH_excgange\data/400204_REPSWITCH1_version2_list4_2023-12-13_17h42.06.165_micRespv2l4_recorded\recording_micRespv2l4_2023-12-13_17h48.14.691.wav;375.719202;;None;375.719202;375.719202;375.719202;375.719202;375.719202;375.719202;;;;;;400204;1;2023-12-13_17h42.06.165;REPSWITCH1_version2_list4;2022.2.4;144.0405393;
REPSWITCH1/PICTURE_340.png;espejo;speak;darkblue;filler;2;F;4;4;4;2;Extra1;0;None;77;76;77;0;76;76;76;;;;;;;;;;;;;;;;;;;;;;;376.2192572;377.2680684;377.2680684;377.2680684;377.2680684;377.2680684;377.2680684;377.2680684;377.2680684;None;0;;;C:\2023\REPSWITCH21092023\REPSWITCH_excgange\REPSWITCH_excgange\data/400204_REPSWITCH1_version2_list4_2023-12-13_17h42.06.165_micRespv2l4_recorded\recording_micRespv2l4_2023-12-13_17h48.19.267.wav;380.2892123;380.7893727;None;380.2892123;380.2892123;380.2892123;380.2892123;380.2892123;380.2892123;;;;;;400204;1;2023-12-13_17h42.06.165;REPSWITCH1_version2_list4;2022.2.4;144.0405393;
REPSWITCH1/PICTURE_464.png;goma;speak;darkblue;filler;2;F;4;4;4;2;Stim6_Set3;1;repeat;78;77;78;0;77;77;77;;;;;;;;;;;;;;;;;;;;;;;380.7893727;381.8310875;381.8310875;381.8310875;381.8310875;381.8310875;381.8310875;381.8310875;381.8310875;None;0;;;C:\2023\REPSWITCH21092023\REPSWITCH_excgange\REPSWITCH_excgange\data/400204_REPSWITCH1_version2_list4_2023-12-13_17h42.06.165_micRespv2l4_recorded\recording_micRespv2l4_2023-12-13_17h48.23.830.wav;384.8523655;385.3523956;None;384.8523655;384.8523655;384.8523655;384.8523655;384.8523655;384.8523655;;;;;;400204;1;2023-12-13_17h42.06.165;REPSWITCH1_version2_list4;2022.2.4;144.0405393;
REPSWITCH1/PICTURE_338.png;regalo;type;gold;nontarget;1;NT;4;4;4;2;Stim6_Set4;0;None;79;78;79;0;78;78;78;;;;;;;;;;;;;;;;;;;;;;;385.3523956;386.4358569;386.4358569;386.4358569;386.4358569;386.4358569;386.4358569;386.4358569;386.4358569;['r', 'e', 'g', 'a', 'l', 'o'];0;[0.682131000328809, 0.7817909000441432, 0.9512541000731289, 1.031939399894327, 1.1864757998846471, 1.3560804002918303];regalo;C:\2023\REPSWITCH21092023\REPSWITCH_excgange\REPSWITCH_excgange\data/400204_REPSWITCH1_version2_list4_2023-12-13_17h42.06.165_micRespv2l4_recorded\recording_micRespv2l4_2023-12-13_17h48.28.435.wav;389.457142;389.9571748;None;389.457142;389.457142;389.457142;389.457142;389.457142;389.457142;;;;;;400204;1;2023-12-13_17h42.06.165;REPSWITCH1_version2_list4;2022.2.4;144.0405393;
REPSWITCH1/PICTURE_338.png;regalo;type;gold;repeat;1;T;4;4;4;2;Stim6_Set4;0;None;80;79;80;0;79;79;79;;;;;;;;;;;;;;;;;;;;;;;389.9571748;391.0545899;391.0545899;391.0545899;391.0545899;391.0545899;391.0545899;391.0545899;391.0545899;['r', 'e', 'g', 'a', 'l', 'o'];0;[0.5606582001782954, 0.6286531998775899, 0.7852676999755204, 0.886487599927932, 1.013944000005722, 1.1853201002813876];regalo;C:\2023\REPSWITCH21092023\REPSWITCH_excgange\REPSWITCH_excgange\data/400204_REPSWITCH1_version2_list4_2023-12-13_17h42.06.165_micRespv2l4_recorded\recording_micRespv2l4_2023-12-13_17h48.33.053.wav;394.075744;394.5758762;None;394.075744;394.075744;394.075744;394.075744;394.075744;394.075744;;;;;;400204;1;2023-12-13_17h42.06.165;REPSWITCH1_version2_list4;2022.2.4;144.0405393;
REPSWITCH1/PICTURE_8.png;pierna;type;gold;nontarget;1;NT;4;4;4;2;Stim3_Set4;1;repeat;81;80;81;0;80;80;80;;;;;;;;;;;;;;;;;;;;;;;394.5758762;395.6662984;395.6662984;395.6662984;395.6662984;395.6662984;395.6662984;395.6662984;395.6662984;['p', 'i', 'e', 'r', 'n', 'a'];0;[0.6595750995911658, 0.7293364997021854, 1.1140466998331249, 1.185158799868077, 1.3522017998620868, 1.471815999597311];pierna;C:\2023\REPSWITCH21092023\REPSWITCH_excgange\REPSWITCH_excgange\data/400204_REPSWITCH1_version2_list4_2023-12-13_17h42.06.165_micRespv2l4_recorded\recording_micRespv2l4_2023-12-13_17h48.37.665.wav;398.6874778;399.1875489;None;398.6874778;398.6874778;398.6874778;398.6874778;398.6874778;398.6874778;;;;;;400204;1;2023-12-13_17h42.06.165;REPSWITCH1_version2_list4;2022.2.4;144.0405393;
REPSWITCH1/PICTURE_8.png;pierna;speak;darkblue;switch;2;T;4;4;4;2;Stim3_Set4;0;None;82;81;82;0;81;81;81;;;;;;;;;;;;;;;;;;;;;;;399.1875489;400.2919128;400.2919128;400.2919128;400.2919128;400.2919128;400.2919128;400.2919128;400.2919128;None;0;;;C:\2023\REPSWITCH21092023\REPSWITCH_excgange\REPSWITCH_excgange\data/400204_REPSWITCH1_version2_list4_2023-12-13_17h42.06.165_micRespv2l4_recorded\recording_micRespv2l4_2023-12-13_17h48.42.290.wav;403.3130828;403.8132151;None;403.3130828;403.3130828;403.3130828;403.3130828;403.3130828;403.3130828;;;;;;400204;1;2023-12-13_17h42.06.165;REPSWITCH1_version2_list4;2022.2.4;144.0405393;
REPSWITCH1/PICTURE_271.png;conejo;type;gold;filler;1;F;4;4;4;2;Stim7_Set3;0;None;83;82;83;0;82;82;82;;;;;;;;;;;;;;;;;;;;;;;403.8132151;404.8896942;404.8896942;404.8896942;404.8896942;404.8896942;404.8896942;404.8896942;404.8896942;['c', 'o', 'n', 'e', 'j', 'o'];0;[0.5872050998732448, 0.6530361999757588, 0.7856184998527169, 0.8524080999195576, 0.9788349000737071, 1.0894538001157343];conejo;C:\2023\REPSWITCH21092023\REPSWITCH_excgange\REPSWITCH_excgange\data/400204_REPSWITCH1_version2_list4_2023-12-13_17h42.06.165_micRespv2l4_recorded\recording_micRespv2l4_2023-12-13_17h48.46.889.wav;407.9108921;408.4110235;None;407.9108921;407.9108921;407.9108921;407.9108921;407.9108921;407.9108921;;;;;;400204;1;2023-12-13_17h42.06.165;REPSWITCH1_version2_list4;2022.2.4;144.0405393;
REPSWITCH1/PICTURE_687.png;camisa;speak;darkblue;nontarget;2;NT;4;4;4;2;Stim5_Set4;1;switch;84;83;84;0;83;83;83;;;;;;;;;;;;;;;;;;;;;;;408.4110235;409.4875246;409.4875246;409.4875246;409.4875246;409.4875246;409.4875246;409.4875246;409.4875246;None;0;;;C:\2023\REPSWITCH21092023\REPSWITCH_excgange\REPSWITCH_excgange\data/400204_REPSWITCH1_version2_list4_2023-12-13_17h42.06.165_micRespv2l4_recorded\recording_micRespv2l4_2023-12-13_17h48.51.486.wav;412.5087428;413.0087866;None;412.5087428;412.5087428;412.5087428;412.5087428;412.5087428;412.5087428;;;;;;400204;1;2023-12-13_17h42.06.165;REPSWITCH1_version2_list4;2022.2.4;144.0405393;
REPSWITCH1/PICTURE_687.png;camisa;speak;darkblue;repeat;2;T;4;4;4;2;Stim5_Set4;0;None;85;84;85;0;84;84;84;;;;;;;;;;;;;;;;;;;;;;;413.0087866;414.1269912;414.1269912;414.1269912;414.1269912;414.1269912;414.1269912;414.1269912;414.1269912;None;0;;;C:\2023\REPSWITCH21092023\REPSWITCH_excgange\REPSWITCH_excgange\data/400204_REPSWITCH1_version2_list4_2023-12-13_17h42.06.165_micRespv2l4_recorded\recording_micRespv2l4_2023-12-13_17h48.56.125.wav;417.1482384;417.6483016;None;417.1482384;417.1482384;417.1482384;417.1482384;417.1482384;417.1482384;;;;;;400204;1;2023-12-13_17h42.06.165;REPSWITCH1_version2_list4;2022.2.4;144.0405393;
REPSWITCH1/PICTURE_319.png;vaca;speak;darkblue;nontarget;2;NT;4;4;4;2;Stim1_Set4;0;None;86;85;86;0;85;85;85;;;;;;;;;;;;;;;;;;;;;;;417.6483016;418.6901324;418.6901324;418.6901324;418.6901324;418.6901324;418.6901324;418.6901324;418.6901324;None;0;;;C:\2023\REPSWITCH21092023\REPSWITCH_excgange\REPSWITCH_excgange\data/400204_REPSWITCH1_version2_list4_2023-12-13_17h42.06.165_micRespv2l4_recorded\recording_micRespv2l4_2023-12-13_17h49.00.689.wav;421.7182817;;None;421.7182817;421.7182817;421.7182817;421.7182817;421.7182817;421.7182817;;;;;;400204;1;2023-12-13_17h42.06.165;REPSWITCH1_version2_list4;2022.2.4;144.0405393;
REPSWITCH1/PICTURE_319.png;vaca;type;gold;switch;1;T;4;4;4;2;Stim1_Set4;0;None;87;86;87;0;86;86;86;;;;;;;;;;;;;;;;;;;;;;;422.2183431;423.2670883;423.2670883;423.2670883;423.2670883;423.2670883;423.2670883;423.2670883;423.2670883;['v', 'a', 'c', 'a'];0;[0.5186839997768402, 0.606411799788475, 0.7310060998424888, 0.8525878000073135];vaca;C:\2023\REPSWITCH21092023\REPSWITCH_excgange\REPSWITCH_excgange\data/400204_REPSWITCH1_version2_list4_2023-12-13_17h42.06.165_micRespv2l4_recorded\recording_micRespv2l4_2023-12-13_17h49.05.266.wav;426.2883151;426.7883966;None;426.2883151;426.2883151;426.2883151;426.2883151;426.2883151;426.2883151;;;;;;400204;1;2023-12-13_17h42.06.165;REPSWITCH1_version2_list4;2022.2.4;144.0405393;
REPSWITCH1/PICTURE_242.png;cartero;speak;darkblue;filler;2;F;4;4;4;2;Stim3_Set3;0;None;88;87;88;0;87;87;87;;;;;;;;;;;;;;;;;;;;;;;426.7883966;427.8579757;427.8579757;427.8579757;427.8579757;427.8579757;427.8579757;427.8579757;427.8579757;None;0;;;C:\2023\REPSWITCH21092023\REPSWITCH_excgange\REPSWITCH_excgange\data/400204_REPSWITCH1_version2_list4_2023-12-13_17h42.06.165_micRespv2l4_recorded\recording_micRespv2l4_2023-12-13_17h49.09.857.wav;430.8791703;431.379252;None;430.8791703;430.8791703;430.8791703;430.8791703;430.8791703;430.8791703;;;;;;400204;1;2023-12-13_17h42.06.165;REPSWITCH1_version2_list4;2022.2.4;144.0405393;
REPSWITCH1/PICTURE_498.png;taza;type;gold;nontarget;1;NT;4;4;4;2;Stim4_Set4;1;switch;89;88;89;0;88;88;88;;;;;;;;;;;;;;;;;;;;;;;431.379252;432.4766778;432.4766778;432.4766778;432.4766778;432.4766778;432.4766778;432.4766778;432.4766778;['t', 'a', 'z', 'a'];0;[0.6089314999990165, 0.7395561002194881, 0.9709232002496719, 1.1511214999482036];taza;C:\2023\REPSWITCH21092023\REPSWITCH_excgange\REPSWITCH_excgange\data/400204_REPSWITCH1_version2_list4_2023-12-13_17h42.06.165_micRespv2l4_recorded\recording_micRespv2l4_2023-12-13_17h49.14.475.wav;435.4978424;435.9979075;None;435.4978424;435.4978424;435.4978424;435.4978424;435.4978424;435.4978424;;;;;;400204;1;2023-12-13_17h42.06.165;REPSWITCH1_version2_list4;2022.2.4;144.0405393;
REPSWITCH1/PICTURE_498.png;taza;speak;darkblue;switch;2;T;4;4;4;2;Stim4_Set4;0;None;90;89;90;0;89;89;89;;;;;;;;;;;;;;;;;;;;;;;435.9979075;437.0536097;437.0536097;437.0536097;437.0536097;437.0536097;437.0536097;437.0536097;437.0536097;None;0;;;C:\2023\REPSWITCH21092023\REPSWITCH_excgange\REPSWITCH_excgange\data/400204_REPSWITCH1_version2_list4_2023-12-13_17h42.06.165_micRespv2l4_recorded\recording_micRespv2l4_2023-12-13_17h49.19.054.wav;440.0818477;;None;440.0818477;440.0818477;440.0818477;440.0818477;440.0818477;440.0818477;;;;;;400204;1;2023-12-13_17h42.06.165;REPSWITCH1_version2_list4;2022.2.4;144.0405393;
REPSWITCH1/PICTURE_391.png;cadena;type;gold;filler;1;F;4;4;4;2;Extra2;0;None;91;90;91;0;90;90;90;;;;;;;;;;;;;;;;;;;;;;;440.5818402;441.6375505;441.6375505;441.6375505;441.6375505;441.6375505;441.6375505;441.6375505;441.6375505;['c', 'a', 'd', 'e', 'n', 'a'];0;[0.6242420002818108, 0.7186306999064982, 0.8262370000593364, 0.994712000247091, 1.083415400236845, 1.1631515002809465];cadena;C:\2023\REPSWITCH21092023\REPSWITCH_excgange\REPSWITCH_excgange\data/400204_REPSWITCH1_version2_list4_2023-12-13_17h42.06.165_micRespv2l4_recorded\recording_micRespv2l4_2023-12-13_17h49.23.636.wav;444.6587625;445.1588646;None;444.6587625;444.6587625;444.6587625;444.6587625;444.6587625;444.6587625;;;;;;400204;1;2023-12-13_17h42.06.165;REPSWITCH1_version2_list4;2022.2.4;144.0405393;
REPSWITCH1/PICTURE_610.png;miel;speak;darkblue;filler;2;F;4;4;4;2;Stim2_Set3;0;None;92;91;92;0;91;91;91;;;;;;;;;;;;;;;;;;;;;;;445.1588646;446.2285087;446.2285087;446.2285087;446.2285087;446.2285087;446.2285087;446.2285087;446.2285087;None;0;;;C:\2023\REPSWITCH21092023\REPSWITCH_excgange\REPSWITCH_excgange\data/400204_REPSWITCH1_version2_list4_2023-12-13_17h42.06.165_micRespv2l4_recorded\recording_micRespv2l4_2023-12-13_17h49.28.227.wav;449.2496382;449.7498063;None;449.2496382;449.2496382;449.2496382;449.2496382;449.2496382;449.2496382;;;;;;400204;1;2023-12-13_17h42.06.165;REPSWITCH1_version2_list4;2022.2.4;144.0405393;
REPSWITCH1/PICTURE_48.png;bombero;speak;darkblue;nontarget;2;NT;4;4;4;2;Stim7_Set4;1;repeat;93;92;93;0;92;92;92;;;;;;;;;;;;;;;;;;;;;;;449.7498063;450.8401719;450.8401719;450.8401719;450.8401719;450.8401719;450.8401719;450.8401719;450.8401719;None;0;;;C:\2023\REPSWITCH21092023\REPSWITCH_excgange\REPSWITCH_excgange\data/400204_REPSWITCH1_version2_list4_2023-12-13_17h42.06.165_micRespv2l4_recorded\recording_micRespv2l4_2023-12-13_17h49.32.840.wav;453.8683308;;None;453.8683308;453.8683308;453.8683308;453.8683308;453.8683308;453.8683308;;;;;;400204;1;2023-12-13_17h42.06.165;REPSWITCH1_version2_list4;2022.2.4;144.0405393;
REPSWITCH1/PICTURE_48.png;bombero;speak;darkblue;repeat;2;T;4;4;4;2;Stim7_Set4;0;None;94;93;94;0;93;93;93;;;;;;;;;;;;;;;;;;;;;;;454.3683865;455.4380113;455.4380113;455.4380113;455.4380113;455.4380113;455.4380113;455.4380113;455.4380113;None;0;;;C:\2023\REPSWITCH21092023\REPSWITCH_excgange\REPSWITCH_excgange\data/400204_REPSWITCH1_version2_list4_2023-12-13_17h42.06.165_micRespv2l4_recorded\recording_micRespv2l4_2023-12-13_17h49.37.436.wav;458.4592925;458.9592835;None;458.4592925;458.4592925;458.4592925;458.4592925;458.4592925;458.4592925;;;;;;400204;1;2023-12-13_17h42.06.165;REPSWITCH1_version2_list4;2022.2.4;144.0405393;
REPSWITCH1/PICTURE_320.png;iglesia;type;gold;filler;1;F;4;4;4;2;Stim8_Set3;1;switch;95;94;95;0;94;94;94;;;;;;;;;;;;;;;;;;;;;;;458.9592835;460.0289183;460.0289183;460.0289183;460.0289183;460.0289183;460.0289183;460.0289183;460.0289183;['i', 'g', 'l', 'e', 's', 'i', 'a'];0;[0.5832576998509467, 0.7546732998453081, 0.8612807998433709, 0.9649450997821987, 1.3709249999374151, 1.5293923001736403, 1.641083599999547];iglesia;C:\2023\REPSWITCH21092023\REPSWITCH_excgange\REPSWITCH_excgange\data/400204_REPSWITCH1_version2_list4_2023-12-13_17h42.06.165_micRespv2l4_recorded\recording_micRespv2l4_2023-12-13_17h49.42.028.wav;463.0501022;463.5501584;None;463.0501022;463.0501022;463.0501022;463.0501022;463.0501022;463.0501022;;;;;;400204;1;2023-12-13_17h42.06.165;REPSWITCH1_version2_list4;2022.2.4;144.0405393;
REPSWITCH1/PICTURE_35.png;oreja;speak;darkblue;filler;2;F;4;4;4;2;Stim5_Set3;0;None;96;95;96;0;95;95;95;;;;;;;;;;;;;;;;;;;;;;;463.5501584;464.6059023;464.6059023;464.6059023;464.6059023;464.6059023;464.6059023;464.6059023;464.6059023;None;0;;;C:\2023\REPSWITCH21092023\REPSWITCH_excgange\REPSWITCH_excgange\data/400204_REPSWITCH1_version2_list4_2023-12-13_17h42.06.165_micRespv2l4_recorded\recording_micRespv2l4_2023-12-13_17h49.46.605.wav;467.6270473;468.1271462;None;467.6270473;467.6270473;467.6270473;467.6270473;467.6270473;467.6270473;;;;;;400204;1;2023-12-13_17h42.06.165;REPSWITCH1_version2_list4;2022.2.4;144.0405393;
REPSWITCH1/PICTURE_728.png;pulpo;speak;darkblue;nontarget;2;NT;4;4;4;2;Stim8_Set4;1;repeat;97;96;97;0;96;96;96;;;;;;;;;;;;;;;;;;;;;;;468.1271462;469.1550829;469.1550829;469.1550829;469.1550829;469.1550829;469.1550829;469.1550829;469.1550829;None;0;;;C:\2023\REPSWITCH21092023\REPSWITCH_excgange\REPSWITCH_excgange\data/400204_REPSWITCH1_version2_list4_2023-12-13_17h42.06.165_micRespv2l4_recorded\recording_micRespv2l4_2023-12-13_17h49.51.154.wav;472.176297;472.6763573;None;472.176297;472.176297;472.176297;472.176297;472.176297;472.176297;;;;;;400204;1;2023-12-13_17h42.06.165;REPSWITCH1_version2_list4;2022.2.4;144.0405393;
REPSWITCH1/PICTURE_728.png;pulpo;type;gold;switch;1;T;4;4;4;2;Stim8_Set4;0;None;98;97;98;0;97;97;97;;;;;;;;;;;;;;;;;;;;;;;472.6763573;473.7876758;473.7876758;473.7876758;473.7876758;473.7876758;473.7876758;473.7876758;473.7876758;['p', 'u', 'l', 'p', 'o'];0;[0.736253899987787, 0.8289947998709977, 1.0721771996468306, 1.3177801999263465, 1.4403760000132024];pulpo;C:\2023\REPSWITCH21092023\REPSWITCH_excgange\REPSWITCH_excgange\data/400204_REPSWITCH1_version2_list4_2023-12-13_17h42.06.165_micRespv2l4_recorded\recording_micRespv2l4_2023-12-13_17h49.55.787.wav;476.8158258;;None;476.8158258;476.8158258;476.8158258;476.8158258;476.8158258;476.8158258;;;;;;400204;1;2023-12-13_17h42.06.165;REPSWITCH1_version2_list4;2022.2.4;144.0405393;
REPSWITCH1/PICTURE_590.png;escoba;speak;darkblue;filler;2;F;4;4;4;2;Extra3;0;None;99;98;99;0;98;98;98;;;;;;;;;;;;;;;;;;;;;;;477.3159036;478.3785543;478.3785543;478.3785543;478.3785543;478.3785543;478.3785543;478.3785543;478.3785543;None;0;;;C:\2023\REPSWITCH21092023\REPSWITCH_excgange\REPSWITCH_excgange\data/400204_REPSWITCH1_version2_list4_2023-12-13_17h42.06.165_micRespv2l4_recorded\recording_micRespv2l4_2023-12-13_17h50.00.379.wav;481.4066771;;None;481.4066771;481.4066771;481.4066771;481.4066771;481.4066771;481.4066771;;;;;;400204;1;2023-12-13_17h42.06.165;REPSWITCH1_version2_list4;2022.2.4;144.0405393;
REPSWITCH1/PICTURE_235.png;aguja;type;gold;filler;1;F;4;4;4;2;Stim4_Set3;0;None;100;99;100;0;99;99;99;;;;;;;;;;;;;;;;;;;;;;;481.9067309;483.0110354;483.0110354;483.0110354;483.0110354;483.0110354;483.0110354;483.0110354;483.0110354;['a', 'g', 'u', 'j', 'a'];0;[0.6294030998833477, 0.7951817000284791, 0.8888348997570574, 1.0729725998826325, 1.101813499815762];aguja;C:\2023\REPSWITCH21092023\REPSWITCH_excgange\REPSWITCH_excgange\data/400204_REPSWITCH1_version2_list4_2023-12-13_17h42.06.165_micRespv2l4_recorded\recording_micRespv2l4_2023-12-13_17h50.05.010.wav;486.0322796;486.532352;None;486.0322796;486.0322796;486.0322796;486.0322796;486.0322796;486.0322796;;;;;;400204;1;2023-12-13_17h42.06.165;REPSWITCH1_version2_list4;2022.2.4;144.0405393;
REPSWITCH1/PICTURE_719.png;baño;type;gold;nontarget;1;NT;4;4;4;2;Stim2_Set4;1;repeat;101;100;101;0;100;100;100;;;;;;;;;;;;;;;;;;;;;;;486.532352;487.5672121;487.5672121;487.5672121;487.5672121;487.5672121;487.5672121;487.5672121;487.5672121;['b', 'a', 'ñ', 'o'];0;[0.7159148999489844, 0.7989878999069333, 0.962107399944216, 1.055767399724573];baño;C:\2023\REPSWITCH21092023\REPSWITCH_excgange\REPSWITCH_excgange\data/400204_REPSWITCH1_version2_list4_2023-12-13_17h42.06.165_micRespv2l4_recorded\recording_micRespv2l4_2023-12-13_17h50.09.567.wav;490.5884078;491.0885676;None;490.5884078;490.5884078;490.5884078;490.5884078;490.5884078;490.5884078;;;;;;400204;1;2023-12-13_17h42.06.165;REPSWITCH1_version2_list4;2022.2.4;144.0405393;
REPSWITCH1/PICTURE_719.png;baño;type;gold;repeat;1;T;4;4;4;2;Stim2_Set4;0;None;102;101;102;0;101;101;101;;;;;;;;;;;;;;;;;;;;;;;491.0885676;492.2067448;492.2067448;492.2067448;492.2067448;492.2067448;492.2067448;492.2067448;492.2067448;['b', 'a', 'ñ', 'o'];0;[0.5708924997597933, 0.6585955996997654, 0.7841518996283412, 0.8947846996597946];baño;C:\2023\REPSWITCH21092023\REPSWITCH_excgange\REPSWITCH_excgange\data/400204_REPSWITCH1_version2_list4_2023-12-13_17h42.06.165_micRespv2l4_recorded\recording_micRespv2l4_2023-12-13_17h50.14.206.wav;495.2348494;;space;495.2348494;495.2348494;495.2348494;495.2348494;495.2348494;495.2348494;495.7349033;495.7349033;8.3557131;;;400204;1;2023-12-13_17h42.06.165;REPSWITCH1_version2_list4;2022.2.4;144.0405393;
REPSWITCH1/PICTURE_646.png;tronco;speak;darkblue;filler;2;F;1;3;4;2;Extra4;0;None;103;102;1;0;102;102;102;;;;;;;;;;;;;;;;;;;;;;;504.1040933;505.2361689;505.2361689;505.2361689;505.2361689;505.2361689;505.2361689;505.2361689;505.2361689;None;0;;;C:\2023\REPSWITCH21092023\REPSWITCH_excgange\REPSWITCH_excgange\data/400204_REPSWITCH1_version2_list4_2023-12-13_17h42.06.165_micRespv2l4_recorded\recording_micRespv2l4_2023-12-13_17h50.27.235.wav;508.2643778;;None;508.2643778;508.2643778;508.2643778;508.2643778;508.2643778;508.2643778;;;;;;400204;1;2023-12-13_17h42.06.165;REPSWITCH1_version2_list4;2022.2.4;144.0405393;
REPSWITCH1/PICTURE_340.png;espejo;type;gold;filler;1;F;1;3;4;2;Extra1;0;None;104;103;2;0;103;103;103;;;;;;;;;;;;;;;;;;;;;;;508.7644319;509.8756798;509.8756798;509.8756798;509.8756798;509.8756798;509.8756798;509.8756798;509.8756798;['e', 's', 'p', 'e', 'j', 'o'];0;[0.6353739998303354, 0.7400785996578634, 0.8675894998013973, 0.9934558998793364, 1.0920107997953892, 1.3843721998855472];espejo;C:\2023\REPSWITCH21092023\REPSWITCH_excgange\REPSWITCH_excgange\data/400204_REPSWITCH1_version2_list4_2023-12-13_17h42.06.165_micRespv2l4_recorded\recording_micRespv2l4_2023-12-13_17h50.31.874.wav;512.8969816;513.3969583;None;512.8969816;512.8969816;512.8969816;512.8969816;512.8969816;512.8969816;;;;;;400204;1;2023-12-13_17h42.06.165;REPSWITCH1_version2_list4;2022.2.4;144.0405393;
REPSWITCH1/PICTURE_338.png;regalo;speak;darkblue;filler;2;F;1;3;4;2;Stim6_Set4;0;None;105;104;3;0;104;104;104;;;;;;;;;;;;;;;;;;;;;;;513.3969583;514.4040699;514.4040699;514.4040699;514.4040699;514.4040699;514.4040699;514.4040699;514.4040699;None;0;;;C:\2023\REPSWITCH21092023\REPSWITCH_excgange\REPSWITCH_excgange\data/400204_REPSWITCH1_version2_list4_2023-12-13_17h42.06.165_micRespv2l4_recorded\recording_micRespv2l4_2023-12-13_17h50.36.404.wav;517.4322391;;None;517.4322391;517.4322391;517.4322391;517.4322391;517.4322391;517.4322391;;;;;;400204;1;2023-12-13_17h42.06.165;REPSWITCH1_version2_list4;2022.2.4;144.0405393;
REPSWITCH1/PICTURE_142.png;vaso;speak;darkblue;nontarget;2;NT;1;3;4;2;Stim7_Set1;1;repeat;106;105;4;0;105;105;105;;;;;;;;;;;;;;;;;;;;;;;517.9323083;519.0783301;519.0783301;519.0783301;519.0783301;519.0783301;519.0783301;519.0783301;519.0783301;None;0;;;C:\2023\REPSWITCH21092023\REPSWITCH_excgange\REPSWITCH_excgange\data/400204_REPSWITCH1_version2_list4_2023-12-13_17h42.06.165_micRespv2l4_recorded\recording_micRespv2l4_2023-12-13_17h50.41.076.wav;522.0995837;522.5996606;None;522.0995837;522.0995837;522.0995837;522.0995837;522.0995837;522.0995837;;;;;;400204;1;2023-12-13_17h42.06.165;REPSWITCH1_version2_list4;2022.2.4;144.0405393;
REPSWITCH1/PICTURE_142.png;vaso;speak;darkblue;repeat;2;T;1;3;4;2;Stim7_Set1;0;None;107;106;5;0;106;106;106;;;;;;;;;;;;;;;;;;;;;;;522.5996606;523.7316869;523.7316869;523.7316869;523.7316869;523.7316869;523.7316869;523.7316869;523.7316869;None;0;;;C:\2023\REPSWITCH21092023\REPSWITCH_excgange\REPSWITCH_excgange\data/400204_REPSWITCH1_version2_list4_2023-12-13_17h42.06.165_micRespv2l4_recorded\recording_micRespv2l4_2023-12-13_17h50.45.731.wav;526.7598215;;None;526.7598215;526.7598215;526.7598215;526.7598215;526.7598215;526.7598215;;;;;;400204;1;2023-12-13_17h42.06.165;REPSWITCH1_version2_list4;2022.2.4;144.0405393;
REPSWITCH1/PICTURE_498.png;taza;type;gold;filler;1;F;1;3;4;2;Stim4_Set4;0;None;108;107;6;0;107;107;107;;;;;;;;;;;;;;;;;;;;;;;527.2598844;528.4267348;528.4267348;528.4267348;528.4267348;528.4267348;528.4267348;528.4267348;528.4267348;['t', 'a', 'z', 'a'];0;[0.5739278998225927, 0.6675785998813808, 0.8848381000570953, 1.0860935999080539];taza;C:\2023\REPSWITCH21092023\REPSWITCH_excgange\REPSWITCH_excgange\data/400204_REPSWITCH1_version2_list4_2023-12-13_17h42.06.165_micRespv2l4_recorded\recording_micRespv2l4_2023-12-13_17h50.50.425.wav;531.4479405;531.948102;None;531.4479405;531.4479405;531.4479405;531.4479405;531.4479405;531.4479405;;;;;;400204;1;2023-12-13_17h42.06.165;REPSWITCH1_version2_list4;2022.2.4;144.0405393;
REPSWITCH1/PICTURE_16.png;cazador;speak;darkblue;nontarget;2;NT;1;3;4;2;Stim6_Set1;1;switch;109;108;7;0;108;108;108;;;;;;;;;;;;;;;;;;;;;;;531.948102;533.0245732;533.0245732;533.0245732;533.0245732;533.0245732;533.0245732;533.0245732;533.0245732;None;0;;;C:\2023\REPSWITCH21092023\REPSWITCH_excgange\REPSWITCH_excgange\data/400204_REPSWITCH1_version2_list4_2023-12-13_17h42.06.165_micRespv2l4_recorded\recording_micRespv2l4_2023-12-13_17h50.55.024.wav;536.0527771;;None;536.0527771;536.0527771;536.0527771;536.0527771;536.0527771;536.0527771;;;;;;400204;1;2023-12-13_17h42.06.165;REPSWITCH1_version2_list4;2022.2.4;144.0405393;
REPSWITCH1/PICTURE_16.png;cazador;speak;darkblue;repeat;2;T;1;3;4;2;Stim6_Set1;0;None;110;109;8;0;109;109;109;;;;;;;;;;;;;;;;;;;;;;;536.5528414;537.6779967;537.6779967;537.6779967;537.6779967;537.6779967;537.6779967;537.6779967;537.6779967;None;0;;;C:\2023\REPSWITCH21092023\REPSWITCH_excgange\REPSWITCH_excgange\data/400204_REPSWITCH1_version2_list4_2023-12-13_17h42.06.165_micRespv2l4_recorded\recording_micRespv2l4_2023-12-13_17h50.59.677.wav;540.699183;541.1992415;None;540.699183;540.699183;540.699183;540.699183;540.699183;540.699183;;;;;;400204;1;2023-12-13_17h42.06.165;REPSWITCH1_version2_list4;2022.2.4;144.0405393;
REPSWITCH1/PICTURE_719.png;baño;type;gold;filler;1;F;1;3;4;2;Stim2_Set4;0;None;111;110;9;0;110;110;110;;;;;;;;;;;;;;;;;;;;;;;541.1992415;542.3036115;542.3036115;542.3036115;542.3036115;542.3036115;542.3036115;542.3036115;542.3036115;['b', 'a', 'ñ', 'o'];0;[0.7512874999083579, 0.9327261000871658, 1.0512772998772562, 1.1532300999388099];baño;C:\2023\REPSWITCH21092023\REPSWITCH_excgange\REPSWITCH_excgange\data/400204_REPSWITCH1_version2_list4_2023-12-13_17h42.06.165_micRespv2l4_recorded\recording_micRespv2l4_2023-12-13_17h51.04.302.wav;545.3247617;545.8248097;None;545.3247617;545.3247617;545.3247617;545.3247617;545.3247617;545.3247617;;;;;;400204;1;2023-12-13_17h42.06.165;REPSWITCH1_version2_list4;2022.2.4;144.0405393;
REPSWITCH1/PICTURE_169.png;espalda;speak;darkblue;nontarget;2;NT;1;3;4;2;Stim8_Set1;0;None;112;111;10;0;111;111;111;;;;;;;;;;;;;;;;;;;;;;;545.8248097;546.8666286;546.8666286;546.8666286;546.8666286;546.8666286;546.8666286;546.8666286;546.8666286;None;0;;;C:\2023\REPSWITCH21092023\REPSWITCH_excgange\REPSWITCH_excgange\data/400204_REPSWITCH1_version2_list4_2023-12-13_17h42.06.165_micRespv2l4_recorded\recording_micRespv2l4_2023-12-13_17h51.08.866.wav;549.8878454;550.3879225;None;549.8878454;549.8878454;549.8878454;549.8878454;549.8878454;549.8878454;;;;;;400204;1;2023-12-13_17h42.06.165;REPSWITCH1_version2_list4;2022.2.4;144.0405393;
REPSWITCH1/PICTURE_169.png;espalda;type;gold;switch;1;T;1;3;4;2;Stim8_Set1;0;None;113;112;11;0;112;112;112;;;;;;;;;;;;;;;;;;;;;;;550.3879225;551.520048;551.520048;551.520048;551.520048;551.520048;551.520048;551.520048;551.520048;['e', 's', 'p', 'a', 'l', 'd', 'a'];0;[0.6422395999543369, 0.735846699681133, 0.8620527000166476, 1.018530699890107, 1.109228499699384, 1.2816494000144303, 1.4193878998048604];espalda;C:\2023\REPSWITCH21092023\REPSWITCH_excgange\REPSWITCH_excgange\data/400204_REPSWITCH1_version2_list4_2023-12-13_17h42.06.165_micRespv2l4_recorded\recording_micRespv2l4_2023-12-13_17h51.13.519.wav;554.5412605;555.0414108;None;554.5412605;554.5412605;554.5412605;554.5412605;554.5412605;554.5412605;;;;;;400204;1;2023-12-13_17h42.06.165;REPSWITCH1_version2_list4;2022.2.4;144.0405393;
REPSWITCH1/PICTURE_687.png;camisa;type;gold;filler;1;F;1;3;4;2;Stim5_Set4;0;None;114;113;12;0;113;113;113;;;;;;;;;;;;;;;;;;;;;;;555.0414108;556.1734899;556.1734899;556.1734899;556.1734899;556.1734899;556.1734899;556.1734899;556.1734899;['c', 'a', 'm', 'i', 's', 'a'];0;[0.9086501998826861, 1.0162493996322155, 1.12092569982633, 1.248505599796772, 1.3974088998511434, 1.51995259989053];camisa;C:\2023\REPSWITCH21092023\REPSWITCH_excgange\REPSWITCH_excgange\data/400204_REPSWITCH1_version2_list4_2023-12-13_17h42.06.165_micRespv2l4_recorded\recording_micRespv2l4_2023-12-13_17h51.18.172.wav;559.1946229;559.6946946;None;559.1946229;559.1946229;559.1946229;559.1946229;559.1946229;559.1946229;;;;;;400204;1;2023-12-13_17h42.06.165;REPSWITCH1_version2_list4;2022.2.4;144.0405393;
REPSWITCH1/PICTURE_178.png;puente;type;gold;nontarget;1;NT;1;3;4;2;Stim1_Set1;1;repeat;115;114;13;0;114;114;114;;;;;;;;;;;;;;;;;;;;;;;559.6946946;560.7087379;560.7087379;560.7087379;560.7087379;560.7087379;560.7087379;560.7087379;560.7087379;['p', 'u', 'e', 'n', 't', 'e'];0;[0.6400306997820735, 0.7526815999299288, 0.929056900087744, 1.068632499780506, 1.1786332000046968, 1.2822825000621378];puente;C:\2023\REPSWITCH21092023\REPSWITCH_excgange\REPSWITCH_excgange\data/400204_REPSWITCH1_version2_list4_2023-12-13_17h42.06.165_micRespv2l4_recorded\recording_micRespv2l4_2023-12-13_17h51.22.708.wav;563.7369017;564.2369716;None;563.7369017;563.7369017;563.7369017;563.7369017;563.7369017;563.7369017;;;;;;400204;1;2023-12-13_17h42.06.165;REPSWITCH1_version2_list4;2022.2.4;144.0405393;
REPSWITCH1/PICTURE_178.png;puente;speak;darkblue;switch;2;T;1;3;4;2;Stim1_Set1;0;None;116;115;14;0;115;115;115;;;;;;;;;;;;;;;;;;;;;;;564.2369716;565.2996872;565.2996872;565.2996872;565.2996872;565.2996872;565.2996872;565.2996872;565.2996872;None;0;;;C:\2023\REPSWITCH21092023\REPSWITCH_excgange\REPSWITCH_excgange\data/400204_REPSWITCH1_version2_list4_2023-12-13_17h42.06.165_micRespv2l4_recorded\recording_micRespv2l4_2023-12-13_17h51.27.298.wav;568.3278463;;None;568.3278463;568.3278463;568.3278463;568.3278463;568.3278463;568.3278463;;;;;;400204;1;2023-12-13_17h42.06.165;REPSWITCH1_version2_list4;2022.2.4;144.0405393;
REPSWITCH1/PICTURE_128.png;muñeca;speak;darkblue;nontarget;2;NT;1;3;4;2;Stim4_Set1;1;repeat;117;116;15;0;116;116;116;;;;;;;;;;;;;;;;;;;;;;;568.8278421;569.9252305;569.9252305;569.9252305;569.9252305;569.9252305;569.9252305;569.9252305;569.9252305;None;0;;;C:\2023\REPSWITCH21092023\REPSWITCH_excgange\REPSWITCH_excgange\data/400204_REPSWITCH1_version2_list4_2023-12-13_17h42.06.165_micRespv2l4_recorded\recording_micRespv2l4_2023-12-13_17h51.31.924.wav;572.9464541;573.4466037;None;572.9464541;572.9464541;572.9464541;572.9464541;572.9464541;572.9464541;;;;;;400204;1;2023-12-13_17h42.06.165;REPSWITCH1_version2_list4;2022.2.4;144.0405393;
REPSWITCH1/PICTURE_128.png;muñeca;type;gold;switch;1;T;1;3;4;2;Stim4_Set1;0;None;118;117;16;0;117;117;117;;;;;;;;;;;;;;;;;;;;;;;573.4466037;574.5716672;574.5716672;574.5716672;574.5716672;574.5716672;574.5716672;574.5716672;574.5716672;['m', 'u', 'ñ', 'e', 'c', 'a'];0;[0.6450227000750601, 0.848923800047487, 1.1119254999794066, 1.2292406000196934, 1.39866829989478, 1.513474399689585];muñeca;C:\2023\REPSWITCH21092023\REPSWITCH_excgange\REPSWITCH_excgange\data/400204_REPSWITCH1_version2_list4_2023-12-13_17h42.06.165_micRespv2l4_recorded\recording_micRespv2l4_2023-12-13_17h51.36.571.wav;577.5998294;;None;577.5998294;577.5998294;577.5998294;577.5998294;577.5998294;577.5998294;;;;;;400204;1;2023-12-13_17h42.06.165;REPSWITCH1_version2_list4;2022.2.4;144.0405393;
REPSWITCH1/PICTURE_319.png;vaca;speak;darkblue;filler;2;F;1;3;4;2;Stim1_Set4;1;switch;119;118;17;0;118;118;118;;;;;;;;;;;;;;;;;;;;;;;578.0998918;579.2390102;579.2390102;579.2390102;579.2390102;579.2390102;579.2390102;579.2390102;579.2390102;None;0;;;C:\2023\REPSWITCH21092023\REPSWITCH_excgange\REPSWITCH_excgange\data/400204_REPSWITCH1_version2_list4_2023-12-13_17h42.06.165_micRespv2l4_recorded\recording_micRespv2l4_2023-12-13_17h51.41.238.wav;582.2601895;582.7602394;None;582.2601895;582.2601895;582.2601895;582.2601895;582.2601895;582.2601895;;;;;;400204;1;2023-12-13_17h42.06.165;REPSWITCH1_version2_list4;2022.2.4;144.0405393;
REPSWITCH1/PICTURE_728.png;pulpo;speak;darkblue;filler;2;F;1;3;4;2;Stim8_Set4;0;None;120;119;18;0;119;119;119;;;;;;;;;;;;;;;;;;;;;;;582.7602394;583.8159574;583.8159574;583.8159574;583.8159574;583.8159574;583.8159574;583.8159574;583.8159574;None;0;;;C:\2023\REPSWITCH21092023\REPSWITCH_excgange\REPSWITCH_excgange\data/400204_REPSWITCH1_version2_list4_2023-12-13_17h42.06.165_micRespv2l4_recorded\recording_micRespv2l4_2023-12-13_17h51.45.815.wav;586.8371403;587.337239;None;586.8371403;586.8371403;586.8371403;586.8371403;586.8371403;586.8371403;;;;;;400204;1;2023-12-13_17h42.06.165;REPSWITCH1_version2_list4;2022.2.4;144.0405393;
REPSWITCH1/PICTURE_381.png;fresa;type;gold;nontarget;1;NT;1;3;4;2;Stim2_Set1;1;switch;121;120;19;0;120;120;120;;;;;;;;;;;;;;;;;;;;;;;587.337239;588.517946;588.517946;588.517946;588.517946;588.517946;588.517946;588.517946;588.517946;['f', 'r', 'e', 's', 'a'];0;[0.5808955002576113, 0.7444537002593279, 0.8300808002240956, 0.9227378000505269, 1.2457020999863744];fresa;C:\2023\REPSWITCH21092023\REPSWITCH_excgange\REPSWITCH_excgange\data/400204_REPSWITCH1_version2_list4_2023-12-13_17h42.06.165_micRespv2l4_recorded\recording_micRespv2l4_2023-12-13_17h51.50.518.wav;591.5461125;;None;591.5461125;591.5461125;591.5461125;591.5461125;591.5461125;591.5461125;;;;;;400204;1;2023-12-13_17h42.06.165;REPSWITCH1_version2_list4;2022.2.4;144.0405393;
REPSWITCH1/PICTURE_381.png;fresa;type;gold;repeat;1;T;1;3;4;2;Stim2_Set1;0;None;122;121;20;0;121;121;121;;;;;;;;;;;;;;;;;;;;;;;592.0461972;593.0810685;593.0810685;593.0810685;593.0810685;593.0810685;593.0810685;593.0810685;593.0810685;['f', 'r', 'e', 's', 'a'];0;[0.6245702998712659, 0.790707899723202, 0.8726643999107182, 0.9946164996363223, 1.1360938996076584];fresa;C:\2023\REPSWITCH21092023\REPSWITCH_excgange\REPSWITCH_excgange\data/400204_REPSWITCH1_version2_list4_2023-12-13_17h42.06.165_micRespv2l4_recorded\recording_micRespv2l4_2023-12-13_17h51.55.081.wav;596.1022638;596.6023352;None;596.1022638;596.1022638;596.1022638;596.1022638;596.1022638;596.1022638;;;;;;400204;1;2023-12-13_17h42.06.165;REPSWITCH1_version2_list4;2022.2.4;144.0405393;
REPSWITCH1/PICTURE_8.png;pierna;speak;darkblue;filler;2;F;1;3;4;2;Stim3_Set4;0;None;123;122;21;0;122;122;122;;;;;;;;;;;;;;;;;;;;;;;596.6023352;597.713691;597.713691;597.713691;597.713691;597.713691;597.713691;597.713691;597.713691;None;0;;;C:\2023\REPSWITCH21092023\REPSWITCH_excgange\REPSWITCH_excgange\data/400204_REPSWITCH1_version2_list4_2023-12-13_17h42.06.165_micRespv2l4_recorded\recording_micRespv2l4_2023-12-13_17h51.59.712.wav;600.7348411;601.2348769;None;600.7348411;600.7348411;600.7348411;600.7348411;600.7348411;600.7348411;;;;;;400204;1;2023-12-13_17h42.06.165;REPSWITCH1_version2_list4;2022.2.4;144.0405393;
REPSWITCH1/PICTURE_48.png;bombero;speak;darkblue;filler;2;F;1;3;4;2;Stim7_Set4;0;None;124;123;22;0;123;123;123;;;;;;;;;;;;;;;;;;;;;;;601.2348769;602.3461781;602.3461781;602.3461781;602.3461781;602.3461781;602.3461781;602.3461781;602.3461781;None;0;;;C:\2023\REPSWITCH21092023\REPSWITCH_excgange\REPSWITCH_excgange\data/400204_REPSWITCH1_version2_list4_2023-12-13_17h42.06.165_micRespv2l4_recorded\recording_micRespv2l4_2023-12-13_17h52.04.345.wav;605.3673498;605.8674493;None;605.3673498;605.3673498;605.3673498;605.3673498;605.3673498;605.3673498;;;;;;400204;1;2023-12-13_17h42.06.165;REPSWITCH1_version2_list4;2022.2.4;144.0405393;
REPSWITCH1/PICTURE_135.png;traje;type;gold;nontarget;1;NT;1;3;4;2;Stim3_Set1;1;switch;125;124;23;0;124;124;124;;;;;;;;;;;;;;;;;;;;;;;605.8674493;607.0759342;607.0759342;607.0759342;607.0759342;607.0759342;607.0759342;607.0759342;607.0759342;['t', 'r', 'a', 'e', 'backspace', 'j', 'e'];0;[0.7042797999456525, 0.8320420999079943, 0.9189695995301008, 1.121588499750942, 1.6146531999111176, 1.861788499634713, 1.9973725997842848];traje;C:\2023\REPSWITCH21092023\REPSWITCH_excgange\REPSWITCH_excgange\data/400204_REPSWITCH1_version2_list4_2023-12-13_17h42.06.165_micRespv2l4_recorded\recording_micRespv2l4_2023-12-13_17h52.09.075.wav;610.0971778;610.5972405;None;610.0971778;610.0971778;610.0971778;610.0971778;610.0971778;610.0971778;;;;;;400204;1;2023-12-13_17h42.06.165;REPSWITCH1_version2_list4;2022.2.4;144.0405393;
REPSWITCH1/PICTURE_135.png;traje;type;gold;repeat;1;T;1;3;4;2;Stim3_Set1;0;None;126;125;24;0;125;125;125;;;;;;;;;;;;;;;;;;;;;;;610.5972405;611.6946389;611.6946389;611.6946389;611.6946389;611.6946389;611.6946389;611.6946389;611.6946389;['r', 'backspace', 't', 'r', 'a', 'j', 'e'];0;[0.8181553999893367, 1.2905711997300386, 1.3685987000353634, 1.5878351000137627, 1.7204558998346329, 1.9627600996755064, 2.1032027998007834];traje;C:\2023\REPSWITCH21092023\REPSWITCH_excgange\REPSWITCH_excgange\data/400204_REPSWITCH1_version2_list4_2023-12-13_17h42.06.165_micRespv2l4_recorded\recording_micRespv2l4_2023-12-13_17h52.13.693.wav;614.7158036;615.2158649;None;614.7158036;614.7158036;614.7158036;614.7158036;614.7158036;614.7158036;;;;;;400204;1;2023-12-13_17h42.06.165;REPSWITCH1_version2_list4;2022.2.4;144.0405393;
REPSWITCH1/PICTURE_19.png;pavo;type;gold;nontarget;1;NT;1;3;4;2;Stim5_Set1;1;repeat;127;126;25;0;126;126;126;;;;;;;;;;;;;;;;;;;;;;;615.2158649;616.354932;616.354932;616.354932;616.354932;616.354932;616.354932;616.354932;616.354932;['p', 'a', 'v', 'o'];0;[0.5977663001976907, 0.7063882001675665, 0.8482483997941017, 0.9388581998646259];pavo;C:\2023\REPSWITCH21092023\REPSWITCH_excgange\REPSWITCH_excgange\data/400204_REPSWITCH1_version2_list4_2023-12-13_17h42.06.165_micRespv2l4_recorded\recording_micRespv2l4_2023-12-13_17h52.18.355.wav;619.3831329;;None;619.3831329;619.3831329;619.3831329;619.3831329;619.3831329;619.3831329;;;;;;400204;1;2023-12-13_17h42.06.165;REPSWITCH1_version2_list4;2022.2.4;144.0405393;
REPSWITCH1/PICTURE_19.png;pavo;speak;darkblue;switch;2;T;1;3;4;2;Stim5_Set1;0;None;128;127;26;0;127;127;127;;;;;;;;;;;;;;;;;;;;;;;619.8832006;620.9874941;620.9874941;620.9874941;620.9874941;620.9874941;620.9874941;620.9874941;620.9874941;None;0;;;C:\2023\REPSWITCH21092023\REPSWITCH_excgange\REPSWITCH_excgange\data/400204_REPSWITCH1_version2_list4_2023-12-13_17h42.06.165_micRespv2l4_recorded\recording_micRespv2l4_2023-12-13_17h52.22.986.wav;624.0086907;624.5087641;None;624.0086907;624.0086907;624.0086907;624.0086907;624.0086907;624.0086907;;;;;;400204;1;2023-12-13_17h42.06.165;REPSWITCH1_version2_list4;2022.2.4;144.0405393;
REPSWITCH1/PICTURE_142.png;vaso;speak;darkblue;filler;2;F;2;3;4;2;Stim7_Set1;0;None;129;128;27;0;128;128;128;;;;;;;;;;;;;;;;;;;;;;;624.5087641;625.5714196;625.5714196;625.5714196;625.5714196;625.5714196;625.5714196;625.5714196;625.5714196;None;0;;;C:\2023\REPSWITCH21092023\REPSWITCH_excgange\REPSWITCH_excgange\data/400204_REPSWITCH1_version2_list4_2023-12-13_17h42.06.165_micRespv2l4_recorded\recording_micRespv2l4_2023-12-13_17h52.27.570.wav;628.5926637;629.0926999;None;628.5926637;628.5926637;628.5926637;628.5926637;628.5926637;628.5926637;;;;;;400204;1;2023-12-13_17h42.06.165;REPSWITCH1_version2_list4;2022.2.4;144.0405393;
REPSWITCH1/PICTURE_135.png;traje;type;gold;filler;1;F;2;3;4;2;Stim3_Set1;0;None;130;129;28;0;129;129;129;;;;;;;;;;;;;;;;;;;;;;;629.0926999;630.1484292;630.1484292;630.1484292;630.1484292;630.1484292;630.1484292;630.1484292;630.1484292;['t', 'r', 'a', 'j', 'e'];0;[0.6100832996889949, 0.7512908997014165, 0.8358413996174932, 0.9956405996344984, 1.058427999727428];traje;C:\2023\REPSWITCH21092023\REPSWITCH_excgange\REPSWITCH_excgange\data/400204_REPSWITCH1_version2_list4_2023-12-13_17h42.06.165_micRespv2l4_recorded\recording_micRespv2l4_2023-12-13_17h52.32.146.wav;633.1696524;633.6696916;None;633.1696524;633.1696524;633.1696524;633.1696524;633.1696524;633.1696524;;;;;;400204;1;2023-12-13_17h42.06.165;REPSWITCH1_version2_list4;2022.2.4;144.0405393;
REPSWITCH1/PICTURE_446.png;cerdo;type;gold;nontarget;1;NT;2;3;4;2;Stim7_Set2;0;None;131;130;29;0;130;130;130;;;;;;;;;;;;;;;;;;;;;;;633.6696916;634.8157276;634.8157276;634.8157276;634.8157276;634.8157276;634.8157276;634.8157276;634.8157276;['c', 'e', 'r', 'd', 'o'];0;[0.6673396998085082, 0.7770858998410404, 0.8914990997873247, 1.0628771996125579, 1.20443099969998];cerdo;C:\2023\REPSWITCH21092023\REPSWITCH_excgange\REPSWITCH_excgange\data/400204_REPSWITCH1_version2_list4_2023-12-13_17h42.06.165_micRespv2l4_recorded\recording_micRespv2l4_2023-12-13_17h52.36.815.wav;637.8369411;638.3370001;None;637.8369411;637.8369411;637.8369411;637.8369411;637.8369411;637.8369411;;;;;;400204;1;2023-12-13_17h42.06.165;REPSWITCH1_version2_list4;2022.2.4;144.0405393;
REPSWITCH1/PICTURE_446.png;cerdo;type;gold;repeat;1;T;2;3;4;2;Stim7_Set2;0;None;132;131;30;0;131;131;131;;;;;;;;;;;;;;;;;;;;;;;638.3370001;639.4273946;639.4273946;639.4273946;639.4273946;639.4273946;639.4273946;639.4273946;639.4273946;['c', 'e', 'r', 'd', 'o'];0;[0.4494512998498976, 0.5559716997668147, 0.6616421998478472, 0.8363533997908235, 0.966954399831593];cerdo;C:\2023\REPSWITCH21092023\REPSWITCH_excgange\REPSWITCH_excgange\data/400204_REPSWITCH1_version2_list4_2023-12-13_17h42.06.165_micRespv2l4_recorded\recording_micRespv2l4_2023-12-13_17h52.41.428.wav;642.4556506;642.9556585;None;642.4556506;642.4556506;642.4556506;642.4556506;642.4556506;642.4556506;;;;;;400204;1;2023-12-13_17h42.06.165;REPSWITCH1_version2_list4;2022.2.4;144.0405393;
REPSWITCH1/PICTURE_16.png;cazador;speak;darkblue;filler;2;F;2;3;4;2;Stim6_Set1;0;None;133;132;31;0;132;132;132;;;;;;;;;;;;;;;;;;;;;;;642.9556585;644.0460653;644.0460653;644.0460653;644.0460653;644.0460653;644.0460653;644.0460653;644.0460653;None;0;;;C:\2023\REPSWITCH21092023\REPSWITCH_excgange\REPSWITCH_excgange\data/400204_REPSWITCH1_version2_list4_2023-12-13_17h42.06.165_micRespv2l4_recorded\recording_micRespv2l4_2023-12-13_17h52.46.046.wav;647.0673601;647.5674437;None;647.0673601;647.0673601;647.0673601;647.0673601;647.0673601;647.0673601;;;;;;400204;1;2023-12-13_17h42.06.165;REPSWITCH1_version2_list4;2022.2.4;144.0405393;
REPSWITCH1/PICTURE_552.png;manzana;type;gold;nontarget;1;NT;2;3;4;2;Stim6_Set2;1;switch;134;133;32;0;133;133;133;;;;;;;;;;;;;;;;;;;;;;;647.5674437;648.6230731;648.6230731;648.6230731;648.6230731;648.6230731;648.6230731;648.6230731;648.6230731;['m', 'a', 'n', 'z', 'a', 'n', 'a'];0;[0.737767499871552, 0.8477003998123109, 0.9633553996682167, 1.0749748996458948, 1.256800899747759, 1.3873634994961321, 1.8056676997803152];manzana;C:\2023\REPSWITCH21092023\REPSWITCH_excgange\REPSWITCH_excgange\data/400204_REPSWITCH1_version2_list4_2023-12-13_17h42.06.165_micRespv2l4_recorded\recording_micRespv2l4_2023-12-13_17h52.50.623.wav;651.6442598;652.1443631;None;651.6442598;651.6442598;651.6442598;651.6442598;651.6442598;651.6442598;;;;;;400204;1;2023-12-13_17h42.06.165;REPSWITCH1_version2_list4;2022.2.4;144.0405393;
REPSWITCH1/PICTURE_552.png;manzana;type;gold;repeat;1;T;2;3;4;2;Stim6_Set2;0;None;135;134;33;0;134;134;134;;;;;;;;;;;;;;;;;;;;;;;652.1443631;653.3945201;653.3945201;653.3945201;653.3945201;653.3945201;653.3945201;653.3945201;653.3945201;['m', 'a', 'n', 'z', 'a', 'n', 'a'];0;[0.5312675000168383, 0.6000716998241842, 0.7286315998062491, 0.8522264999337494, 1.0984053001739085, 1.2373099001124501, 1.3687162999995053];manzana;C:\2023\REPSWITCH21092023\REPSWITCH_excgange\REPSWITCH_excgange\data/400204_REPSWITCH1_version2_list4_2023-12-13_17h42.06.165_micRespv2l4_recorded\recording_micRespv2l4_2023-12-13_17h52.55.395.wav;656.4226836;;None;656.4226836;656.4226836;656.4226836;656.4226836;656.4226836;656.4226836;;;;;;400204;1;2023-12-13_17h42.06.165;REPSWITCH1_version2_list4;2022.2.4;144.0405393;
REPSWITCH1/PICTURE_517.png;cuerda;type;gold;nontarget;1;NT;2;3;4;2;Stim4_Set2;0;None;136;135;34;0;135;135;135;;;;;;;;;;;;;;;;;;;;;;;656.9227445;658.0479057;658.0479057;658.0479057;658.0479057;658.0479057;658.0479057;658.0479057;658.0479057;['c', 'u', 'e', 'r', 'd', 'a'];0;[0.690259899944067, 0.8496583001688123, 0.9433454000391066, 1.0041449000127614, 1.1959951003082097, 1.3036382002756];cuerda;C:\2023\REPSWITCH21092023\REPSWITCH_excgange\REPSWITCH_excgange\data/400204_REPSWITCH1_version2_list4_2023-12-13_17h42.06.165_micRespv2l4_recorded\recording_micRespv2l4_2023-12-13_17h53.00.048.wav;661.0760975;;None;661.0760975;661.0760975;661.0760975;661.0760975;661.0760975;661.0760975;;;;;;400204;1;2023-12-13_17h42.06.165;REPSWITCH1_version2_list4;2022.2.4;144.0405393;
REPSWITCH1/PICTURE_517.png;cuerda;speak;darkblue;switch;2;T;2;3;4;2;Stim4_Set2;0;None;137;136;35;0;136;136;136;;;;;;;;;;;;;;;;;;;;;;;661.5761551;662.6457259;662.6457259;662.6457259;662.6457259;662.6457259;662.6457259;662.6457259;662.6457259;None;0;;;C:\2023\REPSWITCH21092023\REPSWITCH_excgange\REPSWITCH_excgange\data/400204_REPSWITCH1_version2_list4_2023-12-13_17h42.06.165_micRespv2l4_recorded\recording_micRespv2l4_2023-12-13_17h53.04.646.wav;665.6738942;666.1739931;None;665.6738942;665.6738942;665.6738942;665.6738942;665.6738942;665.6738942;;;;;;400204;1;2023-12-13_17h42.06.165;REPSWITCH1_version2_list4;2022.2.4;144.0405393;
REPSWITCH1/PICTURE_169.png;espalda;speak;darkblue;filler;2;F;2;3;4;2;Stim8_Set1;1;repeat;138;137;36;0;137;137;137;;;;;;;;;;;;;;;;;;;;;;;666.1739931;667.2227418;667.2227418;667.2227418;667.2227418;667.2227418;667.2227418;667.2227418;667.2227418;None;0;;;C:\2023\REPSWITCH21092023\REPSWITCH_excgange\REPSWITCH_excgange\data/400204_REPSWITCH1_version2_list4_2023-12-13_17h42.06.165_micRespv2l4_recorded\recording_micRespv2l4_2023-12-13_17h53.09.222.wav;670.2439629;670.7440304;None;670.2439629;670.2439629;670.2439629;670.2439629;670.2439629;670.2439629;;;;;;400204;1;2023-12-13_17h42.06.165;REPSWITCH1_version2_list4;2022.2.4;144.0405393;
REPSWITCH1/PICTURE_30.png;granja;speak;darkblue;nontarget;2;NT;2;3;4;2;Stim5_Set2;1;repeat;139;138;37;0;138;138;138;;;;;;;;;;;;;;;;;;;;;;;670.7440304;671.8553177;671.8553177;671.8553177;671.8553177;671.8553177;671.8553177;671.8553177;671.8553177;None;0;;;C:\2023\REPSWITCH21092023\REPSWITCH_excgange\REPSWITCH_excgange\data/400204_REPSWITCH1_version2_list4_2023-12-13_17h42.06.165_micRespv2l4_recorded\recording_micRespv2l4_2023-12-13_17h53.13.855.wav;674.8835293;;None;674.8835293;674.8835293;674.8835293;674.8835293;674.8835293;674.8835293;;;;;;400204;1;2023-12-13_17h42.06.165;REPSWITCH1_version2_list4;2022.2.4;144.0405393;
REPSWITCH1/PICTURE_30.png;granja;type;gold;switch;1;T;2;3;4;2;Stim5_Set2;0;None;140;139;38;0;139;139;139;;;;;;;;;;;;;;;;;;;;;;;675.3835105;676.4947598;676.4947598;676.4947598;676.4947598;676.4947598;676.4947598;676.4947598;676.4947598;['g', 'r', 'a', 'n', 'j', 'a'];0;[0.6874566995538771, 0.8569662994705141, 0.9635556996800005, 1.1871060994453728, 1.3833489995449781, 1.5069296997971833];granja;C:\2023\REPSWITCH21092023\REPSWITCH_excgange\REPSWITCH_excgange\data/400204_REPSWITCH1_version2_list4_2023-12-13_17h42.06.165_micRespv2l4_recorded\recording_micRespv2l4_2023-12-13_17h53.18.494.wav;679.5159906;680.0160676;None;679.5159906;679.5159906;679.5159906;679.5159906;679.5159906;679.5159906;;;;;;400204;1;2023-12-13_17h42.06.165;REPSWITCH1_version2_list4;2022.2.4;144.0405393;
REPSWITCH1/PICTURE_128.png;muñeca;type;gold;filler;1;F;2;3;4;2;Stim4_Set1;1;repeat;141;140;39;0;140;140;140;;;;;;;;;;;;;;;;;;;;;;;680.0160676;681.0786944;681.0786944;681.0786944;681.0786944;681.0786944;681.0786944;681.0786944;681.0786944;['m', 'u', 'ñ', 'e', 'c', 'a'];0;[0.5843829996883869, 0.7534664995037019, 0.9548732996918261, 0.9807820995338261, 1.270686799660325, 1.3663630997762084];muñeca;C:\2023\REPSWITCH21092023\REPSWITCH_excgange\REPSWITCH_excgange\data/400204_REPSWITCH1_version2_list4_2023-12-13_17h42.06.165_micRespv2l4_recorded\recording_micRespv2l4_2023-12-13_17h53.23.078.wav;684.0999104;684.600012;None;684.0999104;684.0999104;684.0999104;684.0999104;684.0999104;684.0999104;;;;;;400204;1;2023-12-13_17h42.06.165;REPSWITCH1_version2_list4;2022.2.4;144.0405393;
