image;correctAns;respModal;frameColor;repSwitch;sequence;target;set;block;list;exp_version;stimulus;baseline;baseline_condition;trial_no;psychopy_trial;Column1;trialsREPSWITCH.thisRepN;trialsREPSWITCH.thisTrialN;trialsREPSWITCH.thisN;trialsREPSWITCH.thisIndex;textWelcome.started;textboxInstrMain1.started;textboxInstrMain1_2.started;textboxInstrMain1_3.started;keyInstrMain.started;keyInstrMain.keys;keyInstrMain.rt;textboxInstrMain2.started;textboxInstrMain2_2.started;textboxInstrMain2_3.started;textboxInstrMain2_4.started;textboxInstrMain2_5.started;textboxInstrMain2_6.started;textboxInstrMain2_7.started;textboxInstrMain2_8.started;textboxInstrMain2_9.started;textboxInstrMain2_10.started;textboxInstrMain2_11.started;textboxInstrMain2_12.started;keyInstrMain2.started;keyInstrMain2.keys;keyInstrMain2.rt;fixationITI.started;fixationITI.stopped;polygonColour.started;polygonWhite.started;imageObject.started;polygonType.started;textInput.started;keyResp.started;micRespv2l1.started;keyResp.keys;keyResp.corr;keyResp.rt;subjResponse;micRespv2l1.clip;textBlankLoop.started;textBlankLoop.stopped;keyPause.keys;polygonColour.stopped;polygonWhite.stopped;imageObject.stopped;polygonType.stopped;textInput.stopped;keyResp.stopped;textboxPause.started;keyPause.started;keyPause.rt;textboxGoodbye.started;textboxGoodbye.stopped;participant;session;date;expName;psychopyVersion;frameRate;Column2
;;;;;;;;;;;;;;;;;;;;;10.6495822;13.1439068;13.1439068;13.1439068;13.1439068;space;13.2130313;;;;;;;;;;;;;;;;;;;;;;;;;;;;;;;;;;;;;;;;;;;;420201;1;2024-01-16_15h35.09.580;REPSWITCH1_version2_list1;2022.2.4;144.1343786;
;;;;;;;;;;;;;;;;;;;;;;;;;;;;26.3748213;26.3748213;26.3748213;26.3748213;26.3748213;26.3748213;26.3748213;26.3748213;26.3748213;26.3748213;26.3748213;26.3748213;26.3748213;space;3.078355399;;;;;;;;;;;;;;;;;;;;;;;;;;;;;420201;1;2024-01-16_15h35.09.580;REPSWITCH1_version2_list1;2022.2.4;144.1343786;
REPSWITCH1/PICTURE_340.png;espejo;type;gold;filler;1;F;1;1;1;2;Extra1;0;None;1;0;1;0;0;0;0;;;;;;;;;;;;;;;;;;;;;;;29.5557786;30.6601566;30.6601566;30.6601566;30.6601566;30.6601566;30.6601566;30.6601566;30.6601566;['e', 's', 'p', 'e', 'j', 'o'];0;[1.0302760992199183, 1.246497699059546, 1.4957270994782448, 1.6422318993136287, 1.936571299098432, 2.0582074988633394];espejo;C:\2023\REPSWITCH21092023\REPSWITCH_excgange\REPSWITCH_excgange\data/420201_REPSWITCH1_version2_list1_2024-01-16_15h35.09.580_micRespv2l1_recorded\recording_micRespv2l1_2024-01-16_15h35.34.475.wav;33.6813707;34.1813969;None;;;;;;;;;;;;420201;1;2024-01-16_15h35.09.580;REPSWITCH1_version2_list1;2022.2.4;144.1343786;
REPSWITCH1/PICTURE_391.png;cadena;speak;darkblue;filler;2;F;1;1;1;2;Extra2;0;None;2;1;2;0;1;1;1;;;;;;;;;;;;;;;;;;;;;;;34.1813969;35.250998;35.250998;35.250998;35.250998;35.250998;35.250998;35.250998;35.250998;None;0;;;C:\2023\REPSWITCH21092023\REPSWITCH_excgange\REPSWITCH_excgange\data/420201_REPSWITCH1_version2_list1_2024-01-16_15h35.09.580_micRespv2l1_recorded\recording_micRespv2l1_2024-01-16_15h35.39.068.wav;38.2791692;;None;38.2791692;38.2791692;38.2791692;38.2791692;38.2791692;38.2791692;;;;;;420201;1;2024-01-16_15h35.09.580;REPSWITCH1_version2_list1;2022.2.4;144.1343786;
REPSWITCH1/PICTURE_178.png;puente;speak;darkblue;nontarget;2;NT;1;1;1;2;Stim1_Set1;1;repeat;3;2;3;0;2;2;2;;;;;;;;;;;;;;;;;;;;;;;38.7792905;39.8349344;39.8349344;39.8349344;39.8349344;39.8349344;39.8349344;39.8349344;39.8349344;None;0;;;C:\2023\REPSWITCH21092023\REPSWITCH_excgange\REPSWITCH_excgange\data/420201_REPSWITCH1_version2_list1_2024-01-16_15h35.09.580_micRespv2l1_recorded\recording_micRespv2l1_2024-01-16_15h35.43.653.wav;42.8631274;;None;42.8631274;42.8631274;42.8631274;42.8631274;42.8631274;42.8631274;;;;;;420201;1;2024-01-16_15h35.09.580;REPSWITCH1_version2_list1;2022.2.4;144.1343786;
REPSWITCH1/PICTURE_178.png;puente;speak;darkblue;repeat;2;T;1;1;1;2;Stim1_Set1;0;None;4;3;4;0;3;3;3;;;;;;;;;;;;;;;;;;;;;;;43.3631617;44.418855;44.418855;44.418855;44.418855;44.418855;44.418855;44.418855;44.418855;None;0;;;C:\2023\REPSWITCH21092023\REPSWITCH_excgange\REPSWITCH_excgange\data/420201_REPSWITCH1_version2_list1_2024-01-16_15h35.09.580_micRespv2l1_recorded\recording_micRespv2l1_2024-01-16_15h35.48.237.wav;47.4470329;47.9470938;None;47.4470329;47.4470329;47.4470329;47.4470329;47.4470329;47.4470329;;;;;;420201;1;2024-01-16_15h35.09.580;REPSWITCH1_version2_list1;2022.2.4;144.1343786;
REPSWITCH1/PICTURE_319.png;vaca;type;gold;filler;1;F;1;1;1;2;Stim1_Set4;0;None;5;4;5;0;4;4;4;;;;;;;;;;;;;;;;;;;;;;;47.9470938;49.0791713;49.0791713;49.0791713;49.0791713;49.0791713;49.0791713;49.0791713;49.0791713;['v', 'a', 'c', 'a'];0;[1.5268949996680021, 1.6953202998265624, 1.8827296998351812, 1.9733926998451352];vaca;C:\2023\REPSWITCH21092023\REPSWITCH_excgange\REPSWITCH_excgange\data/420201_REPSWITCH1_version2_list1_2024-01-16_15h35.09.580_micRespv2l1_recorded\recording_micRespv2l1_2024-01-16_15h35.52.897.wav;52.1073609;;None;52.1073609;52.1073609;52.1073609;52.1073609;52.1073609;52.1073609;;;;;;420201;1;2024-01-16_15h35.09.580;REPSWITCH1_version2_list1;2022.2.4;144.1343786;
REPSWITCH1/PICTURE_381.png;fresa;speak;darkblue;nontarget;2;NT;1;1;1;2;Stim2_Set1;1;switch;6;5;6;0;5;5;5;;;;;;;;;;;;;;;;;;;;;;;52.6074094;53.6423155;53.6423155;53.6423155;53.6423155;53.6423155;53.6423155;53.6423155;53.6423155;None;0;;;C:\2023\REPSWITCH21092023\REPSWITCH_excgange\REPSWITCH_excgange\data/420201_REPSWITCH1_version2_list1_2024-01-16_15h35.09.580_micRespv2l1_recorded\recording_micRespv2l1_2024-01-16_15h35.57.460.wav;56.6704548;;None;56.6704548;56.6704548;56.6704548;56.6704548;56.6704548;56.6704548;;;;;;420201;1;2024-01-16_15h35.09.580;REPSWITCH1_version2_list1;2022.2.4;144.1343786;
REPSWITCH1/PICTURE_381.png;fresa;speak;darkblue;repeat;2;T;1;1;1;2;Stim2_Set1;0;None;7;6;7;0;6;6;6;;;;;;;;;;;;;;;;;;;;;;;57.1705146;58.3512116;58.3512116;58.3512116;58.3512116;58.3512116;58.3512116;58.3512116;58.3512116;None;0;;;C:\2023\REPSWITCH21092023\REPSWITCH_excgange\REPSWITCH_excgange\data/420201_REPSWITCH1_version2_list1_2024-01-16_15h35.09.580_micRespv2l1_recorded\recording_micRespv2l1_2024-01-16_15h36.02.169.wav;61.3724543;61.8725237;None;61.3724543;61.3724543;61.3724543;61.3724543;61.3724543;61.3724543;;;;;;420201;1;2024-01-16_15h35.09.580;REPSWITCH1_version2_list1;2022.2.4;144.1343786;
REPSWITCH1/PICTURE_719.png;baño;type;gold;filler;1;F;1;1;1;2;Stim2_Set4;1;switch;8;7;8;0;7;7;7;;;;;;;;;;;;;;;;;;;;;;;61.8725237;62.8934871;62.8934871;62.8934871;62.8934871;62.8934871;62.8934871;62.8934871;62.8934871;['b', 'a', 'ñ', 'o'];0;[1.3687439998611808, 1.682252500206232, 2.025047999806702, 2.2263740999624133];baño;C:\2023\REPSWITCH21092023\REPSWITCH_excgange\REPSWITCH_excgange\data/420201_REPSWITCH1_version2_list1_2024-01-16_15h35.09.580_micRespv2l1_recorded\recording_micRespv2l1_2024-01-16_15h36.06.711.wav;65.9216295;;None;65.9216295;65.9216295;65.9216295;65.9216295;65.9216295;65.9216295;;;;;;420201;1;2024-01-16_15h35.09.580;REPSWITCH1_version2_list1;2022.2.4;144.1343786;
REPSWITCH1/PICTURE_135.png;traje;speak;darkblue;nontarget;2;NT;1;1;1;2;Stim3_Set1;0;None;9;8;9;0;8;8;8;;;;;;;;;;;;;;;;;;;;;;;66.4217701;67.4982785;67.4982785;67.4982785;67.4982785;67.4982785;67.4982785;67.4982785;67.4982785;None;0;;;C:\2023\REPSWITCH21092023\REPSWITCH_excgange\REPSWITCH_excgange\data/420201_REPSWITCH1_version2_list1_2024-01-16_15h35.09.580_micRespv2l1_recorded\recording_micRespv2l1_2024-01-16_15h36.11.316.wav;70.5264663;;None;70.5264663;70.5264663;70.5264663;70.5264663;70.5264663;70.5264663;;;;;;420201;1;2024-01-16_15h35.09.580;REPSWITCH1_version2_list1;2022.2.4;144.1343786;
REPSWITCH1/PICTURE_135.png;traje;type;gold;switch;1;T;1;1;1;2;Stim3_Set1;0;None;10;9;10;0;9;9;9;;;;;;;;;;;;;;;;;;;;;;;71.0264918;72.2349943;72.2349943;72.2349943;72.2349943;72.2349943;72.2349943;72.2349943;72.2349943;['t', 'r', 'a', 'j', 'e'];0;[1.0873662997037172, 1.2817189991474152, 1.4566657990217209, 1.8306643990799785, 2.0740730995312333];traje;C:\2023\REPSWITCH21092023\REPSWITCH_excgange\REPSWITCH_excgange\data/420201_REPSWITCH1_version2_list1_2024-01-16_15h35.09.580_micRespv2l1_recorded\recording_micRespv2l1_2024-01-16_15h36.16.052.wav;75.2561741;75.7562656;None;75.2561741;75.2561741;75.2561741;75.2561741;75.2561741;75.2561741;;;;;;420201;1;2024-01-16_15h35.09.580;REPSWITCH1_version2_list1;2022.2.4;144.1343786;
REPSWITCH1/PICTURE_687.png;camisa;speak;darkblue;filler;2;F;1;1;1;2;Stim5_Set4;0;None;11;10;11;0;10;10;10;;;;;;;;;;;;;;;;;;;;;;;75.7562656;76.8327948;76.8327948;76.8327948;76.8327948;76.8327948;76.8327948;76.8327948;76.8327948;None;0;;;C:\2023\REPSWITCH21092023\REPSWITCH_excgange\REPSWITCH_excgange\data/420201_REPSWITCH1_version2_list1_2024-01-16_15h35.09.580_micRespv2l1_recorded\recording_micRespv2l1_2024-01-16_15h36.20.650.wav;79.854041;80.3540865;None;79.854041;79.854041;79.854041;79.854041;79.854041;79.854041;;;;;;420201;1;2024-01-16_15h35.09.580;REPSWITCH1_version2_list1;2022.2.4;144.1343786;
REPSWITCH1/PICTURE_128.png;muñeca;type;gold;nontarget;1;NT;1;1;1;2;Stim4_Set1;1;switch;12;11;12;0;11;11;11;;;;;;;;;;;;;;;;;;;;;;;80.3540865;81.5209386;81.5209386;81.5209386;81.5209386;81.5209386;81.5209386;81.5209386;81.5209386;['m', 'u', 'ñ', 'e', 'c', 'a'];0;[1.4565171990543604, 1.6680827988311648, 2.169399599544704, 2.3956181993708014, 2.6202002987265587, 2.836476399563253];muñeca;C:\2023\REPSWITCH21092023\REPSWITCH_excgange\REPSWITCH_excgange\data/420201_REPSWITCH1_version2_list1_2024-01-16_15h35.09.580_micRespv2l1_recorded\recording_micRespv2l1_2024-01-16_15h36.25.338.wav;84.5421757;85.0422185;None;84.5421757;84.5421757;84.5421757;84.5421757;84.5421757;84.5421757;;;;;;420201;1;2024-01-16_15h35.09.580;REPSWITCH1_version2_list1;2022.2.4;144.1343786;
REPSWITCH1/PICTURE_128.png;muñeca;speak;darkblue;switch;2;T;1;1;1;2;Stim4_Set1;0;None;13;12;13;0;12;12;12;;;;;;;;;;;;;;;;;;;;;;;85.0422185;86.1326847;86.1326847;86.1326847;86.1326847;86.1326847;86.1326847;86.1326847;86.1326847;None;0;;;C:\2023\REPSWITCH21092023\REPSWITCH_excgange\REPSWITCH_excgange\data/420201_REPSWITCH1_version2_list1_2024-01-16_15h35.09.580_micRespv2l1_recorded\recording_micRespv2l1_2024-01-16_15h36.29.951.wav;89.1608038;;None;89.1608038;89.1608038;89.1608038;89.1608038;89.1608038;89.1608038;;;;;;420201;1;2024-01-16_15h35.09.580;REPSWITCH1_version2_list1;2022.2.4;144.1343786;
REPSWITCH1/PICTURE_8.png;pierna;speak;darkblue;filler;2;F;1;1;1;2;Stim3_Set4;0;None;14;13;14;0;13;13;13;;;;;;;;;;;;;;;;;;;;;;;89.6608472;90.7026817;90.7026817;90.7026817;90.7026817;90.7026817;90.7026817;90.7026817;90.7026817;None;0;;;C:\2023\REPSWITCH21092023\REPSWITCH_excgange\REPSWITCH_excgange\data/420201_REPSWITCH1_version2_list1_2024-01-16_15h35.09.580_micRespv2l1_recorded\recording_micRespv2l1_2024-01-16_15h36.34.519.wav;93.7238811;94.2240373;None;93.7238811;93.7238811;93.7238811;93.7238811;93.7238811;93.7238811;;;;;;420201;1;2024-01-16_15h35.09.580;REPSWITCH1_version2_list1;2022.2.4;144.1343786;
REPSWITCH1/PICTURE_19.png;pavo;speak;darkblue;nontarget;2;NT;1;1;1;2;Stim5_Set1;0;None;15;14;15;0;14;14;14;;;;;;;;;;;;;;;;;;;;;;;94.2240373;95.3352046;95.3352046;95.3352046;95.3352046;95.3352046;95.3352046;95.3352046;95.3352046;None;0;;;C:\2023\REPSWITCH21092023\REPSWITCH_excgange\REPSWITCH_excgange\data/420201_REPSWITCH1_version2_list1_2024-01-16_15h35.09.580_micRespv2l1_recorded\recording_micRespv2l1_2024-01-16_15h36.39.152.wav;98.3564175;98.8565165;None;98.3564175;98.3564175;98.3564175;98.3564175;98.3564175;98.3564175;;;;;;420201;1;2024-01-16_15h35.09.580;REPSWITCH1_version2_list1;2022.2.4;144.1343786;
REPSWITCH1/PICTURE_19.png;pavo;type;gold;switch;1;T;1;1;1;2;Stim5_Set1;0;None;16;15;16;0;15;15;15;;;;;;;;;;;;;;;;;;;;;;;98.8565165;100.0233159;100.0233159;100.0233159;100.0233159;100.0233159;100.0233159;100.0233159;100.0233159;['p', 'a', 'v', 'o'];0;[1.028113898821175, 1.2318012993782759, 1.5754012987017632, 1.8157635992392898];pavo;C:\2023\REPSWITCH21092023\REPSWITCH_excgange\REPSWITCH_excgange\data/420201_REPSWITCH1_version2_list1_2024-01-16_15h35.09.580_micRespv2l1_recorded\recording_micRespv2l1_2024-01-16_15h36.43.841.wav;103.051513;;None;103.051513;103.051513;103.051513;103.051513;103.051513;103.051513;;;;;;420201;1;2024-01-16_15h35.09.580;REPSWITCH1_version2_list1;2022.2.4;144.1343786;
REPSWITCH1/PICTURE_16.png;cazador;type;gold;nontarget;1;NT;1;1;1;2;Stim6_Set1;1;switch;17;16;17;0;16;16;16;;;;;;;;;;;;;;;;;;;;;;;103.5515655;104.6003126;104.6003126;104.6003126;104.6003126;104.6003126;104.6003126;104.6003126;104.6003126;['c', 'a', 'z', 'a'];0;[2.307643199339509, 2.4264501994475722, 2.6616913992911577, 2.757327899336815];caza;C:\2023\REPSWITCH21092023\REPSWITCH_excgange\REPSWITCH_excgange\data/420201_REPSWITCH1_version2_list1_2024-01-16_15h35.09.580_micRespv2l1_recorded\recording_micRespv2l1_2024-01-16_15h36.48.418.wav;107.6216222;108.1216247;None;107.6216222;107.6216222;107.6216222;107.6216222;107.6216222;107.6216222;;;;;;420201;1;2024-01-16_15h35.09.580;REPSWITCH1_version2_list1;2022.2.4;144.1343786;
REPSWITCH1/PICTURE_16.png;cazador;type;gold;repeat;1;T;1;1;1;2;Stim6_Set1;0;None;18;17;18;0;17;17;17;;;;;;;;;;;;;;;;;;;;;;;108.1216247;109.2120711;109.2120711;109.2120711;109.2120711;109.2120711;109.2120711;109.2120711;109.2120711;['c', 'a', 'z', 'a', 'd', 'o', 'r'];0;[1.183491699397564, 1.3014252996072173, 1.5116874994710088, 1.6963762994855642, 2.2291048988699913, 2.395474599674344, 2.498132299631834];cazador;C:\2023\REPSWITCH21092023\REPSWITCH_excgange\REPSWITCH_excgange\data/420201_REPSWITCH1_version2_list1_2024-01-16_15h35.09.580_micRespv2l1_recorded\recording_micRespv2l1_2024-01-16_15h36.53.029.wav;112.2402419;;None;112.2402419;112.2402419;112.2402419;112.2402419;112.2402419;112.2402419;;;;;;420201;1;2024-01-16_15h35.09.580;REPSWITCH1_version2_list1;2022.2.4;144.1343786;
REPSWITCH1/PICTURE_498.png;taza;speak;darkblue;filler;2;F;1;1;1;2;Stim4_Set4;0;None;19;18;19;0;18;18;18;;;;;;;;;;;;;;;;;;;;;;;112.7402763;113.8584984;113.8584984;113.8584984;113.8584984;113.8584984;113.8584984;113.8584984;113.8584984;None;0;;;C:\2023\REPSWITCH21092023\REPSWITCH_excgange\REPSWITCH_excgange\data/420201_REPSWITCH1_version2_list1_2024-01-16_15h35.09.580_micRespv2l1_recorded\recording_micRespv2l1_2024-01-16_15h36.57.676.wav;116.8866581;117.386695;None;116.8866581;116.8866581;116.8866581;116.8866581;116.8866581;116.8866581;;;;;;420201;1;2024-01-16_15h35.09.580;REPSWITCH1_version2_list1;2022.2.4;144.1343786;
REPSWITCH1/PICTURE_48.png;bombero;type;gold;filler;1;F;1;1;1;2;Stim7_Set4;0;None;20;19;20;0;19;19;19;;;;;;;;;;;;;;;;;;;;;;;117.386695;118.4423958;118.4423958;118.4423958;118.4423958;118.4423958;118.4423958;118.4423958;118.4423958;['b', 'o', 'm', 'b', 'e', 'r', 'o'];0;[1.3569560991600156, 1.6509614996612072, 1.8926522992551327, 2.1228759996593, 2.2916168989613652, 2.469280899502337, 2.615791198797524];bombero;C:\2023\REPSWITCH21092023\REPSWITCH_excgange\REPSWITCH_excgange\data/420201_REPSWITCH1_version2_list1_2024-01-16_15h35.09.580_micRespv2l1_recorded\recording_micRespv2l1_2024-01-16_15h37.02.260.wav;121.4705854;121.9706316;None;121.4705854;121.4705854;121.4705854;121.4705854;121.4705854;121.4705854;;;;;;420201;1;2024-01-16_15h35.09.580;REPSWITCH1_version2_list1;2022.2.4;144.1343786;
REPSWITCH1/PICTURE_142.png;vaso;type;gold;nontarget;1;NT;1;1;1;2;Stim7_Set1;1;repeat;21;20;21;0;20;20;20;;;;;;;;;;;;;;;;;;;;;;;121.9706316;123.0957762;123.0957762;123.0957762;123.0957762;123.0957762;123.0957762;123.0957762;123.0957762;['v', 'a', 's', 'o'];0;[1.2205894002690911, 1.3660618998110294, 1.572397300042212, 1.7460601003840566];vaso;C:\2023\REPSWITCH21092023\REPSWITCH_excgange\REPSWITCH_excgange\data/420201_REPSWITCH1_version2_list1_2024-01-16_15h35.09.580_micRespv2l1_recorded\recording_micRespv2l1_2024-01-16_15h37.06.913.wav;126.1170038;126.6170965;None;126.1170038;126.1170038;126.1170038;126.1170038;126.1170038;126.1170038;;;;;;420201;1;2024-01-16_15h35.09.580;REPSWITCH1_version2_list1;2022.2.4;144.1343786;
REPSWITCH1/PICTURE_142.png;vaso;type;gold;repeat;1;T;1;1;1;2;Stim7_Set1;0;None;22;21;22;0;21;21;21;;;;;;;;;;;;;;;;;;;;;;;126.6170965;127.6936006;127.6936006;127.6936006;127.6936006;127.6936006;127.6936006;127.6936006;127.6936006;['v', 'a', 's', 'o'];0;[1.13099529966712, 1.4638361996039748, 1.6591790998354554, 1.7827631998807192];vaso;C:\2023\REPSWITCH21092023\REPSWITCH_excgange\REPSWITCH_excgange\data/420201_REPSWITCH1_version2_list1_2024-01-16_15h35.09.580_micRespv2l1_recorded\recording_micRespv2l1_2024-01-16_15h37.11.512.wav;130.7217526;;None;130.7217526;130.7217526;130.7217526;130.7217526;130.7217526;130.7217526;;;;;;420201;1;2024-01-16_15h35.09.580;REPSWITCH1_version2_list1;2022.2.4;144.1343786;
REPSWITCH1/PICTURE_338.png;regalo;speak;darkblue;filler;2;F;1;1;1;2;Stim6_Set4;1;switch;23;22;23;0;22;22;22;;;;;;;;;;;;;;;;;;;;;;;131.2218351;132.2983798;132.2983798;132.2983798;132.2983798;132.2983798;132.2983798;132.2983798;132.2983798;None;0;;;C:\2023\REPSWITCH21092023\REPSWITCH_excgange\REPSWITCH_excgange\data/420201_REPSWITCH1_version2_list1_2024-01-16_15h35.09.580_micRespv2l1_recorded\recording_micRespv2l1_2024-01-16_15h37.16.116.wav;135.3265669;;None;135.3265669;135.3265669;135.3265669;135.3265669;135.3265669;135.3265669;;;;;;420201;1;2024-01-16_15h35.09.580;REPSWITCH1_version2_list1;2022.2.4;144.1343786;
REPSWITCH1/PICTURE_728.png;pulpo;type;gold;filler;1;F;1;1;1;2;Stim8_Set4;1;switch;24;23;24;0;23;23;23;;;;;;;;;;;;;;;;;;;;;;;135.8266328;136.9170333;136.9170333;136.9170333;136.9170333;136.9170333;136.9170333;136.9170333;136.9170333;['p', 'u', 'l', 'p', 'o'];0;[1.1909396992996335, 1.5727176992222667, 1.846132199279964, 2.1948653990402818, 2.3692825995385647];pulpo;C:\2023\REPSWITCH21092023\REPSWITCH_excgange\REPSWITCH_excgange\data/420201_REPSWITCH1_version2_list1_2024-01-16_15h35.09.580_micRespv2l1_recorded\recording_micRespv2l1_2024-01-16_15h37.20.734.wav;139.9382569;140.4384153;None;139.9382569;139.9382569;139.9382569;139.9382569;139.9382569;139.9382569;;;;;;420201;1;2024-01-16_15h35.09.580;REPSWITCH1_version2_list1;2022.2.4;144.1343786;
REPSWITCH1/PICTURE_169.png;espalda;type;gold;nontarget;1;NT;1;1;1;2;Stim8_Set1;1;repeat;25;24;25;0;24;24;24;;;;;;;;;;;;;;;;;;;;;;;140.4384153;141.5148704;141.5148704;141.5148704;141.5148704;141.5148704;141.5148704;141.5148704;141.5148704;['e', 's', 'p', 'a', 'l', 'd', 'a'];0;[1.1657759994268417, 1.3571366993710399, 1.5228250995278358, 1.6177674997597933, 1.7503765998408198, 2.0026944000273943, 2.2325114998966455];espalda;C:\2023\REPSWITCH21092023\REPSWITCH_excgange\REPSWITCH_excgange\data/420201_REPSWITCH1_version2_list1_2024-01-16_15h35.09.580_micRespv2l1_recorded\recording_micRespv2l1_2024-01-16_15h37.25.332.wav;144.5430496;;None;144.5430496;144.5430496;144.5430496;144.5430496;144.5430496;144.5430496;;;;;;420201;1;2024-01-16_15h35.09.580;REPSWITCH1_version2_list1;2022.2.4;144.1343786;
REPSWITCH1/PICTURE_169.png;espalda;speak;darkblue;switch;2;T;1;1;1;2;Stim8_Set1;0;None;26;25;26;0;25;25;25;;;;;;;;;;;;;;;;;;;;;;;145.0431845;146.182201;146.182201;146.182201;146.182201;146.182201;146.182201;146.182201;146.182201;None;0;;;C:\2023\REPSWITCH21092023\REPSWITCH_excgange\REPSWITCH_excgange\data/420201_REPSWITCH1_version2_list1_2024-01-16_15h35.09.580_micRespv2l1_recorded\recording_micRespv2l1_2024-01-16_15h37.30.000.wav;149.2103029;;None;149.2103029;149.2103029;149.2103029;149.2103029;149.2103029;149.2103029;;;;;;420201;1;2024-01-16_15h35.09.580;REPSWITCH1_version2_list1;2022.2.4;144.1343786;
REPSWITCH1/PICTURE_178.png;puente;speak;darkblue;filler;2;F;2;1;1;2;Stim1_Set1;0;None;27;26;27;0;26;26;26;;;;;;;;;;;;;;;;;;;;;;;149.7104059;150.7730097;150.7730097;150.7730097;150.7730097;150.7730097;150.7730097;150.7730097;150.7730097;None;0;;;C:\2023\REPSWITCH21092023\REPSWITCH_excgange\REPSWITCH_excgange\data/420201_REPSWITCH1_version2_list1_2024-01-16_15h35.09.580_micRespv2l1_recorded\recording_micRespv2l1_2024-01-16_15h37.34.589.wav;153.7942569;154.294325;None;153.7942569;153.7942569;153.7942569;153.7942569;153.7942569;153.7942569;;;;;;420201;1;2024-01-16_15h35.09.580;REPSWITCH1_version2_list1;2022.2.4;144.1343786;
REPSWITCH1/PICTURE_175.png;pintor;type;gold;nontarget;1;NT;2;1;1;2;Stim1_Set2;1;switch;28;27;28;0;27;27;27;;;;;;;;;;;;;;;;;;;;;;;154.294325;155.3917507;155.3917507;155.3917507;155.3917507;155.3917507;155.3917507;155.3917507;155.3917507;['p', 'i', 'n', 't', 'o', 'r'];0;[1.3074002992361784, 1.5166805991902947, 1.7123807994648814, 1.9093884993344545, 2.0628131991252303, 2.1784863993525505];pintor;C:\2023\REPSWITCH21092023\REPSWITCH_excgange\REPSWITCH_excgange\data/420201_REPSWITCH1_version2_list1_2024-01-16_15h35.09.580_micRespv2l1_recorded\recording_micRespv2l1_2024-01-16_15h37.39.209.wav;158.4128842;158.9129738;None;158.4128842;158.4128842;158.4128842;158.4128842;158.4128842;158.4128842;;;;;;420201;1;2024-01-16_15h35.09.580;REPSWITCH1_version2_list1;2022.2.4;144.1343786;
REPSWITCH1/PICTURE_175.png;pintor;type;gold;repeat;1;T;2;1;1;2;Stim1_Set2;0;None;29;28;29;0;28;28;28;;;;;;;;;;;;;;;;;;;;;;;158.9129738;159.9756413;159.9756413;159.9756413;159.9756413;159.9756413;159.9756413;159.9756413;159.9756413;['p', 'i', 'n', 't', 'r'];0;[0.9736194992437959, 1.2217673994600773, 1.9259327994659543, 2.156146098859608, 2.4678438995033503];pintr;C:\2023\REPSWITCH21092023\REPSWITCH_excgange\REPSWITCH_excgange\data/420201_REPSWITCH1_version2_list1_2024-01-16_15h35.09.580_micRespv2l1_recorded\recording_micRespv2l1_2024-01-16_15h37.43.793.wav;162.9968976;163.4968778;None;162.9968976;162.9968976;162.9968976;162.9968976;162.9968976;162.9968976;;;;;;420201;1;2024-01-16_15h35.09.580;REPSWITCH1_version2_list1;2022.2.4;144.1343786;
REPSWITCH1/PICTURE_381.png;fresa;speak;darkblue;filler;2;F;2;1;1;2;Stim2_Set1;0;None;30;29;30;0;29;29;29;;;;;;;;;;;;;;;;;;;;;;;163.4968778;164.5595333;164.5595333;164.5595333;164.5595333;164.5595333;164.5595333;164.5595333;164.5595333;None;0;;;C:\2023\REPSWITCH21092023\REPSWITCH_excgange\REPSWITCH_excgange\data/420201_REPSWITCH1_version2_list1_2024-01-16_15h35.09.580_micRespv2l1_recorded\recording_micRespv2l1_2024-01-16_15h37.48.377.wav;167.580781;168.0808221;None;167.580781;167.580781;167.580781;167.580781;167.580781;167.580781;;;;;;420201;1;2024-01-16_15h35.09.580;REPSWITCH1_version2_list1;2022.2.4;144.1343786;
REPSWITCH1/PICTURE_152.png;caracol;type;gold;nontarget;1;NT;2;1;1;2;Stim2_Set2;1;switch;31;30;31;0;30;30;30;;;;;;;;;;;;;;;;;;;;;;;168.0808221;169.3032083;169.3032083;169.3032083;169.3032083;169.3032083;169.3032083;169.3032083;169.3032083;['c', 'a', 'r', 'a', 'c', 'o', 'l'];0;[1.2073870990425348, 1.286086299456656, 1.4057226991280913, 1.4764643991366029, 1.7336311992257833, 1.9300414994359016, 2.097381799481809];caracol;C:\2023\REPSWITCH21092023\REPSWITCH_excgange\REPSWITCH_excgange\data/420201_REPSWITCH1_version2_list1_2024-01-16_15h35.09.580_micRespv2l1_recorded\recording_micRespv2l1_2024-01-16_15h37.53.121.wav;172.3314031;;None;172.3314031;172.3314031;172.3314031;172.3314031;172.3314031;172.3314031;;;;;;420201;1;2024-01-16_15h35.09.580;REPSWITCH1_version2_list1;2022.2.4;144.1343786;
REPSWITCH1/PICTURE_152.png;caracol;type;gold;repeat;1;T;2;1;1;2;Stim2_Set2;0;None;32;31;32;0;31;31;31;;;;;;;;;;;;;;;;;;;;;;;172.8315361;173.8940948;173.8940948;173.8940948;173.8940948;173.8940948;173.8940948;173.8940948;173.8940948;['c', 'a', 'r', 'a', 'c', 'o', 'l'];0;[0.9429682986810803, 1.207074599340558, 1.3815803993493319, 1.447275498881936, 1.6967213992029428, 1.8612417988479137, 2.031501499004662];caracol;C:\2023\REPSWITCH21092023\REPSWITCH_excgange\REPSWITCH_excgange\data/420201_REPSWITCH1_version2_list1_2024-01-16_15h35.09.580_micRespv2l1_recorded\recording_micRespv2l1_2024-01-16_15h37.57.712.wav;176.9223542;;None;176.9223542;176.9223542;176.9223542;176.9223542;176.9223542;176.9223542;;;;;;420201;1;2024-01-16_15h35.09.580;REPSWITCH1_version2_list1;2022.2.4;144.1343786;
REPSWITCH1/PICTURE_128.png;muñeca;speak;darkblue;filler;2;F;2;1;1;2;Stim4_Set1;0;None;33;32;33;0;32;32;32;;;;;;;;;;;;;;;;;;;;;;;177.4223587;178.609983;178.609983;178.609983;178.609983;178.609983;178.609983;178.609983;178.609983;None;0;;;C:\2023\REPSWITCH21092023\REPSWITCH_excgange\REPSWITCH_excgange\data/420201_REPSWITCH1_version2_list1_2024-01-16_15h35.09.580_micRespv2l1_recorded\recording_micRespv2l1_2024-01-16_15h38.02.427.wav;181.6312147;182.1312897;None;181.6312147;181.6312147;181.6312147;181.6312147;181.6312147;181.6312147;;;;;;420201;1;2024-01-16_15h35.09.580;REPSWITCH1_version2_list1;2022.2.4;144.1343786;
REPSWITCH1/PICTURE_264.png;mano;type;gold;nontarget;1;NT;2;1;1;2;Stim3_Set2;0;None;34;33;34;0;33;33;33;;;;;;;;;;;;;;;;;;;;;;;182.1312897;183.3745243;183.3745243;183.3745243;183.3745243;183.3745243;183.3745243;183.3745243;183.3745243;['m', 'a', 'n', 'o'];0;[0.9528937991708517, 1.0565444994717836, 1.2110142996534705, 1.3944011991843581];mano;C:\2023\REPSWITCH21092023\REPSWITCH_excgange\REPSWITCH_excgange\data/420201_REPSWITCH1_version2_list1_2024-01-16_15h35.09.580_micRespv2l1_recorded\recording_micRespv2l1_2024-01-16_15h38.07.192.wav;186.4026696;;None;186.4026696;186.4026696;186.4026696;186.4026696;186.4026696;186.4026696;;;;;;420201;1;2024-01-16_15h35.09.580;REPSWITCH1_version2_list1;2022.2.4;144.1343786;
REPSWITCH1/PICTURE_264.png;mano;speak;darkblue;switch;2;T;2;1;1;2;Stim3_Set2;0;None;35;34;35;0;34;34;34;;;;;;;;;;;;;;;;;;;;;;;186.9027983;188.0000993;188.0000993;188.0000993;188.0000993;188.0000993;188.0000993;188.0000993;188.0000993;None;0;;;C:\2023\REPSWITCH21092023\REPSWITCH_excgange\REPSWITCH_excgange\data/420201_REPSWITCH1_version2_list1_2024-01-16_15h35.09.580_micRespv2l1_recorded\recording_micRespv2l1_2024-01-16_15h38.11.817.wav;191.0213262;191.5213961;None;191.0213262;191.0213262;191.0213262;191.0213262;191.0213262;191.0213262;;;;;;420201;1;2024-01-16_15h35.09.580;REPSWITCH1_version2_list1;2022.2.4;144.1343786;
REPSWITCH1/PICTURE_517.png;cuerda;speak;darkblue;nontarget;2;NT;2;1;1;2;Stim4_Set2;1;repeat;36;35;36;0;35;35;35;;;;;;;;;;;;;;;;;;;;;;;191.5213961;192.6049057;192.6049057;192.6049057;192.6049057;192.6049057;192.6049057;192.6049057;192.6049057;None;0;;;C:\2023\REPSWITCH21092023\REPSWITCH_excgange\REPSWITCH_excgange\data/420201_REPSWITCH1_version2_list1_2024-01-16_15h35.09.580_micRespv2l1_recorded\recording_micRespv2l1_2024-01-16_15h38.16.423.wav;195.6330609;;None;195.6330609;195.6330609;195.6330609;195.6330609;195.6330609;195.6330609;;;;;;420201;1;2024-01-16_15h35.09.580;REPSWITCH1_version2_list1;2022.2.4;144.1343786;
REPSWITCH1/PICTURE_517.png;cuerda;type;gold;switch;1;T;2;1;1;2;Stim4_Set2;0;None;37;36;37;0;36;36;36;;;;;;;;;;;;;;;;;;;;;;;196.1331106;197.2166084;197.2166084;197.2166084;197.2166084;197.2166084;197.2166084;197.2166084;197.2166084;['c', 'u', 'e', 'r', 'd', 'a'];0;[1.2985987989231944, 1.5028463993221521, 1.6712849996984005, 2.000259199179709, 2.2176036993041635, 2.448405599221587];cuerda;C:\2023\REPSWITCH21092023\REPSWITCH_excgange\REPSWITCH_excgange\data/420201_REPSWITCH1_version2_list1_2024-01-16_15h35.09.580_micRespv2l1_recorded\recording_micRespv2l1_2024-01-16_15h38.21.033.wav;200.2378266;200.7379482;None;200.2378266;200.2378266;200.2378266;200.2378266;200.2378266;200.2378266;;;;;;420201;1;2024-01-16_15h35.09.580;REPSWITCH1_version2_list1;2022.2.4;144.1343786;
REPSWITCH1/PICTURE_135.png;traje;type;gold;filler;1;F;2;1;1;2;Stim3_Set1;0;None;38;37;38;0;37;37;37;;;;;;;;;;;;;;;;;;;;;;;200.7379482;201.981195;201.981195;201.981195;201.981195;201.981195;201.981195;201.981195;201.981195;['t', 'r', 'a', 'j', 'e'];0;[1.344781099818647, 1.5231675999239087, 1.6700179995968938, 2.0853625992313027, 2.2380582997575402];traje;C:\2023\REPSWITCH21092023\REPSWITCH_excgange\REPSWITCH_excgange\data/420201_REPSWITCH1_version2_list1_2024-01-16_15h35.09.580_micRespv2l1_recorded\recording_micRespv2l1_2024-01-16_15h38.25.799.wav;205.0092859;;None;205.0092859;205.0092859;205.0092859;205.0092859;205.0092859;205.0092859;;;;;;420201;1;2024-01-16_15h35.09.580;REPSWITCH1_version2_list1;2022.2.4;144.1343786;
REPSWITCH1/PICTURE_30.png;granja;type;gold;nontarget;1;NT;2;1;1;2;Stim5_Set2;1;repeat;39;38;39;0;38;38;38;;;;;;;;;;;;;;;;;;;;;;;205.509349;206.5580728;206.5580728;206.5580728;206.5580728;206.5580728;206.5580728;206.5580728;206.5580728;['g', 'r', 'a', 'n', 'j', 'a'];0;[1.5244769994169474, 1.760827099904418, 1.925539999268949, 2.271342199295759, 2.446104899980128, 2.5478463992476463];granja;C:\2023\REPSWITCH21092023\REPSWITCH_excgange\REPSWITCH_excgange\data/420201_REPSWITCH1_version2_list1_2024-01-16_15h35.09.580_micRespv2l1_recorded\recording_micRespv2l1_2024-01-16_15h38.30.376.wav;209.5863507;210.0864098;None;209.5863507;209.5863507;209.5863507;209.5863507;209.5863507;209.5863507;;;;;;420201;1;2024-01-16_15h35.09.580;REPSWITCH1_version2_list1;2022.2.4;144.1343786;
REPSWITCH1/PICTURE_30.png;granja;speak;darkblue;switch;2;T;2;1;1;2;Stim5_Set2;0;None;40;39;40;0;39;39;39;;;;;;;;;;;;;;;;;;;;;;;210.0864098;211.169796;211.169796;211.169796;211.169796;211.169796;211.169796;211.169796;211.169796;None;0;;;C:\2023\REPSWITCH21092023\REPSWITCH_excgange\REPSWITCH_excgange\data/420201_REPSWITCH1_version2_list1_2024-01-16_15h35.09.580_micRespv2l1_recorded\recording_micRespv2l1_2024-01-16_15h38.34.988.wav;214.1979968;;None;214.1979968;214.1979968;214.1979968;214.1979968;214.1979968;214.1979968;;;;;;420201;1;2024-01-16_15h35.09.580;REPSWITCH1_version2_list1;2022.2.4;144.1343786;
REPSWITCH1/PICTURE_142.png;vaso;type;gold;filler;1;F;2;1;1;2;Stim7_Set1;0;None;41;40;41;0;40;40;40;;;;;;;;;;;;;;;;;;;;;;;214.6980475;215.7745999;215.7745999;215.7745999;215.7745999;215.7745999;215.7745999;215.7745999;215.7745999;['v', 'a', 's', 'o'];0;[1.0604772996157408, 1.2318895999342203, 1.4192735003307462, 1.59292250033468];vaso;C:\2023\REPSWITCH21092023\REPSWITCH_excgange\REPSWITCH_excgange\data/420201_REPSWITCH1_version2_list1_2024-01-16_15h35.09.580_micRespv2l1_recorded\recording_micRespv2l1_2024-01-16_15h38.39.592.wav;218.8027893;;None;218.8027893;218.8027893;218.8027893;218.8027893;218.8027893;218.8027893;;;;;;420201;1;2024-01-16_15h35.09.580;REPSWITCH1_version2_list1;2022.2.4;144.1343786;
REPSWITCH1/PICTURE_19.png;pavo;speak;darkblue;filler;2;F;2;1;1;2;Stim5_Set1;1;switch;42;41;42;0;41;41;41;;;;;;;;;;;;;;;;;;;;;;;219.3027977;220.4211119;220.4211119;220.4211119;220.4211119;220.4211119;220.4211119;220.4211119;220.4211119;None;0;;;C:\2023\REPSWITCH21092023\REPSWITCH_excgange\REPSWITCH_excgange\data/420201_REPSWITCH1_version2_list1_2024-01-16_15h35.09.580_micRespv2l1_recorded\recording_micRespv2l1_2024-01-16_15h38.44.239.wav;223.4492036;;None;223.4492036;223.4492036;223.4492036;223.4492036;223.4492036;223.4492036;;;;;;420201;1;2024-01-16_15h35.09.580;REPSWITCH1_version2_list1;2022.2.4;144.1343786;
REPSWITCH1/PICTURE_552.png;manzana;speak;darkblue;nontarget;2;NT;2;1;1;2;Stim6_Set2;1;repeat;43;42;43;0;42;42;42;;;;;;;;;;;;;;;;;;;;;;;223.9492247;225.0743925;225.0743925;225.0743925;225.0743925;225.0743925;225.0743925;225.0743925;225.0743925;None;0;;;C:\2023\REPSWITCH21092023\REPSWITCH_excgange\REPSWITCH_excgange\data/420201_REPSWITCH1_version2_list1_2024-01-16_15h35.09.580_micRespv2l1_recorded\recording_micRespv2l1_2024-01-16_15h38.48.892.wav;228.1025864;;None;228.1025864;228.1025864;228.1025864;228.1025864;228.1025864;228.1025864;;;;;;420201;1;2024-01-16_15h35.09.580;REPSWITCH1_version2_list1;2022.2.4;144.1343786;
REPSWITCH1/PICTURE_552.png;manzana;speak;darkblue;repeat;2;T;2;1;1;2;Stim6_Set2;0;None;44;43;44;0;43;43;43;;;;;;;;;;;;;;;;;;;;;;;228.6026246;229.8667598;229.8667598;229.8667598;229.8667598;229.8667598;229.8667598;229.8667598;229.8667598;None;0;;;C:\2023\REPSWITCH21092023\REPSWITCH_excgange\REPSWITCH_excgange\data/420201_REPSWITCH1_version2_list1_2024-01-16_15h35.09.580_micRespv2l1_recorded\recording_micRespv2l1_2024-01-16_15h38.53.685.wav;232.8948657;;None;232.8948657;232.8948657;232.8948657;232.8948657;232.8948657;232.8948657;;;;;;420201;1;2024-01-16_15h35.09.580;REPSWITCH1_version2_list1;2022.2.4;144.1343786;
REPSWITCH1/PICTURE_16.png;cazador;type;gold;filler;1;F;2;1;1;2;Stim6_Set1;0;None;45;44;45;0;44;44;44;;;;;;;;;;;;;;;;;;;;;;;233.394946;234.4575709;234.4575709;234.4575709;234.4575709;234.4575709;234.4575709;234.4575709;234.4575709;['c', 'a', 'z', 'a', 'd', 'o', 'r'];0;[1.1238980991765857, 1.2504321988672018, 1.4547919994220138, 1.5613964991644025, 1.8487776992842555, 2.0539565989747643, 2.3658920992165804];cazador;C:\2023\REPSWITCH21092023\REPSWITCH_excgange\REPSWITCH_excgange\data/420201_REPSWITCH1_version2_list1_2024-01-16_15h35.09.580_micRespv2l1_recorded\recording_micRespv2l1_2024-01-16_15h38.58.275.wav;237.485743;;None;237.485743;237.485743;237.485743;237.485743;237.485743;237.485743;;;;;;420201;1;2024-01-16_15h35.09.580;REPSWITCH1_version2_list1;2022.2.4;144.1343786;
REPSWITCH1/PICTURE_446.png;cerdo;speak;darkblue;nontarget;2;NT;2;1;1;2;Stim7_Set2;1;switch;46;45;46;0;45;45;45;;;;;;;;;;;;;;;;;;;;;;;237.985793;239.0832673;239.0832673;239.0832673;239.0832673;239.0832673;239.0832673;239.0832673;239.0832673;None;0;;;C:\2023\REPSWITCH21092023\REPSWITCH_excgange\REPSWITCH_excgange\data/420201_REPSWITCH1_version2_list1_2024-01-16_15h35.09.580_micRespv2l1_recorded\recording_micRespv2l1_2024-01-16_15h39.02.902.wav;242.111362;;None;242.111362;242.111362;242.111362;242.111362;242.111362;242.111362;;;;;;420201;1;2024-01-16_15h35.09.580;REPSWITCH1_version2_list1;2022.2.4;144.1343786;
REPSWITCH1/PICTURE_446.png;cerdo;speak;darkblue;repeat;2;T;2;1;1;2;Stim7_Set2;0;None;47;46;47;0;46;46;46;;;;;;;;;;;;;;;;;;;;;;;242.6114279;243.6671538;243.6671538;243.6671538;243.6671538;243.6671538;243.6671538;243.6671538;243.6671538;None;0;;;C:\2023\REPSWITCH21092023\REPSWITCH_excgange\REPSWITCH_excgange\data/420201_REPSWITCH1_version2_list1_2024-01-16_15h35.09.580_micRespv2l1_recorded\recording_micRespv2l1_2024-01-16_15h39.07.484.wav;246.6883129;247.188406;None;246.6883129;246.6883129;246.6883129;246.6883129;246.6883129;246.6883129;;;;;;420201;1;2024-01-16_15h35.09.580;REPSWITCH1_version2_list1;2022.2.4;144.1343786;
REPSWITCH1/PICTURE_590.png;escoba;type;gold;filler;1;F;2;1;1;2;Extra3;0;None;48;47;48;0;47;47;47;;;;;;;;;;;;;;;;;;;;;;;247.188406;248.3829949;248.3829949;248.3829949;248.3829949;248.3829949;248.3829949;248.3829949;248.3829949;['e', 's', 'c', 'o', 'b', 'a'];0;[1.025994699448347, 1.2130790995433927, 1.4424028992652893, 1.634125399403274, 1.9400732992216945, 2.096543299034238];escoba;C:\2023\REPSWITCH21092023\REPSWITCH_excgange\REPSWITCH_excgange\data/420201_REPSWITCH1_version2_list1_2024-01-16_15h35.09.580_micRespv2l1_recorded\recording_micRespv2l1_2024-01-16_15h39.12.200.wav;251.4112579;;None;251.4112579;251.4112579;251.4112579;251.4112579;251.4112579;251.4112579;;;;;;420201;1;2024-01-16_15h35.09.580;REPSWITCH1_version2_list1;2022.2.4;144.1343786;
REPSWITCH1/PICTURE_169.png;espalda;speak;darkblue;filler;2;F;2;1;1;2;Stim8_Set1;0;None;49;48;49;0;48;48;48;;;;;;;;;;;;;;;;;;;;;;;251.9112528;253.0294633;253.0294633;253.0294633;253.0294633;253.0294633;253.0294633;253.0294633;253.0294633;None;0;;;C:\2023\REPSWITCH21092023\REPSWITCH_excgange\REPSWITCH_excgange\data/420201_REPSWITCH1_version2_list1_2024-01-16_15h35.09.580_micRespv2l1_recorded\recording_micRespv2l1_2024-01-16_15h39.16.847.wav;256.0506434;256.5507222;None;256.0506434;256.0506434;256.0506434;256.0506434;256.0506434;256.0506434;;;;;;420201;1;2024-01-16_15h35.09.580;REPSWITCH1_version2_list1;2022.2.4;144.1343786;
REPSWITCH1/PICTURE_199.png;falda;speak;darkblue;nontarget;2;NT;2;1;1;2;Stim8_Set2;1;repeat;50;49;50;0;49;49;49;;;;;;;;;;;;;;;;;;;;;;;256.5507222;257.7175497;257.7175497;257.7175497;257.7175497;257.7175497;257.7175497;257.7175497;257.7175497;None;0;;;C:\2023\REPSWITCH21092023\REPSWITCH_excgange\REPSWITCH_excgange\data/420201_REPSWITCH1_version2_list1_2024-01-16_15h35.09.580_micRespv2l1_recorded\recording_micRespv2l1_2024-01-16_15h39.21.535.wav;260.7388447;261.2388356;None;260.7388447;260.7388447;260.7388447;260.7388447;260.7388447;260.7388447;;;;;;420201;1;2024-01-16_15h35.09.580;REPSWITCH1_version2_list1;2022.2.4;144.1343786;
REPSWITCH1/PICTURE_199.png;falda;type;gold;switch;1;T;2;1;1;2;Stim8_Set2;0;None;51;50;51;0;50;50;50;;;;;;;;;;;;;;;;;;;;;;;261.2388356;262.2945824;262.2945824;262.2945824;262.2945824;262.2945824;262.2945824;262.2945824;262.2945824;['f', 'a', 'l', 'd', 'a'];0;[1.1655035996809602, 1.3040316998958588, 1.7089543994516134, 1.9032928002998233, 2.181541499681771];falda;C:\2023\REPSWITCH21092023\REPSWITCH_excgange\REPSWITCH_excgange\data/420201_REPSWITCH1_version2_list1_2024-01-16_15h35.09.580_micRespv2l1_recorded\recording_micRespv2l1_2024-01-16_15h39.26.112.wav;265.3227747;;space;265.3227747;265.3227747;265.3227747;265.3227747;265.3227747;265.3227747;265.8227582;265.8227582;3.3718113;;;420201;1;2024-01-16_15h35.09.580;REPSWITCH1_version2_list1;2022.2.4;144.1343786;
REPSWITCH1/PICTURE_576.png;guante;type;gold;nontarget;1;NT;3;1;1;2;Stim1_Set3;0;None;52;51;52;0;51;51;51;;;;;;;;;;;;;;;;;;;;;;;269.205179;270.2886794;270.2886794;270.2886794;270.2886794;270.2886794;270.2886794;270.2886794;270.2886794;['g', 'i', 'a', 'n', 't', 'e'];0;[1.234256699681282, 1.4717015996575356, 2.133561199530959, 2.3238979997113347, 2.532620199956, 2.6346531994640827];giante;C:\2023\REPSWITCH21092023\REPSWITCH_excgange\REPSWITCH_excgange\data/420201_REPSWITCH1_version2_list1_2024-01-16_15h35.09.580_micRespv2l1_recorded\recording_micRespv2l1_2024-01-16_15h39.34.106.wav;273.316789;;None;273.316789;273.316789;273.316789;273.316789;273.316789;273.316789;;;;;;420201;1;2024-01-16_15h35.09.580;REPSWITCH1_version2_list1;2022.2.4;144.1343786;
REPSWITCH1/PICTURE_576.png;guante;speak;darkblue;switch;2;T;3;1;1;2;Stim1_Set3;0;None;53;52;53;0;52;52;52;;;;;;;;;;;;;;;;;;;;;;;273.8168995;274.9142697;274.9142697;274.9142697;274.9142697;274.9142697;274.9142697;274.9142697;274.9142697;None;0;;;C:\2023\REPSWITCH21092023\REPSWITCH_excgange\REPSWITCH_excgange\data/420201_REPSWITCH1_version2_list1_2024-01-16_15h35.09.580_micRespv2l1_recorded\recording_micRespv2l1_2024-01-16_15h39.38.731.wav;277.9355036;278.4355585;None;277.9355036;277.9355036;277.9355036;277.9355036;277.9355036;277.9355036;;;;;;420201;1;2024-01-16_15h35.09.580;REPSWITCH1_version2_list1;2022.2.4;144.1343786;
REPSWITCH1/PICTURE_646.png;tronco;speak;darkblue;filler;2;F;3;1;1;2;Extra4;0;None;54;53;54;0;53;53;53;;;;;;;;;;;;;;;;;;;;;;;278.4355585;279.5398497;279.5398497;279.5398497;279.5398497;279.5398497;279.5398497;279.5398497;279.5398497;None;0;;;C:\2023\REPSWITCH21092023\REPSWITCH_excgange\REPSWITCH_excgange\data/420201_REPSWITCH1_version2_list1_2024-01-16_15h35.09.580_micRespv2l1_recorded\recording_micRespv2l1_2024-01-16_15h39.43.357.wav;282.5680377;;None;282.5680377;282.5680377;282.5680377;282.5680377;282.5680377;282.5680377;;;;;;420201;1;2024-01-16_15h35.09.580;REPSWITCH1_version2_list1;2022.2.4;144.1343786;
REPSWITCH1/PICTURE_610.png;miel;speak;darkblue;nontarget;2;NT;3;1;1;2;Stim2_Set3;1;repeat;55;54;55;0;54;54;54;;;;;;;;;;;;;;;;;;;;;;;283.0681048;284.1099056;284.1099056;284.1099056;284.1099056;284.1099056;284.1099056;284.1099056;284.1099056;None;0;;;C:\2023\REPSWITCH21092023\REPSWITCH_excgange\REPSWITCH_excgange\data/420201_REPSWITCH1_version2_list1_2024-01-16_15h35.09.580_micRespv2l1_recorded\recording_micRespv2l1_2024-01-16_15h39.47.927.wav;287.1311023;287.6312761;None;287.1311023;287.1311023;287.1311023;287.1311023;287.1311023;287.1311023;;;;;;420201;1;2024-01-16_15h35.09.580;REPSWITCH1_version2_list1;2022.2.4;144.1343786;
REPSWITCH1/PICTURE_610.png;miel;type;gold;switch;1;T;3;1;1;2;Stim2_Set3;0;None;56;55;56;0;55;55;55;;;;;;;;;;;;;;;;;;;;;;;287.6312761;288.7285923;288.7285923;288.7285923;288.7285923;288.7285923;288.7285923;288.7285923;288.7285923;['i', 'e', 'l'];0;[1.3047623001039028, 1.4969079000875354, 1.7357441000640392];iel;C:\2023\REPSWITCH21092023\REPSWITCH_excgange\REPSWITCH_excgange\data/420201_REPSWITCH1_version2_list1_2024-01-16_15h35.09.580_micRespv2l1_recorded\recording_micRespv2l1_2024-01-16_15h39.52.546.wav;291.7498438;292.2499313;None;291.7498438;291.7498438;291.7498438;291.7498438;291.7498438;291.7498438;;;;;;420201;1;2024-01-16_15h35.09.580;REPSWITCH1_version2_list1;2022.2.4;144.1343786;
REPSWITCH1/PICTURE_175.png;pintor;type;gold;filler;1;F;3;1;1;2;Stim1_Set2;1;repeat;57;56;57;0;56;56;56;;;;;;;;;;;;;;;;;;;;;;;292.2499313;293.2916729;293.2916729;293.2916729;293.2916729;293.2916729;293.2916729;293.2916729;293.2916729;['p', 'i', 'n', 't', 'o', 'r'];0;[1.2467847997322679, 1.4560412000864744, 1.633717400021851, 1.8230830002576113, 1.9965047994628549, 2.172030200250447];pintor;C:\2023\REPSWITCH21092023\REPSWITCH_excgange\REPSWITCH_excgange\data/420201_REPSWITCH1_version2_list1_2024-01-16_15h35.09.580_micRespv2l1_recorded\recording_micRespv2l1_2024-01-16_15h39.57.109.wav;296.3128981;296.8129636;None;296.3128981;296.3128981;296.3128981;296.3128981;296.3128981;296.3128981;;;;;;420201;1;2024-01-16_15h35.09.580;REPSWITCH1_version2_list1;2022.2.4;144.1343786;
REPSWITCH1/PICTURE_242.png;cartero;type;gold;nontarget;1;NT;3;1;1;2;Stim3_Set3;1;repeat;58;57;58;0;57;57;57;;;;;;;;;;;;;;;;;;;;;;;296.8129636;297.9311447;297.9311447;297.9311447;297.9311447;297.9311447;297.9311447;297.9311447;297.9311447;['c', 'a', 'r', 't', 'e', 'r', 'o'];0;[1.610713499598205, 1.6994083998724818, 1.797116399742663, 1.968108699657023, 2.072060499340296, 2.2489153994247317, 2.385461699217558];cartero;C:\2023\REPSWITCH21092023\REPSWITCH_excgange\REPSWITCH_excgange\data/420201_REPSWITCH1_version2_list1_2024-01-16_15h35.09.580_micRespv2l1_recorded\recording_micRespv2l1_2024-01-16_15h40.01.748.wav;300.9523916;301.4525105;None;300.9523916;300.9523916;300.9523916;300.9523916;300.9523916;300.9523916;;;;;;420201;1;2024-01-16_15h35.09.580;REPSWITCH1_version2_list1;2022.2.4;144.1343786;
REPSWITCH1/PICTURE_242.png;cartero;speak;darkblue;switch;2;T;3;1;1;2;Stim3_Set3;0;None;59;58;59;0;58;58;58;;;;;;;;;;;;;;;;;;;;;;;301.4525105;302.5776241;302.5776241;302.5776241;302.5776241;302.5776241;302.5776241;302.5776241;302.5776241;None;0;;;C:\2023\REPSWITCH21092023\REPSWITCH_excgange\REPSWITCH_excgange\data/420201_REPSWITCH1_version2_list1_2024-01-16_15h35.09.580_micRespv2l1_recorded\recording_micRespv2l1_2024-01-16_15h40.06.394.wav;305.5988773;306.098902;None;305.5988773;305.5988773;305.5988773;305.5988773;305.5988773;305.5988773;;;;;;420201;1;2024-01-16_15h35.09.580;REPSWITCH1_version2_list1;2022.2.4;144.1343786;
REPSWITCH1/PICTURE_152.png;caracol;speak;darkblue;filler;2;F;3;1;1;2;Stim2_Set2;0;None;60;59;60;0;59;59;59;;;;;;;;;;;;;;;;;;;;;;;306.098902;307.1824316;307.1824316;307.1824316;307.1824316;307.1824316;307.1824316;307.1824316;307.1824316;None;0;;;C:\2023\REPSWITCH21092023\REPSWITCH_excgange\REPSWITCH_excgange\data/420201_REPSWITCH1_version2_list1_2024-01-16_15h35.09.580_micRespv2l1_recorded\recording_micRespv2l1_2024-01-16_15h40.10.999.wav;310.2036366;310.7037104;None;310.2036366;310.2036366;310.2036366;310.2036366;310.2036366;310.2036366;;;;;;420201;1;2024-01-16_15h35.09.580;REPSWITCH1_version2_list1;2022.2.4;144.1343786;
REPSWITCH1/PICTURE_517.png;cuerda;type;gold;filler;1;F;3;1;1;2;Stim4_Set2;0;None;61;60;61;0;60;60;60;;;;;;;;;;;;;;;;;;;;;;;310.7037104;311.7524877;311.7524877;311.7524877;311.7524877;311.7524877;311.7524877;311.7524877;311.7524877;['c', 'u', 'e', 'r', 'd', 'a'];0;[0.9579870002344251, 1.1493311999365687, 1.3021200001239777, 1.4735856000334024, 1.6852676002308726, 1.8509702999144793];cuerda;C:\2023\REPSWITCH21092023\REPSWITCH_excgange\REPSWITCH_excgange\data/420201_REPSWITCH1_version2_list1_2024-01-16_15h35.09.580_micRespv2l1_recorded\recording_micRespv2l1_2024-01-16_15h40.15.570.wav;314.7736062;315.2736832;None;314.7736062;314.7736062;314.7736062;314.7736062;314.7736062;314.7736062;;;;;;420201;1;2024-01-16_15h35.09.580;REPSWITCH1_version2_list1;2022.2.4;144.1343786;
REPSWITCH1/PICTURE_235.png;aguja;speak;darkblue;nontarget;2;NT;3;1;1;2;Stim4_Set3;1;switch;62;61;62;0;61;61;61;;;;;;;;;;;;;;;;;;;;;;;315.2736832;316.3433406;316.3433406;316.3433406;316.3433406;316.3433406;316.3433406;316.3433406;316.3433406;None;0;;;C:\2023\REPSWITCH21092023\REPSWITCH_excgange\REPSWITCH_excgange\data/420201_REPSWITCH1_version2_list1_2024-01-16_15h35.09.580_micRespv2l1_recorded\recording_micRespv2l1_2024-01-16_15h40.20.161.wav;319.3714249;;None;319.3714249;319.3714249;319.3714249;319.3714249;319.3714249;319.3714249;;;;;;420201;1;2024-01-16_15h35.09.580;REPSWITCH1_version2_list1;2022.2.4;144.1343786;
REPSWITCH1/PICTURE_235.png;aguja;speak;darkblue;repeat;2;T;3;1;1;2;Stim4_Set3;0;None;63;62;63;0;62;62;62;;;;;;;;;;;;;;;;;;;;;;;319.8715219;320.9272323;320.9272323;320.9272323;320.9272323;320.9272323;320.9272323;320.9272323;320.9272323;None;0;;;C:\2023\REPSWITCH21092023\REPSWITCH_excgange\REPSWITCH_excgange\data/420201_REPSWITCH1_version2_list1_2024-01-16_15h35.09.580_micRespv2l1_recorded\recording_micRespv2l1_2024-01-16_15h40.24.745.wav;323.9484445;324.4485213;None;323.9484445;323.9484445;323.9484445;323.9484445;323.9484445;323.9484445;;;;;;420201;1;2024-01-16_15h35.09.580;REPSWITCH1_version2_list1;2022.2.4;144.1343786;
REPSWITCH1/PICTURE_30.png;granja;type;gold;filler;1;F;3;1;1;2;Stim5_Set2;0;None;64;63;64;0;63;63;63;;;;;;;;;;;;;;;;;;;;;;;324.4485213;325.4764287;325.4764287;325.4764287;325.4764287;325.4764287;325.4764287;325.4764287;325.4764287;['g', 'r', 'a', 'n', 'j', 'a'];0;[1.3559753997251391, 1.6564555000513792, 1.8936641998589039, 2.1269018994644284, 2.3013138994574547, 2.4009814001619816];granja;C:\2023\REPSWITCH21092023\REPSWITCH_excgange\REPSWITCH_excgange\data/420201_REPSWITCH1_version2_list1_2024-01-16_15h35.09.580_micRespv2l1_recorded\recording_micRespv2l1_2024-01-16_15h40.29.294.wav;328.5045848;;None;328.5045848;328.5045848;328.5045848;328.5045848;328.5045848;328.5045848;;;;;;420201;1;2024-01-16_15h35.09.580;REPSWITCH1_version2_list1;2022.2.4;144.1343786;
REPSWITCH1/PICTURE_552.png;manzana;speak;darkblue;filler;2;F;3;1;1;2;Stim6_Set2;1;switch;65;64;65;0;64;64;64;;;;;;;;;;;;;;;;;;;;;;;329.0046449;330.1228695;330.1228695;330.1228695;330.1228695;330.1228695;330.1228695;330.1228695;330.1228695;None;0;;;C:\2023\REPSWITCH21092023\REPSWITCH_excgange\REPSWITCH_excgange\data/420201_REPSWITCH1_version2_list1_2024-01-16_15h35.09.580_micRespv2l1_recorded\recording_micRespv2l1_2024-01-16_15h40.33.940.wav;333.151038;;None;333.151038;333.151038;333.151038;333.151038;333.151038;333.151038;;;;;;420201;1;2024-01-16_15h35.09.580;REPSWITCH1_version2_list1;2022.2.4;144.1343786;
REPSWITCH1/PICTURE_35.png;oreja;speak;darkblue;nontarget;2;NT;3;1;1;2;Stim5_Set3;1;repeat;66;65;66;0;65;65;65;;;;;;;;;;;;;;;;;;;;;;;333.6510964;334.7276317;334.7276317;334.7276317;334.7276317;334.7276317;334.7276317;334.7276317;334.7276317;None;0;;;C:\2023\REPSWITCH21092023\REPSWITCH_excgange\REPSWITCH_excgange\data/420201_REPSWITCH1_version2_list1_2024-01-16_15h35.09.580_micRespv2l1_recorded\recording_micRespv2l1_2024-01-16_15h40.38.546.wav;337.7558076;;None;337.7558076;337.7558076;337.7558076;337.7558076;337.7558076;337.7558076;;;;;;420201;1;2024-01-16_15h35.09.580;REPSWITCH1_version2_list1;2022.2.4;144.1343786;
REPSWITCH1/PICTURE_35.png;oreja;speak;darkblue;repeat;2;T;3;1;1;2;Stim5_Set3;0;None;67;66;67;0;66;66;66;;;;;;;;;;;;;;;;;;;;;;;338.2558842;339.3949422;339.3949422;339.3949422;339.3949422;339.3949422;339.3949422;339.3949422;339.3949422;None;0;;;C:\2023\REPSWITCH21092023\REPSWITCH_excgange\REPSWITCH_excgange\data/420201_REPSWITCH1_version2_list1_2024-01-16_15h35.09.580_micRespv2l1_recorded\recording_micRespv2l1_2024-01-16_15h40.43.212.wav;342.4161517;342.9162167;None;342.4161517;342.4161517;342.4161517;342.4161517;342.4161517;342.4161517;;;;;;420201;1;2024-01-16_15h35.09.580;REPSWITCH1_version2_list1;2022.2.4;144.1343786;
REPSWITCH1/PICTURE_673.png;tenedor;type;gold;filler;1;F;3;1;1;2;Extra5;0;None;68;67;68;0;67;67;67;;;;;;;;;;;;;;;;;;;;;;;342.9162167;344.0066664;344.0066664;344.0066664;344.0066664;344.0066664;344.0066664;344.0066664;344.0066664;['t', 'e', 'n', 'e', 'd', 'o', 'r'];0;[1.150381999090314, 1.236815799959004, 1.4125065999105573, 1.527434199117124, 1.7995095998048782, 1.9539646999910474, 2.0907244998961687];tenedor;C:\2023\REPSWITCH21092023\REPSWITCH_excgange\REPSWITCH_excgange\data/420201_REPSWITCH1_version2_list1_2024-01-16_15h35.09.580_micRespv2l1_recorded\recording_micRespv2l1_2024-01-16_15h40.47.825.wav;347.0348589;;None;347.0348589;347.0348589;347.0348589;347.0348589;347.0348589;347.0348589;;;;;;420201;1;2024-01-16_15h35.09.580;REPSWITCH1_version2_list1;2022.2.4;144.1343786;
REPSWITCH1/PICTURE_464.png;goma;speak;darkblue;nontarget;2;NT;3;1;1;2;Stim6_Set3;0;None;69;68;69;0;68;68;68;;;;;;;;;;;;;;;;;;;;;;;347.5348598;348.5419818;348.5419818;348.5419818;348.5419818;348.5419818;348.5419818;348.5419818;348.5419818;None;0;;;C:\2023\REPSWITCH21092023\REPSWITCH_excgange\REPSWITCH_excgange\data/420201_REPSWITCH1_version2_list1_2024-01-16_15h35.09.580_micRespv2l1_recorded\recording_micRespv2l1_2024-01-16_15h40.52.360.wav;351.5701179;;None;351.5701179;351.5701179;351.5701179;351.5701179;351.5701179;351.5701179;;;;;;420201;1;2024-01-16_15h35.09.580;REPSWITCH1_version2_list1;2022.2.4;144.1343786;
REPSWITCH1/PICTURE_464.png;goma;type;gold;switch;1;T;3;1;1;2;Stim6_Set3;0;None;70;69;70;0;69;69;69;;;;;;;;;;;;;;;;;;;;;;;352.0701938;353.2231005;353.2231005;353.2231005;353.2231005;353.2231005;353.2231005;353.2231005;353.2231005;['g', 'o', 'm', 'a'];0;[1.1074245991185308, 1.3077856991440058, 1.5611998997628689, 1.7547948993742466];goma;C:\2023\REPSWITCH21092023\REPSWITCH_excgange\REPSWITCH_excgange\data/420201_REPSWITCH1_version2_list1_2024-01-16_15h35.09.580_micRespv2l1_recorded\recording_micRespv2l1_2024-01-16_15h40.57.040.wav;356.2443533;356.7444091;None;356.2443533;356.2443533;356.2443533;356.2443533;356.2443533;356.2443533;;;;;;420201;1;2024-01-16_15h35.09.580;REPSWITCH1_version2_list1;2022.2.4;144.1343786;
REPSWITCH1/PICTURE_264.png;mano;speak;darkblue;filler;2;F;3;1;1;2;Stim3_Set2;0;None;71;70;71;0;70;70;70;;;;;;;;;;;;;;;;;;;;;;;356.7444091;357.8695344;357.8695344;357.8695344;357.8695344;357.8695344;357.8695344;357.8695344;357.8695344;None;0;;;C:\2023\REPSWITCH21092023\REPSWITCH_excgange\REPSWITCH_excgange\data/420201_REPSWITCH1_version2_list1_2024-01-16_15h35.09.580_micRespv2l1_recorded\recording_micRespv2l1_2024-01-16_15h41.01.687.wav;360.8907919;361.3908508;None;360.8907919;360.8907919;360.8907919;360.8907919;360.8907919;360.8907919;;;;;;420201;1;2024-01-16_15h35.09.580;REPSWITCH1_version2_list1;2022.2.4;144.1343786;
REPSWITCH1/PICTURE_271.png;conejo;type;gold;nontarget;1;NT;3;1;1;2;Stim7_Set3;1;switch;72;71;72;0;71;71;71;;;;;;;;;;;;;;;;;;;;;;;361.3908508;362.5785327;362.5785327;362.5785327;362.5785327;362.5785327;362.5785327;362.5785327;362.5785327;['c', 'o', 'n', 'e', 'j', 'o'];0;[0.9869393995031714, 1.2181416992098093, 1.6536362990736961, 1.8230493990704417, 1.965243399143219, 2.0792254991829395];conejo;C:\2023\REPSWITCH21092023\REPSWITCH_excgange\REPSWITCH_excgange\data/420201_REPSWITCH1_version2_list1_2024-01-16_15h35.09.580_micRespv2l1_recorded\recording_micRespv2l1_2024-01-16_15h41.06.395.wav;365.6066498;;None;365.6066498;365.6066498;365.6066498;365.6066498;365.6066498;365.6066498;;;;;;420201;1;2024-01-16_15h35.09.580;REPSWITCH1_version2_list1;2022.2.4;144.1343786;
REPSWITCH1/PICTURE_271.png;conejo;type;gold;repeat;1;T;3;1;1;2;Stim7_Set3;0;None;73;72;73;0;72;72;72;;;;;;;;;;;;;;;;;;;;;;;366.1067229;367.2874641;367.2874641;367.2874641;367.2874641;367.2874641;367.2874641;367.2874641;367.2874641;['c', 'o', 'n', 'e', 'j', 'o'];0;[0.8508767997846007, 1.068385699763894, 1.2943857992067933, 1.4711408000439405, 1.5927725993096828, 1.7262937994673848];conejo;C:\2023\REPSWITCH21092023\REPSWITCH_excgange\REPSWITCH_excgange\data/420201_REPSWITCH1_version2_list1_2024-01-16_15h35.09.580_micRespv2l1_recorded\recording_micRespv2l1_2024-01-16_15h41.11.105.wav;370.3086799;370.808797;None;370.3086799;370.3086799;370.3086799;370.3086799;370.3086799;370.3086799;;;;;;420201;1;2024-01-16_15h35.09.580;REPSWITCH1_version2_list1;2022.2.4;144.1343786;
REPSWITCH1/PICTURE_446.png;cerdo;speak;darkblue;filler;2;F;3;1;1;2;Stim7_Set2;0;None;74;73;74;0;73;73;73;;;;;;;;;;;;;;;;;;;;;;;370.808797;371.8644242;371.8644242;371.8644242;371.8644242;371.8644242;371.8644242;371.8644242;371.8644242;None;0;;;C:\2023\REPSWITCH21092023\REPSWITCH_excgange\REPSWITCH_excgange\data/420201_REPSWITCH1_version2_list1_2024-01-16_15h35.09.580_micRespv2l1_recorded\recording_micRespv2l1_2024-01-16_15h41.15.682.wav;374.8925973;;None;374.8925973;374.8925973;374.8925973;374.8925973;374.8925973;374.8925973;;;;;;420201;1;2024-01-16_15h35.09.580;REPSWITCH1_version2_list1;2022.2.4;144.1343786;
REPSWITCH1/PICTURE_199.png;falda;type;gold;filler;1;F;3;1;1;2;Stim8_Set2;1;switch;75;74;75;0;74;74;74;;;;;;;;;;;;;;;;;;;;;;;375.3926469;376.4344988;376.4344988;376.4344988;376.4344988;376.4344988;376.4344988;376.4344988;376.4344988;['f', 'a', 'l', 'd', 'a'];0;[1.2468768991529942, 1.367590899579227, 1.6020944993942976, 1.8128417991101742, 2.054920299910009];falda;C:\2023\REPSWITCH21092023\REPSWITCH_excgange\REPSWITCH_excgange\data/420201_REPSWITCH1_version2_list1_2024-01-16_15h35.09.580_micRespv2l1_recorded\recording_micRespv2l1_2024-01-16_15h41.20.251.wav;379.4556971;379.9558274;None;379.4556971;379.4556971;379.4556971;379.4556971;379.4556971;379.4556971;;;;;;420201;1;2024-01-16_15h35.09.580;REPSWITCH1_version2_list1;2022.2.4;144.1343786;
REPSWITCH1/PICTURE_320.png;iglesia;type;gold;nontarget;1;NT;3;1;1;2;Stim8_Set3;1;repeat;76;75;76;0;75;75;75;;;;;;;;;;;;;;;;;;;;;;;379.9558274;381.0948377;381.0948377;381.0948377;381.0948377;381.0948377;381.0948377;381.0948377;381.0948377;['i', 'g', 'l', 'e', 's', 'i', 'a'];0;[1.4464213997125626, 1.704849598929286, 2.1866268990561366, 2.385883799754083, 2.563244399614632, 2.725697198882699, 2.826404099352658];iglesia;C:\2023\REPSWITCH21092023\REPSWITCH_excgange\REPSWITCH_excgange\data/420201_REPSWITCH1_version2_list1_2024-01-16_15h35.09.580_micRespv2l1_recorded\recording_micRespv2l1_2024-01-16_15h41.24.912.wav;384.1160533;384.6161236;None;384.1160533;384.1160533;384.1160533;384.1160533;384.1160533;384.1160533;;;;;;420201;1;2024-01-16_15h35.09.580;REPSWITCH1_version2_list1;2022.2.4;144.1343786;
REPSWITCH1/PICTURE_320.png;iglesia;type;gold;repeat;1;T;3;1;1;2;Stim8_Set3;0;None;77;76;77;0;76;76;76;;;;;;;;;;;;;;;;;;;;;;;384.6161236;385.7273542;385.7273542;385.7273542;385.7273542;385.7273542;385.7273542;385.7273542;385.7273542;['i', 'g', 'l', 'e', 's', 'i', 'a'];0;[1.0263816993683577, 1.2746718991547823, 1.7204769998788834, 1.873981699347496, 2.061696599237621, 2.193475599400699, 2.2941268999129534];iglesia;C:\2023\REPSWITCH21092023\REPSWITCH_excgange\REPSWITCH_excgange\data/420201_REPSWITCH1_version2_list1_2024-01-16_15h35.09.580_micRespv2l1_recorded\recording_micRespv2l1_2024-01-16_15h41.29.545.wav;388.7555358;;None;388.7555358;388.7555358;388.7555358;388.7555358;388.7555358;388.7555358;;;;;;420201;1;2024-01-16_15h35.09.580;REPSWITCH1_version2_list1;2022.2.4;144.1343786;
REPSWITCH1/PICTURE_576.png;guante;speak;darkblue;filler;2;F;4;1;1;2;Stim1_Set3;0;None;78;77;78;0;77;77;77;;;;;;;;;;;;;;;;;;;;;;;389.255592;390.3807796;390.3807796;390.3807796;390.3807796;390.3807796;390.3807796;390.3807796;390.3807796;None;0;;;C:\2023\REPSWITCH21092023\REPSWITCH_excgange\REPSWITCH_excgange\data/420201_REPSWITCH1_version2_list1_2024-01-16_15h35.09.580_micRespv2l1_recorded\recording_micRespv2l1_2024-01-16_15h41.34.199.wav;393.4089185;;None;393.4089185;393.4089185;393.4089185;393.4089185;393.4089185;393.4089185;;;;;;420201;1;2024-01-16_15h35.09.580;REPSWITCH1_version2_list1;2022.2.4;144.1343786;
REPSWITCH1/PICTURE_319.png;vaca;type;gold;nontarget;1;NT;4;1;1;2;Stim1_Set4;1;switch;79;78;79;0;78;78;78;;;;;;;;;;;;;;;;;;;;;;;393.9090032;394.9577704;394.9577704;394.9577704;394.9577704;394.9577704;394.9577704;394.9577704;394.9577704;['v', 'a', 'c', 'a'];0;[1.3598707998171449, 1.4800073001533747, 1.5930324997752905, 1.6777370003983378];vaca;C:\2023\REPSWITCH21092023\REPSWITCH_excgange\REPSWITCH_excgange\data/420201_REPSWITCH1_version2_list1_2024-01-16_15h35.09.580_micRespv2l1_recorded\recording_micRespv2l1_2024-01-16_15h41.38.774.wav;397.9789768;398.479035;None;397.9789768;397.9789768;397.9789768;397.9789768;397.9789768;397.9789768;;;;;;420201;1;2024-01-16_15h35.09.580;REPSWITCH1_version2_list1;2022.2.4;144.1343786;
REPSWITCH1/PICTURE_319.png;vaca;type;gold;repeat;1;T;4;1;1;2;Stim1_Set4;0;None;80;79;80;0;79;79;79;;;;;;;;;;;;;;;;;;;;;;;398.479035;399.5486387;399.5486387;399.5486387;399.5486387;399.5486387;399.5486387;399.5486387;399.5486387;['v', 'a', 'c', 'a'];0;[1.0376276997849345, 1.138582699932158, 1.2674476997926831, 1.34120349958539];vaca;C:\2023\REPSWITCH21092023\REPSWITCH_excgange\REPSWITCH_excgange\data/420201_REPSWITCH1_version2_list1_2024-01-16_15h35.09.580_micRespv2l1_recorded\recording_micRespv2l1_2024-01-16_15h41.43.366.wav;402.5698548;403.0699051;None;402.5698548;402.5698548;402.5698548;402.5698548;402.5698548;402.5698548;;;;;;420201;1;2024-01-16_15h35.09.580;REPSWITCH1_version2_list1;2022.2.4;144.1343786;
REPSWITCH1/PICTURE_719.png;baño;type;gold;nontarget;1;NT;4;1;1;2;Stim2_Set4;0;None;81;80;81;0;80;80;80;;;;;;;;;;;;;;;;;;;;;;;403.0699051;404.097888;404.097888;404.097888;404.097888;404.097888;404.097888;404.097888;404.097888;['b', 'a', 'ñ', 'o'];0;[1.06714169960469, 1.1920515997335315, 1.5884880991652608, 1.7469625994563103];baño;C:\2023\REPSWITCH21092023\REPSWITCH_excgange\REPSWITCH_excgange\data/420201_REPSWITCH1_version2_list1_2024-01-16_15h35.09.580_micRespv2l1_recorded\recording_micRespv2l1_2024-01-16_15h41.47.915.wav;407.1260693;;None;407.1260693;407.1260693;407.1260693;407.1260693;407.1260693;407.1260693;;;;;;420201;1;2024-01-16_15h35.09.580;REPSWITCH1_version2_list1;2022.2.4;144.1343786;
REPSWITCH1/PICTURE_719.png;baño;speak;darkblue;switch;2;T;4;1;1;2;Stim2_Set4;0;None;82;81;82;0;81;81;81;;;;;;;;;;;;;;;;;;;;;;;407.6260727;408.6609089;408.6609089;408.6609089;408.6609089;408.6609089;408.6609089;408.6609089;408.6609089;None;0;;;C:\2023\REPSWITCH21092023\REPSWITCH_excgange\REPSWITCH_excgange\data/420201_REPSWITCH1_version2_list1_2024-01-16_15h35.09.580_micRespv2l1_recorded\recording_micRespv2l1_2024-01-16_15h41.52.478.wav;411.6891636;;None;411.6891636;411.6891636;411.6891636;411.6891636;411.6891636;411.6891636;;;;;;420201;1;2024-01-16_15h35.09.580;REPSWITCH1_version2_list1;2022.2.4;144.1343786;
REPSWITCH1/PICTURE_242.png;cartero;speak;darkblue;filler;2;F;4;1;1;2;Stim3_Set3;1;repeat;83;82;83;0;82;82;82;;;;;;;;;;;;;;;;;;;;;;;412.1891649;413.2656903;413.2656903;413.2656903;413.2656903;413.2656903;413.2656903;413.2656903;413.2656903;None;0;;;C:\2023\REPSWITCH21092023\REPSWITCH_excgange\REPSWITCH_excgange\data/420201_REPSWITCH1_version2_list1_2024-01-16_15h35.09.580_micRespv2l1_recorded\recording_micRespv2l1_2024-01-16_15h41.57.083.wav;416.2869182;416.7870616;None;416.2869182;416.2869182;416.2869182;416.2869182;416.2869182;416.2869182;;;;;;420201;1;2024-01-16_15h35.09.580;REPSWITCH1_version2_list1;2022.2.4;144.1343786;
REPSWITCH1/PICTURE_610.png;miel;type;gold;filler;1;F;4;1;1;2;Stim2_Set3;0;None;84;83;84;0;83;83;83;;;;;;;;;;;;;;;;;;;;;;;416.7870616;417.8565852;417.8565852;417.8565852;417.8565852;417.8565852;417.8565852;417.8565852;417.8565852;['m', 'i', 'e', 'l'];0;[0.9015023997053504, 1.0753587000072002, 1.2844724003225565, 1.4658345002681017];miel;C:\2023\REPSWITCH21092023\REPSWITCH_excgange\REPSWITCH_excgange\data/420201_REPSWITCH1_version2_list1_2024-01-16_15h35.09.580_micRespv2l1_recorded\recording_micRespv2l1_2024-01-16_15h42.01.674.wav;420.8778087;421.3778752;None;420.8778087;420.8778087;420.8778087;420.8778087;420.8778087;420.8778087;;;;;;420201;1;2024-01-16_15h35.09.580;REPSWITCH1_version2_list1;2022.2.4;144.1343786;
REPSWITCH1/PICTURE_8.png;pierna;speak;darkblue;nontarget;2;NT;4;1;1;2;Stim3_Set4;1;switch;85;84;85;0;84;84;84;;;;;;;;;;;;;;;;;;;;;;;421.3778752;422.4960973;422.4960973;422.4960973;422.4960973;422.4960973;422.4960973;422.4960973;422.4960973;None;0;;;C:\2023\REPSWITCH21092023\REPSWITCH_excgange\REPSWITCH_excgange\data/420201_REPSWITCH1_version2_list1_2024-01-16_15h35.09.580_micRespv2l1_recorded\recording_micRespv2l1_2024-01-16_15h42.06.313.wav;425.5173027;426.0173765;None;425.5173027;425.5173027;425.5173027;425.5173027;425.5173027;425.5173027;;;;;;420201;1;2024-01-16_15h35.09.580;REPSWITCH1_version2_list1;2022.2.4;144.1343786;
REPSWITCH1/PICTURE_8.png;pierna;speak;darkblue;repeat;2;T;4;1;1;2;Stim3_Set4;0;None;86;85;86;0;85;85;85;;;;;;;;;;;;;;;;;;;;;;;426.0173765;427.1216937;427.1216937;427.1216937;427.1216937;427.1216937;427.1216937;427.1216937;427.1216937;None;0;;;C:\2023\REPSWITCH21092023\REPSWITCH_excgange\REPSWITCH_excgange\data/420201_REPSWITCH1_version2_list1_2024-01-16_15h35.09.580_micRespv2l1_recorded\recording_micRespv2l1_2024-01-16_15h42.10.939.wav;430.1429445;430.6429767;None;430.1429445;430.1429445;430.1429445;430.1429445;430.1429445;430.1429445;;;;;;420201;1;2024-01-16_15h35.09.580;REPSWITCH1_version2_list1;2022.2.4;144.1343786;
REPSWITCH1/PICTURE_498.png;taza;speak;darkblue;nontarget;2;NT;4;1;1;2;Stim4_Set4;1;repeat;87;86;87;0;86;86;86;;;;;;;;;;;;;;;;;;;;;;;430.6429767;431.7265073;431.7265073;431.7265073;431.7265073;431.7265073;431.7265073;431.7265073;431.7265073;None;0;;;C:\2023\REPSWITCH21092023\REPSWITCH_excgange\REPSWITCH_excgange\data/420201_REPSWITCH1_version2_list1_2024-01-16_15h35.09.580_micRespv2l1_recorded\recording_micRespv2l1_2024-01-16_15h42.15.543.wav;434.7476504;435.2477049;None;434.7476504;434.7476504;434.7476504;434.7476504;434.7476504;434.7476504;;;;;;420201;1;2024-01-16_15h35.09.580;REPSWITCH1_version2_list1;2022.2.4;144.1343786;
REPSWITCH1/PICTURE_498.png;taza;type;gold;switch;1;T;4;1;1;2;Stim4_Set4;0;None;88;87;88;0;87;87;87;;;;;;;;;;;;;;;;;;;;;;;435.2477049;436.2617543;436.2617543;436.2617543;436.2617543;436.2617543;436.2617543;436.2617543;436.2617543;['t', 'a', 'z', 'a'];0;[1.0213728994131088, 1.128028699196875, 1.4838346987962723, 1.6084475992247462];taza;C:\2023\REPSWITCH21092023\REPSWITCH_excgange\REPSWITCH_excgange\data/420201_REPSWITCH1_version2_list1_2024-01-16_15h35.09.580_micRespv2l1_recorded\recording_micRespv2l1_2024-01-16_15h42.20.078.wav;439.2830007;439.7831286;None;439.2830007;439.2830007;439.2830007;439.2830007;439.2830007;439.2830007;;;;;;420201;1;2024-01-16_15h35.09.580;REPSWITCH1_version2_list1;2022.2.4;144.1343786;
REPSWITCH1/PICTURE_235.png;aguja;speak;darkblue;filler;2;F;4;1;1;2;Stim4_Set3;0;None;89;88;89;0;88;88;88;;;;;;;;;;;;;;;;;;;;;;;439.7831286;440.9290916;440.9290916;440.9290916;440.9290916;440.9290916;440.9290916;440.9290916;440.9290916;None;0;;;C:\2023\REPSWITCH21092023\REPSWITCH_excgange\REPSWITCH_excgange\data/420201_REPSWITCH1_version2_list1_2024-01-16_15h35.09.580_micRespv2l1_recorded\recording_micRespv2l1_2024-01-16_15h42.24.747.wav;443.957214;;None;443.957214;443.957214;443.957214;443.957214;443.957214;443.957214;;;;;;420201;1;2024-01-16_15h35.09.580;REPSWITCH1_version2_list1;2022.2.4;144.1343786;
REPSWITCH1/PICTURE_35.png;oreja;type;gold;filler;1;F;4;1;1;2;Stim5_Set3;0;None;90;89;90;0;89;89;89;;;;;;;;;;;;;;;;;;;;;;;444.4572386;445.5546767;445.5546767;445.5546767;445.5546767;445.5546767;445.5546767;445.5546767;445.5546767;['o', 'r', 'e', 'j', 'a'];0;[1.259290399029851, 1.513736699707806, 1.6742745991796255, 1.8340424988418818, 2.073195199482143];oreja;C:\2023\REPSWITCH21092023\REPSWITCH_excgange\REPSWITCH_excgange\data/420201_REPSWITCH1_version2_list1_2024-01-16_15h35.09.580_micRespv2l1_recorded\recording_micRespv2l1_2024-01-16_15h42.29.372.wav;448.5759438;449.0759239;None;448.5759438;448.5759438;448.5759438;448.5759438;448.5759438;448.5759438;;;;;;420201;1;2024-01-16_15h35.09.580;REPSWITCH1_version2_list1;2022.2.4;144.1343786;
REPSWITCH1/PICTURE_687.png;camisa;type;gold;nontarget;1;NT;4;1;1;2;Stim5_Set4;1;repeat;91;90;91;0;90;90;90;;;;;;;;;;;;;;;;;;;;;;;449.0759239;450.2150055;450.2150055;450.2150055;450.2150055;450.2150055;450.2150055;450.2150055;450.2150055;['c', 'a', 'm', 'i', 's', 'a'];0;[1.0133224986493587, 1.1289314990863204, 1.4860596992075443, 1.6434782994911075, 1.8119469992816448, 2.0026478990912437];camisa;C:\2023\REPSWITCH21092023\REPSWITCH_excgange\REPSWITCH_excgange\data/420201_REPSWITCH1_version2_list1_2024-01-16_15h35.09.580_micRespv2l1_recorded\recording_micRespv2l1_2024-01-16_15h42.34.032.wav;453.2362826;453.7362689;None;453.2362826;453.2362826;453.2362826;453.2362826;453.2362826;453.2362826;;;;;;420201;1;2024-01-16_15h35.09.580;REPSWITCH1_version2_list1;2022.2.4;144.1343786;
REPSWITCH1/PICTURE_687.png;camisa;speak;darkblue;switch;2;T;4;1;1;2;Stim5_Set4;0;None;92;91;92;0;91;91;91;;;;;;;;;;;;;;;;;;;;;;;453.7362689;454.8822976;454.8822976;454.8822976;454.8822976;454.8822976;454.8822976;454.8822976;454.8822976;None;0;;;C:\2023\REPSWITCH21092023\REPSWITCH_excgange\REPSWITCH_excgange\data/420201_REPSWITCH1_version2_list1_2024-01-16_15h35.09.580_micRespv2l1_recorded\recording_micRespv2l1_2024-01-16_15h42.38.700.wav;457.9034872;458.4035216;None;457.9034872;457.9034872;457.9034872;457.9034872;457.9034872;457.9034872;;;;;;420201;1;2024-01-16_15h35.09.580;REPSWITCH1_version2_list1;2022.2.4;144.1343786;
REPSWITCH1/PICTURE_338.png;regalo;speak;darkblue;nontarget;2;NT;4;1;1;2;Stim6_Set4;0;None;93;92;93;0;92;92;92;;;;;;;;;;;;;;;;;;;;;;;458.4035216;459.549576;459.549576;459.549576;459.549576;459.549576;459.549576;459.549576;459.549576;None;0;;;C:\2023\REPSWITCH21092023\REPSWITCH_excgange\REPSWITCH_excgange\data/420201_REPSWITCH1_version2_list1_2024-01-16_15h35.09.580_micRespv2l1_recorded\recording_micRespv2l1_2024-01-16_15h42.43.367.wav;462.5707653;463.0708279;None;462.5707653;462.5707653;462.5707653;462.5707653;462.5707653;462.5707653;;;;;;420201;1;2024-01-16_15h35.09.580;REPSWITCH1_version2_list1;2022.2.4;144.1343786;
REPSWITCH1/PICTURE_338.png;regalo;speak;darkblue;repeat;2;T;4;1;1;2;Stim6_Set4;0;None;94;93;94;0;93;93;93;;;;;;;;;;;;;;;;;;;;;;;463.0708279;464.2099252;464.2099252;464.2099252;464.2099252;464.2099252;464.2099252;464.2099252;464.2099252;None;0;;;C:\2023\REPSWITCH21092023\REPSWITCH_excgange\REPSWITCH_excgange\data/420201_REPSWITCH1_version2_list1_2024-01-16_15h35.09.580_micRespv2l1_recorded\recording_micRespv2l1_2024-01-16_15h42.48.027.wav;467.2311006;467.731157;None;467.2311006;467.2311006;467.2311006;467.2311006;467.2311006;467.2311006;;;;;;420201;1;2024-01-16_15h35.09.580;REPSWITCH1_version2_list1;2022.2.4;144.1343786;
REPSWITCH1/PICTURE_663.png;columna;type;gold;filler;1;F;4;1;1;2;Extra6;0;None;95;94;95;0;94;94;94;;;;;;;;;;;;;;;;;;;;;;;467.731157;468.891019;468.891019;468.891019;468.891019;468.891019;468.891019;468.891019;468.891019;['c', 'o', 'l', 'u', 'm', 'n', 'a'];0;[1.4629695992916822, 1.6503297993913293, 1.8227571994066238, 2.0998279992491007, 2.404815599322319, 2.6120102992281318, 2.764785598963499];columna;C:\2023\REPSWITCH21092023\REPSWITCH_excgange\REPSWITCH_excgange\data/420201_REPSWITCH1_version2_list1_2024-01-16_15h35.09.580_micRespv2l1_recorded\recording_micRespv2l1_2024-01-16_15h42.52.708.wav;471.9122604;472.4123239;None;471.9122604;471.9122604;471.9122604;471.9122604;471.9122604;471.9122604;;;;;;420201;1;2024-01-16_15h35.09.580;REPSWITCH1_version2_list1;2022.2.4;144.1343786;
REPSWITCH1/PICTURE_271.png;conejo;speak;darkblue;filler;2;F;4;1;1;2;Stim7_Set3;0;None;96;95;96;0;95;95;95;;;;;;;;;;;;;;;;;;;;;;;472.4123239;473.481986;473.481986;473.481986;473.481986;473.481986;473.481986;473.481986;473.481986;None;0;;;C:\2023\REPSWITCH21092023\REPSWITCH_excgange\REPSWITCH_excgange\data/420201_REPSWITCH1_version2_list1_2024-01-16_15h35.09.580_micRespv2l1_recorded\recording_micRespv2l1_2024-01-16_15h42.57.301.wav;476.5100856;;None;476.5100856;476.5100856;476.5100856;476.5100856;476.5100856;476.5100856;;;;;;420201;1;2024-01-16_15h35.09.580;REPSWITCH1_version2_list1;2022.2.4;144.1343786;
REPSWITCH1/PICTURE_48.png;bombero;speak;darkblue;nontarget;2;NT;4;1;1;2;Stim7_Set4;0;None;97;96;97;0;96;96;96;;;;;;;;;;;;;;;;;;;;;;;477.0101552;478.086755;478.086755;478.086755;478.086755;478.086755;478.086755;478.086755;478.086755;None;0;;;C:\2023\REPSWITCH21092023\REPSWITCH_excgange\REPSWITCH_excgange\data/420201_REPSWITCH1_version2_list1_2024-01-16_15h35.09.580_micRespv2l1_recorded\recording_micRespv2l1_2024-01-16_15h43.01.904.wav;481.1079086;481.6079702;None;481.1079086;481.1079086;481.1079086;481.1079086;481.1079086;481.1079086;;;;;;420201;1;2024-01-16_15h35.09.580;REPSWITCH1_version2_list1;2022.2.4;144.1343786;
REPSWITCH1/PICTURE_48.png;bombero;type;gold;switch;1;T;4;1;1;2;Stim7_Set4;0;None;98;97;98;0;97;97;97;;;;;;;;;;;;;;;;;;;;;;;481.6079702;482.7678594;482.7678594;482.7678594;482.7678594;482.7678594;482.7678594;482.7678594;482.7678594;['b', 'o', 'm', 'b', 'e'];0;[0.9718845002353191, 1.1972124995663762, 2.3477744003757834, 2.6716809002682567, 2.8311778996139765];bombe;C:\2023\REPSWITCH21092023\REPSWITCH_excgange\REPSWITCH_excgange\data/420201_REPSWITCH1_version2_list1_2024-01-16_15h35.09.580_micRespv2l1_recorded\recording_micRespv2l1_2024-01-16_15h43.06.585.wav;485.7890888;486.2891448;None;485.7890888;485.7890888;485.7890888;485.7890888;485.7890888;485.7890888;;;;;;420201;1;2024-01-16_15h35.09.580;REPSWITCH1_version2_list1;2022.2.4;144.1343786;
REPSWITCH1/PICTURE_728.png;pulpo;type;gold;nontarget;1;NT;4;1;1;2;Stim8_Set4;0;None;99;98;99;0;98;98;98;;;;;;;;;;;;;;;;;;;;;;;486.2891448;487.4351027;487.4351027;487.4351027;487.4351027;487.4351027;487.4351027;487.4351027;487.4351027;['p', 'u', 'l', 'p', 'o'];0;[1.1653050994500518, 1.6210133992135525, 1.8582111988216639, 2.082430299371481, 2.258958399295807];pulpo;C:\2023\REPSWITCH21092023\REPSWITCH_excgange\REPSWITCH_excgange\data/420201_REPSWITCH1_version2_list1_2024-01-16_15h35.09.580_micRespv2l1_recorded\recording_micRespv2l1_2024-01-16_15h43.11.253.wav;490.4563588;490.9564243;None;490.4563588;490.4563588;490.4563588;490.4563588;490.4563588;490.4563588;;;;;;420201;1;2024-01-16_15h35.09.580;REPSWITCH1_version2_list1;2022.2.4;144.1343786;
REPSWITCH1/PICTURE_728.png;pulpo;type;gold;repeat;1;T;4;1;1;2;Stim8_Set4;0;None;100;99;100;0;99;99;99;;;;;;;;;;;;;;;;;;;;;;;490.9564243;492.067754;492.067754;492.067754;492.067754;492.067754;492.067754;492.067754;492.067754;['p', 'u', 'l', 'p', 'o'];0;[0.9815775994211435, 1.2769977990537882, 1.5161364991217852, 1.7102306997403502, 1.8540071994066238];pulpo;C:\2023\REPSWITCH21092023\REPSWITCH_excgange\REPSWITCH_excgange\data/420201_REPSWITCH1_version2_list1_2024-01-16_15h35.09.580_micRespv2l1_recorded\recording_micRespv2l1_2024-01-16_15h43.15.886.wav;495.0958361;;None;495.0958361;495.0958361;495.0958361;495.0958361;495.0958361;495.0958361;;;;;;420201;1;2024-01-16_15h35.09.580;REPSWITCH1_version2_list1;2022.2.4;144.1343786;
REPSWITCH1/PICTURE_320.png;iglesia;speak;darkblue;filler;1;F;4;1;1;2;Stim8_Set3;0;None;101;100;101;0;100;100;100;;;;;;;;;;;;;;;;;;;;;;;495.5959308;496.7210439;496.7210439;496.7210439;496.7210439;496.7210439;496.7210439;496.7210439;496.7210439;None;0;;;C:\2023\REPSWITCH21092023\REPSWITCH_excgange\REPSWITCH_excgange\data/420201_REPSWITCH1_version2_list1_2024-01-16_15h35.09.580_micRespv2l1_recorded\recording_micRespv2l1_2024-01-16_15h43.20.538.wav;499.7423532;500.2423598;None;499.7423532;499.7423532;499.7423532;499.7423532;499.7423532;499.7423532;;;;;;420201;1;2024-01-16_15h35.09.580;REPSWITCH1_version2_list1;2022.2.4;144.1343786;
REPSWITCH1/PICTURE_464.png;goma;type;gold;filler;1;F;4;1;1;2;Stim6_Set3;0;None;102;101;102;0;101;101;101;;;;;;;;;;;;;;;;;;;;;;;500.2423598;501.3674904;501.3674904;501.3674904;501.3674904;501.3674904;501.3674904;501.3674904;501.3674904;['g', 'o', 'a'];0;[1.233109699562192, 1.4902315000072122, 1.8403291003778577];goa;C:\2023\REPSWITCH21092023\REPSWITCH_excgange\REPSWITCH_excgange\data/420201_REPSWITCH1_version2_list1_2024-01-16_15h35.09.580_micRespv2l1_recorded\recording_micRespv2l1_2024-01-16_15h43.25.185.wav;504.388739;504.8888016;space;504.388739;504.388739;504.388739;504.388739;504.388739;504.388739;504.8888016;504.8888016;11.2740884;;;420201;1;2024-01-16_15h35.09.580;REPSWITCH1_version2_list1;2022.2.4;144.1343786;
REPSWITCH1/PICTURE_663.png;columna;type;gold;filler;1;F;1;2;1;2;Extra6;0;None;103;102;1;0;102;102;102;;;;;;;;;;;;;;;;;;;;;;;516.1750793;517.2029118;517.2029118;517.2029118;517.2029118;517.2029118;517.2029118;517.2029118;517.2029118;['c', 'o', 'l', 'u'];0;[1.2479244992136955, 2.041230999864638, 2.2087452998384833, 2.4528038995340466];colu;C:\2023\REPSWITCH21092023\REPSWITCH_excgange\REPSWITCH_excgange\data/420201_REPSWITCH1_version2_list1_2024-01-16_15h35.09.580_micRespv2l1_recorded\recording_micRespv2l1_2024-01-16_15h43.41.020.wav;520.2241471;520.7242808;None;520.2241471;520.2241471;520.2241471;520.2241471;520.2241471;520.2241471;;;;;;420201;1;2024-01-16_15h35.09.580;REPSWITCH1_version2_list1;2022.2.4;144.1343786;
REPSWITCH1/PICTURE_128.png;muñeca;speak;darkblue;nontarget;2;NT;1;2;1;2;Stim4_Set1;1;switch;104;103;2;0;103;103;103;;;;;;;;;;;;;;;;;;;;;;;520.7242808;521.7591095;521.7591095;521.7591095;521.7591095;521.7591095;521.7591095;521.7591095;521.7591095;None;0;;;C:\2023\REPSWITCH21092023\REPSWITCH_excgange\REPSWITCH_excgange\data/420201_REPSWITCH1_version2_list1_2024-01-16_15h35.09.580_micRespv2l1_recorded\recording_micRespv2l1_2024-01-16_15h43.45.577.wav;524.7872427;;None;524.7872427;524.7872427;524.7872427;524.7872427;524.7872427;524.7872427;;;;;;420201;1;2024-01-16_15h35.09.580;REPSWITCH1_version2_list1;2022.2.4;144.1343786;
REPSWITCH1/PICTURE_128.png;muñeca;speak;darkblue;repeat;2;T;1;2;1;2;Stim4_Set1;0;None;105;104;3;0;104;104;104;;;;;;;;;;;;;;;;;;;;;;;525.2872806;526.3777993;526.3777993;526.3777993;526.3777993;526.3777993;526.3777993;526.3777993;526.3777993;None;0;;;C:\2023\REPSWITCH21092023\REPSWITCH_excgange\REPSWITCH_excgange\data/420201_REPSWITCH1_version2_list1_2024-01-16_15h35.09.580_micRespv2l1_recorded\recording_micRespv2l1_2024-01-16_15h43.50.195.wav;529.4058964;;None;529.4058964;529.4058964;529.4058964;529.4058964;529.4058964;529.4058964;;;;;;420201;1;2024-01-16_15h35.09.580;REPSWITCH1_version2_list1;2022.2.4;144.1343786;
REPSWITCH1/PICTURE_8.png;pierna;type;gold;filler;1;F;1;2;1;2;Stim3_Set4;0;None;106;105;4;0;105;105;105;;;;;;;;;;;;;;;;;;;;;;;529.9060216;531.0241694;531.0241694;531.0241694;531.0241694;531.0241694;531.0241694;531.0241694;531.0241694;['p', 'i', 'e', 'r', 'n', 'a'];0;[1.3060143999755383, 1.515437699854374, 1.8073726994916797, 2.0568669997155666, 2.2492518993094563, 2.4704725993797183];pierna;C:\2023\REPSWITCH21092023\REPSWITCH_excgange\REPSWITCH_excgange\data/420201_REPSWITCH1_version2_list1_2024-01-16_15h35.09.580_micRespv2l1_recorded\recording_micRespv2l1_2024-01-16_15h43.54.841.wav;534.0454751;534.5454607;None;534.0454751;534.0454751;534.0454751;534.0454751;534.0454751;534.0454751;;;;;;420201;1;2024-01-16_15h35.09.580;REPSWITCH1_version2_list1;2022.2.4;144.1343786;
REPSWITCH1/PICTURE_135.png;traje;speak;darkblue;nontarget;2;NT;1;2;1;2;Stim3_Set1;1;switch;107;106;5;0;106;106;106;;;;;;;;;;;;;;;;;;;;;;;534.5454607;535.7192392;535.7192392;535.7192392;535.7192392;535.7192392;535.7192392;535.7192392;535.7192392;None;0;;;C:\2023\REPSWITCH21092023\REPSWITCH_excgange\REPSWITCH_excgange\data/420201_REPSWITCH1_version2_list1_2024-01-16_15h35.09.580_micRespv2l1_recorded\recording_micRespv2l1_2024-01-16_15h43.59.536.wav;538.7404575;539.2404844;None;538.7404575;538.7404575;538.7404575;538.7404575;538.7404575;538.7404575;;;;;;420201;1;2024-01-16_15h35.09.580;REPSWITCH1_version2_list1;2022.2.4;144.1343786;
REPSWITCH1/PICTURE_135.png;traje;speak;darkblue;repeat;2;T;1;2;1;2;Stim3_Set1;0;None;108;107;6;0;107;107;107;;;;;;;;;;;;;;;;;;;;;;;539.2404844;540.2753772;540.2753772;540.2753772;540.2753772;540.2753772;540.2753772;540.2753772;540.2753772;None;0;;;C:\2023\REPSWITCH21092023\REPSWITCH_excgange\REPSWITCH_excgange\data/420201_REPSWITCH1_version2_list1_2024-01-16_15h35.09.580_micRespv2l1_recorded\recording_micRespv2l1_2024-01-16_15h44.04.092.wav;543.2966163;543.7966613;None;543.2966163;543.2966163;543.2966163;543.2966163;543.2966163;543.2966163;;;;;;420201;1;2024-01-16_15h35.09.580;REPSWITCH1_version2_list1;2022.2.4;144.1343786;
REPSWITCH1/PICTURE_673.png;tenedor;type;gold;filler;1;F;1;2;1;2;Extra5;0;None;109;108;7;0;108;108;108;;;;;;;;;;;;;;;;;;;;;;;543.7966613;544.9218487;544.9218487;544.9218487;544.9218487;544.9218487;544.9218487;544.9218487;544.9218487;['t', 'e', 'n', 'e', 'd', 'o', 'r'];0;[1.0648485999554396, 1.1665445994585752, 1.3569037998095155, 1.4796690996736288, 1.6909070992842317, 1.8583436999469995, 1.991924399510026];tenedor;C:\2023\REPSWITCH21092023\REPSWITCH_excgange\REPSWITCH_excgange\data/420201_REPSWITCH1_version2_list1_2024-01-16_15h35.09.580_micRespv2l1_recorded\recording_micRespv2l1_2024-01-16_15h44.08.739.wav;547.9430517;548.4431098;None;547.9430517;547.9430517;547.9430517;547.9430517;547.9430517;547.9430517;;;;;;420201;1;2024-01-16_15h35.09.580;REPSWITCH1_version2_list1;2022.2.4;144.1343786;
REPSWITCH1/PICTURE_728.png;pulpo;speak;darkblue;filler;2;F;1;2;1;2;Stim8_Set4;0;None;110;109;8;0;109;109;109;;;;;;;;;;;;;;;;;;;;;;;548.4431098;549.5543528;549.5543528;549.5543528;549.5543528;549.5543528;549.5543528;549.5543528;549.5543528;None;0;;;C:\2023\REPSWITCH21092023\REPSWITCH_excgange\REPSWITCH_excgange\data/420201_REPSWITCH1_version2_list1_2024-01-16_15h35.09.580_micRespv2l1_recorded\recording_micRespv2l1_2024-01-16_15h44.13.371.wav;552.5755734;553.0756427;None;552.5755734;552.5755734;552.5755734;552.5755734;552.5755734;552.5755734;;;;;;420201;1;2024-01-16_15h35.09.580;REPSWITCH1_version2_list1;2022.2.4;144.1343786;
REPSWITCH1/PICTURE_16.png;cazador;speak;darkblue;nontarget;2;NT;1;2;1;2;Stim6_Set1;1;repeat;111;110;9;0;110;110;110;;;;;;;;;;;;;;;;;;;;;;;553.0756427;554.1105774;554.1105774;554.1105774;554.1105774;554.1105774;554.1105774;554.1105774;554.1105774;None;0;;;C:\2023\REPSWITCH21092023\REPSWITCH_excgange\REPSWITCH_excgange\data/420201_REPSWITCH1_version2_list1_2024-01-16_15h35.09.580_micRespv2l1_recorded\recording_micRespv2l1_2024-01-16_15h44.17.927.wav;557.1317313;557.6318028;None;557.1317313;557.1317313;557.1317313;557.1317313;557.1317313;557.1317313;;;;;;420201;1;2024-01-16_15h35.09.580;REPSWITCH1_version2_list1;2022.2.4;144.1343786;
REPSWITCH1/PICTURE_16.png;cazador;type;gold;switch;1;T;1;2;1;2;Stim6_Set1;0;None;112;111;10;0;111;111;111;;;;;;;;;;;;;;;;;;;;;;;557.6318028;558.7570401;558.7570401;558.7570401;558.7570401;558.7570401;558.7570401;558.7570401;558.7570401;['c', 'a', 'z', 'a', 'd', 'o', 'r'];0;[0.929904199205339, 1.0235837996006012, 1.2142327995970845, 1.313230799511075, 1.5674433996900916, 1.8993133995682001, 2.051630599424243];cazador;C:\2023\REPSWITCH21092023\REPSWITCH_excgange\REPSWITCH_excgange\data/420201_REPSWITCH1_version2_list1_2024-01-16_15h35.09.580_micRespv2l1_recorded\recording_micRespv2l1_2024-01-16_15h44.22.575.wav;561.7851431;;None;561.7851431;561.7851431;561.7851431;561.7851431;561.7851431;561.7851431;;;;;;420201;1;2024-01-16_15h35.09.580;REPSWITCH1_version2_list1;2022.2.4;144.1343786;
REPSWITCH1/PICTURE_498.png;taza;type;gold;filler;1;F;1;2;1;2;Stim4_Set4;1;repeat;113;112;11;0;112;112;112;;;;;;;;;;;;;;;;;;;;;;;562.2852007;563.3686781;563.3686781;563.3686781;563.3686781;563.3686781;563.3686781;563.3686781;563.3686781;['t', 'a', 'z', 'a'];0;[1.3073105998337269, 1.4558163993060589, 1.68737639952451, 1.7853623991832137];taza;C:\2023\REPSWITCH21092023\REPSWITCH_excgange\REPSWITCH_excgange\data/420201_REPSWITCH1_version2_list1_2024-01-16_15h35.09.580_micRespv2l1_recorded\recording_micRespv2l1_2024-01-16_15h44.27.186.wav;566.3898748;566.8899728;None;566.3898748;566.3898748;566.3898748;566.3898748;566.3898748;566.3898748;;;;;;420201;1;2024-01-16_15h35.09.580;REPSWITCH1_version2_list1;2022.2.4;144.1343786;
REPSWITCH1/PICTURE_381.png;fresa;type;gold;nontarget;1;NT;1;2;1;2;Stim2_Set1;1;repeat;114;113;12;0;113;113;113;;;;;;;;;;;;;;;;;;;;;;;566.8899728;568.0428827;568.0428827;568.0428827;568.0428827;568.0428827;568.0428827;568.0428827;568.0428827;['f', 'r', 'e', 's', 'a'];0;[1.0881162993609905, 1.2595387995243073, 1.4080461990088224, 1.6093645989894867, 1.8017226988449693];fresa;C:\2023\REPSWITCH21092023\REPSWITCH_excgange\REPSWITCH_excgange\data/420201_REPSWITCH1_version2_list1_2024-01-16_15h35.09.580_micRespv2l1_recorded\recording_micRespv2l1_2024-01-16_15h44.31.860.wav;571.0641937;571.5642633;None;571.0641937;571.0641937;571.0641937;571.0641937;571.0641937;571.0641937;;;;;;420201;1;2024-01-16_15h35.09.580;REPSWITCH1_version2_list1;2022.2.4;144.1343786;
REPSWITCH1/PICTURE_381.png;fresa;speak;darkblue;switch;2;T;1;2;1;2;Stim2_Set1;0;None;115;114;13;0;114;114;114;;;;;;;;;;;;;;;;;;;;;;;571.5642633;572.6546238;572.6546238;572.6546238;572.6546238;572.6546238;572.6546238;572.6546238;572.6546238;None;0;;;C:\2023\REPSWITCH21092023\REPSWITCH_excgange\REPSWITCH_excgange\data/420201_REPSWITCH1_version2_list1_2024-01-16_15h35.09.580_micRespv2l1_recorded\recording_micRespv2l1_2024-01-16_15h44.36.472.wav;575.68279;;None;575.68279;575.68279;575.68279;575.68279;575.68279;575.68279;;;;;;420201;1;2024-01-16_15h35.09.580;REPSWITCH1_version2_list1;2022.2.4;144.1343786;
REPSWITCH1/PICTURE_178.png;puente;speak;darkblue;nontarget;2;NT;1;2;1;2;Stim1_Set1;0;None;116;115;14;0;115;115;115;;;;;;;;;;;;;;;;;;;;;;;576.1828468;577.3149628;577.3149628;577.3149628;577.3149628;577.3149628;577.3149628;577.3149628;577.3149628;None;0;;;C:\2023\REPSWITCH21092023\REPSWITCH_excgange\REPSWITCH_excgange\data/420201_REPSWITCH1_version2_list1_2024-01-16_15h35.09.580_micRespv2l1_recorded\recording_micRespv2l1_2024-01-16_15h44.41.132.wav;580.3431851;;None;580.3431851;580.3431851;580.3431851;580.3431851;580.3431851;580.3431851;;;;;;420201;1;2024-01-16_15h35.09.580;REPSWITCH1_version2_list1;2022.2.4;144.1343786;
REPSWITCH1/PICTURE_178.png;puente;type;gold;switch;1;T;1;2;1;2;Stim1_Set1;0;None;117;116;15;0;116;116;116;;;;;;;;;;;;;;;;;;;;;;;580.8431735;581.8502748;581.8502748;581.8502748;581.8502748;581.8502748;581.8502748;581.8502748;581.8502748;['p', 'u', 'e', 'n', 't', 'e'];0;[1.1265006987378001, 1.408504399470985, 1.669311799108982, 1.7979346988722682, 1.9877704987302423, 2.070457698777318];puente;C:\2023\REPSWITCH21092023\REPSWITCH_excgange\REPSWITCH_excgange\data/420201_REPSWITCH1_version2_list1_2024-01-16_15h35.09.580_micRespv2l1_recorded\recording_micRespv2l1_2024-01-16_15h44.45.667.wav;584.8714598;585.3715419;None;584.8714598;584.8714598;584.8714598;584.8714598;584.8714598;584.8714598;;;;;;420201;1;2024-01-16_15h35.09.580;REPSWITCH1_version2_list1;2022.2.4;144.1343786;
REPSWITCH1/PICTURE_719.png;baño;speak;darkblue;filler;2;F;1;2;1;2;Stim2_Set4;0;None;118;117;16;0;117;117;117;;;;;;;;;;;;;;;;;;;;;;;585.3715419;586.5383614;586.5383614;586.5383614;586.5383614;586.5383614;586.5383614;586.5383614;586.5383614;None;0;;;C:\2023\REPSWITCH21092023\REPSWITCH_excgange\REPSWITCH_excgange\data/420201_REPSWITCH1_version2_list1_2024-01-16_15h35.09.580_micRespv2l1_recorded\recording_micRespv2l1_2024-01-16_15h44.50.356.wav;589.5665324;;None;589.5665324;589.5665324;589.5665324;589.5665324;589.5665324;589.5665324;;;;;;420201;1;2024-01-16_15h35.09.580;REPSWITCH1_version2_list1;2022.2.4;144.1343786;
REPSWITCH1/PICTURE_169.png;espalda;type;gold;nontarget;1;NT;1;2;1;2;Stim8_Set1;1;switch;119;118;17;0;118;118;118;;;;;;;;;;;;;;;;;;;;;;;590.06667;591.1432085;591.1432085;591.1432085;591.1432085;591.1432085;591.1432085;591.1432085;591.1432085;['e', 's', 'p', 'a', 'l', 'd', 'a'];0;[1.28439199924469, 1.4441257994621992, 1.625479699112475, 1.7630452988669276, 1.8477353993803263, 2.2037477986887097, 2.4349781991913915];espalda;C:\2023\REPSWITCH21092023\REPSWITCH_excgange\REPSWITCH_excgange\data/420201_REPSWITCH1_version2_list1_2024-01-16_15h35.09.580_micRespv2l1_recorded\recording_micRespv2l1_2024-01-16_15h44.54.960.wav;594.1643623;594.6644318;None;594.1643623;594.1643623;594.1643623;594.1643623;594.1643623;594.1643623;;;;;;420201;1;2024-01-16_15h35.09.580;REPSWITCH1_version2_list1;2022.2.4;144.1343786;
REPSWITCH1/PICTURE_169.png;espalda;type;gold;repeat;1;T;1;2;1;2;Stim8_Set1;0;None;120;119;18;0;119;119;119;;;;;;;;;;;;;;;;;;;;;;;594.6644318;595.7687495;595.7687495;595.7687495;595.7687495;595.7687495;595.7687495;595.7687495;595.7687495;['e', 's', 'p', 'a', 'l', 'd', 'a'];0;[1.0720322001725435, 1.2318890001624823, 1.3898122003301978, 1.5084186000749469, 1.6093137999996543, 1.901285999454558, 2.111543499864638];espalda;C:\2023\REPSWITCH21092023\REPSWITCH_excgange\REPSWITCH_excgange\data/420201_REPSWITCH1_version2_list1_2024-01-16_15h35.09.580_micRespv2l1_recorded\recording_micRespv2l1_2024-01-16_15h44.59.587.wav;598.7969562;;None;598.7969562;598.7969562;598.7969562;598.7969562;598.7969562;598.7969562;;;;;;420201;1;2024-01-16_15h35.09.580;REPSWITCH1_version2_list1;2022.2.4;144.1343786;
REPSWITCH1/PICTURE_48.png;bombero;speak;darkblue;filler;2;F;1;2;1;2;Stim7_Set4;1;switch;121;120;19;0;120;120;120;;;;;;;;;;;;;;;;;;;;;;;599.2969698;600.4152692;600.4152692;600.4152692;600.4152692;600.4152692;600.4152692;600.4152692;600.4152692;None;0;;;C:\2023\REPSWITCH21092023\REPSWITCH_excgange\REPSWITCH_excgange\data/420201_REPSWITCH1_version2_list1_2024-01-16_15h35.09.580_micRespv2l1_recorded\recording_micRespv2l1_2024-01-16_15h45.04.232.wav;603.4364017;603.9364656;None;603.4364017;603.4364017;603.4364017;603.4364017;603.4364017;603.4364017;;;;;;420201;1;2024-01-16_15h35.09.580;REPSWITCH1_version2_list1;2022.2.4;144.1343786;
REPSWITCH1/PICTURE_19.png;pavo;type;gold;nontarget;1;NT;1;2;1;2;Stim5_Set1;1;switch;122;121;20;0;121;121;121;;;;;;;;;;;;;;;;;;;;;;;603.9364656;605.0477285;605.0477285;605.0477285;605.0477285;605.0477285;605.0477285;605.0477285;605.0477285;['p', 'a', 'v', 'o'];0;[1.199567999690771, 1.3813365995883942, 1.7122243996709585, 1.9228211995214224];pavo;C:\2023\REPSWITCH21092023\REPSWITCH_excgange\REPSWITCH_excgange\data/420201_REPSWITCH1_version2_list1_2024-01-16_15h35.09.580_micRespv2l1_recorded\recording_micRespv2l1_2024-01-16_15h45.08.866.wav;608.0759358;;None;608.0759358;608.0759358;608.0759358;608.0759358;608.0759358;608.0759358;;;;;;420201;1;2024-01-16_15h35.09.580;REPSWITCH1_version2_list1;2022.2.4;144.1343786;
REPSWITCH1/PICTURE_19.png;pavo;type;gold;repeat;1;T;1;2;1;2;Stim5_Set1;0;None;123;122;21;0;122;122;122;;;;;;;;;;;;;;;;;;;;;;;608.575976;609.666479;609.666479;609.666479;609.666479;609.666479;609.666479;609.666479;609.666479;['p', 'a', 'v', 'o'];0;[0.919531399384141, 1.0490537993609905, 1.3289670990779996, 1.4827356990426779];pavo;C:\2023\REPSWITCH21092023\REPSWITCH_excgange\REPSWITCH_excgange\data/420201_REPSWITCH1_version2_list1_2024-01-16_15h35.09.580_micRespv2l1_recorded\recording_micRespv2l1_2024-01-16_15h45.13.484.wav;612.6876168;613.1876749;None;612.6876168;612.6876168;612.6876168;612.6876168;612.6876168;612.6876168;;;;;;420201;1;2024-01-16_15h35.09.580;REPSWITCH1_version2_list1;2022.2.4;144.1343786;
REPSWITCH1/PICTURE_319.png;vaca;speak;darkblue;filler;2;F;1;2;1;2;Stim1_Set4;0;None;124;123;22;0;123;123;123;;;;;;;;;;;;;;;;;;;;;;;613.1876749;614.2504215;614.2504215;614.2504215;614.2504215;614.2504215;614.2504215;614.2504215;614.2504215;None;0;;;C:\2023\REPSWITCH21092023\REPSWITCH_excgange\REPSWITCH_excgange\data/420201_REPSWITCH1_version2_list1_2024-01-16_15h35.09.580_micRespv2l1_recorded\recording_micRespv2l1_2024-01-16_15h45.18.068.wav;617.2715349;617.7716112;None;617.2715349;617.2715349;617.2715349;617.2715349;617.2715349;617.2715349;;;;;;420201;1;2024-01-16_15h35.09.580;REPSWITCH1_version2_list1;2022.2.4;144.1343786;
REPSWITCH1/PICTURE_338.png;regalo;type;gold;filler;1;F;1;2;1;2;Stim6_Set4;0;None;125;124;23;0;124;124;124;;;;;;;;;;;;;;;;;;;;;;;617.7716112;618.8828744;618.8828744;618.8828744;618.8828744;618.8828744;618.8828744;618.8828744;618.8828744;['r', 'e', 'g', 'a', 'l', 'o'];0;[1.1376245999708772, 1.3054267996922135, 1.498811699450016, 1.6373542994260788, 1.9652833994477987, 2.101851399987936];regalo;C:\2023\REPSWITCH21092023\REPSWITCH_excgange\REPSWITCH_excgange\data/420201_REPSWITCH1_version2_list1_2024-01-16_15h35.09.580_micRespv2l1_recorded\recording_micRespv2l1_2024-01-16_15h45.22.700.wav;621.9041162;622.4041822;None;621.9041162;621.9041162;621.9041162;621.9041162;621.9041162;621.9041162;;;;;;420201;1;2024-01-16_15h35.09.580;REPSWITCH1_version2_list1;2022.2.4;144.1343786;
REPSWITCH1/PICTURE_142.png;vaso;type;gold;nontarget;1;NT;1;2;1;2;Stim7_Set1;0;None;126;125;24;0;125;125;125;;;;;;;;;;;;;;;;;;;;;;;622.4041822;623.4807338;623.4807338;623.4807338;623.4807338;623.4807338;623.4807338;623.4807338;623.4807338;['v', 'a', 's', 'o'];0;[0.9748599994927645, 1.0848717000335455, 1.2875475995242596, 1.4609115002676845];vaso;C:\2023\REPSWITCH21092023\REPSWITCH_excgange\REPSWITCH_excgange\data/420201_REPSWITCH1_version2_list1_2024-01-16_15h35.09.580_micRespv2l1_recorded\recording_micRespv2l1_2024-01-16_15h45.27.297.wav;626.5019231;627.002001;None;626.5019231;626.5019231;626.5019231;626.5019231;626.5019231;626.5019231;;;;;;420201;1;2024-01-16_15h35.09.580;REPSWITCH1_version2_list1;2022.2.4;144.1343786;
REPSWITCH1/PICTURE_142.png;vaso;speak;darkblue;switch;2;T;1;2;1;2;Stim7_Set1;0;None;127;126;25;0;126;126;126;;;;;;;;;;;;;;;;;;;;;;;627.002001;628.0924159;628.0924159;628.0924159;628.0924159;628.0924159;628.0924159;628.0924159;628.0924159;None;0;;;C:\2023\REPSWITCH21092023\REPSWITCH_excgange\REPSWITCH_excgange\data/420201_REPSWITCH1_version2_list1_2024-01-16_15h35.09.580_micRespv2l1_recorded\recording_micRespv2l1_2024-01-16_15h45.31.910.wav;631.1205812;;None;631.1205812;631.1205812;631.1205812;631.1205812;631.1205812;631.1205812;;;;;;420201;1;2024-01-16_15h35.09.580;REPSWITCH1_version2_list1;2022.2.4;144.1343786;
REPSWITCH1/PICTURE_687.png;camisa;type;gold;filler;1;F;1;2;1;2;Stim5_Set4;1;switch;128;127;26;0;127;127;127;;;;;;;;;;;;;;;;;;;;;;;631.6206299;632.6763468;632.6763468;632.6763468;632.6763468;632.6763468;632.6763468;632.6763468;632.6763468;['c', 'a', 'm', 'i', 's', 'a'];0;[1.0928592002019286, 1.2074776999652386, 1.5303865997120738, 1.666903699748218, 1.8243857994675636, 2.355134599842131];camisa;C:\2023\REPSWITCH21092023\REPSWITCH_excgange\REPSWITCH_excgange\data/420201_REPSWITCH1_version2_list1_2024-01-16_15h35.09.580_micRespv2l1_recorded\recording_micRespv2l1_2024-01-16_15h45.36.493.wav;635.6975592;636.197646;None;635.6975592;635.6975592;635.6975592;635.6975592;635.6975592;635.6975592;;;;;;420201;1;2024-01-16_15h35.09.580;REPSWITCH1_version2_list1;2022.2.4;144.1343786;
REPSWITCH1/PICTURE_30.png;granja;type;gold;nontarget;1;NT;2;2;1;2;Stim5_Set2;0;None;129;128;27;0;128;128;128;;;;;;;;;;;;;;;;;;;;;;;636.197646;637.2394342;637.2394342;637.2394342;637.2394342;637.2394342;637.2394342;637.2394342;637.2394342;['g', 'r', 'a', 'n', 'j', 'a'];0;[1.1188543997704983, 1.3077595997601748, 1.4520233990624547, 1.8329980997368693, 2.0034313993528485, 2.113063699565828];granja;C:\2023\REPSWITCH21092023\REPSWITCH_excgange\REPSWITCH_excgange\data/420201_REPSWITCH1_version2_list1_2024-01-16_15h35.09.580_micRespv2l1_recorded\recording_micRespv2l1_2024-01-16_15h45.41.058.wav;640.2676035;;None;640.2676035;640.2676035;640.2676035;640.2676035;640.2676035;640.2676035;;;;;;420201;1;2024-01-16_15h35.09.580;REPSWITCH1_version2_list1;2022.2.4;144.1343786;
REPSWITCH1/PICTURE_30.png;granja;type;gold;repeat;1;T;2;2;1;2;Stim5_Set2;0;None;130;129;28;0;129;129;129;;;;;;;;;;;;;;;;;;;;;;;640.7676846;641.955366;641.955366;641.955366;641.955366;641.955366;641.955366;641.955366;641.955366;['g', 'r', 'a', 'n', 'j', 'a'];0;[1.0000943997874856, 1.17117889970541, 1.2982476996257901, 1.5816520992666483, 1.78550919983536, 1.8732004994526505];granja;C:\2023\REPSWITCH21092023\REPSWITCH_excgange\REPSWITCH_excgange\data/420201_REPSWITCH1_version2_list1_2024-01-16_15h35.09.580_micRespv2l1_recorded\recording_micRespv2l1_2024-01-16_15h45.45.773.wav;644.9835113;;None;644.9835113;644.9835113;644.9835113;644.9835113;644.9835113;644.9835113;;;;;;420201;1;2024-01-16_15h35.09.580;REPSWITCH1_version2_list1;2022.2.4;144.1343786;
REPSWITCH1/PICTURE_128.png;muñeca;speak;darkblue;filler;2;F;2;2;1;2;Stim4_Set1;0;None;131;130;29;0;130;130;130;;;;;;;;;;;;;;;;;;;;;;;645.4835596;646.6088106;646.6088106;646.6088106;646.6088106;646.6088106;646.6088106;646.6088106;646.6088106;None;0;;;C:\2023\REPSWITCH21092023\REPSWITCH_excgange\REPSWITCH_excgange\data/420201_REPSWITCH1_version2_list1_2024-01-16_15h35.09.580_micRespv2l1_recorded\recording_micRespv2l1_2024-01-16_15h45.50.427.wav;649.6369237;;None;649.6369237;649.6369237;649.6369237;649.6369237;649.6369237;649.6369237;;;;;;420201;1;2024-01-16_15h35.09.580;REPSWITCH1_version2_list1;2022.2.4;144.1343786;
REPSWITCH1/PICTURE_264.png;mano;type;gold;nontarget;1;NT;2;2;1;2;Stim3_Set2;1;switch;132;131;30;0;131;131;131;;;;;;;;;;;;;;;;;;;;;;;650.1370535;651.1510166;651.1510166;651.1510166;651.1510166;651.1510166;651.1510166;651.1510166;651.1510166;['m', 'a', 'n', 'o'];0;[0.9706277996301651, 1.0672874990850687, 1.1892752991989255, 1.3433455992490053];mano;C:\2023\REPSWITCH21092023\REPSWITCH_excgange\REPSWITCH_excgange\data/420201_REPSWITCH1_version2_list1_2024-01-16_15h35.09.580_micRespv2l1_recorded\recording_micRespv2l1_2024-01-16_15h45.54.969.wav;654.1791805;;None;654.1791805;654.1791805;654.1791805;654.1791805;654.1791805;654.1791805;;;;;;420201;1;2024-01-16_15h35.09.580;REPSWITCH1_version2_list1;2022.2.4;144.1343786;
REPSWITCH1/PICTURE_264.png;mano;type;gold;repeat;1;T;2;2;1;2;Stim3_Set2;0;None;133;132;31;0;132;132;132;;;;;;;;;;;;;;;;;;;;;;;654.6792473;655.8391086;655.8391086;655.8391086;655.8391086;655.8391086;655.8391086;655.8391086;655.8391086;['m', 'a', 'n', 'o'];0;[0.7853917991742492, 0.9189308993518353, 1.078290798701346, 1.4318331992253661];mano;C:\2023\REPSWITCH21092023\REPSWITCH_excgange\REPSWITCH_excgange\data/420201_REPSWITCH1_version2_list1_2024-01-16_15h35.09.580_micRespv2l1_recorded\recording_micRespv2l1_2024-01-16_15h45.59.656.wav;658.8672905;;None;658.8672905;658.8672905;658.8672905;658.8672905;658.8672905;658.8672905;;;;;;420201;1;2024-01-16_15h35.09.580;REPSWITCH1_version2_list1;2022.2.4;144.1343786;
REPSWITCH1/PICTURE_175.png;pintor;type;gold;nontarget;1;NT;2;2;1;2;Stim1_Set2;0;None;134;133;32;0;133;133;133;;;;;;;;;;;;;;;;;;;;;;;659.3673579;660.5897581;660.5897581;660.5897581;660.5897581;660.5897581;660.5897581;660.5897581;660.5897581;['p', 'i', 'n', 't', 'o', 'r'];0;[1.128282799385488, 1.3584999991580844, 1.5348998997360468, 1.7562530990689993, 1.8843739992007613, 2.0378052992746234];pintor;C:\2023\REPSWITCH21092023\REPSWITCH_excgange\REPSWITCH_excgange\data/420201_REPSWITCH1_version2_list1_2024-01-16_15h35.09.580_micRespv2l1_recorded\recording_micRespv2l1_2024-01-16_15h46.04.407.wav;663.6179763;;None;663.6179763;663.6179763;663.6179763;663.6179763;663.6179763;663.6179763;;;;;;420201;1;2024-01-16_15h35.09.580;REPSWITCH1_version2_list1;2022.2.4;144.1343786;
REPSWITCH1/PICTURE_175.png;pintor;speak;darkblue;switch;2;T;2;2;1;2;Stim1_Set2;0;None;135;134;33;0;134;134;134;;;;;;;;;;;;;;;;;;;;;;;664.1179851;665.2084173;665.2084173;665.2084173;665.2084173;665.2084173;665.2084173;665.2084173;665.2084173;None;0;;;C:\2023\REPSWITCH21092023\REPSWITCH_excgange\REPSWITCH_excgange\data/420201_REPSWITCH1_version2_list1_2024-01-16_15h35.09.580_micRespv2l1_recorded\recording_micRespv2l1_2024-01-16_15h46.09.026.wav;668.2365497;;None;668.2365497;668.2365497;668.2365497;668.2365497;668.2365497;668.2365497;;;;;;420201;1;2024-01-16_15h35.09.580;REPSWITCH1_version2_list1;2022.2.4;144.1343786;
REPSWITCH1/PICTURE_135.png;traje;speak;darkblue;filler;2;F;2;2;1;2;Stim3_Set1;1;repeat;136;135;34;0;135;135;135;;;;;;;;;;;;;;;;;;;;;;;668.7366145;669.7992727;669.7992727;669.7992727;669.7992727;669.7992727;669.7992727;669.7992727;669.7992727;None;0;;;C:\2023\REPSWITCH21092023\REPSWITCH_excgange\REPSWITCH_excgange\data/420201_REPSWITCH1_version2_list1_2024-01-16_15h35.09.580_micRespv2l1_recorded\recording_micRespv2l1_2024-01-16_15h46.13.616.wav;672.8205575;673.3205487;None;672.8205575;672.8205575;672.8205575;672.8205575;672.8205575;672.8205575;;;;;;420201;1;2024-01-16_15h35.09.580;REPSWITCH1_version2_list1;2022.2.4;144.1343786;
REPSWITCH1/PICTURE_446.png;cerdo;speak;darkblue;nontarget;2;NT;2;2;1;2;Stim7_Set2;1;repeat;137;136;35;0;136;136;136;;;;;;;;;;;;;;;;;;;;;;;673.3205487;674.4040325;674.4040325;674.4040325;674.4040325;674.4040325;674.4040325;674.4040325;674.4040325;None;0;;;C:\2023\REPSWITCH21092023\REPSWITCH_excgange\REPSWITCH_excgange\data/420201_REPSWITCH1_version2_list1_2024-01-16_15h35.09.580_micRespv2l1_recorded\recording_micRespv2l1_2024-01-16_15h46.18.221.wav;677.4252693;677.9253444;None;677.4252693;677.4252693;677.4252693;677.4252693;677.4252693;677.4252693;;;;;;420201;1;2024-01-16_15h35.09.580;REPSWITCH1_version2_list1;2022.2.4;144.1343786;
REPSWITCH1/PICTURE_446.png;cerdo;type;gold;switch;1;T;2;2;1;2;Stim7_Set2;0;None;138;137;36;0;137;137;137;;;;;;;;;;;;;;;;;;;;;;;677.9253444;678.9741426;678.9741426;678.9741426;678.9741426;678.9741426;678.9741426;678.9741426;678.9741426;['c', 'e', 'r', 'd', 'o'];0;[1.0444590989500284, 1.2139092991128564, 1.3905602991580963, 1.5763052990660071, 1.6869765995070338];cerdo;C:\2023\REPSWITCH21092023\REPSWITCH_excgange\REPSWITCH_excgange\data/420201_REPSWITCH1_version2_list1_2024-01-16_15h35.09.580_micRespv2l1_recorded\recording_micRespv2l1_2024-01-16_15h46.22.791.wav;681.9953265;682.4953841;None;681.9953265;681.9953265;681.9953265;681.9953265;681.9953265;681.9953265;;;;;;420201;1;2024-01-16_15h35.09.580;REPSWITCH1_version2_list1;2022.2.4;144.1343786;
REPSWITCH1/PICTURE_152.png;caracol;type;gold;nontarget;1;NT;2;2;1;2;Stim2_Set2;1;repeat;139;138;37;0;138;138;138;;;;;;;;;;;;;;;;;;;;;;;682.4953841;683.5580072;683.5580072;683.5580072;683.5580072;683.5580072;683.5580072;683.5580072;683.5580072;['c', 'a', 'r', 'a', 'c', 'o', 'l'];0;[1.383708999492228, 1.6132221994921565, 1.7717687990516424, 1.8493921989575028, 2.0816589994356036, 2.2395809991285205, 2.4103866992518306];caracol;C:\2023\REPSWITCH21092023\REPSWITCH_excgange\REPSWITCH_excgange\data/420201_REPSWITCH1_version2_list1_2024-01-16_15h35.09.580_micRespv2l1_recorded\recording_micRespv2l1_2024-01-16_15h46.27.375.wav;686.5792589;687.079366;None;686.5792589;686.5792589;686.5792589;686.5792589;686.5792589;686.5792589;;;;;;420201;1;2024-01-16_15h35.09.580;REPSWITCH1_version2_list1;2022.2.4;144.1343786;
REPSWITCH1/PICTURE_152.png;caracol;speak;darkblue;switch;2;T;2;2;1;2;Stim2_Set2;0;None;140;139;38;0;139;139;139;;;;;;;;;;;;;;;;;;;;;;;687.079366;688.1766807;688.1766807;688.1766807;688.1766807;688.1766807;688.1766807;688.1766807;688.1766807;None;0;;;C:\2023\REPSWITCH21092023\REPSWITCH_excgange\REPSWITCH_excgange\data/420201_REPSWITCH1_version2_list1_2024-01-16_15h35.09.580_micRespv2l1_recorded\recording_micRespv2l1_2024-01-16_15h46.31.994.wav;691.1978917;691.6979573;None;691.1978917;691.1978917;691.1978917;691.1978917;691.1978917;691.1978917;;;;;;420201;1;2024-01-16_15h35.09.580;REPSWITCH1_version2_list1;2022.2.4;144.1343786;
REPSWITCH1/PICTURE_16.png;cazador;type;gold;filler;1;F;2;2;1;2;Stim6_Set1;0;None;141;140;39;0;140;140;140;;;;;;;;;;;;;;;;;;;;;;;691.6979573;692.8023435;692.8023435;692.8023435;692.8023435;692.8023435;692.8023435;692.8023435;692.8023435;['c', 'a', 'x', 'a', 'd', 'o', 'r'];0;[1.0522088995203376, 1.1319380002096295, 1.2874656999483705, 1.3508476000279188, 1.6463660998269916, 1.854665200226009, 2.00917199999094];caxador;C:\2023\REPSWITCH21092023\REPSWITCH_excgange\REPSWITCH_excgange\data/420201_REPSWITCH1_version2_list1_2024-01-16_15h35.09.580_micRespv2l1_recorded\recording_micRespv2l1_2024-01-16_15h46.36.620.wav;695.8234882;696.3235952;None;695.8234882;695.8234882;695.8234882;695.8234882;695.8234882;695.8234882;;;;;;420201;1;2024-01-16_15h35.09.580;REPSWITCH1_version2_list1;2022.2.4;144.1343786;
REPSWITCH1/PICTURE_381.png;fresa;speak;darkblue;filler;2;F;2;2;1;2;Stim2_Set1;0;None;142;141;40;0;141;141;141;;;;;;;;;;;;;;;;;;;;;;;696.3235952;697.3653871;697.3653871;697.3653871;697.3653871;697.3653871;697.3653871;697.3653871;697.3653871;None;0;;;C:\2023\REPSWITCH21092023\REPSWITCH_excgange\REPSWITCH_excgange\data/420201_REPSWITCH1_version2_list1_2024-01-16_15h35.09.580_micRespv2l1_recorded\recording_micRespv2l1_2024-01-16_15h46.41.184.wav;700.3935422;;None;700.3935422;700.3935422;700.3935422;700.3935422;700.3935422;700.3935422;;;;;;420201;1;2024-01-16_15h35.09.580;REPSWITCH1_version2_list1;2022.2.4;144.1343786;
