image;correctAns;respModal;frameColor;repSwitch;sequence;target;set;block;list;exp_version;stimulus;baseline;baseline_condition;trial_no;psychopy_trial;Column1;trialsREPSWITCH.thisRepN;trialsREPSWITCH.thisTrialN;trialsREPSWITCH.thisN;trialsREPSWITCH.thisIndex;textWelcome.started;textboxInstrMain1.started;textboxInstrMain1_2.started;textboxInstrMain1_3.started;keyInstrMain.started;keyInstrMain.keys;keyInstrMain.rt;textboxInstrMain2.started;textboxInstrMain2_2.started;textboxInstrMain2_3.started;textboxInstrMain2_4.started;textboxInstrMain2_5.started;textboxInstrMain2_6.started;textboxInstrMain2_7.started;textboxInstrMain2_8.started;textboxInstrMain2_9.started;textboxInstrMain2_10.started;textboxInstrMain2_11.started;textboxInstrMain2_12.started;keyInstrMain2.started;keyInstrMain2.keys;keyInstrMain2.rt;fixationITI.started;fixationITI.stopped;polygonColour.started;polygonWhite.started;imageObject.started;polygonType.started;textInput.started;keyResp.started;micRespv1l2.started;keyResp.keys;keyResp.corr;subjResponse;micRespv1l2.clip;textBlankLoop.started;textBlankLoop.stopped;keyPause.keys;polygonColour.stopped;polygonWhite.stopped;imageObject.stopped;polygonType.stopped;textInput.stopped;keyResp.stopped;keyResp.rt;textboxPause.started;keyPause.started;keyPause.rt;textboxGoodbye.started;textboxGoodbye.stopped;participant;session;date;expName;psychopyVersion;frameRate;Column2
;;;;;;;;;;;;;;;;;;;;;34.47597060073167;36.973226400092244;36.973226400092244;36.973226400092244;36.973226400092244;space;5.892061899416149;;;;;;;;;;;;;;;;;;;;;;;;;;;;;;;;;;;;;;;;;;;;430102;001;2024-01-18_15h43.56.192;REPSWITCH1_version1_list2;2022.2.4;143.87826697773463;
;;;;;;;;;;;;;;;;;;;;;;;;;;;;42.883699300698936;42.883699300698936;42.883699300698936;42.883699300698936;42.883699300698936;42.883699300698936;42.883699300698936;42.883699300698936;42.883699300698936;42.883699300698936;42.883699300698936;42.883699300698936;42.883699300698936;space;8.303569399751723;;;;;;;;;;;;;;;;;;;;;;;;;;;;;430102;001;2024-01-18_15h43.56.192;REPSWITCH1_version1_list2;2022.2.4;143.87826697773463;
REPSWITCH1/PICTURE_646.png;tronco;speak;gold;filler;2;F;1;3;2;1;Extra4;0;None;1;0;1;0;0;0;0;;;;;;;;;;;;;;;;;;;;;;;51.28066090028733;52.343324900604784;52.343324900604784;52.343324900604784;52.343324900604784;52.343324900604784;52.343324900604784;52.343324900604784;52.343324900604784;None;0;;C:\2023\REPSWITCH21092023\REPSWITCH_excgange\REPSWITCH_excgange\data/430102_REPSWITCH1_version1_list2_2024-01-18_15h43.56.192_micRespv1l2_recorded\recording_micRespv1l2_2024-01-18_15h44.18.946.wav;55.36452780012041;55.864658400416374;None;;;;;;;;;;;;;430102;001;2024-01-18_15h43.56.192;REPSWITCH1_version1_list2;2022.2.4;143.87826697773463;
REPSWITCH1/PICTURE_340.png;espejo;type;darkblue;filler;1;F;1;3;2;1;Extra1;0;None;2;1;2;0;1;1;1;;;;;;;;;;;;;;;;;;;;;;;55.864658400416374;56.9063908001408;56.9063908001408;56.9063908001408;56.9063908001408;56.9063908001408;56.9063908001408;56.9063908001408;56.9063908001408;['e', 's', 'p', 'e', 'j', 'o'];0;espejo;C:\2023\REPSWITCH21092023\REPSWITCH_excgange\REPSWITCH_excgange\data/430102_REPSWITCH1_version1_list2_2024-01-18_15h43.56.192_micRespv1l2_recorded\recording_micRespv1l2_2024-01-18_15h44.23.513.wav;59.93456770014018;;None;59.93456770014018;59.93456770014018;59.93456770014018;59.93456770014018;59.93456770014018;59.93456770014018;[0.8594297003000975, 1.0288624996319413, 1.2077698996290565, 1.3291154997423291, 1.5204755002632737, 1.6819270998239517];;;;;;430102;001;2024-01-18_15h43.56.192;REPSWITCH1_version1_list2;2022.2.4;143.87826697773463;
REPSWITCH1/PICTURE_338.png;regalo;speak;gold;filler;2;F;1;3;2;1;Stim6_Set4;0;None;3;2;3;0;2;2;2;;;;;;;;;;;;;;;;;;;;;;;60.43463010061532;61.4764145007357;61.4764145007357;61.4764145007357;61.4764145007357;61.4764145007357;61.4764145007357;61.4764145007357;61.4764145007357;None;0;;C:\2023\REPSWITCH21092023\REPSWITCH_excgange\REPSWITCH_excgange\data/430102_REPSWITCH1_version1_list2_2024-01-18_15h43.56.192_micRespv1l2_recorded\recording_micRespv1l2_2024-01-18_15h44.28.083.wav;64.50461800023913;;None;64.50461800023913;64.50461800023913;64.50461800023913;64.50461800023913;64.50461800023913;64.50461800023913;;;;;;;430102;001;2024-01-18_15h43.56.192;REPSWITCH1_version1_list2;2022.2.4;143.87826697773463;
REPSWITCH1/PICTURE_142.png;vaso;speak;gold;nontarget;2;NT;1;3;2;1;Stim7_Set1;1;repeat;4;3;4;0;3;3;3;;;;;;;;;;;;;;;;;;;;;;;65.00466990005225;66.15758030023426;66.15758030023426;66.15758030023426;66.15758030023426;66.15758030023426;66.15758030023426;66.15758030023426;66.15758030023426;None;0;;C:\2023\REPSWITCH21092023\REPSWITCH_excgange\REPSWITCH_excgange\data/430102_REPSWITCH1_version1_list2_2024-01-18_15h43.56.192_micRespv1l2_recorded\recording_micRespv1l2_2024-01-18_15h44.32.764.wav;69.17884020041674;69.67887210007757;None;69.17884020041674;69.17884020041674;69.17884020041674;69.17884020041674;69.17884020041674;69.17884020041674;;;;;;;430102;001;2024-01-18_15h43.56.192;REPSWITCH1_version1_list2;2022.2.4;143.87826697773463;
REPSWITCH1/PICTURE_142.png;vaso;speak;gold;repeat;2;T;1;3;2;1;Stim7_Set1;0;None;5;4;5;0;4;4;4;;;;;;;;;;;;;;;;;;;;;;;69.67887210007757;70.81792420055717;70.81792420055717;70.81792420055717;70.81792420055717;70.81792420055717;70.81792420055717;70.81792420055717;70.81792420055717;None;0;;C:\2023\REPSWITCH21092023\REPSWITCH_excgange\REPSWITCH_excgange\data/430102_REPSWITCH1_version1_list2_2024-01-18_15h43.56.192_micRespv1l2_recorded\recording_micRespv1l2_2024-01-18_15h44.37.424.wav;73.8461134005338;;None;73.8461134005338;73.8461134005338;73.8461134005338;73.8461134005338;73.8461134005338;73.8461134005338;;;;;;;430102;001;2024-01-18_15h43.56.192;REPSWITCH1_version1_list2;2022.2.4;143.87826697773463;
REPSWITCH1/PICTURE_498.png;taza;type;darkblue;filler;1;F;1;3;2;1;Stim4_Set4;0;None;6;5;6;0;5;5;5;;;;;;;;;;;;;;;;;;;;;;;74.34617300052196;75.42269630078226;75.42269630078226;75.42269630078226;75.42269630078226;75.42269630078226;75.42269630078226;75.42269630078226;75.42269630078226;['t', 'a', 'z', 'a'];0;taza;C:\2023\REPSWITCH21092023\REPSWITCH_excgange\REPSWITCH_excgange\data/430102_REPSWITCH1_version1_list2_2024-01-18_15h43.56.192_micRespv1l2_recorded\recording_micRespv1l2_2024-01-18_15h44.42.029.wav;78.45084870047867;;None;78.45084870047867;78.45084870047867;78.45084870047867;78.45084870047867;78.45084870047867;78.45084870047867;[0.9925397001206875, 1.1420504003763199, 1.4071516999974847, 1.587848199531436];;;;;;430102;001;2024-01-18_15h43.56.192;REPSWITCH1_version1_list2;2022.2.4;143.87826697773463;
REPSWITCH1/PICTURE_16.png;cazador;speak;gold;nontarget;2;NT;1;3;2;1;Stim6_Set1;1;switch;7;6;7;0;6;6;6;;;;;;;;;;;;;;;;;;;;;;;78.95092230010778;80.08995639998466;80.08995639998466;80.08995639998466;80.08995639998466;80.08995639998466;80.08995639998466;80.08995639998466;80.08995639998466;None;0;;C:\2023\REPSWITCH21092023\REPSWITCH_excgange\REPSWITCH_excgange\data/430102_REPSWITCH1_version1_list2_2024-01-18_15h43.56.192_micRespv1l2_recorded\recording_micRespv1l2_2024-01-18_15h44.46.697.wav;83.11814479995519;83.6182058006525;None;83.11814479995519;83.11814479995519;83.11814479995519;83.11814479995519;83.11814479995519;83.11814479995519;;;;;;;430102;001;2024-01-18_15h43.56.192;REPSWITCH1_version1_list2;2022.2.4;143.87826697773463;
REPSWITCH1/PICTURE_16.png;cazador;speak;gold;repeat;2;T;1;3;2;1;Stim6_Set1;0;None;8;7;8;0;7;7;7;;;;;;;;;;;;;;;;;;;;;;;83.6182058006525;84.68091510049999;84.68091510049999;84.68091510049999;84.68091510049999;84.68091510049999;84.68091510049999;84.68091510049999;84.68091510049999;None;0;;C:\2023\REPSWITCH21092023\REPSWITCH_excgange\REPSWITCH_excgange\data/430102_REPSWITCH1_version1_list2_2024-01-18_15h43.56.192_micRespv1l2_recorded\recording_micRespv1l2_2024-01-18_15h44.51.287.wav;87.70904190000147;;None;87.70904190000147;87.70904190000147;87.70904190000147;87.70904190000147;87.70904190000147;87.70904190000147;;;;;;;430102;001;2024-01-18_15h43.56.192;REPSWITCH1_version1_list2;2022.2.4;143.87826697773463;
REPSWITCH1/PICTURE_719.png;baño;type;darkblue;filler;1;F;1;3;2;1;Stim2_Set4;0;None;9;8;9;0;8;8;8;;;;;;;;;;;;;;;;;;;;;;;88.20909970067441;89.35506730061024;89.35506730061024;89.35506730061024;89.35506730061024;89.35506730061024;89.35506730061024;89.35506730061024;89.35506730061024;['b', 'a', 'ñ', 'o'];0;baño;C:\2023\REPSWITCH21092023\REPSWITCH_excgange\REPSWITCH_excgange\data/430102_REPSWITCH1_version1_list2_2024-01-18_15h43.56.192_micRespv1l2_recorded\recording_micRespv1l2_2024-01-18_15h44.55.961.wav;92.38326330017298;;None;92.38326330017298;92.38326330017298;92.38326330017298;92.38326330017298;92.38326330017298;92.38326330017298;[1.0066997995600104, 1.1662520002573729, 1.7996030999347568, 2.0772011997178197];;;;;;430102;001;2024-01-18_15h43.56.192;REPSWITCH1_version1_list2;2022.2.4;143.87826697773463;
REPSWITCH1/PICTURE_169.png;espalda;speak;gold;nontarget;2;NT;1;3;2;1;Stim8_Set1;0;None;10;9;10;0;9;9;9;;;;;;;;;;;;;;;;;;;;;;;92.88332400005311;93.98074680007994;93.98074680007994;93.98074680007994;93.98074680007994;93.98074680007994;93.98074680007994;93.98074680007994;93.98074680007994;None;0;;C:\2023\REPSWITCH21092023\REPSWITCH_excgange\REPSWITCH_excgange\data/430102_REPSWITCH1_version1_list2_2024-01-18_15h43.56.192_micRespv1l2_recorded\recording_micRespv1l2_2024-01-18_15h45.00.587.wav;97.00189559999853;97.5019777007401;None;97.00189559999853;97.00189559999853;97.00189559999853;97.00189559999853;97.00189559999853;97.00189559999853;;;;;;;430102;001;2024-01-18_15h43.56.192;REPSWITCH1_version1_list2;2022.2.4;143.87826697773463;
REPSWITCH1/PICTURE_169.png;espalda;type;darkblue;switch;1;T;1;3;2;1;Stim8_Set1;0;None;11;10;11;0;10;10;10;;;;;;;;;;;;;;;;;;;;;;;97.5019777007401;98.70354630053043;98.70354630053043;98.70354630053043;98.70354630053043;98.70354630053043;98.70354630053043;98.70354630053043;98.70354630053043;['e', 's', 'p', 'a', 'l', 'd', 'a'];0;espalda;C:\2023\REPSWITCH21092023\REPSWITCH_excgange\REPSWITCH_excgange\data/430102_REPSWITCH1_version1_list2_2024-01-18_15h43.56.192_micRespv1l2_recorded\recording_micRespv1l2_2024-01-18_15h45.05.310.wav;101.72473700065166;102.2248007003218;None;101.72473700065166;101.72473700065166;101.72473700065166;101.72473700065166;101.72473700065166;101.72473700065166;[1.0552168991416693, 1.228863699361682, 1.4331771992146969, 1.5639253994449973, 1.7137744994834065, 1.9193341992795467, 2.032956499606371];;;;;;430102;001;2024-01-18_15h43.56.192;REPSWITCH1_version1_list2;2022.2.4;143.87826697773463;
REPSWITCH1/PICTURE_687.png;camisa;type;darkblue;filler;1;F;1;3;2;1;Stim5_Set4;0;None;12;11;12;0;11;11;11;;;;;;;;;;;;;;;;;;;;;;;102.2248007003218;103.34305530041456;103.34305530041456;103.34305530041456;103.34305530041456;103.34305530041456;103.34305530041456;103.34305530041456;103.34305530041456;['c', 'a', 'm', 'i', 's', 'a'];0;camisa;C:\2023\REPSWITCH21092023\REPSWITCH_excgange\REPSWITCH_excgange\data/430102_REPSWITCH1_version1_list2_2024-01-18_15h43.56.192_micRespv1l2_recorded\recording_micRespv1l2_2024-01-18_15h45.09.950.wav;106.37118960078806;;None;106.37118960078806;106.37118960078806;106.37118960078806;106.37118960078806;106.37118960078806;106.37118960078806;[1.269688199274242, 1.3842796999961138, 1.5146552994847298, 1.6475197998806834, 1.7132391994819045, 1.8119200998917222];;;;;;430102;001;2024-01-18_15h43.56.192;REPSWITCH1_version1_list2;2022.2.4;143.87826697773463;
REPSWITCH1/PICTURE_178.png;puente;type;darkblue;nontarget;1;NT;1;3;2;1;Stim1_Set1;1;repeat;13;12;13;0;12;12;12;;;;;;;;;;;;;;;;;;;;;;;106.87126190029085;107.94087220076472;107.94087220076472;107.94087220076472;107.94087220076472;107.94087220076472;107.94087220076472;107.94087220076472;107.94087220076472;['p', 'e', 'n', 't', 'e'];0;pente;C:\2023\REPSWITCH21092023\REPSWITCH_excgange\REPSWITCH_excgange\data/430102_REPSWITCH1_version1_list2_2024-01-18_15h43.56.192_micRespv1l2_recorded\recording_micRespv1l2_2024-01-18_15h45.14.547.wav;110.96902440022677;;None;110.96902440022677;110.96902440022677;110.96902440022677;110.96902440022677;110.96902440022677;110.96902440022677;[1.3669560989364982, 1.6534293992444873, 1.8348595993593335, 1.9365423992276192, 2.016416799277067];;;;;;430102;001;2024-01-18_15h43.56.192;REPSWITCH1_version1_list2;2022.2.4;143.87826697773463;
REPSWITCH1/PICTURE_178.png;puente;speak;gold;switch;2;T;1;3;2;1;Stim1_Set1;0;None;14;13;14;0;13;13;13;;;;;;;;;;;;;;;;;;;;;;;111.46908390056342;112.53170430008322;112.53170430008322;112.53170430008322;112.53170430008322;112.53170430008322;112.53170430008322;112.53170430008322;112.53170430008322;None;0;;C:\2023\REPSWITCH21092023\REPSWITCH_excgange\REPSWITCH_excgange\data/430102_REPSWITCH1_version1_list2_2024-01-18_15h43.56.192_micRespv1l2_recorded\recording_micRespv1l2_2024-01-18_15h45.19.138.wav;115.55296920053661;116.05302260071039;None;115.55296920053661;115.55296920053661;115.55296920053661;115.55296920053661;115.55296920053661;115.55296920053661;;;;;;;430102;001;2024-01-18_15h43.56.192;REPSWITCH1_version1_list2;2022.2.4;143.87826697773463;
REPSWITCH1/PICTURE_128.png;muñeca;speak;gold;nontarget;2;NT;1;3;2;1;Stim4_Set1;1;repeat;15;14;15;0;14;14;14;;;;;;;;;;;;;;;;;;;;;;;116.05302260071039;117.28235870040953;117.28235870040953;117.28235870040953;117.28235870040953;117.28235870040953;117.28235870040953;117.28235870040953;117.28235870040953;None;0;;C:\2023\REPSWITCH21092023\REPSWITCH_excgange\REPSWITCH_excgange\data/430102_REPSWITCH1_version1_list2_2024-01-18_15h43.56.192_micRespv1l2_recorded\recording_micRespv1l2_2024-01-18_15h45.23.889.wav;120.31052250042558;;None;120.31052250042558;120.31052250042558;120.31052250042558;120.31052250042558;120.31052250042558;120.31052250042558;;;;;;;430102;001;2024-01-18_15h43.56.192;REPSWITCH1_version1_list2;2022.2.4;143.87826697773463;
REPSWITCH1/PICTURE_128.png;muñeca;type;darkblue;switch;1;T;1;3;2;1;Stim4_Set1;0;None;16;15;16;0;15;15;15;;;;;;;;;;;;;;;;;;;;;;;120.81058760080487;121.88014880008996;121.88014880008996;121.88014880008996;121.88014880008996;121.88014880008996;121.88014880008996;121.88014880008996;121.88014880008996;['m', 'u', 'ñ', 'e', 'c', 'a'];0;muñeca;C:\2023\REPSWITCH21092023\REPSWITCH_excgange\REPSWITCH_excgange\data/430102_REPSWITCH1_version1_list2_2024-01-18_15h43.56.192_micRespv1l2_recorded\recording_micRespv1l2_2024-01-18_15h45.28.487.wav;124.90136360004544;125.40147010050714;None;124.90136360004544;124.90136360004544;124.90136360004544;124.90136360004544;124.90136360004544;124.90136360004544;[1.311425100080669, 1.4898284003138542, 2.000638799741864, 2.106284299865365, 2.448185999877751, 2.5727717000991106];;;;;;430102;001;2024-01-18_15h43.56.192;REPSWITCH1_version1_list2;2022.2.4;143.87826697773463;
REPSWITCH1/PICTURE_319.png;vaca;speak;gold;filler;2;F;1;3;2;1;Stim1_Set4;1;switch;17;16;17;0;16;16;16;;;;;;;;;;;;;;;;;;;;;;;125.40147010050714;126.45027910079807;126.45027910079807;126.45027910079807;126.45027910079807;126.45027910079807;126.45027910079807;126.45027910079807;126.45027910079807;None;0;;C:\2023\REPSWITCH21092023\REPSWITCH_excgange\REPSWITCH_excgange\data/430102_REPSWITCH1_version1_list2_2024-01-18_15h43.56.192_micRespv1l2_recorded\recording_micRespv1l2_2024-01-18_15h45.33.057.wav;129.4783986005932;;None;129.4783986005932;129.4783986005932;129.4783986005932;129.4783986005932;129.4783986005932;129.4783986005932;;;;;;;430102;001;2024-01-18_15h43.56.192;REPSWITCH1_version1_list2;2022.2.4;143.87826697773463;
REPSWITCH1/PICTURE_728.png;pulpo;speak;gold;filler;2;F;1;3;2;1;Stim8_Set4;0;None;18;17;18;0;17;17;17;;;;;;;;;;;;;;;;;;;;;;;129.97843170072883;131.15917900018394;131.15917900018394;131.15917900018394;131.15917900018394;131.15917900018394;131.15917900018394;131.15917900018394;131.15917900018394;None;0;;C:\2023\REPSWITCH21092023\REPSWITCH_excgange\REPSWITCH_excgange\data/430102_REPSWITCH1_version1_list2_2024-01-18_15h43.56.192_micRespv1l2_recorded\recording_micRespv1l2_2024-01-18_15h45.37.765.wav;134.18036460038275;134.68044280074537;None;134.18036460038275;134.18036460038275;134.18036460038275;134.18036460038275;134.18036460038275;134.18036460038275;;;;;;;430102;001;2024-01-18_15h43.56.192;REPSWITCH1_version1_list2;2022.2.4;143.87826697773463;
REPSWITCH1/PICTURE_381.png;fresa;type;darkblue;nontarget;1;NT;1;3;2;1;Stim2_Set1;1;switch;19;18;19;0;18;18;18;;;;;;;;;;;;;;;;;;;;;;;134.68044280074537;135.69448100030422;135.69448100030422;135.69448100030422;135.69448100030422;135.69448100030422;135.69448100030422;135.69448100030422;135.69448100030422;['f', 'r', 'e', 's', 'a'];0;fresa;C:\2023\REPSWITCH21092023\REPSWITCH_excgange\REPSWITCH_excgange\data/430102_REPSWITCH1_version1_list2_2024-01-18_15h43.56.192_micRespv1l2_recorded\recording_micRespv1l2_2024-01-18_15h45.42.300.wav;138.71568950079381;139.21574770007282;None;138.71568950079381;138.71568950079381;138.71568950079381;138.71568950079381;138.71568950079381;138.71568950079381;[1.233301100321114, 2.223540199920535, 2.378007300198078, 2.5205666003748775, 2.6082522002980113];;;;;;430102;001;2024-01-18_15h43.56.192;REPSWITCH1_version1_list2;2022.2.4;143.87826697773463;
REPSWITCH1/PICTURE_381.png;fresa;type;darkblue;repeat;1;T;1;3;2;1;Stim2_Set1;0;None;20;19;20;0;19;19;19;;;;;;;;;;;;;;;;;;;;;;;139.21574770007282;140.3617367008701;140.3617367008701;140.3617367008701;140.3617367008701;140.3617367008701;140.3617367008701;140.3617367008701;140.3617367008701;['f', 'r', 'e', 's', 'a'];0;fresa;C:\2023\REPSWITCH21092023\REPSWITCH_excgange\REPSWITCH_excgange\data/430102_REPSWITCH1_version1_list2_2024-01-18_15h43.56.192_micRespv1l2_recorded\recording_micRespv1l2_2024-01-18_15h45.46.969.wav;143.3899042000994;;None;143.3899042000994;143.3899042000994;143.3899042000994;143.3899042000994;143.3899042000994;143.3899042000994;[1.5089690992608666, 1.7033185996115208, 1.892441999167204, 2.030972898937762, 2.1539127994328737];;;;;;430102;001;2024-01-18_15h43.56.192;REPSWITCH1_version1_list2;2022.2.4;143.87826697773463;
REPSWITCH1/PICTURE_8.png;pierna;speak;gold;filler;2;F;1;3;2;1;Stim3_Set4;0;None;21;20;21;0;20;20;20;;;;;;;;;;;;;;;;;;;;;;;143.8900775006041;144.95262340083718;144.95262340083718;144.95262340083718;144.95262340083718;144.95262340083718;144.95262340083718;144.95262340083718;144.95262340083718;None;0;;C:\2023\REPSWITCH21092023\REPSWITCH_excgange\REPSWITCH_excgange\data/430102_REPSWITCH1_version1_list2_2024-01-18_15h43.56.192_micRespv1l2_recorded\recording_micRespv1l2_2024-01-18_15h45.51.560.wav;147.98078120034188;;None;147.98078120034188;147.98078120034188;147.98078120034188;147.98078120034188;147.98078120034188;147.98078120034188;;;;;;;430102;001;2024-01-18_15h43.56.192;REPSWITCH1_version1_list2;2022.2.4;143.87826697773463;
REPSWITCH1/PICTURE_48.png;bombero;speak;gold;filler;2;F;1;3;2;1;Stim7_Set4;0;None;22;21;22;0;21;21;21;;;;;;;;;;;;;;;;;;;;;;;148.48092010058463;149.57132640015334;149.57132640015334;149.57132640015334;149.57132640015334;149.57132640015334;149.57132640015334;149.57132640015334;149.57132640015334;None;0;;C:\2023\REPSWITCH21092023\REPSWITCH_excgange\REPSWITCH_excgange\data/430102_REPSWITCH1_version1_list2_2024-01-18_15h43.56.192_micRespv1l2_recorded\recording_micRespv1l2_2024-01-18_15h45.56.177.wav;152.59949870035052;;None;152.59949870035052;152.59949870035052;152.59949870035052;152.59949870035052;152.59949870035052;152.59949870035052;;;;;;;430102;001;2024-01-18_15h43.56.192;REPSWITCH1_version1_list2;2022.2.4;143.87826697773463;
REPSWITCH1/PICTURE_135.png;traje;type;darkblue;nontarget;1;NT;1;3;2;1;Stim3_Set1;1;switch;23;22;23;0;22;22;22;;;;;;;;;;;;;;;;;;;;;;;153.0995307005942;154.16219030041248;154.16219030041248;154.16219030041248;154.16219030041248;154.16219030041248;154.16219030041248;154.16219030041248;154.16219030041248;['t', 'r', 'j', 'backspace', 'a', 'j', 'e'];0;traje;C:\2023\REPSWITCH21092023\REPSWITCH_excgange\REPSWITCH_excgange\data/430102_REPSWITCH1_version1_list2_2024-01-18_15h43.56.192_micRespv1l2_recorded\recording_micRespv1l2_2024-01-18_15h46.00.769.wav;157.19035890046507;;None;157.19035890046507;157.19035890046507;157.19035890046507;157.19035890046507;157.19035890046507;157.19035890046507;[1.0625138999894261, 1.128638199530542, 1.3933013994246721, 1.9211029997095466, 2.0127918999642134, 2.2110109999775887, 2.4023745991289616];;;;;;430102;001;2024-01-18_15h43.56.192;REPSWITCH1_version1_list2;2022.2.4;143.87826697773463;
REPSWITCH1/PICTURE_135.png;traje;type;darkblue;repeat;1;T;1;3;2;1;Stim3_Set1;0;None;24;23;24;0;23;23;23;;;;;;;;;;;;;;;;;;;;;;;157.6903799008578;158.76703030057251;158.76703030057251;158.76703030057251;158.76703030057251;158.76703030057251;158.76703030057251;158.76703030057251;158.76703030057251;['t', 'r', 'a', 'j', 'e'];0;traje;C:\2023\REPSWITCH21092023\REPSWITCH_excgange\REPSWITCH_excgange\data/430102_REPSWITCH1_version1_list2_2024-01-18_15h43.56.192_micRespv1l2_recorded\recording_micRespv1l2_2024-01-18_15h46.05.373.wav;161.7882518004626;162.28823680058122;None;161.7882518004626;161.7882518004626;161.7882518004626;161.7882518004626;161.7882518004626;161.7882518004626;[1.1826994996517897, 1.28731759916991, 1.4749883990734816, 1.8216440994292498, 1.9192351996898651];;;;;;430102;001;2024-01-18_15h43.56.192;REPSWITCH1_version1_list2;2022.2.4;143.87826697773463;
REPSWITCH1/PICTURE_19.png;pavo;type;darkblue;nontarget;1;NT;1;3;2;1;Stim5_Set1;1;repeat;25;24;25;0;24;24;24;;;;;;;;;;;;;;;;;;;;;;;162.28823680058122;163.4758896008134;163.4758896008134;163.4758896008134;163.4758896008134;163.4758896008134;163.4758896008134;163.4758896008134;163.4758896008134;['p', 'a', 'v', 'o'];0;pavo;C:\2023\REPSWITCH21092023\REPSWITCH_excgange\REPSWITCH_excgange\data/430102_REPSWITCH1_version1_list2_2024-01-18_15h43.56.192_micRespv1l2_recorded\recording_micRespv1l2_2024-01-18_15h46.10.083.wav;166.49716910067946;166.9971852004528;None;166.49716910067946;166.49716910067946;166.49716910067946;166.49716910067946;166.49716910067946;166.49716910067946;[1.5583939999341965, 1.64808479975909, 1.940110499970615, 2.096589700318873];;;;;;430102;001;2024-01-18_15h43.56.192;REPSWITCH1_version1_list2;2022.2.4;143.87826697773463;
REPSWITCH1/PICTURE_19.png;pavo;speak;gold;switch;2;T;1;3;2;1;Stim5_Set1;0;None;26;25;26;0;25;25;25;;;;;;;;;;;;;;;;;;;;;;;166.9971852004528;168.02511040028185;168.02511040028185;168.02511040028185;168.02511040028185;168.02511040028185;168.02511040028185;168.02511040028185;168.02511040028185;None;0;;C:\2023\REPSWITCH21092023\REPSWITCH_excgange\REPSWITCH_excgange\data/430102_REPSWITCH1_version1_list2_2024-01-18_15h43.56.192_micRespv1l2_recorded\recording_micRespv1l2_2024-01-18_15h46.14.632.wav;171.05333430040628;;None;171.05333430040628;171.05333430040628;171.05333430040628;171.05333430040628;171.05333430040628;171.05333430040628;;;;;;;430102;001;2024-01-18_15h43.56.192;REPSWITCH1_version1_list2;2022.2.4;143.87826697773463;
REPSWITCH1/PICTURE_142.png;vaso;speak;gold;filler;2;F;2;3;2;1;Stim7_Set1;0;None;27;26;27;0;26;26;26;;;;;;;;;;;;;;;;;;;;;;;171.55333869997412;172.62993850000203;172.62993850000203;172.62993850000203;172.62993850000203;172.62993850000203;172.62993850000203;172.62993850000203;172.62993850000203;None;0;;C:\2023\REPSWITCH21092023\REPSWITCH_excgange\REPSWITCH_excgange\data/430102_REPSWITCH1_version1_list2_2024-01-18_15h43.56.192_micRespv1l2_recorded\recording_micRespv1l2_2024-01-18_15h46.19.236.wav;175.65110590029508;176.15117130056024;None;175.65110590029508;175.65110590029508;175.65110590029508;175.65110590029508;175.65110590029508;175.65110590029508;;;;;;;430102;001;2024-01-18_15h43.56.192;REPSWITCH1_version1_list2;2022.2.4;143.87826697773463;
REPSWITCH1/PICTURE_135.png;traje;type;darkblue;filler;1;F;2;3;2;1;Stim3_Set1;0;None;28;27;28;0;27;27;27;;;;;;;;;;;;;;;;;;;;;;;176.15117130056024;177.33886410016567;177.33886410016567;177.33886410016567;177.33886410016567;177.33886410016567;177.33886410016567;177.33886410016567;177.33886410016567;['t', 'r', 'a', 'j', 'e'];0;traje;C:\2023\REPSWITCH21092023\REPSWITCH_excgange\REPSWITCH_excgange\data/430102_REPSWITCH1_version1_list2_2024-01-18_15h43.56.192_micRespv1l2_recorded\recording_micRespv1l2_2024-01-18_15h46.23.945.wav;180.3600131003186;180.86011210083961;None;180.3600131003186;180.3600131003186;180.3600131003186;180.3600131003186;180.3600131003186;180.3600131003186;[0.8778123995289207, 0.9375893995165825, 1.0579023994505405, 1.2338036997243762, 1.3616927992552519];;;;;;430102;001;2024-01-18_15h43.56.192;REPSWITCH1_version1_list2;2022.2.4;143.87826697773463;
REPSWITCH1/PICTURE_446.png;cerdo;type;darkblue;nontarget;1;NT;2;3;2;1;Stim7_Set2;0;None;29;28;29;0;28;28;28;;;;;;;;;;;;;;;;;;;;;;;180.86011210083961;182.0200084000826;182.0200084000826;182.0200084000826;182.0200084000826;182.0200084000826;182.0200084000826;182.0200084000826;182.0200084000826;['c', 'e', 'r', 'd', 'o'];0;cerdo;C:\2023\REPSWITCH21092023\REPSWITCH_excgange\REPSWITCH_excgange\data/430102_REPSWITCH1_version1_list2_2024-01-18_15h43.56.192_micRespv1l2_recorded\recording_micRespv1l2_2024-01-18_15h46.28.626.wav;185.04122460074723;185.5412717005238;None;185.04122460074723;185.04122460074723;185.04122460074723;185.04122460074723;185.04122460074723;185.04122460074723;[1.0674449000507593, 1.2737187994644046, 1.3823824999853969, 1.56506949942559, 1.9699337994679809];;;;;;430102;001;2024-01-18_15h43.56.192;REPSWITCH1_version1_list2;2022.2.4;143.87826697773463;
REPSWITCH1/PICTURE_446.png;cerdo;type;darkblue;repeat;1;T;2;3;2;1;Stim7_Set2;0;None;30;29;30;0;29;29;29;;;;;;;;;;;;;;;;;;;;;;;185.5412717005238;186.68728170078248;186.68728170078248;186.68728170078248;186.68728170078248;186.68728170078248;186.68728170078248;186.68728170078248;186.68728170078248;['c', 'e', 'r', 'd', 'o'];0;cerdo;C:\2023\REPSWITCH21092023\REPSWITCH_excgange\REPSWITCH_excgange\data/430102_REPSWITCH1_version1_list2_2024-01-18_15h43.56.192_micRespv1l2_recorded\recording_micRespv1l2_2024-01-18_15h46.33.293.wav;189.7085038004443;190.20855710003525;None;189.7085038004443;189.7085038004443;189.7085038004443;189.7085038004443;189.7085038004443;189.7085038004443;[1.0139563996344805, 1.2073144000023603, 1.2921139998361468, 1.4256661999970675, 1.5097030997276306];;;;;;430102;001;2024-01-18_15h43.56.192;REPSWITCH1_version1_list2;2022.2.4;143.87826697773463;
REPSWITCH1/PICTURE_16.png;cazador;speak;gold;filler;2;F;2;3;2;1;Stim6_Set1;0;None;31;30;31;0;30;30;30;;;;;;;;;;;;;;;;;;;;;;;190.20855710003525;191.24342700000852;191.24342700000852;191.24342700000852;191.24342700000852;191.24342700000852;191.24342700000852;191.24342700000852;191.24342700000852;None;0;;C:\2023\REPSWITCH21092023\REPSWITCH_excgange\REPSWITCH_excgange\data/430102_REPSWITCH1_version1_list2_2024-01-18_15h43.56.192_micRespv1l2_recorded\recording_micRespv1l2_2024-01-18_15h46.37.850.wav;194.27159620076418;194.7716443007812;None;194.27159620076418;194.27159620076418;194.27159620076418;194.27159620076418;194.27159620076418;194.27159620076418;;;;;;;430102;001;2024-01-18_15h43.56.192;REPSWITCH1_version1_list2;2022.2.4;143.87826697773463;
REPSWITCH1/PICTURE_552.png;manzana;type;darkblue;nontarget;1;NT;2;3;2;1;Stim6_Set2;1;switch;32;31;32;0;31;31;31;;;;;;;;;;;;;;;;;;;;;;;194.7716443007812;195.80656960047781;195.80656960047781;195.80656960047781;195.80656960047781;195.80656960047781;195.80656960047781;195.80656960047781;195.80656960047781;['m', 'a', 'n', 'z', 'a', 'n', 'a'];0;manzana;C:\2023\REPSWITCH21092023\REPSWITCH_excgange\REPSWITCH_excgange\data/430102_REPSWITCH1_version1_list2_2024-01-18_15h43.56.192_micRespv1l2_recorded\recording_micRespv1l2_2024-01-18_15h46.42.413.wav;198.82770569995046;199.3277823003009;None;198.82770569995046;198.82770569995046;198.82770569995046;198.82770569995046;198.82770569995046;198.82770569995046;[1.0865004993975163, 1.1742007993161678, 1.3078239997848868, 1.3815713999792933, 1.5343563994392753, 1.6330944001674652, 1.728711899369955];;;;;;430102;001;2024-01-18_15h43.56.192;REPSWITCH1_version1_list2;2022.2.4;143.87826697773463;
REPSWITCH1/PICTURE_552.png;manzana;type;darkblue;repeat;1;T;2;3;2;1;Stim6_Set2;0;None;33;32;33;0;32;32;32;;;;;;;;;;;;;;;;;;;;;;;199.3277823003009;200.41130769997835;200.41130769997835;200.41130769997835;200.41130769997835;200.41130769997835;200.41130769997835;200.41130769997835;200.41130769997835;['m', 'a', 'n', 'z', 'a', 'n', 'a'];0;manzana;C:\2023\REPSWITCH21092023\REPSWITCH_excgange\REPSWITCH_excgange\data/430102_REPSWITCH1_version1_list2_2024-01-18_15h43.56.192_micRespv1l2_recorded\recording_micRespv1l2_2024-01-18_15h46.47.017.wav;203.43942270055413;;None;203.43942270055413;203.43942270055413;203.43942270055413;203.43942270055413;203.43942270055413;203.43942270055413;[0.6251159999519587, 0.7088255994021893, 0.8234789995476604, 0.9171297000721097, 1.055676099844277, 1.1535011995583773, 1.2342328997328877];;;;;;430102;001;2024-01-18_15h43.56.192;REPSWITCH1_version1_list2;2022.2.4;143.87826697773463;
REPSWITCH1/PICTURE_517.png;cuerda;type;darkblue;nontarget;1;NT;2;3;2;1;Stim4_Set2;0;None;34;33;34;0;33;33;33;;;;;;;;;;;;;;;;;;;;;;;203.93952640052885;205.03689250070602;205.03689250070602;205.03689250070602;205.03689250070602;205.03689250070602;205.03689250070602;205.03689250070602;205.03689250070602;['c', 'u', 'e', 'r', 'd', 'a'];0;cuerda;C:\2023\REPSWITCH21092023\REPSWITCH_excgange\REPSWITCH_excgange\data/430102_REPSWITCH1_version1_list2_2024-01-18_15h43.56.192_micRespv1l2_recorded\recording_micRespv1l2_2024-01-18_15h46.51.644.wav;208.0650552008301;;None;208.0650552008301;208.0650552008301;208.0650552008301;208.0650552008301;208.0650552008301;208.0650552008301;[1.0400751000270247, 1.2354028997942805, 1.3310871999710798, 1.365943199954927, 1.5074540004134178, 1.6370654003694654];;;;;;430102;001;2024-01-18_15h43.56.192;REPSWITCH1_version1_list2;2022.2.4;143.87826697773463;
REPSWITCH1/PICTURE_517.png;cuerda;speak;gold;switch;2;T;2;3;2;1;Stim4_Set2;0;None;35;34;35;0;34;34;34;;;;;;;;;;;;;;;;;;;;;;;208.56512599997222;209.69721060059965;209.69721060059965;209.69721060059965;209.69721060059965;209.69721060059965;209.69721060059965;209.69721060059965;209.69721060059965;None;0;;C:\2023\REPSWITCH21092023\REPSWITCH_excgange\REPSWITCH_excgange\data/430102_REPSWITCH1_version1_list2_2024-01-18_15h43.56.192_micRespv1l2_recorded\recording_micRespv1l2_2024-01-18_15h46.56.304.wav;212.72541519999504;;None;212.72541519999504;212.72541519999504;212.72541519999504;212.72541519999504;212.72541519999504;212.72541519999504;;;;;;;430102;001;2024-01-18_15h43.56.192;REPSWITCH1_version1_list2;2022.2.4;143.87826697773463;
REPSWITCH1/PICTURE_169.png;espalda;speak;gold;filler;2;F;2;3;2;1;Stim8_Set1;1;repeat;36;35;36;0;35;35;35;;;;;;;;;;;;;;;;;;;;;;;213.22547290008515;214.34370600059628;214.34370600059628;214.34370600059628;214.34370600059628;214.34370600059628;214.34370600059628;214.34370600059628;214.34370600059628;None;0;;C:\2023\REPSWITCH21092023\REPSWITCH_excgange\REPSWITCH_excgange\data/430102_REPSWITCH1_version1_list2_2024-01-18_15h43.56.192_micRespv1l2_recorded\recording_micRespv1l2_2024-01-18_15h47.00.950.wav;217.36485980078578;217.8650291999802;None;217.36485980078578;217.36485980078578;217.36485980078578;217.36485980078578;217.36485980078578;217.36485980078578;;;;;;;430102;001;2024-01-18_15h43.56.192;REPSWITCH1_version1_list2;2022.2.4;143.87826697773463;
REPSWITCH1/PICTURE_30.png;granja;speak;gold;nontarget;2;NT;2;3;2;1;Stim5_Set2;1;repeat;37;36;37;0;36;36;36;;;;;;;;;;;;;;;;;;;;;;;217.8650291999802;219.0386922005564;219.0386922005564;219.0386922005564;219.0386922005564;219.0386922005564;219.0386922005564;219.0386922005564;219.0386922005564;None;0;;C:\2023\REPSWITCH21092023\REPSWITCH_excgange\REPSWITCH_excgange\data/430102_REPSWITCH1_version1_list2_2024-01-18_15h43.56.192_micRespv1l2_recorded\recording_micRespv1l2_2024-01-18_15h47.05.646.wav;222.06689380016178;222.56700910069048;None;222.06689380016178;222.06689380016178;222.06689380016178;222.06689380016178;222.06689380016178;222.06689380016178;;;;;;;430102;001;2024-01-18_15h43.56.192;REPSWITCH1_version1_list2;2022.2.4;143.87826697773463;
REPSWITCH1/PICTURE_30.png;granja;type;darkblue;switch;1;T;2;3;2;1;Stim5_Set2;0;None;38;37;38;0;37;37;37;;;;;;;;;;;;;;;;;;;;;;;222.56700910069048;223.64351150020957;223.64351150020957;223.64351150020957;223.64351150020957;223.64351150020957;223.64351150020957;223.64351150020957;223.64351150020957;['g', 'r', 'a', 'n', 'j', 'a'];0;granja;C:\2023\REPSWITCH21092023\REPSWITCH_excgange\REPSWITCH_excgange\data/430102_REPSWITCH1_version1_list2_2024-01-18_15h43.56.192_micRespv1l2_recorded\recording_micRespv1l2_2024-01-18_15h47.10.250.wav;226.6716388007626;;None;226.6716388007626;226.6716388007626;226.6716388007626;226.6716388007626;226.6716388007626;226.6716388007626;[0.9720380995422602, 1.0596767999231815, 1.1563559994101524, 1.374621999450028, 1.5639886995777488, 1.6596665997058153];;;;;;430102;001;2024-01-18_15h43.56.192;REPSWITCH1_version1_list2;2022.2.4;143.87826697773463;
REPSWITCH1/PICTURE_128.png;muñeca;type;darkblue;filler;1;F;2;3;2;1;Stim4_Set1;1;repeat;39;38;39;0;38;38;38;;;;;;;;;;;;;;;;;;;;;;;227.1717842007056;228.20660400018096;228.20660400018096;228.20660400018096;228.20660400018096;228.20660400018096;228.20660400018096;228.20660400018096;228.20660400018096;['m', 'u', 'ñ', 'e', 'c', 'a'];0;muñeca;C:\2023\REPSWITCH21092023\REPSWITCH_excgange\REPSWITCH_excgange\data/430102_REPSWITCH1_version1_list2_2024-01-18_15h43.56.192_micRespv1l2_recorded\recording_micRespv1l2_2024-01-18_15h47.14.813.wav;231.23472189996392;;None;231.23472189996392;231.23472189996392;231.23472189996392;231.23472189996392;231.23472189996392;231.23472189996392;[1.0084232995286584, 1.276587899774313, 1.7884378992021084, 1.8849847996607423, 2.0637050000950694, 2.181310299783945];;;;;;430102;001;2024-01-18_15h43.56.192;REPSWITCH1_version1_list2;2022.2.4;143.87826697773463;
REPSWITCH1/PICTURE_199.png;falda;type;darkblue;nontarget;1;NT;2;3;2;1;Stim8_Set2;0;None;40;39;40;0;39;39;39;;;;;;;;;;;;;;;;;;;;;;;231.73480690084398;232.74886230006814;232.74886230006814;232.74886230006814;232.74886230006814;232.74886230006814;232.74886230006814;232.74886230006814;232.74886230006814;['f', 'a', 'l', 'd', 'a'];0;falda;C:\2023\REPSWITCH21092023\REPSWITCH_excgange\REPSWITCH_excgange\data/430102_REPSWITCH1_version1_list2_2024-01-18_15h43.56.192_micRespv1l2_recorded\recording_micRespv1l2_2024-01-18_15h47.19.355.wav;235.7769990004599;;None;235.7769990004599;235.7769990004599;235.7769990004599;235.7769990004599;235.7769990004599;235.7769990004599;[1.2545262994244695, 1.3801164990291, 1.4887506989762187, 1.6113350996747613, 1.692061198875308];;;;;;430102;001;2024-01-18_15h43.56.192;REPSWITCH1_version1_list2;2022.2.4;143.87826697773463;
REPSWITCH1/PICTURE_199.png;falda;speak;gold;switch;2;T;2;3;2;1;Stim8_Set2;0;None;41;40;41;0;40;40;40;;;;;;;;;;;;;;;;;;;;;;;236.2770918002352;237.34674180019647;237.34674180019647;237.34674180019647;237.34674180019647;237.34674180019647;237.34674180019647;237.34674180019647;237.34674180019647;None;0;;C:\2023\REPSWITCH21092023\REPSWITCH_excgange\REPSWITCH_excgange\data/430102_REPSWITCH1_version1_list2_2024-01-18_15h43.56.192_micRespv1l2_recorded\recording_micRespv1l2_2024-01-18_15h47.23.953.wav;240.37490619998425;;None;240.37490619998425;240.37490619998425;240.37490619998425;240.37490619998425;240.37490619998425;240.37490619998425;;;;;;;430102;001;2024-01-18_15h43.56.192;REPSWITCH1_version1_list2;2022.2.4;143.87826697773463;
REPSWITCH1/PICTURE_152.png;caracol;speak;gold;nontarget;2;NT;2;3;2;1;Stim2_Set2;1;switch;42;41;42;0;41;41;41;;;;;;;;;;;;;;;;;;;;;;;240.87491320073605;241.97228330001235;241.97228330001235;241.97228330001235;241.97228330001235;241.97228330001235;241.97228330001235;241.97228330001235;241.97228330001235;None;0;;C:\2023\REPSWITCH21092023\REPSWITCH_excgange\REPSWITCH_excgange\data/430102_REPSWITCH1_version1_list2_2024-01-18_15h43.56.192_micRespv1l2_recorded\recording_micRespv1l2_2024-01-18_15h47.28.579.wav;244.99350990075618;245.49364590086043;None;244.99350990075618;244.99350990075618;244.99350990075618;244.99350990075618;244.99350990075618;244.99350990075618;;;;;;;430102;001;2024-01-18_15h43.56.192;REPSWITCH1_version1_list2;2022.2.4;143.87826697773463;
REPSWITCH1/PICTURE_152.png;caracol;speak;gold;repeat;2;T;2;3;2;1;Stim2_Set2;0;None;43;42;43;0;42;42;42;;;;;;;;;;;;;;;;;;;;;;;245.49364590086043;246.56316360086203;246.56316360086203;246.56316360086203;246.56316360086203;246.56316360086203;246.56316360086203;246.56316360086203;246.56316360086203;None;0;;C:\2023\REPSWITCH21092023\REPSWITCH_excgange\REPSWITCH_excgange\data/430102_REPSWITCH1_version1_list2_2024-01-18_15h43.56.192_micRespv1l2_recorded\recording_micRespv1l2_2024-01-18_15h47.33.169.wav;249.58437780011445;250.084442300722;None;249.58437780011445;249.58437780011445;249.58437780011445;249.58437780011445;249.58437780011445;249.58437780011445;;;;;;;430102;001;2024-01-18_15h43.56.192;REPSWITCH1_version1_list2;2022.2.4;143.87826697773463;
REPSWITCH1/PICTURE_381.png;fresa;type;darkblue;filler;1;F;2;3;2;1;Stim2_Set1;0;None;44;43;44;0;43;43;43;;;;;;;;;;;;;;;;;;;;;;;250.084442300722;251.14711550064385;251.14711550064385;251.14711550064385;251.14711550064385;251.14711550064385;251.14711550064385;251.14711550064385;251.14711550064385;['f', 'e', 's', 'backspace', 'backspace', 'r', 'e', 's', 'a'];0;fresa;C:\2023\REPSWITCH21092023\REPSWITCH_excgange\REPSWITCH_excgange\data/430102_REPSWITCH1_version1_list2_2024-01-18_15h43.56.192_micRespv1l2_recorded\recording_micRespv1l2_2024-01-18_15h47.37.754.wav;254.17526879999787;;None;254.17526879999787;254.17526879999787;254.17526879999787;254.17526879999787;254.17526879999787;254.17526879999787;[0.9977066004648805, 1.325861000455916, 1.589193600229919, 2.1646734001114964, 2.3503344003111124, 2.4740466997027397, 2.655340200290084, 2.839719300158322, 2.9373241998255253];;;;;;430102;001;2024-01-18_15h43.56.192;REPSWITCH1_version1_list2;2022.2.4;143.87826697773463;
REPSWITCH1/PICTURE_175.png;pintor;speak;gold;nontarget;2;NT;2;3;2;1;Stim1_Set2;1;switch;45;44;45;0;44;44;44;;;;;;;;;;;;;;;;;;;;;;;254.67536410037428;255.765769100748;255.765769100748;255.765769100748;255.765769100748;255.765769100748;255.765769100748;255.765769100748;255.765769100748;None;0;;C:\2023\REPSWITCH21092023\REPSWITCH_excgange\REPSWITCH_excgange\data/430102_REPSWITCH1_version1_list2_2024-01-18_15h43.56.192_micRespv1l2_recorded\recording_micRespv1l2_2024-01-18_15h47.42.373.wav;258.7939189001918;;None;258.7939189001918;258.7939189001918;258.7939189001918;258.7939189001918;258.7939189001918;258.7939189001918;;;;;;;430102;001;2024-01-18_15h43.56.192;REPSWITCH1_version1_list2;2022.2.4;143.87826697773463;
REPSWITCH1/PICTURE_175.png;pintor;speak;gold;repeat;2;T;2;3;2;1;Stim1_Set2;0;None;46;45;46;0;45;45;45;;;;;;;;;;;;;;;;;;;;;;;259.29397980030626;260.34975500032306;260.34975500032306;260.34975500032306;260.34975500032306;260.34975500032306;260.34975500032306;260.34975500032306;260.34975500032306;None;0;;C:\2023\REPSWITCH21092023\REPSWITCH_excgange\REPSWITCH_excgange\data/430102_REPSWITCH1_version1_list2_2024-01-18_15h43.56.192_micRespv1l2_recorded\recording_micRespv1l2_2024-01-18_15h47.46.956.wav;263.37092810031027;263.8709929008037;None;263.37092810031027;263.37092810031027;263.37092810031027;263.37092810031027;263.37092810031027;263.37092810031027;;;;;;;430102;001;2024-01-18_15h43.56.192;REPSWITCH1_version1_list2;2022.2.4;143.87826697773463;
REPSWITCH1/PICTURE_178.png;puente;type;darkblue;filler;1;F;2;3;2;1;Stim1_Set1;0;None;47;46;47;0;46;46;46;;;;;;;;;;;;;;;;;;;;;;;263.8709929008037;265.02396090049297;265.02396090049297;265.02396090049297;265.02396090049297;265.02396090049297;265.02396090049297;265.02396090049297;265.02396090049297;['p', 'u', 'e', 'n', 't', 'e'];0;puente;C:\2023\REPSWITCH21092023\REPSWITCH_excgange\REPSWITCH_excgange\data/430102_REPSWITCH1_version1_list2_2024-01-18_15h43.56.192_micRespv1l2_recorded\recording_micRespv1l2_2024-01-18_15h47.51.630.wav;268.04512100014836;268.54520950000733;None;268.04512100014836;268.04512100014836;268.04512100014836;268.04512100014836;268.04512100014836;268.04512100014836;[0.9892993001267314, 1.2355037005618215, 1.380354500375688, 1.5193853005766869, 1.6676679998636246, 1.7433571005240083];;;;;;430102;001;2024-01-18_15h43.56.192;REPSWITCH1_version1_list2;2022.2.4;143.87826697773463;
REPSWITCH1/PICTURE_19.png;pavo;speak;gold;filler;2;F;2;3;2;1;Stim5_Set1;0;None;48;47;48;0;47;47;47;;;;;;;;;;;;;;;;;;;;;;;268.54520950000733;269.6286647999659;269.6286647999659;269.6286647999659;269.6286647999659;269.6286647999659;269.6286647999659;269.6286647999659;269.6286647999659;None;0;;C:\2023\REPSWITCH21092023\REPSWITCH_excgange\REPSWITCH_excgange\data/430102_REPSWITCH1_version1_list2_2024-01-18_15h43.56.192_micRespv1l2_recorded\recording_micRespv1l2_2024-01-18_15h47.56.235.wav;272.64987810049206;273.1499998001382;None;272.64987810049206;272.64987810049206;272.64987810049206;272.64987810049206;272.64987810049206;272.64987810049206;;;;;;;430102;001;2024-01-18_15h43.56.192;REPSWITCH1_version1_list2;2022.2.4;143.87826697773463;
REPSWITCH1/PICTURE_264.png;mano;speak;gold;nontarget;2;NT;2;3;2;1;Stim3_Set2;1;repeat;49;48;49;0;48;48;48;;;;;;;;;;;;;;;;;;;;;;;273.1499998001382;274.19870080053806;274.19870080053806;274.19870080053806;274.19870080053806;274.19870080053806;274.19870080053806;274.19870080053806;274.19870080053806;None;0;;C:\2023\REPSWITCH21092023\REPSWITCH_excgange\REPSWITCH_excgange\data/430102_REPSWITCH1_version1_list2_2024-01-18_15h43.56.192_micRespv1l2_recorded\recording_micRespv1l2_2024-01-18_15h48.00.805.wav;277.2199234003201;277.72001880034804;None;277.2199234003201;277.2199234003201;277.2199234003201;277.2199234003201;277.2199234003201;277.2199234003201;;;;;;;430102;001;2024-01-18_15h43.56.192;REPSWITCH1_version1_list2;2022.2.4;143.87826697773463;
REPSWITCH1/PICTURE_264.png;mano;type;darkblue;switch;1;T;2;3;2;1;Stim3_Set2;0;None;50;49;50;0;49;49;49;;;;;;;;;;;;;;;;;;;;;;;277.72001880034804;278.7687502000481;278.7687502000481;278.7687502000481;278.7687502000481;278.7687502000481;278.7687502000481;278.7687502000481;278.7687502000481;['m', 'a', 'n', 'o'];0;mano;C:\2023\REPSWITCH21092023\REPSWITCH_excgange\REPSWITCH_excgange\data/430102_REPSWITCH1_version1_list2_2024-01-18_15h43.56.192_micRespv1l2_recorded\recording_micRespv1l2_2024-01-18_15h48.05.376.wav;281.79694500006735;;None;281.79694500006735;281.79694500006735;281.79694500006735;281.79694500006735;281.79694500006735;281.79694500006735;[0.9435850996524096, 1.2850049994885921, 1.4632150996476412, 1.6346329990774393];;;;;;430102;001;2024-01-18_15h43.56.192;REPSWITCH1_version1_list2;2022.2.4;143.87826697773463;
REPSWITCH1/PICTURE_446.png;cerdo;type;darkblue;filler;1;F;3;3;2;1;Stim7_Set2;0;None;51;50;51;0;50;50;50;;;;;;;;;;;;;;;;;;;;;;;282.2969937007874;283.4429724002257;283.4429724002257;283.4429724002257;283.4429724002257;283.4429724002257;283.4429724002257;283.4429724002257;283.4429724002257;['c', 'e', 'r', 'd', 'o'];0;cerdo;C:\2023\REPSWITCH21092023\REPSWITCH_excgange\REPSWITCH_excgange\data/430102_REPSWITCH1_version1_list2_2024-01-18_15h43.56.192_micRespv1l2_recorded\recording_micRespv1l2_2024-01-18_15h48.10.049.wav;286.46418370027095;286.9642908005044;space;286.46418370027095;286.46418370027095;286.46418370027095;286.46418370027095;286.46418370027095;286.46418370027095;[1.0235476000234485, 1.2557113002985716, 1.3190892999991775, 1.5018540006130934, 1.6394982999190688];286.9642908005044;286.9642908005044;2.020734499208629;;;430102;001;2024-01-18_15h43.56.192;REPSWITCH1_version1_list2;2022.2.4;143.87826697773463;
REPSWITCH1/PICTURE_235.png;aguja;type;darkblue;nontarget;1;NT;3;3;2;1;Stim4_Set3;1;repeat;52;51;52;0;51;51;51;;;;;;;;;;;;;;;;;;;;;;;288.9923897003755;290.0341160008684;290.0341160008684;290.0341160008684;290.0341160008684;290.0341160008684;290.0341160008684;290.0341160008684;290.0341160008684;['a', 'g', 'u', 'j', 'a'];0;aguja;C:\2023\REPSWITCH21092023\REPSWITCH_excgange\REPSWITCH_excgange\data/430102_REPSWITCH1_version1_list2_2024-01-18_15h43.56.192_micRespv1l2_recorded\recording_micRespv1l2_2024-01-18_15h48.16.641.wav;293.0554099008441;293.55542470049113;None;293.0554099008441;293.0554099008441;293.0554099008441;293.0554099008441;293.0554099008441;293.0554099008441;[0.9164723996073008, 1.12610839959234, 1.3134425999596715, 1.4709863001480699, 1.5517042996361852];;;;;;430102;001;2024-01-18_15h43.56.192;REPSWITCH1_version1_list2;2022.2.4;143.87826697773463;
REPSWITCH1/PICTURE_235.png;aguja;speak;gold;switch;2;T;3;3;2;1;Stim4_Set3;0;None;53;52;53;0;52;52;52;;;;;;;;;;;;;;;;;;;;;;;293.55542470049113;294.6875447006896;294.6875447006896;294.6875447006896;294.6875447006896;294.6875447006896;294.6875447006896;294.6875447006896;294.6875447006896;None;0;;C:\2023\REPSWITCH21092023\REPSWITCH_excgange\REPSWITCH_excgange\data/430102_REPSWITCH1_version1_list2_2024-01-18_15h43.56.192_micRespv1l2_recorded\recording_micRespv1l2_2024-01-18_15h48.21.293.wav;297.7087285006419;298.2088622003794;None;297.7087285006419;297.7087285006419;297.7087285006419;297.7087285006419;297.7087285006419;297.7087285006419;;;;;;;430102;001;2024-01-18_15h43.56.192;REPSWITCH1_version1_list2;2022.2.4;143.87826697773463;
REPSWITCH1/PICTURE_552.png;manzana;speak;gold;filler;2;F;3;3;2;1;Stim6_Set2;0;None;54;53;54;0;53;53;53;;;;;;;;;;;;;;;;;;;;;;;298.2088622003794;299.3131296001375;299.3131296001375;299.3131296001375;299.3131296001375;299.3131296001375;299.3131296001375;299.3131296001375;299.3131296001375;None;0;;C:\2023\REPSWITCH21092023\REPSWITCH_excgange\REPSWITCH_excgange\data/430102_REPSWITCH1_version1_list2_2024-01-18_15h43.56.192_micRespv1l2_recorded\recording_micRespv1l2_2024-01-18_15h48.25.919.wav;302.3413669001311;;None;302.3413669001311;302.3413669001311;302.3413669001311;302.3413669001311;302.3413669001311;302.3413669001311;;;;;;;430102;001;2024-01-18_15h43.56.192;REPSWITCH1_version1_list2;2022.2.4;143.87826697773463;
REPSWITCH1/PICTURE_271.png;conejo;speak;gold;nontarget;2;NT;3;3;2;1;Stim7_Set3;1;repeat;55;54;55;0;54;54;54;;;;;;;;;;;;;;;;;;;;;;;302.8413647999987;303.9735163003206;303.9735163003206;303.9735163003206;303.9735163003206;303.9735163003206;303.9735163003206;303.9735163003206;303.9735163003206;None;0;;C:\2023\REPSWITCH21092023\REPSWITCH_excgange\REPSWITCH_excgange\data/430102_REPSWITCH1_version1_list2_2024-01-18_15h43.56.192_micRespv1l2_recorded\recording_micRespv1l2_2024-01-18_15h48.30.580.wav;306.9946557004005;307.4947285000235;None;306.9946557004005;306.9946557004005;306.9946557004005;306.9946557004005;306.9946557004005;306.9946557004005;;;;;;;430102;001;2024-01-18_15h43.56.192;REPSWITCH1_version1_list2;2022.2.4;143.87826697773463;
REPSWITCH1/PICTURE_271.png;conejo;type;darkblue;switch;1;T;3;3;2;1;Stim7_Set3;0;None;56;55;56;0;55;55;55;;;;;;;;;;;;;;;;;;;;;;;307.4947285000235;308.57136119995266;308.57136119995266;308.57136119995266;308.57136119995266;308.57136119995266;308.57136119995266;308.57136119995266;308.57136119995266;['c', 'o', 'n', 'e', 'j', 'o'];0;conejo;C:\2023\REPSWITCH21092023\REPSWITCH_excgange\REPSWITCH_excgange\data/430102_REPSWITCH1_version1_list2_2024-01-18_15h43.56.192_micRespv1l2_recorded\recording_micRespv1l2_2024-01-18_15h48.35.177.wav;311.59946580044925;;None;311.59946580044925;311.59946580044925;311.59946580044925;311.59946580044925;311.59946580044925;311.59946580044925;[0.9961588997393847, 1.1047925995662808, 1.3021946996450424, 1.40079789981246, 1.5036599999293685, 1.6814053999260068];;;;;;430102;001;2024-01-18_15h43.56.192;REPSWITCH1_version1_list2;2022.2.4;143.87826697773463;
REPSWITCH1/PICTURE_610.png;miel;type;darkblue;nontarget;1;NT;3;3;2;1;Stim2_Set3;1;repeat;57;56;57;0;56;56;56;;;;;;;;;;;;;;;;;;;;;;;312.0995225002989;313.18303140066564;313.18303140066564;313.18303140066564;313.18303140066564;313.18303140066564;313.18303140066564;313.18303140066564;313.18303140066564;['m', 'i', 'e', 'l'];0;miel;C:\2023\REPSWITCH21092023\REPSWITCH_excgange\REPSWITCH_excgange\data/430102_REPSWITCH1_version1_list2_2024-01-18_15h43.56.192_micRespv1l2_recorded\recording_micRespv1l2_2024-01-18_15h48.39.790.wav;316.2111551007256;;None;316.2111551007256;316.2111551007256;316.2111551007256;316.2111551007256;316.2111551007256;316.2111551007256;[1.233725800178945, 1.396815599873662, 1.5184097001329064, 1.622388799674809];;;;;;430102;001;2024-01-18_15h43.56.192;REPSWITCH1_version1_list2;2022.2.4;143.87826697773463;
REPSWITCH1/PICTURE_610.png;miel;speak;gold;switch;2;T;3;3;2;1;Stim2_Set3;0;None;58;57;58;0;57;57;57;;;;;;;;;;;;;;;;;;;;;;;316.7113059004769;317.8225292004645;317.8225292004645;317.8225292004645;317.8225292004645;317.8225292004645;317.8225292004645;317.8225292004645;317.8225292004645;None;0;;C:\2023\REPSWITCH21092023\REPSWITCH_excgange\REPSWITCH_excgange\data/430102_REPSWITCH1_version1_list2_2024-01-18_15h43.56.192_micRespv1l2_recorded\recording_micRespv1l2_2024-01-18_15h48.44.429.wav;320.85064120031893;;None;320.85064120031893;320.85064120031893;320.85064120031893;320.85064120031893;320.85064120031893;320.85064120031893;;;;;;;430102;001;2024-01-18_15h43.56.192;REPSWITCH1_version1_list2;2022.2.4;143.87826697773463;
REPSWITCH1/PICTURE_199.png;falda;type;darkblue;filler;1;F;3;3;2;1;Stim8_Set2;0;None;59;58;59;0;58;58;58;;;;;;;;;;;;;;;;;;;;;;;321.3507125005126;322.38565660081804;322.38565660081804;322.38565660081804;322.38565660081804;322.38565660081804;322.38565660081804;322.38565660081804;322.38565660081804;['f', 'a', 'l', 'd', 'a'];0;falda;C:\2023\REPSWITCH21092023\REPSWITCH_excgange\REPSWITCH_excgange\data/430102_REPSWITCH1_version1_list2_2024-01-18_15h43.56.192_micRespv1l2_recorded\recording_micRespv1l2_2024-01-18_15h48.48.992.wav;325.41374180000275;;None;325.41374180000275;325.41374180000275;325.41374180000275;325.41374180000275;325.41374180000275;325.41374180000275;[1.005201599560678, 1.1676238998770714, 1.2962218998000026, 1.4098397996276617, 1.485938400030136];;;;;;430102;001;2024-01-18_15h43.56.192;REPSWITCH1_version1_list2;2022.2.4;143.87826697773463;
REPSWITCH1/PICTURE_464.png;goma;speak;gold;nontarget;2;NT;3;3;2;1;Stim6_Set3;1;switch;60;59;60;0;59;59;59;;;;;;;;;;;;;;;;;;;;;;;325.9138072002679;327.00425950065255;327.00425950065255;327.00425950065255;327.00425950065255;327.00425950065255;327.00425950065255;327.00425950065255;327.00425950065255;None;0;;C:\2023\REPSWITCH21092023\REPSWITCH_excgange\REPSWITCH_excgange\data/430102_REPSWITCH1_version1_list2_2024-01-18_15h43.56.192_micRespv1l2_recorded\recording_micRespv1l2_2024-01-18_15h48.53.611.wav;330.03241850063205;;None;330.03241850063205;330.03241850063205;330.03241850063205;330.03241850063205;330.03241850063205;330.03241850063205;;;;;;;430102;001;2024-01-18_15h43.56.192;REPSWITCH1_version1_list2;2022.2.4;143.87826697773463;
REPSWITCH1/PICTURE_464.png;goma;speak;gold;repeat;2;T;3;3;2;1;Stim6_Set3;0;None;61;60;61;0;60;60;60;;;;;;;;;;;;;;;;;;;;;;;330.5325052002445;331.61603220086545;331.61603220086545;331.61603220086545;331.61603220086545;331.61603220086545;331.61603220086545;331.61603220086545;331.61603220086545;None;0;;C:\2023\REPSWITCH21092023\REPSWITCH_excgange\REPSWITCH_excgange\data/430102_REPSWITCH1_version1_list2_2024-01-18_15h43.56.192_micRespv1l2_recorded\recording_micRespv1l2_2024-01-18_15h48.58.222.wav;334.6371591007337;335.13726340048015;None;334.6371591007337;334.6371591007337;334.6371591007337;334.6371591007337;334.6371591007337;334.6371591007337;;;;;;;430102;001;2024-01-18_15h43.56.192;REPSWITCH1_version1_list2;2022.2.4;143.87826697773463;
REPSWITCH1/PICTURE_152.png;caracol;type;darkblue;filler;1;F;3;3;2;1;Stim2_Set2;0;None;62;61;62;0;61;61;61;;;;;;;;;;;;;;;;;;;;;;;335.13726340048015;336.1790779000148;336.1790779000148;336.1790779000148;336.1790779000148;336.1790779000148;336.1790779000148;336.1790779000148;336.1790779000148;['c', 'a', 'r', 'a', 'c', 'o', 'l'];0;caracol;C:\2023\REPSWITCH21092023\REPSWITCH_excgange\REPSWITCH_excgange\data/430102_REPSWITCH1_version1_list2_2024-01-18_15h43.56.192_micRespv1l2_recorded\recording_micRespv1l2_2024-01-18_15h49.02.785.wav;339.20036859996617;339.70034880004823;None;339.20036859996617;339.20036859996617;339.20036859996617;339.20036859996617;339.20036859996617;339.20036859996617;[1.0617488995194435, 1.2038461994379759, 1.3543369993567467, 1.4270976996049285, 1.6891938000917435, 1.8017514999955893, 1.980155799537897];;;;;;430102;001;2024-01-18_15h43.56.192;REPSWITCH1_version1_list2;2022.2.4;143.87826697773463;
REPSWITCH1/PICTURE_320.png;iglesia;speak;gold;nontarget;2;NT;3;3;2;1;Stim8_Set3;1;switch;63;62;63;0;62;62;62;;;;;;;;;;;;;;;;;;;;;;;339.70034880004823;340.7977169007063;340.7977169007063;340.7977169007063;340.7977169007063;340.7977169007063;340.7977169007063;340.7977169007063;340.7977169007063;None;0;;C:\2023\REPSWITCH21092023\REPSWITCH_excgange\REPSWITCH_excgange\data/430102_REPSWITCH1_version1_list2_2024-01-18_15h43.56.192_micRespv1l2_recorded\recording_micRespv1l2_2024-01-18_15h49.07.405.wav;343.82592430058867;;None;343.82592430058867;343.82592430058867;343.82592430058867;343.82592430058867;343.82592430058867;343.82592430058867;;;;;;;430102;001;2024-01-18_15h43.56.192;REPSWITCH1_version1_list2;2022.2.4;143.87826697773463;
REPSWITCH1/PICTURE_320.png;iglesia;speak;gold;repeat;2;T;3;3;2;1;Stim8_Set3;0;None;64;63;64;0;63;63;63;;;;;;;;;;;;;;;;;;;;;;;344.3259670007974;345.4025196004659;345.4025196004659;345.4025196004659;345.4025196004659;345.4025196004659;345.4025196004659;345.4025196004659;345.4025196004659;None;0;;C:\2023\REPSWITCH21092023\REPSWITCH_excgange\REPSWITCH_excgange\data/430102_REPSWITCH1_version1_list2_2024-01-18_15h43.56.192_micRespv1l2_recorded\recording_micRespv1l2_2024-01-18_15h49.12.009.wav;348.4237023005262;348.9237649999559;None;348.4237023005262;348.4237023005262;348.4237023005262;348.4237023005262;348.4237023005262;348.4237023005262;;;;;;;430102;001;2024-01-18_15h43.56.192;REPSWITCH1_version1_list2;2022.2.4;143.87826697773463;
REPSWITCH1/PICTURE_35.png;oreja;speak;gold;nontarget;2;NT;3;3;2;1;Stim5_Set3;0;None;65;64;65;0;64;64;64;;;;;;;;;;;;;;;;;;;;;;;348.9237649999559;350.0003832001239;350.0003832001239;350.0003832001239;350.0003832001239;350.0003832001239;350.0003832001239;350.0003832001239;350.0003832001239;None;0;;C:\2023\REPSWITCH21092023\REPSWITCH_excgange\REPSWITCH_excgange\data/430102_REPSWITCH1_version1_list2_2024-01-18_15h43.56.192_micRespv1l2_recorded\recording_micRespv1l2_2024-01-18_15h49.16.607.wav;353.0215182006359;353.52159280050546;None;353.0215182006359;353.0215182006359;353.0215182006359;353.0215182006359;353.0215182006359;353.0215182006359;;;;;;;430102;001;2024-01-18_15h43.56.192;REPSWITCH1_version1_list2;2022.2.4;143.87826697773463;
REPSWITCH1/PICTURE_35.png;oreja;type;darkblue;switch;1;T;3;3;2;1;Stim5_Set3;0;None;66;65;66;0;65;65;65;;;;;;;;;;;;;;;;;;;;;;;353.52159280050546;354.63987170066684;354.63987170066684;354.63987170066684;354.63987170066684;354.63987170066684;354.63987170066684;354.63987170066684;354.63987170066684;['o', 'r', 'e', 'j', 'a'];0;oreja;C:\2023\REPSWITCH21092023\REPSWITCH_excgange\REPSWITCH_excgange\data/430102_REPSWITCH1_version1_list2_2024-01-18_15h43.56.192_micRespv1l2_recorded\recording_micRespv1l2_2024-01-18_15h49.21.246.wav;357.6611231006682;358.16111760027707;None;357.6611231006682;357.6611231006682;357.6611231006682;357.6611231006682;357.6611231006682;357.6611231006682;[0.8395072994753718, 1.1296518994495273, 1.294149300083518, 1.4621035996824503, 1.5627516992390156];;;;;;430102;001;2024-01-18_15h43.56.192;REPSWITCH1_version1_list2;2022.2.4;143.87826697773463;
REPSWITCH1/PICTURE_517.png;cuerda;speak;gold;filler;2;F;3;3;2;1;Stim4_Set2;0;None;67;66;67;0;66;66;66;;;;;;;;;;;;;;;;;;;;;;;358.16111760027707;359.196026599966;359.196026599966;359.196026599966;359.196026599966;359.196026599966;359.196026599966;359.196026599966;359.196026599966;None;0;;C:\2023\REPSWITCH21092023\REPSWITCH_excgange\REPSWITCH_excgange\data/430102_REPSWITCH1_version1_list2_2024-01-18_15h43.56.192_micRespv1l2_recorded\recording_micRespv1l2_2024-01-18_15h49.25.803.wav;362.22412690054625;;None;362.22412690054625;362.22412690054625;362.22412690054625;362.22412690054625;362.22412690054625;362.22412690054625;;;;;;;430102;001;2024-01-18_15h43.56.192;REPSWITCH1_version1_list2;2022.2.4;143.87826697773463;
REPSWITCH1/PICTURE_30.png;granja;type;darkblue;filler;1;F;3;3;2;1;Stim5_Set2;1;switch;68;67;68;0;67;67;67;;;;;;;;;;;;;;;;;;;;;;;362.7242111004889;363.84933620039374;363.84933620039374;363.84933620039374;363.84933620039374;363.84933620039374;363.84933620039374;363.84933620039374;363.84933620039374;['g', 'r', 'a', 'n', 'j', 'a'];0;granja;C:\2023\REPSWITCH21092023\REPSWITCH_excgange\REPSWITCH_excgange\data/430102_REPSWITCH1_version1_list2_2024-01-18_15h43.56.192_micRespv1l2_recorded\recording_micRespv1l2_2024-01-18_15h49.30.456.wav;366.87756340019405;;None;366.87756340019405;366.87756340019405;366.87756340019405;366.87756340019405;366.87756340019405;366.87756340019405;[0.9018698995932937, 0.9866236001253128, 1.081330199725926, 1.340055299922824, 1.8847714001312852, 1.9714778997004032];;;;;;430102;001;2024-01-18_15h43.56.192;REPSWITCH1_version1_list2;2022.2.4;143.87826697773463;
REPSWITCH1/PICTURE_242.png;cartero;type;darkblue;nontarget;1;NT;3;3;2;1;Stim3_Set3;0;None;69;68;69;0;68;68;68;;;;;;;;;;;;;;;;;;;;;;;367.37763520050794;368.47495000064373;368.47495000064373;368.47495000064373;368.47495000064373;368.47495000064373;368.47495000064373;368.47495000064373;368.47495000064373;['c', 'a', 'r', 't', 'e', 'r', 'o'];0;cartero;C:\2023\REPSWITCH21092023\REPSWITCH_excgange\REPSWITCH_excgange\data/430102_REPSWITCH1_version1_list2_2024-01-18_15h43.56.192_micRespv1l2_recorded\recording_micRespv1l2_2024-01-18_15h49.35.082.wav;371.5031469007954;;None;371.5031469007954;371.5031469007954;371.5031469007954;371.5031469007954;371.5031469007954;371.5031469007954;[1.2643075995147228, 2.006772399879992, 2.206779199652374, 2.3792124995961785, 2.5149286994710565, 2.6002906002104282, 2.697258699685335];;;;;;430102;001;2024-01-18_15h43.56.192;REPSWITCH1_version1_list2;2022.2.4;143.87826697773463;
REPSWITCH1/PICTURE_242.png;cartero;type;darkblue;repeat;1;T;3;3;2;1;Stim3_Set3;0;None;70;69;70;0;69;69;69;;;;;;;;;;;;;;;;;;;;;;;372.003211800009;373.0589025001973;373.0589025001973;373.0589025001973;373.0589025001973;373.0589025001973;373.0589025001973;373.0589025001973;373.0589025001973;['c', 'a', 'r', 't', 'e', 'r', 'o'];0;cartero;C:\2023\REPSWITCH21092023\REPSWITCH_excgange\REPSWITCH_excgange\data/430102_REPSWITCH1_version1_list2_2024-01-18_15h43.56.192_micRespv1l2_recorded\recording_micRespv1l2_2024-01-18_15h49.39.665.wav;376.0800962001085;376.5801784005016;None;376.0800962001085;376.0800962001085;376.0800962001085;376.0800962001085;376.0800962001085;376.0800962001085;[0.8647199999541044, 0.9822770999744534, 1.117904699407518, 1.2923284992575645, 1.3806812996044755, 1.4338543992489576, 1.5574322994798422];;;;;;430102;001;2024-01-18_15h43.56.192;REPSWITCH1_version1_list2;2022.2.4;143.87826697773463;
REPSWITCH1/PICTURE_264.png;mano;speak;gold;filler;2;F;3;3;2;1;Stim3_Set2;1;switch;71;70;71;0;70;70;70;;;;;;;;;;;;;;;;;;;;;;;376.5801784005016;377.6984469005838;377.6984469005838;377.6984469005838;377.6984469005838;377.6984469005838;377.6984469005838;377.6984469005838;377.6984469005838;None;0;;C:\2023\REPSWITCH21092023\REPSWITCH_excgange\REPSWITCH_excgange\data/430102_REPSWITCH1_version1_list2_2024-01-18_15h43.56.192_micRespv1l2_recorded\recording_micRespv1l2_2024-01-18_15h49.44.305.wav;380.7265488002449;;None;380.7265488002449;380.7265488002449;380.7265488002449;380.7265488002449;380.7265488002449;380.7265488002449;;;;;;;430102;001;2024-01-18_15h43.56.192;REPSWITCH1_version1_list2;2022.2.4;143.87826697773463;
REPSWITCH1/PICTURE_576.png;guante;type;darkblue;nontarget;1;NT;3;3;2;1;Stim1_Set3;1;switch;72;71;72;0;71;71;71;;;;;;;;;;;;;;;;;;;;;;;381.2266748007387;382.33788120001554;382.33788120001554;382.33788120001554;382.33788120001554;382.33788120001554;382.33788120001554;382.33788120001554;382.33788120001554;['g', 'u', 'a', 'n', 't', 'e'];0;guante;C:\2023\REPSWITCH21092023\REPSWITCH_excgange\REPSWITCH_excgange\data/430102_REPSWITCH1_version1_list2_2024-01-18_15h43.56.192_micRespv1l2_recorded\recording_micRespv1l2_2024-01-18_15h49.48.944.wav;385.35908440034837;385.8591878004372;None;385.35908440034837;385.35908440034837;385.35908440034837;385.35908440034837;385.35908440034837;385.35908440034837;[1.2000221004709601, 1.3136280002072453, 1.4004996996372938, 1.5031482996419072, 1.5848120003938675, 1.6654732003808022];;;;;;430102;001;2024-01-18_15h43.56.192;REPSWITCH1_version1_list2;2022.2.4;143.87826697773463;
REPSWITCH1/PICTURE_576.png;guante;type;darkblue;repeat;1;T;3;3;2;1;Stim1_Set3;0;None;73;72;73;0;72;72;72;;;;;;;;;;;;;;;;;;;;;;;385.8591878004372;386.95657390076667;386.95657390076667;386.95657390076667;386.95657390076667;386.95657390076667;386.95657390076667;386.95657390076667;386.95657390076667;['g', 'u', 'a', 'n', 't', 'e'];0;guante;C:\2023\REPSWITCH21092023\REPSWITCH_excgange\REPSWITCH_excgange\data/430102_REPSWITCH1_version1_list2_2024-01-18_15h43.56.192_micRespv1l2_recorded\recording_micRespv1l2_2024-01-18_15h49.53.563.wav;389.98477010056376;;None;389.98477010056376;389.98477010056376;389.98477010056376;389.98477010056376;389.98477010056376;389.98477010056376;[1.1352912997826934, 1.2782749999314547, 1.3446659995242953, 1.456997299566865, 1.5208155997097492, 1.6137929996475577];;;;;;430102;001;2024-01-18_15h43.56.192;REPSWITCH1_version1_list2;2022.2.4;143.87826697773463;
REPSWITCH1/PICTURE_175.png;pintor;speak;gold;filler;2;F;3;3;2;1;Stim1_Set2;0;None;74;73;74;0;73;73;73;;;;;;;;;;;;;;;;;;;;;;;390.48476220015436;391.72105720080435;391.72105720080435;391.72105720080435;391.72105720080435;391.72105720080435;391.72105720080435;391.72105720080435;391.72105720080435;None;0;;C:\2023\REPSWITCH21092023\REPSWITCH_excgange\REPSWITCH_excgange\data/430102_REPSWITCH1_version1_list2_2024-01-18_15h43.56.192_micRespv1l2_recorded\recording_micRespv1l2_2024-01-18_15h49.58.327.wav;394.7423340007663;395.24236240051687;None;394.7423340007663;394.7423340007663;394.7423340007663;394.7423340007663;394.7423340007663;394.7423340007663;;;;;;;430102;001;2024-01-18_15h43.56.192;REPSWITCH1_version1_list2;2022.2.4;143.87826697773463;
REPSWITCH1/PICTURE_498.png;taza;type;darkblue;nontarget;1;NT;4;3;2;1;Stim4_Set4;0;None;75;74;75;0;74;74;74;;;;;;;;;;;;;;;;;;;;;;;395.24236240051687;396.3536096001044;396.3536096001044;396.3536096001044;396.3536096001044;396.3536096001044;396.3536096001044;396.3536096001044;396.3536096001044;['t', 'a', 'z', 'a'];0;taza;C:\2023\REPSWITCH21092023\REPSWITCH_excgange\REPSWITCH_excgange\data/430102_REPSWITCH1_version1_list2_2024-01-18_15h43.56.192_micRespv1l2_recorded\recording_micRespv1l2_2024-01-18_15h50.02.959.wav;399.37493460066617;399.87491120025516;None;399.37493460066617;399.37493460066617;399.37493460066617;399.37493460066617;399.37493460066617;399.37493460066617;[0.9525005994364619, 1.0891505992040038, 1.287428899668157, 1.4296688996255398];;;;;;430102;001;2024-01-18_15h43.56.192;REPSWITCH1_version1_list2;2022.2.4;143.87826697773463;
REPSWITCH1/PICTURE_498.png;taza;type;darkblue;repeat;1;T;4;3;2;1;Stim4_Set4;0;None;76;75;76;0;75;75;75;;;;;;;;;;;;;;;;;;;;;;;399.87491120025516;400.9861885001883;400.9861885001883;400.9861885001883;400.9861885001883;400.9861885001883;400.9861885001883;400.9861885001883;400.9861885001883;['t', 'a', 'z', 'a'];0;taza;C:\2023\REPSWITCH21092023\REPSWITCH_excgange\REPSWITCH_excgange\data/430102_REPSWITCH1_version1_list2_2024-01-18_15h43.56.192_micRespv1l2_recorded\recording_micRespv1l2_2024-01-18_15h50.07.592.wav;404.0143493004143;;None;404.0143493004143;404.0143493004143;404.0143493004143;404.0143493004143;404.0143493004143;404.0143493004143;[1.8276914991438389, 1.990761099383235, 2.184111699461937, 2.334612099453807];;;;;;430102;001;2024-01-18_15h43.56.192;REPSWITCH1_version1_list2;2022.2.4;143.87826697773463;
REPSWITCH1/PICTURE_235.png;aguja;speak;gold;filler;2;F;4;3;2;1;Stim4_Set3;0;None;77;76;77;0;76;76;76;;;;;;;;;;;;;;;;;;;;;;;404.51440370082855;405.68819470051676;405.68819470051676;405.68819470051676;405.68819470051676;405.68819470051676;405.68819470051676;405.68819470051676;405.68819470051676;None;0;;C:\2023\REPSWITCH21092023\REPSWITCH_excgange\REPSWITCH_excgange\data/430102_REPSWITCH1_version1_list2_2024-01-18_15h43.56.192_micRespv1l2_recorded\recording_micRespv1l2_2024-01-18_15h50.12.295.wav;408.7094034999609;409.2094535008073;None;408.7094034999609;408.7094034999609;408.7094034999609;408.7094034999609;408.7094034999609;408.7094034999609;;;;;;;430102;001;2024-01-18_15h43.56.192;REPSWITCH1_version1_list2;2022.2.4;143.87826697773463;
REPSWITCH1/PICTURE_338.png;regalo;type;darkblue;nontarget;1;NT;4;3;2;1;Stim6_Set4;1;switch;78;77;78;0;77;77;77;;;;;;;;;;;;;;;;;;;;;;;409.2094535008073;410.41103390045464;410.41103390045464;410.41103390045464;410.41103390045464;410.41103390045464;410.41103390045464;410.41103390045464;410.41103390045464;['r', 'e', 'g', 'a', 'l', 'o'];0;regalo;C:\2023\REPSWITCH21092023\REPSWITCH_excgange\REPSWITCH_excgange\data/430102_REPSWITCH1_version1_list2_2024-01-18_15h43.56.192_micRespv1l2_recorded\recording_micRespv1l2_2024-01-18_15h50.17.018.wav;413.4391768006608;;None;413.4391768006608;413.4391768006608;413.4391768006608;413.4391768006608;413.4391768006608;413.4391768006608;[1.1881260005757213, 1.2738217003643513, 1.4675086997449398, 1.5681237997487187, 1.7320098001509905, 1.8855829006060958];;;;;;430102;001;2024-01-18_15h43.56.192;REPSWITCH1_version1_list2;2022.2.4;143.87826697773463;
REPSWITCH1/PICTURE_338.png;regalo;speak;gold;switch;2;T;4;3;2;1;Stim6_Set4;0;None;79;78;79;0;78;78;78;;;;;;;;;;;;;;;;;;;;;;;413.9392571002245;415.1408610008657;415.1408610008657;415.1408610008657;415.1408610008657;415.1408610008657;415.1408610008657;415.1408610008657;415.1408610008657;None;0;;C:\2023\REPSWITCH21092023\REPSWITCH_excgange\REPSWITCH_excgange\data/430102_REPSWITCH1_version1_list2_2024-01-18_15h43.56.192_micRespv1l2_recorded\recording_micRespv1l2_2024-01-18_15h50.21.748.wav;418.16904880013317;;None;418.16904880013317;418.16904880013317;418.16904880013317;418.16904880013317;418.16904880013317;418.16904880013317;;;;;;;430102;001;2024-01-18_15h43.56.192;REPSWITCH1_version1_list2;2022.2.4;143.87826697773463;
REPSWITCH1/PICTURE_719.png;baño;speak;gold;nontarget;2;NT;4;3;2;1;Stim2_Set4;1;repeat;80;79;80;0;79;79;79;;;;;;;;;;;;;;;;;;;;;;;418.66906280070543;419.7109016003087;419.7109016003087;419.7109016003087;419.7109016003087;419.7109016003087;419.7109016003087;419.7109016003087;419.7109016003087;None;0;;C:\2023\REPSWITCH21092023\REPSWITCH_excgange\REPSWITCH_excgange\data/430102_REPSWITCH1_version1_list2_2024-01-18_15h43.56.192_micRespv1l2_recorded\recording_micRespv1l2_2024-01-18_15h50.26.317.wav;422.7320679007098;423.2321401005611;None;422.7320679007098;422.7320679007098;422.7320679007098;422.7320679007098;422.7320679007098;422.7320679007098;;;;;;;430102;001;2024-01-18_15h43.56.192;REPSWITCH1_version1_list2;2022.2.4;143.87826697773463;
REPSWITCH1/PICTURE_719.png;baño;speak;gold;repeat;2;T;4;3;2;1;Stim2_Set4;0;None;81;80;81;0;80;80;80;;;;;;;;;;;;;;;;;;;;;;;423.2321401005611;424.28790220059454;424.28790220059454;424.28790220059454;424.28790220059454;424.28790220059454;424.28790220059454;424.28790220059454;424.28790220059454;None;0;;C:\2023\REPSWITCH21092023\REPSWITCH_excgange\REPSWITCH_excgange\data/430102_REPSWITCH1_version1_list2_2024-01-18_15h43.56.192_micRespv1l2_recorded\recording_micRespv1l2_2024-01-18_15h50.30.894.wav;427.3091470999643;427.80911990068853;None;427.3091470999643;427.3091470999643;427.3091470999643;427.3091470999643;427.3091470999643;427.3091470999643;;;;;;;430102;001;2024-01-18_15h43.56.192;REPSWITCH1_version1_list2;2022.2.4;143.87826697773463;
REPSWITCH1/PICTURE_271.png;conejo;type;darkblue;filler;1;F;4;3;2;1;Stim7_Set3;0;None;82;81;82;0;81;81;81;;;;;;;;;;;;;;;;;;;;;;;427.80911990068853;428.85099690034986;428.85099690034986;428.85099690034986;428.85099690034986;428.85099690034986;428.85099690034986;428.85099690034986;428.85099690034986;['c', 'o', 'n', 'e', 'j', 'o'];0;conejo;C:\2023\REPSWITCH21092023\REPSWITCH_excgange\REPSWITCH_excgange\data/430102_REPSWITCH1_version1_list2_2024-01-18_15h43.56.192_micRespv1l2_recorded\recording_micRespv1l2_2024-01-18_15h50.35.458.wav;431.87216190062463;432.3722275001928;None;431.87216190062463;431.87216190062463;431.87216190062463;431.87216190062463;431.87216190062463;431.87216190062463;[1.2686252994462848, 1.3805852001532912, 1.530108499340713, 1.6364358998835087, 1.7316570999100804, 1.8562487997114658];;;;;;430102;001;2024-01-18_15h43.56.192;REPSWITCH1_version1_list2;2022.2.4;143.87826697773463;
REPSWITCH1/PICTURE_610.png;miel;speak;gold;filler;2;F;4;3;2;1;Stim2_Set3;0;None;83;82;83;0;82;82;82;;;;;;;;;;;;;;;;;;;;;;;432.3722275001928;433.6709845000878;433.6709845000878;433.6709845000878;433.6709845000878;433.6709845000878;433.6709845000878;433.6709845000878;433.6709845000878;None;0;;C:\2023\REPSWITCH21092023\REPSWITCH_excgange\REPSWITCH_excgange\data/430102_REPSWITCH1_version1_list2_2024-01-18_15h43.56.192_micRespv1l2_recorded\recording_micRespv1l2_2024-01-18_15h50.40.277.wav;436.6922285007313;437.1923035001382;None;436.6922285007313;436.6922285007313;436.6922285007313;436.6922285007313;436.6922285007313;436.6922285007313;;;;;;;430102;001;2024-01-18_15h43.56.192;REPSWITCH1_version1_list2;2022.2.4;143.87826697773463;
REPSWITCH1/PICTURE_687.png;camisa;speak;gold;nontarget;2;NT;4;3;2;1;Stim5_Set4;1;repeat;84;83;84;0;83;83;83;;;;;;;;;;;;;;;;;;;;;;;437.1923035001382;438.2202734006569;438.2202734006569;438.2202734006569;438.2202734006569;438.2202734006569;438.2202734006569;438.2202734006569;438.2202734006569;None;0;;C:\2023\REPSWITCH21092023\REPSWITCH_excgange\REPSWITCH_excgange\data/430102_REPSWITCH1_version1_list2_2024-01-18_15h43.56.192_micRespv1l2_recorded\recording_micRespv1l2_2024-01-18_15h50.44.826.wav;441.2414356004447;441.7415171004832;None;441.2414356004447;441.2414356004447;441.2414356004447;441.2414356004447;441.2414356004447;441.2414356004447;;;;;;;430102;001;2024-01-18_15h43.56.192;REPSWITCH1_version1_list2;2022.2.4;143.87826697773463;
REPSWITCH1/PICTURE_687.png;camisa;type;darkblue;switch;1;T;4;3;2;1;Stim5_Set4;0;None;85;84;85;0;84;84;84;;;;;;;;;;;;;;;;;;;;;;;441.7415171004832;442.83197760023177;442.83197760023177;442.83197760023177;442.83197760023177;442.83197760023177;442.83197760023177;442.83197760023177;442.83197760023177;['c', 'a', 'm', 'i', 's', 'a'];0;camisa;C:\2023\REPSWITCH21092023\REPSWITCH_excgange\REPSWITCH_excgange\data/430102_REPSWITCH1_version1_list2_2024-01-18_15h43.56.192_micRespv1l2_recorded\recording_micRespv1l2_2024-01-18_15h50.49.439.wav;445.8601066004485;;None;445.8601066004485;445.8601066004485;445.8601066004485;445.8601066004485;445.8601066004485;445.8601066004485;[0.7895361995324492, 0.9021918997168541, 1.038731899112463, 1.169340799562633, 1.2221568990498781, 1.3048735996708274];;;;;;430102;001;2024-01-18_15h43.56.192;REPSWITCH1_version1_list2;2022.2.4;143.87826697773463;
REPSWITCH1/PICTURE_319.png;vaca;type;darkblue;nontarget;1;NT;4;3;2;1;Stim1_Set4;0;None;86;85;86;0;85;85;85;;;;;;;;;;;;;;;;;;;;;;;446.36017330083996;447.3880712008104;447.3880712008104;447.3880712008104;447.3880712008104;447.3880712008104;447.3880712008104;447.3880712008104;447.3880712008104;['v', 'a', 'c', 'a'];0;vaca;C:\2023\REPSWITCH21092023\REPSWITCH_excgange\REPSWITCH_excgange\data/430102_REPSWITCH1_version1_list2_2024-01-18_15h43.56.192_micRespv1l2_recorded\recording_micRespv1l2_2024-01-18_15h50.53.995.wav;450.41625600028783;;None;450.41625600028783;450.41625600028783;450.41625600028783;450.41625600028783;450.41625600028783;450.41625600028783;[1.0284845996648073, 1.1620169999077916, 1.3717959998175502, 1.4865397000685334];;;;;;430102;001;2024-01-18_15h43.56.192;REPSWITCH1_version1_list2;2022.2.4;143.87826697773463;
REPSWITCH1/PICTURE_319.png;vaca;speak;gold;switch;2;T;4;3;2;1;Stim1_Set4;0;None;87;86;87;0;86;86;86;;;;;;;;;;;;;;;;;;;;;;;450.9163236999884;451.9858985003084;451.9858985003084;451.9858985003084;451.9858985003084;451.9858985003084;451.9858985003084;451.9858985003084;451.9858985003084;None;0;;C:\2023\REPSWITCH21092023\REPSWITCH_excgange\REPSWITCH_excgange\data/430102_REPSWITCH1_version1_list2_2024-01-18_15h43.56.192_micRespv1l2_recorded\recording_micRespv1l2_2024-01-18_15h50.58.593.wav;455.01405060011894;;None;455.01405060011894;455.01405060011894;455.01405060011894;455.01405060011894;455.01405060011894;455.01405060011894;;;;;;;430102;001;2024-01-18_15h43.56.192;REPSWITCH1_version1_list2;2022.2.4;143.87826697773463;
REPSWITCH1/PICTURE_464.png;goma;type;darkblue;filler;1;F;4;3;2;1;Stim6_Set3;1;switch;88;87;88;0;87;87;87;;;;;;;;;;;;;;;;;;;;;;;455.5141561003402;456.66707800049335;456.66707800049335;456.66707800049335;456.66707800049335;456.66707800049335;456.66707800049335;456.66707800049335;456.66707800049335;['g', 'o', 'm', 'a'];0;goma;C:\2023\REPSWITCH21092023\REPSWITCH_excgange\REPSWITCH_excgange\data/430102_REPSWITCH1_version1_list2_2024-01-18_15h43.56.192_micRespv1l2_recorded\recording_micRespv1l2_2024-01-18_15h51.03.273.wav;459.68829630035907;460.1883690999821;None;459.68829630035907;459.68829630035907;459.68829630035907;459.68829630035907;459.68829630035907;459.68829630035907;[1.1475997995585203, 1.2652313997969031, 1.443992999382317, 1.6765058990567923];;;;;;430102;001;2024-01-18_15h43.56.192;REPSWITCH1_version1_list2;2022.2.4;143.87826697773463;
REPSWITCH1/PICTURE_728.png;pulpo;speak;gold;nontarget;2;NT;4;3;2;1;Stim8_Set4;1;switch;89;88;89;0;88;88;88;;;;;;;;;;;;;;;;;;;;;;;460.1883690999821;461.23717740084976;461.23717740084976;461.23717740084976;461.23717740084976;461.23717740084976;461.23717740084976;461.23717740084976;461.23717740084976;None;0;;C:\2023\REPSWITCH21092023\REPSWITCH_excgange\REPSWITCH_excgange\data/430102_REPSWITCH1_version1_list2_2024-01-18_15h43.56.192_micRespv1l2_recorded\recording_micRespv1l2_2024-01-18_15h51.07.843.wav;464.26531310006976;;None;464.26531310006976;464.26531310006976;464.26531310006976;464.26531310006976;464.26531310006976;464.26531310006976;;;;;;;430102;001;2024-01-18_15h43.56.192;REPSWITCH1_version1_list2;2022.2.4;143.87826697773463;
REPSWITCH1/PICTURE_728.png;pulpo;speak;gold;repeat;2;T;4;3;2;1;Stim8_Set4;0;None;90;89;90;0;89;89;89;;;;;;;;;;;;;;;;;;;;;;;464.76535989996046;465.84885400068015;465.84885400068015;465.84885400068015;465.84885400068015;465.84885400068015;465.84885400068015;465.84885400068015;465.84885400068015;None;0;;C:\2023\REPSWITCH21092023\REPSWITCH_excgange\REPSWITCH_excgange\data/430102_REPSWITCH1_version1_list2_2024-01-18_15h43.56.192_micRespv1l2_recorded\recording_micRespv1l2_2024-01-18_15h51.12.455.wav;468.8700696006417;469.37020310014486;None;468.8700696006417;468.8700696006417;468.8700696006417;468.8700696006417;468.8700696006417;468.8700696006417;;;;;;;430102;001;2024-01-18_15h43.56.192;REPSWITCH1_version1_list2;2022.2.4;143.87826697773463;
REPSWITCH1/PICTURE_320.png;iglesia;type;darkblue;filler;1;F;4;3;2;1;Stim8_Set3;0;None;91;90;91;0;90;90;90;;;;;;;;;;;;;;;;;;;;;;;469.37020310014486;470.50923640001565;470.50923640001565;470.50923640001565;470.50923640001565;470.50923640001565;470.50923640001565;470.50923640001565;470.50923640001565;['i', 'g', 'l', 'e', 's', 'i', 'a'];0;iglesia;C:\2023\REPSWITCH21092023\REPSWITCH_excgange\REPSWITCH_excgange\data/430102_REPSWITCH1_version1_list2_2024-01-18_15h43.56.192_micRespv1l2_recorded\recording_micRespv1l2_2024-01-18_15h51.17.116.wav;473.53730310034007;;None;473.53730310034007;473.53730310034007;473.53730310034007;473.53730310034007;473.53730310034007;473.53730310034007;[0.9110302003100514, 1.1260051000863314, 1.2509859995916486, 1.3604439999908209, 1.6306841997429729, 1.8123554000630975, 1.9190298998728395];;;;;;430102;001;2024-01-18_15h43.56.192;REPSWITCH1_version1_list2;2022.2.4;143.87826697773463;
REPSWITCH1/PICTURE_576.png;guante;speak;gold;filler;2;F;4;3;2;1;Stim1_Set3;0;None;92;91;92;0;91;91;91;;;;;;;;;;;;;;;;;;;;;;;474.0374057004228;475.162571400404;475.162571400404;475.162571400404;475.162571400404;475.162571400404;475.162571400404;475.162571400404;475.162571400404;None;0;;C:\2023\REPSWITCH21092023\REPSWITCH_excgange\REPSWITCH_excgange\data/430102_REPSWITCH1_version1_list2_2024-01-18_15h43.56.192_micRespv1l2_recorded\recording_micRespv1l2_2024-01-18_15h51.21.769.wav;478.1837697001174;478.6838573999703;None;478.1837697001174;478.1837697001174;478.1837697001174;478.1837697001174;478.1837697001174;478.1837697001174;;;;;;;430102;001;2024-01-18_15h43.56.192;REPSWITCH1_version1_list2;2022.2.4;143.87826697773463;
REPSWITCH1/PICTURE_8.png;pierna;speak;gold;nontarget;2;NT;4;3;2;1;Stim3_Set4;1;repeat;93;92;93;0;92;92;92;;;;;;;;;;;;;;;;;;;;;;;478.6838573999703;479.84378660004586;479.84378660004586;479.84378660004586;479.84378660004586;479.84378660004586;479.84378660004586;479.84378660004586;479.84378660004586;None;0;;C:\2023\REPSWITCH21092023\REPSWITCH_excgange\REPSWITCH_excgange\data/430102_REPSWITCH1_version1_list2_2024-01-18_15h43.56.192_micRespv1l2_recorded\recording_micRespv1l2_2024-01-18_15h51.26.450.wav;482.8649267004803;483.3650212008506;None;482.8649267004803;482.8649267004803;482.8649267004803;482.8649267004803;482.8649267004803;482.8649267004803;;;;;;;430102;001;2024-01-18_15h43.56.192;REPSWITCH1_version1_list2;2022.2.4;143.87826697773463;
REPSWITCH1/PICTURE_8.png;pierna;type;darkblue;switch;1;T;4;3;2;1;Stim3_Set4;0;None;94;93;94;0;93;93;93;;;;;;;;;;;;;;;;;;;;;;;483.3650212008506;484.46238020062447;484.46238020062447;484.46238020062447;484.46238020062447;484.46238020062447;484.46238020062447;484.46238020062447;484.46238020062447;['p', 'i', 'e', 'r', 'n', 'a'];0;pierna;C:\2023\REPSWITCH21092023\REPSWITCH_excgange\REPSWITCH_excgange\data/430102_REPSWITCH1_version1_list2_2024-01-18_15h43.56.192_micRespv1l2_recorded\recording_micRespv1l2_2024-01-18_15h51.31.068.wav;487.48359290044755;487.98372799996287;None;487.48359290044755;487.48359290044755;487.48359290044755;487.48359290044755;487.48359290044755;487.48359290044755;[0.9300606995820999, 1.13432929944247, 1.2569589000195265, 1.335980299860239, 1.4525182992219925, 1.5524872997775674];;;;;;430102;001;2024-01-18_15h43.56.192;REPSWITCH1_version1_list2;2022.2.4;143.87826697773463;
REPSWITCH1/PICTURE_673.png;tenedor;speak;gold;filler;2;F;4;3;2;1;Extra5;0;None;95;94;95;0;94;94;94;;;;;;;;;;;;;;;;;;;;;;;487.98372799996287;489.0671650003642;489.0671650003642;489.0671650003642;489.0671650003642;489.0671650003642;489.0671650003642;489.0671650003642;489.0671650003642;None;0;;C:\2023\REPSWITCH21092023\REPSWITCH_excgange\REPSWITCH_excgange\data/430102_REPSWITCH1_version1_list2_2024-01-18_15h43.56.192_micRespv1l2_recorded\recording_micRespv1l2_2024-01-18_15h51.35.673.wav;492.08834880031645;492.58852170035243;None;492.08834880031645;492.08834880031645;492.08834880031645;492.08834880031645;492.08834880031645;492.08834880031645;;;;;;;430102;001;2024-01-18_15h43.56.192;REPSWITCH1_version1_list2;2022.2.4;143.87826697773463;
REPSWITCH1/PICTURE_35.png;oreja;type;darkblue;filler;1;F;4;3;2;1;Stim5_Set3;1;switch;96;95;96;0;95;95;95;;;;;;;;;;;;;;;;;;;;;;;492.58852170035243;493.672008600086;493.672008600086;493.672008600086;493.672008600086;493.672008600086;493.672008600086;493.672008600086;493.672008600086;['o', 'r', 'e', 'j', 'a'];0;oreja;C:\2023\REPSWITCH21092023\REPSWITCH_excgange\REPSWITCH_excgange\data/430102_REPSWITCH1_version1_list2_2024-01-18_15h43.56.192_micRespv1l2_recorded\recording_micRespv1l2_2024-01-18_15h51.40.279.wav;496.70007980056107;;None;496.70007980056107;496.70007980056107;496.70007980056107;496.70007980056107;496.70007980056107;496.70007980056107;[0.9191343998536468, 1.029746999964118, 1.2421095995232463, 1.5938399992883205, 1.9921393999829888];;;;;;430102;001;2024-01-18_15h43.56.192;REPSWITCH1_version1_list2;2022.2.4;143.87826697773463;
REPSWITCH1/PICTURE_663.png;columna;speak;gold;filler;2;F;4;3;2;1;Extra6;0;None;97;96;97;0;96;96;96;;;;;;;;;;;;;;;;;;;;;;;497.20024220086634;498.2419872004539;498.2419872004539;498.2419872004539;498.2419872004539;498.2419872004539;498.2419872004539;498.2419872004539;498.2419872004539;None;0;;C:\2023\REPSWITCH21092023\REPSWITCH_excgange\REPSWITCH_excgange\data/430102_REPSWITCH1_version1_list2_2024-01-18_15h43.56.192_micRespv1l2_recorded\recording_micRespv1l2_2024-01-18_15h51.44.849.wav;501.2701789001003;;None;501.2701789001003;501.2701789001003;501.2701789001003;501.2701789001003;501.2701789001003;501.2701789001003;;;;;;;430102;001;2024-01-18_15h43.56.192;REPSWITCH1_version1_list2;2022.2.4;143.87826697773463;
REPSWITCH1/PICTURE_242.png;cartero;type;darkblue;filler;1;F;4;3;2;1;Stim3_Set3;1;switch;98;97;98;0;97;97;97;;;;;;;;;;;;;;;;;;;;;;;501.7702325005084;502.93706690054387;502.93706690054387;502.93706690054387;502.93706690054387;502.93706690054387;502.93706690054387;502.93706690054387;502.93706690054387;['c', 'a', 'r', 't', 'e', 'r', 'o'];0;cartero;C:\2023\REPSWITCH21092023\REPSWITCH_excgange\REPSWITCH_excgange\data/430102_REPSWITCH1_version1_list2_2024-01-18_15h43.56.192_micRespv1l2_recorded\recording_micRespv1l2_2024-01-18_15h51.49.544.wav;505.9652783004567;;None;505.9652783004567;505.9652783004567;505.9652783004567;505.9652783004567;505.9652783004567;505.9652783004567;[0.8539020996540785, 0.9684770992025733, 1.1120305992662907, 1.2742298999801278, 1.3838045997545123, 1.4626754997298121, 1.623073099181056];;;;;;430102;001;2024-01-18_15h43.56.192;REPSWITCH1_version1_list2;2022.2.4;143.87826697773463;
REPSWITCH1/PICTURE_48.png;bombero;type;darkblue;nontarget;1;NT;4;3;2;1;Stim7_Set4;1;repeat;99;98;99;0;98;98;98;;;;;;;;;;;;;;;;;;;;;;;506.46527050063014;507.51404810044914;507.51404810044914;507.51404810044914;507.51404810044914;507.51404810044914;507.51404810044914;507.51404810044914;507.51404810044914;['b', 'o', 'm', 'b', 'e', 'r', 'o'];0;bombero;C:\2023\REPSWITCH21092023\REPSWITCH_excgange\REPSWITCH_excgange\data/430102_REPSWITCH1_version1_list2_2024-01-18_15h43.56.192_micRespv1l2_recorded\recording_micRespv1l2_2024-01-18_15h51.54.121.wav;510.5422140005976;511.0422587003559;None;510.5422140005976;510.5422140005976;510.5422140005976;510.5422140005976;510.5422140005976;510.5422140005976;[1.195419100113213, 1.3009928995743394, 1.4604615001007915, 1.533215600065887, 1.6988939996808767, 1.7861966993659735, 1.8828924000263214];;;;;;430102;001;2024-01-18_15h43.56.192;REPSWITCH1_version1_list2;2022.2.4;143.87826697773463;
REPSWITCH1/PICTURE_48.png;bombero;type;darkblue;repeat;1;T;4;3;2;1;Stim7_Set4;0;None;100;99;100;0;99;99;99;;;;;;;;;;;;;;;;;;;;;;;511.0422587003559;512.1952114002779;512.1952114002779;512.1952114002779;512.1952114002779;512.1952114002779;512.1952114002779;512.1952114002779;512.1952114002779;['b', 'o', 'm', 'b', 'e', 'r', 'o'];0;bombero;C:\2023\REPSWITCH21092023\REPSWITCH_excgange\REPSWITCH_excgange\data/430102_REPSWITCH1_version1_list2_2024-01-18_15h43.56.192_micRespv1l2_recorded\recording_micRespv1l2_2024-01-18_15h51.58.802.wav;515.2234185002744;;None;515.2234185002744;515.2234185002744;515.2234185002744;515.2234185002744;515.2234185002744;515.2234185002744;[0.8024240992963314, 0.9220019998028874, 1.1161115998402238, 1.489924599416554, 1.690969199873507, 1.7585637997835875, 1.8662176998332143];;;;;;430102;001;2024-01-18_15h43.56.192;REPSWITCH1_version1_list2;2022.2.4;143.87826697773463;
REPSWITCH1/PICTURE_391.png;cadena;speak;gold;filler;2;F;4;3;2;1;Extra2;0;None;101;100;101;0;100;100;100;;;;;;;;;;;;;;;;;;;;;;;515.723431000486;516.7721530003473;516.7721530003473;516.7721530003473;516.7721530003473;516.7721530003473;516.7721530003473;516.7721530003473;516.7721530003473;None;0;;C:\2023\REPSWITCH21092023\REPSWITCH_excgange\REPSWITCH_excgange\data/430102_REPSWITCH1_version1_list2_2024-01-18_15h43.56.192_micRespv1l2_recorded\recording_micRespv1l2_2024-01-18_15h52.03.379.wav;519.8003490008414;;None;519.8003490008414;519.8003490008414;519.8003490008414;519.8003490008414;519.8003490008414;519.8003490008414;;;;;;;430102;001;2024-01-18_15h43.56.192;REPSWITCH1_version1_list2;2022.2.4;143.87826697773463;
REPSWITCH1/PICTURE_590.png;escoba;type;darkblue;filler;1;F;4;3;2;1;Extra3;0;None;102;101;102;0;101;101;101;;;;;;;;;;;;;;;;;;;;;;;520.300420800224;521.4394356003031;521.4394356003031;521.4394356003031;521.4394356003031;521.4394356003031;521.4394356003031;521.4394356003031;521.4394356003031;['e', 's', 'c', 'o', 'b', 'a'];0;escoba;C:\2023\REPSWITCH21092023\REPSWITCH_excgange\REPSWITCH_excgange\data/430102_REPSWITCH1_version1_list2_2024-01-18_15h43.56.192_micRespv1l2_recorded\recording_micRespv1l2_2024-01-18_15h52.08.046.wav;524.4607212999836;524.9607156999409;space;524.4607212999836;524.4607212999836;524.4607212999836;524.4607212999836;524.4607212999836;524.4607212999836;[1.8610530998557806, 2.0413555996492505, 2.236651899293065, 2.400626099668443, 2.5812674993649125, 2.713176599703729];524.9607156999409;524.9607156999409;1.4341545002534986;;;430102;001;2024-01-18_15h43.56.192;REPSWITCH1_version1_list2;2022.2.4;143.87826697773463;
REPSWITCH1/PICTURE_340.png;espejo;type;darkblue;filler;1;F;1;1;2;1;Extra1;0;None;103;102;1;0;102;102;102;;;;;;;;;;;;;;;;;;;;;;;526.4053846001625;527.5096853999421;527.5096853999421;527.5096853999421;527.5096853999421;527.5096853999421;527.5096853999421;527.5096853999421;527.5096853999421;['e', 's', 'p', 'e', 'j', 'o'];0;espejo;C:\2023\REPSWITCH21092023\REPSWITCH_excgange\REPSWITCH_excgange\data/430102_REPSWITCH1_version1_list2_2024-01-18_15h43.56.192_micRespv1l2_recorded\recording_micRespv1l2_2024-01-18_15h52.14.116.wav;530.537854200229;;None;530.537854200229;530.537854200229;530.537854200229;530.537854200229;530.537854200229;530.537854200229;[0.7149128001183271, 0.8793327994644642, 1.0607698997482657, 1.1684895996004343, 1.5123199000954628, 1.660792499780655];;;;;;430102;001;2024-01-18_15h43.56.192;REPSWITCH1_version1_list2;2022.2.4;143.87826697773463;
REPSWITCH1/PICTURE_391.png;cadena;speak;gold;filler;2;F;1;1;2;1;Extra2;0;None;104;103;2;0;103;103;103;;;;;;;;;;;;;;;;;;;;;;;531.0379445003346;532.1144435005262;532.1144435005262;532.1144435005262;532.1144435005262;532.1144435005262;532.1144435005262;532.1144435005262;532.1144435005262;None;0;;C:\2023\REPSWITCH21092023\REPSWITCH_excgange\REPSWITCH_excgange\data/430102_REPSWITCH1_version1_list2_2024-01-18_15h43.56.192_micRespv1l2_recorded\recording_micRespv1l2_2024-01-18_15h52.18.721.wav;535.1426820000634;;None;535.1426820000634;535.1426820000634;535.1426820000634;535.1426820000634;535.1426820000634;535.1426820000634;;;;;;;430102;001;2024-01-18_15h43.56.192;REPSWITCH1_version1_list2;2022.2.4;143.87826697773463;
REPSWITCH1/PICTURE_178.png;puente;speak;gold;nontarget;2;NT;1;1;2;1;Stim1_Set1;1;repeat;105;104;3;0;104;104;104;;;;;;;;;;;;;;;;;;;;;;;535.6427521007136;536.767877000384;536.767877000384;536.767877000384;536.767877000384;536.767877000384;536.767877000384;536.767877000384;536.767877000384;None;0;;C:\2023\REPSWITCH21092023\REPSWITCH_excgange\REPSWITCH_excgange\data/430102_REPSWITCH1_version1_list2_2024-01-18_15h43.56.192_micRespv1l2_recorded\recording_micRespv1l2_2024-01-18_15h52.23.375.wav;539.7960955007002;;None;539.7960955007002;539.7960955007002;539.7960955007002;539.7960955007002;539.7960955007002;539.7960955007002;;;;;;;430102;001;2024-01-18_15h43.56.192;REPSWITCH1_version1_list2;2022.2.4;143.87826697773463;
REPSWITCH1/PICTURE_178.png;puente;speak;gold;repeat;2;T;1;1;2;1;Stim1_Set1;0;None;106;105;4;0;105;105;105;;;;;;;;;;;;;;;;;;;;;;;540.2961669005454;541.4142909999937;541.4142909999937;541.4142909999937;541.4142909999937;541.4142909999937;541.4142909999937;541.4142909999937;541.4142909999937;None;0;;C:\2023\REPSWITCH21092023\REPSWITCH_excgange\REPSWITCH_excgange\data/430102_REPSWITCH1_version1_list2_2024-01-18_15h43.56.192_micRespv1l2_recorded\recording_micRespv1l2_2024-01-18_15h52.28.020.wav;544.4355460004881;544.935568800196;None;544.4355460004881;544.4355460004881;544.4355460004881;544.4355460004881;544.4355460004881;544.4355460004881;;;;;;;430102;001;2024-01-18_15h43.56.192;REPSWITCH1_version1_list2;2022.2.4;143.87826697773463;
REPSWITCH1/PICTURE_319.png;vaca;type;darkblue;filler;1;F;1;1;2;1;Stim1_Set4;0;None;107;106;5;0;106;106;106;;;;;;;;;;;;;;;;;;;;;;;544.935568800196;546.1162864007056;546.1162864007056;546.1162864007056;546.1162864007056;546.1162864007056;546.1162864007056;546.1162864007056;546.1162864007056;['v', 'a', 'c', 'a'];0;vaca;C:\2023\REPSWITCH21092023\REPSWITCH_excgange\REPSWITCH_excgange\data/430102_REPSWITCH1_version1_list2_2024-01-18_15h43.56.192_micRespv1l2_recorded\recording_micRespv1l2_2024-01-18_15h52.32.723.wav;549.1375470999628;549.6375571005046;None;549.1375470999628;549.1375470999628;549.1375470999628;549.1375470999628;549.1375470999628;549.1375470999628;[0.9122019000351429, 1.0294172996655107, 1.3052085991948843, 1.7307182997465134];;;;;;430102;001;2024-01-18_15h43.56.192;REPSWITCH1_version1_list2;2022.2.4;143.87826697773463;
REPSWITCH1/PICTURE_381.png;fresa;speak;gold;nontarget;2;NT;1;1;2;1;Stim2_Set1;1;switch;108;107;6;0;107;107;107;;;;;;;;;;;;;;;;;;;;;;;549.6375571005046;550.7418846003711;550.7418846003711;550.7418846003711;550.7418846003711;550.7418846003711;550.7418846003711;550.7418846003711;550.7418846003711;None;0;;C:\2023\REPSWITCH21092023\REPSWITCH_excgange\REPSWITCH_excgange\data/430102_REPSWITCH1_version1_list2_2024-01-18_15h43.56.192_micRespv1l2_recorded\recording_micRespv1l2_2024-01-18_15h52.37.348.wav;553.7700939001516;;None;553.7700939001516;553.7700939001516;553.7700939001516;553.7700939001516;553.7700939001516;553.7700939001516;;;;;;;430102;001;2024-01-18_15h43.56.192;REPSWITCH1_version1_list2;2022.2.4;143.87826697773463;
REPSWITCH1/PICTURE_381.png;fresa;speak;gold;repeat;2;T;1;1;2;1;Stim2_Set1;0;None;109;108;7;0;108;108;108;;;;;;;;;;;;;;;;;;;;;;;554.270146900788;555.3328116005287;555.3328116005287;555.3328116005287;555.3328116005287;555.3328116005287;555.3328116005287;555.3328116005287;555.3328116005287;None;0;;C:\2023\REPSWITCH21092023\REPSWITCH_excgange\REPSWITCH_excgange\data/430102_REPSWITCH1_version1_list2_2024-01-18_15h43.56.192_micRespv1l2_recorded\recording_micRespv1l2_2024-01-18_15h52.41.939.wav;558.3540900005028;558.8540809005499;None;558.3540900005028;558.3540900005028;558.3540900005028;558.3540900005028;558.3540900005028;558.3540900005028;;;;;;;430102;001;2024-01-18_15h43.56.192;REPSWITCH1_version1_list2;2022.2.4;143.87826697773463;
REPSWITCH1/PICTURE_719.png;baño;type;darkblue;filler;1;F;1;1;2;1;Stim2_Set4;1;switch;110;109;8;0;109;109;109;;;;;;;;;;;;;;;;;;;;;;;558.8540809005499;559.958449200727;559.958449200727;559.958449200727;559.958449200727;559.958449200727;559.958449200727;559.958449200727;559.958449200727;['b', 'a', 'ñ', 'o'];0;baño;C:\2023\REPSWITCH21092023\REPSWITCH_excgange\REPSWITCH_excgange\data/430102_REPSWITCH1_version1_list2_2024-01-18_15h43.56.192_micRespv1l2_recorded\recording_micRespv1l2_2024-01-18_15h52.46.564.wav;562.9935439005494;;None;562.9935439005494;562.9935439005494;562.9935439005494;562.9935439005494;562.9935439005494;562.9935439005494;[0.919055100530386, 1.051596799865365, 1.3736701998859644, 1.5590577004477382];;;;;;430102;001;2024-01-18_15h43.56.192;REPSWITCH1_version1_list2;2022.2.4;143.87826697773463;
REPSWITCH1/PICTURE_135.png;traje;speak;gold;nontarget;2;NT;1;1;2;1;Stim3_Set1;0;None;111;110;9;0;110;110;110;;;;;;;;;;;;;;;;;;;;;;;563.4935413002968;564.5770666003227;564.5770666003227;564.5770666003227;564.5770666003227;564.5770666003227;564.5770666003227;564.5770666003227;564.5770666003227;None;0;;C:\2023\REPSWITCH21092023\REPSWITCH_excgange\REPSWITCH_excgange\data/430102_REPSWITCH1_version1_list2_2024-01-18_15h43.56.192_micRespv1l2_recorded\recording_micRespv1l2_2024-01-18_15h52.51.184.wav;567.6122360005975;;None;567.6122360005975;567.6122360005975;567.6122360005975;567.6122360005975;567.6122360005975;567.6122360005975;;;;;;;430102;001;2024-01-18_15h43.56.192;REPSWITCH1_version1_list2;2022.2.4;143.87826697773463;
REPSWITCH1/PICTURE_135.png;traje;type;darkblue;switch;1;T;1;1;2;1;Stim3_Set1;0;None;112;111;10;0;111;111;111;;;;;;;;;;;;;;;;;;;;;;;568.1122400006279;569.2026907000691;569.2026907000691;569.2026907000691;569.2026907000691;569.2026907000691;569.2026907000691;569.2026907000691;569.2026907000691;['t', 'r', 'a', 'j', 'e'];0;traje;C:\2023\REPSWITCH21092023\REPSWITCH_excgange\REPSWITCH_excgange\data/430102_REPSWITCH1_version1_list2_2024-01-18_15h43.56.192_micRespv1l2_recorded\recording_micRespv1l2_2024-01-18_15h52.55.809.wav;572.2308609001338;572.7308998005465;None;572.2308609001338;572.2308609001338;572.2308609001338;572.2308609001338;572.2308609001338;572.2308609001338;[0.8776145996525884, 0.9473767997696996, 1.04900289978832, 1.2067147996276617, 1.2854653997346759];;;;;;430102;001;2024-01-18_15h43.56.192;REPSWITCH1_version1_list2;2022.2.4;143.87826697773463;
REPSWITCH1/PICTURE_687.png;camisa;speak;gold;filler;2;F;1;1;2;1;Stim5_Set4;0;None;113;112;11;0;112;112;112;;;;;;;;;;;;;;;;;;;;;;;572.7308998005465;573.7796414000914;573.7796414000914;573.7796414000914;573.7796414000914;573.7796414000914;573.7796414000914;573.7796414000914;573.7796414000914;None;0;;C:\2023\REPSWITCH21092023\REPSWITCH_excgange\REPSWITCH_excgange\data/430102_REPSWITCH1_version1_list2_2024-01-18_15h43.56.192_micRespv1l2_recorded\recording_micRespv1l2_2024-01-18_15h53.00.386.wav;576.8078249003738;;None;576.8078249003738;576.8078249003738;576.8078249003738;576.8078249003738;576.8078249003738;576.8078249003738;;;;;;;430102;001;2024-01-18_15h43.56.192;REPSWITCH1_version1_list2;2022.2.4;143.87826697773463;
REPSWITCH1/PICTURE_128.png;muñeca;type;darkblue;nontarget;1;NT;1;1;2;1;Stim4_Set1;1;switch;114;113;12;0;113;113;113;;;;;;;;;;;;;;;;;;;;;;;577.3079490000382;578.3913820004091;578.3913820004091;578.3913820004091;578.3913820004091;578.3913820004091;578.3913820004091;578.3913820004091;578.3913820004091;['m', 'u', 'ñ', 'e', 'c', 'a'];0;muñeca;C:\2023\REPSWITCH21092023\REPSWITCH_excgange\REPSWITCH_excgange\data/430102_REPSWITCH1_version1_list2_2024-01-18_15h43.56.192_micRespv1l2_recorded\recording_micRespv1l2_2024-01-18_15h53.04.997.wav;581.4125570999458;581.9127100007609;None;581.4125570999458;581.4125570999458;581.4125570999458;581.4125570999458;581.4125570999458;581.4125570999458;[1.2265655994415283, 1.4467491991817951, 2.2779019000008702, 2.433762799948454, 2.873253599740565, 2.9790132995694876];;;;;;430102;001;2024-01-18_15h43.56.192;REPSWITCH1_version1_list2;2022.2.4;143.87826697773463;
REPSWITCH1/PICTURE_128.png;muñeca;speak;gold;switch;2;T;1;1;2;1;Stim4_Set1;0;None;115;114;13;0;114;114;114;;;;;;;;;;;;;;;;;;;;;;;581.9127100007609;582.9961490007117;582.9961490007117;582.9961490007117;582.9961490007117;582.9961490007117;582.9961490007117;582.9961490007117;582.9961490007117;None;0;;C:\2023\REPSWITCH21092023\REPSWITCH_excgange\REPSWITCH_excgange\data/430102_REPSWITCH1_version1_list2_2024-01-18_15h43.56.192_micRespv1l2_recorded\recording_micRespv1l2_2024-01-18_15h53.09.603.wav;586.0173629000783;586.5174180008471;None;586.0173629000783;586.0173629000783;586.0173629000783;586.0173629000783;586.0173629000783;586.0173629000783;;;;;;;430102;001;2024-01-18_15h43.56.192;REPSWITCH1_version1_list2;2022.2.4;143.87826697773463;
REPSWITCH1/PICTURE_8.png;pierna;speak;gold;filler;2;F;1;1;2;1;Stim3_Set4;0;None;116;115;14;0;115;115;115;;;;;;;;;;;;;;;;;;;;;;;586.5174180008471;587.5939754005522;587.5939754005522;587.5939754005522;587.5939754005522;587.5939754005522;587.5939754005522;587.5939754005522;587.5939754005522;None;0;;C:\2023\REPSWITCH21092023\REPSWITCH_excgange\REPSWITCH_excgange\data/430102_REPSWITCH1_version1_list2_2024-01-18_15h43.56.192_micRespv1l2_recorded\recording_micRespv1l2_2024-01-18_15h53.14.201.wav;590.6222149999812;;None;590.6222149999812;590.6222149999812;590.6222149999812;590.6222149999812;590.6222149999812;590.6222149999812;;;;;;;430102;001;2024-01-18_15h43.56.192;REPSWITCH1_version1_list2;2022.2.4;143.87826697773463;
REPSWITCH1/PICTURE_19.png;pavo;speak;gold;nontarget;2;NT;1;1;2;1;Stim5_Set1;0;None;117;116;15;0;116;116;116;;;;;;;;;;;;;;;;;;;;;;;591.1222048001364;592.2681679008529;592.2681679008529;592.2681679008529;592.2681679008529;592.2681679008529;592.2681679008529;592.2681679008529;592.2681679008529;None;0;;C:\2023\REPSWITCH21092023\REPSWITCH_excgange\REPSWITCH_excgange\data/430102_REPSWITCH1_version1_list2_2024-01-18_15h43.56.192_micRespv1l2_recorded\recording_micRespv1l2_2024-01-18_15h53.18.874.wav;595.2894152002409;595.7894562007859;None;595.2894152002409;595.2894152002409;595.2894152002409;595.2894152002409;595.2894152002409;595.2894152002409;;;;;;;430102;001;2024-01-18_15h43.56.192;REPSWITCH1_version1_list2;2022.2.4;143.87826697773463;
REPSWITCH1/PICTURE_19.png;pavo;type;darkblue;switch;1;T;1;1;2;1;Stim5_Set1;0;None;118;117;16;0;117;117;117;;;;;;;;;;;;;;;;;;;;;;;595.7894562007859;596.8521289005876;596.8521289005876;596.8521289005876;596.8521289005876;596.8521289005876;596.8521289005876;596.8521289005876;596.8521289005876;['p', 'a', 'v', 'o'];0;pavo;C:\2023\REPSWITCH21092023\REPSWITCH_excgange\REPSWITCH_excgange\data/430102_REPSWITCH1_version1_list2_2024-01-18_15h43.56.192_micRespv1l2_recorded\recording_micRespv1l2_2024-01-18_15h53.23.459.wav;599.873332099989;600.373407700099;None;599.873332099989;599.873332099989;599.873332099989;599.873332099989;599.873332099989;599.873332099989;[0.623361999168992, 0.7270451998338103, 0.929190400056541, 0.9996534995734692];;;;;;430102;001;2024-01-18_15h43.56.192;REPSWITCH1_version1_list2;2022.2.4;143.87826697773463;
REPSWITCH1/PICTURE_16.png;cazador;type;darkblue;nontarget;1;NT;1;1;2;1;Stim6_Set1;1;switch;119;118;17;0;118;118;118;;;;;;;;;;;;;;;;;;;;;;;600.373407700099;601.5680235000327;601.5680235000327;601.5680235000327;601.5680235000327;601.5680235000327;601.5680235000327;601.5680235000327;601.5680235000327;['c', 'a', 'z', 'a', 'd', 'o', 'r'];0;cazador;C:\2023\REPSWITCH21092023\REPSWITCH_excgange\REPSWITCH_excgange\data/430102_REPSWITCH1_version1_list2_2024-01-18_15h43.56.192_micRespv1l2_recorded\recording_micRespv1l2_2024-01-18_15h53.28.175.wav;604.5961854001507;;None;604.5961854001507;604.5961854001507;604.5961854001507;604.5961854001507;604.5961854001507;604.5961854001507;[1.2641871999949217, 1.4046047003939748, 1.6350861005485058, 1.8015449000522494, 2.1235581999644637, 2.238175899721682, 2.3291611997410655];;;;;;430102;001;2024-01-18_15h43.56.192;REPSWITCH1_version1_list2;2022.2.4;143.87826697773463;
REPSWITCH1/PICTURE_16.png;cazador;type;darkblue;repeat;1;T;1;1;2;1;Stim6_Set1;0;None;120;119;18;0;119;119;119;;;;;;;;;;;;;;;;;;;;;;;605.0962411006913;606.2214250005782;606.2214250005782;606.2214250005782;606.2214250005782;606.2214250005782;606.2214250005782;606.2214250005782;606.2214250005782;['c', 'a', 'z', 'a', 'd', 'o', 'r'];0;cazador;C:\2023\REPSWITCH21092023\REPSWITCH_excgange\REPSWITCH_excgange\data/430102_REPSWITCH1_version1_list2_2024-01-18_15h43.56.192_micRespv1l2_recorded\recording_micRespv1l2_2024-01-18_15h53.32.827.wav;609.242596000433;609.742674600333;None;609.242596000433;609.242596000433;609.242596000433;609.242596000433;609.242596000433;609.242596000433;[0.9352462999522686, 1.0948663000017405, 1.2801850996911526, 1.442989599891007, 1.5905469004064798, 1.7060404000803828, 1.795788699761033];;;;;;430102;001;2024-01-18_15h43.56.192;REPSWITCH1_version1_list2;2022.2.4;143.87826697773463;
REPSWITCH1/PICTURE_498.png;taza;speak;gold;filler;2;F;1;1;2;1;Stim4_Set4;0;None;121;120;19;0;120;120;120;;;;;;;;;;;;;;;;;;;;;;;609.742674600333;610.8887010002509;610.8887010002509;610.8887010002509;610.8887010002509;610.8887010002509;610.8887010002509;610.8887010002509;610.8887010002509;None;0;;C:\2023\REPSWITCH21092023\REPSWITCH_excgange\REPSWITCH_excgange\data/430102_REPSWITCH1_version1_list2_2024-01-18_15h43.56.192_micRespv1l2_recorded\recording_micRespv1l2_2024-01-18_15h53.37.495.wav;613.9099075002596;614.4100542003289;None;613.9099075002596;613.9099075002596;613.9099075002596;613.9099075002596;613.9099075002596;613.9099075002596;;;;;;;430102;001;2024-01-18_15h43.56.192;REPSWITCH1_version1_list2;2022.2.4;143.87826697773463;
