image;correctAns;respModal;frameColor;repSwitch;sequence;target;set;block;list;exp_version;stimulus;baseline;baseline_condition;trial_no;psychopy_trial;Column1;trialsREPSWITCH.thisRepN;trialsREPSWITCH.thisTrialN;trialsREPSWITCH.thisN;trialsREPSWITCH.thisIndex;textWelcome.started;textboxInstrMain1.started;textboxInstrMain1_2.started;textboxInstrMain1_3.started;keyInstrMain.started;keyInstrMain.keys;keyInstrMain.rt;textboxInstrMain2.started;textboxInstrMain2_2.started;textboxInstrMain2_3.started;textboxInstrMain2_4.started;textboxInstrMain2_5.started;textboxInstrMain2_6.started;textboxInstrMain2_7.started;textboxInstrMain2_8.started;textboxInstrMain2_9.started;textboxInstrMain2_10.started;textboxInstrMain2_11.started;textboxInstrMain2_12.started;keyInstrMain2.started;keyInstrMain2.keys;keyInstrMain2.rt;fixationITI.started;fixationITI.stopped;polygonColour.started;polygonWhite.started;imageObject.started;polygonType.started;textInput.started;keyResp.started;micRespv1l2.started;keyResp.keys;keyResp.corr;subjResponse;micRespv1l2.clip;textBlankLoop.started;textBlankLoop.stopped;keyPause.keys;polygonColour.stopped;polygonWhite.stopped;imageObject.stopped;polygonType.stopped;textInput.stopped;keyResp.stopped;keyResp.rt;textboxPause.started;keyPause.started;keyPause.rt;textboxGoodbye.started;textboxGoodbye.stopped;participant;session;date;expName;psychopyVersion;frameRate;Column2
;;;;;;;;;;;;;;;;;;;;;34.4759706;36.9732264;36.9732264;36.9732264;36.9732264;space;5.892061899;;;;;;;;;;;;;;;;;;;;;;;;;;;;;;;;;;;;;;;;;;;;430102;1;2024-01-18_15h43.56.192;REPSWITCH1_version1_list2;2022.2.4;143.878267;
;;;;;;;;;;;;;;;;;;;;;;;;;;;;42.8836993;42.8836993;42.8836993;42.8836993;42.8836993;42.8836993;42.8836993;42.8836993;42.8836993;42.8836993;42.8836993;42.8836993;42.8836993;space;8.3035694;;;;;;;;;;;;;;;;;;;;;;;;;;;;;430102;1;2024-01-18_15h43.56.192;REPSWITCH1_version1_list2;2022.2.4;143.878267;
REPSWITCH1/PICTURE_646.png;tronco;speak;gold;filler;2;F;1;3;2;1;Extra4;0;None;1;0;1;0;0;0;0;;;;;;;;;;;;;;;;;;;;;;;51.2806609;52.3433249;52.3433249;52.3433249;52.3433249;52.3433249;52.3433249;52.3433249;52.3433249;None;0;;C:\2023\REPSWITCH21092023\REPSWITCH_excgange\REPSWITCH_excgange\data/430102_REPSWITCH1_version1_list2_2024-01-18_15h43.56.192_micRespv1l2_recorded\recording_micRespv1l2_2024-01-18_15h44.18.946.wav;55.3645278;55.8646584;None;;;;;;;;;;;;;430102;1;2024-01-18_15h43.56.192;REPSWITCH1_version1_list2;2022.2.4;143.878267;
REPSWITCH1/PICTURE_340.png;espejo;type;darkblue;filler;1;F;1;3;2;1;Extra1;0;None;2;1;2;0;1;1;1;;;;;;;;;;;;;;;;;;;;;;;55.8646584;56.9063908;56.9063908;56.9063908;56.9063908;56.9063908;56.9063908;56.9063908;56.9063908;['e', 's', 'p', 'e', 'j', 'o'];0;espejo;C:\2023\REPSWITCH21092023\REPSWITCH_excgange\REPSWITCH_excgange\data/430102_REPSWITCH1_version1_list2_2024-01-18_15h43.56.192_micRespv1l2_recorded\recording_micRespv1l2_2024-01-18_15h44.23.513.wav;59.9345677;;None;59.9345677;59.9345677;59.9345677;59.9345677;59.9345677;59.9345677;[0.8594297003000975, 1.0288624996319413, 1.2077698996290565, 1.3291154997423291, 1.5204755002632737, 1.6819270998239517];;;;;;430102;1;2024-01-18_15h43.56.192;REPSWITCH1_version1_list2;2022.2.4;143.878267;
REPSWITCH1/PICTURE_338.png;regalo;speak;gold;filler;2;F;1;3;2;1;Stim6_Set4;0;None;3;2;3;0;2;2;2;;;;;;;;;;;;;;;;;;;;;;;60.4346301;61.4764145;61.4764145;61.4764145;61.4764145;61.4764145;61.4764145;61.4764145;61.4764145;None;0;;C:\2023\REPSWITCH21092023\REPSWITCH_excgange\REPSWITCH_excgange\data/430102_REPSWITCH1_version1_list2_2024-01-18_15h43.56.192_micRespv1l2_recorded\recording_micRespv1l2_2024-01-18_15h44.28.083.wav;64.504618;;None;64.504618;64.504618;64.504618;64.504618;64.504618;64.504618;;;;;;;430102;1;2024-01-18_15h43.56.192;REPSWITCH1_version1_list2;2022.2.4;143.878267;
REPSWITCH1/PICTURE_142.png;vaso;speak;gold;nontarget;2;NT;1;3;2;1;Stim7_Set1;1;repeat;4;3;4;0;3;3;3;;;;;;;;;;;;;;;;;;;;;;;65.0046699;66.1575803;66.1575803;66.1575803;66.1575803;66.1575803;66.1575803;66.1575803;66.1575803;None;0;;C:\2023\REPSWITCH21092023\REPSWITCH_excgange\REPSWITCH_excgange\data/430102_REPSWITCH1_version1_list2_2024-01-18_15h43.56.192_micRespv1l2_recorded\recording_micRespv1l2_2024-01-18_15h44.32.764.wav;69.1788402;69.6788721;None;69.1788402;69.1788402;69.1788402;69.1788402;69.1788402;69.1788402;;;;;;;430102;1;2024-01-18_15h43.56.192;REPSWITCH1_version1_list2;2022.2.4;143.878267;
REPSWITCH1/PICTURE_142.png;vaso;speak;gold;repeat;2;T;1;3;2;1;Stim7_Set1;0;None;5;4;5;0;4;4;4;;;;;;;;;;;;;;;;;;;;;;;69.6788721;70.8179242;70.8179242;70.8179242;70.8179242;70.8179242;70.8179242;70.8179242;70.8179242;None;0;;C:\2023\REPSWITCH21092023\REPSWITCH_excgange\REPSWITCH_excgange\data/430102_REPSWITCH1_version1_list2_2024-01-18_15h43.56.192_micRespv1l2_recorded\recording_micRespv1l2_2024-01-18_15h44.37.424.wav;73.8461134;;None;73.8461134;73.8461134;73.8461134;73.8461134;73.8461134;73.8461134;;;;;;;430102;1;2024-01-18_15h43.56.192;REPSWITCH1_version1_list2;2022.2.4;143.878267;
REPSWITCH1/PICTURE_498.png;taza;type;darkblue;filler;1;F;1;3;2;1;Stim4_Set4;0;None;6;5;6;0;5;5;5;;;;;;;;;;;;;;;;;;;;;;;74.346173;75.4226963;75.4226963;75.4226963;75.4226963;75.4226963;75.4226963;75.4226963;75.4226963;['t', 'a', 'z', 'a'];0;taza;C:\2023\REPSWITCH21092023\REPSWITCH_excgange\REPSWITCH_excgange\data/430102_REPSWITCH1_version1_list2_2024-01-18_15h43.56.192_micRespv1l2_recorded\recording_micRespv1l2_2024-01-18_15h44.42.029.wav;78.4508487;;None;78.4508487;78.4508487;78.4508487;78.4508487;78.4508487;78.4508487;[0.9925397001206875, 1.1420504003763199, 1.4071516999974847, 1.587848199531436];;;;;;430102;1;2024-01-18_15h43.56.192;REPSWITCH1_version1_list2;2022.2.4;143.878267;
REPSWITCH1/PICTURE_16.png;cazador;speak;gold;nontarget;2;NT;1;3;2;1;Stim6_Set1;1;switch;7;6;7;0;6;6;6;;;;;;;;;;;;;;;;;;;;;;;78.9509223;80.0899564;80.0899564;80.0899564;80.0899564;80.0899564;80.0899564;80.0899564;80.0899564;None;0;;C:\2023\REPSWITCH21092023\REPSWITCH_excgange\REPSWITCH_excgange\data/430102_REPSWITCH1_version1_list2_2024-01-18_15h43.56.192_micRespv1l2_recorded\recording_micRespv1l2_2024-01-18_15h44.46.697.wav;83.1181448;83.6182058;None;83.1181448;83.1181448;83.1181448;83.1181448;83.1181448;83.1181448;;;;;;;430102;1;2024-01-18_15h43.56.192;REPSWITCH1_version1_list2;2022.2.4;143.878267;
REPSWITCH1/PICTURE_16.png;cazador;speak;gold;repeat;2;T;1;3;2;1;Stim6_Set1;0;None;8;7;8;0;7;7;7;;;;;;;;;;;;;;;;;;;;;;;83.6182058;84.6809151;84.6809151;84.6809151;84.6809151;84.6809151;84.6809151;84.6809151;84.6809151;None;0;;C:\2023\REPSWITCH21092023\REPSWITCH_excgange\REPSWITCH_excgange\data/430102_REPSWITCH1_version1_list2_2024-01-18_15h43.56.192_micRespv1l2_recorded\recording_micRespv1l2_2024-01-18_15h44.51.287.wav;87.7090419;;None;87.7090419;87.7090419;87.7090419;87.7090419;87.7090419;87.7090419;;;;;;;430102;1;2024-01-18_15h43.56.192;REPSWITCH1_version1_list2;2022.2.4;143.878267;
REPSWITCH1/PICTURE_719.png;baño;type;darkblue;filler;1;F;1;3;2;1;Stim2_Set4;0;None;9;8;9;0;8;8;8;;;;;;;;;;;;;;;;;;;;;;;88.2090997;89.3550673;89.3550673;89.3550673;89.3550673;89.3550673;89.3550673;89.3550673;89.3550673;['b', 'a', 'ñ', 'o'];0;baño;C:\2023\REPSWITCH21092023\REPSWITCH_excgange\REPSWITCH_excgange\data/430102_REPSWITCH1_version1_list2_2024-01-18_15h43.56.192_micRespv1l2_recorded\recording_micRespv1l2_2024-01-18_15h44.55.961.wav;92.3832633;;None;92.3832633;92.3832633;92.3832633;92.3832633;92.3832633;92.3832633;[1.0066997995600104, 1.1662520002573729, 1.7996030999347568, 2.0772011997178197];;;;;;430102;1;2024-01-18_15h43.56.192;REPSWITCH1_version1_list2;2022.2.4;143.878267;
REPSWITCH1/PICTURE_169.png;espalda;speak;gold;nontarget;2;NT;1;3;2;1;Stim8_Set1;0;None;10;9;10;0;9;9;9;;;;;;;;;;;;;;;;;;;;;;;92.883324;93.9807468;93.9807468;93.9807468;93.9807468;93.9807468;93.9807468;93.9807468;93.9807468;None;0;;C:\2023\REPSWITCH21092023\REPSWITCH_excgange\REPSWITCH_excgange\data/430102_REPSWITCH1_version1_list2_2024-01-18_15h43.56.192_micRespv1l2_recorded\recording_micRespv1l2_2024-01-18_15h45.00.587.wav;97.0018956;97.5019777;None;97.0018956;97.0018956;97.0018956;97.0018956;97.0018956;97.0018956;;;;;;;430102;1;2024-01-18_15h43.56.192;REPSWITCH1_version1_list2;2022.2.4;143.878267;
REPSWITCH1/PICTURE_169.png;espalda;type;darkblue;switch;1;T;1;3;2;1;Stim8_Set1;0;None;11;10;11;0;10;10;10;;;;;;;;;;;;;;;;;;;;;;;97.5019777;98.7035463;98.7035463;98.7035463;98.7035463;98.7035463;98.7035463;98.7035463;98.7035463;['e', 's', 'p', 'a', 'l', 'd', 'a'];0;espalda;C:\2023\REPSWITCH21092023\REPSWITCH_excgange\REPSWITCH_excgange\data/430102_REPSWITCH1_version1_list2_2024-01-18_15h43.56.192_micRespv1l2_recorded\recording_micRespv1l2_2024-01-18_15h45.05.310.wav;101.724737;102.2248007;None;101.724737;101.724737;101.724737;101.724737;101.724737;101.724737;[1.0552168991416693, 1.228863699361682, 1.4331771992146969, 1.5639253994449973, 1.7137744994834065, 1.9193341992795467, 2.032956499606371];;;;;;430102;1;2024-01-18_15h43.56.192;REPSWITCH1_version1_list2;2022.2.4;143.878267;
REPSWITCH1/PICTURE_687.png;camisa;type;darkblue;filler;1;F;1;3;2;1;Stim5_Set4;0;None;12;11;12;0;11;11;11;;;;;;;;;;;;;;;;;;;;;;;102.2248007;103.3430553;103.3430553;103.3430553;103.3430553;103.3430553;103.3430553;103.3430553;103.3430553;['c', 'a', 'm', 'i', 's', 'a'];0;camisa;C:\2023\REPSWITCH21092023\REPSWITCH_excgange\REPSWITCH_excgange\data/430102_REPSWITCH1_version1_list2_2024-01-18_15h43.56.192_micRespv1l2_recorded\recording_micRespv1l2_2024-01-18_15h45.09.950.wav;106.3711896;;None;106.3711896;106.3711896;106.3711896;106.3711896;106.3711896;106.3711896;[1.269688199274242, 1.3842796999961138, 1.5146552994847298, 1.6475197998806834, 1.7132391994819045, 1.8119200998917222];;;;;;430102;1;2024-01-18_15h43.56.192;REPSWITCH1_version1_list2;2022.2.4;143.878267;
REPSWITCH1/PICTURE_178.png;puente;type;darkblue;nontarget;1;NT;1;3;2;1;Stim1_Set1;1;repeat;13;12;13;0;12;12;12;;;;;;;;;;;;;;;;;;;;;;;106.8712619;107.9408722;107.9408722;107.9408722;107.9408722;107.9408722;107.9408722;107.9408722;107.9408722;['p', 'e', 'n', 't', 'e'];0;pente;C:\2023\REPSWITCH21092023\REPSWITCH_excgange\REPSWITCH_excgange\data/430102_REPSWITCH1_version1_list2_2024-01-18_15h43.56.192_micRespv1l2_recorded\recording_micRespv1l2_2024-01-18_15h45.14.547.wav;110.9690244;;None;110.9690244;110.9690244;110.9690244;110.9690244;110.9690244;110.9690244;[1.3669560989364982, 1.6534293992444873, 1.8348595993593335, 1.9365423992276192, 2.016416799277067];;;;;;430102;1;2024-01-18_15h43.56.192;REPSWITCH1_version1_list2;2022.2.4;143.878267;
REPSWITCH1/PICTURE_178.png;puente;speak;gold;switch;2;T;1;3;2;1;Stim1_Set1;0;None;14;13;14;0;13;13;13;;;;;;;;;;;;;;;;;;;;;;;111.4690839;112.5317043;112.5317043;112.5317043;112.5317043;112.5317043;112.5317043;112.5317043;112.5317043;None;0;;C:\2023\REPSWITCH21092023\REPSWITCH_excgange\REPSWITCH_excgange\data/430102_REPSWITCH1_version1_list2_2024-01-18_15h43.56.192_micRespv1l2_recorded\recording_micRespv1l2_2024-01-18_15h45.19.138.wav;115.5529692;116.0530226;None;115.5529692;115.5529692;115.5529692;115.5529692;115.5529692;115.5529692;;;;;;;430102;1;2024-01-18_15h43.56.192;REPSWITCH1_version1_list2;2022.2.4;143.878267;
REPSWITCH1/PICTURE_128.png;muñeca;speak;gold;nontarget;2;NT;1;3;2;1;Stim4_Set1;1;repeat;15;14;15;0;14;14;14;;;;;;;;;;;;;;;;;;;;;;;116.0530226;117.2823587;117.2823587;117.2823587;117.2823587;117.2823587;117.2823587;117.2823587;117.2823587;None;0;;C:\2023\REPSWITCH21092023\REPSWITCH_excgange\REPSWITCH_excgange\data/430102_REPSWITCH1_version1_list2_2024-01-18_15h43.56.192_micRespv1l2_recorded\recording_micRespv1l2_2024-01-18_15h45.23.889.wav;120.3105225;;None;120.3105225;120.3105225;120.3105225;120.3105225;120.3105225;120.3105225;;;;;;;430102;1;2024-01-18_15h43.56.192;REPSWITCH1_version1_list2;2022.2.4;143.878267;
REPSWITCH1/PICTURE_128.png;muñeca;type;darkblue;switch;1;T;1;3;2;1;Stim4_Set1;0;None;16;15;16;0;15;15;15;;;;;;;;;;;;;;;;;;;;;;;120.8105876;121.8801488;121.8801488;121.8801488;121.8801488;121.8801488;121.8801488;121.8801488;121.8801488;['m', 'u', 'ñ', 'e', 'c', 'a'];0;muñeca;C:\2023\REPSWITCH21092023\REPSWITCH_excgange\REPSWITCH_excgange\data/430102_REPSWITCH1_version1_list2_2024-01-18_15h43.56.192_micRespv1l2_recorded\recording_micRespv1l2_2024-01-18_15h45.28.487.wav;124.9013636;125.4014701;None;124.9013636;124.9013636;124.9013636;124.9013636;124.9013636;124.9013636;[1.311425100080669, 1.4898284003138542, 2.000638799741864, 2.106284299865365, 2.448185999877751, 2.5727717000991106];;;;;;430102;1;2024-01-18_15h43.56.192;REPSWITCH1_version1_list2;2022.2.4;143.878267;
REPSWITCH1/PICTURE_319.png;vaca;speak;gold;filler;2;F;1;3;2;1;Stim1_Set4;1;switch;17;16;17;0;16;16;16;;;;;;;;;;;;;;;;;;;;;;;125.4014701;126.4502791;126.4502791;126.4502791;126.4502791;126.4502791;126.4502791;126.4502791;126.4502791;None;0;;C:\2023\REPSWITCH21092023\REPSWITCH_excgange\REPSWITCH_excgange\data/430102_REPSWITCH1_version1_list2_2024-01-18_15h43.56.192_micRespv1l2_recorded\recording_micRespv1l2_2024-01-18_15h45.33.057.wav;129.4783986;;None;129.4783986;129.4783986;129.4783986;129.4783986;129.4783986;129.4783986;;;;;;;430102;1;2024-01-18_15h43.56.192;REPSWITCH1_version1_list2;2022.2.4;143.878267;
REPSWITCH1/PICTURE_728.png;pulpo;speak;gold;filler;2;F;1;3;2;1;Stim8_Set4;0;None;18;17;18;0;17;17;17;;;;;;;;;;;;;;;;;;;;;;;129.9784317;131.159179;131.159179;131.159179;131.159179;131.159179;131.159179;131.159179;131.159179;None;0;;C:\2023\REPSWITCH21092023\REPSWITCH_excgange\REPSWITCH_excgange\data/430102_REPSWITCH1_version1_list2_2024-01-18_15h43.56.192_micRespv1l2_recorded\recording_micRespv1l2_2024-01-18_15h45.37.765.wav;134.1803646;134.6804428;None;134.1803646;134.1803646;134.1803646;134.1803646;134.1803646;134.1803646;;;;;;;430102;1;2024-01-18_15h43.56.192;REPSWITCH1_version1_list2;2022.2.4;143.878267;
REPSWITCH1/PICTURE_381.png;fresa;type;darkblue;nontarget;1;NT;1;3;2;1;Stim2_Set1;1;switch;19;18;19;0;18;18;18;;;;;;;;;;;;;;;;;;;;;;;134.6804428;135.694481;135.694481;135.694481;135.694481;135.694481;135.694481;135.694481;135.694481;['f', 'r', 'e', 's', 'a'];0;fresa;C:\2023\REPSWITCH21092023\REPSWITCH_excgange\REPSWITCH_excgange\data/430102_REPSWITCH1_version1_list2_2024-01-18_15h43.56.192_micRespv1l2_recorded\recording_micRespv1l2_2024-01-18_15h45.42.300.wav;138.7156895;139.2157477;None;138.7156895;138.7156895;138.7156895;138.7156895;138.7156895;138.7156895;[1.233301100321114, 2.223540199920535, 2.378007300198078, 2.5205666003748775, 2.6082522002980113];;;;;;430102;1;2024-01-18_15h43.56.192;REPSWITCH1_version1_list2;2022.2.4;143.878267;
REPSWITCH1/PICTURE_381.png;fresa;type;darkblue;repeat;1;T;1;3;2;1;Stim2_Set1;0;None;20;19;20;0;19;19;19;;;;;;;;;;;;;;;;;;;;;;;139.2157477;140.3617367;140.3617367;140.3617367;140.3617367;140.3617367;140.3617367;140.3617367;140.3617367;['f', 'r', 'e', 's', 'a'];0;fresa;C:\2023\REPSWITCH21092023\REPSWITCH_excgange\REPSWITCH_excgange\data/430102_REPSWITCH1_version1_list2_2024-01-18_15h43.56.192_micRespv1l2_recorded\recording_micRespv1l2_2024-01-18_15h45.46.969.wav;143.3899042;;None;143.3899042;143.3899042;143.3899042;143.3899042;143.3899042;143.3899042;[1.5089690992608666, 1.7033185996115208, 1.892441999167204, 2.030972898937762, 2.1539127994328737];;;;;;430102;1;2024-01-18_15h43.56.192;REPSWITCH1_version1_list2;2022.2.4;143.878267;
REPSWITCH1/PICTURE_8.png;pierna;speak;gold;filler;2;F;1;3;2;1;Stim3_Set4;0;None;21;20;21;0;20;20;20;;;;;;;;;;;;;;;;;;;;;;;143.8900775;144.9526234;144.9526234;144.9526234;144.9526234;144.9526234;144.9526234;144.9526234;144.9526234;None;0;;C:\2023\REPSWITCH21092023\REPSWITCH_excgange\REPSWITCH_excgange\data/430102_REPSWITCH1_version1_list2_2024-01-18_15h43.56.192_micRespv1l2_recorded\recording_micRespv1l2_2024-01-18_15h45.51.560.wav;147.9807812;;None;147.9807812;147.9807812;147.9807812;147.9807812;147.9807812;147.9807812;;;;;;;430102;1;2024-01-18_15h43.56.192;REPSWITCH1_version1_list2;2022.2.4;143.878267;
REPSWITCH1/PICTURE_48.png;bombero;speak;gold;filler;2;F;1;3;2;1;Stim7_Set4;0;None;22;21;22;0;21;21;21;;;;;;;;;;;;;;;;;;;;;;;148.4809201;149.5713264;149.5713264;149.5713264;149.5713264;149.5713264;149.5713264;149.5713264;149.5713264;None;0;;C:\2023\REPSWITCH21092023\REPSWITCH_excgange\REPSWITCH_excgange\data/430102_REPSWITCH1_version1_list2_2024-01-18_15h43.56.192_micRespv1l2_recorded\recording_micRespv1l2_2024-01-18_15h45.56.177.wav;152.5994987;;None;152.5994987;152.5994987;152.5994987;152.5994987;152.5994987;152.5994987;;;;;;;430102;1;2024-01-18_15h43.56.192;REPSWITCH1_version1_list2;2022.2.4;143.878267;
REPSWITCH1/PICTURE_135.png;traje;type;darkblue;nontarget;1;NT;1;3;2;1;Stim3_Set1;1;switch;23;22;23;0;22;22;22;;;;;;;;;;;;;;;;;;;;;;;153.0995307;154.1621903;154.1621903;154.1621903;154.1621903;154.1621903;154.1621903;154.1621903;154.1621903;['t', 'r', 'j', 'backspace', 'a', 'j', 'e'];0;traje;C:\2023\REPSWITCH21092023\REPSWITCH_excgange\REPSWITCH_excgange\data/430102_REPSWITCH1_version1_list2_2024-01-18_15h43.56.192_micRespv1l2_recorded\recording_micRespv1l2_2024-01-18_15h46.00.769.wav;157.1903589;;None;157.1903589;157.1903589;157.1903589;157.1903589;157.1903589;157.1903589;[1.0625138999894261, 1.128638199530542, 1.3933013994246721, 1.9211029997095466, 2.0127918999642134, 2.2110109999775887, 2.4023745991289616];;;;;;430102;1;2024-01-18_15h43.56.192;REPSWITCH1_version1_list2;2022.2.4;143.878267;
REPSWITCH1/PICTURE_135.png;traje;type;darkblue;repeat;1;T;1;3;2;1;Stim3_Set1;0;None;24;23;24;0;23;23;23;;;;;;;;;;;;;;;;;;;;;;;157.6903799;158.7670303;158.7670303;158.7670303;158.7670303;158.7670303;158.7670303;158.7670303;158.7670303;['t', 'r', 'a', 'j', 'e'];0;traje;C:\2023\REPSWITCH21092023\REPSWITCH_excgange\REPSWITCH_excgange\data/430102_REPSWITCH1_version1_list2_2024-01-18_15h43.56.192_micRespv1l2_recorded\recording_micRespv1l2_2024-01-18_15h46.05.373.wav;161.7882518;162.2882368;None;161.7882518;161.7882518;161.7882518;161.7882518;161.7882518;161.7882518;[1.1826994996517897, 1.28731759916991, 1.4749883990734816, 1.8216440994292498, 1.9192351996898651];;;;;;430102;1;2024-01-18_15h43.56.192;REPSWITCH1_version1_list2;2022.2.4;143.878267;
REPSWITCH1/PICTURE_19.png;pavo;type;darkblue;nontarget;1;NT;1;3;2;1;Stim5_Set1;1;repeat;25;24;25;0;24;24;24;;;;;;;;;;;;;;;;;;;;;;;162.2882368;163.4758896;163.4758896;163.4758896;163.4758896;163.4758896;163.4758896;163.4758896;163.4758896;['p', 'a', 'v', 'o'];0;pavo;C:\2023\REPSWITCH21092023\REPSWITCH_excgange\REPSWITCH_excgange\data/430102_REPSWITCH1_version1_list2_2024-01-18_15h43.56.192_micRespv1l2_recorded\recording_micRespv1l2_2024-01-18_15h46.10.083.wav;166.4971691;166.9971852;None;166.4971691;166.4971691;166.4971691;166.4971691;166.4971691;166.4971691;[1.5583939999341965, 1.64808479975909, 1.940110499970615, 2.096589700318873];;;;;;430102;1;2024-01-18_15h43.56.192;REPSWITCH1_version1_list2;2022.2.4;143.878267;
REPSWITCH1/PICTURE_19.png;pavo;speak;gold;switch;2;T;1;3;2;1;Stim5_Set1;0;None;26;25;26;0;25;25;25;;;;;;;;;;;;;;;;;;;;;;;166.9971852;168.0251104;168.0251104;168.0251104;168.0251104;168.0251104;168.0251104;168.0251104;168.0251104;None;0;;C:\2023\REPSWITCH21092023\REPSWITCH_excgange\REPSWITCH_excgange\data/430102_REPSWITCH1_version1_list2_2024-01-18_15h43.56.192_micRespv1l2_recorded\recording_micRespv1l2_2024-01-18_15h46.14.632.wav;171.0533343;;None;171.0533343;171.0533343;171.0533343;171.0533343;171.0533343;171.0533343;;;;;;;430102;1;2024-01-18_15h43.56.192;REPSWITCH1_version1_list2;2022.2.4;143.878267;
REPSWITCH1/PICTURE_142.png;vaso;speak;gold;filler;2;F;2;3;2;1;Stim7_Set1;0;None;27;26;27;0;26;26;26;;;;;;;;;;;;;;;;;;;;;;;171.5533387;172.6299385;172.6299385;172.6299385;172.6299385;172.6299385;172.6299385;172.6299385;172.6299385;None;0;;C:\2023\REPSWITCH21092023\REPSWITCH_excgange\REPSWITCH_excgange\data/430102_REPSWITCH1_version1_list2_2024-01-18_15h43.56.192_micRespv1l2_recorded\recording_micRespv1l2_2024-01-18_15h46.19.236.wav;175.6511059;176.1511713;None;175.6511059;175.6511059;175.6511059;175.6511059;175.6511059;175.6511059;;;;;;;430102;1;2024-01-18_15h43.56.192;REPSWITCH1_version1_list2;2022.2.4;143.878267;
REPSWITCH1/PICTURE_135.png;traje;type;darkblue;filler;1;F;2;3;2;1;Stim3_Set1;0;None;28;27;28;0;27;27;27;;;;;;;;;;;;;;;;;;;;;;;176.1511713;177.3388641;177.3388641;177.3388641;177.3388641;177.3388641;177.3388641;177.3388641;177.3388641;['t', 'r', 'a', 'j', 'e'];0;traje;C:\2023\REPSWITCH21092023\REPSWITCH_excgange\REPSWITCH_excgange\data/430102_REPSWITCH1_version1_list2_2024-01-18_15h43.56.192_micRespv1l2_recorded\recording_micRespv1l2_2024-01-18_15h46.23.945.wav;180.3600131;180.8601121;None;180.3600131;180.3600131;180.3600131;180.3600131;180.3600131;180.3600131;[0.8778123995289207, 0.9375893995165825, 1.0579023994505405, 1.2338036997243762, 1.3616927992552519];;;;;;430102;1;2024-01-18_15h43.56.192;REPSWITCH1_version1_list2;2022.2.4;143.878267;
REPSWITCH1/PICTURE_446.png;cerdo;type;darkblue;nontarget;1;NT;2;3;2;1;Stim7_Set2;0;None;29;28;29;0;28;28;28;;;;;;;;;;;;;;;;;;;;;;;180.8601121;182.0200084;182.0200084;182.0200084;182.0200084;182.0200084;182.0200084;182.0200084;182.0200084;['c', 'e', 'r', 'd', 'o'];0;cerdo;C:\2023\REPSWITCH21092023\REPSWITCH_excgange\REPSWITCH_excgange\data/430102_REPSWITCH1_version1_list2_2024-01-18_15h43.56.192_micRespv1l2_recorded\recording_micRespv1l2_2024-01-18_15h46.28.626.wav;185.0412246;185.5412717;None;185.0412246;185.0412246;185.0412246;185.0412246;185.0412246;185.0412246;[1.0674449000507593, 1.2737187994644046, 1.3823824999853969, 1.56506949942559, 1.9699337994679809];;;;;;430102;1;2024-01-18_15h43.56.192;REPSWITCH1_version1_list2;2022.2.4;143.878267;
REPSWITCH1/PICTURE_446.png;cerdo;type;darkblue;repeat;1;T;2;3;2;1;Stim7_Set2;0;None;30;29;30;0;29;29;29;;;;;;;;;;;;;;;;;;;;;;;185.5412717;186.6872817;186.6872817;186.6872817;186.6872817;186.6872817;186.6872817;186.6872817;186.6872817;['c', 'e', 'r', 'd', 'o'];0;cerdo;C:\2023\REPSWITCH21092023\REPSWITCH_excgange\REPSWITCH_excgange\data/430102_REPSWITCH1_version1_list2_2024-01-18_15h43.56.192_micRespv1l2_recorded\recording_micRespv1l2_2024-01-18_15h46.33.293.wav;189.7085038;190.2085571;None;189.7085038;189.7085038;189.7085038;189.7085038;189.7085038;189.7085038;[1.0139563996344805, 1.2073144000023603, 1.2921139998361468, 1.4256661999970675, 1.5097030997276306];;;;;;430102;1;2024-01-18_15h43.56.192;REPSWITCH1_version1_list2;2022.2.4;143.878267;
REPSWITCH1/PICTURE_16.png;cazador;speak;gold;filler;2;F;2;3;2;1;Stim6_Set1;0;None;31;30;31;0;30;30;30;;;;;;;;;;;;;;;;;;;;;;;190.2085571;191.243427;191.243427;191.243427;191.243427;191.243427;191.243427;191.243427;191.243427;None;0;;C:\2023\REPSWITCH21092023\REPSWITCH_excgange\REPSWITCH_excgange\data/430102_REPSWITCH1_version1_list2_2024-01-18_15h43.56.192_micRespv1l2_recorded\recording_micRespv1l2_2024-01-18_15h46.37.850.wav;194.2715962;194.7716443;None;194.2715962;194.2715962;194.2715962;194.2715962;194.2715962;194.2715962;;;;;;;430102;1;2024-01-18_15h43.56.192;REPSWITCH1_version1_list2;2022.2.4;143.878267;
REPSWITCH1/PICTURE_552.png;manzana;type;darkblue;nontarget;1;NT;2;3;2;1;Stim6_Set2;1;switch;32;31;32;0;31;31;31;;;;;;;;;;;;;;;;;;;;;;;194.7716443;195.8065696;195.8065696;195.8065696;195.8065696;195.8065696;195.8065696;195.8065696;195.8065696;['m', 'a', 'n', 'z', 'a', 'n', 'a'];0;manzana;C:\2023\REPSWITCH21092023\REPSWITCH_excgange\REPSWITCH_excgange\data/430102_REPSWITCH1_version1_list2_2024-01-18_15h43.56.192_micRespv1l2_recorded\recording_micRespv1l2_2024-01-18_15h46.42.413.wav;198.8277057;199.3277823;None;198.8277057;198.8277057;198.8277057;198.8277057;198.8277057;198.8277057;[1.0865004993975163, 1.1742007993161678, 1.3078239997848868, 1.3815713999792933, 1.5343563994392753, 1.6330944001674652, 1.728711899369955];;;;;;430102;1;2024-01-18_15h43.56.192;REPSWITCH1_version1_list2;2022.2.4;143.878267;
REPSWITCH1/PICTURE_552.png;manzana;type;darkblue;repeat;1;T;2;3;2;1;Stim6_Set2;0;None;33;32;33;0;32;32;32;;;;;;;;;;;;;;;;;;;;;;;199.3277823;200.4113077;200.4113077;200.4113077;200.4113077;200.4113077;200.4113077;200.4113077;200.4113077;['m', 'a', 'n', 'z', 'a', 'n', 'a'];0;manzana;C:\2023\REPSWITCH21092023\REPSWITCH_excgange\REPSWITCH_excgange\data/430102_REPSWITCH1_version1_list2_2024-01-18_15h43.56.192_micRespv1l2_recorded\recording_micRespv1l2_2024-01-18_15h46.47.017.wav;203.4394227;;None;203.4394227;203.4394227;203.4394227;203.4394227;203.4394227;203.4394227;[0.6251159999519587, 0.7088255994021893, 0.8234789995476604, 0.9171297000721097, 1.055676099844277, 1.1535011995583773, 1.2342328997328877];;;;;;430102;1;2024-01-18_15h43.56.192;REPSWITCH1_version1_list2;2022.2.4;143.878267;
REPSWITCH1/PICTURE_517.png;cuerda;type;darkblue;nontarget;1;NT;2;3;2;1;Stim4_Set2;0;None;34;33;34;0;33;33;33;;;;;;;;;;;;;;;;;;;;;;;203.9395264;205.0368925;205.0368925;205.0368925;205.0368925;205.0368925;205.0368925;205.0368925;205.0368925;['c', 'u', 'e', 'r', 'd', 'a'];0;cuerda;C:\2023\REPSWITCH21092023\REPSWITCH_excgange\REPSWITCH_excgange\data/430102_REPSWITCH1_version1_list2_2024-01-18_15h43.56.192_micRespv1l2_recorded\recording_micRespv1l2_2024-01-18_15h46.51.644.wav;208.0650552;;None;208.0650552;208.0650552;208.0650552;208.0650552;208.0650552;208.0650552;[1.0400751000270247, 1.2354028997942805, 1.3310871999710798, 1.365943199954927, 1.5074540004134178, 1.6370654003694654];;;;;;430102;1;2024-01-18_15h43.56.192;REPSWITCH1_version1_list2;2022.2.4;143.878267;
REPSWITCH1/PICTURE_517.png;cuerda;speak;gold;switch;2;T;2;3;2;1;Stim4_Set2;0;None;35;34;35;0;34;34;34;;;;;;;;;;;;;;;;;;;;;;;208.565126;209.6972106;209.6972106;209.6972106;209.6972106;209.6972106;209.6972106;209.6972106;209.6972106;None;0;;C:\2023\REPSWITCH21092023\REPSWITCH_excgange\REPSWITCH_excgange\data/430102_REPSWITCH1_version1_list2_2024-01-18_15h43.56.192_micRespv1l2_recorded\recording_micRespv1l2_2024-01-18_15h46.56.304.wav;212.7254152;;None;212.7254152;212.7254152;212.7254152;212.7254152;212.7254152;212.7254152;;;;;;;430102;1;2024-01-18_15h43.56.192;REPSWITCH1_version1_list2;2022.2.4;143.878267;
REPSWITCH1/PICTURE_169.png;espalda;speak;gold;filler;2;F;2;3;2;1;Stim8_Set1;1;repeat;36;35;36;0;35;35;35;;;;;;;;;;;;;;;;;;;;;;;213.2254729;214.343706;214.343706;214.343706;214.343706;214.343706;214.343706;214.343706;214.343706;None;0;;C:\2023\REPSWITCH21092023\REPSWITCH_excgange\REPSWITCH_excgange\data/430102_REPSWITCH1_version1_list2_2024-01-18_15h43.56.192_micRespv1l2_recorded\recording_micRespv1l2_2024-01-18_15h47.00.950.wav;217.3648598;217.8650292;None;217.3648598;217.3648598;217.3648598;217.3648598;217.3648598;217.3648598;;;;;;;430102;1;2024-01-18_15h43.56.192;REPSWITCH1_version1_list2;2022.2.4;143.878267;
REPSWITCH1/PICTURE_30.png;granja;speak;gold;nontarget;2;NT;2;3;2;1;Stim5_Set2;1;repeat;37;36;37;0;36;36;36;;;;;;;;;;;;;;;;;;;;;;;217.8650292;219.0386922;219.0386922;219.0386922;219.0386922;219.0386922;219.0386922;219.0386922;219.0386922;None;0;;C:\2023\REPSWITCH21092023\REPSWITCH_excgange\REPSWITCH_excgange\data/430102_REPSWITCH1_version1_list2_2024-01-18_15h43.56.192_micRespv1l2_recorded\recording_micRespv1l2_2024-01-18_15h47.05.646.wav;222.0668938;222.5670091;None;222.0668938;222.0668938;222.0668938;222.0668938;222.0668938;222.0668938;;;;;;;430102;1;2024-01-18_15h43.56.192;REPSWITCH1_version1_list2;2022.2.4;143.878267;
REPSWITCH1/PICTURE_30.png;granja;type;darkblue;switch;1;T;2;3;2;1;Stim5_Set2;0;None;38;37;38;0;37;37;37;;;;;;;;;;;;;;;;;;;;;;;222.5670091;223.6435115;223.6435115;223.6435115;223.6435115;223.6435115;223.6435115;223.6435115;223.6435115;['g', 'r', 'a', 'n', 'j', 'a'];0;granja;C:\2023\REPSWITCH21092023\REPSWITCH_excgange\REPSWITCH_excgange\data/430102_REPSWITCH1_version1_list2_2024-01-18_15h43.56.192_micRespv1l2_recorded\recording_micRespv1l2_2024-01-18_15h47.10.250.wav;226.6716388;;None;226.6716388;226.6716388;226.6716388;226.6716388;226.6716388;226.6716388;[0.9720380995422602, 1.0596767999231815, 1.1563559994101524, 1.374621999450028, 1.5639886995777488, 1.6596665997058153];;;;;;430102;1;2024-01-18_15h43.56.192;REPSWITCH1_version1_list2;2022.2.4;143.878267;
REPSWITCH1/PICTURE_128.png;muñeca;type;darkblue;filler;1;F;2;3;2;1;Stim4_Set1;1;repeat;39;38;39;0;38;38;38;;;;;;;;;;;;;;;;;;;;;;;227.1717842;228.206604;228.206604;228.206604;228.206604;228.206604;228.206604;228.206604;228.206604;['m', 'u', 'ñ', 'e', 'c', 'a'];0;muñeca;C:\2023\REPSWITCH21092023\REPSWITCH_excgange\REPSWITCH_excgange\data/430102_REPSWITCH1_version1_list2_2024-01-18_15h43.56.192_micRespv1l2_recorded\recording_micRespv1l2_2024-01-18_15h47.14.813.wav;231.2347219;;None;231.2347219;231.2347219;231.2347219;231.2347219;231.2347219;231.2347219;[1.0084232995286584, 1.276587899774313, 1.7884378992021084, 1.8849847996607423, 2.0637050000950694, 2.181310299783945];;;;;;430102;1;2024-01-18_15h43.56.192;REPSWITCH1_version1_list2;2022.2.4;143.878267;
REPSWITCH1/PICTURE_199.png;falda;type;darkblue;nontarget;1;NT;2;3;2;1;Stim8_Set2;0;None;40;39;40;0;39;39;39;;;;;;;;;;;;;;;;;;;;;;;231.7348069;232.7488623;232.7488623;232.7488623;232.7488623;232.7488623;232.7488623;232.7488623;232.7488623;['f', 'a', 'l', 'd', 'a'];0;falda;C:\2023\REPSWITCH21092023\REPSWITCH_excgange\REPSWITCH_excgange\data/430102_REPSWITCH1_version1_list2_2024-01-18_15h43.56.192_micRespv1l2_recorded\recording_micRespv1l2_2024-01-18_15h47.19.355.wav;235.776999;;None;235.776999;235.776999;235.776999;235.776999;235.776999;235.776999;[1.2545262994244695, 1.3801164990291, 1.4887506989762187, 1.6113350996747613, 1.692061198875308];;;;;;430102;1;2024-01-18_15h43.56.192;REPSWITCH1_version1_list2;2022.2.4;143.878267;
REPSWITCH1/PICTURE_199.png;falda;speak;gold;switch;2;T;2;3;2;1;Stim8_Set2;0;None;41;40;41;0;40;40;40;;;;;;;;;;;;;;;;;;;;;;;236.2770918;237.3467418;237.3467418;237.3467418;237.3467418;237.3467418;237.3467418;237.3467418;237.3467418;None;0;;C:\2023\REPSWITCH21092023\REPSWITCH_excgange\REPSWITCH_excgange\data/430102_REPSWITCH1_version1_list2_2024-01-18_15h43.56.192_micRespv1l2_recorded\recording_micRespv1l2_2024-01-18_15h47.23.953.wav;240.3749062;;None;240.3749062;240.3749062;240.3749062;240.3749062;240.3749062;240.3749062;;;;;;;430102;1;2024-01-18_15h43.56.192;REPSWITCH1_version1_list2;2022.2.4;143.878267;
REPSWITCH1/PICTURE_152.png;caracol;speak;gold;nontarget;2;NT;2;3;2;1;Stim2_Set2;1;switch;42;41;42;0;41;41;41;;;;;;;;;;;;;;;;;;;;;;;240.8749132;241.9722833;241.9722833;241.9722833;241.9722833;241.9722833;241.9722833;241.9722833;241.9722833;None;0;;C:\2023\REPSWITCH21092023\REPSWITCH_excgange\REPSWITCH_excgange\data/430102_REPSWITCH1_version1_list2_2024-01-18_15h43.56.192_micRespv1l2_recorded\recording_micRespv1l2_2024-01-18_15h47.28.579.wav;244.9935099;245.4936459;None;244.9935099;244.9935099;244.9935099;244.9935099;244.9935099;244.9935099;;;;;;;430102;1;2024-01-18_15h43.56.192;REPSWITCH1_version1_list2;2022.2.4;143.878267;
REPSWITCH1/PICTURE_152.png;caracol;speak;gold;repeat;2;T;2;3;2;1;Stim2_Set2;0;None;43;42;43;0;42;42;42;;;;;;;;;;;;;;;;;;;;;;;245.4936459;246.5631636;246.5631636;246.5631636;246.5631636;246.5631636;246.5631636;246.5631636;246.5631636;None;0;;C:\2023\REPSWITCH21092023\REPSWITCH_excgange\REPSWITCH_excgange\data/430102_REPSWITCH1_version1_list2_2024-01-18_15h43.56.192_micRespv1l2_recorded\recording_micRespv1l2_2024-01-18_15h47.33.169.wav;249.5843778;250.0844423;None;249.5843778;249.5843778;249.5843778;249.5843778;249.5843778;249.5843778;;;;;;;430102;1;2024-01-18_15h43.56.192;REPSWITCH1_version1_list2;2022.2.4;143.878267;
REPSWITCH1/PICTURE_381.png;fresa;type;darkblue;filler;1;F;2;3;2;1;Stim2_Set1;0;None;44;43;44;0;43;43;43;;;;;;;;;;;;;;;;;;;;;;;250.0844423;251.1471155;251.1471155;251.1471155;251.1471155;251.1471155;251.1471155;251.1471155;251.1471155;['f', 'e', 's', 'backspace', 'backspace', 'r', 'e', 's', 'a'];0;fresa;C:\2023\REPSWITCH21092023\REPSWITCH_excgange\REPSWITCH_excgange\data/430102_REPSWITCH1_version1_list2_2024-01-18_15h43.56.192_micRespv1l2_recorded\recording_micRespv1l2_2024-01-18_15h47.37.754.wav;254.1752688;;None;254.1752688;254.1752688;254.1752688;254.1752688;254.1752688;254.1752688;[0.9977066004648805, 1.325861000455916, 1.589193600229919, 2.1646734001114964, 2.3503344003111124, 2.4740466997027397, 2.655340200290084, 2.839719300158322, 2.9373241998255253];;;;;;430102;1;2024-01-18_15h43.56.192;REPSWITCH1_version1_list2;2022.2.4;143.878267;
REPSWITCH1/PICTURE_175.png;pintor;speak;gold;nontarget;2;NT;2;3;2;1;Stim1_Set2;1;switch;45;44;45;0;44;44;44;;;;;;;;;;;;;;;;;;;;;;;254.6753641;255.7657691;255.7657691;255.7657691;255.7657691;255.7657691;255.7657691;255.7657691;255.7657691;None;0;;C:\2023\REPSWITCH21092023\REPSWITCH_excgange\REPSWITCH_excgange\data/430102_REPSWITCH1_version1_list2_2024-01-18_15h43.56.192_micRespv1l2_recorded\recording_micRespv1l2_2024-01-18_15h47.42.373.wav;258.7939189;;None;258.7939189;258.7939189;258.7939189;258.7939189;258.7939189;258.7939189;;;;;;;430102;1;2024-01-18_15h43.56.192;REPSWITCH1_version1_list2;2022.2.4;143.878267;
REPSWITCH1/PICTURE_175.png;pintor;speak;gold;repeat;2;T;2;3;2;1;Stim1_Set2;0;None;46;45;46;0;45;45;45;;;;;;;;;;;;;;;;;;;;;;;259.2939798;260.349755;260.349755;260.349755;260.349755;260.349755;260.349755;260.349755;260.349755;None;0;;C:\2023\REPSWITCH21092023\REPSWITCH_excgange\REPSWITCH_excgange\data/430102_REPSWITCH1_version1_list2_2024-01-18_15h43.56.192_micRespv1l2_recorded\recording_micRespv1l2_2024-01-18_15h47.46.956.wav;263.3709281;263.8709929;None;263.3709281;263.3709281;263.3709281;263.3709281;263.3709281;263.3709281;;;;;;;430102;1;2024-01-18_15h43.56.192;REPSWITCH1_version1_list2;2022.2.4;143.878267;
REPSWITCH1/PICTURE_178.png;puente;type;darkblue;filler;1;F;2;3;2;1;Stim1_Set1;0;None;47;46;47;0;46;46;46;;;;;;;;;;;;;;;;;;;;;;;263.8709929;265.0239609;265.0239609;265.0239609;265.0239609;265.0239609;265.0239609;265.0239609;265.0239609;['p', 'u', 'e', 'n', 't', 'e'];0;puente;C:\2023\REPSWITCH21092023\REPSWITCH_excgange\REPSWITCH_excgange\data/430102_REPSWITCH1_version1_list2_2024-01-18_15h43.56.192_micRespv1l2_recorded\recording_micRespv1l2_2024-01-18_15h47.51.630.wav;268.045121;268.5452095;None;268.045121;268.045121;268.045121;268.045121;268.045121;268.045121;[0.9892993001267314, 1.2355037005618215, 1.380354500375688, 1.5193853005766869, 1.6676679998636246, 1.7433571005240083];;;;;;430102;1;2024-01-18_15h43.56.192;REPSWITCH1_version1_list2;2022.2.4;143.878267;
REPSWITCH1/PICTURE_19.png;pavo;speak;gold;filler;2;F;2;3;2;1;Stim5_Set1;0;None;48;47;48;0;47;47;47;;;;;;;;;;;;;;;;;;;;;;;268.5452095;269.6286648;269.6286648;269.6286648;269.6286648;269.6286648;269.6286648;269.6286648;269.6286648;None;0;;C:\2023\REPSWITCH21092023\REPSWITCH_excgange\REPSWITCH_excgange\data/430102_REPSWITCH1_version1_list2_2024-01-18_15h43.56.192_micRespv1l2_recorded\recording_micRespv1l2_2024-01-18_15h47.56.235.wav;272.6498781;273.1499998;None;272.6498781;272.6498781;272.6498781;272.6498781;272.6498781;272.6498781;;;;;;;430102;1;2024-01-18_15h43.56.192;REPSWITCH1_version1_list2;2022.2.4;143.878267;
REPSWITCH1/PICTURE_264.png;mano;speak;gold;nontarget;2;NT;2;3;2;1;Stim3_Set2;1;repeat;49;48;49;0;48;48;48;;;;;;;;;;;;;;;;;;;;;;;273.1499998;274.1987008;274.1987008;274.1987008;274.1987008;274.1987008;274.1987008;274.1987008;274.1987008;None;0;;C:\2023\REPSWITCH21092023\REPSWITCH_excgange\REPSWITCH_excgange\data/430102_REPSWITCH1_version1_list2_2024-01-18_15h43.56.192_micRespv1l2_recorded\recording_micRespv1l2_2024-01-18_15h48.00.805.wav;277.2199234;277.7200188;None;277.2199234;277.2199234;277.2199234;277.2199234;277.2199234;277.2199234;;;;;;;430102;1;2024-01-18_15h43.56.192;REPSWITCH1_version1_list2;2022.2.4;143.878267;
REPSWITCH1/PICTURE_264.png;mano;type;darkblue;switch;1;T;2;3;2;1;Stim3_Set2;0;None;50;49;50;0;49;49;49;;;;;;;;;;;;;;;;;;;;;;;277.7200188;278.7687502;278.7687502;278.7687502;278.7687502;278.7687502;278.7687502;278.7687502;278.7687502;['m', 'a', 'n', 'o'];0;mano;C:\2023\REPSWITCH21092023\REPSWITCH_excgange\REPSWITCH_excgange\data/430102_REPSWITCH1_version1_list2_2024-01-18_15h43.56.192_micRespv1l2_recorded\recording_micRespv1l2_2024-01-18_15h48.05.376.wav;281.796945;;None;281.796945;281.796945;281.796945;281.796945;281.796945;281.796945;[0.9435850996524096, 1.2850049994885921, 1.4632150996476412, 1.6346329990774393];;;;;;430102;1;2024-01-18_15h43.56.192;REPSWITCH1_version1_list2;2022.2.4;143.878267;
REPSWITCH1/PICTURE_446.png;cerdo;type;darkblue;filler;1;F;3;3;2;1;Stim7_Set2;0;None;51;50;51;0;50;50;50;;;;;;;;;;;;;;;;;;;;;;;282.2969937;283.4429724;283.4429724;283.4429724;283.4429724;283.4429724;283.4429724;283.4429724;283.4429724;['c', 'e', 'r', 'd', 'o'];0;cerdo;C:\2023\REPSWITCH21092023\REPSWITCH_excgange\REPSWITCH_excgange\data/430102_REPSWITCH1_version1_list2_2024-01-18_15h43.56.192_micRespv1l2_recorded\recording_micRespv1l2_2024-01-18_15h48.10.049.wav;286.4641837;286.9642908;space;286.4641837;286.4641837;286.4641837;286.4641837;286.4641837;286.4641837;[1.0235476000234485, 1.2557113002985716, 1.3190892999991775, 1.5018540006130934, 1.6394982999190688];286.9642908;286.9642908;2.020734499;;;430102;1;2024-01-18_15h43.56.192;REPSWITCH1_version1_list2;2022.2.4;143.878267;
REPSWITCH1/PICTURE_235.png;aguja;type;darkblue;nontarget;1;NT;3;3;2;1;Stim4_Set3;1;repeat;52;51;52;0;51;51;51;;;;;;;;;;;;;;;;;;;;;;;288.9923897;290.034116;290.034116;290.034116;290.034116;290.034116;290.034116;290.034116;290.034116;['a', 'g', 'u', 'j', 'a'];0;aguja;C:\2023\REPSWITCH21092023\REPSWITCH_excgange\REPSWITCH_excgange\data/430102_REPSWITCH1_version1_list2_2024-01-18_15h43.56.192_micRespv1l2_recorded\recording_micRespv1l2_2024-01-18_15h48.16.641.wav;293.0554099;293.5554247;None;293.0554099;293.0554099;293.0554099;293.0554099;293.0554099;293.0554099;[0.9164723996073008, 1.12610839959234, 1.3134425999596715, 1.4709863001480699, 1.5517042996361852];;;;;;430102;1;2024-01-18_15h43.56.192;REPSWITCH1_version1_list2;2022.2.4;143.878267;
REPSWITCH1/PICTURE_235.png;aguja;speak;gold;switch;2;T;3;3;2;1;Stim4_Set3;0;None;53;52;53;0;52;52;52;;;;;;;;;;;;;;;;;;;;;;;293.5554247;294.6875447;294.6875447;294.6875447;294.6875447;294.6875447;294.6875447;294.6875447;294.6875447;None;0;;C:\2023\REPSWITCH21092023\REPSWITCH_excgange\REPSWITCH_excgange\data/430102_REPSWITCH1_version1_list2_2024-01-18_15h43.56.192_micRespv1l2_recorded\recording_micRespv1l2_2024-01-18_15h48.21.293.wav;297.7087285;298.2088622;None;297.7087285;297.7087285;297.7087285;297.7087285;297.7087285;297.7087285;;;;;;;430102;1;2024-01-18_15h43.56.192;REPSWITCH1_version1_list2;2022.2.4;143.878267;
REPSWITCH1/PICTURE_552.png;manzana;speak;gold;filler;2;F;3;3;2;1;Stim6_Set2;0;None;54;53;54;0;53;53;53;;;;;;;;;;;;;;;;;;;;;;;298.2088622;299.3131296;299.3131296;299.3131296;299.3131296;299.3131296;299.3131296;299.3131296;299.3131296;None;0;;C:\2023\REPSWITCH21092023\REPSWITCH_excgange\REPSWITCH_excgange\data/430102_REPSWITCH1_version1_list2_2024-01-18_15h43.56.192_micRespv1l2_recorded\recording_micRespv1l2_2024-01-18_15h48.25.919.wav;302.3413669;;None;302.3413669;302.3413669;302.3413669;302.3413669;302.3413669;302.3413669;;;;;;;430102;1;2024-01-18_15h43.56.192;REPSWITCH1_version1_list2;2022.2.4;143.878267;
REPSWITCH1/PICTURE_271.png;conejo;speak;gold;nontarget;2;NT;3;3;2;1;Stim7_Set3;1;repeat;55;54;55;0;54;54;54;;;;;;;;;;;;;;;;;;;;;;;302.8413648;303.9735163;303.9735163;303.9735163;303.9735163;303.9735163;303.9735163;303.9735163;303.9735163;None;0;;C:\2023\REPSWITCH21092023\REPSWITCH_excgange\REPSWITCH_excgange\data/430102_REPSWITCH1_version1_list2_2024-01-18_15h43.56.192_micRespv1l2_recorded\recording_micRespv1l2_2024-01-18_15h48.30.580.wav;306.9946557;307.4947285;None;306.9946557;306.9946557;306.9946557;306.9946557;306.9946557;306.9946557;;;;;;;430102;1;2024-01-18_15h43.56.192;REPSWITCH1_version1_list2;2022.2.4;143.878267;
REPSWITCH1/PICTURE_271.png;conejo;type;darkblue;switch;1;T;3;3;2;1;Stim7_Set3;0;None;56;55;56;0;55;55;55;;;;;;;;;;;;;;;;;;;;;;;307.4947285;308.5713612;308.5713612;308.5713612;308.5713612;308.5713612;308.5713612;308.5713612;308.5713612;['c', 'o', 'n', 'e', 'j', 'o'];0;conejo;C:\2023\REPSWITCH21092023\REPSWITCH_excgange\REPSWITCH_excgange\data/430102_REPSWITCH1_version1_list2_2024-01-18_15h43.56.192_micRespv1l2_recorded\recording_micRespv1l2_2024-01-18_15h48.35.177.wav;311.5994658;;None;311.5994658;311.5994658;311.5994658;311.5994658;311.5994658;311.5994658;[0.9961588997393847, 1.1047925995662808, 1.3021946996450424, 1.40079789981246, 1.5036599999293685, 1.6814053999260068];;;;;;430102;1;2024-01-18_15h43.56.192;REPSWITCH1_version1_list2;2022.2.4;143.878267;
REPSWITCH1/PICTURE_610.png;miel;type;darkblue;nontarget;1;NT;3;3;2;1;Stim2_Set3;1;repeat;57;56;57;0;56;56;56;;;;;;;;;;;;;;;;;;;;;;;312.0995225;313.1830314;313.1830314;313.1830314;313.1830314;313.1830314;313.1830314;313.1830314;313.1830314;['m', 'i', 'e', 'l'];0;miel;C:\2023\REPSWITCH21092023\REPSWITCH_excgange\REPSWITCH_excgange\data/430102_REPSWITCH1_version1_list2_2024-01-18_15h43.56.192_micRespv1l2_recorded\recording_micRespv1l2_2024-01-18_15h48.39.790.wav;316.2111551;;None;316.2111551;316.2111551;316.2111551;316.2111551;316.2111551;316.2111551;[1.233725800178945, 1.396815599873662, 1.5184097001329064, 1.622388799674809];;;;;;430102;1;2024-01-18_15h43.56.192;REPSWITCH1_version1_list2;2022.2.4;143.878267;
REPSWITCH1/PICTURE_610.png;miel;speak;gold;switch;2;T;3;3;2;1;Stim2_Set3;0;None;58;57;58;0;57;57;57;;;;;;;;;;;;;;;;;;;;;;;316.7113059;317.8225292;317.8225292;317.8225292;317.8225292;317.8225292;317.8225292;317.8225292;317.8225292;None;0;;C:\2023\REPSWITCH21092023\REPSWITCH_excgange\REPSWITCH_excgange\data/430102_REPSWITCH1_version1_list2_2024-01-18_15h43.56.192_micRespv1l2_recorded\recording_micRespv1l2_2024-01-18_15h48.44.429.wav;320.8506412;;None;320.8506412;320.8506412;320.8506412;320.8506412;320.8506412;320.8506412;;;;;;;430102;1;2024-01-18_15h43.56.192;REPSWITCH1_version1_list2;2022.2.4;143.878267;
REPSWITCH1/PICTURE_199.png;falda;type;darkblue;filler;1;F;3;3;2;1;Stim8_Set2;0;None;59;58;59;0;58;58;58;;;;;;;;;;;;;;;;;;;;;;;321.3507125;322.3856566;322.3856566;322.3856566;322.3856566;322.3856566;322.3856566;322.3856566;322.3856566;['f', 'a', 'l', 'd', 'a'];0;falda;C:\2023\REPSWITCH21092023\REPSWITCH_excgange\REPSWITCH_excgange\data/430102_REPSWITCH1_version1_list2_2024-01-18_15h43.56.192_micRespv1l2_recorded\recording_micRespv1l2_2024-01-18_15h48.48.992.wav;325.4137418;;None;325.4137418;325.4137418;325.4137418;325.4137418;325.4137418;325.4137418;[1.005201599560678, 1.1676238998770714, 1.2962218998000026, 1.4098397996276617, 1.485938400030136];;;;;;430102;1;2024-01-18_15h43.56.192;REPSWITCH1_version1_list2;2022.2.4;143.878267;
REPSWITCH1/PICTURE_464.png;goma;speak;gold;nontarget;2;NT;3;3;2;1;Stim6_Set3;1;switch;60;59;60;0;59;59;59;;;;;;;;;;;;;;;;;;;;;;;325.9138072;327.0042595;327.0042595;327.0042595;327.0042595;327.0042595;327.0042595;327.0042595;327.0042595;None;0;;C:\2023\REPSWITCH21092023\REPSWITCH_excgange\REPSWITCH_excgange\data/430102_REPSWITCH1_version1_list2_2024-01-18_15h43.56.192_micRespv1l2_recorded\recording_micRespv1l2_2024-01-18_15h48.53.611.wav;330.0324185;;None;330.0324185;330.0324185;330.0324185;330.0324185;330.0324185;330.0324185;;;;;;;430102;1;2024-01-18_15h43.56.192;REPSWITCH1_version1_list2;2022.2.4;143.878267;
REPSWITCH1/PICTURE_464.png;goma;speak;gold;repeat;2;T;3;3;2;1;Stim6_Set3;0;None;61;60;61;0;60;60;60;;;;;;;;;;;;;;;;;;;;;;;330.5325052;331.6160322;331.6160322;331.6160322;331.6160322;331.6160322;331.6160322;331.6160322;331.6160322;None;0;;C:\2023\REPSWITCH21092023\REPSWITCH_excgange\REPSWITCH_excgange\data/430102_REPSWITCH1_version1_list2_2024-01-18_15h43.56.192_micRespv1l2_recorded\recording_micRespv1l2_2024-01-18_15h48.58.222.wav;334.6371591;335.1372634;None;334.6371591;334.6371591;334.6371591;334.6371591;334.6371591;334.6371591;;;;;;;430102;1;2024-01-18_15h43.56.192;REPSWITCH1_version1_list2;2022.2.4;143.878267;
REPSWITCH1/PICTURE_152.png;caracol;type;darkblue;filler;1;F;3;3;2;1;Stim2_Set2;0;None;62;61;62;0;61;61;61;;;;;;;;;;;;;;;;;;;;;;;335.1372634;336.1790779;336.1790779;336.1790779;336.1790779;336.1790779;336.1790779;336.1790779;336.1790779;['c', 'a', 'r', 'a', 'c', 'o', 'l'];0;caracol;C:\2023\REPSWITCH21092023\REPSWITCH_excgange\REPSWITCH_excgange\data/430102_REPSWITCH1_version1_list2_2024-01-18_15h43.56.192_micRespv1l2_recorded\recording_micRespv1l2_2024-01-18_15h49.02.785.wav;339.2003686;339.7003488;None;339.2003686;339.2003686;339.2003686;339.2003686;339.2003686;339.2003686;[1.0617488995194435, 1.2038461994379759, 1.3543369993567467, 1.4270976996049285, 1.6891938000917435, 1.8017514999955893, 1.980155799537897];;;;;;430102;1;2024-01-18_15h43.56.192;REPSWITCH1_version1_list2;2022.2.4;143.878267;
REPSWITCH1/PICTURE_320.png;iglesia;speak;gold;nontarget;2;NT;3;3;2;1;Stim8_Set3;1;switch;63;62;63;0;62;62;62;;;;;;;;;;;;;;;;;;;;;;;339.7003488;340.7977169;340.7977169;340.7977169;340.7977169;340.7977169;340.7977169;340.7977169;340.7977169;None;0;;C:\2023\REPSWITCH21092023\REPSWITCH_excgange\REPSWITCH_excgange\data/430102_REPSWITCH1_version1_list2_2024-01-18_15h43.56.192_micRespv1l2_recorded\recording_micRespv1l2_2024-01-18_15h49.07.405.wav;343.8259243;;None;343.8259243;343.8259243;343.8259243;343.8259243;343.8259243;343.8259243;;;;;;;430102;1;2024-01-18_15h43.56.192;REPSWITCH1_version1_list2;2022.2.4;143.878267;
REPSWITCH1/PICTURE_320.png;iglesia;speak;gold;repeat;2;T;3;3;2;1;Stim8_Set3;0;None;64;63;64;0;63;63;63;;;;;;;;;;;;;;;;;;;;;;;344.325967;345.4025196;345.4025196;345.4025196;345.4025196;345.4025196;345.4025196;345.4025196;345.4025196;None;0;;C:\2023\REPSWITCH21092023\REPSWITCH_excgange\REPSWITCH_excgange\data/430102_REPSWITCH1_version1_list2_2024-01-18_15h43.56.192_micRespv1l2_recorded\recording_micRespv1l2_2024-01-18_15h49.12.009.wav;348.4237023;348.923765;None;348.4237023;348.4237023;348.4237023;348.4237023;348.4237023;348.4237023;;;;;;;430102;1;2024-01-18_15h43.56.192;REPSWITCH1_version1_list2;2022.2.4;143.878267;
REPSWITCH1/PICTURE_35.png;oreja;speak;gold;nontarget;2;NT;3;3;2;1;Stim5_Set3;0;None;65;64;65;0;64;64;64;;;;;;;;;;;;;;;;;;;;;;;348.923765;350.0003832;350.0003832;350.0003832;350.0003832;350.0003832;350.0003832;350.0003832;350.0003832;None;0;;C:\2023\REPSWITCH21092023\REPSWITCH_excgange\REPSWITCH_excgange\data/430102_REPSWITCH1_version1_list2_2024-01-18_15h43.56.192_micRespv1l2_recorded\recording_micRespv1l2_2024-01-18_15h49.16.607.wav;353.0215182;353.5215928;None;353.0215182;353.0215182;353.0215182;353.0215182;353.0215182;353.0215182;;;;;;;430102;1;2024-01-18_15h43.56.192;REPSWITCH1_version1_list2;2022.2.4;143.878267;
REPSWITCH1/PICTURE_35.png;oreja;type;darkblue;switch;1;T;3;3;2;1;Stim5_Set3;0;None;66;65;66;0;65;65;65;;;;;;;;;;;;;;;;;;;;;;;353.5215928;354.6398717;354.6398717;354.6398717;354.6398717;354.6398717;354.6398717;354.6398717;354.6398717;['o', 'r', 'e', 'j', 'a'];0;oreja;C:\2023\REPSWITCH21092023\REPSWITCH_excgange\REPSWITCH_excgange\data/430102_REPSWITCH1_version1_list2_2024-01-18_15h43.56.192_micRespv1l2_recorded\recording_micRespv1l2_2024-01-18_15h49.21.246.wav;357.6611231;358.1611176;None;357.6611231;357.6611231;357.6611231;357.6611231;357.6611231;357.6611231;[0.8395072994753718, 1.1296518994495273, 1.294149300083518, 1.4621035996824503, 1.5627516992390156];;;;;;430102;1;2024-01-18_15h43.56.192;REPSWITCH1_version1_list2;2022.2.4;143.878267;
REPSWITCH1/PICTURE_517.png;cuerda;speak;gold;filler;2;F;3;3;2;1;Stim4_Set2;0;None;67;66;67;0;66;66;66;;;;;;;;;;;;;;;;;;;;;;;358.1611176;359.1960266;359.1960266;359.1960266;359.1960266;359.1960266;359.1960266;359.1960266;359.1960266;None;0;;C:\2023\REPSWITCH21092023\REPSWITCH_excgange\REPSWITCH_excgange\data/430102_REPSWITCH1_version1_list2_2024-01-18_15h43.56.192_micRespv1l2_recorded\recording_micRespv1l2_2024-01-18_15h49.25.803.wav;362.2241269;;None;362.2241269;362.2241269;362.2241269;362.2241269;362.2241269;362.2241269;;;;;;;430102;1;2024-01-18_15h43.56.192;REPSWITCH1_version1_list2;2022.2.4;143.878267;
REPSWITCH1/PICTURE_30.png;granja;type;darkblue;filler;1;F;3;3;2;1;Stim5_Set2;1;switch;68;67;68;0;67;67;67;;;;;;;;;;;;;;;;;;;;;;;362.7242111;363.8493362;363.8493362;363.8493362;363.8493362;363.8493362;363.8493362;363.8493362;363.8493362;['g', 'r', 'a', 'n', 'j', 'a'];0;granja;C:\2023\REPSWITCH21092023\REPSWITCH_excgange\REPSWITCH_excgange\data/430102_REPSWITCH1_version1_list2_2024-01-18_15h43.56.192_micRespv1l2_recorded\recording_micRespv1l2_2024-01-18_15h49.30.456.wav;366.8775634;;None;366.8775634;366.8775634;366.8775634;366.8775634;366.8775634;366.8775634;[0.9018698995932937, 0.9866236001253128, 1.081330199725926, 1.340055299922824, 1.8847714001312852, 1.9714778997004032];;;;;;430102;1;2024-01-18_15h43.56.192;REPSWITCH1_version1_list2;2022.2.4;143.878267;
REPSWITCH1/PICTURE_242.png;cartero;type;darkblue;nontarget;1;NT;3;3;2;1;Stim3_Set3;0;None;69;68;69;0;68;68;68;;;;;;;;;;;;;;;;;;;;;;;367.3776352;368.47495;368.47495;368.47495;368.47495;368.47495;368.47495;368.47495;368.47495;['c', 'a', 'r', 't', 'e', 'r', 'o'];0;cartero;C:\2023\REPSWITCH21092023\REPSWITCH_excgange\REPSWITCH_excgange\data/430102_REPSWITCH1_version1_list2_2024-01-18_15h43.56.192_micRespv1l2_recorded\recording_micRespv1l2_2024-01-18_15h49.35.082.wav;371.5031469;;None;371.5031469;371.5031469;371.5031469;371.5031469;371.5031469;371.5031469;[1.2643075995147228, 2.006772399879992, 2.206779199652374, 2.3792124995961785, 2.5149286994710565, 2.6002906002104282, 2.697258699685335];;;;;;430102;1;2024-01-18_15h43.56.192;REPSWITCH1_version1_list2;2022.2.4;143.878267;
REPSWITCH1/PICTURE_242.png;cartero;type;darkblue;repeat;1;T;3;3;2;1;Stim3_Set3;0;None;70;69;70;0;69;69;69;;;;;;;;;;;;;;;;;;;;;;;372.0032118;373.0589025;373.0589025;373.0589025;373.0589025;373.0589025;373.0589025;373.0589025;373.0589025;['c', 'a', 'r', 't', 'e', 'r', 'o'];0;cartero;C:\2023\REPSWITCH21092023\REPSWITCH_excgange\REPSWITCH_excgange\data/430102_REPSWITCH1_version1_list2_2024-01-18_15h43.56.192_micRespv1l2_recorded\recording_micRespv1l2_2024-01-18_15h49.39.665.wav;376.0800962;376.5801784;None;376.0800962;376.0800962;376.0800962;376.0800962;376.0800962;376.0800962;[0.8647199999541044, 0.9822770999744534, 1.117904699407518, 1.2923284992575645, 1.3806812996044755, 1.4338543992489576, 1.5574322994798422];;;;;;430102;1;2024-01-18_15h43.56.192;REPSWITCH1_version1_list2;2022.2.4;143.878267;
REPSWITCH1/PICTURE_264.png;mano;speak;gold;filler;2;F;3;3;2;1;Stim3_Set2;1;switch;71;70;71;0;70;70;70;;;;;;;;;;;;;;;;;;;;;;;376.5801784;377.6984469;377.6984469;377.6984469;377.6984469;377.6984469;377.6984469;377.6984469;377.6984469;None;0;;C:\2023\REPSWITCH21092023\REPSWITCH_excgange\REPSWITCH_excgange\data/430102_REPSWITCH1_version1_list2_2024-01-18_15h43.56.192_micRespv1l2_recorded\recording_micRespv1l2_2024-01-18_15h49.44.305.wav;380.7265488;;None;380.7265488;380.7265488;380.7265488;380.7265488;380.7265488;380.7265488;;;;;;;430102;1;2024-01-18_15h43.56.192;REPSWITCH1_version1_list2;2022.2.4;143.878267;
REPSWITCH1/PICTURE_576.png;guante;type;darkblue;nontarget;1;NT;3;3;2;1;Stim1_Set3;1;switch;72;71;72;0;71;71;71;;;;;;;;;;;;;;;;;;;;;;;381.2266748;382.3378812;382.3378812;382.3378812;382.3378812;382.3378812;382.3378812;382.3378812;382.3378812;['g', 'u', 'a', 'n', 't', 'e'];0;guante;C:\2023\REPSWITCH21092023\REPSWITCH_excgange\REPSWITCH_excgange\data/430102_REPSWITCH1_version1_list2_2024-01-18_15h43.56.192_micRespv1l2_recorded\recording_micRespv1l2_2024-01-18_15h49.48.944.wav;385.3590844;385.8591878;None;385.3590844;385.3590844;385.3590844;385.3590844;385.3590844;385.3590844;[1.2000221004709601, 1.3136280002072453, 1.4004996996372938, 1.5031482996419072, 1.5848120003938675, 1.6654732003808022];;;;;;430102;1;2024-01-18_15h43.56.192;REPSWITCH1_version1_list2;2022.2.4;143.878267;
REPSWITCH1/PICTURE_576.png;guante;type;darkblue;repeat;1;T;3;3;2;1;Stim1_Set3;0;None;73;72;73;0;72;72;72;;;;;;;;;;;;;;;;;;;;;;;385.8591878;386.9565739;386.9565739;386.9565739;386.9565739;386.9565739;386.9565739;386.9565739;386.9565739;['g', 'u', 'a', 'n', 't', 'e'];0;guante;C:\2023\REPSWITCH21092023\REPSWITCH_excgange\REPSWITCH_excgange\data/430102_REPSWITCH1_version1_list2_2024-01-18_15h43.56.192_micRespv1l2_recorded\recording_micRespv1l2_2024-01-18_15h49.53.563.wav;389.9847701;;None;389.9847701;389.9847701;389.9847701;389.9847701;389.9847701;389.9847701;[1.1352912997826934, 1.2782749999314547, 1.3446659995242953, 1.456997299566865, 1.5208155997097492, 1.6137929996475577];;;;;;430102;1;2024-01-18_15h43.56.192;REPSWITCH1_version1_list2;2022.2.4;143.878267;
REPSWITCH1/PICTURE_175.png;pintor;speak;gold;filler;2;F;3;3;2;1;Stim1_Set2;0;None;74;73;74;0;73;73;73;;;;;;;;;;;;;;;;;;;;;;;390.4847622;391.7210572;391.7210572;391.7210572;391.7210572;391.7210572;391.7210572;391.7210572;391.7210572;None;0;;C:\2023\REPSWITCH21092023\REPSWITCH_excgange\REPSWITCH_excgange\data/430102_REPSWITCH1_version1_list2_2024-01-18_15h43.56.192_micRespv1l2_recorded\recording_micRespv1l2_2024-01-18_15h49.58.327.wav;394.742334;395.2423624;None;394.742334;394.742334;394.742334;394.742334;394.742334;394.742334;;;;;;;430102;1;2024-01-18_15h43.56.192;REPSWITCH1_version1_list2;2022.2.4;143.878267;
REPSWITCH1/PICTURE_498.png;taza;type;darkblue;nontarget;1;NT;4;3;2;1;Stim4_Set4;0;None;75;74;75;0;74;74;74;;;;;;;;;;;;;;;;;;;;;;;395.2423624;396.3536096;396.3536096;396.3536096;396.3536096;396.3536096;396.3536096;396.3536096;396.3536096;['t', 'a', 'z', 'a'];0;taza;C:\2023\REPSWITCH21092023\REPSWITCH_excgange\REPSWITCH_excgange\data/430102_REPSWITCH1_version1_list2_2024-01-18_15h43.56.192_micRespv1l2_recorded\recording_micRespv1l2_2024-01-18_15h50.02.959.wav;399.3749346;399.8749112;None;399.3749346;399.3749346;399.3749346;399.3749346;399.3749346;399.3749346;[0.9525005994364619, 1.0891505992040038, 1.287428899668157, 1.4296688996255398];;;;;;430102;1;2024-01-18_15h43.56.192;REPSWITCH1_version1_list2;2022.2.4;143.878267;
REPSWITCH1/PICTURE_498.png;taza;type;darkblue;repeat;1;T;4;3;2;1;Stim4_Set4;0;None;76;75;76;0;75;75;75;;;;;;;;;;;;;;;;;;;;;;;399.8749112;400.9861885;400.9861885;400.9861885;400.9861885;400.9861885;400.9861885;400.9861885;400.9861885;['t', 'a', 'z', 'a'];0;taza;C:\2023\REPSWITCH21092023\REPSWITCH_excgange\REPSWITCH_excgange\data/430102_REPSWITCH1_version1_list2_2024-01-18_15h43.56.192_micRespv1l2_recorded\recording_micRespv1l2_2024-01-18_15h50.07.592.wav;404.0143493;;None;404.0143493;404.0143493;404.0143493;404.0143493;404.0143493;404.0143493;[1.8276914991438389, 1.990761099383235, 2.184111699461937, 2.334612099453807];;;;;;430102;1;2024-01-18_15h43.56.192;REPSWITCH1_version1_list2;2022.2.4;143.878267;
REPSWITCH1/PICTURE_235.png;aguja;speak;gold;filler;2;F;4;3;2;1;Stim4_Set3;0;None;77;76;77;0;76;76;76;;;;;;;;;;;;;;;;;;;;;;;404.5144037;405.6881947;405.6881947;405.6881947;405.6881947;405.6881947;405.6881947;405.6881947;405.6881947;None;0;;C:\2023\REPSWITCH21092023\REPSWITCH_excgange\REPSWITCH_excgange\data/430102_REPSWITCH1_version1_list2_2024-01-18_15h43.56.192_micRespv1l2_recorded\recording_micRespv1l2_2024-01-18_15h50.12.295.wav;408.7094035;409.2094535;None;408.7094035;408.7094035;408.7094035;408.7094035;408.7094035;408.7094035;;;;;;;430102;1;2024-01-18_15h43.56.192;REPSWITCH1_version1_list2;2022.2.4;143.878267;
REPSWITCH1/PICTURE_338.png;regalo;type;darkblue;nontarget;1;NT;4;3;2;1;Stim6_Set4;1;switch;78;77;78;0;77;77;77;;;;;;;;;;;;;;;;;;;;;;;409.2094535;410.4110339;410.4110339;410.4110339;410.4110339;410.4110339;410.4110339;410.4110339;410.4110339;['r', 'e', 'g', 'a', 'l', 'o'];0;regalo;C:\2023\REPSWITCH21092023\REPSWITCH_excgange\REPSWITCH_excgange\data/430102_REPSWITCH1_version1_list2_2024-01-18_15h43.56.192_micRespv1l2_recorded\recording_micRespv1l2_2024-01-18_15h50.17.018.wav;413.4391768;;None;413.4391768;413.4391768;413.4391768;413.4391768;413.4391768;413.4391768;[1.1881260005757213, 1.2738217003643513, 1.4675086997449398, 1.5681237997487187, 1.7320098001509905, 1.8855829006060958];;;;;;430102;1;2024-01-18_15h43.56.192;REPSWITCH1_version1_list2;2022.2.4;143.878267;
REPSWITCH1/PICTURE_338.png;regalo;speak;gold;switch;2;T;4;3;2;1;Stim6_Set4;0;None;79;78;79;0;78;78;78;;;;;;;;;;;;;;;;;;;;;;;413.9392571;415.140861;415.140861;415.140861;415.140861;415.140861;415.140861;415.140861;415.140861;None;0;;C:\2023\REPSWITCH21092023\REPSWITCH_excgange\REPSWITCH_excgange\data/430102_REPSWITCH1_version1_list2_2024-01-18_15h43.56.192_micRespv1l2_recorded\recording_micRespv1l2_2024-01-18_15h50.21.748.wav;418.1690488;;None;418.1690488;418.1690488;418.1690488;418.1690488;418.1690488;418.1690488;;;;;;;430102;1;2024-01-18_15h43.56.192;REPSWITCH1_version1_list2;2022.2.4;143.878267;
REPSWITCH1/PICTURE_719.png;baño;speak;gold;nontarget;2;NT;4;3;2;1;Stim2_Set4;1;repeat;80;79;80;0;79;79;79;;;;;;;;;;;;;;;;;;;;;;;418.6690628;419.7109016;419.7109016;419.7109016;419.7109016;419.7109016;419.7109016;419.7109016;419.7109016;None;0;;C:\2023\REPSWITCH21092023\REPSWITCH_excgange\REPSWITCH_excgange\data/430102_REPSWITCH1_version1_list2_2024-01-18_15h43.56.192_micRespv1l2_recorded\recording_micRespv1l2_2024-01-18_15h50.26.317.wav;422.7320679;423.2321401;None;422.7320679;422.7320679;422.7320679;422.7320679;422.7320679;422.7320679;;;;;;;430102;1;2024-01-18_15h43.56.192;REPSWITCH1_version1_list2;2022.2.4;143.878267;
REPSWITCH1/PICTURE_719.png;baño;speak;gold;repeat;2;T;4;3;2;1;Stim2_Set4;0;None;81;80;81;0;80;80;80;;;;;;;;;;;;;;;;;;;;;;;423.2321401;424.2879022;424.2879022;424.2879022;424.2879022;424.2879022;424.2879022;424.2879022;424.2879022;None;0;;C:\2023\REPSWITCH21092023\REPSWITCH_excgange\REPSWITCH_excgange\data/430102_REPSWITCH1_version1_list2_2024-01-18_15h43.56.192_micRespv1l2_recorded\recording_micRespv1l2_2024-01-18_15h50.30.894.wav;427.3091471;427.8091199;None;427.3091471;427.3091471;427.3091471;427.3091471;427.3091471;427.3091471;;;;;;;430102;1;2024-01-18_15h43.56.192;REPSWITCH1_version1_list2;2022.2.4;143.878267;
REPSWITCH1/PICTURE_271.png;conejo;type;darkblue;filler;1;F;4;3;2;1;Stim7_Set3;0;None;82;81;82;0;81;81;81;;;;;;;;;;;;;;;;;;;;;;;427.8091199;428.8509969;428.8509969;428.8509969;428.8509969;428.8509969;428.8509969;428.8509969;428.8509969;['c', 'o', 'n', 'e', 'j', 'o'];0;conejo;C:\2023\REPSWITCH21092023\REPSWITCH_excgange\REPSWITCH_excgange\data/430102_REPSWITCH1_version1_list2_2024-01-18_15h43.56.192_micRespv1l2_recorded\recording_micRespv1l2_2024-01-18_15h50.35.458.wav;431.8721619;432.3722275;None;431.8721619;431.8721619;431.8721619;431.8721619;431.8721619;431.8721619;[1.2686252994462848, 1.3805852001532912, 1.530108499340713, 1.6364358998835087, 1.7316570999100804, 1.8562487997114658];;;;;;430102;1;2024-01-18_15h43.56.192;REPSWITCH1_version1_list2;2022.2.4;143.878267;
REPSWITCH1/PICTURE_610.png;miel;speak;gold;filler;2;F;4;3;2;1;Stim2_Set3;0;None;83;82;83;0;82;82;82;;;;;;;;;;;;;;;;;;;;;;;432.3722275;433.6709845;433.6709845;433.6709845;433.6709845;433.6709845;433.6709845;433.6709845;433.6709845;None;0;;C:\2023\REPSWITCH21092023\REPSWITCH_excgange\REPSWITCH_excgange\data/430102_REPSWITCH1_version1_list2_2024-01-18_15h43.56.192_micRespv1l2_recorded\recording_micRespv1l2_2024-01-18_15h50.40.277.wav;436.6922285;437.1923035;None;436.6922285;436.6922285;436.6922285;436.6922285;436.6922285;436.6922285;;;;;;;430102;1;2024-01-18_15h43.56.192;REPSWITCH1_version1_list2;2022.2.4;143.878267;
REPSWITCH1/PICTURE_687.png;camisa;speak;gold;nontarget;2;NT;4;3;2;1;Stim5_Set4;1;repeat;84;83;84;0;83;83;83;;;;;;;;;;;;;;;;;;;;;;;437.1923035;438.2202734;438.2202734;438.2202734;438.2202734;438.2202734;438.2202734;438.2202734;438.2202734;None;0;;C:\2023\REPSWITCH21092023\REPSWITCH_excgange\REPSWITCH_excgange\data/430102_REPSWITCH1_version1_list2_2024-01-18_15h43.56.192_micRespv1l2_recorded\recording_micRespv1l2_2024-01-18_15h50.44.826.wav;441.2414356;441.7415171;None;441.2414356;441.2414356;441.2414356;441.2414356;441.2414356;441.2414356;;;;;;;430102;1;2024-01-18_15h43.56.192;REPSWITCH1_version1_list2;2022.2.4;143.878267;
REPSWITCH1/PICTURE_687.png;camisa;type;darkblue;switch;1;T;4;3;2;1;Stim5_Set4;0;None;85;84;85;0;84;84;84;;;;;;;;;;;;;;;;;;;;;;;441.7415171;442.8319776;442.8319776;442.8319776;442.8319776;442.8319776;442.8319776;442.8319776;442.8319776;['c', 'a', 'm', 'i', 's', 'a'];0;camisa;C:\2023\REPSWITCH21092023\REPSWITCH_excgange\REPSWITCH_excgange\data/430102_REPSWITCH1_version1_list2_2024-01-18_15h43.56.192_micRespv1l2_recorded\recording_micRespv1l2_2024-01-18_15h50.49.439.wav;445.8601066;;None;445.8601066;445.8601066;445.8601066;445.8601066;445.8601066;445.8601066;[0.7895361995324492, 0.9021918997168541, 1.038731899112463, 1.169340799562633, 1.2221568990498781, 1.3048735996708274];;;;;;430102;1;2024-01-18_15h43.56.192;REPSWITCH1_version1_list2;2022.2.4;143.878267;
REPSWITCH1/PICTURE_319.png;vaca;type;darkblue;nontarget;1;NT;4;3;2;1;Stim1_Set4;0;None;86;85;86;0;85;85;85;;;;;;;;;;;;;;;;;;;;;;;446.3601733;447.3880712;447.3880712;447.3880712;447.3880712;447.3880712;447.3880712;447.3880712;447.3880712;['v', 'a', 'c', 'a'];0;vaca;C:\2023\REPSWITCH21092023\REPSWITCH_excgange\REPSWITCH_excgange\data/430102_REPSWITCH1_version1_list2_2024-01-18_15h43.56.192_micRespv1l2_recorded\recording_micRespv1l2_2024-01-18_15h50.53.995.wav;450.416256;;None;450.416256;450.416256;450.416256;450.416256;450.416256;450.416256;[1.0284845996648073, 1.1620169999077916, 1.3717959998175502, 1.4865397000685334];;;;;;430102;1;2024-01-18_15h43.56.192;REPSWITCH1_version1_list2;2022.2.4;143.878267;
REPSWITCH1/PICTURE_319.png;vaca;speak;gold;switch;2;T;4;3;2;1;Stim1_Set4;0;None;87;86;87;0;86;86;86;;;;;;;;;;;;;;;;;;;;;;;450.9163237;451.9858985;451.9858985;451.9858985;451.9858985;451.9858985;451.9858985;451.9858985;451.9858985;None;0;;C:\2023\REPSWITCH21092023\REPSWITCH_excgange\REPSWITCH_excgange\data/430102_REPSWITCH1_version1_list2_2024-01-18_15h43.56.192_micRespv1l2_recorded\recording_micRespv1l2_2024-01-18_15h50.58.593.wav;455.0140506;;None;455.0140506;455.0140506;455.0140506;455.0140506;455.0140506;455.0140506;;;;;;;430102;1;2024-01-18_15h43.56.192;REPSWITCH1_version1_list2;2022.2.4;143.878267;
REPSWITCH1/PICTURE_464.png;goma;type;darkblue;filler;1;F;4;3;2;1;Stim6_Set3;1;switch;88;87;88;0;87;87;87;;;;;;;;;;;;;;;;;;;;;;;455.5141561;456.667078;456.667078;456.667078;456.667078;456.667078;456.667078;456.667078;456.667078;['g', 'o', 'm', 'a'];0;goma;C:\2023\REPSWITCH21092023\REPSWITCH_excgange\REPSWITCH_excgange\data/430102_REPSWITCH1_version1_list2_2024-01-18_15h43.56.192_micRespv1l2_recorded\recording_micRespv1l2_2024-01-18_15h51.03.273.wav;459.6882963;460.1883691;None;459.6882963;459.6882963;459.6882963;459.6882963;459.6882963;459.6882963;[1.1475997995585203, 1.2652313997969031, 1.443992999382317, 1.6765058990567923];;;;;;430102;1;2024-01-18_15h43.56.192;REPSWITCH1_version1_list2;2022.2.4;143.878267;
REPSWITCH1/PICTURE_728.png;pulpo;speak;gold;nontarget;2;NT;4;3;2;1;Stim8_Set4;1;switch;89;88;89;0;88;88;88;;;;;;;;;;;;;;;;;;;;;;;460.1883691;461.2371774;461.2371774;461.2371774;461.2371774;461.2371774;461.2371774;461.2371774;461.2371774;None;0;;C:\2023\REPSWITCH21092023\REPSWITCH_excgange\REPSWITCH_excgange\data/430102_REPSWITCH1_version1_list2_2024-01-18_15h43.56.192_micRespv1l2_recorded\recording_micRespv1l2_2024-01-18_15h51.07.843.wav;464.2653131;;None;464.2653131;464.2653131;464.2653131;464.2653131;464.2653131;464.2653131;;;;;;;430102;1;2024-01-18_15h43.56.192;REPSWITCH1_version1_list2;2022.2.4;143.878267;
REPSWITCH1/PICTURE_728.png;pulpo;speak;gold;repeat;2;T;4;3;2;1;Stim8_Set4;0;None;90;89;90;0;89;89;89;;;;;;;;;;;;;;;;;;;;;;;464.7653599;465.848854;465.848854;465.848854;465.848854;465.848854;465.848854;465.848854;465.848854;None;0;;C:\2023\REPSWITCH21092023\REPSWITCH_excgange\REPSWITCH_excgange\data/430102_REPSWITCH1_version1_list2_2024-01-18_15h43.56.192_micRespv1l2_recorded\recording_micRespv1l2_2024-01-18_15h51.12.455.wav;468.8700696;469.3702031;None;468.8700696;468.8700696;468.8700696;468.8700696;468.8700696;468.8700696;;;;;;;430102;1;2024-01-18_15h43.56.192;REPSWITCH1_version1_list2;2022.2.4;143.878267;
REPSWITCH1/PICTURE_320.png;iglesia;type;darkblue;filler;1;F;4;3;2;1;Stim8_Set3;0;None;91;90;91;0;90;90;90;;;;;;;;;;;;;;;;;;;;;;;469.3702031;470.5092364;470.5092364;470.5092364;470.5092364;470.5092364;470.5092364;470.5092364;470.5092364;['i', 'g', 'l', 'e', 's', 'i', 'a'];0;iglesia;C:\2023\REPSWITCH21092023\REPSWITCH_excgange\REPSWITCH_excgange\data/430102_REPSWITCH1_version1_list2_2024-01-18_15h43.56.192_micRespv1l2_recorded\recording_micRespv1l2_2024-01-18_15h51.17.116.wav;473.5373031;;None;473.5373031;473.5373031;473.5373031;473.5373031;473.5373031;473.5373031;[0.9110302003100514, 1.1260051000863314, 1.2509859995916486, 1.3604439999908209, 1.6306841997429729, 1.8123554000630975, 1.9190298998728395];;;;;;430102;1;2024-01-18_15h43.56.192;REPSWITCH1_version1_list2;2022.2.4;143.878267;
REPSWITCH1/PICTURE_576.png;guante;speak;gold;filler;2;F;4;3;2;1;Stim1_Set3;0;None;92;91;92;0;91;91;91;;;;;;;;;;;;;;;;;;;;;;;474.0374057;475.1625714;475.1625714;475.1625714;475.1625714;475.1625714;475.1625714;475.1625714;475.1625714;None;0;;C:\2023\REPSWITCH21092023\REPSWITCH_excgange\REPSWITCH_excgange\data/430102_REPSWITCH1_version1_list2_2024-01-18_15h43.56.192_micRespv1l2_recorded\recording_micRespv1l2_2024-01-18_15h51.21.769.wav;478.1837697;478.6838574;None;478.1837697;478.1837697;478.1837697;478.1837697;478.1837697;478.1837697;;;;;;;430102;1;2024-01-18_15h43.56.192;REPSWITCH1_version1_list2;2022.2.4;143.878267;
REPSWITCH1/PICTURE_8.png;pierna;speak;gold;nontarget;2;NT;4;3;2;1;Stim3_Set4;1;repeat;93;92;93;0;92;92;92;;;;;;;;;;;;;;;;;;;;;;;478.6838574;479.8437866;479.8437866;479.8437866;479.8437866;479.8437866;479.8437866;479.8437866;479.8437866;None;0;;C:\2023\REPSWITCH21092023\REPSWITCH_excgange\REPSWITCH_excgange\data/430102_REPSWITCH1_version1_list2_2024-01-18_15h43.56.192_micRespv1l2_recorded\recording_micRespv1l2_2024-01-18_15h51.26.450.wav;482.8649267;483.3650212;None;482.8649267;482.8649267;482.8649267;482.8649267;482.8649267;482.8649267;;;;;;;430102;1;2024-01-18_15h43.56.192;REPSWITCH1_version1_list2;2022.2.4;143.878267;
REPSWITCH1/PICTURE_8.png;pierna;type;darkblue;switch;1;T;4;3;2;1;Stim3_Set4;0;None;94;93;94;0;93;93;93;;;;;;;;;;;;;;;;;;;;;;;483.3650212;484.4623802;484.4623802;484.4623802;484.4623802;484.4623802;484.4623802;484.4623802;484.4623802;['p', 'i', 'e', 'r', 'n', 'a'];0;pierna;C:\2023\REPSWITCH21092023\REPSWITCH_excgange\REPSWITCH_excgange\data/430102_REPSWITCH1_version1_list2_2024-01-18_15h43.56.192_micRespv1l2_recorded\recording_micRespv1l2_2024-01-18_15h51.31.068.wav;487.4835929;487.983728;None;487.4835929;487.4835929;487.4835929;487.4835929;487.4835929;487.4835929;[0.9300606995820999, 1.13432929944247, 1.2569589000195265, 1.335980299860239, 1.4525182992219925, 1.5524872997775674];;;;;;430102;1;2024-01-18_15h43.56.192;REPSWITCH1_version1_list2;2022.2.4;143.878267;
REPSWITCH1/PICTURE_673.png;tenedor;speak;gold;filler;2;F;4;3;2;1;Extra5;0;None;95;94;95;0;94;94;94;;;;;;;;;;;;;;;;;;;;;;;487.983728;489.067165;489.067165;489.067165;489.067165;489.067165;489.067165;489.067165;489.067165;None;0;;C:\2023\REPSWITCH21092023\REPSWITCH_excgange\REPSWITCH_excgange\data/430102_REPSWITCH1_version1_list2_2024-01-18_15h43.56.192_micRespv1l2_recorded\recording_micRespv1l2_2024-01-18_15h51.35.673.wav;492.0883488;492.5885217;None;492.0883488;492.0883488;492.0883488;492.0883488;492.0883488;492.0883488;;;;;;;430102;1;2024-01-18_15h43.56.192;REPSWITCH1_version1_list2;2022.2.4;143.878267;
REPSWITCH1/PICTURE_35.png;oreja;type;darkblue;filler;1;F;4;3;2;1;Stim5_Set3;1;switch;96;95;96;0;95;95;95;;;;;;;;;;;;;;;;;;;;;;;492.5885217;493.6720086;493.6720086;493.6720086;493.6720086;493.6720086;493.6720086;493.6720086;493.6720086;['o', 'r', 'e', 'j', 'a'];0;oreja;C:\2023\REPSWITCH21092023\REPSWITCH_excgange\REPSWITCH_excgange\data/430102_REPSWITCH1_version1_list2_2024-01-18_15h43.56.192_micRespv1l2_recorded\recording_micRespv1l2_2024-01-18_15h51.40.279.wav;496.7000798;;None;496.7000798;496.7000798;496.7000798;496.7000798;496.7000798;496.7000798;[0.9191343998536468, 1.029746999964118, 1.2421095995232463, 1.5938399992883205, 1.9921393999829888];;;;;;430102;1;2024-01-18_15h43.56.192;REPSWITCH1_version1_list2;2022.2.4;143.878267;
REPSWITCH1/PICTURE_663.png;columna;speak;gold;filler;2;F;4;3;2;1;Extra6;0;None;97;96;97;0;96;96;96;;;;;;;;;;;;;;;;;;;;;;;497.2002422;498.2419872;498.2419872;498.2419872;498.2419872;498.2419872;498.2419872;498.2419872;498.2419872;None;0;;C:\2023\REPSWITCH21092023\REPSWITCH_excgange\REPSWITCH_excgange\data/430102_REPSWITCH1_version1_list2_2024-01-18_15h43.56.192_micRespv1l2_recorded\recording_micRespv1l2_2024-01-18_15h51.44.849.wav;501.2701789;;None;501.2701789;501.2701789;501.2701789;501.2701789;501.2701789;501.2701789;;;;;;;430102;1;2024-01-18_15h43.56.192;REPSWITCH1_version1_list2;2022.2.4;143.878267;
REPSWITCH1/PICTURE_242.png;cartero;type;darkblue;filler;1;F;4;3;2;1;Stim3_Set3;1;switch;98;97;98;0;97;97;97;;;;;;;;;;;;;;;;;;;;;;;501.7702325;502.9370669;502.9370669;502.9370669;502.9370669;502.9370669;502.9370669;502.9370669;502.9370669;['c', 'a', 'r', 't', 'e', 'r', 'o'];0;cartero;C:\2023\REPSWITCH21092023\REPSWITCH_excgange\REPSWITCH_excgange\data/430102_REPSWITCH1_version1_list2_2024-01-18_15h43.56.192_micRespv1l2_recorded\recording_micRespv1l2_2024-01-18_15h51.49.544.wav;505.9652783;;None;505.9652783;505.9652783;505.9652783;505.9652783;505.9652783;505.9652783;[0.8539020996540785, 0.9684770992025733, 1.1120305992662907, 1.2742298999801278, 1.3838045997545123, 1.4626754997298121, 1.623073099181056];;;;;;430102;1;2024-01-18_15h43.56.192;REPSWITCH1_version1_list2;2022.2.4;143.878267;
REPSWITCH1/PICTURE_48.png;bombero;type;darkblue;nontarget;1;NT;4;3;2;1;Stim7_Set4;1;repeat;99;98;99;0;98;98;98;;;;;;;;;;;;;;;;;;;;;;;506.4652705;507.5140481;507.5140481;507.5140481;507.5140481;507.5140481;507.5140481;507.5140481;507.5140481;['b', 'o', 'm', 'b', 'e', 'r', 'o'];0;bombero;C:\2023\REPSWITCH21092023\REPSWITCH_excgange\REPSWITCH_excgange\data/430102_REPSWITCH1_version1_list2_2024-01-18_15h43.56.192_micRespv1l2_recorded\recording_micRespv1l2_2024-01-18_15h51.54.121.wav;510.542214;511.0422587;None;510.542214;510.542214;510.542214;510.542214;510.542214;510.542214;[1.195419100113213, 1.3009928995743394, 1.4604615001007915, 1.533215600065887, 1.6988939996808767, 1.7861966993659735, 1.8828924000263214];;;;;;430102;1;2024-01-18_15h43.56.192;REPSWITCH1_version1_list2;2022.2.4;143.878267;
REPSWITCH1/PICTURE_48.png;bombero;type;darkblue;repeat;1;T;4;3;2;1;Stim7_Set4;0;None;100;99;100;0;99;99;99;;;;;;;;;;;;;;;;;;;;;;;511.0422587;512.1952114;512.1952114;512.1952114;512.1952114;512.1952114;512.1952114;512.1952114;512.1952114;['b', 'o', 'm', 'b', 'e', 'r', 'o'];0;bombero;C:\2023\REPSWITCH21092023\REPSWITCH_excgange\REPSWITCH_excgange\data/430102_REPSWITCH1_version1_list2_2024-01-18_15h43.56.192_micRespv1l2_recorded\recording_micRespv1l2_2024-01-18_15h51.58.802.wav;515.2234185;;None;515.2234185;515.2234185;515.2234185;515.2234185;515.2234185;515.2234185;[0.8024240992963314, 0.9220019998028874, 1.1161115998402238, 1.489924599416554, 1.690969199873507, 1.7585637997835875, 1.8662176998332143];;;;;;430102;1;2024-01-18_15h43.56.192;REPSWITCH1_version1_list2;2022.2.4;143.878267;
REPSWITCH1/PICTURE_391.png;cadena;speak;gold;filler;2;F;4;3;2;1;Extra2;0;None;101;100;101;0;100;100;100;;;;;;;;;;;;;;;;;;;;;;;515.723431;516.772153;516.772153;516.772153;516.772153;516.772153;516.772153;516.772153;516.772153;None;0;;C:\2023\REPSWITCH21092023\REPSWITCH_excgange\REPSWITCH_excgange\data/430102_REPSWITCH1_version1_list2_2024-01-18_15h43.56.192_micRespv1l2_recorded\recording_micRespv1l2_2024-01-18_15h52.03.379.wav;519.800349;;None;519.800349;519.800349;519.800349;519.800349;519.800349;519.800349;;;;;;;430102;1;2024-01-18_15h43.56.192;REPSWITCH1_version1_list2;2022.2.4;143.878267;
REPSWITCH1/PICTURE_590.png;escoba;type;darkblue;filler;1;F;4;3;2;1;Extra3;0;None;102;101;102;0;101;101;101;;;;;;;;;;;;;;;;;;;;;;;520.3004208;521.4394356;521.4394356;521.4394356;521.4394356;521.4394356;521.4394356;521.4394356;521.4394356;['e', 's', 'c', 'o', 'b', 'a'];0;escoba;C:\2023\REPSWITCH21092023\REPSWITCH_excgange\REPSWITCH_excgange\data/430102_REPSWITCH1_version1_list2_2024-01-18_15h43.56.192_micRespv1l2_recorded\recording_micRespv1l2_2024-01-18_15h52.08.046.wav;524.4607213;524.9607157;space;524.4607213;524.4607213;524.4607213;524.4607213;524.4607213;524.4607213;[1.8610530998557806, 2.0413555996492505, 2.236651899293065, 2.400626099668443, 2.5812674993649125, 2.713176599703729];524.9607157;524.9607157;1.4341545;;;430102;1;2024-01-18_15h43.56.192;REPSWITCH1_version1_list2;2022.2.4;143.878267;
REPSWITCH1/PICTURE_340.png;espejo;type;darkblue;filler;1;F;1;1;2;1;Extra1;0;None;103;102;1;0;102;102;102;;;;;;;;;;;;;;;;;;;;;;;526.4053846;527.5096854;527.5096854;527.5096854;527.5096854;527.5096854;527.5096854;527.5096854;527.5096854;['e', 's', 'p', 'e', 'j', 'o'];0;espejo;C:\2023\REPSWITCH21092023\REPSWITCH_excgange\REPSWITCH_excgange\data/430102_REPSWITCH1_version1_list2_2024-01-18_15h43.56.192_micRespv1l2_recorded\recording_micRespv1l2_2024-01-18_15h52.14.116.wav;530.5378542;;None;530.5378542;530.5378542;530.5378542;530.5378542;530.5378542;530.5378542;[0.7149128001183271, 0.8793327994644642, 1.0607698997482657, 1.1684895996004343, 1.5123199000954628, 1.660792499780655];;;;;;430102;1;2024-01-18_15h43.56.192;REPSWITCH1_version1_list2;2022.2.4;143.878267;
REPSWITCH1/PICTURE_391.png;cadena;speak;gold;filler;2;F;1;1;2;1;Extra2;0;None;104;103;2;0;103;103;103;;;;;;;;;;;;;;;;;;;;;;;531.0379445;532.1144435;532.1144435;532.1144435;532.1144435;532.1144435;532.1144435;532.1144435;532.1144435;None;0;;C:\2023\REPSWITCH21092023\REPSWITCH_excgange\REPSWITCH_excgange\data/430102_REPSWITCH1_version1_list2_2024-01-18_15h43.56.192_micRespv1l2_recorded\recording_micRespv1l2_2024-01-18_15h52.18.721.wav;535.142682;;None;535.142682;535.142682;535.142682;535.142682;535.142682;535.142682;;;;;;;430102;1;2024-01-18_15h43.56.192;REPSWITCH1_version1_list2;2022.2.4;143.878267;
REPSWITCH1/PICTURE_178.png;puente;speak;gold;nontarget;2;NT;1;1;2;1;Stim1_Set1;1;repeat;105;104;3;0;104;104;104;;;;;;;;;;;;;;;;;;;;;;;535.6427521;536.767877;536.767877;536.767877;536.767877;536.767877;536.767877;536.767877;536.767877;None;0;;C:\2023\REPSWITCH21092023\REPSWITCH_excgange\REPSWITCH_excgange\data/430102_REPSWITCH1_version1_list2_2024-01-18_15h43.56.192_micRespv1l2_recorded\recording_micRespv1l2_2024-01-18_15h52.23.375.wav;539.7960955;;None;539.7960955;539.7960955;539.7960955;539.7960955;539.7960955;539.7960955;;;;;;;430102;1;2024-01-18_15h43.56.192;REPSWITCH1_version1_list2;2022.2.4;143.878267;
REPSWITCH1/PICTURE_178.png;puente;speak;gold;repeat;2;T;1;1;2;1;Stim1_Set1;0;None;106;105;4;0;105;105;105;;;;;;;;;;;;;;;;;;;;;;;540.2961669;541.414291;541.414291;541.414291;541.414291;541.414291;541.414291;541.414291;541.414291;None;0;;C:\2023\REPSWITCH21092023\REPSWITCH_excgange\REPSWITCH_excgange\data/430102_REPSWITCH1_version1_list2_2024-01-18_15h43.56.192_micRespv1l2_recorded\recording_micRespv1l2_2024-01-18_15h52.28.020.wav;544.435546;544.9355688;None;544.435546;544.435546;544.435546;544.435546;544.435546;544.435546;;;;;;;430102;1;2024-01-18_15h43.56.192;REPSWITCH1_version1_list2;2022.2.4;143.878267;
REPSWITCH1/PICTURE_319.png;vaca;type;darkblue;filler;1;F;1;1;2;1;Stim1_Set4;0;None;107;106;5;0;106;106;106;;;;;;;;;;;;;;;;;;;;;;;544.9355688;546.1162864;546.1162864;546.1162864;546.1162864;546.1162864;546.1162864;546.1162864;546.1162864;['v', 'a', 'c', 'a'];0;vaca;C:\2023\REPSWITCH21092023\REPSWITCH_excgange\REPSWITCH_excgange\data/430102_REPSWITCH1_version1_list2_2024-01-18_15h43.56.192_micRespv1l2_recorded\recording_micRespv1l2_2024-01-18_15h52.32.723.wav;549.1375471;549.6375571;None;549.1375471;549.1375471;549.1375471;549.1375471;549.1375471;549.1375471;[0.9122019000351429, 1.0294172996655107, 1.3052085991948843, 1.7307182997465134];;;;;;430102;1;2024-01-18_15h43.56.192;REPSWITCH1_version1_list2;2022.2.4;143.878267;
REPSWITCH1/PICTURE_381.png;fresa;speak;gold;nontarget;2;NT;1;1;2;1;Stim2_Set1;1;switch;108;107;6;0;107;107;107;;;;;;;;;;;;;;;;;;;;;;;549.6375571;550.7418846;550.7418846;550.7418846;550.7418846;550.7418846;550.7418846;550.7418846;550.7418846;None;0;;C:\2023\REPSWITCH21092023\REPSWITCH_excgange\REPSWITCH_excgange\data/430102_REPSWITCH1_version1_list2_2024-01-18_15h43.56.192_micRespv1l2_recorded\recording_micRespv1l2_2024-01-18_15h52.37.348.wav;553.7700939;;None;553.7700939;553.7700939;553.7700939;553.7700939;553.7700939;553.7700939;;;;;;;430102;1;2024-01-18_15h43.56.192;REPSWITCH1_version1_list2;2022.2.4;143.878267;
REPSWITCH1/PICTURE_381.png;fresa;speak;gold;repeat;2;T;1;1;2;1;Stim2_Set1;0;None;109;108;7;0;108;108;108;;;;;;;;;;;;;;;;;;;;;;;554.2701469;555.3328116;555.3328116;555.3328116;555.3328116;555.3328116;555.3328116;555.3328116;555.3328116;None;0;;C:\2023\REPSWITCH21092023\REPSWITCH_excgange\REPSWITCH_excgange\data/430102_REPSWITCH1_version1_list2_2024-01-18_15h43.56.192_micRespv1l2_recorded\recording_micRespv1l2_2024-01-18_15h52.41.939.wav;558.35409;558.8540809;None;558.35409;558.35409;558.35409;558.35409;558.35409;558.35409;;;;;;;430102;1;2024-01-18_15h43.56.192;REPSWITCH1_version1_list2;2022.2.4;143.878267;
REPSWITCH1/PICTURE_719.png;baño;type;darkblue;filler;1;F;1;1;2;1;Stim2_Set4;1;switch;110;109;8;0;109;109;109;;;;;;;;;;;;;;;;;;;;;;;558.8540809;559.9584492;559.9584492;559.9584492;559.9584492;559.9584492;559.9584492;559.9584492;559.9584492;['b', 'a', 'ñ', 'o'];0;baño;C:\2023\REPSWITCH21092023\REPSWITCH_excgange\REPSWITCH_excgange\data/430102_REPSWITCH1_version1_list2_2024-01-18_15h43.56.192_micRespv1l2_recorded\recording_micRespv1l2_2024-01-18_15h52.46.564.wav;562.9935439;;None;562.9935439;562.9935439;562.9935439;562.9935439;562.9935439;562.9935439;[0.919055100530386, 1.051596799865365, 1.3736701998859644, 1.5590577004477382];;;;;;430102;1;2024-01-18_15h43.56.192;REPSWITCH1_version1_list2;2022.2.4;143.878267;
REPSWITCH1/PICTURE_135.png;traje;speak;gold;nontarget;2;NT;1;1;2;1;Stim3_Set1;0;None;111;110;9;0;110;110;110;;;;;;;;;;;;;;;;;;;;;;;563.4935413;564.5770666;564.5770666;564.5770666;564.5770666;564.5770666;564.5770666;564.5770666;564.5770666;None;0;;C:\2023\REPSWITCH21092023\REPSWITCH_excgange\REPSWITCH_excgange\data/430102_REPSWITCH1_version1_list2_2024-01-18_15h43.56.192_micRespv1l2_recorded\recording_micRespv1l2_2024-01-18_15h52.51.184.wav;567.612236;;None;567.612236;567.612236;567.612236;567.612236;567.612236;567.612236;;;;;;;430102;1;2024-01-18_15h43.56.192;REPSWITCH1_version1_list2;2022.2.4;143.878267;
REPSWITCH1/PICTURE_135.png;traje;type;darkblue;switch;1;T;1;1;2;1;Stim3_Set1;0;None;112;111;10;0;111;111;111;;;;;;;;;;;;;;;;;;;;;;;568.11224;569.2026907;569.2026907;569.2026907;569.2026907;569.2026907;569.2026907;569.2026907;569.2026907;['t', 'r', 'a', 'j', 'e'];0;traje;C:\2023\REPSWITCH21092023\REPSWITCH_excgange\REPSWITCH_excgange\data/430102_REPSWITCH1_version1_list2_2024-01-18_15h43.56.192_micRespv1l2_recorded\recording_micRespv1l2_2024-01-18_15h52.55.809.wav;572.2308609;572.7308998;None;572.2308609;572.2308609;572.2308609;572.2308609;572.2308609;572.2308609;[0.8776145996525884, 0.9473767997696996, 1.04900289978832, 1.2067147996276617, 1.2854653997346759];;;;;;430102;1;2024-01-18_15h43.56.192;REPSWITCH1_version1_list2;2022.2.4;143.878267;
REPSWITCH1/PICTURE_687.png;camisa;speak;gold;filler;2;F;1;1;2;1;Stim5_Set4;0;None;113;112;11;0;112;112;112;;;;;;;;;;;;;;;;;;;;;;;572.7308998;573.7796414;573.7796414;573.7796414;573.7796414;573.7796414;573.7796414;573.7796414;573.7796414;None;0;;C:\2023\REPSWITCH21092023\REPSWITCH_excgange\REPSWITCH_excgange\data/430102_REPSWITCH1_version1_list2_2024-01-18_15h43.56.192_micRespv1l2_recorded\recording_micRespv1l2_2024-01-18_15h53.00.386.wav;576.8078249;;None;576.8078249;576.8078249;576.8078249;576.8078249;576.8078249;576.8078249;;;;;;;430102;1;2024-01-18_15h43.56.192;REPSWITCH1_version1_list2;2022.2.4;143.878267;
REPSWITCH1/PICTURE_128.png;muñeca;type;darkblue;nontarget;1;NT;1;1;2;1;Stim4_Set1;1;switch;114;113;12;0;113;113;113;;;;;;;;;;;;;;;;;;;;;;;577.307949;578.391382;578.391382;578.391382;578.391382;578.391382;578.391382;578.391382;578.391382;['m', 'u', 'ñ', 'e', 'c', 'a'];0;muñeca;C:\2023\REPSWITCH21092023\REPSWITCH_excgange\REPSWITCH_excgange\data/430102_REPSWITCH1_version1_list2_2024-01-18_15h43.56.192_micRespv1l2_recorded\recording_micRespv1l2_2024-01-18_15h53.04.997.wav;581.4125571;581.91271;None;581.4125571;581.4125571;581.4125571;581.4125571;581.4125571;581.4125571;[1.2265655994415283, 1.4467491991817951, 2.2779019000008702, 2.433762799948454, 2.873253599740565, 2.9790132995694876];;;;;;430102;1;2024-01-18_15h43.56.192;REPSWITCH1_version1_list2;2022.2.4;143.878267;
REPSWITCH1/PICTURE_128.png;muñeca;speak;gold;switch;2;T;1;1;2;1;Stim4_Set1;0;None;115;114;13;0;114;114;114;;;;;;;;;;;;;;;;;;;;;;;581.91271;582.996149;582.996149;582.996149;582.996149;582.996149;582.996149;582.996149;582.996149;None;0;;C:\2023\REPSWITCH21092023\REPSWITCH_excgange\REPSWITCH_excgange\data/430102_REPSWITCH1_version1_list2_2024-01-18_15h43.56.192_micRespv1l2_recorded\recording_micRespv1l2_2024-01-18_15h53.09.603.wav;586.0173629;586.517418;None;586.0173629;586.0173629;586.0173629;586.0173629;586.0173629;586.0173629;;;;;;;430102;1;2024-01-18_15h43.56.192;REPSWITCH1_version1_list2;2022.2.4;143.878267;
REPSWITCH1/PICTURE_8.png;pierna;speak;gold;filler;2;F;1;1;2;1;Stim3_Set4;0;None;116;115;14;0;115;115;115;;;;;;;;;;;;;;;;;;;;;;;586.517418;587.5939754;587.5939754;587.5939754;587.5939754;587.5939754;587.5939754;587.5939754;587.5939754;None;0;;C:\2023\REPSWITCH21092023\REPSWITCH_excgange\REPSWITCH_excgange\data/430102_REPSWITCH1_version1_list2_2024-01-18_15h43.56.192_micRespv1l2_recorded\recording_micRespv1l2_2024-01-18_15h53.14.201.wav;590.622215;;None;590.622215;590.622215;590.622215;590.622215;590.622215;590.622215;;;;;;;430102;1;2024-01-18_15h43.56.192;REPSWITCH1_version1_list2;2022.2.4;143.878267;
REPSWITCH1/PICTURE_19.png;pavo;speak;gold;nontarget;2;NT;1;1;2;1;Stim5_Set1;0;None;117;116;15;0;116;116;116;;;;;;;;;;;;;;;;;;;;;;;591.1222048;592.2681679;592.2681679;592.2681679;592.2681679;592.2681679;592.2681679;592.2681679;592.2681679;None;0;;C:\2023\REPSWITCH21092023\REPSWITCH_excgange\REPSWITCH_excgange\data/430102_REPSWITCH1_version1_list2_2024-01-18_15h43.56.192_micRespv1l2_recorded\recording_micRespv1l2_2024-01-18_15h53.18.874.wav;595.2894152;595.7894562;None;595.2894152;595.2894152;595.2894152;595.2894152;595.2894152;595.2894152;;;;;;;430102;1;2024-01-18_15h43.56.192;REPSWITCH1_version1_list2;2022.2.4;143.878267;
REPSWITCH1/PICTURE_19.png;pavo;type;darkblue;switch;1;T;1;1;2;1;Stim5_Set1;0;None;118;117;16;0;117;117;117;;;;;;;;;;;;;;;;;;;;;;;595.7894562;596.8521289;596.8521289;596.8521289;596.8521289;596.8521289;596.8521289;596.8521289;596.8521289;['p', 'a', 'v', 'o'];0;pavo;C:\2023\REPSWITCH21092023\REPSWITCH_excgange\REPSWITCH_excgange\data/430102_REPSWITCH1_version1_list2_2024-01-18_15h43.56.192_micRespv1l2_recorded\recording_micRespv1l2_2024-01-18_15h53.23.459.wav;599.8733321;600.3734077;None;599.8733321;599.8733321;599.8733321;599.8733321;599.8733321;599.8733321;[0.623361999168992, 0.7270451998338103, 0.929190400056541, 0.9996534995734692];;;;;;430102;1;2024-01-18_15h43.56.192;REPSWITCH1_version1_list2;2022.2.4;143.878267;
REPSWITCH1/PICTURE_16.png;cazador;type;darkblue;nontarget;1;NT;1;1;2;1;Stim6_Set1;1;switch;119;118;17;0;118;118;118;;;;;;;;;;;;;;;;;;;;;;;600.3734077;601.5680235;601.5680235;601.5680235;601.5680235;601.5680235;601.5680235;601.5680235;601.5680235;['c', 'a', 'z', 'a', 'd', 'o', 'r'];0;cazador;C:\2023\REPSWITCH21092023\REPSWITCH_excgange\REPSWITCH_excgange\data/430102_REPSWITCH1_version1_list2_2024-01-18_15h43.56.192_micRespv1l2_recorded\recording_micRespv1l2_2024-01-18_15h53.28.175.wav;604.5961854;;None;604.5961854;604.5961854;604.5961854;604.5961854;604.5961854;604.5961854;[1.2641871999949217, 1.4046047003939748, 1.6350861005485058, 1.8015449000522494, 2.1235581999644637, 2.238175899721682, 2.3291611997410655];;;;;;430102;1;2024-01-18_15h43.56.192;REPSWITCH1_version1_list2;2022.2.4;143.878267;
REPSWITCH1/PICTURE_16.png;cazador;type;darkblue;repeat;1;T;1;1;2;1;Stim6_Set1;0;None;120;119;18;0;119;119;119;;;;;;;;;;;;;;;;;;;;;;;605.0962411;606.221425;606.221425;606.221425;606.221425;606.221425;606.221425;606.221425;606.221425;['c', 'a', 'z', 'a', 'd', 'o', 'r'];0;cazador;C:\2023\REPSWITCH21092023\REPSWITCH_excgange\REPSWITCH_excgange\data/430102_REPSWITCH1_version1_list2_2024-01-18_15h43.56.192_micRespv1l2_recorded\recording_micRespv1l2_2024-01-18_15h53.32.827.wav;609.242596;609.7426746;None;609.242596;609.242596;609.242596;609.242596;609.242596;609.242596;[0.9352462999522686, 1.0948663000017405, 1.2801850996911526, 1.442989599891007, 1.5905469004064798, 1.7060404000803828, 1.795788699761033];;;;;;430102;1;2024-01-18_15h43.56.192;REPSWITCH1_version1_list2;2022.2.4;143.878267;
REPSWITCH1/PICTURE_498.png;taza;speak;gold;filler;2;F;1;1;2;1;Stim4_Set4;0;None;121;120;19;0;120;120;120;;;;;;;;;;;;;;;;;;;;;;;609.7426746;610.888701;610.888701;610.888701;610.888701;610.888701;610.888701;610.888701;610.888701;None;0;;C:\2023\REPSWITCH21092023\REPSWITCH_excgange\REPSWITCH_excgange\data/430102_REPSWITCH1_version1_list2_2024-01-18_15h43.56.192_micRespv1l2_recorded\recording_micRespv1l2_2024-01-18_15h53.37.495.wav;613.9099075;614.4100542;None;613.9099075;613.9099075;613.9099075;613.9099075;613.9099075;613.9099075;;;;;;;430102;1;2024-01-18_15h43.56.192;REPSWITCH1_version1_list2;2022.2.4;143.878267;
REPSWITCH1/PICTURE_48.png;bombero;type;darkblue;filler;1;F;1;1;2;1;Stim7_Set4;0;None;122;121;20;0;121;121;121;;;;;;;;;;;;;;;;;;;;;;;614.4100542;615.4795763;615.4795763;615.4795763;615.4795763;615.4795763;615.4795763;615.4795763;615.4795763;['b', 'o', 'm', 'b', 'e', 'r', 'o'];0;bombero;C:\2023\REPSWITCH21092023\REPSWITCH_excgange\REPSWITCH_excgange\data/430102_REPSWITCH1_version1_list2_2024-01-18_15h43.56.192_micRespv1l2_recorded\recording_micRespv1l2_2024-01-18_15h53.42.086.wav;618.5077303;;None;618.5077303;618.5077303;618.5077303;618.5077303;618.5077303;618.5077303;[0.9745759991928935, 1.0832225997000933, 1.268575799651444, 1.3263857997953892, 1.5096645997837186, 1.583414699882269, 1.7011902993544936];;;;;;430102;1;2024-01-18_15h43.56.192;REPSWITCH1_version1_list2;2022.2.4;143.878267;
REPSWITCH1/PICTURE_142.png;vaso;type;darkblue;nontarget;1;NT;1;1;2;1;Stim7_Set1;1;repeat;123;122;21;0;122;122;122;;;;;;;;;;;;;;;;;;;;;;;619.0078735;620.0843197;620.0843197;620.0843197;620.0843197;620.0843197;620.0843197;620.0843197;620.0843197;['v', 'a', 's', 'o'];0;vaso;C:\2023\REPSWITCH21092023\REPSWITCH_excgange\REPSWITCH_excgange\data/430102_REPSWITCH1_version1_list2_2024-01-18_15h43.56.192_micRespv1l2_recorded\recording_micRespv1l2_2024-01-18_15h53.46.691.wav;623.1124779;;None;623.1124779;623.1124779;623.1124779;623.1124779;623.1124779;623.1124779;[0.9584908997640014, 1.1069710003212094, 1.2308994997292757, 1.399952800013125];;;;;;430102;1;2024-01-18_15h43.56.192;REPSWITCH1_version1_list2;2022.2.4;143.878267;
REPSWITCH1/PICTURE_142.png;vaso;type;darkblue;repeat;1;T;1;1;2;1;Stim7_Set1;0;None;124;123;22;0;123;123;123;;;;;;;;;;;;;;;;;;;;;;;623.6126172;624.7238175;624.7238175;624.7238175;624.7238175;624.7238175;624.7238175;624.7238175;624.7238175;['v', 'a', 's', 'o'];0;vaso;C:\2023\REPSWITCH21092023\REPSWITCH_excgange\REPSWITCH_excgange\data/430102_REPSWITCH1_version1_list2_2024-01-18_15h43.56.192_micRespv1l2_recorded\recording_micRespv1l2_2024-01-18_15h53.51.330.wav;627.7450605;628.2451267;None;627.7450605;627.7450605;627.7450605;627.7450605;627.7450605;627.7450605;[0.9313805000856519, 1.0144672002643347, 1.1001936998218298, 1.2300033997744322];;;;;;430102;1;2024-01-18_15h43.56.192;REPSWITCH1_version1_list2;2022.2.4;143.878267;
REPSWITCH1/PICTURE_338.png;regalo;speak;gold;filler;2;F;1;1;2;1;Stim6_Set4;1;switch;125;124;23;0;124;124;124;;;;;;;;;;;;;;;;;;;;;;;628.2451267;629.3702791;629.3702791;629.3702791;629.3702791;629.3702791;629.3702791;629.3702791;629.3702791;None;0;;C:\2023\REPSWITCH21092023\REPSWITCH_excgange\REPSWITCH_excgange\data/430102_REPSWITCH1_version1_list2_2024-01-18_15h43.56.192_micRespv1l2_recorded\recording_micRespv1l2_2024-01-18_15h53.55.977.wav;632.3984113;;None;632.3984113;632.3984113;632.3984113;632.3984113;632.3984113;632.3984113;;;;;;;430102;1;2024-01-18_15h43.56.192;REPSWITCH1_version1_list2;2022.2.4;143.878267;
REPSWITCH1/PICTURE_728.png;pulpo;type;darkblue;filler;1;F;1;1;2;1;Stim8_Set4;1;switch;126;125;24;0;125;125;125;;;;;;;;;;;;;;;;;;;;;;;632.898486;634.0306266;634.0306266;634.0306266;634.0306266;634.0306266;634.0306266;634.0306266;634.0306266;['p', 'u', 'l', 'p', 'o'];0;pulpo;C:\2023\REPSWITCH21092023\REPSWITCH_excgange\REPSWITCH_excgange\data/430102_REPSWITCH1_version1_list2_2024-01-18_15h43.56.192_micRespv1l2_recorded\recording_micRespv1l2_2024-01-18_15h54.00.637.wav;637.0518296;637.5518994;None;637.0518296;637.0518296;637.0518296;637.0518296;637.0518296;637.0518296;[1.3085610996931791, 1.6896369997411966, 2.031252699904144, 2.268455999903381, 2.4180236998945475];;;;;;430102;1;2024-01-18_15h43.56.192;REPSWITCH1_version1_list2;2022.2.4;143.878267;
REPSWITCH1/PICTURE_169.png;espalda;type;darkblue;nontarget;1;NT;1;1;2;1;Stim8_Set1;1;repeat;127;126;25;0;126;126;126;;;;;;;;;;;;;;;;;;;;;;;637.5518994;638.607654;638.607654;638.607654;638.607654;638.607654;638.607654;638.607654;638.607654;['e', 's', 'p', 'a', 'l', 'd', 'a'];0;espalda;C:\2023\REPSWITCH21092023\REPSWITCH_excgange\REPSWITCH_excgange\data/430102_REPSWITCH1_version1_list2_2024-01-18_15h43.56.192_micRespv1l2_recorded\recording_micRespv1l2_2024-01-18_15h54.05.214.wav;641.6358341;642.1358326;None;641.6358341;641.6358341;641.6358341;641.6358341;641.6358341;641.6358341;[0.8953641997650266, 1.0484338998794556, 1.234503099694848, 1.3972893999889493, 1.5485145999118686, 1.7468689000234008, 1.842547900043428];;;;;;430102;1;2024-01-18_15h43.56.192;REPSWITCH1_version1_list2;2022.2.4;143.878267;
REPSWITCH1/PICTURE_169.png;espalda;speak;gold;switch;2;T;1;1;2;1;Stim8_Set1;0;None;128;127;26;0;127;127;127;;;;;;;;;;;;;;;;;;;;;;;642.1358326;643.2193253;643.2193253;643.2193253;643.2193253;643.2193253;643.2193253;643.2193253;643.2193253;None;0;;C:\2023\REPSWITCH21092023\REPSWITCH_excgange\REPSWITCH_excgange\data/430102_REPSWITCH1_version1_list2_2024-01-18_15h43.56.192_micRespv1l2_recorded\recording_micRespv1l2_2024-01-18_15h54.09.825.wav;646.240502;646.7405637;None;646.240502;646.240502;646.240502;646.240502;646.240502;646.240502;;;;;;;430102;1;2024-01-18_15h43.56.192;REPSWITCH1_version1_list2;2022.2.4;143.878267;
REPSWITCH1/PICTURE_178.png;puente;speak;gold;filler;2;F;2;1;2;1;Stim1_Set1;0;None;129;128;27;0;128;128;128;;;;;;;;;;;;;;;;;;;;;;;646.7405637;647.831039;647.831039;647.831039;647.831039;647.831039;647.831039;647.831039;647.831039;None;0;;C:\2023\REPSWITCH21092023\REPSWITCH_excgange\REPSWITCH_excgange\data/430102_REPSWITCH1_version1_list2_2024-01-18_15h43.56.192_micRespv1l2_recorded\recording_micRespv1l2_2024-01-18_15h54.14.437.wav;650.8591909;;None;650.8591909;650.8591909;650.8591909;650.8591909;650.8591909;650.8591909;;;;;;;430102;1;2024-01-18_15h43.56.192;REPSWITCH1_version1_list2;2022.2.4;143.878267;
REPSWITCH1/PICTURE_175.png;pintor;type;darkblue;nontarget;1;NT;2;1;2;1;Stim1_Set2;1;switch;130;129;28;0;129;129;129;;;;;;;;;;;;;;;;;;;;;;;651.3592621;652.4497494;652.4497494;652.4497494;652.4497494;652.4497494;652.4497494;652.4497494;652.4497494;['p', 'i', 'n', 't', 'o', 'r'];0;pintor;C:\2023\REPSWITCH21092023\REPSWITCH_excgange\REPSWITCH_excgange\data/430102_REPSWITCH1_version1_list2_2024-01-18_15h43.56.192_micRespv1l2_recorded\recording_micRespv1l2_2024-01-18_15h54.19.056.wav;655.4709185;655.9709819;None;655.4709185;655.4709185;655.4709185;655.4709185;655.4709185;655.4709185;[1.6429149992763996, 1.8504872992634773, 1.9890190996229649, 2.1155936997383833, 2.2202253993600607, 2.3440922992303967];;;;;;430102;1;2024-01-18_15h43.56.192;REPSWITCH1_version1_list2;2022.2.4;143.878267;
REPSWITCH1/PICTURE_175.png;pintor;type;darkblue;repeat;1;T;2;1;2;1;Stim1_Set2;0;None;131;130;29;0;130;130;130;;;;;;;;;;;;;;;;;;;;;;;655.9709819;657.0266705;657.0266705;657.0266705;657.0266705;657.0266705;657.0266705;657.0266705;657.0266705;['p', 'i', 'n', 't', 'o', 'r'];0;pintor;C:\2023\REPSWITCH21092023\REPSWITCH_excgange\REPSWITCH_excgange\data/430102_REPSWITCH1_version1_list2_2024-01-18_15h43.56.192_micRespv1l2_recorded\recording_micRespv1l2_2024-01-18_15h54.23.634.wav;660.0548509;660.5549861;None;660.0548509;660.0548509;660.0548509;660.0548509;660.0548509;660.0548509;[0.7132480992004275, 0.9350770991295576, 1.0858973991125822, 1.254559699445963, 1.3711590999737382, 1.4697414999827743];;;;;;430102;1;2024-01-18_15h43.56.192;REPSWITCH1_version1_list2;2022.2.4;143.878267;
REPSWITCH1/PICTURE_381.png;fresa;speak;gold;filler;2;F;2;1;2;1;Stim2_Set1;0;None;132;131;30;0;131;131;131;;;;;;;;;;;;;;;;;;;;;;;660.5549861;661.5828152;661.5828152;661.5828152;661.5828152;661.5828152;661.5828152;661.5828152;661.5828152;None;0;;C:\2023\REPSWITCH21092023\REPSWITCH_excgange\REPSWITCH_excgange\data/430102_REPSWITCH1_version1_list2_2024-01-18_15h43.56.192_micRespv1l2_recorded\recording_micRespv1l2_2024-01-18_15h54.28.190.wav;664.6110155;;None;664.6110155;664.6110155;664.6110155;664.6110155;664.6110155;664.6110155;;;;;;;430102;1;2024-01-18_15h43.56.192;REPSWITCH1_version1_list2;2022.2.4;143.878267;
REPSWITCH1/PICTURE_152.png;caracol;type;darkblue;nontarget;1;NT;2;1;2;1;Stim2_Set2;1;switch;133;132;31;0;132;132;132;;;;;;;;;;;;;;;;;;;;;;;665.111088;666.2015178;666.2015178;666.2015178;666.2015178;666.2015178;666.2015178;666.2015178;666.2015178;['c', 'a', 'r', 'a', 'c', 'o', 'l'];0;caracol;C:\2023\REPSWITCH21092023\REPSWITCH_excgange\REPSWITCH_excgange\data/430102_REPSWITCH1_version1_list2_2024-01-18_15h43.56.192_micRespv1l2_recorded\recording_micRespv1l2_2024-01-18_15h54.32.807.wav;669.2226845;669.7227884;None;669.2226845;669.2226845;669.2226845;669.2226845;669.2226845;669.2226845;[0.7179757999256253, 0.8306999998167157, 0.9523147996515036, 1.0469824997708201, 1.2861425997689366, 1.4057310996577144, 1.5791645999997854];;;;;;430102;1;2024-01-18_15h43.56.192;REPSWITCH1_version1_list2;2022.2.4;143.878267;
REPSWITCH1/PICTURE_152.png;caracol;type;darkblue;repeat;1;T;2;1;2;1;Stim2_Set2;0;None;134;133;32;0;133;133;133;;;;;;;;;;;;;;;;;;;;;;;669.7227884;670.8896555;670.8896555;670.8896555;670.8896555;670.8896555;670.8896555;670.8896555;670.8896555;['c', 'a', 'r', 'a', 'c', 'o', 'l'];0;caracol;C:\2023\REPSWITCH21092023\REPSWITCH_excgange\REPSWITCH_excgange\data/430102_REPSWITCH1_version1_list2_2024-01-18_15h43.56.192_micRespv1l2_recorded\recording_micRespv1l2_2024-01-18_15h54.37.496.wav;673.9107934;674.4109006;None;673.9107934;673.9107934;673.9107934;673.9107934;673.9107934;673.9107934;[0.82769659999758, 0.9487482002004981, 1.0693533001467586, 1.1620402000844479, 1.3366098999977112, 1.4560572002083063, 1.6067308997735381];;;;;;430102;1;2024-01-18_15h43.56.192;REPSWITCH1_version1_list2;2022.2.4;143.878267;
REPSWITCH1/PICTURE_128.png;muñeca;speak;gold;filler;2;F;2;1;2;1;Stim4_Set1;0;None;135;134;33;0;134;134;134;;;;;;;;;;;;;;;;;;;;;;;674.4109006;675.4944426;675.4944426;675.4944426;675.4944426;675.4944426;675.4944426;675.4944426;675.4944426;None;0;;C:\2023\REPSWITCH21092023\REPSWITCH_excgange\REPSWITCH_excgange\data/430102_REPSWITCH1_version1_list2_2024-01-18_15h43.56.192_micRespv1l2_recorded\recording_micRespv1l2_2024-01-18_15h54.42.101.wav;678.5225221;;None;678.5225221;678.5225221;678.5225221;678.5225221;678.5225221;678.5225221;;;;;;;430102;1;2024-01-18_15h43.56.192;REPSWITCH1_version1_list2;2022.2.4;143.878267;
REPSWITCH1/PICTURE_264.png;mano;type;darkblue;nontarget;1;NT;2;1;2;1;Stim3_Set2;0;None;136;135;34;0;135;135;135;;;;;;;;;;;;;;;;;;;;;;;679.0226619;680.1061001;680.1061001;680.1061001;680.1061001;680.1061001;680.1061001;680.1061001;680.1061001;['m', 'a', 'n', 'o'];0;mano;C:\2023\REPSWITCH21092023\REPSWITCH_excgange\REPSWITCH_excgange\data/430102_REPSWITCH1_version1_list2_2024-01-18_15h43.56.192_micRespv1l2_recorded\recording_micRespv1l2_2024-01-18_15h54.46.712.wav;683.127326;683.6273841;None;683.127326;683.127326;683.127326;683.127326;683.127326;683.127326;[0.8153750002384186, 0.9043664000928402, 0.9966361997649074, 1.1254455000162125];;;;;;430102;1;2024-01-18_15h43.56.192;REPSWITCH1_version1_list2;2022.2.4;143.878267;
REPSWITCH1/PICTURE_264.png;mano;speak;gold;switch;2;T;2;1;2;1;Stim3_Set2;0;None;137;136;35;0;136;136;136;;;;;;;;;;;;;;;;;;;;;;;683.6273841;684.6969452;684.6969452;684.6969452;684.6969452;684.6969452;684.6969452;684.6969452;684.6969452;None;0;;C:\2023\REPSWITCH21092023\REPSWITCH_excgange\REPSWITCH_excgange\data/430102_REPSWITCH1_version1_list2_2024-01-18_15h43.56.192_micRespv1l2_recorded\recording_micRespv1l2_2024-01-18_15h54.51.303.wav;687.718163;688.2182629;None;687.718163;687.718163;687.718163;687.718163;687.718163;687.718163;;;;;;;430102;1;2024-01-18_15h43.56.192;REPSWITCH1_version1_list2;2022.2.4;143.878267;
REPSWITCH1/PICTURE_517.png;cuerda;speak;gold;nontarget;2;NT;2;1;2;1;Stim4_Set2;1;repeat;138;137;36;0;137;137;137;;;;;;;;;;;;;;;;;;;;;;;688.2182629;689.2461957;689.2461957;689.2461957;689.2461957;689.2461957;689.2461957;689.2461957;689.2461957;None;0;;C:\2023\REPSWITCH21092023\REPSWITCH_excgange\REPSWITCH_excgange\data/430102_REPSWITCH1_version1_list2_2024-01-18_15h43.56.192_micRespv1l2_recorded\recording_micRespv1l2_2024-01-18_15h54.55.853.wav;692.2674046;692.7674436;None;692.2674046;692.2674046;692.2674046;692.2674046;692.2674046;692.2674046;;;;;;;430102;1;2024-01-18_15h43.56.192;REPSWITCH1_version1_list2;2022.2.4;143.878267;
REPSWITCH1/PICTURE_517.png;cuerda;type;darkblue;switch;1;T;2;1;2;1;Stim4_Set2;0;None;139;138;37;0;138;138;138;;;;;;;;;;;;;;;;;;;;;;;692.7674436;694.0037458;694.0037458;694.0037458;694.0037458;694.0037458;694.0037458;694.0037458;694.0037458;['c', 'u', 'e', 'r', 'd', 'a'];0;cuerda;C:\2023\REPSWITCH21092023\REPSWITCH_excgange\REPSWITCH_excgange\data/430102_REPSWITCH1_version1_list2_2024-01-18_15h43.56.192_micRespv1l2_recorded\recording_micRespv1l2_2024-01-18_15h55.00.610.wav;697.0249809;697.5250243;None;697.0249809;697.0249809;697.0249809;697.0249809;697.0249809;697.0249809;[0.9633938996121287, 1.18926540017128, 1.2869367999956012, 1.372647600248456, 1.5191706996411085, 1.9676596000790596];;;;;;430102;1;2024-01-18_15h43.56.192;REPSWITCH1_version1_list2;2022.2.4;143.878267;
REPSWITCH1/PICTURE_135.png;traje;type;darkblue;filler;1;F;2;1;2;1;Stim3_Set1;0;None;140;139;38;0;139;139;139;;;;;;;;;;;;;;;;;;;;;;;697.5250243;698.7613678;698.7613678;698.7613678;698.7613678;698.7613678;698.7613678;698.7613678;698.7613678;['t', 'r', 'a', 'j', 'e'];0;traje;C:\2023\REPSWITCH21092023\REPSWITCH_excgange\REPSWITCH_excgange\data/430102_REPSWITCH1_version1_list2_2024-01-18_15h43.56.192_micRespv1l2_recorded\recording_micRespv1l2_2024-01-18_15h55.05.367.wav;701.7825043;702.2825853;None;701.7825043;701.7825043;701.7825043;701.7825043;701.7825043;701.7825043;[0.8058712994679809, 0.8627231996506453, 0.9755033999681473, 1.1544796992093325, 1.2052794992923737];;;;;;430102;1;2024-01-18_15h43.56.192;REPSWITCH1_version1_list2;2022.2.4;143.878267;
REPSWITCH1/PICTURE_30.png;granja;type;darkblue;nontarget;1;NT;2;1;2;1;Stim5_Set2;1;repeat;141;140;39;0;140;140;140;;;;;;;;;;;;;;;;;;;;;;;702.2825853;703.3661039;703.3661039;703.3661039;703.3661039;703.3661039;703.3661039;703.3661039;703.3661039;['g', 'r', 'a', 'n', 'j', 'a'];0;granja;C:\2023\REPSWITCH21092023\REPSWITCH_excgange\REPSWITCH_excgange\data/430102_REPSWITCH1_version1_list2_2024-01-18_15h43.56.192_micRespv1l2_recorded\recording_micRespv1l2_2024-01-18_15h55.09.972.wav;706.3943318;;None;706.3943318;706.3943318;706.3943318;706.3943318;706.3943318;706.3943318;[0.8982056993991137, 0.9926778990775347, 1.070376099087298, 1.4139729999005795, 1.595389699563384, 1.6810995992273092];;;;;;430102;1;2024-01-18_15h43.56.192;REPSWITCH1_version1_list2;2022.2.4;143.878267;
REPSWITCH1/PICTURE_30.png;granja;speak;gold;switch;2;T;2;1;2;1;Stim5_Set2;0;None;142;141;40;0;141;141;141;;;;;;;;;;;;;;;;;;;;;;;706.8943237;707.970828;707.970828;707.970828;707.970828;707.970828;707.970828;707.970828;707.970828;None;0;;C:\2023\REPSWITCH21092023\REPSWITCH_excgange\REPSWITCH_excgange\data/430102_REPSWITCH1_version1_list2_2024-01-18_15h43.56.192_micRespv1l2_recorded\recording_micRespv1l2_2024-01-18_15h55.14.579.wav;710.9990438;711.499096;None;710.9990438;710.9990438;710.9990438;710.9990438;710.9990438;710.9990438;;;;;;;430102;1;2024-01-18_15h43.56.192;REPSWITCH1_version1_list2;2022.2.4;143.878267;
