image;correctAns;respModal;frameColor;repSwitch;sequence;target;set;block;list;exp_version;stimulus;baseline;baseline_condition;trial_no;psychopy_trial;Column1;trialsREPSWITCH.thisRepN;trialsREPSWITCH.thisTrialN;trialsREPSWITCH.thisN;trialsREPSWITCH.thisIndex;textWelcome.started;textboxInstrMain1.started;textboxInstrMain1_2.started;textboxInstrMain1_3.started;keyInstrMain.started;keyInstrMain.keys;keyInstrMain.rt;textboxInstrMain2.started;textboxInstrMain2_2.started;textboxInstrMain2_3.started;textboxInstrMain2_4.started;textboxInstrMain2_5.started;textboxInstrMain2_6.started;textboxInstrMain2_7.started;textboxInstrMain2_8.started;textboxInstrMain2_9.started;textboxInstrMain2_10.started;textboxInstrMain2_11.started;textboxInstrMain2_12.started;keyInstrMain2.started;keyInstrMain2.keys;keyInstrMain2.rt;fixationITI.started;fixationITI.stopped;polygonColour.started;polygonWhite.started;imageObject.started;polygonType.started;textInput.started;keyResp.started;micRespv2l2.started;keyResp.keys;keyResp.corr;subjResponse;micRespv2l2.clip;textBlankLoop.started;textBlankLoop.stopped;keyPause.keys;polygonColour.stopped;polygonWhite.stopped;imageObject.stopped;polygonType.stopped;textInput.stopped;keyResp.stopped;keyResp.rt;textboxPause.started;keyPause.started;keyPause.rt;textboxGoodbye.started;textboxGoodbye.stopped;participant;session;date;expName;psychopyVersion;frameRate;Column2
;;;;;;;;;;;;;;;;;;;;;9.7570789;12.2538516;12.2538516;12.2538516;12.2538516;space;7.312341699;;;;;;;;;;;;;;;;;;;;;;;;;;;;;;;;;;;;;;;;;;;;440202;1;2024-01-19_14h56.06.787;REPSWITCH1_version2_list2;2022.2.4;143.9924194;
;;;;;;;;;;;;;;;;;;;;;;;;;;;;19.5811453;19.5811453;19.5811453;19.5811453;19.5811453;19.5811453;19.5811453;19.5811453;19.5811453;19.5811453;19.5811453;19.5811453;19.5811453;space;1.7946309;;;;;;;;;;;;;;;;;;;;;;;;;;;;;440202;1;2024-01-19_14h56.06.787;REPSWITCH1_version2_list2;2022.2.4;143.9924194;
REPSWITCH1/PICTURE_646.png;tronco;speak;darkblue;filler;2;F;1;3;2;2;Extra4;0;None;1;0;1;0;0;0;0;;;;;;;;;;;;;;;;;;;;;;;21.4702915;22.5399098;22.5399098;22.5399098;22.5399098;22.5399098;22.5399098;22.5399098;22.5399098;None;0;;C:\2023\REPSWITCH21092023\REPSWITCH_excgange\REPSWITCH_excgange\data/440202_REPSWITCH1_version2_list2_2024-01-19_14h56.06.787_micRespv2l2_recorded\recording_micRespv2l2_2024-01-19_14h56.24.350.wav;25.5611277;26.0611551;None;;;;;;;;;;;;;440202;1;2024-01-19_14h56.06.787;REPSWITCH1_version2_list2;2022.2.4;143.9924194;
REPSWITCH1/PICTURE_340.png;espejo;type;gold;filler;1;F;1;3;2;2;Extra1;0;None;2;1;2;0;1;1;1;;;;;;;;;;;;;;;;;;;;;;;26.0611551;27.1446129;27.1446129;27.1446129;27.1446129;27.1446129;27.1446129;27.1446129;27.1446129;['e', 's', 'p', 'e', 'j', 'o'];0;espejo;C:\2023\REPSWITCH21092023\REPSWITCH_excgange\REPSWITCH_excgange\data/440202_REPSWITCH1_version2_list2_2024-01-19_14h56.06.787_micRespv2l2_recorded\recording_micRespv2l2_2024-01-19_14h56.28.958.wav;30.1727797;;None;30.1727797;30.1727797;30.1727797;30.1727797;30.1727797;30.1727797;[0.9729004995897412, 1.1925350995734334, 1.3584231995046139, 1.4869884988293052, 1.6946178991347551, 1.9019171996042132];;;;;;440202;1;2024-01-19_14h56.06.787;REPSWITCH1_version2_list2;2022.2.4;143.9924194;
REPSWITCH1/PICTURE_338.png;regalo;speak;darkblue;filler;2;F;1;3;2;2;Stim6_Set4;0;None;3;2;3;0;2;2;2;;;;;;;;;;;;;;;;;;;;;;;30.6728435;31.7563203;31.7563203;31.7563203;31.7563203;31.7563203;31.7563203;31.7563203;31.7563203;None;0;;C:\2023\REPSWITCH21092023\REPSWITCH_excgange\REPSWITCH_excgange\data/440202_REPSWITCH1_version2_list2_2024-01-19_14h56.06.787_micRespv2l2_recorded\recording_micRespv2l2_2024-01-19_14h56.33.570.wav;34.7845124;35.2845768;None;34.7845124;34.7845124;34.7845124;34.7845124;34.7845124;34.7845124;;;;;;;440202;1;2024-01-19_14h56.06.787;REPSWITCH1_version2_list2;2022.2.4;143.9924194;
REPSWITCH1/PICTURE_142.png;vaso;speak;darkblue;nontarget;2;NT;1;3;2;2;Stim7_Set1;1;repeat;4;3;4;0;3;3;3;;;;;;;;;;;;;;;;;;;;;;;35.2845768;36.4652956;36.4652956;36.4652956;36.4652956;36.4652956;36.4652956;36.4652956;36.4652956;None;0;;C:\2023\REPSWITCH21092023\REPSWITCH_excgange\REPSWITCH_excgange\data/440202_REPSWITCH1_version2_list2_2024-01-19_14h56.06.787_micRespv2l2_recorded\recording_micRespv2l2_2024-01-19_14h56.38.278.wav;39.486587;39.9865634;None;39.486587;39.486587;39.486587;39.486587;39.486587;39.486587;;;;;;;440202;1;2024-01-19_14h56.06.787;REPSWITCH1_version2_list2;2022.2.4;143.9924194;
REPSWITCH1/PICTURE_142.png;vaso;speak;darkblue;repeat;2;T;1;3;2;2;Stim7_Set1;0;None;5;4;5;0;4;4;4;;;;;;;;;;;;;;;;;;;;;;;39.9865634;41.063133;41.063133;41.063133;41.063133;41.063133;41.063133;41.063133;41.063133;None;0;;C:\2023\REPSWITCH21092023\REPSWITCH_excgange\REPSWITCH_excgange\data/440202_REPSWITCH1_version2_list2_2024-01-19_14h56.06.787_micRespv2l2_recorded\recording_micRespv2l2_2024-01-19_14h56.42.876.wav;44.0843349;44.5843959;None;44.0843349;44.0843349;44.0843349;44.0843349;44.0843349;44.0843349;;;;;;;440202;1;2024-01-19_14h56.06.787;REPSWITCH1_version2_list2;2022.2.4;143.9924194;
REPSWITCH1/PICTURE_498.png;taza;type;gold;filler;1;F;1;3;2;2;Stim4_Set4;0;None;6;5;6;0;5;5;5;;;;;;;;;;;;;;;;;;;;;;;44.5843959;45.6748071;45.6748071;45.6748071;45.6748071;45.6748071;45.6748071;45.6748071;45.6748071;['t', 'a', 'z', 'a'];0;taza;C:\2023\REPSWITCH21092023\REPSWITCH_excgange\REPSWITCH_excgange\data/440202_REPSWITCH1_version2_list2_2024-01-19_14h56.06.787_micRespv2l2_recorded\recording_micRespv2l2_2024-01-19_14h56.47.488.wav;48.7029594;;None;48.7029594;48.7029594;48.7029594;48.7029594;48.7029594;48.7029594;[0.9748220993205905, 1.158660899847746, 1.4008109997957945, 1.4776298990473151];;;;;;440202;1;2024-01-19_14h56.06.787;REPSWITCH1_version2_list2;2022.2.4;143.9924194;
REPSWITCH1/PICTURE_16.png;cazador;speak;darkblue;nontarget;2;NT;1;3;2;2;Stim6_Set1;1;switch;7;6;7;0;6;6;6;;;;;;;;;;;;;;;;;;;;;;;49.2030508;50.3074357;50.3074357;50.3074357;50.3074357;50.3074357;50.3074357;50.3074357;50.3074357;None;0;;C:\2023\REPSWITCH21092023\REPSWITCH_excgange\REPSWITCH_excgange\data/440202_REPSWITCH1_version2_list2_2024-01-19_14h56.06.787_micRespv2l2_recorded\recording_micRespv2l2_2024-01-19_14h56.52.121.wav;53.3355244;;None;53.3355244;53.3355244;53.3355244;53.3355244;53.3355244;53.3355244;;;;;;;440202;1;2024-01-19_14h56.06.787;REPSWITCH1_version2_list2;2022.2.4;143.9924194;
REPSWITCH1/PICTURE_16.png;cazador;speak;darkblue;repeat;2;T;1;3;2;2;Stim6_Set1;0;None;8;7;8;0;7;7;7;;;;;;;;;;;;;;;;;;;;;;;53.8355956;54.9190858;54.9190858;54.9190858;54.9190858;54.9190858;54.9190858;54.9190858;54.9190858;None;0;;C:\2023\REPSWITCH21092023\REPSWITCH_excgange\REPSWITCH_excgange\data/440202_REPSWITCH1_version2_list2_2024-01-19_14h56.06.787_micRespv2l2_recorded\recording_micRespv2l2_2024-01-19_14h56.56.732.wav;57.9472462;;None;57.9472462;57.9472462;57.9472462;57.9472462;57.9472462;57.9472462;;;;;;;440202;1;2024-01-19_14h56.06.787;REPSWITCH1_version2_list2;2022.2.4;143.9924194;
REPSWITCH1/PICTURE_719.png;baño;type;gold;filler;1;F;1;3;2;2;Stim2_Set4;0;None;9;8;9;0;8;8;8;;;;;;;;;;;;;;;;;;;;;;;58.4473137;59.586422;59.586422;59.586422;59.586422;59.586422;59.586422;59.586422;59.586422;['b', 'a', 'ñ', 'o'];0;baño;C:\2023\REPSWITCH21092023\REPSWITCH_excgange\REPSWITCH_excgange\data/440202_REPSWITCH1_version2_list2_2024-01-19_14h56.06.787_micRespv2l2_recorded\recording_micRespv2l2_2024-01-19_14h57.01.399.wav;62.6075796;63.107633;None;62.6075796;62.6075796;62.6075796;62.6075796;62.6075796;62.6075796;[1.110941999591887, 1.2454539993777871, 1.6069826995953918, 1.7734319996088743];;;;;;440202;1;2024-01-19_14h56.06.787;REPSWITCH1_version2_list2;2022.2.4;143.9924194;
REPSWITCH1/PICTURE_169.png;espalda;speak;darkblue;nontarget;2;NT;1;3;2;2;Stim8_Set1;0;None;10;9;10;0;9;9;9;;;;;;;;;;;;;;;;;;;;;;;63.107633;64.2327604;64.2327604;64.2327604;64.2327604;64.2327604;64.2327604;64.2327604;64.2327604;None;0;;C:\2023\REPSWITCH21092023\REPSWITCH_excgange\REPSWITCH_excgange\data/440202_REPSWITCH1_version2_list2_2024-01-19_14h56.06.787_micRespv2l2_recorded\recording_micRespv2l2_2024-01-19_14h57.06.047.wav;67.2609315;;None;67.2609315;67.2609315;67.2609315;67.2609315;67.2609315;67.2609315;;;;;;;440202;1;2024-01-19_14h56.06.787;REPSWITCH1_version2_list2;2022.2.4;143.9924194;
REPSWITCH1/PICTURE_169.png;espalda;type;gold;switch;1;T;1;3;2;2;Stim8_Set1;0;None;11;10;11;0;10;10;10;;;;;;;;;;;;;;;;;;;;;;;67.761032;68.7958603;68.7958603;68.7958603;68.7958603;68.7958603;68.7958603;68.7958603;68.7958603;['e', 's', 'p', 'a', 'l', 'd', 'a'];0;espalda;C:\2023\REPSWITCH21092023\REPSWITCH_excgange\REPSWITCH_excgange\data/440202_REPSWITCH1_version2_list2_2024-01-19_14h56.06.787_micRespv2l2_recorded\recording_micRespv2l2_2024-01-19_14h57.10.608.wav;71.8171072;72.3171687;None;71.8171072;71.8171072;71.8171072;71.8171072;71.8171072;71.8171072;[1.1821571998298168, 1.393669799901545, 1.533797299489379, 1.66954099945724, 1.7592426994815469, 2.0711618000641465, 2.165734499692917];;;;;;440202;1;2024-01-19_14h56.06.787;REPSWITCH1_version2_list2;2022.2.4;143.9924194;
REPSWITCH1/PICTURE_687.png;camisa;type;gold;filler;1;F;1;3;2;2;Stim5_Set4;0;None;12;11;12;0;11;11;11;;;;;;;;;;;;;;;;;;;;;;;72.3171687;73.4839623;73.4839623;73.4839623;73.4839623;73.4839623;73.4839623;73.4839623;73.4839623;['c', 'a', 'm', 'i', 's', 'a'];0;camisa;C:\2023\REPSWITCH21092023\REPSWITCH_excgange\REPSWITCH_excgange\data/440202_REPSWITCH1_version2_list2_2024-01-19_14h56.06.787_micRespv2l2_recorded\recording_micRespv2l2_2024-01-19_14h57.15.297.wav;76.5121502;;None;76.5121502;76.5121502;76.5121502;76.5121502;76.5121502;76.5121502;[1.4421211993321776, 1.5756712993606925, 1.8155511990189552, 1.958118898794055, 2.0861340994015336, 2.2847009990364313];;;;;;440202;1;2024-01-19_14h56.06.787;REPSWITCH1_version2_list2;2022.2.4;143.9924194;
REPSWITCH1/PICTURE_178.png;puente;type;gold;nontarget;1;NT;1;3;2;2;Stim1_Set1;1;repeat;13;12;13;0;12;12;12;;;;;;;;;;;;;;;;;;;;;;;77.0122202;78.0332089;78.0332089;78.0332089;78.0332089;78.0332089;78.0332089;78.0332089;78.0332089;['p', 'u', 'e', 'n', 't', 'e'];0;puente;C:\2023\REPSWITCH21092023\REPSWITCH_excgange\REPSWITCH_excgange\data/440202_REPSWITCH1_version2_list2_2024-01-19_14h56.06.787_micRespv2l2_recorded\recording_micRespv2l2_2024-01-19_14h57.19.847.wav;81.0613635;;None;81.0613635;81.0613635;81.0613635;81.0613635;81.0613635;81.0613635;[1.4224725998938084, 1.8094178000465035, 2.120376699604094, 2.233996099792421, 2.4257554998621345, 2.5213991003111005];;;;;;440202;1;2024-01-19_14h56.06.787;REPSWITCH1_version2_list2;2022.2.4;143.9924194;
REPSWITCH1/PICTURE_178.png;puente;speak;darkblue;switch;2;T;1;3;2;2;Stim1_Set1;0;None;14;13;14;0;13;13;13;;;;;;;;;;;;;;;;;;;;;;;81.5614429;82.7351696;82.7351696;82.7351696;82.7351696;82.7351696;82.7351696;82.7351696;82.7351696;None;0;;C:\2023\REPSWITCH21092023\REPSWITCH_excgange\REPSWITCH_excgange\data/440202_REPSWITCH1_version2_list2_2024-01-19_14h56.06.787_micRespv2l2_recorded\recording_micRespv2l2_2024-01-19_14h57.24.548.wav;85.7633707;;None;85.7633707;85.7633707;85.7633707;85.7633707;85.7633707;85.7633707;;;;;;;440202;1;2024-01-19_14h56.06.787;REPSWITCH1_version2_list2;2022.2.4;143.9924194;
REPSWITCH1/PICTURE_128.png;muñeca;speak;darkblue;nontarget;2;NT;1;3;2;2;Stim4_Set1;1;repeat;15;14;15;0;14;14;14;;;;;;;;;;;;;;;;;;;;;;;86.2634205;87.3261222;87.3261222;87.3261222;87.3261222;87.3261222;87.3261222;87.3261222;87.3261222;None;0;;C:\2023\REPSWITCH21092023\REPSWITCH_excgange\REPSWITCH_excgange\data/440202_REPSWITCH1_version2_list2_2024-01-19_14h56.06.787_micRespv2l2_recorded\recording_micRespv2l2_2024-01-19_14h57.29.141.wav;90.3542282;;None;90.3542282;90.3542282;90.3542282;90.3542282;90.3542282;90.3542282;;;;;;;440202;1;2024-01-19_14h56.06.787;REPSWITCH1_version2_list2;2022.2.4;143.9924194;
REPSWITCH1/PICTURE_128.png;muñeca;type;gold;switch;1;T;1;3;2;2;Stim4_Set1;0;None;16;15;16;0;15;15;15;;;;;;;;;;;;;;;;;;;;;;;90.8542805;91.9724824;91.9724824;91.9724824;91.9724824;91.9724824;91.9724824;91.9724824;91.9724824;['m', 'u', 'e', 'backspace', 'ñ', 'e'];0;muñe;C:\2023\REPSWITCH21092023\REPSWITCH_excgange\REPSWITCH_excgange\data/440202_REPSWITCH1_version2_list2_2024-01-19_14h56.06.787_micRespv2l2_recorded\recording_micRespv2l2_2024-01-19_14h57.33.785.wav;94.9937943;95.4937571;None;94.9937943;94.9937943;94.9937943;94.9937943;94.9937943;94.9937943;[0.985576999373734, 1.1703524999320507, 1.5722966995090246, 2.5109660997986794, 2.7885321993380785, 2.917054600082338];;;;;;440202;1;2024-01-19_14h56.06.787;REPSWITCH1_version2_list2;2022.2.4;143.9924194;
REPSWITCH1/PICTURE_319.png;vaca;speak;darkblue;filler;2;F;1;3;2;2;Stim1_Set4;1;switch;17;16;17;0;16;16;16;;;;;;;;;;;;;;;;;;;;;;;95.4937571;96.5980771;96.5980771;96.5980771;96.5980771;96.5980771;96.5980771;96.5980771;96.5980771;None;0;;C:\2023\REPSWITCH21092023\REPSWITCH_excgange\REPSWITCH_excgange\data/440202_REPSWITCH1_version2_list2_2024-01-19_14h56.06.787_micRespv2l2_recorded\recording_micRespv2l2_2024-01-19_14h57.38.411.wav;99.6193002;100.1193873;None;99.6193002;99.6193002;99.6193002;99.6193002;99.6193002;99.6193002;;;;;;;440202;1;2024-01-19_14h56.06.787;REPSWITCH1_version2_list2;2022.2.4;143.9924194;
REPSWITCH1/PICTURE_728.png;pulpo;speak;darkblue;filler;2;F;1;3;2;2;Stim8_Set4;0;None;18;17;18;0;17;17;17;;;;;;;;;;;;;;;;;;;;;;;100.1193873;101.2723288;101.2723288;101.2723288;101.2723288;101.2723288;101.2723288;101.2723288;101.2723288;None;0;;C:\2023\REPSWITCH21092023\REPSWITCH_excgange\REPSWITCH_excgange\data/440202_REPSWITCH1_version2_list2_2024-01-19_14h56.06.787_micRespv2l2_recorded\recording_micRespv2l2_2024-01-19_14h57.43.085.wav;104.2935408;104.7936513;None;104.2935408;104.2935408;104.2935408;104.2935408;104.2935408;104.2935408;;;;;;;440202;1;2024-01-19_14h56.06.787;REPSWITCH1_version2_list2;2022.2.4;143.9924194;
REPSWITCH1/PICTURE_381.png;fresa;type;gold;nontarget;1;NT;1;3;2;2;Stim2_Set1;1;switch;19;18;19;0;18;18;18;;;;;;;;;;;;;;;;;;;;;;;104.7936513;105.9674245;105.9674245;105.9674245;105.9674245;105.9674245;105.9674245;105.9674245;105.9674245;['f', 'r', 'e', 's', 'a'];0;fresa;C:\2023\REPSWITCH21092023\REPSWITCH_excgange\REPSWITCH_excgange\data/440202_REPSWITCH1_version2_list2_2024-01-19_14h56.06.787_micRespv2l2_recorded\recording_micRespv2l2_2024-01-19_14h57.47.780.wav;108.9885948;109.488657;None;108.9885948;108.9885948;108.9885948;108.9885948;108.9885948;108.9885948;[1.034019399434328, 1.1762466989457607, 1.3352150991559029, 1.5095673995092511, 1.643109398894012];;;;;;440202;1;2024-01-19_14h56.06.787;REPSWITCH1_version2_list2;2022.2.4;143.9924194;
REPSWITCH1/PICTURE_381.png;fresa;type;gold;repeat;1;T;1;3;2;2;Stim2_Set1;0;None;20;19;20;0;19;19;19;;;;;;;;;;;;;;;;;;;;;;;109.488657;110.5790771;110.5790771;110.5790771;110.5790771;110.5790771;110.5790771;110.5790771;110.5790771;['f', 'r', 'e', 's', 'a'];0;fresa;C:\2023\REPSWITCH21092023\REPSWITCH_excgange\REPSWITCH_excgange\data/440202_REPSWITCH1_version2_list2_2024-01-19_14h56.06.787_micRespv2l2_recorded\recording_micRespv2l2_2024-01-19_14h57.52.392.wav;113.6073151;;None;113.6073151;113.6073151;113.6073151;113.6073151;113.6073151;113.6073151;[1.0381699996069074, 1.1887170001864433, 1.3162771994248033, 1.4906864995136857, 1.6650996999815106];;;;;;440202;1;2024-01-19_14h56.06.787;REPSWITCH1_version2_list2;2022.2.4;143.9924194;
REPSWITCH1/PICTURE_8.png;pierna;speak;darkblue;filler;2;F;1;3;2;2;Stim3_Set4;0;None;21;20;21;0;20;20;20;;;;;;;;;;;;;;;;;;;;;;;114.10731;115.1838843;115.1838843;115.1838843;115.1838843;115.1838843;115.1838843;115.1838843;115.1838843;None;0;;C:\2023\REPSWITCH21092023\REPSWITCH_excgange\REPSWITCH_excgange\data/440202_REPSWITCH1_version2_list2_2024-01-19_14h56.06.787_micRespv2l2_recorded\recording_micRespv2l2_2024-01-19_14h57.56.998.wav;118.2120175;;None;118.2120175;118.2120175;118.2120175;118.2120175;118.2120175;118.2120175;;;;;;;440202;1;2024-01-19_14h56.06.787;REPSWITCH1_version2_list2;2022.2.4;143.9924194;
REPSWITCH1/PICTURE_48.png;bombero;speak;darkblue;filler;2;F;1;3;2;2;Stim7_Set4;0;None;22;21;22;0;21;21;21;;;;;;;;;;;;;;;;;;;;;;;118.7120788;119.7678282;119.7678282;119.7678282;119.7678282;119.7678282;119.7678282;119.7678282;119.7678282;None;0;;C:\2023\REPSWITCH21092023\REPSWITCH_excgange\REPSWITCH_excgange\data/440202_REPSWITCH1_version2_list2_2024-01-19_14h56.06.787_micRespv2l2_recorded\recording_micRespv2l2_2024-01-19_14h58.01.581.wav;122.7890683;123.2890533;None;122.7890683;122.7890683;122.7890683;122.7890683;122.7890683;122.7890683;;;;;;;440202;1;2024-01-19_14h56.06.787;REPSWITCH1_version2_list2;2022.2.4;143.9924194;
REPSWITCH1/PICTURE_135.png;traje;type;gold;nontarget;1;NT;1;3;2;2;Stim3_Set1;1;switch;23;22;23;0;22;22;22;;;;;;;;;;;;;;;;;;;;;;;123.2890533;124.3100275;124.3100275;124.3100275;124.3100275;124.3100275;124.3100275;124.3100275;124.3100275;['t', 'r', 'a', 'j', 'e'];0;traje;C:\2023\REPSWITCH21092023\REPSWITCH_excgange\REPSWITCH_excgange\data/440202_REPSWITCH1_version2_list2_2024-01-19_14h56.06.787_micRespv2l2_recorded\recording_micRespv2l2_2024-01-19_14h58.06.122.wav;127.33126;127.8313191;None;127.33126;127.33126;127.33126;127.33126;127.33126;127.33126;[1.0454802000895143, 1.185050799511373, 1.330090499483049, 1.6011797999963164, 1.7456586994230747];;;;;;440202;1;2024-01-19_14h56.06.787;REPSWITCH1_version2_list2;2022.2.4;143.9924194;
REPSWITCH1/PICTURE_135.png;traje;type;gold;repeat;1;T;1;3;2;2;Stim3_Set1;0;None;24;23;24;0;23;23;23;;;;;;;;;;;;;;;;;;;;;;;127.8313191;128.9356477;128.9356477;128.9356477;128.9356477;128.9356477;128.9356477;128.9356477;128.9356477;['t', 'r', 'a', 'j', 'e'];0;traje;C:\2023\REPSWITCH21092023\REPSWITCH_excgange\REPSWITCH_excgange\data/440202_REPSWITCH1_version2_list2_2024-01-19_14h56.06.787_micRespv2l2_recorded\recording_micRespv2l2_2024-01-19_14h58.10.749.wav;131.9568242;132.4568899;None;131.9568242;131.9568242;131.9568242;131.9568242;131.9568242;131.9568242;[0.8310495996847749, 0.960606299340725, 1.103094699792564, 1.3562481999397278, 1.4848563997074962];;;;;;440202;1;2024-01-19_14h56.06.787;REPSWITCH1_version2_list2;2022.2.4;143.9924194;
REPSWITCH1/PICTURE_19.png;pavo;type;gold;nontarget;1;NT;1;3;2;2;Stim5_Set1;1;repeat;25;24;25;0;24;24;24;;;;;;;;;;;;;;;;;;;;;;;132.4568899;133.6237457;133.6237457;133.6237457;133.6237457;133.6237457;133.6237457;133.6237457;133.6237457;['p', 'a', 'v', 'o'];0;pavo;C:\2023\REPSWITCH21092023\REPSWITCH_excgange\REPSWITCH_excgange\data/440202_REPSWITCH1_version2_list2_2024-01-19_14h56.06.787_micRespv2l2_recorded\recording_micRespv2l2_2024-01-19_14h58.15.438.wav;136.6519493;137.1519317;None;136.6519493;136.6519493;136.6519493;136.6519493;136.6519493;136.6519493;[1.3949497994035482, 1.6151513997465372, 1.802917799912393, 2.086828399449587];;;;;;440202;1;2024-01-19_14h56.06.787;REPSWITCH1_version2_list2;2022.2.4;143.9924194;
REPSWITCH1/PICTURE_19.png;pavo;speak;darkblue;switch;2;T;1;3;2;2;Stim5_Set1;0;None;26;25;26;0;25;25;25;;;;;;;;;;;;;;;;;;;;;;;137.1519317;138.1660636;138.1660636;138.1660636;138.1660636;138.1660636;138.1660636;138.1660636;138.1660636;None;0;;C:\2023\REPSWITCH21092023\REPSWITCH_excgange\REPSWITCH_excgange\data/440202_REPSWITCH1_version2_list2_2024-01-19_14h56.06.787_micRespv2l2_recorded\recording_micRespv2l2_2024-01-19_14h58.19.980.wav;141.1872626;141.6872741;None;141.1872626;141.1872626;141.1872626;141.1872626;141.1872626;141.1872626;;;;;;;440202;1;2024-01-19_14h56.06.787;REPSWITCH1_version2_list2;2022.2.4;143.9924194;
REPSWITCH1/PICTURE_142.png;vaso;speak;darkblue;filler;2;F;2;3;2;2;Stim7_Set1;0;None;27;26;27;0;26;26;26;;;;;;;;;;;;;;;;;;;;;;;141.6872741;142.8263811;142.8263811;142.8263811;142.8263811;142.8263811;142.8263811;142.8263811;142.8263811;None;0;;C:\2023\REPSWITCH21092023\REPSWITCH_excgange\REPSWITCH_excgange\data/440202_REPSWITCH1_version2_list2_2024-01-19_14h56.06.787_micRespv2l2_recorded\recording_micRespv2l2_2024-01-19_14h58.24.639.wav;145.8475441;146.3476008;None;145.8475441;145.8475441;145.8475441;145.8475441;145.8475441;145.8475441;;;;;;;440202;1;2024-01-19_14h56.06.787;REPSWITCH1_version2_list2;2022.2.4;143.9924194;
REPSWITCH1/PICTURE_135.png;traje;type;gold;filler;1;F;2;3;2;2;Stim3_Set1;0;None;28;27;28;0;27;27;27;;;;;;;;;;;;;;;;;;;;;;;146.3476008;147.4033172;147.4033172;147.4033172;147.4033172;147.4033172;147.4033172;147.4033172;147.4033172;['t', 'r', 'a', 'j', 'e'];0;traje;C:\2023\REPSWITCH21092023\REPSWITCH_excgange\REPSWITCH_excgange\data/440202_REPSWITCH1_version2_list2_2024-01-19_14h56.06.787_micRespv2l2_recorded\recording_micRespv2l2_2024-01-19_14h58.29.216.wav;150.4245938;150.9246609;None;150.4245938;150.4245938;150.4245938;150.4245938;150.4245938;150.4245938;[0.8210049998015165, 0.9534932998940349, 1.0681130001321435, 1.3836714997887611, 1.4885851992294192];;;;;;440202;1;2024-01-19_14h56.06.787;REPSWITCH1_version2_list2;2022.2.4;143.9924194;
REPSWITCH1/PICTURE_446.png;cerdo;type;gold;nontarget;1;NT;2;3;2;2;Stim7_Set2;0;None;29;28;29;0;28;28;28;;;;;;;;;;;;;;;;;;;;;;;150.9246609;151.9802999;151.9802999;151.9802999;151.9802999;151.9802999;151.9802999;151.9802999;151.9802999;['c', 'e', 'r', 'd', 'o'];0;cerdo;C:\2023\REPSWITCH21092023\REPSWITCH_excgange\REPSWITCH_excgange\data/440202_REPSWITCH1_version2_list2_2024-01-19_14h56.06.787_micRespv2l2_recorded\recording_micRespv2l2_2024-01-19_14h58.33.793.wav;155.0015955;155.5015815;None;155.0015955;155.0015955;155.0015955;155.0015955;155.0015955;155.0015955;[0.8894567992538214, 1.0207568993791938, 1.05958469863981, 1.2211076989769936, 1.578986898995936];;;;;;440202;1;2024-01-19_14h56.06.787;REPSWITCH1_version2_list2;2022.2.4;143.9924194;
REPSWITCH1/PICTURE_446.png;cerdo;type;gold;repeat;1;T;2;3;2;2;Stim7_Set2;0;None;30;29;30;0;29;29;29;;;;;;;;;;;;;;;;;;;;;;;155.5015815;156.6406291;156.6406291;156.6406291;156.6406291;156.6406291;156.6406291;156.6406291;156.6406291;['c', 'e', 'r', 'd', 'o'];0;cerdo;C:\2023\REPSWITCH21092023\REPSWITCH_excgange\REPSWITCH_excgange\data/440202_REPSWITCH1_version2_list2_2024-01-19_14h56.06.787_micRespv2l2_recorded\recording_micRespv2l2_2024-01-19_14h58.38.454.wav;159.6687472;;None;159.6687472;159.6687472;159.6687472;159.6687472;159.6687472;159.6687472;[0.8398837987333536, 0.9709908990189433, 1.0028631994500756, 1.3461724994704127, 1.56848259922117];;;;;;440202;1;2024-01-19_14h56.06.787;REPSWITCH1_version2_list2;2022.2.4;143.9924194;
REPSWITCH1/PICTURE_16.png;cazador;speak;darkblue;filler;2;F;2;3;2;2;Stim6_Set1;0;None;31;30;31;0;30;30;30;;;;;;;;;;;;;;;;;;;;;;;160.1688192;161.3217904;161.3217904;161.3217904;161.3217904;161.3217904;161.3217904;161.3217904;161.3217904;None;0;;C:\2023\REPSWITCH21092023\REPSWITCH_excgange\REPSWITCH_excgange\data/440202_REPSWITCH1_version2_list2_2024-01-19_14h56.06.787_micRespv2l2_recorded\recording_micRespv2l2_2024-01-19_14h58.43.136.wav;164.3499163;;None;164.3499163;164.3499163;164.3499163;164.3499163;164.3499163;164.3499163;;;;;;;440202;1;2024-01-19_14h56.06.787;REPSWITCH1_version2_list2;2022.2.4;143.9924194;
REPSWITCH1/PICTURE_552.png;manzana;type;gold;nontarget;1;NT;2;3;2;2;Stim6_Set2;1;switch;32;31;32;0;31;31;31;;;;;;;;;;;;;;;;;;;;;;;164.8500089;165.9057662;165.9057662;165.9057662;165.9057662;165.9057662;165.9057662;165.9057662;165.9057662;['m', 'a', 'n', 'z', 'a', 'n', 'a'];0;manzana;C:\2023\REPSWITCH21092023\REPSWITCH_excgange\REPSWITCH_excgange\data/440202_REPSWITCH1_version2_list2_2024-01-19_14h56.06.787_micRespv2l2_recorded\recording_micRespv2l2_2024-01-19_14h58.47.719.wav;168.9269379;169.4269879;None;168.9269379;168.9269379;168.9269379;168.9269379;168.9269379;168.9269379;[1.0532734990119934, 1.1558777987957, 1.2615564987063408, 1.4193106992170215, 1.6146549992263317, 1.7790773995220661, 1.8747803987935185];;;;;;440202;1;2024-01-19_14h56.06.787;REPSWITCH1_version2_list2;2022.2.4;143.9924194;
REPSWITCH1/PICTURE_552.png;manzana;type;gold;repeat;1;T;2;3;2;2;Stim6_Set2;0;None;33;32;33;0;32;32;32;;;;;;;;;;;;;;;;;;;;;;;169.4269879;170.6215895;170.6215895;170.6215895;170.6215895;170.6215895;170.6215895;170.6215895;170.6215895;['m', 'a', 'n', 'z', 'a', 'n', 'a'];0;manzana;C:\2023\REPSWITCH21092023\REPSWITCH_excgange\REPSWITCH_excgange\data/440202_REPSWITCH1_version2_list2_2024-01-19_14h56.06.787_micRespv2l2_recorded\recording_micRespv2l2_2024-01-19_14h58.52.435.wav;173.6497208;;None;173.6497208;173.6497208;173.6497208;173.6497208;173.6497208;173.6497208;[0.7117384998127818, 0.8412982001900673, 0.9868454001843929, 1.1572383996099234, 1.335155500099063, 1.4129135999828577, 1.5374686000868678];;;;;;440202;1;2024-01-19_14h56.06.787;REPSWITCH1_version2_list2;2022.2.4;143.9924194;
REPSWITCH1/PICTURE_517.png;cuerda;type;gold;nontarget;1;NT;2;3;2;2;Stim4_Set2;0;None;34;33;34;0;33;33;33;;;;;;;;;;;;;;;;;;;;;;;174.1497962;175.2541772;175.2541772;175.2541772;175.2541772;175.2541772;175.2541772;175.2541772;175.2541772;['c', 'u', 'e', 'r', 'd', 'a'];0;cuerda;C:\2023\REPSWITCH21092023\REPSWITCH_excgange\REPSWITCH_excgange\data/440202_REPSWITCH1_version2_list2_2024-01-19_14h56.06.787_micRespv2l2_recorded\recording_micRespv2l2_2024-01-19_14h58.57.067.wav;178.2823651;;None;178.2823651;178.2823651;178.2823651;178.2823651;178.2823651;178.2823651;[1.0000953990966082, 1.3080996992066503, 1.623531699180603, 1.74017099943012, 1.8760336991399527, 1.9989764988422394];;;;;;440202;1;2024-01-19_14h56.06.787;REPSWITCH1_version2_list2;2022.2.4;143.9924194;
REPSWITCH1/PICTURE_517.png;cuerda;speak;darkblue;switch;2;T;2;3;2;2;Stim4_Set2;0;None;35;34;35;0;34;34;34;;;;;;;;;;;;;;;;;;;;;;;178.7823671;179.8658622;179.8658622;179.8658622;179.8658622;179.8658622;179.8658622;179.8658622;179.8658622;None;0;;C:\2023\REPSWITCH21092023\REPSWITCH_excgange\REPSWITCH_excgange\data/440202_REPSWITCH1_version2_list2_2024-01-19_14h56.06.787_micRespv2l2_recorded\recording_micRespv2l2_2024-01-19_14h59.01.678.wav;182.8870709;183.387128;None;182.8870709;182.8870709;182.8870709;182.8870709;182.8870709;182.8870709;;;;;;;440202;1;2024-01-19_14h56.06.787;REPSWITCH1_version2_list2;2022.2.4;143.9924194;
REPSWITCH1/PICTURE_169.png;espalda;speak;darkblue;filler;2;F;2;3;2;2;Stim8_Set1;1;repeat;36;35;36;0;35;35;35;;;;;;;;;;;;;;;;;;;;;;;183.387128;184.4914524;184.4914524;184.4914524;184.4914524;184.4914524;184.4914524;184.4914524;184.4914524;None;0;;C:\2023\REPSWITCH21092023\REPSWITCH_excgange\REPSWITCH_excgange\data/440202_REPSWITCH1_version2_list2_2024-01-19_14h56.06.787_micRespv2l2_recorded\recording_micRespv2l2_2024-01-19_14h59.06.304.wav;187.5127358;188.0127048;None;187.5127358;187.5127358;187.5127358;187.5127358;187.5127358;187.5127358;;;;;;;440202;1;2024-01-19_14h56.06.787;REPSWITCH1_version2_list2;2022.2.4;143.9924194;
REPSWITCH1/PICTURE_30.png;granja;speak;darkblue;nontarget;2;NT;2;3;2;2;Stim5_Set2;1;repeat;37;36;37;0;36;36;36;;;;;;;;;;;;;;;;;;;;;;;188.0127048;189.0684907;189.0684907;189.0684907;189.0684907;189.0684907;189.0684907;189.0684907;189.0684907;None;0;;C:\2023\REPSWITCH21092023\REPSWITCH_excgange\REPSWITCH_excgange\data/440202_REPSWITCH1_version2_list2_2024-01-19_14h56.06.787_micRespv2l2_recorded\recording_micRespv2l2_2024-01-19_14h59.10.882.wav;192.0965904;;None;192.0965904;192.0965904;192.0965904;192.0965904;192.0965904;192.0965904;;;;;;;440202;1;2024-01-19_14h56.06.787;REPSWITCH1_version2_list2;2022.2.4;143.9924194;
REPSWITCH1/PICTURE_30.png;granja;type;gold;switch;1;T;2;3;2;2;Stim5_Set2;0;None;38;37;38;0;37;37;37;;;;;;;;;;;;;;;;;;;;;;;192.5966346;193.7565827;193.7565827;193.7565827;193.7565827;193.7565827;193.7565827;193.7565827;193.7565827;['g', 'r', 'a', 'n', 'j', 'a'];0;granja;C:\2023\REPSWITCH21092023\REPSWITCH_excgange\REPSWITCH_excgange\data/440202_REPSWITCH1_version2_list2_2024-01-19_14h56.06.787_micRespv2l2_recorded\recording_micRespv2l2_2024-01-19_14h59.15.570.wav;196.7846753;;None;196.7846753;196.7846753;196.7846753;196.7846753;196.7846753;196.7846753;[1.0560280000790954, 1.2361373994499445, 1.3826751997694373, 1.5830017002299428, 1.750742799602449, 1.8523848000913858];;;;;;440202;1;2024-01-19_14h56.06.787;REPSWITCH1_version2_list2;2022.2.4;143.9924194;
REPSWITCH1/PICTURE_128.png;muñeca;type;gold;filler;1;F;2;3;2;2;Stim4_Set1;1;repeat;39;38;39;0;38;38;38;;;;;;;;;;;;;;;;;;;;;;;197.2847391;198.3752377;198.3752377;198.3752377;198.3752377;198.3752377;198.3752377;198.3752377;198.3752377;['m', 'u', 'ñ', 'e', 'c', 'a'];0;muñeca;C:\2023\REPSWITCH21092023\REPSWITCH_excgange\REPSWITCH_excgange\data/440202_REPSWITCH1_version2_list2_2024-01-19_14h56.06.787_micRespv2l2_recorded\recording_micRespv2l2_2024-01-19_14h59.20.189.wav;201.4033148;201.9034223;None;201.4033148;201.4033148;201.4033148;201.4033148;201.4033148;201.4033148;[0.9560113996267319, 1.1144810998812318, 1.6234860001131892, 1.844098700210452, 2.0267410995438695, 2.1457428000867367];;;;;;440202;1;2024-01-19_14h56.06.787;REPSWITCH1_version2_list2;2022.2.4;143.9924194;
REPSWITCH1/PICTURE_199.png;falda;type;gold;nontarget;1;NT;2;3;2;2;Stim8_Set2;0;None;40;39;40;0;39;39;39;;;;;;;;;;;;;;;;;;;;;;;201.9034223;203.0355217;203.0355217;203.0355217;203.0355217;203.0355217;203.0355217;203.0355217;203.0355217;['f', 'a', 'l', 'd', 'a'];0;falda;C:\2023\REPSWITCH21092023\REPSWITCH_excgange\REPSWITCH_excgange\data/440202_REPSWITCH1_version2_list2_2024-01-19_14h56.06.787_micRespv2l2_recorded\recording_micRespv2l2_2024-01-19_14h59.24.849.wav;206.0636783;;None;206.0636783;206.0636783;206.0636783;206.0636783;206.0636783;206.0636783;[0.9325615996494889, 1.0810586996376514, 1.3298533000051975, 1.628214799799025, 1.7141301995143294];;;;;;440202;1;2024-01-19_14h56.06.787;REPSWITCH1_version2_list2;2022.2.4;143.9924194;
REPSWITCH1/PICTURE_199.png;falda;speak;darkblue;switch;2;T;2;3;2;2;Stim8_Set2;0;None;41;40;41;0;40;40;40;;;;;;;;;;;;;;;;;;;;;;;206.5637151;207.6055352;207.6055352;207.6055352;207.6055352;207.6055352;207.6055352;207.6055352;207.6055352;None;0;;C:\2023\REPSWITCH21092023\REPSWITCH_excgange\REPSWITCH_excgange\data/440202_REPSWITCH1_version2_list2_2024-01-19_14h56.06.787_micRespv2l2_recorded\recording_micRespv2l2_2024-01-19_14h59.29.419.wav;210.6267534;211.1268191;None;210.6267534;210.6267534;210.6267534;210.6267534;210.6267534;210.6267534;;;;;;;440202;1;2024-01-19_14h56.06.787;REPSWITCH1_version2_list2;2022.2.4;143.9924194;
REPSWITCH1/PICTURE_152.png;caracol;speak;darkblue;nontarget;2;NT;2;3;2;2;Stim2_Set2;1;switch;42;41;42;0;41;41;41;;;;;;;;;;;;;;;;;;;;;;;211.1268191;212.2381105;212.2381105;212.2381105;212.2381105;212.2381105;212.2381105;212.2381105;212.2381105;None;0;;C:\2023\REPSWITCH21092023\REPSWITCH_excgange\REPSWITCH_excgange\data/440202_REPSWITCH1_version2_list2_2024-01-19_14h56.06.787_micRespv2l2_recorded\recording_micRespv2l2_2024-01-19_14h59.34.052.wav;215.2662585;;None;215.2662585;215.2662585;215.2662585;215.2662585;215.2662585;215.2662585;;;;;;;440202;1;2024-01-19_14h56.06.787;REPSWITCH1_version2_list2;2022.2.4;143.9924194;
REPSWITCH1/PICTURE_152.png;caracol;speak;darkblue;repeat;2;T;2;3;2;2;Stim2_Set2;0;None;43;42;43;0;42;42;42;;;;;;;;;;;;;;;;;;;;;;;215.7662886;216.9401335;216.9401335;216.9401335;216.9401335;216.9401335;216.9401335;216.9401335;216.9401335;None;0;;C:\2023\REPSWITCH21092023\REPSWITCH_excgange\REPSWITCH_excgange\data/440202_REPSWITCH1_version2_list2_2024-01-19_14h56.06.787_micRespv2l2_recorded\recording_micRespv2l2_2024-01-19_14h59.38.754.wav;219.9682618;;None;219.9682618;219.9682618;219.9682618;219.9682618;219.9682618;219.9682618;;;;;;;440202;1;2024-01-19_14h56.06.787;REPSWITCH1_version2_list2;2022.2.4;143.9924194;
REPSWITCH1/PICTURE_381.png;fresa;type;gold;filler;1;F;2;3;2;2;Stim2_Set1;0;None;44;43;44;0;43;43;43;;;;;;;;;;;;;;;;;;;;;;;220.4683247;221.6004258;221.6004258;221.6004258;221.6004258;221.6004258;221.6004258;221.6004258;221.6004258;['f', 'r', 'e', 's', 'a'];0;fresa;C:\2023\REPSWITCH21092023\REPSWITCH_excgange\REPSWITCH_excgange\data/440202_REPSWITCH1_version2_list2_2024-01-19_14h56.06.787_micRespv2l2_recorded\recording_micRespv2l2_2024-01-19_14h59.43.413.wav;224.6216226;225.1216771;None;224.6216226;224.6216226;224.6216226;224.6216226;224.6216226;224.6216226;[1.075387299992144, 1.2131008999422193, 1.3775434996932745, 1.5120997997000813, 1.6555048003792763];;;;;;440202;1;2024-01-19_14h56.06.787;REPSWITCH1_version2_list2;2022.2.4;143.9924194;
REPSWITCH1/PICTURE_175.png;pintor;speak;darkblue;nontarget;2;NT;2;3;2;2;Stim1_Set2;1;switch;45;44;45;0;44;44;44;;;;;;;;;;;;;;;;;;;;;;;225.1216771;226.2537683;226.2537683;226.2537683;226.2537683;226.2537683;226.2537683;226.2537683;226.2537683;None;0;;C:\2023\REPSWITCH21092023\REPSWITCH_excgange\REPSWITCH_excgange\data/440202_REPSWITCH1_version2_list2_2024-01-19_14h56.06.787_micRespv2l2_recorded\recording_micRespv2l2_2024-01-19_14h59.48.067.wav;229.2819821;;None;229.2819821;229.2819821;229.2819821;229.2819821;229.2819821;229.2819821;;;;;;;440202;1;2024-01-19_14h56.06.787;REPSWITCH1_version2_list2;2022.2.4;143.9924194;
REPSWITCH1/PICTURE_175.png;pintor;speak;darkblue;repeat;2;T;2;3;2;2;Stim1_Set2;0;None;46;45;46;0;45;45;45;;;;;;;;;;;;;;;;;;;;;;;229.7820152;230.9141271;230.9141271;230.9141271;230.9141271;230.9141271;230.9141271;230.9141271;230.9141271;None;0;;C:\2023\REPSWITCH21092023\REPSWITCH_excgange\REPSWITCH_excgange\data/440202_REPSWITCH1_version2_list2_2024-01-19_14h56.06.787_micRespv2l2_recorded\recording_micRespv2l2_2024-01-19_14h59.52.728.wav;233.9423538;;None;233.9423538;233.9423538;233.9423538;233.9423538;233.9423538;233.9423538;;;;;;;440202;1;2024-01-19_14h56.06.787;REPSWITCH1_version2_list2;2022.2.4;143.9924194;
REPSWITCH1/PICTURE_178.png;puente;type;gold;filler;1;F;2;3;2;2;Stim1_Set1;0;None;47;46;47;0;46;46;46;;;;;;;;;;;;;;;;;;;;;;;234.44234;235.5952644;235.5952644;235.5952644;235.5952644;235.5952644;235.5952644;235.5952644;235.5952644;['p', 'u', 'e', 'n', 't', 'e'];0;puente;C:\2023\REPSWITCH21092023\REPSWITCH_excgange\REPSWITCH_excgange\data/440202_REPSWITCH1_version2_list2_2024-01-19_14h56.06.787_micRespv2l2_recorded\recording_micRespv2l2_2024-01-19_14h59.57.408.wav;238.6165121;239.1165627;None;238.6165121;238.6165121;238.6165121;238.6165121;238.6165121;238.6165121;[1.0151124997064471, 1.2921821996569633, 1.4915052996948361, 1.6180834993720055, 1.820351899601519, 1.9230488995090127];;;;;;440202;1;2024-01-19_14h56.06.787;REPSWITCH1_version2_list2;2022.2.4;143.9924194;
REPSWITCH1/PICTURE_19.png;pavo;speak;darkblue;filler;2;F;2;3;2;2;Stim5_Set1;0;None;48;47;48;0;47;47;47;;;;;;;;;;;;;;;;;;;;;;;239.1165627;240.3181438;240.3181438;240.3181438;240.3181438;240.3181438;240.3181438;240.3181438;240.3181438;None;0;;C:\2023\REPSWITCH21092023\REPSWITCH_excgange\REPSWITCH_excgange\data/440202_REPSWITCH1_version2_list2_2024-01-19_14h56.06.787_micRespv2l2_recorded\recording_micRespv2l2_2024-01-19_15h00.02.132.wav;243.346286;;None;243.346286;243.346286;243.346286;243.346286;243.346286;243.346286;;;;;;;440202;1;2024-01-19_14h56.06.787;REPSWITCH1_version2_list2;2022.2.4;143.9924194;
REPSWITCH1/PICTURE_264.png;mano;speak;darkblue;nontarget;2;NT;2;3;2;2;Stim3_Set2;1;repeat;49;48;49;0;48;48;48;;;;;;;;;;;;;;;;;;;;;;;243.84643;244.9089692;244.9089692;244.9089692;244.9089692;244.9089692;244.9089692;244.9089692;244.9089692;None;0;;C:\2023\REPSWITCH21092023\REPSWITCH_excgange\REPSWITCH_excgange\data/440202_REPSWITCH1_version2_list2_2024-01-19_14h56.06.787_micRespv2l2_recorded\recording_micRespv2l2_2024-01-19_15h00.06.722.wav;247.9301758;248.430274;None;247.9301758;247.9301758;247.9301758;247.9301758;247.9301758;247.9301758;;;;;;;440202;1;2024-01-19_14h56.06.787;REPSWITCH1_version2_list2;2022.2.4;143.9924194;
REPSWITCH1/PICTURE_264.png;mano;type;gold;switch;1;T;2;3;2;2;Stim3_Set2;0;None;50;49;50;0;49;49;49;;;;;;;;;;;;;;;;;;;;;;;248.430274;249.5554509;249.5554509;249.5554509;249.5554509;249.5554509;249.5554509;249.5554509;249.5554509;['m', 'a', 'n', 'o'];0;mano;C:\2023\REPSWITCH21092023\REPSWITCH_excgange\REPSWITCH_excgange\data/440202_REPSWITCH1_version2_list2_2024-01-19_14h56.06.787_micRespv2l2_recorded\recording_micRespv2l2_2024-01-19_15h00.11.368.wav;252.5766421;253.0766944;None;252.5766421;252.5766421;252.5766421;252.5766421;252.5766421;252.5766421;[0.8891533995047212, 1.02771329972893, 1.1044163992628455, 1.2709052991122007];;;;;;440202;1;2024-01-19_14h56.06.787;REPSWITCH1_version2_list2;2022.2.4;143.9924194;
REPSWITCH1/PICTURE_446.png;cerdo;type;gold;filler;1;F;3;3;2;2;Stim7_Set2;0;None;51;50;51;0;50;50;50;;;;;;;;;;;;;;;;;;;;;;;253.0766944;254.1949643;254.1949643;254.1949643;254.1949643;254.1949643;254.1949643;254.1949643;254.1949643;['c', 'e', 'r', 'd', 'o'];0;cerdo;C:\2023\REPSWITCH21092023\REPSWITCH_excgange\REPSWITCH_excgange\data/440202_REPSWITCH1_version2_list2_2024-01-19_14h56.06.787_micRespv2l2_recorded\recording_micRespv2l2_2024-01-19_15h00.16.008.wav;257.2230882;;space;257.2230882;257.2230882;257.2230882;257.2230882;257.2230882;257.2230882;[0.9616228993982077, 1.0741736991330981, 1.1120111988857388, 1.3283311994746327, 1.5425778990611434];257.7231463;257.7231463;16.7511811;;;440202;1;2024-01-19_14h56.06.787;REPSWITCH1_version2_list2;2022.2.4;143.9924194;
REPSWITCH1/PICTURE_235.png;aguja;type;gold;nontarget;1;NT;3;3;2;2;Stim4_Set3;1;repeat;52;51;52;0;51;51;51;;;;;;;;;;;;;;;;;;;;;;;274.482256;275.5796844;275.5796844;275.5796844;275.5796844;275.5796844;275.5796844;275.5796844;275.5796844;['a', 'g', 'u', 'j', 'a'];0;aguja;C:\2023\REPSWITCH21092023\REPSWITCH_excgange\REPSWITCH_excgange\data/440202_REPSWITCH1_version2_list2_2024-01-19_14h56.06.787_micRespv2l2_recorded\recording_micRespv2l2_2024-01-19_15h00.37.393.wav;278.6008293;279.1008922;None;278.6008293;278.6008293;278.6008293;278.6008293;278.6008293;278.6008293;[0.9803980998694897, 1.2507964000105858, 1.468792200088501, 1.643479099497199, 1.7633900996297598];;;;;;440202;1;2024-01-19_14h56.06.787;REPSWITCH1_version2_list2;2022.2.4;143.9924194;
REPSWITCH1/PICTURE_235.png;aguja;speak;darkblue;switch;2;T;3;3;2;2;Stim4_Set3;0;None;53;52;53;0;52;52;52;;;;;;;;;;;;;;;;;;;;;;;279.1008922;280.1636126;280.1636126;280.1636126;280.1636126;280.1636126;280.1636126;280.1636126;280.1636126;None;0;;C:\2023\REPSWITCH21092023\REPSWITCH_excgange\REPSWITCH_excgange\data/440202_REPSWITCH1_version2_list2_2024-01-19_14h56.06.787_micRespv2l2_recorded\recording_micRespv2l2_2024-01-19_15h00.41.977.wav;283.1847428;283.6848157;None;283.1847428;283.1847428;283.1847428;283.1847428;283.1847428;283.1847428;;;;;;;440202;1;2024-01-19_14h56.06.787;REPSWITCH1_version2_list2;2022.2.4;143.9924194;
REPSWITCH1/PICTURE_552.png;manzana;speak;darkblue;filler;2;F;3;3;2;2;Stim6_Set2;0;None;54;53;54;0;53;53;53;;;;;;;;;;;;;;;;;;;;;;;283.6848157;284.7822187;284.7822187;284.7822187;284.7822187;284.7822187;284.7822187;284.7822187;284.7822187;None;0;;C:\2023\REPSWITCH21092023\REPSWITCH_excgange\REPSWITCH_excgange\data/440202_REPSWITCH1_version2_list2_2024-01-19_14h56.06.787_micRespv2l2_recorded\recording_micRespv2l2_2024-01-19_15h00.46.596.wav;287.8103815;;None;287.8103815;287.8103815;287.8103815;287.8103815;287.8103815;287.8103815;;;;;;;440202;1;2024-01-19_14h56.06.787;REPSWITCH1_version2_list2;2022.2.4;143.9924194;
REPSWITCH1/PICTURE_271.png;conejo;speak;darkblue;nontarget;2;NT;3;3;2;2;Stim7_Set3;1;repeat;55;54;55;0;54;54;54;;;;;;;;;;;;;;;;;;;;;;;288.3104353;289.393892;289.393892;289.393892;289.393892;289.393892;289.393892;289.393892;289.393892;None;0;;C:\2023\REPSWITCH21092023\REPSWITCH_excgange\REPSWITCH_excgange\data/440202_REPSWITCH1_version2_list2_2024-01-19_14h56.06.787_micRespv2l2_recorded\recording_micRespv2l2_2024-01-19_15h00.51.207.wav;292.415113;292.9152023;None;292.415113;292.415113;292.415113;292.415113;292.415113;292.415113;;;;;;;440202;1;2024-01-19_14h56.06.787;REPSWITCH1_version2_list2;2022.2.4;143.9924194;
REPSWITCH1/PICTURE_271.png;conejo;type;gold;switch;1;T;3;3;2;2;Stim7_Set3;0;None;56;55;56;0;55;55;55;;;;;;;;;;;;;;;;;;;;;;;292.9152023;293.9986562;293.9986562;293.9986562;293.9986562;293.9986562;293.9986562;293.9986562;293.9986562;['c', 'o', 'n', 'e', 'j', 'o'];0;conejo;C:\2023\REPSWITCH21092023\REPSWITCH_excgange\REPSWITCH_excgange\data/440202_REPSWITCH1_version2_list2_2024-01-19_14h56.06.787_micRespv2l2_recorded\recording_micRespv2l2_2024-01-19_15h00.55.812.wav;297.0268203;;None;297.0268203;297.0268203;297.0268203;297.0268203;297.0268203;297.0268203;[0.8630538992583752, 1.0842966986820102, 1.293584299273789, 1.5032896995544434, 1.7036076989024878, 1.9338450990617275];;;;;;440202;1;2024-01-19_14h56.06.787;REPSWITCH1_version2_list2;2022.2.4;143.9924194;
REPSWITCH1/PICTURE_610.png;miel;type;gold;nontarget;1;NT;3;3;2;2;Stim2_Set3;1;repeat;57;56;57;0;56;56;56;;;;;;;;;;;;;;;;;;;;;;;297.5268976;298.6521263;298.6521263;298.6521263;298.6521263;298.6521263;298.6521263;298.6521263;298.6521263;['m', 'i', 'e', 'l'];0;miel;C:\2023\REPSWITCH21092023\REPSWITCH_excgange\REPSWITCH_excgange\data/440202_REPSWITCH1_version2_list2_2024-01-19_14h56.06.787_micRespv2l2_recorded\recording_micRespv2l2_2024-01-19_15h01.00.465.wav;301.6802239;;None;301.6802239;301.6802239;301.6802239;301.6802239;301.6802239;301.6802239;[0.9548814995214343, 1.0815492989495397, 1.3006342994049191, 1.4820086993277073];;;;;;440202;1;2024-01-19_14h56.06.787;REPSWITCH1_version2_list2;2022.2.4;143.9924194;
REPSWITCH1/PICTURE_610.png;miel;speak;darkblue;switch;2;T;3;3;2;2;Stim2_Set3;0;None;58;57;58;0;57;57;57;;;;;;;;;;;;;;;;;;;;;;;302.1802651;303.3054947;303.3054947;303.3054947;303.3054947;303.3054947;303.3054947;303.3054947;303.3054947;None;0;;C:\2023\REPSWITCH21092023\REPSWITCH_excgange\REPSWITCH_excgange\data/440202_REPSWITCH1_version2_list2_2024-01-19_14h56.06.787_micRespv2l2_recorded\recording_micRespv2l2_2024-01-19_15h01.05.118.wav;306.3266367;306.8266995;None;306.3266367;306.3266367;306.3266367;306.3266367;306.3266367;306.3266367;;;;;;;440202;1;2024-01-19_14h56.06.787;REPSWITCH1_version2_list2;2022.2.4;143.9924194;
REPSWITCH1/PICTURE_199.png;falda;type;gold;filler;1;F;3;3;2;2;Stim8_Set2;0;None;59;58;59;0;58;58;58;;;;;;;;;;;;;;;;;;;;;;;306.8266995;307.9171567;307.9171567;307.9171567;307.9171567;307.9171567;307.9171567;307.9171567;307.9171567;['f', 'a', 'l', 'd', 'a'];0;falda;C:\2023\REPSWITCH21092023\REPSWITCH_excgange\REPSWITCH_excgange\data/440202_REPSWITCH1_version2_list2_2024-01-19_14h56.06.787_micRespv2l2_recorded\recording_micRespv2l2_2024-01-19_15h01.09.731.wav;310.9453887;;None;310.9453887;310.9453887;310.9453887;310.9453887;310.9453887;310.9453887;[1.1026081992313266, 1.2756816996261477, 1.5405718991532922, 1.7324629994109273, 1.9799187993630767];;;;;;440202;1;2024-01-19_14h56.06.787;REPSWITCH1_version2_list2;2022.2.4;143.9924194;
REPSWITCH1/PICTURE_464.png;goma;speak;darkblue;nontarget;2;NT;3;3;2;2;Stim6_Set3;1;switch;60;59;60;0;59;59;59;;;;;;;;;;;;;;;;;;;;;;;311.4454587;312.6469177;312.6469177;312.6469177;312.6469177;312.6469177;312.6469177;312.6469177;312.6469177;None;0;;C:\2023\REPSWITCH21092023\REPSWITCH_excgange\REPSWITCH_excgange\data/440202_REPSWITCH1_version2_list2_2024-01-19_14h56.06.787_micRespv2l2_recorded\recording_micRespv2l2_2024-01-19_15h01.14.461.wav;315.6750678;;None;315.6750678;315.6750678;315.6750678;315.6750678;315.6750678;315.6750678;;;;;;;440202;1;2024-01-19_14h56.06.787;REPSWITCH1_version2_list2;2022.2.4;143.9924194;
REPSWITCH1/PICTURE_464.png;goma;speak;darkblue;repeat;2;T;3;3;2;2;Stim6_Set3;0;None;61;60;61;0;60;60;60;;;;;;;;;;;;;;;;;;;;;;;316.1751422;317.2864904;317.2864904;317.2864904;317.2864904;317.2864904;317.2864904;317.2864904;317.2864904;None;0;;C:\2023\REPSWITCH21092023\REPSWITCH_excgange\REPSWITCH_excgange\data/440202_REPSWITCH1_version2_list2_2024-01-19_14h56.06.787_micRespv2l2_recorded\recording_micRespv2l2_2024-01-19_15h01.19.100.wav;320.3076533;320.8076757;None;320.3076533;320.3076533;320.3076533;320.3076533;320.3076533;320.3076533;;;;;;;440202;1;2024-01-19_14h56.06.787;REPSWITCH1_version2_list2;2022.2.4;143.9924194;
REPSWITCH1/PICTURE_152.png;caracol;type;gold;filler;1;F;3;3;2;2;Stim2_Set2;0;None;62;61;62;0;61;61;61;;;;;;;;;;;;;;;;;;;;;;;320.8076757;321.9676283;321.9676283;321.9676283;321.9676283;321.9676283;321.9676283;321.9676283;321.9676283;['c', 'a', 'r', 'c', 'o', 'l'];0;carcol;C:\2023\REPSWITCH21092023\REPSWITCH_excgange\REPSWITCH_excgange\data/440202_REPSWITCH1_version2_list2_2024-01-19_14h56.06.787_micRespv2l2_recorded\recording_micRespv2l2_2024-01-19_15h01.23.780.wav;324.9888514;325.4888401;None;324.9888514;324.9888514;324.9888514;324.9888514;324.9888514;324.9888514;[0.9381742998957634, 1.0946805998682976, 1.1694232998415828, 1.3548011993989348, 1.7674228996038437, 1.9108436992391944];;;;;;440202;1;2024-01-19_14h56.06.787;REPSWITCH1_version2_list2;2022.2.4;143.9924194;
REPSWITCH1/PICTURE_320.png;iglesia;speak;darkblue;nontarget;2;NT;3;3;2;2;Stim8_Set3;1;switch;63;62;63;0;62;62;62;;;;;;;;;;;;;;;;;;;;;;;325.4888401;326.5306629;326.5306629;326.5306629;326.5306629;326.5306629;326.5306629;326.5306629;326.5306629;None;0;;C:\2023\REPSWITCH21092023\REPSWITCH_excgange\REPSWITCH_excgange\data/440202_REPSWITCH1_version2_list2_2024-01-19_14h56.06.787_micRespv2l2_recorded\recording_micRespv2l2_2024-01-19_15h01.28.344.wav;329.5587949;;None;329.5587949;329.5587949;329.5587949;329.5587949;329.5587949;329.5587949;;;;;;;440202;1;2024-01-19_14h56.06.787;REPSWITCH1_version2_list2;2022.2.4;143.9924194;
REPSWITCH1/PICTURE_320.png;iglesia;speak;darkblue;repeat;2;T;3;3;2;2;Stim8_Set3;0;None;64;63;64;0;63;63;63;;;;;;;;;;;;;;;;;;;;;;;330.0589644;331.2118485;331.2118485;331.2118485;331.2118485;331.2118485;331.2118485;331.2118485;331.2118485;None;0;;C:\2023\REPSWITCH21092023\REPSWITCH_excgange\REPSWITCH_excgange\data/440202_REPSWITCH1_version2_list2_2024-01-19_14h56.06.787_micRespv2l2_recorded\recording_micRespv2l2_2024-01-19_15h01.33.025.wav;334.2330159;334.7331131;None;334.2330159;334.2330159;334.2330159;334.2330159;334.2330159;334.2330159;;;;;;;440202;1;2024-01-19_14h56.06.787;REPSWITCH1_version2_list2;2022.2.4;143.9924194;
REPSWITCH1/PICTURE_35.png;oreja;speak;darkblue;nontarget;2;NT;3;3;2;2;Stim5_Set3;0;None;65;64;65;0;64;64;64;;;;;;;;;;;;;;;;;;;;;;;334.7331131;335.8374297;335.8374297;335.8374297;335.8374297;335.8374297;335.8374297;335.8374297;335.8374297;None;0;;C:\2023\REPSWITCH21092023\REPSWITCH_excgange\REPSWITCH_excgange\data/440202_REPSWITCH1_version2_list2_2024-01-19_14h56.06.787_micRespv2l2_recorded\recording_micRespv2l2_2024-01-19_15h01.37.651.wav;338.8655861;;None;338.8655861;338.8655861;338.8655861;338.8655861;338.8655861;338.8655861;;;;;;;440202;1;2024-01-19_14h56.06.787;REPSWITCH1_version2_list2;2022.2.4;143.9924194;
REPSWITCH1/PICTURE_35.png;oreja;type;gold;switch;1;T;3;3;2;2;Stim5_Set3;0;None;66;65;66;0;65;65;65;;;;;;;;;;;;;;;;;;;;;;;339.3656294;340.4977549;340.4977549;340.4977549;340.4977549;340.4977549;340.4977549;340.4977549;340.4977549;['o', 'r', 'e', 'j', 'a'];0;oreja;C:\2023\REPSWITCH21092023\REPSWITCH_excgange\REPSWITCH_excgange\data/440202_REPSWITCH1_version2_list2_2024-01-19_14h56.06.787_micRespv2l2_recorded\recording_micRespv2l2_2024-01-19_15h01.42.311.wav;343.5259157;;None;343.5259157;343.5259157;343.5259157;343.5259157;343.5259157;343.5259157;[0.919090399518609, 1.2463595997542143, 1.413022800348699, 1.675149000249803, 1.8425831999629736];;;;;;440202;1;2024-01-19_14h56.06.787;REPSWITCH1_version2_list2;2022.2.4;143.9924194;
REPSWITCH1/PICTURE_517.png;cuerda;speak;darkblue;filler;2;F;3;3;2;2;Stim4_Set2;0;None;67;66;67;0;66;66;66;;;;;;;;;;;;;;;;;;;;;;;344.0260494;345.2692419;345.2692419;345.2692419;345.2692419;345.2692419;345.2692419;345.2692419;345.2692419;None;0;;C:\2023\REPSWITCH21092023\REPSWITCH_excgange\REPSWITCH_excgange\data/440202_REPSWITCH1_version2_list2_2024-01-19_14h56.06.787_micRespv2l2_recorded\recording_micRespv2l2_2024-01-19_15h01.47.083.wav;348.2973688;;None;348.2973688;348.2973688;348.2973688;348.2973688;348.2973688;348.2973688;;;;;;;440202;1;2024-01-19_14h56.06.787;REPSWITCH1_version2_list2;2022.2.4;143.9924194;
REPSWITCH1/PICTURE_30.png;granja;type;gold;filler;1;F;3;3;2;2;Stim5_Set2;1;switch;68;67;68;0;67;67;67;;;;;;;;;;;;;;;;;;;;;;;348.7974305;349.9295325;349.9295325;349.9295325;349.9295325;349.9295325;349.9295325;349.9295325;349.9295325;['g', 'r', 'a', 'n', 'j', 'a'];0;granja;C:\2023\REPSWITCH21092023\REPSWITCH_excgange\REPSWITCH_excgange\data/440202_REPSWITCH1_version2_list2_2024-01-19_14h56.06.787_micRespv2l2_recorded\recording_micRespv2l2_2024-01-19_15h01.51.743.wav;352.9576691;;None;352.9576691;352.9576691;352.9576691;352.9576691;352.9576691;352.9576691;[1.0261062001809478, 1.191589799709618, 1.3678211001679301, 1.5600354997441173, 1.7033436000347137, 1.7750987000763416];;;;;;440202;1;2024-01-19_14h56.06.787;REPSWITCH1_version2_list2;2022.2.4;143.9924194;
REPSWITCH1/PICTURE_242.png;cartero;type;gold;nontarget;1;NT;3;3;2;2;Stim3_Set3;0;None;69;68;69;0;68;68;68;;;;;;;;;;;;;;;;;;;;;;;353.4577294;354.5898479;354.5898479;354.5898479;354.5898479;354.5898479;354.5898479;354.5898479;354.5898479;['c', 'a', 'r', 't', 'e', 'r', 'o'];0;cartero;C:\2023\REPSWITCH21092023\REPSWITCH_excgange\REPSWITCH_excgange\data/440202_REPSWITCH1_version2_list2_2024-01-19_14h56.06.787_micRespv2l2_recorded\recording_micRespv2l2_2024-01-19_15h01.56.403.wav;357.6110733;358.1111382;None;357.6110733;357.6110733;357.6110733;357.6110733;357.6110733;357.6110733;[0.890332099981606, 1.0218183994293213, 1.0806348994374275, 1.2281372994184494, 1.353710100054741, 1.4623400000855327, 1.7733153998851776];;;;;;440202;1;2024-01-19_14h56.06.787;REPSWITCH1_version2_list2;2022.2.4;143.9924194;
REPSWITCH1/PICTURE_242.png;cartero;type;gold;repeat;1;T;3;3;2;2;Stim3_Set3;0;None;70;69;70;0;69;69;69;;;;;;;;;;;;;;;;;;;;;;;358.1111382;359.2154676;359.2154676;359.2154676;359.2154676;359.2154676;359.2154676;359.2154676;359.2154676;['c', 'a', 'r', 't', 'e', 'r', 'o'];0;cartero;C:\2023\REPSWITCH21092023\REPSWITCH_excgange\REPSWITCH_excgange\data/440202_REPSWITCH1_version2_list2_2024-01-19_14h56.06.787_micRespv2l2_recorded\recording_micRespv2l2_2024-01-19_15h02.01.028.wav;362.2366339;362.736706;None;362.2366339;362.2366339;362.2366339;362.2366339;362.2366339;362.2366339;[0.7639071997255087, 0.87041449919343, 0.9281603991985321, 1.0785773992538452, 1.2110325992107391, 1.4582471996545792, 1.6724916994571686];;;;;;440202;1;2024-01-19_14h56.06.787;REPSWITCH1_version2_list2;2022.2.4;143.9924194;
REPSWITCH1/PICTURE_264.png;mano;speak;darkblue;filler;2;F;3;3;2;2;Stim3_Set2;1;switch;71;70;71;0;70;70;70;;;;;;;;;;;;;;;;;;;;;;;362.736706;363.7785694;363.7785694;363.7785694;363.7785694;363.7785694;363.7785694;363.7785694;363.7785694;None;0;;C:\2023\REPSWITCH21092023\REPSWITCH_excgange\REPSWITCH_excgange\data/440202_REPSWITCH1_version2_list2_2024-01-19_14h56.06.787_micRespv2l2_recorded\recording_micRespv2l2_2024-01-19_15h02.05.592.wav;366.7997347;367.299784;None;366.7997347;366.7997347;366.7997347;366.7997347;366.7997347;366.7997347;;;;;;;440202;1;2024-01-19_14h56.06.787;REPSWITCH1_version2_list2;2022.2.4;143.9924194;
REPSWITCH1/PICTURE_576.png;guante;type;gold;nontarget;1;NT;3;3;2;2;Stim1_Set3;1;switch;72;71;72;0;71;71;71;;;;;;;;;;;;;;;;;;;;;;;367.299784;368.5014315;368.5014315;368.5014315;368.5014315;368.5014315;368.5014315;368.5014315;368.5014315;['g', 'u', 'a', 'n', 't', 'e'];0;guante;C:\2023\REPSWITCH21092023\REPSWITCH_excgange\REPSWITCH_excgange\data/440202_REPSWITCH1_version2_list2_2024-01-19_14h56.06.787_micRespv2l2_recorded\recording_micRespv2l2_2024-01-19_15h02.10.315.wav;371.5225935;372.0227039;None;371.5225935;371.5225935;371.5225935;371.5225935;371.5225935;371.5225935;[1.1048700995743275, 1.3502864995971322, 1.4659334989264607, 1.5715921996161342, 1.764028899371624, 1.8796355994418263];;;;;;440202;1;2024-01-19_14h56.06.787;REPSWITCH1_version2_list2;2022.2.4;143.9924194;
REPSWITCH1/PICTURE_576.png;guante;type;gold;repeat;1;T;3;3;2;2;Stim1_Set3;0;None;73;72;73;0;72;72;72;;;;;;;;;;;;;;;;;;;;;;;372.0227039;373.0714205;373.0714205;373.0714205;373.0714205;373.0714205;373.0714205;373.0714205;373.0714205;['g', 'u', 'a', 'n', 't', 'e'];0;guante;C:\2023\REPSWITCH21092023\REPSWITCH_excgange\REPSWITCH_excgange\data/440202_REPSWITCH1_version2_list2_2024-01-19_14h56.06.787_micRespv2l2_recorded\recording_micRespv2l2_2024-01-19_15h02.14.884.wav;376.0995772;;None;376.0995772;376.0995772;376.0995772;376.0995772;376.0995772;376.0995772;[0.8451908994466066, 1.0036660991609097, 1.1296322997659445, 1.648348799906671, 1.8267570994794369, 1.9431968992576003];;;;;;440202;1;2024-01-19_14h56.06.787;REPSWITCH1_version2_list2;2022.2.4;143.9924194;
REPSWITCH1/PICTURE_175.png;pintor;speak;darkblue;filler;2;F;3;3;2;2;Stim1_Set2;0;None;74;73;74;0;73;73;73;;;;;;;;;;;;;;;;;;;;;;;376.5995982;377.7733984;377.7733984;377.7733984;377.7733984;377.7733984;377.7733984;377.7733984;377.7733984;None;0;;C:\2023\REPSWITCH21092023\REPSWITCH_excgange\REPSWITCH_excgange\data/440202_REPSWITCH1_version2_list2_2024-01-19_14h56.06.787_micRespv2l2_recorded\recording_micRespv2l2_2024-01-19_15h02.19.587.wav;380.8015673;;None;380.8015673;380.8015673;380.8015673;380.8015673;380.8015673;380.8015673;;;;;;;440202;1;2024-01-19_14h56.06.787;REPSWITCH1_version2_list2;2022.2.4;143.9924194;
REPSWITCH1/PICTURE_498.png;taza;type;gold;nontarget;1;NT;4;3;2;2;Stim4_Set4;0;None;75;74;75;0;74;74;74;;;;;;;;;;;;;;;;;;;;;;;381.3016118;382.3920403;382.3920403;382.3920403;382.3920403;382.3920403;382.3920403;382.3920403;382.3920403;['t', 'a', 'z', 'a'];0;taza;C:\2023\REPSWITCH21092023\REPSWITCH_excgange\REPSWITCH_excgange\data/440202_REPSWITCH1_version2_list2_2024-01-19_14h56.06.787_micRespv2l2_recorded\recording_micRespv2l2_2024-01-19_15h02.24.205.wav;385.4132548;385.913341;None;385.4132548;385.4132548;385.4132548;385.4132548;385.4132548;385.4132548;[0.8436447000131011, 0.9651985000818968, 1.1786040998995304, 1.3642301000654697];;;;;;440202;1;2024-01-19_14h56.06.787;REPSWITCH1_version2_list2;2022.2.4;143.9924194;
REPSWITCH1/PICTURE_498.png;taza;type;gold;repeat;1;T;4;3;2;2;Stim4_Set4;0;None;76;75;76;0;75;75;75;;;;;;;;;;;;;;;;;;;;;;;385.913341;387.0593415;387.0593415;387.0593415;387.0593415;387.0593415;387.0593415;387.0593415;387.0593415;['t', 'a', 'x', 'backspace', 'z', 'a'];0;taza;C:\2023\REPSWITCH21092023\REPSWITCH_excgange\REPSWITCH_excgange\data/440202_REPSWITCH1_version2_list2_2024-01-19_14h56.06.787_micRespv2l2_recorded\recording_micRespv2l2_2024-01-19_15h02.28.873.wav;390.0874914;;None;390.0874914;390.0874914;390.0874914;390.0874914;390.0874914;390.0874914;[0.8935842998325825, 1.032121499069035, 1.1606522994115949, 1.8045317996293306, 1.9521311996504664, 2.131509899161756];;;;;;440202;1;2024-01-19_14h56.06.787;REPSWITCH1_version2_list2;2022.2.4;143.9924194;
REPSWITCH1/PICTURE_235.png;aguja;speak;darkblue;filler;2;F;4;3;2;2;Stim4_Set3;0;None;77;76;77;0;76;76;76;;;;;;;;;;;;;;;;;;;;;;;390.5875417;391.7404689;391.7404689;391.7404689;391.7404689;391.7404689;391.7404689;391.7404689;391.7404689;None;0;;C:\2023\REPSWITCH21092023\REPSWITCH_excgange\REPSWITCH_excgange\data/440202_REPSWITCH1_version2_list2_2024-01-19_14h56.06.787_micRespv2l2_recorded\recording_micRespv2l2_2024-01-19_15h02.33.554.wav;394.7686156;;None;394.7686156;394.7686156;394.7686156;394.7686156;394.7686156;394.7686156;;;;;;;440202;1;2024-01-19_14h56.06.787;REPSWITCH1_version2_list2;2022.2.4;143.9924194;
REPSWITCH1/PICTURE_338.png;regalo;type;gold;nontarget;1;NT;4;3;2;2;Stim6_Set4;1;switch;78;77;78;0;77;77;77;;;;;;;;;;;;;;;;;;;;;;;395.2687684;396.3452587;396.3452587;396.3452587;396.3452587;396.3452587;396.3452587;396.3452587;396.3452587;['r', 'e', 'g', 'a', 'l', 'o'];0;regalo;C:\2023\REPSWITCH21092023\REPSWITCH_excgange\REPSWITCH_excgange\data/440202_REPSWITCH1_version2_list2_2024-01-19_14h56.06.787_micRespv2l2_recorded\recording_micRespv2l2_2024-01-19_15h02.38.158.wav;399.3664328;399.8665336;None;399.3664328;399.3664328;399.3664328;399.3664328;399.3664328;399.3664328;[0.8925794996321201, 1.0400773994624615, 1.1636749003082514, 1.3638043003156781, 1.597371299751103, 1.7211755001917481];;;;;;440202;1;2024-01-19_14h56.06.787;REPSWITCH1_version2_list2;2022.2.4;143.9924194;
REPSWITCH1/PICTURE_338.png;regalo;speak;darkblue;switch;2;T;4;3;2;2;Stim6_Set4;0;None;79;78;79;0;78;78;78;;;;;;;;;;;;;;;;;;;;;;;399.8665336;400.943087;400.943087;400.943087;400.943087;400.943087;400.943087;400.943087;400.943087;None;0;;C:\2023\REPSWITCH21092023\REPSWITCH_excgange\REPSWITCH_excgange\data/440202_REPSWITCH1_version2_list2_2024-01-19_14h56.06.787_micRespv2l2_recorded\recording_micRespv2l2_2024-01-19_15h02.42.756.wav;403.9643589;404.4644223;None;403.9643589;403.9643589;403.9643589;403.9643589;403.9643589;403.9643589;;;;;;;440202;1;2024-01-19_14h56.06.787;REPSWITCH1_version2_list2;2022.2.4;143.9924194;
REPSWITCH1/PICTURE_719.png;baño;speak;darkblue;nontarget;2;NT;4;3;2;2;Stim2_Set4;1;repeat;80;79;80;0;79;79;79;;;;;;;;;;;;;;;;;;;;;;;404.4644223;405.5409459;405.5409459;405.5409459;405.5409459;405.5409459;405.5409459;405.5409459;405.5409459;None;0;;C:\2023\REPSWITCH21092023\REPSWITCH_excgange\REPSWITCH_excgange\data/440202_REPSWITCH1_version2_list2_2024-01-19_14h56.06.787_micRespv2l2_recorded\recording_micRespv2l2_2024-01-19_15h02.47.355.wav;408.5690509;;None;408.5690509;408.5690509;408.5690509;408.5690509;408.5690509;408.5690509;;;;;;;440202;1;2024-01-19_14h56.06.787;REPSWITCH1_version2_list2;2022.2.4;143.9924194;
REPSWITCH1/PICTURE_719.png;baño;speak;darkblue;repeat;2;T;4;3;2;2;Stim2_Set4;0;None;81;80;81;0;80;80;80;;;;;;;;;;;;;;;;;;;;;;;409.0691093;410.1665343;410.1665343;410.1665343;410.1665343;410.1665343;410.1665343;410.1665343;410.1665343;None;0;;C:\2023\REPSWITCH21092023\REPSWITCH_excgange\REPSWITCH_excgange\data/440202_REPSWITCH1_version2_list2_2024-01-19_14h56.06.787_micRespv2l2_recorded\recording_micRespv2l2_2024-01-19_15h02.51.980.wav;413.1877465;413.687742;None;413.1877465;413.1877465;413.1877465;413.1877465;413.1877465;413.1877465;;;;;;;440202;1;2024-01-19_14h56.06.787;REPSWITCH1_version2_list2;2022.2.4;143.9924194;
REPSWITCH1/PICTURE_271.png;conejo;type;gold;filler;1;F;4;3;2;2;Stim7_Set3;0;None;82;81;82;0;81;81;81;;;;;;;;;;;;;;;;;;;;;;;413.687742;414.7782605;414.7782605;414.7782605;414.7782605;414.7782605;414.7782605;414.7782605;414.7782605;['c', 'o', 'n', 'e', 'j', 'o'];0;conejo;C:\2023\REPSWITCH21092023\REPSWITCH_excgange\REPSWITCH_excgange\data/440202_REPSWITCH1_version2_list2_2024-01-19_14h56.06.787_micRespv2l2_recorded\recording_micRespv2l2_2024-01-19_15h02.56.592.wav;417.7993855;418.2994571;None;417.7993855;417.7993855;417.7993855;417.7993855;417.7993855;417.7993855;[1.094951699487865, 1.2753809001296759, 1.4747641002759337, 1.6162268994376063, 1.7278402000665665, 1.9511000998318195];;;;;;440202;1;2024-01-19_14h56.06.787;REPSWITCH1_version2_list2;2022.2.4;143.9924194;
REPSWITCH1/PICTURE_610.png;miel;speak;darkblue;filler;2;F;4;3;2;2;Stim2_Set3;0;None;83;82;83;0;82;82;82;;;;;;;;;;;;;;;;;;;;;;;418.2994571;419.3412521;419.3412521;419.3412521;419.3412521;419.3412521;419.3412521;419.3412521;419.3412521;None;0;;C:\2023\REPSWITCH21092023\REPSWITCH_excgange\REPSWITCH_excgange\data/440202_REPSWITCH1_version2_list2_2024-01-19_14h56.06.787_micRespv2l2_recorded\recording_micRespv2l2_2024-01-19_15h03.01.154.wav;422.3694618;;None;422.3694618;422.3694618;422.3694618;422.3694618;422.3694618;422.3694618;;;;;;;440202;1;2024-01-19_14h56.06.787;REPSWITCH1_version2_list2;2022.2.4;143.9924194;
REPSWITCH1/PICTURE_687.png;camisa;speak;darkblue;nontarget;2;NT;4;3;2;2;Stim5_Set4;1;repeat;84;83;84;0;83;83;83;;;;;;;;;;;;;;;;;;;;;;;422.869577;424.0016218;424.0016218;424.0016218;424.0016218;424.0016218;424.0016218;424.0016218;424.0016218;None;0;;C:\2023\REPSWITCH21092023\REPSWITCH_excgange\REPSWITCH_excgange\data/440202_REPSWITCH1_version2_list2_2024-01-19_14h56.06.787_micRespv2l2_recorded\recording_micRespv2l2_2024-01-19_15h03.05.815.wav;427.0227824;427.5228877;None;427.0227824;427.0227824;427.0227824;427.0227824;427.0227824;427.0227824;;;;;;;440202;1;2024-01-19_14h56.06.787;REPSWITCH1_version2_list2;2022.2.4;143.9924194;
REPSWITCH1/PICTURE_687.png;camisa;type;gold;switch;1;T;4;3;2;2;Stim5_Set4;0;None;85;84;85;0;84;84;84;;;;;;;;;;;;;;;;;;;;;;;427.5228877;428.58555;428.58555;428.58555;428.58555;428.58555;428.58555;428.58555;428.58555;['c', 'a', 'm', 'i', 's', 'a'];0;camisa;C:\2023\REPSWITCH21092023\REPSWITCH_excgange\REPSWITCH_excgange\data/440202_REPSWITCH1_version2_list2_2024-01-19_14h56.06.787_micRespv2l2_recorded\recording_micRespv2l2_2024-01-19_15h03.10.398.wav;431.606798;432.1067866;None;431.606798;431.606798;431.606798;431.606798;431.606798;431.606798;[0.8399108992889524, 0.9695983994752169, 1.1662555998191237, 1.2902593994513154, 1.4401178993284702, 1.646905600093305];;;;;;440202;1;2024-01-19_14h56.06.787;REPSWITCH1_version2_list2;2022.2.4;143.9924194;
REPSWITCH1/PICTURE_319.png;vaca;type;gold;nontarget;1;NT;4;3;2;2;Stim1_Set4;0;None;86;85;86;0;85;85;85;;;;;;;;;;;;;;;;;;;;;;;432.1067866;433.1833492;433.1833492;433.1833492;433.1833492;433.1833492;433.1833492;433.1833492;433.1833492;['v', 'a', 'x', 'backspace', 'c', 'a'];0;vaca;C:\2023\REPSWITCH21092023\REPSWITCH_excgange\REPSWITCH_excgange\data/440202_REPSWITCH1_version2_list2_2024-01-19_14h56.06.787_micRespv2l2_recorded\recording_micRespv2l2_2024-01-19_15h03.14.996.wav;436.2115221;;None;436.2115221;436.2115221;436.2115221;436.2115221;436.2115221;436.2115221;[1.0246841991320252, 1.1585691990330815, 1.3161671990528703, 1.8441134989261627, 2.1522848987951875, 2.247914998792112];;;;;;440202;1;2024-01-19_14h56.06.787;REPSWITCH1_version2_list2;2022.2.4;143.9924194;
REPSWITCH1/PICTURE_319.png;vaca;speak;darkblue;switch;2;T;4;3;2;2;Stim1_Set4;0;None;87;86;87;0;86;86;86;;;;;;;;;;;;;;;;;;;;;;;436.7115662;437.8506169;437.8506169;437.8506169;437.8506169;437.8506169;437.8506169;437.8506169;437.8506169;None;0;;C:\2023\REPSWITCH21092023\REPSWITCH_excgange\REPSWITCH_excgange\data/440202_REPSWITCH1_version2_list2_2024-01-19_14h56.06.787_micRespv2l2_recorded\recording_micRespv2l2_2024-01-19_15h03.19.663.wav;440.8717998;441.3719024;None;440.8717998;440.8717998;440.8717998;440.8717998;440.8717998;440.8717998;;;;;;;440202;1;2024-01-19_14h56.06.787;REPSWITCH1_version2_list2;2022.2.4;143.9924194;
REPSWITCH1/PICTURE_464.png;goma;type;gold;filler;1;F;4;3;2;2;Stim6_Set3;1;switch;88;87;88;0;87;87;87;;;;;;;;;;;;;;;;;;;;;;;441.3719024;442.4831798;442.4831798;442.4831798;442.4831798;442.4831798;442.4831798;442.4831798;442.4831798;['g', 'o', 'm', 'a'];0;goma;C:\2023\REPSWITCH21092023\REPSWITCH_excgange\REPSWITCH_excgange\data/440202_REPSWITCH1_version2_list2_2024-01-19_14h56.06.787_micRespv2l2_recorded\recording_micRespv2l2_2024-01-19_15h03.24.296.wav;445.5043792;446.0044279;None;445.5043792;445.5043792;445.5043792;445.5043792;445.5043792;445.5043792;[0.830757999792695, 1.173591298982501, 1.316423799842596, 1.4399956995621324];;;;;;440202;1;2024-01-19_14h56.06.787;REPSWITCH1_version2_list2;2022.2.4;143.9924194;
REPSWITCH1/PICTURE_728.png;pulpo;speak;darkblue;nontarget;2;NT;4;3;2;2;Stim8_Set4;1;switch;89;88;89;0;88;88;88;;;;;;;;;;;;;;;;;;;;;;;446.0044279;447.1296631;447.1296631;447.1296631;447.1296631;447.1296631;447.1296631;447.1296631;447.1296631;None;0;;C:\2023\REPSWITCH21092023\REPSWITCH_excgange\REPSWITCH_excgange\data/440202_REPSWITCH1_version2_list2_2024-01-19_14h56.06.787_micRespv2l2_recorded\recording_micRespv2l2_2024-01-19_15h03.28.943.wav;450.1577963;;None;450.1577963;450.1577963;450.1577963;450.1577963;450.1577963;450.1577963;;;;;;;440202;1;2024-01-19_14h56.06.787;REPSWITCH1_version2_list2;2022.2.4;143.9924194;
REPSWITCH1/PICTURE_728.png;pulpo;speak;darkblue;repeat;2;T;4;3;2;2;Stim8_Set4;0;None;90;89;90;0;89;89;89;;;;;;;;;;;;;;;;;;;;;;;450.6578117;451.7760795;451.7760795;451.7760795;451.7760795;451.7760795;451.7760795;451.7760795;451.7760795;None;0;;C:\2023\REPSWITCH21092023\REPSWITCH_excgange\REPSWITCH_excgange\data/440202_REPSWITCH1_version2_list2_2024-01-19_14h56.06.787_micRespv2l2_recorded\recording_micRespv2l2_2024-01-19_15h03.33.589.wav;454.7972077;455.2972839;None;454.7972077;454.7972077;454.7972077;454.7972077;454.7972077;454.7972077;;;;;;;440202;1;2024-01-19_14h56.06.787;REPSWITCH1_version2_list2;2022.2.4;143.9924194;
REPSWITCH1/PICTURE_320.png;iglesia;type;gold;filler;1;F;4;3;2;2;Stim8_Set3;0;None;91;90;91;0;90;90;90;;;;;;;;;;;;;;;;;;;;;;;455.2972839;456.3391181;456.3391181;456.3391181;456.3391181;456.3391181;456.3391181;456.3391181;456.3391181;['i', 'g', 'l', 'e', 's', 'i'];0;iglesi;C:\2023\REPSWITCH21092023\REPSWITCH_excgange\REPSWITCH_excgange\data/440202_REPSWITCH1_version2_list2_2024-01-19_14h56.06.787_micRespv2l2_recorded\recording_micRespv2l2_2024-01-19_15h03.38.152.wav;459.3602955;459.8603787;None;459.3602955;459.3602955;459.3602955;459.3602955;459.3602955;459.3602955;[1.7245494993403554, 2.0230546994134784, 2.3801276991143823, 2.5335538992658257, 2.734876899048686, 2.866959899663925];;;;;;440202;1;2024-01-19_14h56.06.787;REPSWITCH1_version2_list2;2022.2.4;143.9924194;
REPSWITCH1/PICTURE_576.png;guante;speak;darkblue;filler;2;F;4;3;2;2;Stim1_Set3;0;None;92;91;92;0;91;91;91;;;;;;;;;;;;;;;;;;;;;;;459.8603787;461.0202846;461.0202846;461.0202846;461.0202846;461.0202846;461.0202846;461.0202846;461.0202846;None;0;;C:\2023\REPSWITCH21092023\REPSWITCH_excgange\REPSWITCH_excgange\data/440202_REPSWITCH1_version2_list2_2024-01-19_14h56.06.787_micRespv2l2_recorded\recording_micRespv2l2_2024-01-19_15h03.42.833.wav;464.0414992;464.5415459;None;464.0414992;464.0414992;464.0414992;464.0414992;464.0414992;464.0414992;;;;;;;440202;1;2024-01-19_14h56.06.787;REPSWITCH1_version2_list2;2022.2.4;143.9924194;
REPSWITCH1/PICTURE_8.png;pierna;speak;darkblue;nontarget;2;NT;4;3;2;2;Stim3_Set4;1;repeat;93;92;93;0;92;92;92;;;;;;;;;;;;;;;;;;;;;;;464.5415459;465.6111294;465.6111294;465.6111294;465.6111294;465.6111294;465.6111294;465.6111294;465.6111294;None;0;;C:\2023\REPSWITCH21092023\REPSWITCH_excgange\REPSWITCH_excgange\data/440202_REPSWITCH1_version2_list2_2024-01-19_14h56.06.787_micRespv2l2_recorded\recording_micRespv2l2_2024-01-19_15h03.47.423.wav;468.6324362;469.1324228;None;468.6324362;468.6324362;468.6324362;468.6324362;468.6324362;468.6324362;;;;;;;440202;1;2024-01-19_14h56.06.787;REPSWITCH1_version2_list2;2022.2.4;143.9924194;
REPSWITCH1/PICTURE_8.png;pierna;type;gold;switch;1;T;4;3;2;2;Stim3_Set4;0;None;94;93;94;0;93;93;93;;;;;;;;;;;;;;;;;;;;;;;469.1324228;470.1881538;470.1881538;470.1881538;470.1881538;470.1881538;470.1881538;470.1881538;470.1881538;['p', 'i', 'e', 'r', 'n', 'a'];0;pierna;C:\2023\REPSWITCH21092023\REPSWITCH_excgange\REPSWITCH_excgange\data/440202_REPSWITCH1_version2_list2_2024-01-19_14h56.06.787_micRespv2l2_recorded\recording_micRespv2l2_2024-01-19_15h03.52.001.wav;473.2093343;473.7094157;None;473.2093343;473.2093343;473.2093343;473.2093343;473.2093343;473.2093343;[1.025366399437189, 1.2335652988404036, 1.432892899028957, 1.5325187994167209, 1.8495017988607287, 1.9960007993504405];;;;;;440202;1;2024-01-19_14h56.06.787;REPSWITCH1_version2_list2;2022.2.4;143.9924194;
REPSWITCH1/PICTURE_673.png;tenedor;speak;darkblue;filler;2;F;4;3;2;2;Extra5;0;None;95;94;95;0;94;94;94;;;;;;;;;;;;;;;;;;;;;;;473.7094157;474.8137677;474.8137677;474.8137677;474.8137677;474.8137677;474.8137677;474.8137677;474.8137677;None;0;;C:\2023\REPSWITCH21092023\REPSWITCH_excgange\REPSWITCH_excgange\data/440202_REPSWITCH1_version2_list2_2024-01-19_14h56.06.787_micRespv2l2_recorded\recording_micRespv2l2_2024-01-19_15h03.56.627.wav;477.8349381;478.3350051;None;477.8349381;477.8349381;477.8349381;477.8349381;477.8349381;477.8349381;;;;;;;440202;1;2024-01-19_14h56.06.787;REPSWITCH1_version2_list2;2022.2.4;143.9924194;
REPSWITCH1/PICTURE_35.png;oreja;type;gold;filler;1;F;4;3;2;2;Stim5_Set3;1;switch;96;95;96;0;95;95;95;;;;;;;;;;;;;;;;;;;;;;;478.3350051;479.5018421;479.5018421;479.5018421;479.5018421;479.5018421;479.5018421;479.5018421;479.5018421;['o', 'r', 'e', 'j', 'a'];0;oreja;C:\2023\REPSWITCH21092023\REPSWITCH_excgange\REPSWITCH_excgange\data/440202_REPSWITCH1_version2_list2_2024-01-19_14h56.06.787_micRespv2l2_recorded\recording_micRespv2l2_2024-01-19_15h04.01.315.wav;482.523034;483.0231146;None;482.523034;482.523034;482.523034;482.523034;482.523034;482.523034;[0.8542269999161363, 1.1539040999487042, 1.3084223996847868, 1.6555824000388384, 1.82799799926579];;;;;;440202;1;2024-01-19_14h56.06.787;REPSWITCH1_version2_list2;2022.2.4;143.9924194;
REPSWITCH1/PICTURE_663.png;columna;speak;darkblue;filler;2;F;4;3;2;2;Extra6;0;None;97;96;97;0;96;96;96;;;;;;;;;;;;;;;;;;;;;;;483.0231146;484.1690897;484.1690897;484.1690897;484.1690897;484.1690897;484.1690897;484.1690897;484.1690897;None;0;;C:\2023\REPSWITCH21092023\REPSWITCH_excgange\REPSWITCH_excgange\data/440202_REPSWITCH1_version2_list2_2024-01-19_14h56.06.787_micRespv2l2_recorded\recording_micRespv2l2_2024-01-19_15h04.05.982.wav;487.1903164;487.6904188;None;487.1903164;487.1903164;487.1903164;487.1903164;487.1903164;487.1903164;;;;;;;440202;1;2024-01-19_14h56.06.787;REPSWITCH1_version2_list2;2022.2.4;143.9924194;
REPSWITCH1/PICTURE_242.png;cartero;type;gold;filler;1;F;4;3;2;2;Stim3_Set3;1;switch;98;97;98;0;97;97;97;;;;;;;;;;;;;;;;;;;;;;;487.6904188;488.7530772;488.7530772;488.7530772;488.7530772;488.7530772;488.7530772;488.7530772;488.7530772;['c', 'a', 'r', 't', 'e', 'r', 'o'];0;cartero;C:\2023\REPSWITCH21092023\REPSWITCH_excgange\REPSWITCH_excgange\data/440202_REPSWITCH1_version2_list2_2024-01-19_14h56.06.787_micRespv2l2_recorded\recording_micRespv2l2_2024-01-19_15h04.10.566.wav;491.7742383;492.2743024;None;491.7742383;491.7742383;491.7742383;491.7742383;491.7742383;491.7742383;[1.0651776995509863, 1.182787898927927, 1.2614892991259694, 1.4169621989130974, 1.546637699007988, 1.6754656992852688, 1.9727505994960666];;;;;;440202;1;2024-01-19_14h56.06.787;REPSWITCH1_version2_list2;2022.2.4;143.9924194;
REPSWITCH1/PICTURE_48.png;bombero;type;gold;nontarget;1;NT;4;3;2;2;Stim7_Set4;1;repeat;99;98;99;0;98;98;98;;;;;;;;;;;;;;;;;;;;;;;492.2743024;493.3299966;493.3299966;493.3299966;493.3299966;493.3299966;493.3299966;493.3299966;493.3299966;['b', 'o', 'm', 'b', 'e', 'r', 'o'];0;bombero;C:\2023\REPSWITCH21092023\REPSWITCH_excgange\REPSWITCH_excgange\data/440202_REPSWITCH1_version2_list2_2024-01-19_14h56.06.787_micRespv2l2_recorded\recording_micRespv2l2_2024-01-19_15h04.15.144.wav;496.3581643;;None;496.3581643;496.3581643;496.3581643;496.3581643;496.3581643;496.3581643;[1.0899000000208616, 1.3659065999090672, 1.950959799811244, 2.206909700296819, 2.3454269003123045, 2.4798213001340628, 2.7413809997960925];;;;;;440202;1;2024-01-19_14h56.06.787;REPSWITCH1_version2_list2;2022.2.4;143.9924194;
REPSWITCH1/PICTURE_48.png;bombero;type;gold;repeat;1;T;4;3;2;2;Stim7_Set4;0;None;100;99;100;0;99;99;99;;;;;;;;;;;;;;;;;;;;;;;496.8583011;498.0042011;498.0042011;498.0042011;498.0042011;498.0042011;498.0042011;498.0042011;498.0042011;['b', 'o', 'm', 'b', 'e', 'r', 'o'];0;bombero;C:\2023\REPSWITCH21092023\REPSWITCH_excgange\REPSWITCH_excgange\data/440202_REPSWITCH1_version2_list2_2024-01-19_14h56.06.787_micRespv2l2_recorded\recording_micRespv2l2_2024-01-19_15h04.19.817.wav;501.0255007;501.525499;None;501.0255007;501.0255007;501.0255007;501.0255007;501.0255007;501.0255007;[0.8449339997023344, 1.139937199652195, 1.3502388997003436, 1.6983503000810742, 1.8578516002744436, 1.9963515000417829, 2.273733399808407];;;;;;440202;1;2024-01-19_14h56.06.787;REPSWITCH1_version2_list2;2022.2.4;143.9924194;
REPSWITCH1/PICTURE_391.png;cadena;speak;darkblue;filler;2;F;4;3;2;2;Extra2;0;None;101;100;101;0;100;100;100;;;;;;;;;;;;;;;;;;;;;;;501.525499;502.6784409;502.6784409;502.6784409;502.6784409;502.6784409;502.6784409;502.6784409;502.6784409;None;0;;C:\2023\REPSWITCH21092023\REPSWITCH_excgange\REPSWITCH_excgange\data/440202_REPSWITCH1_version2_list2_2024-01-19_14h56.06.787_micRespv2l2_recorded\recording_micRespv2l2_2024-01-19_15h04.24.492.wav;505.6996234;506.199689;None;505.6996234;505.6996234;505.6996234;505.6996234;505.6996234;505.6996234;;;;;;;440202;1;2024-01-19_14h56.06.787;REPSWITCH1_version2_list2;2022.2.4;143.9924194;
REPSWITCH1/PICTURE_590.png;escoba;type;gold;filler;1;F;4;3;2;2;Extra3;0;None;102;101;102;0;101;101;101;;;;;;;;;;;;;;;;;;;;;;;506.199689;507.2762291;507.2762291;507.2762291;507.2762291;507.2762291;507.2762291;507.2762291;507.2762291;['e', 's', 'c', 'o', 'b', 'a'];0;escoba;C:\2023\REPSWITCH21092023\REPSWITCH_excgange\REPSWITCH_excgange\data/440202_REPSWITCH1_version2_list2_2024-01-19_14h56.06.787_micRespv2l2_recorded\recording_micRespv2l2_2024-01-19_15h04.29.089.wav;510.2974526;510.7974909;space;510.2974526;510.2974526;510.2974526;510.2974526;510.2974526;510.2974526;[0.9555718991905451, 1.1718789990991354, 1.3493554992601275, 1.6536108991131186, 2.0037975991144776, 2.135360999032855];510.7974909;510.7974909;37.3412712;;;440202;1;2024-01-19_14h56.06.787;REPSWITCH1_version2_list2;2022.2.4;143.9924194;
REPSWITCH1/PICTURE_340.png;espejo;type;gold;filler;1;F;1;1;2;2;Extra1;0;None;103;102;1;0;102;102;102;;;;;;;;;;;;;;;;;;;;;;;548.1495474;549.2191747;549.2191747;549.2191747;549.2191747;549.2191747;549.2191747;549.2191747;549.2191747;['e', 's', 'p', 'e', 'j', 'o'];0;espejo;C:\2023\REPSWITCH21092023\REPSWITCH_excgange\REPSWITCH_excgange\data/440202_REPSWITCH1_version2_list2_2024-01-19_14h56.06.787_micRespv2l2_recorded\recording_micRespv2l2_2024-01-19_15h05.11.033.wav;552.2472844;;None;552.2472844;552.2472844;552.2472844;552.2472844;552.2472844;552.2472844;[0.8243707995861769, 1.0535230999812484, 1.2520080003887415, 1.3755443999543786, 1.5759204998612404, 1.7393354997038841];;;;;;440202;1;2024-01-19_14h56.06.787;REPSWITCH1_version2_list2;2022.2.4;143.9924194;
REPSWITCH1/PICTURE_391.png;cadena;speak;darkblue;filler;2;F;1;1;2;2;Extra2;0;None;104;103;2;0;103;103;103;;;;;;;;;;;;;;;;;;;;;;;552.7473926;553.8378615;553.8378615;553.8378615;553.8378615;553.8378615;553.8378615;553.8378615;553.8378615;None;0;;C:\2023\REPSWITCH21092023\REPSWITCH_excgange\REPSWITCH_excgange\data/440202_REPSWITCH1_version2_list2_2024-01-19_14h56.06.787_micRespv2l2_recorded\recording_micRespv2l2_2024-01-19_15h05.15.652.wav;556.8590233;557.3590688;None;556.8590233;556.8590233;556.8590233;556.8590233;556.8590233;556.8590233;;;;;;;440202;1;2024-01-19_14h56.06.787;REPSWITCH1_version2_list2;2022.2.4;143.9924194;
REPSWITCH1/PICTURE_178.png;puente;speak;darkblue;nontarget;2;NT;1;1;2;2;Stim1_Set1;1;repeat;105;104;3;0;104;104;104;;;;;;;;;;;;;;;;;;;;;;;557.3590688;558.4425794;558.4425794;558.4425794;558.4425794;558.4425794;558.4425794;558.4425794;558.4425794;None;0;;C:\2023\REPSWITCH21092023\REPSWITCH_excgange\REPSWITCH_excgange\data/440202_REPSWITCH1_version2_list2_2024-01-19_14h56.06.787_micRespv2l2_recorded\recording_micRespv2l2_2024-01-19_15h05.20.255.wav;561.4638495;561.9638542;None;561.4638495;561.4638495;561.4638495;561.4638495;561.4638495;561.4638495;;;;;;;440202;1;2024-01-19_14h56.06.787;REPSWITCH1_version2_list2;2022.2.4;143.9924194;
REPSWITCH1/PICTURE_178.png;puente;speak;darkblue;repeat;2;T;1;1;2;2;Stim1_Set1;0;None;106;105;4;0;105;105;105;;;;;;;;;;;;;;;;;;;;;;;561.9638542;563.1793491;563.1793491;563.1793491;563.1793491;563.1793491;563.1793491;563.1793491;563.1793491;None;0;;C:\2023\REPSWITCH21092023\REPSWITCH_excgange\REPSWITCH_excgange\data/440202_REPSWITCH1_version2_list2_2024-01-19_14h56.06.787_micRespv2l2_recorded\recording_micRespv2l2_2024-01-19_15h05.24.993.wav;566.2074631;;None;566.2074631;566.2074631;566.2074631;566.2074631;566.2074631;566.2074631;;;;;;;440202;1;2024-01-19_14h56.06.787;REPSWITCH1_version2_list2;2022.2.4;143.9924194;
REPSWITCH1/PICTURE_319.png;vaca;type;gold;filler;1;F;1;1;2;2;Stim1_Set4;0;None;107;106;5;0;106;106;106;;;;;;;;;;;;;;;;;;;;;;;566.7075176;567.8187615;567.8187615;567.8187615;567.8187615;567.8187615;567.8187615;567.8187615;567.8187615;['v', 'a', 'c', 'x', 'a'];0;vaxa;C:\2023\REPSWITCH21092023\REPSWITCH_excgange\REPSWITCH_excgange\data/440202_REPSWITCH1_version2_list2_2024-01-19_14h56.06.787_micRespv2l2_recorded\recording_micRespv2l2_2024-01-19_15h05.29.631.wav;570.8400006;571.3400639;None;570.8400006;570.8400006;570.8400006;570.8400006;570.8400006;570.8400006;[1.09393369872123, 1.2436680989339948, 1.3825062988325953, 1.3855288987979293, 1.4851640993729234];;;;;;440202;1;2024-01-19_14h56.06.787;REPSWITCH1_version2_list2;2022.2.4;143.9924194;
REPSWITCH1/PICTURE_381.png;fresa;speak;darkblue;nontarget;2;NT;1;1;2;2;Stim2_Set1;1;switch;108;107;6;0;107;107;107;;;;;;;;;;;;;;;;;;;;;;;571.3400639;572.4443907;572.4443907;572.4443907;572.4443907;572.4443907;572.4443907;572.4443907;572.4443907;None;0;;C:\2023\REPSWITCH21092023\REPSWITCH_excgange\REPSWITCH_excgange\data/440202_REPSWITCH1_version2_list2_2024-01-19_14h56.06.787_micRespv2l2_recorded\recording_micRespv2l2_2024-01-19_15h05.34.257.wav;575.4656385;575.9656221;None;575.4656385;575.4656385;575.4656385;575.4656385;575.4656385;575.4656385;;;;;;;440202;1;2024-01-19_14h56.06.787;REPSWITCH1_version2_list2;2022.2.4;143.9924194;
REPSWITCH1/PICTURE_381.png;fresa;speak;darkblue;repeat;2;T;1;1;2;2;Stim2_Set1;0;None;109;108;7;0;108;108;108;;;;;;;;;;;;;;;;;;;;;;;575.9656221;577.0144498;577.0144498;577.0144498;577.0144498;577.0144498;577.0144498;577.0144498;577.0144498;None;0;;C:\2023\REPSWITCH21092023\REPSWITCH_excgange\REPSWITCH_excgange\data/440202_REPSWITCH1_version2_list2_2024-01-19_14h56.06.787_micRespv2l2_recorded\recording_micRespv2l2_2024-01-19_15h05.38.828.wav;580.0426168;;None;580.0426168;580.0426168;580.0426168;580.0426168;580.0426168;580.0426168;;;;;;;440202;1;2024-01-19_14h56.06.787;REPSWITCH1_version2_list2;2022.2.4;143.9924194;
REPSWITCH1/PICTURE_719.png;baño;type;gold;filler;1;F;1;1;2;2;Stim2_Set4;1;switch;110;109;8;0;109;109;109;;;;;;;;;;;;;;;;;;;;;;;580.5426136;581.7094523;581.7094523;581.7094523;581.7094523;581.7094523;581.7094523;581.7094523;581.7094523;['b', 'a', 'ñ', 'o'];0;baño;C:\2023\REPSWITCH21092023\REPSWITCH_excgange\REPSWITCH_excgange\data/440202_REPSWITCH1_version2_list2_2024-01-19_14h56.06.787_micRespv2l2_recorded\recording_micRespv2l2_2024-01-19_15h05.43.523.wav;584.7306412;585.2307473;None;584.7306412;584.7306412;584.7306412;584.7306412;584.7306412;584.7306412;[0.861014299094677, 1.0434848992154002, 1.417280599474907, 1.5963534992188215];;;;;;440202;1;2024-01-19_14h56.06.787;REPSWITCH1_version2_list2;2022.2.4;143.9924194;
REPSWITCH1/PICTURE_135.png;traje;speak;darkblue;nontarget;2;NT;1;1;2;2;Stim3_Set1;0;None;111;110;9;0;110;110;110;;;;;;;;;;;;;;;;;;;;;;;585.2307473;586.2934161;586.2934161;586.2934161;586.2934161;586.2934161;586.2934161;586.2934161;586.2934161;None;0;;C:\2023\REPSWITCH21092023\REPSWITCH_excgange\REPSWITCH_excgange\data/440202_REPSWITCH1_version2_list2_2024-01-19_14h56.06.787_micRespv2l2_recorded\recording_micRespv2l2_2024-01-19_15h05.48.106.wav;589.3215334;;None;589.3215334;589.3215334;589.3215334;589.3215334;589.3215334;589.3215334;;;;;;;440202;1;2024-01-19_14h56.06.787;REPSWITCH1_version2_list2;2022.2.4;143.9924194;
REPSWITCH1/PICTURE_135.png;traje;type;gold;switch;1;T;1;1;2;2;Stim3_Set1;0;None;112;111;10;0;111;111;111;;;;;;;;;;;;;;;;;;;;;;;589.8215878;590.8425592;590.8425592;590.8425592;590.8425592;590.8425592;590.8425592;590.8425592;590.8425592;['t', 'r', 'a', 'j', 'e'];0;traje;C:\2023\REPSWITCH21092023\REPSWITCH_excgange\REPSWITCH_excgange\data/440202_REPSWITCH1_version2_list2_2024-01-19_14h56.06.787_micRespv2l2_recorded\recording_micRespv2l2_2024-01-19_15h05.52.655.wav;593.8638044;594.3638507;None;593.8638044;593.8638044;593.8638044;593.8638044;593.8638044;593.8638044;[0.7597736995667219, 0.895312299951911, 1.031852599233389, 1.322146499529481, 1.4361311998218298];;;;;;440202;1;2024-01-19_14h56.06.787;REPSWITCH1_version2_list2;2022.2.4;143.9924194;
REPSWITCH1/PICTURE_687.png;camisa;speak;darkblue;filler;2;F;1;1;2;2;Stim5_Set4;0;None;113;112;11;0;112;112;112;;;;;;;;;;;;;;;;;;;;;;;594.3638507;595.4334577;595.4334577;595.4334577;595.4334577;595.4334577;595.4334577;595.4334577;595.4334577;None;0;;C:\2023\REPSWITCH21092023\REPSWITCH_excgange\REPSWITCH_excgange\data/440202_REPSWITCH1_version2_list2_2024-01-19_14h56.06.787_micRespv2l2_recorded\recording_micRespv2l2_2024-01-19_15h05.57.247.wav;598.4615882;;None;598.4615882;598.4615882;598.4615882;598.4615882;598.4615882;598.4615882;;;;;;;440202;1;2024-01-19_14h56.06.787;REPSWITCH1_version2_list2;2022.2.4;143.9924194;
REPSWITCH1/PICTURE_128.png;muñeca;type;gold;nontarget;1;NT;1;1;2;2;Stim4_Set1;1;switch;114;113;12;0;113;113;113;;;;;;;;;;;;;;;;;;;;;;;598.9616594;600.031249;600.031249;600.031249;600.031249;600.031249;600.031249;600.031249;600.031249;['m', 'u', 'ñ', 'e', 'c', 'a'];0;muñeca;C:\2023\REPSWITCH21092023\REPSWITCH_excgange\REPSWITCH_excgange\data/440202_REPSWITCH1_version2_list2_2024-01-19_14h56.06.787_micRespv2l2_recorded\recording_micRespv2l2_2024-01-19_15h06.01.844.wav;603.0525089;603.5525101;None;603.0525089;603.0525089;603.0525089;603.0525089;603.0525089;603.0525089;[0.9114293996244669, 1.0758640002459288, 1.4625803995877504, 1.651795799843967, 1.835224200040102, 1.966784999705851];;;;;;440202;1;2024-01-19_14h56.06.787;REPSWITCH1_version2_list2;2022.2.4;143.9924194;
REPSWITCH1/PICTURE_128.png;muñeca;speak;darkblue;switch;2;T;1;1;2;2;Stim4_Set1;0;None;115;114;13;0;114;114;114;;;;;;;;;;;;;;;;;;;;;;;603.5525101;604.6985506;604.6985506;604.6985506;604.6985506;604.6985506;604.6985506;604.6985506;604.6985506;None;0;;C:\2023\REPSWITCH21092023\REPSWITCH_excgange\REPSWITCH_excgange\data/440202_REPSWITCH1_version2_list2_2024-01-19_14h56.06.787_micRespv2l2_recorded\recording_micRespv2l2_2024-01-19_15h06.06.512.wav;607.726683;;None;607.726683;607.726683;607.726683;607.726683;607.726683;607.726683;;;;;;;440202;1;2024-01-19_14h56.06.787;REPSWITCH1_version2_list2;2022.2.4;143.9924194;
REPSWITCH1/PICTURE_8.png;pierna;speak;darkblue;filler;2;F;1;1;2;2;Stim3_Set4;0;None;116;115;14;0;115;115;115;;;;;;;;;;;;;;;;;;;;;;;608.2267246;609.3658535;609.3658535;609.3658535;609.3658535;609.3658535;609.3658535;609.3658535;609.3658535;None;0;;C:\2023\REPSWITCH21092023\REPSWITCH_excgange\REPSWITCH_excgange\data/440202_REPSWITCH1_version2_list2_2024-01-19_14h56.06.787_micRespv2l2_recorded\recording_micRespv2l2_2024-01-19_15h06.11.180.wav;612.393961;;None;612.393961;612.393961;612.393961;612.393961;612.393961;612.393961;;;;;;;440202;1;2024-01-19_14h56.06.787;REPSWITCH1_version2_list2;2022.2.4;143.9924194;
REPSWITCH1/PICTURE_19.png;pavo;speak;darkblue;nontarget;2;NT;1;1;2;2;Stim5_Set1;0;None;117;116;15;0;116;116;116;;;;;;;;;;;;;;;;;;;;;;;612.8940329;614.0261063;614.0261063;614.0261063;614.0261063;614.0261063;614.0261063;614.0261063;614.0261063;None;0;;C:\2023\REPSWITCH21092023\REPSWITCH_excgange\REPSWITCH_excgange\data/440202_REPSWITCH1_version2_list2_2024-01-19_14h56.06.787_micRespv2l2_recorded\recording_micRespv2l2_2024-01-19_15h06.15.840.wav;617.0473101;617.547411;None;617.0473101;617.0473101;617.0473101;617.0473101;617.0473101;617.0473101;;;;;;;440202;1;2024-01-19_14h56.06.787;REPSWITCH1_version2_list2;2022.2.4;143.9924194;
REPSWITCH1/PICTURE_19.png;pavo;type;gold;switch;1;T;1;1;2;2;Stim5_Set1;0;None;118;117;16;0;117;117;117;;;;;;;;;;;;;;;;;;;;;;;617.547411;618.721156;618.721156;618.721156;618.721156;618.721156;618.721156;618.721156;618.721156;['p', 'a', 'v', 'o'];0;pavo;C:\2023\REPSWITCH21092023\REPSWITCH_excgange\REPSWITCH_excgange\data/440202_REPSWITCH1_version2_list2_2024-01-19_14h56.06.787_micRespv2l2_recorded\recording_micRespv2l2_2024-01-19_15h06.20.534.wav;621.7423661;622.2424581;None;621.7423661;621.7423661;621.7423661;621.7423661;621.7423661;621.7423661;[0.9022206999361515, 1.1485043996945024, 1.3956714998930693, 1.6578257996588945];;;;;;440202;1;2024-01-19_14h56.06.787;REPSWITCH1_version2_list2;2022.2.4;143.9924194;
REPSWITCH1/PICTURE_16.png;cazador;type;gold;nontarget;1;NT;1;1;2;2;Stim6_Set1;1;switch;119;118;17;0;118;118;118;;;;;;;;;;;;;;;;;;;;;;;622.2424581;623.450995;623.450995;623.450995;623.450995;623.450995;623.450995;623.450995;623.450995;['c', 'a', 'z', 'a', 'd', 'o', 'r'];0;cazador;C:\2023\REPSWITCH21092023\REPSWITCH_excgange\REPSWITCH_excgange\data/440202_REPSWITCH1_version2_list2_2024-01-19_14h56.06.787_micRespv2l2_recorded\recording_micRespv2l2_2024-01-19_15h06.25.265.wav;626.4791016;;None;626.4791016;626.4791016;626.4791016;626.4791016;626.4791016;626.4791016;[0.9064822997897863, 1.0081423996016383, 1.238370099104941, 1.7577587999403477, 1.9550984995439649, 2.2800273997709155, 2.4221336990594864];;;;;;440202;1;2024-01-19_14h56.06.787;REPSWITCH1_version2_list2;2022.2.4;143.9924194;
REPSWITCH1/PICTURE_16.png;cazador;type;gold;repeat;1;T;1;1;2;2;Stim6_Set1;0;None;120;119;18;0;119;119;119;;;;;;;;;;;;;;;;;;;;;;;626.979184;628.076539;628.076539;628.076539;628.076539;628.076539;628.076539;628.076539;628.076539;['c', 'a', 'z', 'a', 'd', 'o', 'r'];0;cazador;C:\2023\REPSWITCH21092023\REPSWITCH_excgange\REPSWITCH_excgange\data/440202_REPSWITCH1_version2_list2_2024-01-19_14h56.06.787_micRespv2l2_recorded\recording_micRespv2l2_2024-01-19_15h06.29.890.wav;631.0977463;631.5978354;None;631.0977463;631.0977463;631.0977463;631.0977463;631.0977463;631.0977463;[0.8738571992143989, 1.0003616996109486, 1.207974899560213, 1.3854677993804216, 1.5254050996154547, 1.9072943991050124, 2.1075622998178005];;;;;;440202;1;2024-01-19_14h56.06.787;REPSWITCH1_version2_list2;2022.2.4;143.9924194;
REPSWITCH1/PICTURE_498.png;taza;speak;darkblue;filler;2;F;1;1;2;2;Stim4_Set4;0;None;121;120;19;0;120;120;120;;;;;;;;;;;;;;;;;;;;;;;631.5978354;632.7021676;632.7021676;632.7021676;632.7021676;632.7021676;632.7021676;632.7021676;632.7021676;None;0;;C:\2023\REPSWITCH21092023\REPSWITCH_excgange\REPSWITCH_excgange\data/440202_REPSWITCH1_version2_list2_2024-01-19_14h56.06.787_micRespv2l2_recorded\recording_micRespv2l2_2024-01-19_15h06.34.516.wav;635.7302891;;None;635.7302891;635.7302891;635.7302891;635.7302891;635.7302891;635.7302891;;;;;;;440202;1;2024-01-19_14h56.06.787;REPSWITCH1_version2_list2;2022.2.4;143.9924194;
REPSWITCH1/PICTURE_48.png;bombero;type;gold;filler;1;F;1;1;2;2;Stim7_Set4;0;None;122;121;20;0;121;121;121;;;;;;;;;;;;;;;;;;;;;;;636.2303639;637.2583472;637.2583472;637.2583472;637.2583472;637.2583472;637.2583472;637.2583472;637.2583472;['b', 'o', 'm', 'b', 'e', 'r', 'o'];0;bombero;C:\2023\REPSWITCH21092023\REPSWITCH_excgange\REPSWITCH_excgange\data/440202_REPSWITCH1_version2_list2_2024-01-19_14h56.06.787_micRespv2l2_recorded\recording_micRespv2l2_2024-01-19_15h06.39.072.wav;640.2864615;;None;640.2864615;640.2864615;640.2864615;640.2864615;640.2864615;640.2864615;[1.0084480997174978, 1.3582536997273564, 1.5750193996354938, 2.022511599585414, 2.1779830995947123, 2.302255199290812, 2.588813199661672];;;;;;440202;1;2024-01-19_14h56.06.787;REPSWITCH1_version2_list2;2022.2.4;143.9924194;
REPSWITCH1/PICTURE_142.png;vaso;type;gold;nontarget;1;NT;1;1;2;2;Stim7_Set1;1;repeat;123;122;21;0;122;122;122;;;;;;;;;;;;;;;;;;;;;;;640.786481;641.890817;641.890817;641.890817;641.890817;641.890817;641.890817;641.890817;641.890817;['v', 'a', 's', 'o'];0;vaso;C:\2023\REPSWITCH21092023\REPSWITCH_excgange\REPSWITCH_excgange\data/440202_REPSWITCH1_version2_list2_2024-01-19_14h56.06.787_micRespv2l2_recorded\recording_micRespv2l2_2024-01-19_15h06.43.704.wav;644.9120527;645.4121153;None;644.9120527;644.9120527;644.9120527;644.9120527;644.9120527;644.9120527;[0.8517695991322398, 0.9661906994879246, 1.1896928995847702, 1.3710756991058588];;;;;;440202;1;2024-01-19_14h56.06.787;REPSWITCH1_version2_list2;2022.2.4;143.9924194;
REPSWITCH1/PICTURE_142.png;vaso;type;gold;repeat;1;T;1;1;2;2;Stim7_Set1;0;None;124;123;22;0;123;123;123;;;;;;;;;;;;;;;;;;;;;;;645.4121153;646.5720051;646.5720051;646.5720051;646.5720051;646.5720051;646.5720051;646.5720051;646.5720051;['v', 'a', 's', 'o'];0;vaso;C:\2023\REPSWITCH21092023\REPSWITCH_excgange\REPSWITCH_excgange\data/440202_REPSWITCH1_version2_list2_2024-01-19_14h56.06.787_micRespv2l2_recorded\recording_micRespv2l2_2024-01-19_15h06.48.386.wav;649.5932185;650.0932598;None;649.5932185;649.5932185;649.5932185;649.5932185;649.5932185;649.5932185;[0.813264699652791, 0.9397668996825814, 1.1719914991408587, 1.3384282989427447];;;;;;440202;1;2024-01-19_14h56.06.787;REPSWITCH1_version2_list2;2022.2.4;143.9924194;
REPSWITCH1/PICTURE_338.png;regalo;speak;darkblue;filler;2;F;1;1;2;2;Stim6_Set4;1;switch;125;124;23;0;124;124;124;;;;;;;;;;;;;;;;;;;;;;;650.0932598;651.1420088;651.1420088;651.1420088;651.1420088;651.1420088;651.1420088;651.1420088;651.1420088;None;0;;C:\2023\REPSWITCH21092023\REPSWITCH_excgange\REPSWITCH_excgange\data/440202_REPSWITCH1_version2_list2_2024-01-19_14h56.06.787_micRespv2l2_recorded\recording_micRespv2l2_2024-01-19_15h06.52.955.wav;654.1632042;654.6633081;None;654.1632042;654.1632042;654.1632042;654.1632042;654.1632042;654.1632042;;;;;;;440202;1;2024-01-19_14h56.06.787;REPSWITCH1_version2_list2;2022.2.4;143.9924194;
REPSWITCH1/PICTURE_728.png;pulpo;type;gold;filler;1;F;1;1;2;2;Stim8_Set4;1;switch;126;125;24;0;125;125;125;;;;;;;;;;;;;;;;;;;;;;;654.6633081;655.7815757;655.7815757;655.7815757;655.7815757;655.7815757;655.7815757;655.7815757;655.7815757;['p', 'u', 'l', 'p', 'o'];0;pulpo;C:\2023\REPSWITCH21092023\REPSWITCH_excgange\REPSWITCH_excgange\data/440202_REPSWITCH1_version2_list2_2024-01-19_14h56.06.787_micRespv2l2_recorded\recording_micRespv2l2_2024-01-19_15h06.57.595.wav;658.8027202;659.3027845;None;658.8027202;658.8027202;658.8027202;658.8027202;658.8027202;658.8027202;[0.9031187994405627, 1.2080909991636872, 1.4944703988730907, 1.6700142994523048, 1.8043000996112823];;;;;;440202;1;2024-01-19_14h56.06.787;REPSWITCH1_version2_list2;2022.2.4;143.9924194;
REPSWITCH1/PICTURE_169.png;espalda;type;gold;nontarget;1;NT;1;1;2;2;Stim8_Set1;1;repeat;127;126;25;0;126;126;126;;;;;;;;;;;;;;;;;;;;;;;659.3027845;660.4279317;660.4279317;660.4279317;660.4279317;660.4279317;660.4279317;660.4279317;660.4279317;['e', 's', 'p', 'a', 'l', 'd', 'a'];0;espalda;C:\2023\REPSWITCH21092023\REPSWITCH_excgange\REPSWITCH_excgange\data/440202_REPSWITCH1_version2_list2_2024-01-19_14h56.06.787_micRespv2l2_recorded\recording_micRespv2l2_2024-01-19_15h07.02.242.wav;663.4561053;;None;663.4561053;663.4561053;663.4561053;663.4561053;663.4561053;663.4561053;[0.9614835996180773, 1.1626704996451735, 1.322855799458921, 1.4265878992155194, 1.5602246997877955, 1.871169999241829, 1.9342580996453762];;;;;;440202;1;2024-01-19_14h56.06.787;REPSWITCH1_version2_list2;2022.2.4;143.9924194;
REPSWITCH1/PICTURE_169.png;espalda;speak;darkblue;switch;2;T;1;1;2;2;Stim8_Set1;0;None;128;127;26;0;127;127;127;;;;;;;;;;;;;;;;;;;;;;;663.956172;665.0674145;665.0674145;665.0674145;665.0674145;665.0674145;665.0674145;665.0674145;665.0674145;None;0;;C:\2023\REPSWITCH21092023\REPSWITCH_excgange\REPSWITCH_excgange\data/440202_REPSWITCH1_version2_list2_2024-01-19_14h56.06.787_micRespv2l2_recorded\recording_micRespv2l2_2024-01-19_15h07.06.880.wav;668.08863;668.5886877;None;668.08863;668.08863;668.08863;668.08863;668.08863;668.08863;;;;;;;440202;1;2024-01-19_14h56.06.787;REPSWITCH1_version2_list2;2022.2.4;143.9924194;
REPSWITCH1/PICTURE_178.png;puente;speak;darkblue;filler;2;F;2;1;2;2;Stim1_Set1;0;None;129;128;27;0;128;128;128;;;;;;;;;;;;;;;;;;;;;;;668.5886877;669.7139098;669.7139098;669.7139098;669.7139098;669.7139098;669.7139098;669.7139098;669.7139098;None;0;;C:\2023\REPSWITCH21092023\REPSWITCH_excgange\REPSWITCH_excgange\data/440202_REPSWITCH1_version2_list2_2024-01-19_14h56.06.787_micRespv2l2_recorded\recording_micRespv2l2_2024-01-19_15h07.11.527.wav;672.7350741;673.2351543;None;672.7350741;672.7350741;672.7350741;672.7350741;672.7350741;672.7350741;;;;;;;440202;1;2024-01-19_14h56.06.787;REPSWITCH1_version2_list2;2022.2.4;143.9924194;
REPSWITCH1/PICTURE_175.png;pintor;type;gold;nontarget;1;NT;2;1;2;2;Stim1_Set2;1;switch;130;129;28;0;129;129;129;;;;;;;;;;;;;;;;;;;;;;;673.2351543;674.3463943;674.3463943;674.3463943;674.3463943;674.3463943;674.3463943;674.3463943;674.3463943;['p', 'i', 'n', 't', 'o', 'r'];0;pintor;C:\2023\REPSWITCH21092023\REPSWITCH_excgange\REPSWITCH_excgange\data/440202_REPSWITCH1_version2_list2_2024-01-19_14h56.06.787_micRespv2l2_recorded\recording_micRespv2l2_2024-01-19_15h07.16.159.wav;677.3675987;677.8676461;None;677.3675987;677.3675987;677.3675987;677.3675987;677.3675987;677.3675987;[0.9328190991654992, 1.1480626994743943, 1.3287764992564917, 1.5646525993943214, 1.963761898688972, 2.107277499511838];;;;;;440202;1;2024-01-19_14h56.06.787;REPSWITCH1_version2_list2;2022.2.4;143.9924194;
REPSWITCH1/PICTURE_175.png;pintor;type;gold;repeat;1;T;2;1;2;2;Stim1_Set2;0;None;131;130;29;0;130;130;130;;;;;;;;;;;;;;;;;;;;;;;677.8676461;678.9581266;678.9581266;678.9581266;678.9581266;678.9581266;678.9581266;678.9581266;678.9581266;['p', 'i', 'n', 't', 'o', 'r'];0;pintor;C:\2023\REPSWITCH21092023\REPSWITCH_excgange\REPSWITCH_excgange\data/440202_REPSWITCH1_version2_list2_2024-01-19_14h56.06.787_micRespv2l2_recorded\recording_micRespv2l2_2024-01-19_15h07.20.772.wav;681.986286;;None;681.986286;681.986286;681.986286;681.986286;681.986286;681.986286;[0.7587392991408706, 0.9434342989698052, 1.1038964996114373, 1.3371280990540981, 1.7028098991140723, 1.876235199160874];;;;;;440202;1;2024-01-19_14h56.06.787;REPSWITCH1_version2_list2;2022.2.4;143.9924194;
REPSWITCH1/PICTURE_381.png;fresa;speak;darkblue;filler;2;F;2;1;2;2;Stim2_Set1;0;None;132;131;30;0;131;131;131;;;;;;;;;;;;;;;;;;;;;;;682.4863267;683.5073256;683.5073256;683.5073256;683.5073256;683.5073256;683.5073256;683.5073256;683.5073256;None;0;;C:\2023\REPSWITCH21092023\REPSWITCH_excgange\REPSWITCH_excgange\data/440202_REPSWITCH1_version2_list2_2024-01-19_14h56.06.787_micRespv2l2_recorded\recording_micRespv2l2_2024-01-19_15h07.25.321.wav;686.5355328;;None;686.5355328;686.5355328;686.5355328;686.5355328;686.5355328;686.5355328;;;;;;;440202;1;2024-01-19_14h56.06.787;REPSWITCH1_version2_list2;2022.2.4;143.9924194;
REPSWITCH1/PICTURE_152.png;caracol;type;gold;nontarget;1;NT;2;1;2;2;Stim2_Set2;1;switch;133;132;31;0;132;132;132;;;;;;;;;;;;;;;;;;;;;;;687.0355076;688.1120404;688.1120404;688.1120404;688.1120404;688.1120404;688.1120404;688.1120404;688.1120404;['c', 'a', 'r', 'c', 'o', 'l'];0;carcol;C:\2023\REPSWITCH21092023\REPSWITCH_excgange\REPSWITCH_excgange\data/440202_REPSWITCH1_version2_list2_2024-01-19_14h56.06.787_micRespv2l2_recorded\recording_micRespv2l2_2024-01-19_15h07.29.925.wav;691.1333387;691.6333529;None;691.1333387;691.1333387;691.1333387;691.1333387;691.1333387;691.1333387;[0.875119399279356, 0.9957395996898413, 1.0625714994966984, 1.2218947000801563, 1.5860418993979692, 1.7384920995682478];;;;;;440202;1;2024-01-19_14h56.06.787;REPSWITCH1_version2_list2;2022.2.4;143.9924194;
REPSWITCH1/PICTURE_152.png;caracol;type;gold;repeat;1;T;2;1;2;2;Stim2_Set2;0;None;134;133;32;0;133;133;133;;;;;;;;;;;;;;;;;;;;;;;691.6333529;692.7862546;692.7862546;692.7862546;692.7862546;692.7862546;692.7862546;692.7862546;692.7862546;['c', 'a', 'r', 'a', 'c', 'o', 'l'];0;caracol;C:\2023\REPSWITCH21092023\REPSWITCH_excgange\REPSWITCH_excgange\data/440202_REPSWITCH1_version2_list2_2024-01-19_14h56.06.787_micRespv2l2_recorded\recording_micRespv2l2_2024-01-19_15h07.34.600.wav;695.8144213;;None;695.8144213;695.8144213;695.8144213;695.8144213;695.8144213;695.8144213;[0.8299046000465751, 0.9454600000753999, 1.0371888000518084, 1.1966504994779825, 1.4159234995022416, 1.8123352993279696, 1.9628951996564865];;;;;;440202;1;2024-01-19_14h56.06.787;REPSWITCH1_version2_list2;2022.2.4;143.9924194;
REPSWITCH1/PICTURE_128.png;muñeca;speak;darkblue;filler;2;F;2;1;2;2;Stim4_Set1;0;None;135;134;33;0;134;134;134;;;;;;;;;;;;;;;;;;;;;;;696.3144813;697.391105;697.391105;697.391105;697.391105;697.391105;697.391105;697.391105;697.391105;None;0;;C:\2023\REPSWITCH21092023\REPSWITCH_excgange\REPSWITCH_excgange\data/440202_REPSWITCH1_version2_list2_2024-01-19_14h56.06.787_micRespv2l2_recorded\recording_micRespv2l2_2024-01-19_15h07.39.204.wav;700.4122433;700.9123226;None;700.4122433;700.4122433;700.4122433;700.4122433;700.4122433;700.4122433;;;;;;;440202;1;2024-01-19_14h56.06.787;REPSWITCH1_version2_list2;2022.2.4;143.9924194;
REPSWITCH1/PICTURE_264.png;mano;type;gold;nontarget;1;NT;2;1;2;2;Stim3_Set2;0;None;136;135;34;0;135;135;135;;;;;;;;;;;;;;;;;;;;;;;700.9123226;702.0860861;702.0860861;702.0860861;702.0860861;702.0860861;702.0860861;702.0860861;702.0860861;['m', 'a', 'n', 'o'];0;mano;C:\2023\REPSWITCH21092023\REPSWITCH_excgange\REPSWITCH_excgange\data/440202_REPSWITCH1_version2_list2_2024-01-19_14h56.06.787_micRespv2l2_recorded\recording_micRespv2l2_2024-01-19_15h07.43.899.wav;705.1073808;705.6073738;None;705.1073808;705.1073808;705.1073808;705.1073808;705.1073808;705.1073808;[0.848306099884212, 0.9718856997787952, 1.0695190001279116, 1.2179375998675823];;;;;;440202;1;2024-01-19_14h56.06.787;REPSWITCH1_version2_list2;2022.2.4;143.9924194;
REPSWITCH1/PICTURE_264.png;mano;speak;darkblue;switch;2;T;2;1;2;2;Stim3_Set2;0;None;137;136;35;0;136;136;136;;;;;;;;;;;;;;;;;;;;;;;705.6073738;706.8089363;706.8089363;706.8089363;706.8089363;706.8089363;706.8089363;706.8089363;706.8089363;None;0;;C:\2023\REPSWITCH21092023\REPSWITCH_excgange\REPSWITCH_excgange\data/440202_REPSWITCH1_version2_list2_2024-01-19_14h56.06.787_micRespv2l2_recorded\recording_micRespv2l2_2024-01-19_15h07.48.622.wav;709.8371043;;None;709.8371043;709.8371043;709.8371043;709.8371043;709.8371043;709.8371043;;;;;;;440202;1;2024-01-19_14h56.06.787;REPSWITCH1_version2_list2;2022.2.4;143.9924194;
REPSWITCH1/PICTURE_517.png;cuerda;speak;darkblue;nontarget;2;NT;2;1;2;2;Stim4_Set2;1;repeat;138;137;36;0;137;137;137;;;;;;;;;;;;;;;;;;;;;;;710.3371579;711.4276336;711.4276336;711.4276336;711.4276336;711.4276336;711.4276336;711.4276336;711.4276336;None;0;;C:\2023\REPSWITCH21092023\REPSWITCH_excgange\REPSWITCH_excgange\data/440202_REPSWITCH1_version2_list2_2024-01-19_14h56.06.787_micRespv2l2_recorded\recording_micRespv2l2_2024-01-19_15h07.53.240.wav;714.4487928;714.9488385;None;714.4487928;714.4487928;714.4487928;714.4487928;714.4487928;714.4487928;;;;;;;440202;1;2024-01-19_14h56.06.787;REPSWITCH1_version2_list2;2022.2.4;143.9924194;
REPSWITCH1/PICTURE_517.png;cuerda;type;gold;switch;1;T;2;1;2;2;Stim4_Set2;0;None;139;138;37;0;138;138;138;;;;;;;;;;;;;;;;;;;;;;;714.9488385;716.0601161;716.0601161;716.0601161;716.0601161;716.0601161;716.0601161;716.0601161;716.0601161;['c', 'u', 'e', 'r', 'd', 'a'];0;cuerda;C:\2023\REPSWITCH21092023\REPSWITCH_excgange\REPSWITCH_excgange\data/440202_REPSWITCH1_version2_list2_2024-01-19_14h56.06.787_micRespv2l2_recorded\recording_micRespv2l2_2024-01-19_15h07.57.873.wav;719.0883409;;None;719.0883409;719.0883409;719.0883409;719.0883409;719.0883409;719.0883409;[0.6934350002557039, 0.9167339000850916, 1.053260600194335, 1.1998514998704195, 1.3129342002794147, 1.424175899475813];;;;;;440202;1;2024-01-19_14h56.06.787;REPSWITCH1_version2_list2;2022.2.4;143.9924194;
REPSWITCH1/PICTURE_135.png;traje;type;gold;filler;1;F;2;1;2;2;Stim3_Set1;0;None;140;139;38;0;139;139;139;;;;;;;;;;;;;;;;;;;;;;;719.5883398;720.78293;720.78293;720.78293;720.78293;720.78293;720.78293;720.78293;720.78293;['t', 'r', 'a', 'j', 'e'];0;traje;C:\2023\REPSWITCH21092023\REPSWITCH_excgange\REPSWITCH_excgange\data/440202_REPSWITCH1_version2_list2_2024-01-19_14h56.06.787_micRespv2l2_recorded\recording_micRespv2l2_2024-01-19_15h08.02.597.wav;723.8111024;;None;723.8111024;723.8111024;723.8111024;723.8111024;723.8111024;723.8111024;[0.7900136997923255, 0.9154559997841716, 1.0091394996270537, 1.6339783994480968, 1.76793949957937];;;;;;440202;1;2024-01-19_14h56.06.787;REPSWITCH1_version2_list2;2022.2.4;143.9924194;
REPSWITCH1/PICTURE_30.png;granja;type;gold;nontarget;1;NT;2;1;2;2;Stim5_Set2;1;repeat;141;140;39;0;140;140;140;;;;;;;;;;;;;;;;;;;;;;;724.3111555;725.4362954;725.4362954;725.4362954;725.4362954;725.4362954;725.4362954;725.4362954;725.4362954;['g', 'r', 'a', 'n', 'j', 'a'];0;granja;C:\2023\REPSWITCH21092023\REPSWITCH_excgange\REPSWITCH_excgange\data/440202_REPSWITCH1_version2_list2_2024-01-19_14h56.06.787_micRespv2l2_recorded\recording_micRespv2l2_2024-01-19_15h08.07.249.wav;728.4575182;728.9575767;None;728.4575182;728.4575182;728.4575182;728.4575182;728.4575182;728.4575182;[1.0294482996687293, 1.1978796990588307, 1.3164691990241408, 1.5825788993388414, 1.716244399547577, 1.810266699641943];;;;;;440202;1;2024-01-19_14h56.06.787;REPSWITCH1_version2_list2;2022.2.4;143.9924194;
REPSWITCH1/PICTURE_30.png;granja;speak;darkblue;switch;2;T;2;1;2;2;Stim5_Set2;0;None;142;141;40;0;141;141;141;;;;;;;;;;;;;;;;;;;;;;;728.9575767;730.0341027;730.0341027;730.0341027;730.0341027;730.0341027;730.0341027;730.0341027;730.0341027;None;0;;C:\2023\REPSWITCH21092023\REPSWITCH_excgange\REPSWITCH_excgange\data/440202_REPSWITCH1_version2_list2_2024-01-19_14h56.06.787_micRespv2l2_recorded\recording_micRespv2l2_2024-01-19_15h08.11.848.wav;733.0622912;;None;733.0622912;733.0622912;733.0622912;733.0622912;733.0622912;733.0622912;;;;;;;440202;1;2024-01-19_14h56.06.787;REPSWITCH1_version2_list2;2022.2.4;143.9924194;
