image;correctAns;respModal;frameColor;repSwitch;sequence;target;set;block;list;exp_version;stimulus;baseline;baseline_condition;trial_no;psychopy_trial;Column1;trialsREPSWITCH.thisRepN;trialsREPSWITCH.thisTrialN;trialsREPSWITCH.thisN;trialsREPSWITCH.thisIndex;textWelcome.started;textboxInstrMain1.started;textboxInstrMain1_2.started;textboxInstrMain1_3.started;keyInstrMain.started;keyInstrMain.keys;keyInstrMain.rt;textboxInstrMain2.started;textboxInstrMain2_2.started;textboxInstrMain2_3.started;textboxInstrMain2_4.started;textboxInstrMain2_5.started;textboxInstrMain2_6.started;textboxInstrMain2_7.started;textboxInstrMain2_8.started;textboxInstrMain2_9.started;textboxInstrMain2_10.started;textboxInstrMain2_11.started;textboxInstrMain2_12.started;keyInstrMain2.started;keyInstrMain2.keys;keyInstrMain2.rt;fixationITI.started;fixationITI.stopped;polygonColour.started;polygonWhite.started;imageObject.started;polygonType.started;textInput.started;keyResp.started;micRespv1l3.started;keyResp.keys;keyResp.corr;keyResp.rt;subjResponse;micRespv1l3.clip;textBlankLoop.started;textBlankLoop.stopped;keyPause.keys;polygonColour.stopped;polygonWhite.stopped;imageObject.stopped;polygonType.stopped;textInput.stopped;keyResp.stopped;textboxPause.started;keyPause.started;keyPause.rt;textboxGoodbye.started;textboxGoodbye.stopped;participant;session;date;expName;psychopyVersion;frameRate;Column2
;;;;;;;;;;;;;;;;;;;;;29.4015665;31.8944724;31.8944724;31.8944724;31.8944724;space;4.194689599;;;;;;;;;;;;;;;;;;;;;;;;;;;;;;;;;;;;;;;;;;;;450103;1;2024-01-23_17h26.29.086;REPSWITCH1_version1_list3;2022.2.4;144.0517445;
;;;;;;;;;;;;;;;;;;;;;;;;;;;;36.1034374;36.1034374;36.1034374;36.1034374;36.1034374;36.1034374;36.1034374;36.1034374;36.1034374;36.1034374;36.1034374;36.1034374;36.1034374;space;2.6369221;;;;;;;;;;;;;;;;;;;;;;;;;;;;;450103;1;2024-01-23_17h26.29.086;REPSWITCH1_version1_list3;2022.2.4;144.0517445;
REPSWITCH1/PICTURE_663.png;columna;type;darkblue;filler;1;F;1;2;3;1;Extra6;0;None;1;0;1;0;0;0;0;;;;;;;;;;;;;;;;;;;;;;;38.8329337;39.9442347;39.9442347;39.9442347;39.9442347;39.9442347;39.9442347;39.9442347;39.9442347;['o', 'c', 'backspace', 'backspace', 'c', 'o', 'l', 'u'];0;[1.3378503993153572, 1.4034213991835713, 2.0116865998134017, 2.199389399960637, 2.475463599897921, 2.5482231993228197, 2.7529625995084643, 2.8565710997208953];colu;C:\2023\REPSWITCH21092023\REPSWITCH_excgange\REPSWITCH_excgange\data/450103_REPSWITCH1_version1_list3_2024-01-23_17h26.29.086_micRespv1l3_recorded\recording_micRespv1l3_2024-01-23_17h26.44.506.wav;42.9654426;43.4655173;None;;;;;;;;;;;;450103;1;2024-01-23_17h26.29.086;REPSWITCH1_version1_list3;2022.2.4;144.0517445;
REPSWITCH1/PICTURE_128.png;muñeca;speak;gold;nontarget;2;NT;1;2;3;1;Stim4_Set1;1;switch;2;1;2;0;1;1;1;;;;;;;;;;;;;;;;;;;;;;;43.4655173;44.5836194;44.5836194;44.5836194;44.5836194;44.5836194;44.5836194;44.5836194;44.5836194;None;0;;;C:\2023\REPSWITCH21092023\REPSWITCH_excgange\REPSWITCH_excgange\data/450103_REPSWITCH1_version1_list3_2024-01-23_17h26.29.086_micRespv1l3_recorded\recording_micRespv1l3_2024-01-23_17h26.49.150.wav;47.6118;;None;47.6118;47.6118;47.6118;47.6118;47.6118;47.6118;;;;;;450103;1;2024-01-23_17h26.29.086;REPSWITCH1_version1_list3;2022.2.4;144.0517445;
REPSWITCH1/PICTURE_128.png;muñeca;speak;gold;repeat;2;T;1;2;3;1;Stim4_Set1;0;None;3;2;3;0;2;2;2;;;;;;;;;;;;;;;;;;;;;;;48.111929;49.2926073;49.2926073;49.2926073;49.2926073;49.2926073;49.2926073;49.2926073;49.2926073;None;0;;;C:\2023\REPSWITCH21092023\REPSWITCH_excgange\REPSWITCH_excgange\data/450103_REPSWITCH1_version1_list3_2024-01-23_17h26.29.086_micRespv1l3_recorded\recording_micRespv1l3_2024-01-23_17h26.53.859.wav;52.3207925;;None;52.3207925;52.3207925;52.3207925;52.3207925;52.3207925;52.3207925;;;;;;450103;1;2024-01-23_17h26.29.086;REPSWITCH1_version1_list3;2022.2.4;144.0517445;
REPSWITCH1/PICTURE_8.png;pierna;type;darkblue;filler;1;F;1;2;3;1;Stim3_Set4;0;None;4;3;4;0;3;3;3;;;;;;;;;;;;;;;;;;;;;;;52.8208764;53.8765289;53.8765289;53.8765289;53.8765289;53.8765289;53.8765289;53.8765289;53.8765289;['p', 'i', 'e', 'r', 'n', 'a'];0;[0.8665906004607677, 0.9473232002928853, 1.0977798998355865, 1.1795367999002337, 1.3364014998078346, 1.343368999660015];pierna;C:\2023\REPSWITCH21092023\REPSWITCH_excgange\REPSWITCH_excgange\data/450103_REPSWITCH1_version1_list3_2024-01-23_17h26.29.086_micRespv1l3_recorded\recording_micRespv1l3_2024-01-23_17h26.58.443.wav;56.9047727;;None;56.9047727;56.9047727;56.9047727;56.9047727;56.9047727;56.9047727;;;;;;450103;1;2024-01-23_17h26.29.086;REPSWITCH1_version1_list3;2022.2.4;144.0517445;
REPSWITCH1/PICTURE_135.png;traje;speak;gold;nontarget;2;NT;1;2;3;1;Stim3_Set1;1;switch;5;4;5;0;4;4;4;;;;;;;;;;;;;;;;;;;;;;;57.404837;58.495216;58.495216;58.495216;58.495216;58.495216;58.495216;58.495216;58.495216;None;0;;;C:\2023\REPSWITCH21092023\REPSWITCH_excgange\REPSWITCH_excgange\data/450103_REPSWITCH1_version1_list3_2024-01-23_17h26.29.086_micRespv1l3_recorded\recording_micRespv1l3_2024-01-23_17h27.03.063.wav;61.5233708;;None;61.5233708;61.5233708;61.5233708;61.5233708;61.5233708;61.5233708;;;;;;450103;1;2024-01-23_17h26.29.086;REPSWITCH1_version1_list3;2022.2.4;144.0517445;
REPSWITCH1/PICTURE_135.png;traje;speak;gold;repeat;2;T;1;2;3;1;Stim3_Set1;0;None;6;5;6;0;5;5;5;;;;;;;;;;;;;;;;;;;;;;;62.0234301;63.1763874;63.1763874;63.1763874;63.1763874;63.1763874;63.1763874;63.1763874;63.1763874;None;0;;;C:\2023\REPSWITCH21092023\REPSWITCH_excgange\REPSWITCH_excgange\data/450103_REPSWITCH1_version1_list3_2024-01-23_17h26.29.086_micRespv1l3_recorded\recording_micRespv1l3_2024-01-23_17h27.07.742.wav;66.1975895;66.6976591;None;66.1975895;66.1975895;66.1975895;66.1975895;66.1975895;66.1975895;;;;;;450103;1;2024-01-23_17h26.29.086;REPSWITCH1_version1_list3;2022.2.4;144.0517445;
REPSWITCH1/PICTURE_673.png;tenedor;type;darkblue;filler;1;F;1;2;3;1;Extra5;0;None;7;6;7;0;6;6;6;;;;;;;;;;;;;;;;;;;;;;;66.6976591;67.7950841;67.7950841;67.7950841;67.7950841;67.7950841;67.7950841;67.7950841;67.7950841;['t', 'e', 'n', 'e', 'd', 'o', 'r'];0;[0.7153867995366454, 0.780205799266696, 0.9615988992154598, 1.0193980997428298, 1.2511014994233847, 1.3527376996353269, 1.4432850992307067];tenedor;C:\2023\REPSWITCH21092023\REPSWITCH_excgange\REPSWITCH_excgange\data/450103_REPSWITCH1_version1_list3_2024-01-23_17h26.29.086_micRespv1l3_recorded\recording_micRespv1l3_2024-01-23_17h27.12.361.wav;70.8162279;71.3163124;None;70.8162279;70.8162279;70.8162279;70.8162279;70.8162279;70.8162279;;;;;;450103;1;2024-01-23_17h26.29.086;REPSWITCH1_version1_list3;2022.2.4;144.0517445;
REPSWITCH1/PICTURE_728.png;pulpo;speak;gold;filler;2;F;1;2;3;1;Stim8_Set4;0;None;8;7;8;0;7;7;7;;;;;;;;;;;;;;;;;;;;;;;71.3163124;72.3719907;72.3719907;72.3719907;72.3719907;72.3719907;72.3719907;72.3719907;72.3719907;None;0;;;C:\2023\REPSWITCH21092023\REPSWITCH_excgange\REPSWITCH_excgange\data/450103_REPSWITCH1_version1_list3_2024-01-23_17h26.29.086_micRespv1l3_recorded\recording_micRespv1l3_2024-01-23_17h27.16.939.wav;75.4001758;;None;75.4001758;75.4001758;75.4001758;75.4001758;75.4001758;75.4001758;;;;;;450103;1;2024-01-23_17h26.29.086;REPSWITCH1_version1_list3;2022.2.4;144.0517445;
REPSWITCH1/PICTURE_16.png;cazador;speak;gold;nontarget;2;NT;1;2;3;1;Stim6_Set1;1;repeat;9;8;9;0;8;8;8;;;;;;;;;;;;;;;;;;;;;;;75.9002349;76.9906792;76.9906792;76.9906792;76.9906792;76.9906792;76.9906792;76.9906792;76.9906792;None;0;;;C:\2023\REPSWITCH21092023\REPSWITCH_excgange\REPSWITCH_excgange\data/450103_REPSWITCH1_version1_list3_2024-01-23_17h26.29.086_micRespv1l3_recorded\recording_micRespv1l3_2024-01-23_17h27.21.558.wav;80.0188139;;None;80.0188139;80.0188139;80.0188139;80.0188139;80.0188139;80.0188139;;;;;;450103;1;2024-01-23_17h26.29.086;REPSWITCH1_version1_list3;2022.2.4;144.0517445;
REPSWITCH1/PICTURE_16.png;cazador;type;darkblue;switch;1;T;1;2;3;1;Stim6_Set1;0;None;10;9;10;0;9;9;9;;;;;;;;;;;;;;;;;;;;;;;80.5188821;81.6093162;81.6093162;81.6093162;81.6093162;81.6093162;81.6093162;81.6093162;81.6093162;['c', 'a', 'z', 'a', 'd', 'o', 'r'];0;[1.0268846992403269, 1.1216342998668551, 1.389032700099051, 1.6356784999370575, 1.795377499423921, 1.9164172997698188, 2.0120954997837543];cazador;C:\2023\REPSWITCH21092023\REPSWITCH_excgange\REPSWITCH_excgange\data/450103_REPSWITCH1_version1_list3_2024-01-23_17h26.29.086_micRespv1l3_recorded\recording_micRespv1l3_2024-01-23_17h27.26.175.wav;84.6375731;;None;84.6375731;84.6375731;84.6375731;84.6375731;84.6375731;84.6375731;;;;;;450103;1;2024-01-23_17h26.29.086;REPSWITCH1_version1_list3;2022.2.4;144.0517445;
REPSWITCH1/PICTURE_498.png;taza;type;darkblue;filler;1;F;1;2;3;1;Stim4_Set4;1;repeat;11;10;11;0;10;10;10;;;;;;;;;;;;;;;;;;;;;;;85.1375685;86.2488395;86.2488395;86.2488395;86.2488395;86.2488395;86.2488395;86.2488395;86.2488395;['t', 'a', 'z', 'a'];0;[0.7924258001148701, 0.8541938997805119, 1.0605161003768444, 1.2704127999022603];taza;C:\2023\REPSWITCH21092023\REPSWITCH_excgange\REPSWITCH_excgange\data/450103_REPSWITCH1_version1_list3_2024-01-23_17h26.29.086_micRespv1l3_recorded\recording_micRespv1l3_2024-01-23_17h27.30.815.wav;89.2701229;89.7701275;None;89.2701229;89.2701229;89.2701229;89.2701229;89.2701229;89.2701229;;;;;;450103;1;2024-01-23_17h26.29.086;REPSWITCH1_version1_list3;2022.2.4;144.0517445;
REPSWITCH1/PICTURE_381.png;fresa;type;darkblue;nontarget;1;NT;1;2;3;1;Stim2_Set1;1;repeat;12;11;12;0;11;11;11;;;;;;;;;;;;;;;;;;;;;;;89.7701275;90.9161709;90.9161709;90.9161709;90.9161709;90.9161709;90.9161709;90.9161709;90.9161709;['f', 'r', 'e', 's', 'a'];0;[1.0167854996398091, 1.2529954994097352, 1.3250017995014787, 1.5244246991351247, 1.6117695989087224];fresa;C:\2023\REPSWITCH21092023\REPSWITCH_excgange\REPSWITCH_excgange\data/450103_REPSWITCH1_version1_list3_2024-01-23_17h26.29.086_micRespv1l3_recorded\recording_micRespv1l3_2024-01-23_17h27.35.483.wav;93.9442891;;None;93.9442891;93.9442891;93.9442891;93.9442891;93.9442891;93.9442891;;;;;;450103;1;2024-01-23_17h26.29.086;REPSWITCH1_version1_list3;2022.2.4;144.0517445;
REPSWITCH1/PICTURE_381.png;fresa;speak;gold;switch;2;T;1;2;3;1;Stim2_Set1;0;None;13;12;13;0;12;12;12;;;;;;;;;;;;;;;;;;;;;;;94.4444241;95.6111419;95.6111419;95.6111419;95.6111419;95.6111419;95.6111419;95.6111419;95.6111419;None;0;;;C:\2023\REPSWITCH21092023\REPSWITCH_excgange\REPSWITCH_excgange\data/450103_REPSWITCH1_version1_list3_2024-01-23_17h26.29.086_micRespv1l3_recorded\recording_micRespv1l3_2024-01-23_17h27.40.178.wav;98.6394104;;None;98.6394104;98.6394104;98.6394104;98.6394104;98.6394104;98.6394104;;;;;;450103;1;2024-01-23_17h26.29.086;REPSWITCH1_version1_list3;2022.2.4;144.0517445;
REPSWITCH1/PICTURE_178.png;puente;speak;gold;nontarget;2;NT;1;2;3;1;Stim1_Set1;0;None;14;13;14;0;13;13;13;;;;;;;;;;;;;;;;;;;;;;;99.1394064;100.2090031;100.2090031;100.2090031;100.2090031;100.2090031;100.2090031;100.2090031;100.2090031;None;0;;;C:\2023\REPSWITCH21092023\REPSWITCH_excgange\REPSWITCH_excgange\data/450103_REPSWITCH1_version1_list3_2024-01-23_17h26.29.086_micRespv1l3_recorded\recording_micRespv1l3_2024-01-23_17h27.44.775.wav;103.230199;103.7303591;None;103.230199;103.230199;103.230199;103.230199;103.230199;103.230199;;;;;;450103;1;2024-01-23_17h26.29.086;REPSWITCH1_version1_list3;2022.2.4;144.0517445;
REPSWITCH1/PICTURE_178.png;puente;type;darkblue;switch;1;T;1;2;3;1;Stim1_Set1;0;None;15;14;15;0;14;14;14;;;;;;;;;;;;;;;;;;;;;;;103.7303591;104.8207379;104.8207379;104.8207379;104.8207379;104.8207379;104.8207379;104.8207379;104.8207379;['p', 'u', 'e', 'n', 't', 'e'];0;[0.9434637995436788, 1.0420835996046662, 1.1780709996819496, 1.3727737991139293, 1.4273236999288201, 1.7073768991976976];puente;C:\2023\REPSWITCH21092023\REPSWITCH_excgange\REPSWITCH_excgange\data/450103_REPSWITCH1_version1_list3_2024-01-23_17h26.29.086_micRespv1l3_recorded\recording_micRespv1l3_2024-01-23_17h27.49.388.wav;107.8488439;;None;107.8488439;107.8488439;107.8488439;107.8488439;107.8488439;107.8488439;;;;;;450103;1;2024-01-23_17h26.29.086;REPSWITCH1_version1_list3;2022.2.4;144.0517445;
REPSWITCH1/PICTURE_719.png;baño;speak;gold;filler;2;F;1;2;3;1;Stim2_Set4;0;None;16;15;16;0;15;15;15;;;;;;;;;;;;;;;;;;;;;;;108.3489941;109.4671548;109.4671548;109.4671548;109.4671548;109.4671548;109.4671548;109.4671548;109.4671548;None;0;;;C:\2023\REPSWITCH21092023\REPSWITCH_excgange\REPSWITCH_excgange\data/450103_REPSWITCH1_version1_list3_2024-01-23_17h26.29.086_micRespv1l3_recorded\recording_micRespv1l3_2024-01-23_17h27.54.034.wav;112.4953883;;None;112.4953883;112.4953883;112.4953883;112.4953883;112.4953883;112.4953883;;;;;;450103;1;2024-01-23_17h26.29.086;REPSWITCH1_version1_list3;2022.2.4;144.0517445;
REPSWITCH1/PICTURE_169.png;espalda;type;darkblue;nontarget;1;NT;1;2;3;1;Stim8_Set1;1;switch;17;16;17;0;16;16;16;;;;;;;;;;;;;;;;;;;;;;;112.9953937;114.0372799;114.0372799;114.0372799;114.0372799;114.0372799;114.0372799;114.0372799;114.0372799;['e', 's', 'p', 'a', 'l', 'd', 'a'];0;[0.8614163994789124, 0.9491577995941043, 1.1574658993631601, 1.2830336997285485, 1.5501430993899703, 1.63754600007087, 1.7529111998155713];espalda;C:\2023\REPSWITCH21092023\REPSWITCH_excgange\REPSWITCH_excgange\data/450103_REPSWITCH1_version1_list3_2024-01-23_17h26.29.086_micRespv1l3_recorded\recording_micRespv1l3_2024-01-23_17h27.58.603.wav;117.0584695;117.5584904;None;117.0584695;117.0584695;117.0584695;117.0584695;117.0584695;117.0584695;;;;;;450103;1;2024-01-23_17h26.29.086;REPSWITCH1_version1_list3;2022.2.4;144.0517445;
REPSWITCH1/PICTURE_169.png;espalda;type;darkblue;repeat;1;T;1;2;3;1;Stim8_Set1;0;None;18;17;18;0;17;17;17;;;;;;;;;;;;;;;;;;;;;;;117.5584904;118.7115081;118.7115081;118.7115081;118.7115081;118.7115081;118.7115081;118.7115081;118.7115081;['e', 's', 'p', 'a', 'l', 'd', 'a'];0;[0.784460699185729, 0.8565648989751935, 1.0702919997274876, 1.1852880995720625, 1.3778214994817972, 1.4903987990692258, 1.5661854995414615];espalda;C:\2023\REPSWITCH21092023\REPSWITCH_excgange\REPSWITCH_excgange\data/450103_REPSWITCH1_version1_list3_2024-01-23_17h26.29.086_micRespv1l3_recorded\recording_micRespv1l3_2024-01-23_17h28.03.278.wav;121.732721;122.2327139;None;121.732721;121.732721;121.732721;121.732721;121.732721;121.732721;;;;;;450103;1;2024-01-23_17h26.29.086;REPSWITCH1_version1_list3;2022.2.4;144.0517445;
REPSWITCH1/PICTURE_48.png;bombero;speak;gold;filler;2;F;1;2;3;1;Stim7_Set4;1;switch;19;18;19;0;18;18;18;;;;;;;;;;;;;;;;;;;;;;;122.2327139;123.3926575;123.3926575;123.3926575;123.3926575;123.3926575;123.3926575;123.3926575;123.3926575;None;0;;;C:\2023\REPSWITCH21092023\REPSWITCH_excgange\REPSWITCH_excgange\data/450103_REPSWITCH1_version1_list3_2024-01-23_17h26.29.086_micRespv1l3_recorded\recording_micRespv1l3_2024-01-23_17h28.07.960.wav;126.4207464;;None;126.4207464;126.4207464;126.4207464;126.4207464;126.4207464;126.4207464;;;;;;450103;1;2024-01-23_17h26.29.086;REPSWITCH1_version1_list3;2022.2.4;144.0517445;
REPSWITCH1/PICTURE_19.png;pavo;type;darkblue;nontarget;1;NT;1;2;3;1;Stim5_Set1;1;switch;20;19;20;0;19;19;19;;;;;;;;;;;;;;;;;;;;;;;126.9208792;127.9696132;127.9696132;127.9696132;127.9696132;127.9696132;127.9696132;127.9696132;127.9696132;['p', 'a', 'v', 'o'];0;[1.4313977994024754, 1.5035354988649487, 1.6623147996142507, 1.7355782995000482];pavo;C:\2023\REPSWITCH21092023\REPSWITCH_excgange\REPSWITCH_excgange\data/450103_REPSWITCH1_version1_list3_2024-01-23_17h26.29.086_micRespv1l3_recorded\recording_micRespv1l3_2024-01-23_17h28.12.536.wav;130.997755;;None;130.997755;130.997755;130.997755;130.997755;130.997755;130.997755;;;;;;450103;1;2024-01-23_17h26.29.086;REPSWITCH1_version1_list3;2022.2.4;144.0517445;
REPSWITCH1/PICTURE_19.png;pavo;type;darkblue;repeat;1;T;1;2;3;1;Stim5_Set1;0;None;21;20;21;0;20;20;20;;;;;;;;;;;;;;;;;;;;;;;131.4977818;132.5187577;132.5187577;132.5187577;132.5187577;132.5187577;132.5187577;132.5187577;132.5187577;['p', 'a', 'v', 'o'];0;[0.8050422994419932, 0.8699252000078559, 1.072550700046122, 1.1562236994504929];pavo;C:\2023\REPSWITCH21092023\REPSWITCH_excgange\REPSWITCH_excgange\data/450103_REPSWITCH1_version1_list3_2024-01-23_17h26.29.086_micRespv1l3_recorded\recording_micRespv1l3_2024-01-23_17h28.17.085.wav;135.5469391;;None;135.5469391;135.5469391;135.5469391;135.5469391;135.5469391;135.5469391;;;;;;450103;1;2024-01-23_17h26.29.086;REPSWITCH1_version1_list3;2022.2.4;144.0517445;
REPSWITCH1/PICTURE_319.png;vaca;speak;gold;filler;2;F;1;2;3;1;Stim1_Set4;0;None;22;21;22;0;21;21;21;;;;;;;;;;;;;;;;;;;;;;;136.0470339;137.2625264;137.2625264;137.2625264;137.2625264;137.2625264;137.2625264;137.2625264;137.2625264;None;0;;;C:\2023\REPSWITCH21092023\REPSWITCH_excgange\REPSWITCH_excgange\data/450103_REPSWITCH1_version1_list3_2024-01-23_17h26.29.086_micRespv1l3_recorded\recording_micRespv1l3_2024-01-23_17h28.21.829.wav;140.2837042;140.7838259;None;140.2837042;140.2837042;140.2837042;140.2837042;140.2837042;140.2837042;;;;;;450103;1;2024-01-23_17h26.29.086;REPSWITCH1_version1_list3;2022.2.4;144.0517445;
REPSWITCH1/PICTURE_338.png;regalo;type;darkblue;filler;1;F;1;2;3;1;Stim6_Set4;0;None;23;22;23;0;22;22;22;;;;;;;;;;;;;;;;;;;;;;;140.7838259;141.9019741;141.9019741;141.9019741;141.9019741;141.9019741;141.9019741;141.9019741;141.9019741;['r', 'e', 'g', 'a', 'l', 'o'];0;[0.8031400991603732, 0.858678799122572, 1.1167751997709274, 1.189568699337542, 1.3081762995570898, 1.4766029994934797];regalo;C:\2023\REPSWITCH21092023\REPSWITCH_excgange\REPSWITCH_excgange\data/450103_REPSWITCH1_version1_list3_2024-01-23_17h26.29.086_micRespv1l3_recorded\recording_micRespv1l3_2024-01-23_17h28.26.468.wav;144.9231577;145.4232452;None;144.9231577;144.9231577;144.9231577;144.9231577;144.9231577;144.9231577;;;;;;450103;1;2024-01-23_17h26.29.086;REPSWITCH1_version1_list3;2022.2.4;144.0517445;
REPSWITCH1/PICTURE_142.png;vaso;type;darkblue;nontarget;1;NT;1;2;3;1;Stim7_Set1;0;None;24;23;24;0;23;23;23;;;;;;;;;;;;;;;;;;;;;;;145.4232452;146.4580988;146.4580988;146.4580988;146.4580988;146.4580988;146.4580988;146.4580988;146.4580988;['a', 's', 'backspace', 'backspace', 'v', 'a', 's', 'o'];0;[1.0191671000793576, 1.273305700160563, 1.5903634997084737, 1.74106299970299, 1.808831200003624, 1.8646151004359126, 2.003953800536692, 2.0517263002693653];vaso;C:\2023\REPSWITCH21092023\REPSWITCH_excgange\REPSWITCH_excgange\data/450103_REPSWITCH1_version1_list3_2024-01-23_17h26.29.086_micRespv1l3_recorded\recording_micRespv1l3_2024-01-23_17h28.31.025.wav;149.4863129;;None;149.4863129;149.4863129;149.4863129;149.4863129;149.4863129;149.4863129;;;;;;450103;1;2024-01-23_17h26.29.086;REPSWITCH1_version1_list3;2022.2.4;144.0517445;
REPSWITCH1/PICTURE_142.png;vaso;speak;gold;switch;2;T;1;2;3;1;Stim7_Set1;0;None;25;24;25;0;24;24;24;;;;;;;;;;;;;;;;;;;;;;;149.9863433;151.0003631;151.0003631;151.0003631;151.0003631;151.0003631;151.0003631;151.0003631;151.0003631;None;0;;;C:\2023\REPSWITCH21092023\REPSWITCH_excgange\REPSWITCH_excgange\data/450103_REPSWITCH1_version1_list3_2024-01-23_17h26.29.086_micRespv1l3_recorded\recording_micRespv1l3_2024-01-23_17h28.35.567.wav;154.02856;154.5286784;None;154.02856;154.02856;154.02856;154.02856;154.02856;154.02856;;;;;;450103;1;2024-01-23_17h26.29.086;REPSWITCH1_version1_list3;2022.2.4;144.0517445;
REPSWITCH1/PICTURE_687.png;camisa;type;darkblue;filler;1;F;1;2;3;1;Stim5_Set4;1;switch;26;25;26;0;25;25;25;;;;;;;;;;;;;;;;;;;;;;;154.5286784;155.5773736;155.5773736;155.5773736;155.5773736;155.5773736;155.5773736;155.5773736;155.5773736;['c', 'a', 'm', 'i', 's', 'a'];0;[1.1138418996706605, 1.2094804998487234, 1.3759947000071406, 1.4706401005387306, 1.5962177999317646, 1.66008420009166];camisa;C:\2023\REPSWITCH21092023\REPSWITCH_excgange\REPSWITCH_excgange\data/450103_REPSWITCH1_version1_list3_2024-01-23_17h26.29.086_micRespv1l3_recorded\recording_micRespv1l3_2024-01-23_17h28.40.143.wav;158.5985769;159.0986549;None;158.5985769;158.5985769;158.5985769;158.5985769;158.5985769;158.5985769;;;;;;450103;1;2024-01-23_17h26.29.086;REPSWITCH1_version1_list3;2022.2.4;144.0517445;
REPSWITCH1/PICTURE_30.png;granja;type;darkblue;nontarget;1;NT;2;2;3;1;Stim5_Set2;0;None;27;26;27;0;26;26;26;;;;;;;;;;;;;;;;;;;;;;;159.0986549;160.1126984;160.1126984;160.1126984;160.1126984;160.1126984;160.1126984;160.1126984;160.1126984;['g', 'r', 'a', 'n', 'j', 'a'];0;[1.0009569004178047, 1.2331282002851367, 1.3148558996617794, 1.5483799995854497, 1.7915543001145124, 1.8606078000739217];granja;C:\2023\REPSWITCH21092023\REPSWITCH_excgange\REPSWITCH_excgange\data/450103_REPSWITCH1_version1_list3_2024-01-23_17h26.29.086_micRespv1l3_recorded\recording_micRespv1l3_2024-01-23_17h28.44.681.wav;163.1409112;163.6409756;None;163.1409112;163.1409112;163.1409112;163.1409112;163.1409112;163.1409112;;;;;;450103;1;2024-01-23_17h26.29.086;REPSWITCH1_version1_list3;2022.2.4;144.0517445;
REPSWITCH1/PICTURE_30.png;granja;type;darkblue;repeat;1;T;2;2;3;1;Stim5_Set2;0;None;28;27;28;0;27;27;27;;;;;;;;;;;;;;;;;;;;;;;163.6409756;164.8077542;164.8077542;164.8077542;164.8077542;164.8077542;164.8077542;164.8077542;164.8077542;['g', 'r', 'a', 'n', 'j', 'a'];0;[0.721947799436748, 0.9451471995562315, 1.0130281997844577, 1.1486949995160103, 1.3546106992289424, 1.4134339997544885];granja;C:\2023\REPSWITCH21092023\REPSWITCH_excgange\REPSWITCH_excgange\data/450103_REPSWITCH1_version1_list3_2024-01-23_17h26.29.086_micRespv1l3_recorded\recording_micRespv1l3_2024-01-23_17h28.49.375.wav;167.8359057;168.3359628;None;167.8359057;167.8359057;167.8359057;167.8359057;167.8359057;167.8359057;;;;;;450103;1;2024-01-23_17h26.29.086;REPSWITCH1_version1_list3;2022.2.4;144.0517445;
REPSWITCH1/PICTURE_128.png;muñeca;speak;gold;filler;2;F;2;2;3;1;Stim4_Set1;0;None;29;28;29;0;28;28;28;;;;;;;;;;;;;;;;;;;;;;;168.3359628;169.4472376;169.4472376;169.4472376;169.4472376;169.4472376;169.4472376;169.4472376;169.4472376;None;0;;;C:\2023\REPSWITCH21092023\REPSWITCH_excgange\REPSWITCH_excgange\data/450103_REPSWITCH1_version1_list3_2024-01-23_17h26.29.086_micRespv1l3_recorded\recording_micRespv1l3_2024-01-23_17h28.54.013.wav;172.4684784;172.9685389;None;172.4684784;172.4684784;172.4684784;172.4684784;172.4684784;172.4684784;;;;;;450103;1;2024-01-23_17h26.29.086;REPSWITCH1_version1_list3;2022.2.4;144.0517445;
REPSWITCH1/PICTURE_264.png;mano;type;darkblue;nontarget;1;NT;2;2;3;1;Stim3_Set2;1;switch;30;29;30;0;29;29;29;;;;;;;;;;;;;;;;;;;;;;;172.9685389;174.2603774;174.2603774;174.2603774;174.2603774;174.2603774;174.2603774;174.2603774;174.2603774;['m', 'a', 'n', 'o'];0;[0.7573186000809073, 0.84006919991225, 1.0040864003822207, 1.1137207997962832];mano;C:\2023\REPSWITCH21092023\REPSWITCH_excgange\REPSWITCH_excgange\data/450103_REPSWITCH1_version1_list3_2024-01-23_17h26.29.086_micRespv1l3_recorded\recording_micRespv1l3_2024-01-23_17h28.58.827.wav;177.2816084;177.7816695;None;177.2816084;177.2816084;177.2816084;177.2816084;177.2816084;177.2816084;;;;;;450103;1;2024-01-23_17h26.29.086;REPSWITCH1_version1_list3;2022.2.4;144.0517445;
REPSWITCH1/PICTURE_264.png;mano;type;darkblue;repeat;1;T;2;2;3;1;Stim3_Set2;0;None;31;30;31;0;30;30;30;;;;;;;;;;;;;;;;;;;;;;;177.7816695;178.8443647;178.8443647;178.8443647;178.8443647;178.8443647;178.8443647;178.8443647;178.8443647;['m', 'a', 'n', 'o'];0;[0.7954645995050669, 0.9213473992422223, 1.0361751997843385, 1.1308484999462962];mano;C:\2023\REPSWITCH21092023\REPSWITCH_excgange\REPSWITCH_excgange\data/450103_REPSWITCH1_version1_list3_2024-01-23_17h26.29.086_micRespv1l3_recorded\recording_micRespv1l3_2024-01-23_17h29.03.411.wav;181.8655067;182.3656829;None;181.8655067;181.8655067;181.8655067;181.8655067;181.8655067;181.8655067;;;;;;450103;1;2024-01-23_17h26.29.086;REPSWITCH1_version1_list3;2022.2.4;144.0517445;
REPSWITCH1/PICTURE_175.png;pintor;type;darkblue;nontarget;1;NT;2;2;3;1;Stim1_Set2;0;None;32;31;32;0;31;31;31;;;;;;;;;;;;;;;;;;;;;;;182.3656829;183.5671467;183.5671467;183.5671467;183.5671467;183.5671467;183.5671467;183.5671467;183.5671467;['p', 'i', 'n', 't', 'o', 'r'];0;[0.8943047998473048, 0.9810049002990127, 1.1633939994499087, 1.3049269998446107, 1.397575999610126, 1.5095526995137334];pintor;C:\2023\REPSWITCH21092023\REPSWITCH_excgange\REPSWITCH_excgange\data/450103_REPSWITCH1_version1_list3_2024-01-23_17h26.29.086_micRespv1l3_recorded\recording_micRespv1l3_2024-01-23_17h29.08.134.wav;186.5953121;;None;186.5953121;186.5953121;186.5953121;186.5953121;186.5953121;186.5953121;;;;;;450103;1;2024-01-23_17h26.29.086;REPSWITCH1_version1_list3;2022.2.4;144.0517445;
REPSWITCH1/PICTURE_175.png;pintor;speak;gold;switch;2;T;2;2;3;1;Stim1_Set2;0;None;33;32;33;0;32;32;32;;;;;;;;;;;;;;;;;;;;;;;187.0953844;188.2205497;188.2205497;188.2205497;188.2205497;188.2205497;188.2205497;188.2205497;188.2205497;None;0;;;C:\2023\REPSWITCH21092023\REPSWITCH_excgange\REPSWITCH_excgange\data/450103_REPSWITCH1_version1_list3_2024-01-23_17h26.29.086_micRespv1l3_recorded\recording_micRespv1l3_2024-01-23_17h29.12.787.wav;191.2417482;191.7418168;None;191.2417482;191.2417482;191.2417482;191.2417482;191.2417482;191.2417482;;;;;;450103;1;2024-01-23_17h26.29.086;REPSWITCH1_version1_list3;2022.2.4;144.0517445;
REPSWITCH1/PICTURE_135.png;traje;speak;gold;filler;2;F;2;2;3;1;Stim3_Set1;1;repeat;34;33;34;0;33;33;33;;;;;;;;;;;;;;;;;;;;;;;191.7418168;192.8114008;192.8114008;192.8114008;192.8114008;192.8114008;192.8114008;192.8114008;192.8114008;None;0;;;C:\2023\REPSWITCH21092023\REPSWITCH_excgange\REPSWITCH_excgange\data/450103_REPSWITCH1_version1_list3_2024-01-23_17h26.29.086_micRespv1l3_recorded\recording_micRespv1l3_2024-01-23_17h29.17.378.wav;195.8326133;196.3326808;None;195.8326133;195.8326133;195.8326133;195.8326133;195.8326133;195.8326133;;;;;;450103;1;2024-01-23_17h26.29.086;REPSWITCH1_version1_list3;2022.2.4;144.0517445;
REPSWITCH1/PICTURE_446.png;cerdo;speak;gold;nontarget;2;NT;2;2;3;1;Stim7_Set2;1;repeat;35;34;35;0;34;34;34;;;;;;;;;;;;;;;;;;;;;;;196.3326808;197.4370151;197.4370151;197.4370151;197.4370151;197.4370151;197.4370151;197.4370151;197.4370151;None;0;;;C:\2023\REPSWITCH21092023\REPSWITCH_excgange\REPSWITCH_excgange\data/450103_REPSWITCH1_version1_list3_2024-01-23_17h26.29.086_micRespv1l3_recorded\recording_micRespv1l3_2024-01-23_17h29.22.003.wav;200.4583093;200.9583273;None;200.4583093;200.4583093;200.4583093;200.4583093;200.4583093;200.4583093;;;;;;450103;1;2024-01-23_17h26.29.086;REPSWITCH1_version1_list3;2022.2.4;144.0517445;
REPSWITCH1/PICTURE_446.png;cerdo;type;darkblue;switch;1;T;2;2;3;1;Stim7_Set2;0;None;36;35;36;0;35;35;35;;;;;;;;;;;;;;;;;;;;;;;200.9583273;202.0418659;202.0418659;202.0418659;202.0418659;202.0418659;202.0418659;202.0418659;202.0418659;['c', 'e', 'r', 'd', 'o'];0;[0.7499992996454239, 1.0138409994542599, 1.0895783994346857, 1.3208687994629145, 1.4195693992078304];cerdo;C:\2023\REPSWITCH21092023\REPSWITCH_excgange\REPSWITCH_excgange\data/450103_REPSWITCH1_version1_list3_2024-01-23_17h26.29.086_micRespv1l3_recorded\recording_micRespv1l3_2024-01-23_17h29.26.608.wav;205.0629932;205.5630954;None;205.0629932;205.0629932;205.0629932;205.0629932;205.0629932;205.0629932;;;;;;450103;1;2024-01-23_17h26.29.086;REPSWITCH1_version1_list3;2022.2.4;144.0517445;
REPSWITCH1/PICTURE_152.png;caracol;type;darkblue;nontarget;1;NT;2;2;3;1;Stim2_Set2;1;repeat;37;36;37;0;36;36;36;;;;;;;;;;;;;;;;;;;;;;;205.5630954;206.6465978;206.6465978;206.6465978;206.6465978;206.6465978;206.6465978;206.6465978;206.6465978;['c', 'a', 'r', 'a', 'c', 'o', 'l'];0;[0.9065343998372555, 0.9892670996487141, 1.2344324998557568, 1.2772464994341135, 1.499834899790585, 1.578783500008285, 1.7591776996850967];caracol;C:\2023\REPSWITCH21092023\REPSWITCH_excgange\REPSWITCH_excgange\data/450103_REPSWITCH1_version1_list3_2024-01-23_17h26.29.086_micRespv1l3_recorded\recording_micRespv1l3_2024-01-23_17h29.31.214.wav;209.6677803;210.1678418;None;209.6677803;209.6677803;209.6677803;209.6677803;209.6677803;209.6677803;;;;;;450103;1;2024-01-23_17h26.29.086;REPSWITCH1_version1_list3;2022.2.4;144.0517445;
REPSWITCH1/PICTURE_152.png;caracol;speak;gold;switch;2;T;2;2;3;1;Stim2_Set2;0;None;38;37;38;0;37;37;37;;;;;;;;;;;;;;;;;;;;;;;210.1678418;211.2305463;211.2305463;211.2305463;211.2305463;211.2305463;211.2305463;211.2305463;211.2305463;None;0;;;C:\2023\REPSWITCH21092023\REPSWITCH_excgange\REPSWITCH_excgange\data/450103_REPSWITCH1_version1_list3_2024-01-23_17h26.29.086_micRespv1l3_recorded\recording_micRespv1l3_2024-01-23_17h29.35.797.wav;214.2586701;;None;214.2586701;214.2586701;214.2586701;214.2586701;214.2586701;214.2586701;;;;;;450103;1;2024-01-23_17h26.29.086;REPSWITCH1_version1_list3;2022.2.4;144.0517445;
REPSWITCH1/PICTURE_16.png;cazador;type;darkblue;filler;1;F;2;2;3;1;Stim6_Set1;0;None;39;38;39;0;38;38;38;;;;;;;;;;;;;;;;;;;;;;;214.7587217;215.8700082;215.8700082;215.8700082;215.8700082;215.8700082;215.8700082;215.8700082;215.8700082;['c', 'a', 'z', 'd', 'backspace', 'a', 'd', 'o', 'r'];0;[0.8971453998237848, 0.980825999751687, 1.2177330004051328, 1.5685662999749184, 1.9929180005565286, 2.097554599866271, 2.232290799729526, 2.3480593003332615, 2.4377666004002094];cazador;C:\2023\REPSWITCH21092023\REPSWITCH_excgange\REPSWITCH_excgange\data/450103_REPSWITCH1_version1_list3_2024-01-23_17h26.29.086_micRespv1l3_recorded\recording_micRespv1l3_2024-01-23_17h29.40.436.wav;218.8912472;219.3913032;None;218.8912472;218.8912472;218.8912472;218.8912472;218.8912472;218.8912472;;;;;;450103;1;2024-01-23_17h26.29.086;REPSWITCH1_version1_list3;2022.2.4;144.0517445;
REPSWITCH1/PICTURE_381.png;fresa;speak;gold;filler;2;F;2;2;3;1;Stim2_Set1;0;None;40;39;40;0;39;39;39;;;;;;;;;;;;;;;;;;;;;;;219.3913032;220.5581047;220.5581047;220.5581047;220.5581047;220.5581047;220.5581047;220.5581047;220.5581047;None;0;;;C:\2023\REPSWITCH21092023\REPSWITCH_excgange\REPSWITCH_excgange\data/450103_REPSWITCH1_version1_list3_2024-01-23_17h26.29.086_micRespv1l3_recorded\recording_micRespv1l3_2024-01-23_17h29.45.125.wav;223.5793565;224.0794153;None;223.5793565;223.5793565;223.5793565;223.5793565;223.5793565;223.5793565;;;;;;450103;1;2024-01-23_17h26.29.086;REPSWITCH1_version1_list3;2022.2.4;144.0517445;
REPSWITCH1/PICTURE_19.png;pavo;type;darkblue;filler;1;F;2;2;3;1;Stim5_Set1;0;None;41;40;41;0;40;40;40;;;;;;;;;;;;;;;;;;;;;;;224.0794153;225.1143076;225.1143076;225.1143076;225.1143076;225.1143076;225.1143076;225.1143076;225.1143076;['p', 'a', 'v', 'o'];0;[1.088052500039339, 1.1747439997270703, 1.3361982004716992, 1.4179266998544335];pavo;C:\2023\REPSWITCH21092023\REPSWITCH_excgange\REPSWITCH_excgange\data/450103_REPSWITCH1_version1_list3_2024-01-23_17h26.29.086_micRespv1l3_recorded\recording_micRespv1l3_2024-01-23_17h29.49.681.wav;228.1425207;;None;228.1425207;228.1425207;228.1425207;228.1425207;228.1425207;228.1425207;;;;;;450103;1;2024-01-23_17h26.29.086;REPSWITCH1_version1_list3;2022.2.4;144.0517445;
REPSWITCH1/PICTURE_517.png;cuerda;speak;gold;nontarget;2;NT;2;2;3;1;Stim4_Set2;1;switch;42;41;42;0;41;41;41;;;;;;;;;;;;;;;;;;;;;;;228.6425159;229.7884972;229.7884972;229.7884972;229.7884972;229.7884972;229.7884972;229.7884972;229.7884972;None;0;;;C:\2023\REPSWITCH21092023\REPSWITCH_excgange\REPSWITCH_excgange\data/450103_REPSWITCH1_version1_list3_2024-01-23_17h26.29.086_micRespv1l3_recorded\recording_micRespv1l3_2024-01-23_17h29.54.356.wav;232.8166631;233.3167259;None;232.8166631;232.8166631;232.8166631;232.8166631;232.8166631;232.8166631;;;;;;450103;1;2024-01-23_17h26.29.086;REPSWITCH1_version1_list3;2022.2.4;144.0517445;
REPSWITCH1/PICTURE_517.png;cuerda;speak;gold;repeat;2;T;2;2;3;1;Stim4_Set2;0;None;43;42;43;0;42;42;42;;;;;;;;;;;;;;;;;;;;;;;233.3167259;234.4140927;234.4140927;234.4140927;234.4140927;234.4140927;234.4140927;234.4140927;234.4140927;None;0;;;C:\2023\REPSWITCH21092023\REPSWITCH_excgange\REPSWITCH_excgange\data/450103_REPSWITCH1_version1_list3_2024-01-23_17h26.29.086_micRespv1l3_recorded\recording_micRespv1l3_2024-01-23_17h29.58.981.wav;237.4422823;;None;237.4422823;237.4422823;237.4422823;237.4422823;237.4422823;237.4422823;;;;;;450103;1;2024-01-23_17h26.29.086;REPSWITCH1_version1_list3;2022.2.4;144.0517445;
REPSWITCH1/PICTURE_178.png;puente;type;darkblue;filler;1;F;2;2;3;1;Stim1_Set1;0;None;44;43;44;0;43;43;43;;;;;;;;;;;;;;;;;;;;;;;237.9423473;239.0605657;239.0605657;239.0605657;239.0605657;239.0605657;239.0605657;239.0605657;239.0605657;['p', 'u', 'e', 'n', 't', 'e'];0;[0.988957199268043, 1.0816469993442297, 1.238197399303317, 1.3367938995361328, 1.461374499835074, 1.5035721994936466];puente;C:\2023\REPSWITCH21092023\REPSWITCH_excgange\REPSWITCH_excgange\data/450103_REPSWITCH1_version1_list3_2024-01-23_17h26.29.086_micRespv1l3_recorded\recording_micRespv1l3_2024-01-23_17h30.03.627.wav;242.0817501;242.5818976;None;242.0817501;242.0817501;242.0817501;242.0817501;242.0817501;242.0817501;;;;;;450103;1;2024-01-23_17h26.29.086;REPSWITCH1_version1_list3;2022.2.4;144.0517445;
REPSWITCH1/PICTURE_199.png;falda;speak;gold;nontarget;2;NT;2;2;3;1;Stim8_Set2;1;switch;45;44;45;0;44;44;44;;;;;;;;;;;;;;;;;;;;;;;242.5818976;243.6236287;243.6236287;243.6236287;243.6236287;243.6236287;243.6236287;243.6236287;243.6236287;None;0;;;C:\2023\REPSWITCH21092023\REPSWITCH_excgange\REPSWITCH_excgange\data/450103_REPSWITCH1_version1_list3_2024-01-23_17h26.29.086_micRespv1l3_recorded\recording_micRespv1l3_2024-01-23_17h30.08.190.wav;246.6448551;247.1449217;None;246.6448551;246.6448551;246.6448551;246.6448551;246.6448551;246.6448551;;;;;;450103;1;2024-01-23_17h26.29.086;REPSWITCH1_version1_list3;2022.2.4;144.0517445;
REPSWITCH1/PICTURE_199.png;falda;speak;gold;repeat;2;T;2;2;3;1;Stim8_Set2;0;None;46;45;46;0;45;45;45;;;;;;;;;;;;;;;;;;;;;;;247.1449217;248.2492572;248.2492572;248.2492572;248.2492572;248.2492572;248.2492572;248.2492572;248.2492572;None;0;;;C:\2023\REPSWITCH21092023\REPSWITCH_excgange\REPSWITCH_excgange\data/450103_REPSWITCH1_version1_list3_2024-01-23_17h26.29.086_micRespv1l3_recorded\recording_micRespv1l3_2024-01-23_17h30.12.816.wav;251.277432;;None;251.277432;251.277432;251.277432;251.277432;251.277432;251.277432;;;;;;450103;1;2024-01-23_17h26.29.086;REPSWITCH1_version1_list3;2022.2.4;144.0517445;
REPSWITCH1/PICTURE_169.png;espalda;type;darkblue;filler;1;F;2;2;3;1;Stim8_Set1;0;None;47;46;47;0;46;46;46;;;;;;;;;;;;;;;;;;;;;;;251.7775694;252.8818224;252.8818224;252.8818224;252.8818224;252.8818224;252.8818224;252.8818224;252.8818224;['e', 's', 'p', 'a', 'l', 'd', 'a'];0;[1.0535380002111197, 1.1213095001876354, 1.2907338999211788, 1.429281199350953, 1.5602390002459288, 1.6778408996760845, 1.748595300130546];espalda;C:\2023\REPSWITCH21092023\REPSWITCH_excgange\REPSWITCH_excgange\data/450103_REPSWITCH1_version1_list3_2024-01-23_17h26.29.086_micRespv1l3_recorded\recording_micRespv1l3_2024-01-23_17h30.17.449.wav;255.9100431;;None;255.9100431;255.9100431;255.9100431;255.9100431;255.9100431;255.9100431;;;;;;450103;1;2024-01-23_17h26.29.086;REPSWITCH1_version1_list3;2022.2.4;144.0517445;
REPSWITCH1/PICTURE_142.png;vaso;speak;gold;filler;2;F;2;2;3;1;Stim7_Set1;0;None;48;47;48;0;47;47;47;;;;;;;;;;;;;;;;;;;;;;;256.4100504;257.653326;257.653326;257.653326;257.653326;257.653326;257.653326;257.653326;257.653326;None;0;;;C:\2023\REPSWITCH21092023\REPSWITCH_excgange\REPSWITCH_excgange\data/450103_REPSWITCH1_version1_list3_2024-01-23_17h26.29.086_micRespv1l3_recorded\recording_micRespv1l3_2024-01-23_17h30.22.219.wav;260.6744948;261.1745575;None;260.6744948;260.6744948;260.6744948;260.6744948;260.6744948;260.6744948;;;;;;450103;1;2024-01-23_17h26.29.086;REPSWITCH1_version1_list3;2022.2.4;144.0517445;
REPSWITCH1/PICTURE_552.png;manzana;speak;gold;nontarget;2;NT;2;2;3;1;Stim6_Set2;0;None;49;48;49;0;48;48;48;;;;;;;;;;;;;;;;;;;;;;;261.1745575;262.2372651;262.2372651;262.2372651;262.2372651;262.2372651;262.2372651;262.2372651;262.2372651;None;0;;;C:\2023\REPSWITCH21092023\REPSWITCH_excgange\REPSWITCH_excgange\data/450103_REPSWITCH1_version1_list3_2024-01-23_17h26.29.086_micRespv1l3_recorded\recording_micRespv1l3_2024-01-23_17h30.26.804.wav;265.2584746;265.7585018;None;265.2584746;265.2584746;265.2584746;265.2584746;265.2584746;265.2584746;;;;;;450103;1;2024-01-23_17h26.29.086;REPSWITCH1_version1_list3;2022.2.4;144.0517445;
REPSWITCH1/PICTURE_552.png;manzana;type;darkblue;switch;1;T;2;2;3;1;Stim6_Set2;0;None;50;49;50;0;49;49;49;;;;;;;;;;;;;;;;;;;;;;;265.7585018;266.8419821;266.8419821;266.8419821;266.8419821;266.8419821;266.8419821;266.8419821;266.8419821;['m', 'a', 'n', 'z', 'a', 'n', 'a'];0;[0.7228016005828977, 0.8205016003921628, 0.9394169002771378, 1.0928973006084561, 1.2972097005695105, 1.4875773005187511, 1.5981013998389244];manzana;C:\2023\REPSWITCH21092023\REPSWITCH_excgange\REPSWITCH_excgange\data/450103_REPSWITCH1_version1_list3_2024-01-23_17h26.29.086_micRespv1l3_recorded\recording_micRespv1l3_2024-01-23_17h30.31.408.wav;269.8632003;270.363273;None;269.8632003;269.8632003;269.8632003;269.8632003;269.8632003;269.8632003;;;;;;450103;1;2024-01-23_17h26.29.086;REPSWITCH1_version1_list3;2022.2.4;144.0517445;
REPSWITCH1/PICTURE_590.png;escoba;speak;gold;filler;2;F;1;2;3;1;Extra3;0;None;51;50;51;0;50;50;50;;;;;;;;;;;;;;;;;;;;;;;270.363273;271.3912417;271.3912417;271.3912417;271.3912417;271.3912417;271.3912417;271.3912417;271.3912417;None;0;;;C:\2023\REPSWITCH21092023\REPSWITCH_excgange\REPSWITCH_excgange\data/450103_REPSWITCH1_version1_list3_2024-01-23_17h26.29.086_micRespv1l3_recorded\recording_micRespv1l3_2024-01-23_17h30.35.958.wav;274.4193475;;space;274.4193475;274.4193475;274.4193475;274.4193475;274.4193475;274.4193475;274.9194242;274.9194242;16.7988536;;;450103;1;2024-01-23_17h26.29.086;REPSWITCH1_version1_list3;2022.2.4;144.0517445;
REPSWITCH1/PICTURE_552.png;manzana;type;darkblue;filler;1;F;3;2;3;1;Stim6_Set2;0;None;52;51;52;0;51;51;51;;;;;;;;;;;;;;;;;;;;;;;291.7271912;292.8523251;292.8523251;292.8523251;292.8523251;292.8523251;292.8523251;292.8523251;292.8523251;['m', 'a', 'n', 'z', 'a', 'n', 'a'];0;[1.1723774997517467, 1.400619899854064, 1.5411510998383164, 1.6986231999471784, 1.8959369994699955, 2.085028000175953, 2.1715636998414993];manzana;C:\2023\REPSWITCH21092023\REPSWITCH_excgange\REPSWITCH_excgange\data/450103_REPSWITCH1_version1_list3_2024-01-23_17h26.29.086_micRespv1l3_recorded\recording_micRespv1l3_2024-01-23_17h30.57.419.wav;295.8805363;;None;295.8805363;295.8805363;295.8805363;295.8805363;295.8805363;295.8805363;;;;;;450103;1;2024-01-23_17h26.29.086;REPSWITCH1_version1_list3;2022.2.4;144.0517445;
REPSWITCH1/PICTURE_464.png;goma;type;darkblue;nontarget;1;NT;3;2;3;1;Stim6_Set3;1;repeat;53;52;53;0;52;52;52;;;;;;;;;;;;;;;;;;;;;;;296.3805752;297.5266293;297.5266293;297.5266293;297.5266293;297.5266293;297.5266293;297.5266293;297.5266293;['g', 'o', 'm', 'a'];0;[1.151175499893725, 1.2403556993231177, 1.3878571996465325, 1.431747599504888];goma;C:\2023\REPSWITCH21092023\REPSWITCH_excgange\REPSWITCH_excgange\data/450103_REPSWITCH1_version1_list3_2024-01-23_17h26.29.086_micRespv1l3_recorded\recording_micRespv1l3_2024-01-23_17h31.02.094.wav;300.5547677;;None;300.5547677;300.5547677;300.5547677;300.5547677;300.5547677;300.5547677;;;;;;450103;1;2024-01-23_17h26.29.086;REPSWITCH1_version1_list3;2022.2.4;144.0517445;
REPSWITCH1/PICTURE_464.png;goma;speak;gold;switch;2;T;3;2;3;1;Stim6_Set3;0;None;54;53;54;0;53;53;53;;;;;;;;;;;;;;;;;;;;;;;301.0548498;302.228548;302.228548;302.228548;302.228548;302.228548;302.228548;302.228548;302.228548;None;0;;;C:\2023\REPSWITCH21092023\REPSWITCH_excgange\REPSWITCH_excgange\data/450103_REPSWITCH1_version1_list3_2024-01-23_17h26.29.086_micRespv1l3_recorded\recording_micRespv1l3_2024-01-23_17h31.06.796.wav;305.2567346;;None;305.2567346;305.2567346;305.2567346;305.2567346;305.2567346;305.2567346;;;;;;450103;1;2024-01-23_17h26.29.086;REPSWITCH1_version1_list3;2022.2.4;144.0517445;
REPSWITCH1/PICTURE_30.png;granja;speak;gold;filler;2;F;3;2;3;1;Stim5_Set2;0;None;55;54;55;0;54;54;54;;;;;;;;;;;;;;;;;;;;;;;305.7567697;306.9028016;306.9028016;306.9028016;306.9028016;306.9028016;306.9028016;306.9028016;306.9028016;None;0;;;C:\2023\REPSWITCH21092023\REPSWITCH_excgange\REPSWITCH_excgange\data/450103_REPSWITCH1_version1_list3_2024-01-23_17h26.29.086_micRespv1l3_recorded\recording_micRespv1l3_2024-01-23_17h31.11.469.wav;309.9309956;;None;309.9309956;309.9309956;309.9309956;309.9309956;309.9309956;309.9309956;;;;;;450103;1;2024-01-23_17h26.29.086;REPSWITCH1_version1_list3;2022.2.4;144.0517445;
REPSWITCH1/PICTURE_235.png;aguja;speak;gold;nontarget;2;NT;3;2;3;1;Stim4_Set3;1;repeat;56;55;56;0;55;55;55;;;;;;;;;;;;;;;;;;;;;;;310.4310319;311.5561694;311.5561694;311.5561694;311.5561694;311.5561694;311.5561694;311.5561694;311.5561694;None;0;;;C:\2023\REPSWITCH21092023\REPSWITCH_excgange\REPSWITCH_excgange\data/450103_REPSWITCH1_version1_list3_2024-01-23_17h26.29.086_micRespv1l3_recorded\recording_micRespv1l3_2024-01-23_17h31.16.123.wav;314.5774446;315.0774627;None;314.5774446;314.5774446;314.5774446;314.5774446;314.5774446;314.5774446;;;;;;450103;1;2024-01-23_17h26.29.086;REPSWITCH1_version1_list3;2022.2.4;144.0517445;
REPSWITCH1/PICTURE_235.png;aguja;type;darkblue;switch;1;T;3;2;3;1;Stim4_Set3;0;None;57;56;57;0;56;56;56;;;;;;;;;;;;;;;;;;;;;;;315.0774627;316.1332168;316.1332168;316.1332168;316.1332168;316.1332168;316.1332168;316.1332168;316.1332168;['a', 'g', 'u', 'j', 'a'];0;[0.7560175992548466, 0.9125118991360068, 1.0231178998947144, 1.2384904995560646, 1.3020508997142315];aguja;C:\2023\REPSWITCH21092023\REPSWITCH_excgange\REPSWITCH_excgange\data/450103_REPSWITCH1_version1_list3_2024-01-23_17h26.29.086_micRespv1l3_recorded\recording_micRespv1l3_2024-01-23_17h31.20.699.wav;319.1544257;319.6544749;None;319.1544257;319.1544257;319.1544257;319.1544257;319.1544257;319.1544257;;;;;;450103;1;2024-01-23_17h26.29.086;REPSWITCH1_version1_list3;2022.2.4;144.0517445;
REPSWITCH1/PICTURE_391.png;cadena;type;darkblue;filler;1;F;3;2;3;1;Extra2;0;None;58;57;58;0;57;57;57;;;;;;;;;;;;;;;;;;;;;;;319.6544749;320.6823611;320.6823611;320.6823611;320.6823611;320.6823611;320.6823611;320.6823611;320.6823611;['c', 'a', 'd', 'e', 'n', 'a'];0;[1.1208566995337605, 1.3171926997601986, 1.529780499637127, 1.7052171994000673, 1.7909702993929386, 1.8695229990407825];cadena;C:\2023\REPSWITCH21092023\REPSWITCH_excgange\REPSWITCH_excgange\data/450103_REPSWITCH1_version1_list3_2024-01-23_17h26.29.086_micRespv1l3_recorded\recording_micRespv1l3_2024-01-23_17h31.25.248.wav;323.7036011;324.2036574;None;323.7036011;323.7036011;323.7036011;323.7036011;323.7036011;323.7036011;;;;;;450103;1;2024-01-23_17h26.29.086;REPSWITCH1_version1_list3;2022.2.4;144.0517445;
REPSWITCH1/PICTURE_320.png;iglesia;type;darkblue;nontarget;1;NT;3;2;3;1;Stim8_Set3;0;None;59;58;59;0;58;58;58;;;;;;;;;;;;;;;;;;;;;;;324.2036574;325.3635968;325.3635968;325.3635968;325.3635968;325.3635968;325.3635968;325.3635968;325.3635968;['i', 'g', 'n', 'backspace', 'l', 'e', 's', 'i', 'a'];0;[1.0680398000404239, 1.2349723000079393, 1.412377799861133, 1.8333489997312427, 2.1546314004808664, 2.305128900334239, 2.4583230996504426, 2.598963100463152, 2.6673878002911806];iglesia;C:\2023\REPSWITCH21092023\REPSWITCH_excgange\REPSWITCH_excgange\data/450103_REPSWITCH1_version1_list3_2024-01-23_17h26.29.086_micRespv1l3_recorded\recording_micRespv1l3_2024-01-23_17h31.29.931.wav;328.3917271;;None;328.3917271;328.3917271;328.3917271;328.3917271;328.3917271;328.3917271;;;;;;450103;1;2024-01-23_17h26.29.086;REPSWITCH1_version1_list3;2022.2.4;144.0517445;
REPSWITCH1/PICTURE_320.png;iglesia;speak;gold;switch;2;T;3;2;3;1;Stim8_Set3;0;None;60;59;60;0;59;59;59;;;;;;;;;;;;;;;;;;;;;;;328.8917651;329.961353;329.961353;329.961353;329.961353;329.961353;329.961353;329.961353;329.961353;None;0;;;C:\2023\REPSWITCH21092023\REPSWITCH_excgange\REPSWITCH_excgange\data/450103_REPSWITCH1_version1_list3_2024-01-23_17h26.29.086_micRespv1l3_recorded\recording_micRespv1l3_2024-01-23_17h31.34.528.wav;332.9895466;;None;332.9895466;332.9895466;332.9895466;332.9895466;332.9895466;332.9895466;;;;;;450103;1;2024-01-23_17h26.29.086;REPSWITCH1_version1_list3;2022.2.4;144.0517445;
REPSWITCH1/PICTURE_175.png;pintor;type;darkblue;filler;1;F;3;2;3;1;Stim1_Set2;0;None;61;60;61;0;60;60;60;;;;;;;;;;;;;;;;;;;;;;;333.4896216;334.5661467;334.5661467;334.5661467;334.5661467;334.5661467;334.5661467;334.5661467;334.5661467;['p', 'i', 'n', 't', 'o', 'r'];0;[0.8230696991086006, 0.941670399159193, 1.1679013995453715, 1.3073155991733074, 1.432082299143076, 1.5078504998236895];pintor;C:\2023\REPSWITCH21092023\REPSWITCH_excgange\REPSWITCH_excgange\data/450103_REPSWITCH1_version1_list3_2024-01-23_17h26.29.086_micRespv1l3_recorded\recording_micRespv1l3_2024-01-23_17h31.39.133.wav;337.5943177;;None;337.5943177;337.5943177;337.5943177;337.5943177;337.5943177;337.5943177;;;;;;450103;1;2024-01-23_17h26.29.086;REPSWITCH1_version1_list3;2022.2.4;144.0517445;
REPSWITCH1/PICTURE_271.png;conejo;speak;gold;nontarget;2;NT;3;2;3;1;Stim7_Set3;1;switch;62;61;62;0;61;61;61;;;;;;;;;;;;;;;;;;;;;;;338.094375;339.1917254;339.1917254;339.1917254;339.1917254;339.1917254;339.1917254;339.1917254;339.1917254;None;0;;;C:\2023\REPSWITCH21092023\REPSWITCH_excgange\REPSWITCH_excgange\data/450103_REPSWITCH1_version1_list3_2024-01-23_17h26.29.086_micRespv1l3_recorded\recording_micRespv1l3_2024-01-23_17h31.43.758.wav;342.2199323;;None;342.2199323;342.2199323;342.2199323;342.2199323;342.2199323;342.2199323;;;;;;450103;1;2024-01-23_17h26.29.086;REPSWITCH1_version1_list3;2022.2.4;144.0517445;
REPSWITCH1/PICTURE_271.png;conejo;speak;gold;repeat;2;T;3;2;3;1;Stim7_Set3;0;None;63;62;63;0;62;62;62;;;;;;;;;;;;;;;;;;;;;;;342.7200609;343.8104005;343.8104005;343.8104005;343.8104005;343.8104005;343.8104005;343.8104005;343.8104005;None;0;;;C:\2023\REPSWITCH21092023\REPSWITCH_excgange\REPSWITCH_excgange\data/450103_REPSWITCH1_version1_list3_2024-01-23_17h26.29.086_micRespv1l3_recorded\recording_micRespv1l3_2024-01-23_17h31.48.376.wav;346.8385778;;None;346.8385778;346.8385778;346.8385778;346.8385778;346.8385778;346.8385778;;;;;;450103;1;2024-01-23_17h26.29.086;REPSWITCH1_version1_list3;2022.2.4;144.0517445;
REPSWITCH1/PICTURE_446.png;cerdo;speak;gold;filler;2;F;3;2;3;1;Stim7_Set2;0;None;64;63;64;0;63;63;63;;;;;;;;;;;;;;;;;;;;;;;347.3387312;348.4846412;348.4846412;348.4846412;348.4846412;348.4846412;348.4846412;348.4846412;348.4846412;None;0;;;C:\2023\REPSWITCH21092023\REPSWITCH_excgange\REPSWITCH_excgange\data/450103_REPSWITCH1_version1_list3_2024-01-23_17h26.29.086_micRespv1l3_recorded\recording_micRespv1l3_2024-01-23_17h31.53.051.wav;351.5058523;352.0059309;None;351.5058523;351.5058523;351.5058523;351.5058523;351.5058523;351.5058523;;;;;;450103;1;2024-01-23_17h26.29.086;REPSWITCH1_version1_list3;2022.2.4;144.0517445;
REPSWITCH1/PICTURE_152.png;caracol;type;darkblue;filler;1;F;3;2;3;1;Stim2_Set2;0;None;65;64;65;0;64;64;64;;;;;;;;;;;;;;;;;;;;;;;352.0059309;353.0130283;353.0130283;353.0130283;353.0130283;353.0130283;353.0130283;353.0130283;353.0130283;['c', 'a', 'r', 'a', 'c', 'o', 'l'];0;[0.8191372994333506, 0.8922467995435, 1.1367406994104385, 1.1846141992136836, 1.409554099664092, 1.4932402996346354, 1.6623728992417455];caracol;C:\2023\REPSWITCH21092023\REPSWITCH_excgange\REPSWITCH_excgange\data/450103_REPSWITCH1_version1_list3_2024-01-23_17h26.29.086_micRespv1l3_recorded\recording_micRespv1l3_2024-01-23_17h31.57.579.wav;356.0342494;356.5343095;None;356.0342494;356.0342494;356.0342494;356.0342494;356.0342494;356.0342494;;;;;;450103;1;2024-01-23_17h26.29.086;REPSWITCH1_version1_list3;2022.2.4;144.0517445;
REPSWITCH1/PICTURE_576.png;guante;speak;gold;nontarget;2;NT;3;2;3;1;Stim1_Set3;1;switch;66;65;66;0;65;65;65;;;;;;;;;;;;;;;;;;;;;;;356.5343095;357.6108405;357.6108405;357.6108405;357.6108405;357.6108405;357.6108405;357.6108405;357.6108405;None;0;;;C:\2023\REPSWITCH21092023\REPSWITCH_excgange\REPSWITCH_excgange\data/450103_REPSWITCH1_version1_list3_2024-01-23_17h26.29.086_micRespv1l3_recorded\recording_micRespv1l3_2024-01-23_17h32.02.177.wav;360.6320379;361.1321353;None;360.6320379;360.6320379;360.6320379;360.6320379;360.6320379;360.6320379;;;;;;450103;1;2024-01-23_17h26.29.086;REPSWITCH1_version1_list3;2022.2.4;144.0517445;
REPSWITCH1/PICTURE_576.png;guante;speak;gold;repeat;2;T;3;2;3;1;Stim1_Set3;0;None;67;66;67;0;66;66;66;;;;;;;;;;;;;;;;;;;;;;;361.1321353;362.2364499;362.2364499;362.2364499;362.2364499;362.2364499;362.2364499;362.2364499;362.2364499;None;0;;;C:\2023\REPSWITCH21092023\REPSWITCH_excgange\REPSWITCH_excgange\data/450103_REPSWITCH1_version1_list3_2024-01-23_17h26.29.086_micRespv1l3_recorded\recording_micRespv1l3_2024-01-23_17h32.06.802.wav;365.2576552;365.7577301;None;365.2576552;365.2576552;365.2576552;365.2576552;365.2576552;365.2576552;;;;;;450103;1;2024-01-23_17h26.29.086;REPSWITCH1_version1_list3;2022.2.4;144.0517445;
REPSWITCH1/PICTURE_242.png;cartero;speak;gold;nontarget;2;NT;3;2;3;1;Stim3_Set3;0;None;68;67;68;0;67;67;67;;;;;;;;;;;;;;;;;;;;;;;365.7577301;366.9037446;366.9037446;366.9037446;366.9037446;366.9037446;366.9037446;366.9037446;366.9037446;None;0;;;C:\2023\REPSWITCH21092023\REPSWITCH_excgange\REPSWITCH_excgange\data/450103_REPSWITCH1_version1_list3_2024-01-23_17h26.29.086_micRespv1l3_recorded\recording_micRespv1l3_2024-01-23_17h32.11.470.wav;369.9318777;;None;369.9318777;369.9318777;369.9318777;369.9318777;369.9318777;369.9318777;;;;;;450103;1;2024-01-23_17h26.29.086;REPSWITCH1_version1_list3;2022.2.4;144.0517445;
REPSWITCH1/PICTURE_242.png;cartero;type;darkblue;switch;1;T;3;2;3;1;Stim3_Set3;0;None;69;68;69;0;68;68;68;;;;;;;;;;;;;;;;;;;;;;;370.4319695;371.591901;371.591901;371.591901;371.591901;371.591901;371.591901;371.591901;371.591901;['c', 'a', 'r', 't', 'e', 'r', 'o'];0;[0.9024224998429418, 0.9502554992213845, 1.2158237993717194, 1.419179799966514, 1.5148465996608138, 1.6354590998962522, 1.7606608998030424];cartero;C:\2023\REPSWITCH21092023\REPSWITCH_excgange\REPSWITCH_excgange\data/450103_REPSWITCH1_version1_list3_2024-01-23_17h26.29.086_micRespv1l3_recorded\recording_micRespv1l3_2024-01-23_17h32.16.158.wav;374.6130389;375.1131385;None;374.6130389;374.6130389;374.6130389;374.6130389;374.6130389;374.6130389;;;;;;450103;1;2024-01-23_17h26.29.086;REPSWITCH1_version1_list3;2022.2.4;144.0517445;
REPSWITCH1/PICTURE_517.png;cuerda;speak;gold;filler;2;F;3;2;3;1;Stim4_Set2;0;None;70;69;70;0;69;69;69;;;;;;;;;;;;;;;;;;;;;;;375.1131385;376.2382739;376.2382739;376.2382739;376.2382739;376.2382739;376.2382739;376.2382739;376.2382739;None;0;;;C:\2023\REPSWITCH21092023\REPSWITCH_excgange\REPSWITCH_excgange\data/450103_REPSWITCH1_version1_list3_2024-01-23_17h26.29.086_micRespv1l3_recorded\recording_micRespv1l3_2024-01-23_17h32.20.805.wav;379.2595249;379.7595747;None;379.2595249;379.2595249;379.2595249;379.2595249;379.2595249;379.2595249;;;;;;450103;1;2024-01-23_17h26.29.086;REPSWITCH1_version1_list3;2022.2.4;144.0517445;
REPSWITCH1/PICTURE_646.png;tronco;type;darkblue;filler;1;F;3;2;3;1;Extra4;0;None;71;70;71;0;70;70;70;;;;;;;;;;;;;;;;;;;;;;;379.7595747;380.9750346;380.9750346;380.9750346;380.9750346;380.9750346;380.9750346;380.9750346;380.9750346;['t', 'r', 'o', 'n', 'c', 'o'];0;[1.4013322992250323, 1.4569811997935176, 1.582562199793756, 1.7189139993861318, 1.8886468997225165, 1.9851426994428039];tronco;C:\2023\REPSWITCH21092023\REPSWITCH_excgange\REPSWITCH_excgange\data/450103_REPSWITCH1_version1_list3_2024-01-23_17h26.29.086_micRespv1l3_recorded\recording_micRespv1l3_2024-01-23_17h32.25.542.wav;383.9962189;384.496395;None;383.9962189;383.9962189;383.9962189;383.9962189;383.9962189;383.9962189;;;;;;450103;1;2024-01-23_17h26.29.086;REPSWITCH1_version1_list3;2022.2.4;144.0517445;
REPSWITCH1/PICTURE_35.png;oreja;type;darkblue;nontarget;1;NT;3;2;3;1;Stim5_Set3;1;repeat;72;71;72;0;71;71;71;;;;;;;;;;;;;;;;;;;;;;;384.496395;385.6006137;385.6006137;385.6006137;385.6006137;385.6006137;385.6006137;385.6006137;385.6006137;['o', 'r', 'e', 'j', 'a'];0;[0.7369405003264546, 0.8459807001054287, 0.9213244998827577, 1.1067388001829386, 1.1795028997585177];oreja;C:\2023\REPSWITCH21092023\REPSWITCH_excgange\REPSWITCH_excgange\data/450103_REPSWITCH1_version1_list3_2024-01-23_17h26.29.086_micRespv1l3_recorded\recording_micRespv1l3_2024-01-23_17h32.30.166.wav;388.6218415;389.1219936;None;388.6218415;388.6218415;388.6218415;388.6218415;388.6218415;388.6218415;;;;;;450103;1;2024-01-23_17h26.29.086;REPSWITCH1_version1_list3;2022.2.4;144.0517445;
REPSWITCH1/PICTURE_35.png;oreja;type;darkblue;repeat;1;T;3;2;3;1;Stim5_Set3;0;None;73;72;73;0;72;72;72;;;;;;;;;;;;;;;;;;;;;;;389.1219936;390.2262481;390.2262481;390.2262481;390.2262481;390.2262481;390.2262481;390.2262481;390.2262481;['o', 'r', 'e', 'j', 'a'];0;[0.8451819997280836, 0.9428679998964071, 0.98674859944731, 1.110411299392581, 1.173072999343276];oreja;C:\2023\REPSWITCH21092023\REPSWITCH_excgange\REPSWITCH_excgange\data/450103_REPSWITCH1_version1_list3_2024-01-23_17h26.29.086_micRespv1l3_recorded\recording_micRespv1l3_2024-01-23_17h32.34.793.wav;393.2543853;;None;393.2543853;393.2543853;393.2543853;393.2543853;393.2543853;393.2543853;;;;;;450103;1;2024-01-23_17h26.29.086;REPSWITCH1_version1_list3;2022.2.4;144.0517445;
REPSWITCH1/PICTURE_199.png;falda;speak;gold;filler;2;F;3;2;3;1;Stim8_Set2;0;None;74;73;74;0;73;73;73;;;;;;;;;;;;;;;;;;;;;;;393.7544649;394.8657946;394.8657946;394.8657946;394.8657946;394.8657946;394.8657946;394.8657946;394.8657946;None;0;;;C:\2023\REPSWITCH21092023\REPSWITCH_excgange\REPSWITCH_excgange\data/450103_REPSWITCH1_version1_list3_2024-01-23_17h26.29.086_micRespv1l3_recorded\recording_micRespv1l3_2024-01-23_17h32.39.432.wav;397.8869716;398.3870143;None;397.8869716;397.8869716;397.8869716;397.8869716;397.8869716;397.8869716;;;;;;450103;1;2024-01-23_17h26.29.086;REPSWITCH1_version1_list3;2022.2.4;144.0517445;
REPSWITCH1/PICTURE_610.png;miel;type;darkblue;nontarget;1;NT;3;2;3;1;Stim2_Set3;1;switch;75;74;75;0;74;74;74;;;;;;;;;;;;;;;;;;;;;;;398.3870143;399.4843793;399.4843793;399.4843793;399.4843793;399.4843793;399.4843793;399.4843793;399.4843793;['m', 'i', 'l', 'backspace', 'e', 'l'];0;[1.0382970999926329, 1.1549040991812944, 1.371178399771452, 1.781798199750483, 1.875429599545896, 2.0289264991879463];miel;C:\2023\REPSWITCH21092023\REPSWITCH_excgange\REPSWITCH_excgange\data/450103_REPSWITCH1_version1_list3_2024-01-23_17h26.29.086_micRespv1l3_recorded\recording_micRespv1l3_2024-01-23_17h32.44.051.wav;402.5125714;;None;402.5125714;402.5125714;402.5125714;402.5125714;402.5125714;402.5125714;;;;;;450103;1;2024-01-23_17h26.29.086;REPSWITCH1_version1_list3;2022.2.4;144.0517445;
REPSWITCH1/PICTURE_610.png;miel;type;darkblue;repeat;1;T;3;2;3;1;Stim2_Set3;0;None;76;75;76;0;75;75;75;;;;;;;;;;;;;;;;;;;;;;;403.0126353;404.1447522;404.1447522;404.1447522;404.1447522;404.1447522;404.1447522;404.1447522;404.1447522;['m', 'i', 'e', 'l'];0;[0.6920837005600333, 0.7738433005288243, 0.8804847998544574, 0.9961037002503872];miel;C:\2023\REPSWITCH21092023\REPSWITCH_excgange\REPSWITCH_excgange\data/450103_REPSWITCH1_version1_list3_2024-01-23_17h26.29.086_micRespv1l3_recorded\recording_micRespv1l3_2024-01-23_17h32.48.711.wav;407.1729057;;None;407.1729057;407.1729057;407.1729057;407.1729057;407.1729057;407.1729057;;;;;;450103;1;2024-01-23_17h26.29.086;REPSWITCH1_version1_list3;2022.2.4;144.0517445;
REPSWITCH1/PICTURE_264.png;mano;type;darkblue;filler;1;F;3;2;3;1;Stim3_Set2;1;repeat;77;76;77;0;76;76;76;;;;;;;;;;;;;;;;;;;;;;;407.6729686;408.9231553;408.9231553;408.9231553;408.9231553;408.9231553;408.9231553;408.9231553;408.9231553;['m', 'a', 'n', 'o'];0;[0.6421905001625419, 0.7328645000234246, 0.8474423000589013, 0.9421552000567317];mano;C:\2023\REPSWITCH21092023\REPSWITCH_excgange\REPSWITCH_excgange\data/450103_REPSWITCH1_version1_list3_2024-01-23_17h26.29.086_micRespv1l3_recorded\recording_micRespv1l3_2024-01-23_17h32.53.489.wav;411.9444506;412.444433;None;411.9444506;411.9444506;411.9444506;411.9444506;411.9444506;411.9444506;;;;;;450103;1;2024-01-23_17h26.29.086;REPSWITCH1_version1_list3;2022.2.4;144.0517445;
REPSWITCH1/PICTURE_464.png;goma;speak;gold;filler;2;F;4;2;3;1;Stim6_Set3;0;None;78;77;78;0;77;77;77;;;;;;;;;;;;;;;;;;;;;;;412.444433;413.4862601;413.4862601;413.4862601;413.4862601;413.4862601;413.4862601;413.4862601;413.4862601;None;0;;;C:\2023\REPSWITCH21092023\REPSWITCH_excgange\REPSWITCH_excgange\data/450103_REPSWITCH1_version1_list3_2024-01-23_17h26.29.086_micRespv1l3_recorded\recording_micRespv1l3_2024-01-23_17h32.58.052.wav;416.5074571;417.0076071;None;416.5074571;416.5074571;416.5074571;416.5074571;416.5074571;416.5074571;;;;;;450103;1;2024-01-23_17h26.29.086;REPSWITCH1_version1_list3;2022.2.4;144.0517445;
REPSWITCH1/PICTURE_8.png;pierna;type;darkblue;nontarget;1;NT;4;2;3;1;Stim3_Set4;1;switch;79;78;79;0;78;78;78;;;;;;;;;;;;;;;;;;;;;;;417.0076071;418.0632191;418.0632191;418.0632191;418.0632191;418.0632191;418.0632191;418.0632191;418.0632191;['p', 'i', 'e', 'r', 'n', 'a'];0;[0.8623206000775099, 0.9559480994939804, 1.065540499985218, 1.159269300289452, 1.2927868999540806, 1.363582500256598];pierna;C:\2023\REPSWITCH21092023\REPSWITCH_excgange\REPSWITCH_excgange\data/450103_REPSWITCH1_version1_list3_2024-01-23_17h26.29.086_micRespv1l3_recorded\recording_micRespv1l3_2024-01-23_17h33.02.629.wav;421.0844631;421.5845122;None;421.0844631;421.0844631;421.0844631;421.0844631;421.0844631;421.0844631;;;;;;450103;1;2024-01-23_17h26.29.086;REPSWITCH1_version1_list3;2022.2.4;144.0517445;
REPSWITCH1/PICTURE_8.png;pierna;type;darkblue;repeat;1;T;4;2;3;1;Stim3_Set4;0;None;80;79;80;0;79;79;79;;;;;;;;;;;;;;;;;;;;;;;421.5845122;422.7652187;422.7652187;422.7652187;422.7652187;422.7652187;422.7652187;422.7652187;422.7652187;['p', 'i', 'e', 'r', 'n', 'a'];0;[0.6150227999314666, 0.7279111994430423, 0.821195799857378, 0.9308156995102763, 1.0455914996564388, 1.1107195997610688];pierna;C:\2023\REPSWITCH21092023\REPSWITCH_excgange\REPSWITCH_excgange\data/450103_REPSWITCH1_version1_list3_2024-01-23_17h26.29.086_micRespv1l3_recorded\recording_micRespv1l3_2024-01-23_17h33.07.332.wav;425.7864403;426.2866079;None;425.7864403;425.7864403;425.7864403;425.7864403;425.7864403;425.7864403;;;;;;450103;1;2024-01-23_17h26.29.086;REPSWITCH1_version1_list3;2022.2.4;144.0517445;
REPSWITCH1/PICTURE_728.png;pulpo;type;darkblue;nontarget;1;NT;4;2;3;1;Stim8_Set4;1;repeat;81;80;81;0;80;80;80;;;;;;;;;;;;;;;;;;;;;;;426.2866079;427.4464276;427.4464276;427.4464276;427.4464276;427.4464276;427.4464276;427.4464276;427.4464276;['p', 'u', 'l', 'p', 'o'];0;[0.7040053997188807, 0.8465272998437285, 1.1187958996742964, 1.4919503992423415, 1.5879246992990375];pulpo;C:\2023\REPSWITCH21092023\REPSWITCH_excgange\REPSWITCH_excgange\data/450103_REPSWITCH1_version1_list3_2024-01-23_17h26.29.086_micRespv1l3_recorded\recording_micRespv1l3_2024-01-23_17h33.12.013.wav;430.46765;430.9677386;None;430.46765;430.46765;430.46765;430.46765;430.46765;430.46765;;;;;;450103;1;2024-01-23_17h26.29.086;REPSWITCH1_version1_list3;2022.2.4;144.0517445;
REPSWITCH1/PICTURE_728.png;pulpo;speak;gold;switch;2;T;4;2;3;1;Stim8_Set4;0;None;82;81;82;0;81;81;81;;;;;;;;;;;;;;;;;;;;;;;430.9677386;432.0025634;432.0025634;432.0025634;432.0025634;432.0025634;432.0025634;432.0025634;432.0025634;None;0;;;C:\2023\REPSWITCH21092023\REPSWITCH_excgange\REPSWITCH_excgange\data/450103_REPSWITCH1_version1_list3_2024-01-23_17h26.29.086_micRespv1l3_recorded\recording_micRespv1l3_2024-01-23_17h33.16.568.wav;435.02383;435.5238196;None;435.02383;435.02383;435.02383;435.02383;435.02383;435.02383;;;;;;450103;1;2024-01-23_17h26.29.086;REPSWITCH1_version1_list3;2022.2.4;144.0517445;
REPSWITCH1/PICTURE_235.png;aguja;type;darkblue;filler;1;F;4;2;3;1;Stim4_Set3;0;None;83;82;83;0;82;82;82;;;;;;;;;;;;;;;;;;;;;;;435.5238196;436.6003878;436.6003878;436.6003878;436.6003878;436.6003878;436.6003878;436.6003878;436.6003878;['a', 'g', 'u', 'j', 'a'];0;[0.8339539002627134, 1.0095154996961355, 1.1002011997625232, 1.2995413998141885, 1.349345300346613];aguja;C:\2023\REPSWITCH21092023\REPSWITCH_excgange\REPSWITCH_excgange\data/450103_REPSWITCH1_version1_list3_2024-01-23_17h26.29.086_micRespv1l3_recorded\recording_micRespv1l3_2024-01-23_17h33.21.167.wav;439.6285589;;None;439.6285589;439.6285589;439.6285589;439.6285589;439.6285589;439.6285589;;;;;;450103;1;2024-01-23_17h26.29.086;REPSWITCH1_version1_list3;2022.2.4;144.0517445;
REPSWITCH1/PICTURE_498.png;taza;speak;gold;nontarget;2;NT;4;2;3;1;Stim4_Set4;1;switch;84;83;84;0;83;83;83;;;;;;;;;;;;;;;;;;;;;;;440.1286198;441.2468616;441.2468616;441.2468616;441.2468616;441.2468616;441.2468616;441.2468616;441.2468616;None;0;;;C:\2023\REPSWITCH21092023\REPSWITCH_excgange\REPSWITCH_excgange\data/450103_REPSWITCH1_version1_list3_2024-01-23_17h26.29.086_micRespv1l3_recorded\recording_micRespv1l3_2024-01-23_17h33.25.813.wav;444.2681219;444.7681254;None;444.2681219;444.2681219;444.2681219;444.2681219;444.2681219;444.2681219;;;;;;450103;1;2024-01-23_17h26.29.086;REPSWITCH1_version1_list3;2022.2.4;144.0517445;
REPSWITCH1/PICTURE_498.png;taza;speak;gold;repeat;2;T;4;2;3;1;Stim4_Set4;0;None;85;84;85;0;84;84;84;;;;;;;;;;;;;;;;;;;;;;;444.7681254;445.8169476;445.8169476;445.8169476;445.8169476;445.8169476;445.8169476;445.8169476;445.8169476;None;0;;;C:\2023\REPSWITCH21092023\REPSWITCH_excgange\REPSWITCH_excgange\data/450103_REPSWITCH1_version1_list3_2024-01-23_17h26.29.086_micRespv1l3_recorded\recording_micRespv1l3_2024-01-23_17h33.30.383.wav;448.8381088;449.3381665;None;448.8381088;448.8381088;448.8381088;448.8381088;448.8381088;448.8381088;;;;;;450103;1;2024-01-23_17h26.29.086;REPSWITCH1_version1_list3;2022.2.4;144.0517445;
REPSWITCH1/PICTURE_719.png;baño;speak;gold;nontarget;2;NT;4;2;3;1;Stim2_Set4;0;None;86;85;86;0;85;85;85;;;;;;;;;;;;;;;;;;;;;;;449.3381665;450.4355765;450.4355765;450.4355765;450.4355765;450.4355765;450.4355765;450.4355765;450.4355765;None;0;;;C:\2023\REPSWITCH21092023\REPSWITCH_excgange\REPSWITCH_excgange\data/450103_REPSWITCH1_version1_list3_2024-01-23_17h26.29.086_micRespv1l3_recorded\recording_micRespv1l3_2024-01-23_17h33.35.002.wav;453.4567833;453.9568101;None;453.4567833;453.4567833;453.4567833;453.4567833;453.4567833;453.4567833;;;;;;450103;1;2024-01-23_17h26.29.086;REPSWITCH1_version1_list3;2022.2.4;144.0517445;
REPSWITCH1/PICTURE_719.png;baño;type;darkblue;switch;1;T;4;2;3;1;Stim2_Set4;0;None;87;86;87;0;86;86;86;;;;;;;;;;;;;;;;;;;;;;;453.9568101;455.1097469;455.1097469;455.1097469;455.1097469;455.1097469;455.1097469;455.1097469;455.1097469;['b', 'a', 'ñ', 'o'];0;[0.9665695996955037, 1.0642382996156812, 1.1967997997999191, 1.3031663000583649];baño;C:\2023\REPSWITCH21092023\REPSWITCH_excgange\REPSWITCH_excgange\data/450103_REPSWITCH1_version1_list3_2024-01-23_17h26.29.086_micRespv1l3_recorded\recording_micRespv1l3_2024-01-23_17h33.39.676.wav;458.1310276;458.631061;None;458.1310276;458.1310276;458.1310276;458.1310276;458.1310276;458.1310276;;;;;;450103;1;2024-01-23_17h26.29.086;REPSWITCH1_version1_list3;2022.2.4;144.0517445;
REPSWITCH1/PICTURE_320.png;iglesia;speak;gold;filler;2;F;4;2;3;1;Stim8_Set3;0;None;88;87;88;0;87;87;87;;;;;;;;;;;;;;;;;;;;;;;458.631061;459.6659079;459.6659079;459.6659079;459.6659079;459.6659079;459.6659079;459.6659079;459.6659079;None;0;;;C:\2023\REPSWITCH21092023\REPSWITCH_excgange\REPSWITCH_excgange\data/450103_REPSWITCH1_version1_list3_2024-01-23_17h26.29.086_micRespv1l3_recorded\recording_micRespv1l3_2024-01-23_17h33.44.232.wav;462.687152;463.1872341;None;462.687152;462.687152;462.687152;462.687152;462.687152;462.687152;;;;;;450103;1;2024-01-23_17h26.29.086;REPSWITCH1_version1_list3;2022.2.4;144.0517445;
REPSWITCH1/PICTURE_48.png;bombero;type;darkblue;nontarget;1;NT;4;2;3;1;Stim7_Set4;1;switch;89;88;89;0;88;88;88;;;;;;;;;;;;;;;;;;;;;;;463.1872341;464.2429047;464.2429047;464.2429047;464.2429047;464.2429047;464.2429047;464.2429047;464.2429047;['b', 'o', 'm', 'b', 'e', 'r', 'o'];0;[0.9727355996146798, 1.0973437996581197, 1.2039751000702381, 1.5531550999730825, 1.7964049000293016, 1.8402618998661637, 1.9382432997226715];bombero;C:\2023\REPSWITCH21092023\REPSWITCH_excgange\REPSWITCH_excgange\data/450103_REPSWITCH1_version1_list3_2024-01-23_17h26.29.086_micRespv1l3_recorded\recording_micRespv1l3_2024-01-23_17h33.48.810.wav;467.2641015;467.7642031;None;467.2641015;467.2641015;467.2641015;467.2641015;467.2641015;467.2641015;;;;;;450103;1;2024-01-23_17h26.29.086;REPSWITCH1_version1_list3;2022.2.4;144.0517445;
REPSWITCH1/PICTURE_48.png;bombero;speak;gold;switch;2;T;4;2;3;1;Stim7_Set4;0;None;90;89;90;0;89;89;89;;;;;;;;;;;;;;;;;;;;;;;467.7642031;468.8546033;468.8546033;468.8546033;468.8546033;468.8546033;468.8546033;468.8546033;468.8546033;None;0;;;C:\2023\REPSWITCH21092023\REPSWITCH_excgange\REPSWITCH_excgange\data/450103_REPSWITCH1_version1_list3_2024-01-23_17h26.29.086_micRespv1l3_recorded\recording_micRespv1l3_2024-01-23_17h33.53.422.wav;471.8758998;472.3759267;None;471.8758998;471.8758998;471.8758998;471.8758998;471.8758998;471.8758998;;;;;;450103;1;2024-01-23_17h26.29.086;REPSWITCH1_version1_list3;2022.2.4;144.0517445;
REPSWITCH1/PICTURE_576.png;guante;type;darkblue;filler;1;F;4;2;3;1;Stim1_Set3;0;None;91;90;91;0;90;90;90;;;;;;;;;;;;;;;;;;;;;;;472.3759267;473.4594449;473.4594449;473.4594449;473.4594449;473.4594449;473.4594449;473.4594449;473.4594449;['g', 'u', 'a', 'n', 't', 'e'];0;[1.0969585003331304, 1.1796730002388358, 1.249418499879539, 1.4145857002586126, 1.4992542006075382, 1.5472001004964113];guante;C:\2023\REPSWITCH21092023\REPSWITCH_excgange\REPSWITCH_excgange\data/450103_REPSWITCH1_version1_list3_2024-01-23_17h26.29.086_micRespv1l3_recorded\recording_micRespv1l3_2024-01-23_17h33.58.025.wav;476.4806046;476.980654;None;476.4806046;476.4806046;476.4806046;476.4806046;476.4806046;476.4806046;;;;;;450103;1;2024-01-23_17h26.29.086;REPSWITCH1_version1_list3;2022.2.4;144.0517445;
REPSWITCH1/PICTURE_271.png;conejo;speak;gold;filler;2;F;4;2;3;1;Stim7_Set3;0;None;92;91;92;0;91;91;91;;;;;;;;;;;;;;;;;;;;;;;476.980654;478.0641621;478.0641621;478.0641621;478.0641621;478.0641621;478.0641621;478.0641621;478.0641621;None;0;;;C:\2023\REPSWITCH21092023\REPSWITCH_excgange\REPSWITCH_excgange\data/450103_REPSWITCH1_version1_list3_2024-01-23_17h26.29.086_micRespv1l3_recorded\recording_micRespv1l3_2024-01-23_17h34.02.632.wav;481.0923486;481.5924812;None;481.0923486;481.0923486;481.0923486;481.0923486;481.0923486;481.0923486;;;;;;450103;1;2024-01-23_17h26.29.086;REPSWITCH1_version1_list3;2022.2.4;144.0517445;
REPSWITCH1/PICTURE_319.png;vaca;speak;gold;nontarget;2;NT;4;2;3;1;Stim1_Set4;1;repeat;93;92;93;0;92;92;92;;;;;;;;;;;;;;;;;;;;;;;481.5924812;482.7106394;482.7106394;482.7106394;482.7106394;482.7106394;482.7106394;482.7106394;482.7106394;None;0;;;C:\2023\REPSWITCH21092023\REPSWITCH_excgange\REPSWITCH_excgange\data/450103_REPSWITCH1_version1_list3_2024-01-23_17h26.29.086_micRespv1l3_recorded\recording_micRespv1l3_2024-01-23_17h34.07.277.wav;485.7318828;486.2319083;None;485.7318828;485.7318828;485.7318828;485.7318828;485.7318828;485.7318828;;;;;;450103;1;2024-01-23_17h26.29.086;REPSWITCH1_version1_list3;2022.2.4;144.0517445;
REPSWITCH1/PICTURE_319.png;vaca;speak;gold;repeat;2;T;4;2;3;1;Stim1_Set4;0;None;94;93;94;0;93;93;93;;;;;;;;;;;;;;;;;;;;;;;486.2319083;487.3570364;487.3570364;487.3570364;487.3570364;487.3570364;487.3570364;487.3570364;487.3570364;None;0;;;C:\2023\REPSWITCH21092023\REPSWITCH_excgange\REPSWITCH_excgange\data/450103_REPSWITCH1_version1_list3_2024-01-23_17h26.29.086_micRespv1l3_recorded\recording_micRespv1l3_2024-01-23_17h34.11.922.wav;490.3783659;490.8784297;None;490.3783659;490.3783659;490.3783659;490.3783659;490.3783659;490.3783659;;;;;;450103;1;2024-01-23_17h26.29.086;REPSWITCH1_version1_list3;2022.2.4;144.0517445;
REPSWITCH1/PICTURE_242.png;cartero;type;darkblue;filler;1;F;4;2;3;1;Stim3_Set3;0;None;95;94;95;0;94;94;94;;;;;;;;;;;;;;;;;;;;;;;490.8784297;492.003488;492.003488;492.003488;492.003488;492.003488;492.003488;492.003488;492.003488;['c', 'a', 'r', 't', 'e', 'r', 'o'];0;[0.9390505999326706, 1.0207716999575496, 1.2718631997704506, 1.48512339964509, 1.5558912996202707, 1.716350699774921, 1.8282149992883205];cartero;C:\2023\REPSWITCH21092023\REPSWITCH_excgange\REPSWITCH_excgange\data/450103_REPSWITCH1_version1_list3_2024-01-23_17h26.29.086_micRespv1l3_recorded\recording_micRespv1l3_2024-01-23_17h34.16.570.wav;495.0246954;495.5247718;None;495.0246954;495.0246954;495.0246954;495.0246954;495.0246954;495.0246954;;;;;;450103;1;2024-01-23_17h26.29.086;REPSWITCH1_version1_list3;2022.2.4;144.0517445;
REPSWITCH1/PICTURE_35.png;oreja;speak;gold;filler;2;F;4;2;3;1;Stim5_Set3;1;switch;96;95;96;0;95;95;95;;;;;;;;;;;;;;;;;;;;;;;495.5247718;496.65687;496.65687;496.65687;496.65687;496.65687;496.65687;496.65687;496.65687;None;0;;;C:\2023\REPSWITCH21092023\REPSWITCH_excgange\REPSWITCH_excgange\data/450103_REPSWITCH1_version1_list3_2024-01-23_17h26.29.086_micRespv1l3_recorded\recording_micRespv1l3_2024-01-23_17h34.21.224.wav;499.6850667;;None;499.6850667;499.6850667;499.6850667;499.6850667;499.6850667;499.6850667;;;;;;450103;1;2024-01-23_17h26.29.086;REPSWITCH1_version1_list3;2022.2.4;144.0517445;
REPSWITCH1/PICTURE_338.png;regalo;speak;gold;nontarget;2;NT;4;2;3;1;Stim6_Set4;1;repeat;97;96;97;0;96;96;96;;;;;;;;;;;;;;;;;;;;;;;500.1851143;501.2755719;501.2755719;501.2755719;501.2755719;501.2755719;501.2755719;501.2755719;501.2755719;None;0;;;C:\2023\REPSWITCH21092023\REPSWITCH_excgange\REPSWITCH_excgange\data/450103_REPSWITCH1_version1_list3_2024-01-23_17h26.29.086_micRespv1l3_recorded\recording_micRespv1l3_2024-01-23_17h34.25.842.wav;504.2967882;504.7968245;None;504.2967882;504.2967882;504.2967882;504.2967882;504.2967882;504.2967882;;;;;;450103;1;2024-01-23_17h26.29.086;REPSWITCH1_version1_list3;2022.2.4;144.0517445;
REPSWITCH1/PICTURE_338.png;regalo;type;darkblue;switch;1;T;4;2;3;1;Stim6_Set4;0;None;98;97;98;0;97;97;97;;;;;;;;;;;;;;;;;;;;;;;504.7968245;505.8386683;505.8386683;505.8386683;505.8386683;505.8386683;505.8386683;505.8386683;505.8386683;['r', 'e', 'g', 'a', 'l', 'o'];0;[0.6562881004065275, 0.7180789997801185, 0.9648909000679851, 1.041617900133133, 1.1512750005349517, 1.326668900437653];regalo;C:\2023\REPSWITCH21092023\REPSWITCH_excgange\REPSWITCH_excgange\data/450103_REPSWITCH1_version1_list3_2024-01-23_17h26.29.086_micRespv1l3_recorded\recording_micRespv1l3_2024-01-23_17h34.30.405.wav;508.8668012;;None;508.8668012;508.8668012;508.8668012;508.8668012;508.8668012;508.8668012;;;;;;450103;1;2024-01-23_17h26.29.086;REPSWITCH1_version1_list3;2022.2.4;144.0517445;
REPSWITCH1/PICTURE_687.png;camisa;type;darkblue;nontarget;1;NT;4;2;3;1;Stim5_Set4;0;None;99;98;99;0;98;98;98;;;;;;;;;;;;;;;;;;;;;;;509.3669603;510.5753662;510.5753662;510.5753662;510.5753662;510.5753662;510.5753662;510.5753662;510.5753662;['c', 'a', 'm', 'i', 's', 'a'];0;[0.8846199996769428, 0.9603291992098093, 1.0821821996942163, 1.1619152994826436, 1.228750399313867, 1.2992159994319081];camisa;C:\2023\REPSWITCH21092023\REPSWITCH_excgange\REPSWITCH_excgange\data/450103_REPSWITCH1_version1_list3_2024-01-23_17h26.29.086_micRespv1l3_recorded\recording_micRespv1l3_2024-01-23_17h34.35.142.wav;513.6035639;;None;513.6035639;513.6035639;513.6035639;513.6035639;513.6035639;513.6035639;;;;;;450103;1;2024-01-23_17h26.29.086;REPSWITCH1_version1_list3;2022.2.4;144.0517445;
REPSWITCH1/PICTURE_687.png;camisa;type;darkblue;repeat;1;T;4;2;3;1;Stim5_Set4;0;None;100;99;100;0;99;99;99;;;;;;;;;;;;;;;;;;;;;;;514.1036041;515.2218924;515.2218924;515.2218924;515.2218924;515.2218924;515.2218924;515.2218924;515.2218924;['c', 'a', 'm', 'i', 's', 'a'];0;[0.6419473998248577, 0.7207845998927951, 0.8715423997491598, 0.9472834002226591, 1.0270341001451015, 1.08687589969486];camisa;C:\2023\REPSWITCH21092023\REPSWITCH_excgange\REPSWITCH_excgange\data/450103_REPSWITCH1_version1_list3_2024-01-23_17h26.29.086_micRespv1l3_recorded\recording_micRespv1l3_2024-01-23_17h34.39.788.wav;518.2430438;518.7431102;None;518.2430438;518.2430438;518.2430438;518.2430438;518.2430438;518.2430438;;;;;;450103;1;2024-01-23_17h26.29.086;REPSWITCH1_version1_list3;2022.2.4;144.0517445;
REPSWITCH1/PICTURE_340.png;espejo;speak;gold;filler;2;F;4;2;3;1;Extra1;0;None;101;100;101;0;100;100;100;;;;;;;;;;;;;;;;;;;;;;;518.7431102;519.833572;519.833572;519.833572;519.833572;519.833572;519.833572;519.833572;519.833572;None;0;;;C:\2023\REPSWITCH21092023\REPSWITCH_excgange\REPSWITCH_excgange\data/450103_REPSWITCH1_version1_list3_2024-01-23_17h26.29.086_micRespv1l3_recorded\recording_micRespv1l3_2024-01-23_17h34.44.401.wav;522.8616795;;None;522.8616795;522.8616795;522.8616795;522.8616795;522.8616795;522.8616795;;;;;;450103;1;2024-01-23_17h26.29.086;REPSWITCH1_version1_list3;2022.2.4;144.0517445;
REPSWITCH1/PICTURE_610.png;miel;type;darkblue;filler;1;F;4;2;3;1;Stim2_Set3;0;None;102;101;102;0;101;101;101;;;;;;;;;;;;;;;;;;;;;;;523.3617598;524.486937;524.486937;524.486937;524.486937;524.486937;524.486937;524.486937;524.486937;['m', 'i', 'e', 'l'];0;[1.2217322997748852, 1.3221187992021441, 1.4273287998512387, 1.5080432994291186];miel;C:\2023\REPSWITCH21092023\REPSWITCH_excgange\REPSWITCH_excgange\data/450103_REPSWITCH1_version1_list3_2024-01-23_17h26.29.086_micRespv1l3_recorded\recording_micRespv1l3_2024-01-23_17h34.49.054.wav;527.508168;528.0082356;space;527.508168;527.508168;527.508168;527.508168;527.508168;527.508168;528.0082356;528.0082356;7.8544571;;;450103;1;2024-01-23_17h26.29.086;REPSWITCH1_version1_list3;2022.2.4;144.0517445;
REPSWITCH1/PICTURE_8.png;pierna;type;darkblue;filler;1;F;1;4;3;1;Stim3_Set4;0;None;103;102;1;0;102;102;102;;;;;;;;;;;;;;;;;;;;;;;535.8703754;536.9817081;536.9817081;536.9817081;536.9817081;536.9817081;536.9817081;536.9817081;536.9817081;['p', 'i', 'e', 'r', 'n', 'a'];0;[0.7961766002699733, 0.8639061003923416, 0.9628322003409266, 1.040634199976921, 1.1555379005149007, 1.181444300338626];pierna;C:\2023\REPSWITCH21092023\REPSWITCH_excgange\REPSWITCH_excgange\data/450103_REPSWITCH1_version1_list3_2024-01-23_17h26.29.086_micRespv1l3_recorded\recording_micRespv1l3_2024-01-23_17h35.01.548.wav;540.0028653;540.5029258;None;540.0028653;540.0028653;540.0028653;540.0028653;540.0028653;540.0028653;;;;;;450103;1;2024-01-23_17h26.29.086;REPSWITCH1_version1_list3;2022.2.4;144.0517445;
REPSWITCH1/PICTURE_498.png;taza;speak;gold;filler;2;F;1;4;3;1;Stim4_Set4;0;None;104;103;2;0;103;103;103;;;;;;;;;;;;;;;;;;;;;;;540.5029258;541.5586873;541.5586873;541.5586873;541.5586873;541.5586873;541.5586873;541.5586873;541.5586873;None;0;;;C:\2023\REPSWITCH21092023\REPSWITCH_excgange\REPSWITCH_excgange\data/450103_REPSWITCH1_version1_list3_2024-01-23_17h26.29.086_micRespv1l3_recorded\recording_micRespv1l3_2024-01-23_17h35.06.125.wav;544.5798346;545.0799907;None;544.5798346;544.5798346;544.5798346;544.5798346;544.5798346;544.5798346;;;;;;450103;1;2024-01-23_17h26.29.086;REPSWITCH1_version1_list3;2022.2.4;144.0517445;
REPSWITCH1/PICTURE_19.png;pavo;speak;gold;nontarget;2;NT;1;4;3;1;Stim5_Set1;1;repeat;105;104;3;0;104;104;104;;;;;;;;;;;;;;;;;;;;;;;545.0799907;546.2815217;546.2815217;546.2815217;546.2815217;546.2815217;546.2815217;546.2815217;546.2815217;None;0;;;C:\2023\REPSWITCH21092023\REPSWITCH_excgange\REPSWITCH_excgange\data/450103_REPSWITCH1_version1_list3_2024-01-23_17h26.29.086_micRespv1l3_recorded\recording_micRespv1l3_2024-01-23_17h35.10.848.wav;549.3096779;;None;549.3096779;549.3096779;549.3096779;549.3096779;549.3096779;549.3096779;;;;;;450103;1;2024-01-23_17h26.29.086;REPSWITCH1_version1_list3;2022.2.4;144.0517445;
REPSWITCH1/PICTURE_19.png;pavo;speak;gold;repeat;2;T;1;4;3;1;Stim5_Set1;0;None;106;105;4;0;105;105;105;;;;;;;;;;;;;;;;;;;;;;;549.8096807;551.0043413;551.0043413;551.0043413;551.0043413;551.0043413;551.0043413;551.0043413;551.0043413;None;0;;;C:\2023\REPSWITCH21092023\REPSWITCH_excgange\REPSWITCH_excgange\data/450103_REPSWITCH1_version1_list3_2024-01-23_17h26.29.086_micRespv1l3_recorded\recording_micRespv1l3_2024-01-23_17h35.15.571.wav;554.0324696;;None;554.0324696;554.0324696;554.0324696;554.0324696;554.0324696;554.0324696;;;;;;450103;1;2024-01-23_17h26.29.086;REPSWITCH1_version1_list3;2022.2.4;144.0517445;
REPSWITCH1/PICTURE_319.png;vaca;type;darkblue;filler;1;F;1;4;3;1;Stim1_Set4;1;repeat;107;106;5;0;106;106;106;;;;;;;;;;;;;;;;;;;;;;;554.5326181;555.6299048;555.6299048;555.6299048;555.6299048;555.6299048;555.6299048;555.6299048;555.6299048;['v', 'a', 'c', 'a'];0;[1.019573099911213, 1.0873432997614145, 1.2839770000427961, 1.3736443994566798];vaca;C:\2023\REPSWITCH21092023\REPSWITCH_excgange\REPSWITCH_excgange\data/450103_REPSWITCH1_version1_list3_2024-01-23_17h26.29.086_micRespv1l3_recorded\recording_micRespv1l3_2024-01-23_17h35.20.196.wav;558.6511478;559.1512147;None;558.6511478;558.6511478;558.6511478;558.6511478;558.6511478;558.6511478;;;;;;450103;1;2024-01-23_17h26.29.086;REPSWITCH1_version1_list3;2022.2.4;144.0517445;
REPSWITCH1/PICTURE_169.png;espalda;speak;gold;nontarget;2;NT;1;4;3;1;Stim8_Set1;1;switch;108;107;6;0;107;107;107;;;;;;;;;;;;;;;;;;;;;;;559.1512147;560.2833694;560.2833694;560.2833694;560.2833694;560.2833694;560.2833694;560.2833694;560.2833694;None;0;;;C:\2023\REPSWITCH21092023\REPSWITCH_excgange\REPSWITCH_excgange\data/450103_REPSWITCH1_version1_list3_2024-01-23_17h26.29.086_micRespv1l3_recorded\recording_micRespv1l3_2024-01-23_17h35.24.850.wav;563.3114793;;None;563.3114793;563.3114793;563.3114793;563.3114793;563.3114793;563.3114793;;;;;;450103;1;2024-01-23_17h26.29.086;REPSWITCH1_version1_list3;2022.2.4;144.0517445;
REPSWITCH1/PICTURE_169.png;espalda;speak;gold;repeat;2;T;1;4;3;1;Stim8_Set1;0;None;109;108;7;0;108;108;108;;;;;;;;;;;;;;;;;;;;;;;563.8116089;564.8603038;564.8603038;564.8603038;564.8603038;564.8603038;564.8603038;564.8603038;564.8603038;None;0;;;C:\2023\REPSWITCH21092023\REPSWITCH_excgange\REPSWITCH_excgange\data/450103_REPSWITCH1_version1_list3_2024-01-23_17h26.29.086_micRespv1l3_recorded\recording_micRespv1l3_2024-01-23_17h35.29.426.wav;567.8815287;568.3816518;None;567.8815287;567.8815287;567.8815287;567.8815287;567.8815287;567.8815287;;;;;;450103;1;2024-01-23_17h26.29.086;REPSWITCH1_version1_list3;2022.2.4;144.0517445;
REPSWITCH1/PICTURE_728.png;pulpo;type;darkblue;filler;1;F;1;4;3;1;Stim8_Set4;0;None;110;109;8;0;109;109;109;;;;;;;;;;;;;;;;;;;;;;;568.3816518;569.4442242;569.4442242;569.4442242;569.4442242;569.4442242;569.4442242;569.4442242;569.4442242;['p', 'u', 'l', 'p', 'o'];0;[0.730307100340724, 0.8346432996913791, 1.0685024997219443, 1.2698250003159046, 1.4126588003709912];pulpo;C:\2023\REPSWITCH21092023\REPSWITCH_excgange\REPSWITCH_excgange\data/450103_REPSWITCH1_version1_list3_2024-01-23_17h26.29.086_micRespv1l3_recorded\recording_micRespv1l3_2024-01-23_17h35.34.010.wav;572.4655162;572.96553;None;572.4655162;572.4655162;572.4655162;572.4655162;572.4655162;572.4655162;;;;;;450103;1;2024-01-23_17h26.29.086;REPSWITCH1_version1_list3;2022.2.4;144.0517445;
REPSWITCH1/PICTURE_142.png;vaso;speak;gold;nontarget;2;NT;1;4;3;1;Stim7_Set1;1;switch;111;110;9;0;110;110;110;;;;;;;;;;;;;;;;;;;;;;;572.96553;574.1254608;574.1254608;574.1254608;574.1254608;574.1254608;574.1254608;574.1254608;574.1254608;None;0;;;C:\2023\REPSWITCH21092023\REPSWITCH_excgange\REPSWITCH_excgange\data/450103_REPSWITCH1_version1_list3_2024-01-23_17h26.29.086_micRespv1l3_recorded\recording_micRespv1l3_2024-01-23_17h35.38.691.wav;577.1466128;577.6466739;None;577.1466128;577.1466128;577.1466128;577.1466128;577.1466128;577.1466128;;;;;;450103;1;2024-01-23_17h26.29.086;REPSWITCH1_version1_list3;2022.2.4;144.0517445;
REPSWITCH1/PICTURE_142.png;vaso;type;darkblue;switch;1;T;1;4;3;1;Stim7_Set1;0;None;112;111;10;0;111;111;111;;;;;;;;;;;;;;;;;;;;;;;577.6466739;578.7996132;578.7996132;578.7996132;578.7996132;578.7996132;578.7996132;578.7996132;578.7996132;['v', 'a', 's', 'o'];0;[0.8479867000132799, 0.9127784995362163, 1.10008529946208, 1.219666900113225];vaso;C:\2023\REPSWITCH21092023\REPSWITCH_excgange\REPSWITCH_excgange\data/450103_REPSWITCH1_version1_list3_2024-01-23_17h26.29.086_micRespv1l3_recorded\recording_micRespv1l3_2024-01-23_17h35.43.365.wav;581.8209372;582.320917;None;581.8209372;581.8209372;581.8209372;581.8209372;581.8209372;581.8209372;;;;;;450103;1;2024-01-23_17h26.29.086;REPSWITCH1_version1_list3;2022.2.4;144.0517445;
REPSWITCH1/PICTURE_338.png;regalo;type;darkblue;filler;1;F;1;4;3;1;Stim6_Set4;1;repeat;113;112;11;0;112;112;112;;;;;;;;;;;;;;;;;;;;;;;582.320917;583.3488513;583.3488513;583.3488513;583.3488513;583.3488513;583.3488513;583.3488513;583.3488513;['r', 'e', 'g', 'a', 'l', 'o'];0;[0.8172455998137593, 0.8889257991686463, 1.1044154996052384, 1.1900334991514683, 1.2697294997051358, 1.4494657991454005];regalo;C:\2023\REPSWITCH21092023\REPSWITCH_excgange\REPSWITCH_excgange\data/450103_REPSWITCH1_version1_list3_2024-01-23_17h26.29.086_micRespv1l3_recorded\recording_micRespv1l3_2024-01-23_17h35.47.916.wav;586.3770841;586.8770547;None;586.3770841;586.3770841;586.3770841;586.3770841;586.3770841;586.3770841;;;;;;450103;1;2024-01-23_17h26.29.086;REPSWITCH1_version1_list3;2022.2.4;144.0517445;
REPSWITCH1/PICTURE_135.png;traje;type;darkblue;nontarget;1;NT;1;4;3;1;Stim3_Set1;1;repeat;114;113;12;0;113;113;113;;;;;;;;;;;;;;;;;;;;;;;586.8770547;587.9188822;587.9188822;587.9188822;587.9188822;587.9188822;587.9188822;587.9188822;587.9188822;['t', 'r', 'a', 'j', 'e'];0;[0.8388338992372155, 0.8915745997801423, 0.9748257994651794, 1.0914992997422814, 1.1900976998731494];traje;C:\2023\REPSWITCH21092023\REPSWITCH_excgange\REPSWITCH_excgange\data/450103_REPSWITCH1_version1_list3_2024-01-23_17h26.29.086_micRespv1l3_recorded\recording_micRespv1l3_2024-01-23_17h35.52.486.wav;590.9470859;;None;590.9470859;590.9470859;590.9470859;590.9470859;590.9470859;590.9470859;;;;;;450103;1;2024-01-23_17h26.29.086;REPSWITCH1_version1_list3;2022.2.4;144.0517445;
REPSWITCH1/PICTURE_135.png;traje;speak;gold;switch;2;T;1;4;3;1;Stim3_Set1;0;None;115;114;13;0;114;114;114;;;;;;;;;;;;;;;;;;;;;;;591.4471902;592.5376122;592.5376122;592.5376122;592.5376122;592.5376122;592.5376122;592.5376122;592.5376122;None;0;;;C:\2023\REPSWITCH21092023\REPSWITCH_excgange\REPSWITCH_excgange\data/450103_REPSWITCH1_version1_list3_2024-01-23_17h26.29.086_micRespv1l3_recorded\recording_micRespv1l3_2024-01-23_17h35.57.104.wav;595.5587515;596.0589122;None;595.5587515;595.5587515;595.5587515;595.5587515;595.5587515;595.5587515;;;;;;450103;1;2024-01-23_17h26.29.086;REPSWITCH1_version1_list3;2022.2.4;144.0517445;
REPSWITCH1/PICTURE_381.png;fresa;speak;gold;nontarget;2;NT;1;4;3;1;Stim2_Set1;1;repeat;116;115;14;0;115;115;115;;;;;;;;;;;;;;;;;;;;;;;596.0589122;597.1353762;597.1353762;597.1353762;597.1353762;597.1353762;597.1353762;597.1353762;597.1353762;None;0;;;C:\2023\REPSWITCH21092023\REPSWITCH_excgange\REPSWITCH_excgange\data/450103_REPSWITCH1_version1_list3_2024-01-23_17h26.29.086_micRespv1l3_recorded\recording_micRespv1l3_2024-01-23_17h36.01.702.wav;600.1566031;600.656646;None;600.1566031;600.1566031;600.1566031;600.1566031;600.1566031;600.1566031;;;;;;450103;1;2024-01-23_17h26.29.086;REPSWITCH1_version1_list3;2022.2.4;144.0517445;
REPSWITCH1/PICTURE_381.png;fresa;type;darkblue;switch;1;T;1;4;3;1;Stim2_Set1;0;None;117;116;15;0;116;116;116;;;;;;;;;;;;;;;;;;;;;;;600.656646;601.7124229;601.7124229;601.7124229;601.7124229;601.7124229;601.7124229;601.7124229;601.7124229;['f', 'r', 'e', 's', 'a'];0;[0.7743780994787812, 1.1554336994886398, 1.2242006994783878, 1.586192799732089, 1.6858252994716167];fresa;C:\2023\REPSWITCH21092023\REPSWITCH_excgange\REPSWITCH_excgange\data/450103_REPSWITCH1_version1_list3_2024-01-23_17h26.29.086_micRespv1l3_recorded\recording_micRespv1l3_2024-01-23_17h36.06.279.wav;604.7336299;605.2336324;None;604.7336299;604.7336299;604.7336299;604.7336299;604.7336299;604.7336299;;;;;;450103;1;2024-01-23_17h26.29.086;REPSWITCH1_version1_list3;2022.2.4;144.0517445;
REPSWITCH1/PICTURE_48.png;bombero;type;darkblue;filler;1;F;1;4;3;1;Stim7_Set4;0;None;118;117;16;0;117;117;117;;;;;;;;;;;;;;;;;;;;;;;605.2336324;606.3241433;606.3241433;606.3241433;606.3241433;606.3241433;606.3241433;606.3241433;606.3241433;['b', 'o', 'm', 'b', 'e', 'r', 'o'];0;[0.9032406993210316, 0.9839936001226306, 1.1208432000130415, 1.2274540001526475, 1.4846393000334501, 1.5454163998365402, 1.6551332995295525];bombero;C:\2023\REPSWITCH21092023\REPSWITCH_excgange\REPSWITCH_excgange\data/450103_REPSWITCH1_version1_list3_2024-01-23_17h26.29.086_micRespv1l3_recorded\recording_micRespv1l3_2024-01-23_17h36.10.890.wav;609.3453707;609.8453807;None;609.3453707;609.3453707;609.3453707;609.3453707;609.3453707;609.3453707;;;;;;450103;1;2024-01-23_17h26.29.086;REPSWITCH1_version1_list3;2022.2.4;144.0517445;
REPSWITCH1/PICTURE_687.png;camisa;speak;gold;filler;2;F;1;4;3;1;Stim5_Set4;0;None;119;118;17;0;118;118;118;;;;;;;;;;;;;;;;;;;;;;;609.8453807;610.9080681;610.9080681;610.9080681;610.9080681;610.9080681;610.9080681;610.9080681;610.9080681;None;0;;;C:\2023\REPSWITCH21092023\REPSWITCH_excgange\REPSWITCH_excgange\data/450103_REPSWITCH1_version1_list3_2024-01-23_17h26.29.086_micRespv1l3_recorded\recording_micRespv1l3_2024-01-23_17h36.15.474.wav;613.9292082;614.4292985;None;613.9292082;613.9292082;613.9292082;613.9292082;613.9292082;613.9292082;;;;;;450103;1;2024-01-23_17h26.29.086;REPSWITCH1_version1_list3;2022.2.4;144.0517445;
REPSWITCH1/PICTURE_128.png;muñeca;type;darkblue;nontarget;1;NT;1;4;3;1;Stim4_Set1;0;None;120;119;18;0;119;119;119;;;;;;;;;;;;;;;;;;;;;;;614.4292985;615.5406561;615.5406561;615.5406561;615.5406561;615.5406561;615.5406561;615.5406561;615.5406561;['m', 'u', 'ñ', 'e', 'c', 'a'];0;[0.9317070990800858, 1.1210549995303154, 1.3196613993495703, 1.426333099603653, 1.7343210997059941, 1.8239746997132897];muñeca;C:\2023\REPSWITCH21092023\REPSWITCH_excgange\REPSWITCH_excgange\data/450103_REPSWITCH1_version1_list3_2024-01-23_17h26.29.086_micRespv1l3_recorded\recording_micRespv1l3_2024-01-23_17h36.20.106.wav;618.5617757;619.0618625;None;618.5617757;618.5617757;618.5617757;618.5617757;618.5617757;618.5617757;;;;;;450103;1;2024-01-23_17h26.29.086;REPSWITCH1_version1_list3;2022.2.4;144.0517445;
REPSWITCH1/PICTURE_128.png;muñeca;type;darkblue;repeat;1;T;1;4;3;1;Stim4_Set1;0;None;121;120;19;0;120;120;120;;;;;;;;;;;;;;;;;;;;;;;619.0618625;620.1592839;620.1592839;620.1592839;620.1592839;620.1592839;620.1592839;620.1592839;620.1592839;['m', 'u', 'ñ', 'e', 'c', 'a'];0;[0.7934518996626139, 1.0107559999451041, 1.1931423991918564, 1.2888218993321061, 1.5280875992029905, 1.6277565993368626];muñeca;C:\2023\REPSWITCH21092023\REPSWITCH_excgange\REPSWITCH_excgange\data/450103_REPSWITCH1_version1_list3_2024-01-23_17h26.29.086_micRespv1l3_recorded\recording_micRespv1l3_2024-01-23_17h36.24.725.wav;623.1805117;623.6805333;None;623.1805117;623.1805117;623.1805117;623.1805117;623.1805117;623.1805117;;;;;;450103;1;2024-01-23_17h26.29.086;REPSWITCH1_version1_list3;2022.2.4;144.0517445;
REPSWITCH1/PICTURE_719.png;baño;speak;gold;filler;2;F;1;4;3;1;Stim2_Set4;1;switch;122;121;20;0;121;121;121;;;;;;;;;;;;;;;;;;;;;;;623.6805333;624.7014673;624.7014673;624.7014673;624.7014673;624.7014673;624.7014673;624.7014673;624.7014673;None;0;;;C:\2023\REPSWITCH21092023\REPSWITCH_excgange\REPSWITCH_excgange\data/450103_REPSWITCH1_version1_list3_2024-01-23_17h26.29.086_micRespv1l3_recorded\recording_micRespv1l3_2024-01-23_17h36.29.268.wav;627.7296303;;None;627.7296303;627.7296303;627.7296303;627.7296303;627.7296303;627.7296303;;;;;;450103;1;2024-01-23_17h26.29.086;REPSWITCH1_version1_list3;2022.2.4;144.0517445;
REPSWITCH1/PICTURE_178.png;puente;type;darkblue;nontarget;1;NT;1;4;3;1;Stim1_Set1;1;switch;123;122;21;0;122;122;122;;;;;;;;;;;;;;;;;;;;;;;628.2297138;629.3479307;629.3479307;629.3479307;629.3479307;629.3479307;629.3479307;629.3479307;629.3479307;['p', 'u', 'e', 'n', 't', 'e'];0;[0.7887599989771843, 0.8874149993062019, 1.0027414998039603, 1.121651099063456, 1.1843881998211145, 1.2471234994009137];puente;C:\2023\REPSWITCH21092023\REPSWITCH_excgange\REPSWITCH_excgange\data/450103_REPSWITCH1_version1_list3_2024-01-23_17h26.29.086_micRespv1l3_recorded\recording_micRespv1l3_2024-01-23_17h36.33.914.wav;632.3691709;632.8692211;None;632.3691709;632.3691709;632.3691709;632.3691709;632.3691709;632.3691709;;;;;;450103;1;2024-01-23_17h26.29.086;REPSWITCH1_version1_list3;2022.2.4;144.0517445;
REPSWITCH1/PICTURE_178.png;puente;type;darkblue;repeat;1;T;1;4;3;1;Stim1_Set1;0;None;124;123;22;0;123;123;123;;;;;;;;;;;;;;;;;;;;;;;632.8692211;633.9388408;633.9388408;633.9388408;633.9388408;633.9388408;633.9388408;633.9388408;633.9388408;['p', 'u', 'e', 'n', 't', 'e'];0;[0.5680063990876079, 0.6566931996494532, 0.7523710997775197, 0.8796364990994334, 0.9600024996325374, 1.0337164998054504];puente;C:\2023\REPSWITCH21092023\REPSWITCH_excgange\REPSWITCH_excgange\data/450103_REPSWITCH1_version1_list3_2024-01-23_17h26.29.086_micRespv1l3_recorded\recording_micRespv1l3_2024-01-23_17h36.38.505.wav;636.9670257;;None;636.9670257;636.9670257;636.9670257;636.9670257;636.9670257;636.9670257;;;;;;450103;1;2024-01-23_17h26.29.086;REPSWITCH1_version1_list3;2022.2.4;144.0517445;
REPSWITCH1/PICTURE_16.png;cazador;type;darkblue;nontarget;1;NT;1;4;3;1;Stim6_Set1;1;repeat;125;124;23;0;124;124;124;;;;;;;;;;;;;;;;;;;;;;;637.4671317;638.5783005;638.5783005;638.5783005;638.5783005;638.5783005;638.5783005;638.5783005;638.5783005;['c', 'a', 'z', 'a', 'd', 'o', 'r'];0;[1.288883900269866, 1.3486791998147964, 1.6526742996647954, 1.8589738998562098, 2.0167469000443816, 2.1011597998440266, 2.1710195997729897];cazador;C:\2023\REPSWITCH21092023\REPSWITCH_excgange\REPSWITCH_excgange\data/450103_REPSWITCH1_version1_list3_2024-01-23_17h26.29.086_micRespv1l3_recorded\recording_micRespv1l3_2024-01-23_17h36.43.144.wav;641.5995176;642.0995889;None;641.5995176;641.5995176;641.5995176;641.5995176;641.5995176;641.5995176;;;;;;450103;1;2024-01-23_17h26.29.086;REPSWITCH1_version1_list3;2022.2.4;144.0517445;
REPSWITCH1/PICTURE_16.png;cazador;speak;gold;switch;2;T;1;4;3;1;Stim6_Set1;0;None;126;125;24;0;125;125;125;;;;;;;;;;;;;;;;;;;;;;;642.0995889;643.2456352;643.2456352;643.2456352;643.2456352;643.2456352;643.2456352;643.2456352;643.2456352;None;0;;;C:\2023\REPSWITCH21092023\REPSWITCH_excgange\REPSWITCH_excgange\data/450103_REPSWITCH1_version1_list3_2024-01-23_17h26.29.086_micRespv1l3_recorded\recording_micRespv1l3_2024-01-23_17h36.47.812.wav;646.2668096;646.7669035;None;646.2668096;646.2668096;646.2668096;646.2668096;646.2668096;646.2668096;;;;;;450103;1;2024-01-23_17h26.29.086;REPSWITCH1_version1_list3;2022.2.4;144.0517445;
REPSWITCH1/PICTURE_19.png;pavo;type;darkblue;filler;1;F;2;4;3;1;Stim5_Set1;0;None;127;126;25;0;126;126;126;;;;;;;;;;;;;;;;;;;;;;;646.7669035;647.8711939;647.8711939;647.8711939;647.8711939;647.8711939;647.8711939;647.8711939;647.8711939;['p', 'a', 'v', 'o'];0;[0.8025715993717313, 0.8683653995394707, 1.086357600055635, 1.148144799284637];pavo;C:\2023\REPSWITCH21092023\REPSWITCH_excgange\REPSWITCH_excgange\data/450103_REPSWITCH1_version1_list3_2024-01-23_17h26.29.086_micRespv1l3_recorded\recording_micRespv1l3_2024-01-23_17h36.52.438.wav;650.899387;;None;650.899387;650.899387;650.899387;650.899387;650.899387;650.899387;;;;;;450103;1;2024-01-23_17h26.29.086;REPSWITCH1_version1_list3;2022.2.4;144.0517445;
REPSWITCH1/PICTURE_199.png;falda;type;darkblue;nontarget;1;NT;2;4;3;1;Stim8_Set2;1;repeat;128;127;26;0;127;127;127;;;;;;;;;;;;;;;;;;;;;;;651.3995178;652.4551221;652.4551221;652.4551221;652.4551221;652.4551221;652.4551221;652.4551221;652.4551221;['f', 'a', 'l', 'd', 'a'];0;[0.9618519004434347, 1.0276197995990515, 1.1525104995816946, 1.2322760000824928, 1.29811429977417];falda;C:\2023\REPSWITCH21092023\REPSWITCH_excgange\REPSWITCH_excgange\data/450103_REPSWITCH1_version1_list3_2024-01-23_17h26.29.086_micRespv1l3_recorded\recording_micRespv1l3_2024-01-23_17h36.57.022.wav;655.4833268;;None;655.4833268;655.4833268;655.4833268;655.4833268;655.4833268;655.4833268;;;;;;450103;1;2024-01-23_17h26.29.086;REPSWITCH1_version1_list3;2022.2.4;144.0517445;
REPSWITCH1/PICTURE_199.png;falda;type;darkblue;repeat;1;T;2;4;3;1;Stim8_Set2;0;None;129;128;27;0;128;128;128;;;;;;;;;;;;;;;;;;;;;;;655.9833705;657.0251691;657.0251691;657.0251691;657.0251691;657.0251691;657.0251691;657.0251691;657.0251691;['f', 'a', 'l', 'd', 'a'];0;[0.623488700017333, 0.7191476002335548, 0.8287813998758793, 0.9663220997899771, 1.0382273001596332];falda;C:\2023\REPSWITCH21092023\REPSWITCH_excgange\REPSWITCH_excgange\data/450103_REPSWITCH1_version1_list3_2024-01-23_17h26.29.086_micRespv1l3_recorded\recording_micRespv1l3_2024-01-23_17h37.01.592.wav;660.0533671;;None;660.0533671;660.0533671;660.0533671;660.0533671;660.0533671;660.0533671;;;;;;450103;1;2024-01-23_17h26.29.086;REPSWITCH1_version1_list3;2022.2.4;144.0517445;
REPSWITCH1/PICTURE_178.png;puente;speak;gold;filler;2;F;2;4;3;1;Stim1_Set1;1;switch;130;129;28;0;129;129;129;;;;;;;;;;;;;;;;;;;;;;;660.5534311;661.5813583;661.5813583;661.5813583;661.5813583;661.5813583;661.5813583;661.5813583;661.5813583;None;0;;;C:\2023\REPSWITCH21092023\REPSWITCH_excgange\REPSWITCH_excgange\data/450103_REPSWITCH1_version1_list3_2024-01-23_17h26.29.086_micRespv1l3_recorded\recording_micRespv1l3_2024-01-23_17h37.06.148.wav;664.6025637;665.1026138;None;664.6025637;664.6025637;664.6025637;664.6025637;664.6025637;664.6025637;;;;;;450103;1;2024-01-23_17h26.29.086;REPSWITCH1_version1_list3;2022.2.4;144.0517445;
REPSWITCH1/PICTURE_517.png;cuerda;type;darkblue;nontarget;1;NT;2;4;3;1;Stim4_Set2;1;switch;131;130;29;0;130;130;130;;;;;;;;;;;;;;;;;;;;;;;665.1026138;666.1583475;666.1583475;666.1583475;666.1583475;666.1583475;666.1583475;666.1583475;666.1583475;['c', 'u', 'e', 'r', 'd', 'a'];0;[1.1839180998504162, 1.315468399785459, 1.4231204995885491, 1.4917617002502084, 1.6641557002440095, 1.746909899637103];cuerda;C:\2023\REPSWITCH21092023\REPSWITCH_excgange\REPSWITCH_excgange\data/450103_REPSWITCH1_version1_list3_2024-01-23_17h26.29.086_micRespv1l3_recorded\recording_micRespv1l3_2024-01-23_17h37.10.724.wav;669.1795401;669.6796077;None;669.1795401;669.1795401;669.1795401;669.1795401;669.1795401;669.1795401;;;;;;450103;1;2024-01-23_17h26.29.086;REPSWITCH1_version1_list3;2022.2.4;144.0517445;
REPSWITCH1/PICTURE_517.png;cuerda;type;darkblue;repeat;1;T;2;4;3;1;Stim4_Set2;0;None;132;131;30;0;131;131;131;;;;;;;;;;;;;;;;;;;;;;;669.6796077;670.777061;670.777061;670.777061;670.777061;670.777061;670.777061;670.777061;670.777061;['c', 'u', 'e', 'r', 'd', 'a'];0;[0.5594998998567462, 0.6346439002081752, 0.8080596998333931, 0.8708557998761535, 1.1070670001208782, 1.1897823996841908];cuerda;C:\2023\REPSWITCH21092023\REPSWITCH_excgange\REPSWITCH_excgange\data/450103_REPSWITCH1_version1_list3_2024-01-23_17h26.29.086_micRespv1l3_recorded\recording_micRespv1l3_2024-01-23_17h37.15.344.wav;673.8051706;;None;673.8051706;673.8051706;673.8051706;673.8051706;673.8051706;673.8051706;;;;;;450103;1;2024-01-23_17h26.29.086;REPSWITCH1_version1_list3;2022.2.4;144.0517445;
REPSWITCH1/PICTURE_169.png;espalda;type;darkblue;filler;1;F;2;4;3;1;Stim8_Set1;0;None;133;132;31;0;132;132;132;;;;;;;;;;;;;;;;;;;;;;;674.3052252;675.4790339;675.4790339;675.4790339;675.4790339;675.4790339;675.4790339;675.4790339;675.4790339;['e', 's', 'p', 'a', 'l', 'd', 'a'];0;[0.7505683992058039, 0.8193540992215276, 0.9608902996405959, 1.0785435996949673, 1.2182941995561123, 1.321930999867618, 1.4061842998489738];espalda;C:\2023\REPSWITCH21092023\REPSWITCH_excgange\REPSWITCH_excgange\data/450103_REPSWITCH1_version1_list3_2024-01-23_17h26.29.086_micRespv1l3_recorded\recording_micRespv1l3_2024-01-23_17h37.20.045.wav;678.5002478;679.0003034;None;678.5002478;678.5002478;678.5002478;678.5002478;678.5002478;678.5002478;;;;;;450103;1;2024-01-23_17h26.29.086;REPSWITCH1_version1_list3;2022.2.4;144.0517445;
REPSWITCH1/PICTURE_673.png;tenedor;speak;gold;filler;2;F;2;4;3;1;Extra5;0;None;134;133;32;0;133;133;133;;;;;;;;;;;;;;;;;;;;;;;679.0003034;680.0907808;680.0907808;680.0907808;680.0907808;680.0907808;680.0907808;680.0907808;680.0907808;None;0;;;C:\2023\REPSWITCH21092023\REPSWITCH_excgange\REPSWITCH_excgange\data/450103_REPSWITCH1_version1_list3_2024-01-23_17h26.29.086_micRespv1l3_recorded\recording_micRespv1l3_2024-01-23_17h37.24.657.wav;683.1188915;;None;683.1188915;683.1188915;683.1188915;683.1188915;683.1188915;683.1188915;;;;;;450103;1;2024-01-23_17h26.29.086;REPSWITCH1_version1_list3;2022.2.4;144.0517445;
REPSWITCH1/PICTURE_142.png;vaso;type;darkblue;filler;1;F;2;4;3;1;Stim7_Set1;1;switch;135;134;33;0;134;134;134;;;;;;;;;;;;;;;;;;;;;;;683.6189636;684.7302331;684.7302331;684.7302331;684.7302331;684.7302331;684.7302331;684.7302331;684.7302331;['v', 'a', 's', 'o'];0;[0.9340998996049166, 1.0138370990753174, 1.1752891996875405, 1.2620033994317055];vaso;C:\2023\REPSWITCH21092023\REPSWITCH_excgange\REPSWITCH_excgange\data/450103_REPSWITCH1_version1_list3_2024-01-23_17h26.29.086_micRespv1l3_recorded\recording_micRespv1l3_2024-01-23_17h37.29.297.wav;687.751428;688.2515809;None;687.751428;687.751428;687.751428;687.751428;687.751428;687.751428;;;;;;450103;1;2024-01-23_17h26.29.086;REPSWITCH1_version1_list3;2022.2.4;144.0517445;
REPSWITCH1/PICTURE_552.png;manzana;type;darkblue;nontarget;1;NT;2;4;3;1;Stim6_Set2;1;repeat;136;135;34;0;135;135;135;;;;;;;;;;;;;;;;;;;;;;;688.2515809;689.418322;689.418322;689.418322;689.418322;689.418322;689.418322;689.418322;689.418322;['m', 'a', 'n', 'z', 'a', 'n', 'a'];0;[0.7456598002463579, 0.8357838997617364, 0.9883345002308488, 1.1168446000665426, 1.3191629005596042, 1.4387626005336642, 1.7138363998383284];manzana;C:\2023\REPSWITCH21092023\REPSWITCH_excgange\REPSWITCH_excgange\data/450103_REPSWITCH1_version1_list3_2024-01-23_17h26.29.086_micRespv1l3_recorded\recording_micRespv1l3_2024-01-23_17h37.33.986.wav;692.4465755;;None;692.4465755;692.4465755;692.4465755;692.4465755;692.4465755;692.4465755;;;;;;450103;1;2024-01-23_17h26.29.086;REPSWITCH1_version1_list3;2022.2.4;144.0517445;
REPSWITCH1/PICTURE_552.png;manzana;speak;gold;switch;1;T;2;4;3;1;Stim6_Set2;0;None;137;136;35;0;136;136;136;;;;;;;;;;;;;;;;;;;;;;;692.9465361;694.0717085;694.0717085;694.0717085;694.0717085;694.0717085;694.0717085;694.0717085;694.0717085;None;0;;;C:\2023\REPSWITCH21092023\REPSWITCH_excgange\REPSWITCH_excgange\data/450103_REPSWITCH1_version1_list3_2024-01-23_17h26.29.086_micRespv1l3_recorded\recording_micRespv1l3_2024-01-23_17h37.38.639.wav;697.0998909;;None;697.0998909;697.0998909;697.0998909;697.0998909;697.0998909;697.0998909;;;;;;450103;1;2024-01-23_17h26.29.086;REPSWITCH1_version1_list3;2022.2.4;144.0517445;
REPSWITCH1/PICTURE_135.png;traje;speak;gold;filler;2;F;2;4;3;1;Stim3_Set1;0;None;138;137;36;0;137;137;137;;;;;;;;;;;;;;;;;;;;;;;697.5999656;698.7251253;698.7251253;698.7251253;698.7251253;698.7251253;698.7251253;698.7251253;698.7251253;None;0;;;C:\2023\REPSWITCH21092023\REPSWITCH_excgange\REPSWITCH_excgange\data/450103_REPSWITCH1_version1_list3_2024-01-23_17h26.29.086_micRespv1l3_recorded\recording_micRespv1l3_2024-01-23_17h37.43.290.wav;701.7463764;702.2464093;None;701.7463764;701.7463764;701.7463764;701.7463764;701.7463764;701.7463764;;;;;;450103;1;2024-01-23_17h26.29.086;REPSWITCH1_version1_list3;2022.2.4;144.0517445;
REPSWITCH1/PICTURE_152.png;caracol;speak;gold;nontarget;2;NT;2;4;3;1;Stim2_Set2;1;repeat;139;138;37;0;138;138;138;;;;;;;;;;;;;;;;;;;;;;;702.2464093;703.3438315;703.3438315;703.3438315;703.3438315;703.3438315;703.3438315;703.3438315;703.3438315;None;0;;;C:\2023\REPSWITCH21092023\REPSWITCH_excgange\REPSWITCH_excgange\data/450103_REPSWITCH1_version1_list3_2024-01-23_17h26.29.086_micRespv1l3_recorded\recording_micRespv1l3_2024-01-23_17h37.47.910.wav;706.3649815;706.8651196;None;706.3649815;706.3649815;706.3649815;706.3649815;706.3649815;706.3649815;;;;;;450103;1;2024-01-23_17h26.29.086;REPSWITCH1_version1_list3;2022.2.4;144.0517445;
REPSWITCH1/PICTURE_152.png;caracol;type;darkblue;switch;1;T;2;4;3;1;Stim2_Set2;0;None;140;139;38;0;139;139;139;;;;;;;;;;;;;;;;;;;;;;;706.8651196;707.9555209;707.9555209;707.9555209;707.9555209;707.9555209;707.9555209;707.9555209;707.9555209;['c', 'a', 'r', 'a', 'c', 'o', 'l'];0;[0.8258250001817942, 0.8982648001983762, 1.1377787003293633, 1.192598800174892, 1.4406232004985213, 1.5067461002618074, 1.7069562999531627];caracol;C:\2023\REPSWITCH21092023\REPSWITCH_excgange\REPSWITCH_excgange\data/450103_REPSWITCH1_version1_list3_2024-01-23_17h26.29.086_micRespv1l3_recorded\recording_micRespv1l3_2024-01-23_17h37.52.521.wav;710.9836325;;None;710.9836325;710.9836325;710.9836325;710.9836325;710.9836325;710.9836325;;;;;;450103;1;2024-01-23_17h26.29.086;REPSWITCH1_version1_list3;2022.2.4;144.0517445;
