image;correctAns;respModal;frameColor;repSwitch;sequence;target;set;block;list;exp_version;stimulus;baseline;baseline_condition;trial_no;psychopy_trial;Column1;trialsREPSWITCH.thisRepN;trialsREPSWITCH.thisTrialN;trialsREPSWITCH.thisN;trialsREPSWITCH.thisIndex;textWelcome.started;textboxInstrMain1.started;textboxInstrMain1_2.started;textboxInstrMain1_3.started;keyInstrMain.started;keyInstrMain.keys;keyInstrMain.rt;textboxInstrMain2.started;textboxInstrMain2_2.started;textboxInstrMain2_3.started;textboxInstrMain2_4.started;textboxInstrMain2_5.started;textboxInstrMain2_6.started;textboxInstrMain2_7.started;textboxInstrMain2_8.started;textboxInstrMain2_9.started;textboxInstrMain2_10.started;textboxInstrMain2_11.started;textboxInstrMain2_12.started;keyInstrMain2.started;keyInstrMain2.keys;keyInstrMain2.rt;fixationITI.started;fixationITI.stopped;polygonColour.started;polygonWhite.started;imageObject.started;polygonType.started;textInput.started;keyResp.started;micRespv2l3.started;keyResp.keys;keyResp.corr;keyResp.rt;subjResponse;micRespv2l3.clip;textBlankLoop.started;textBlankLoop.stopped;keyPause.keys;polygonColour.stopped;polygonWhite.stopped;imageObject.stopped;polygonType.stopped;textInput.stopped;keyResp.stopped;textboxPause.started;keyPause.started;keyPause.rt;textboxGoodbye.started;textboxGoodbye.stopped;participant;session;date;expName;psychopyVersion;frameRate;Column2
;;;;;;;;;;;;;;;;;;;;;10.2569732;12.7549349;12.7549349;12.7549349;12.7549349;space;5.034193301;;;;;;;;;;;;;;;;;;;;;;;;;;;;;;;;;;;;;;;;;;;;460203;1;2024-01-24_16h38.36.496;REPSWITCH1_version2_list3;2022.2.4;144.0158538;
;;;;;;;;;;;;;;;;;;;;;;;;;;;;17.8042055;17.8042055;17.8042055;17.8042055;17.8042055;17.8042055;17.8042055;17.8042055;17.8042055;17.8042055;17.8042055;17.8042055;17.8042055;space;0.7304498;;;;;;;;;;;;;;;;;;;;;;;;;;;;;460203;1;2024-01-24_16h38.36.496;REPSWITCH1_version2_list3;2022.2.4;144.0158538;
REPSWITCH1/PICTURE_663.png;columna;type;gold;filler;1;F;1;2;3;2;Extra6;0;None;1;0;1;0;0;0;0;;;;;;;;;;;;;;;;;;;;;;;18.6377143;19.7281099;19.7281099;19.7281099;19.7281099;19.7281099;19.7281099;19.7281099;19.7281099;['c', 'o'];0;[2.1249543000012636, 2.4562029000371695];co;C:\2023\REPSWITCH21092023\REPSWITCH_excgange\REPSWITCH_excgange\data/460203_REPSWITCH1_version2_list3_2024-01-24_16h38.36.496_micRespv2l3_recorded\recording_micRespv2l3_2024-01-24_16h38.50.839.wav;22.7492819;23.2493789;None;;;;;;;;;;;;460203;1;2024-01-24_16h38.36.496;REPSWITCH1_version2_list3;2022.2.4;144.0158538;
REPSWITCH1/PICTURE_128.png;muñeca;speak;darkblue;nontarget;2;NT;1;2;3;2;Stim4_Set1;1;switch;2;1;2;0;1;1;1;;;;;;;;;;;;;;;;;;;;;;;23.2493789;24.4509574;24.4509574;24.4509574;24.4509574;24.4509574;24.4509574;24.4509574;24.4509574;None;0;;;C:\2023\REPSWITCH21092023\REPSWITCH_excgange\REPSWITCH_excgange\data/460203_REPSWITCH1_version2_list3_2024-01-24_16h38.36.496_micRespv2l3_recorded\recording_micRespv2l3_2024-01-24_16h38.55.565.wav;27.479065;;None;27.479065;27.479065;27.479065;27.479065;27.479065;27.479065;;;;;;460203;1;2024-01-24_16h38.36.496;REPSWITCH1_version2_list3;2022.2.4;144.0158538;
REPSWITCH1/PICTURE_128.png;muñeca;speak;darkblue;repeat;2;T;1;2;3;2;Stim4_Set1;0;None;3;2;3;0;2;2;2;;;;;;;;;;;;;;;;;;;;;;;27.9791668;29.0349163;29.0349163;29.0349163;29.0349163;29.0349163;29.0349163;29.0349163;29.0349163;None;0;;;C:\2023\REPSWITCH21092023\REPSWITCH_excgange\REPSWITCH_excgange\data/460203_REPSWITCH1_version2_list3_2024-01-24_16h38.36.496_micRespv2l3_recorded\recording_micRespv2l3_2024-01-24_16h39.00.150.wav;32.0630309;32.5630997;None;32.0630309;32.0630309;32.0630309;32.0630309;32.0630309;32.0630309;;;;;;460203;1;2024-01-24_16h38.36.496;REPSWITCH1_version2_list3;2022.2.4;144.0158538;
REPSWITCH1/PICTURE_8.png;pierna;type;gold;filler;1;F;1;2;3;2;Stim3_Set4;0;None;4;3;4;0;3;3;3;;;;;;;;;;;;;;;;;;;;;;;32.5630997;33.6535235;33.6535235;33.6535235;33.6535235;33.6535235;33.6535235;33.6535235;33.6535235;['p', 'i', 'e', 'r'];0;[1.2637969003990293, 2.2940194001421332, 2.4614645997062325, 2.608949400484562];pier;C:\2023\REPSWITCH21092023\REPSWITCH_excgange\REPSWITCH_excgange\data/460203_REPSWITCH1_version2_list3_2024-01-24_16h38.36.496_micRespv2l3_recorded\recording_micRespv2l3_2024-01-24_16h39.04.768.wav;36.6747518;37.1748044;None;36.6747518;36.6747518;36.6747518;36.6747518;36.6747518;36.6747518;;;;;;460203;1;2024-01-24_16h38.36.496;REPSWITCH1_version2_list3;2022.2.4;144.0158538;
REPSWITCH1/PICTURE_135.png;traje;speak;darkblue;nontarget;2;NT;1;2;3;2;Stim3_Set1;1;switch;5;4;5;0;4;4;4;;;;;;;;;;;;;;;;;;;;;;;37.1748044;38.2027177;38.2027177;38.2027177;38.2027177;38.2027177;38.2027177;38.2027177;38.2027177;None;0;;;C:\2023\REPSWITCH21092023\REPSWITCH_excgange\REPSWITCH_excgange\data/460203_REPSWITCH1_version2_list3_2024-01-24_16h38.36.496_micRespv2l3_recorded\recording_micRespv2l3_2024-01-24_16h39.09.318.wav;41.2239677;41.7240225;None;41.2239677;41.2239677;41.2239677;41.2239677;41.2239677;41.2239677;;;;;;460203;1;2024-01-24_16h38.36.496;REPSWITCH1_version2_list3;2022.2.4;144.0158538;
REPSWITCH1/PICTURE_135.png;traje;speak;darkblue;repeat;2;T;1;2;3;2;Stim3_Set1;0;None;6;5;6;0;5;5;5;;;;;;;;;;;;;;;;;;;;;;;41.7240225;42.8144954;42.8144954;42.8144954;42.8144954;42.8144954;42.8144954;42.8144954;42.8144954;None;0;;;C:\2023\REPSWITCH21092023\REPSWITCH_excgange\REPSWITCH_excgange\data/460203_REPSWITCH1_version2_list3_2024-01-24_16h38.36.496_micRespv2l3_recorded\recording_micRespv2l3_2024-01-24_16h39.13.930.wav;45.8425967;;None;45.8425967;45.8425967;45.8425967;45.8425967;45.8425967;45.8425967;;;;;;460203;1;2024-01-24_16h38.36.496;REPSWITCH1_version2_list3;2022.2.4;144.0158538;
REPSWITCH1/PICTURE_673.png;tenedor;type;gold;filler;1;F;1;2;3;2;Extra5;0;None;7;6;7;0;6;6;6;;;;;;;;;;;;;;;;;;;;;;;46.3426705;47.4191988;47.4191988;47.4191988;47.4191988;47.4191988;47.4191988;47.4191988;47.4191988;['t', 'e', 'n', 'e', 'd', 'o', 'r'];0;[1.0170782003551722, 1.249223600141704, 1.3668298004195094, 1.4710980001837015, 1.6825769003480673, 1.758624100126326, 1.8845589002594352];tenedor;C:\2023\REPSWITCH21092023\REPSWITCH_excgange\REPSWITCH_excgange\data/460203_REPSWITCH1_version2_list3_2024-01-24_16h38.36.496_micRespv2l3_recorded\recording_micRespv2l3_2024-01-24_16h39.18.534.wav;50.4404461;50.9405532;None;50.4404461;50.4404461;50.4404461;50.4404461;50.4404461;50.4404461;;;;;;460203;1;2024-01-24_16h38.36.496;REPSWITCH1_version2_list3;2022.2.4;144.0158538;
REPSWITCH1/PICTURE_728.png;pulpo;speak;darkblue;filler;2;F;1;2;3;2;Stim8_Set4;0;None;8;7;8;0;7;7;7;;;;;;;;;;;;;;;;;;;;;;;50.9405532;52.0518248;52.0518248;52.0518248;52.0518248;52.0518248;52.0518248;52.0518248;52.0518248;None;0;;;C:\2023\REPSWITCH21092023\REPSWITCH_excgange\REPSWITCH_excgange\data/460203_REPSWITCH1_version2_list3_2024-01-24_16h38.36.496_micRespv2l3_recorded\recording_micRespv2l3_2024-01-24_16h39.23.166.wav;55.0730218;55.5731288;None;55.0730218;55.0730218;55.0730218;55.0730218;55.0730218;55.0730218;;;;;;460203;1;2024-01-24_16h38.36.496;REPSWITCH1_version2_list3;2022.2.4;144.0158538;
REPSWITCH1/PICTURE_16.png;cazador;speak;darkblue;nontarget;2;NT;1;2;3;2;Stim6_Set1;1;repeat;9;8;9;0;8;8;8;;;;;;;;;;;;;;;;;;;;;;;55.5731288;56.6565927;56.6565927;56.6565927;56.6565927;56.6565927;56.6565927;56.6565927;56.6565927;None;0;;;C:\2023\REPSWITCH21092023\REPSWITCH_excgange\REPSWITCH_excgange\data/460203_REPSWITCH1_version2_list3_2024-01-24_16h38.36.496_micRespv2l3_recorded\recording_micRespv2l3_2024-01-24_16h39.27.771.wav;59.6847086;;None;59.6847086;59.6847086;59.6847086;59.6847086;59.6847086;59.6847086;;;;;;460203;1;2024-01-24_16h38.36.496;REPSWITCH1_version2_list3;2022.2.4;144.0158538;
REPSWITCH1/PICTURE_16.png;cazador;type;gold;switch;1;T;1;2;3;2;Stim6_Set1;0;None;10;9;10;0;9;9;9;;;;;;;;;;;;;;;;;;;;;;;60.184777;61.2196401;61.2196401;61.2196401;61.2196401;61.2196401;61.2196401;61.2196401;61.2196401;['c', 'a', 'z', 'a', 'd', 'p', 'r'];0;[1.3903806004673243, 1.6415948001667857, 1.8613184001296759, 2.0317351007834077, 2.493379699997604, 2.629874600097537, 2.7896107006818056];cazadpr;C:\2023\REPSWITCH21092023\REPSWITCH_excgange\REPSWITCH_excgange\data/460203_REPSWITCH1_version2_list3_2024-01-24_16h38.36.496_micRespv2l3_recorded\recording_micRespv2l3_2024-01-24_16h39.32.334.wav;64.2477806;;None;64.2477806;64.2477806;64.2477806;64.2477806;64.2477806;64.2477806;;;;;;460203;1;2024-01-24_16h38.36.496;REPSWITCH1_version2_list3;2022.2.4;144.0158538;
REPSWITCH1/PICTURE_498.png;taza;type;gold;filler;1;F;1;2;3;2;Stim4_Set4;1;repeat;11;10;11;0;10;10;10;;;;;;;;;;;;;;;;;;;;;;;64.7479518;65.7827446;65.7827446;65.7827446;65.7827446;65.7827446;65.7827446;65.7827446;65.7827446;['t', 'a', 'z', 'a'];0;[1.153344999998808, 1.578651400282979, 1.7690118998289108, 1.9386978996917605];taza;C:\2023\REPSWITCH21092023\REPSWITCH_excgange\REPSWITCH_excgange\data/460203_REPSWITCH1_version2_list3_2024-01-24_16h38.36.496_micRespv2l3_recorded\recording_micRespv2l3_2024-01-24_16h39.36.898.wav;68.8109043;;None;68.8109043;68.8109043;68.8109043;68.8109043;68.8109043;68.8109043;;;;;;460203;1;2024-01-24_16h38.36.496;REPSWITCH1_version2_list3;2022.2.4;144.0158538;
REPSWITCH1/PICTURE_381.png;fresa;type;gold;nontarget;1;NT;1;2;3;2;Stim2_Set1;1;repeat;12;11;12;0;11;11;11;;;;;;;;;;;;;;;;;;;;;;;69.3110456;70.4916752;70.4916752;70.4916752;70.4916752;70.4916752;70.4916752;70.4916752;70.4916752;['f', 'r', 'e', 's', 'a'];0;[1.0927761998027563, 1.3004147000610828, 1.5325929000973701, 1.7370926002040505, 2.886811699718237];fresa;C:\2023\REPSWITCH21092023\REPSWITCH_excgange\REPSWITCH_excgange\data/460203_REPSWITCH1_version2_list3_2024-01-24_16h38.36.496_micRespv2l3_recorded\recording_micRespv2l3_2024-01-24_16h39.41.607.wav;73.512902;74.0129785;None;73.512902;73.512902;73.512902;73.512902;73.512902;73.512902;;;;;;460203;1;2024-01-24_16h38.36.496;REPSWITCH1_version2_list3;2022.2.4;144.0158538;
REPSWITCH1/PICTURE_381.png;fresa;speak;darkblue;switch;2;T;1;2;3;2;Stim2_Set1;0;None;13;12;13;0;12;12;12;;;;;;;;;;;;;;;;;;;;;;;74.0129785;75.2006478;75.2006478;75.2006478;75.2006478;75.2006478;75.2006478;75.2006478;75.2006478;None;0;;;C:\2023\REPSWITCH21092023\REPSWITCH_excgange\REPSWITCH_excgange\data/460203_REPSWITCH1_version2_list3_2024-01-24_16h38.36.496_micRespv2l3_recorded\recording_micRespv2l3_2024-01-24_16h39.46.316.wav;78.2288014;;None;78.2288014;78.2288014;78.2288014;78.2288014;78.2288014;78.2288014;;;;;;460203;1;2024-01-24_16h38.36.496;REPSWITCH1_version2_list3;2022.2.4;144.0158538;
REPSWITCH1/PICTURE_178.png;puente;speak;darkblue;nontarget;2;NT;1;2;3;2;Stim1_Set1;0;None;14;13;14;0;13;13;13;;;;;;;;;;;;;;;;;;;;;;;78.7288755;79.749853;79.749853;79.749853;79.749853;79.749853;79.749853;79.749853;79.749853;None;0;;;C:\2023\REPSWITCH21092023\REPSWITCH_excgange\REPSWITCH_excgange\data/460203_REPSWITCH1_version2_list3_2024-01-24_16h38.36.496_micRespv2l3_recorded\recording_micRespv2l3_2024-01-24_16h39.50.865.wav;82.7780143;;None;82.7780143;82.7780143;82.7780143;82.7780143;82.7780143;82.7780143;;;;;;460203;1;2024-01-24_16h38.36.496;REPSWITCH1_version2_list3;2022.2.4;144.0158538;
REPSWITCH1/PICTURE_178.png;puente;type;gold;switch;1;T;1;2;3;2;Stim1_Set1;0;None;15;14;15;0;14;14;14;;;;;;;;;;;;;;;;;;;;;;;83.2780835;84.3337789;84.3337789;84.3337789;84.3337789;84.3337789;84.3337789;84.3337789;84.3337789;['p', 'e', 'n', 't', 'e'];0;[1.285093099810183, 1.982036099769175, 2.0766725996509194, 2.3737073997035623, 2.4474724996834993];pente;C:\2023\REPSWITCH21092023\REPSWITCH_excgange\REPSWITCH_excgange\data/460203_REPSWITCH1_version2_list3_2024-01-24_16h38.36.496_micRespv2l3_recorded\recording_micRespv2l3_2024-01-24_16h39.55.448.wav;87.3619498;;None;87.3619498;87.3619498;87.3619498;87.3619498;87.3619498;87.3619498;;;;;;460203;1;2024-01-24_16h38.36.496;REPSWITCH1_version2_list3;2022.2.4;144.0158538;
REPSWITCH1/PICTURE_719.png;baño;speak;darkblue;filler;2;F;1;2;3;2;Stim2_Set4;0;None;16;15;16;0;15;15;15;;;;;;;;;;;;;;;;;;;;;;;87.8620958;88.8899497;88.8899497;88.8899497;88.8899497;88.8899497;88.8899497;88.8899497;88.8899497;None;0;;;C:\2023\REPSWITCH21092023\REPSWITCH_excgange\REPSWITCH_excgange\data/460203_REPSWITCH1_version2_list3_2024-01-24_16h38.36.496_micRespv2l3_recorded\recording_micRespv2l3_2024-01-24_16h40.00.005.wav;91.9181072;;None;91.9181072;91.9181072;91.9181072;91.9181072;91.9181072;91.9181072;;;;;;460203;1;2024-01-24_16h38.36.496;REPSWITCH1_version2_list3;2022.2.4;144.0158538;
REPSWITCH1/PICTURE_169.png;espalda;type;gold;nontarget;1;NT;1;2;3;2;Stim8_Set1;1;switch;17;16;17;0;16;16;16;;;;;;;;;;;;;;;;;;;;;;;92.4181664;93.473848;93.473848;93.473848;93.473848;93.473848;93.473848;93.473848;93.473848;['e', 's', 'p', 'a', 'l', 'd', 'a'];0;[1.0413103001192212, 1.248287900350988, 1.6210492001846433, 1.7934581004083157, 1.9050543997436762, 2.074856400489807, 2.1367172999307513];espalda;C:\2023\REPSWITCH21092023\REPSWITCH_excgange\REPSWITCH_excgange\data/460203_REPSWITCH1_version2_list3_2024-01-24_16h38.36.496_micRespv2l3_recorded\recording_micRespv2l3_2024-01-24_16h40.04.588.wav;96.4950951;96.9951583;None;96.4950951;96.4950951;96.4950951;96.4950951;96.4950951;96.4950951;;;;;;460203;1;2024-01-24_16h38.36.496;REPSWITCH1_version2_list3;2022.2.4;144.0158538;
REPSWITCH1/PICTURE_169.png;espalda;type;gold;repeat;1;T;1;2;3;2;Stim8_Set1;0;None;18;17;18;0;17;17;17;;;;;;;;;;;;;;;;;;;;;;;96.9951583;98.148167;98.148167;98.148167;98.148167;98.148167;98.148167;98.148167;98.148167;['e', 's', 'p', 'a', 'l', 'd', 'a'];0;[1.419179799966514, 1.6205025995150208, 2.3204680997878313, 2.540727799758315, 2.6632793992757797, 2.8825781997293234, 2.9433924993500113];espalda;C:\2023\REPSWITCH21092023\REPSWITCH_excgange\REPSWITCH_excgange\data/460203_REPSWITCH1_version2_list3_2024-01-24_16h38.36.496_micRespv2l3_recorded\recording_micRespv2l3_2024-01-24_16h40.09.263.wav;101.1762646;;None;101.1762646;101.1762646;101.1762646;101.1762646;101.1762646;101.1762646;;;;;;460203;1;2024-01-24_16h38.36.496;REPSWITCH1_version2_list3;2022.2.4;144.0158538;
REPSWITCH1/PICTURE_48.png;bombero;speak;darkblue;filler;2;F;1;2;3;2;Stim7_Set4;1;switch;19;18;19;0;18;18;18;;;;;;;;;;;;;;;;;;;;;;;101.6763295;102.7737197;102.7737197;102.7737197;102.7737197;102.7737197;102.7737197;102.7737197;102.7737197;None;0;;;C:\2023\REPSWITCH21092023\REPSWITCH_excgange\REPSWITCH_excgange\data/460203_REPSWITCH1_version2_list3_2024-01-24_16h38.36.496_micRespv2l3_recorded\recording_micRespv2l3_2024-01-24_16h40.13.889.wav;105.7949371;106.2950167;None;105.7949371;105.7949371;105.7949371;105.7949371;105.7949371;105.7949371;;;;;;460203;1;2024-01-24_16h38.36.496;REPSWITCH1_version2_list3;2022.2.4;144.0158538;
REPSWITCH1/PICTURE_19.png;pavo;type;gold;nontarget;1;NT;1;2;3;2;Stim5_Set1;1;switch;20;19;20;0;19;19;19;;;;;;;;;;;;;;;;;;;;;;;106.2950167;107.3575982;107.3575982;107.3575982;107.3575982;107.3575982;107.3575982;107.3575982;107.3575982;['p', 'a', 'v', 'o'];0;[1.0285384999588132, 1.2218712996691465, 1.607047200202942, 1.710967100225389];pavo;C:\2023\REPSWITCH21092023\REPSWITCH_excgange\REPSWITCH_excgange\data/460203_REPSWITCH1_version2_list3_2024-01-24_16h38.36.496_micRespv2l3_recorded\recording_micRespv2l3_2024-01-24_16h40.18.473.wav;110.3858558;;None;110.3858558;110.3858558;110.3858558;110.3858558;110.3858558;110.3858558;;;;;;460203;1;2024-01-24_16h38.36.496;REPSWITCH1_version2_list3;2022.2.4;144.0158538;
REPSWITCH1/PICTURE_19.png;pavo;type;gold;repeat;1;T;1;2;3;2;Stim5_Set1;0;None;21;20;21;0;20;20;20;;;;;;;;;;;;;;;;;;;;;;;110.8858528;112.0665539;112.0665539;112.0665539;112.0665539;112.0665539;112.0665539;112.0665539;112.0665539;['p', 'a', 'v', 'p', 'backspace'];0;[0.8489584000781178, 0.9675878006964922, 1.2320185005664825, 1.4074496002867818, 2.1229530004784465];pav;C:\2023\REPSWITCH21092023\REPSWITCH_excgange\REPSWITCH_excgange\data/460203_REPSWITCH1_version2_list3_2024-01-24_16h38.36.496_micRespv2l3_recorded\recording_micRespv2l3_2024-01-24_16h40.23.182.wav;115.0948233;115.5948133;None;115.0948233;115.0948233;115.0948233;115.0948233;115.0948233;115.0948233;;;;;;460203;1;2024-01-24_16h38.36.496;REPSWITCH1_version2_list3;2022.2.4;144.0158538;
REPSWITCH1/PICTURE_319.png;vaca;speak;darkblue;filler;2;F;1;2;3;2;Stim1_Set4;0;None;22;21;22;0;21;21;21;;;;;;;;;;;;;;;;;;;;;;;115.5948133;116.6783519;116.6783519;116.6783519;116.6783519;116.6783519;116.6783519;116.6783519;116.6783519;['v', 'a', 'c', 'a'];0;[1.0339611005038023, 1.2960688006132841, 1.742526300251484, 1.90498820040375];vaca;C:\2023\REPSWITCH21092023\REPSWITCH_excgange\REPSWITCH_excgange\data/460203_REPSWITCH1_version2_list3_2024-01-24_16h38.36.496_micRespv2l3_recorded\recording_micRespv2l3_2024-01-24_16h40.27.794.wav;119.7064683;;None;119.7064683;119.7064683;119.7064683;119.7064683;119.7064683;119.7064683;;;;;;460203;1;2024-01-24_16h38.36.496;REPSWITCH1_version2_list3;2022.2.4;144.0158538;
REPSWITCH1/PICTURE_338.png;regalo;type;gold;filler;1;F;1;2;3;2;Stim6_Set4;0;None;23;22;23;0;22;22;22;;;;;;;;;;;;;;;;;;;;;;;120.2065086;121.2761315;121.2761315;121.2761315;121.2761315;121.2761315;121.2761315;121.2761315;121.2761315;['r', 'e', 'g'];0;[2.4162711007520556, 2.5058911005035043, 2.7872243002057076];reg;C:\2023\REPSWITCH21092023\REPSWITCH_excgange\REPSWITCH_excgange\data/460203_REPSWITCH1_version2_list3_2024-01-24_16h38.36.496_micRespv2l3_recorded\recording_micRespv2l3_2024-01-24_16h40.32.391.wav;124.2973446;124.7973984;None;124.2973446;124.2973446;124.2973446;124.2973446;124.2973446;124.2973446;;;;;;460203;1;2024-01-24_16h38.36.496;REPSWITCH1_version2_list3;2022.2.4;144.0158538;
REPSWITCH1/PICTURE_142.png;vaso;type;gold;nontarget;1;NT;1;2;3;2;Stim7_Set1;0;None;24;23;24;0;23;23;23;;;;;;;;;;;;;;;;;;;;;;;124.7973984;125.8948404;125.8948404;125.8948404;125.8948404;125.8948404;125.8948404;125.8948404;125.8948404;['v', 'a', 's', 'o'];0;[1.1900327000766993, 1.3803981002420187, 1.4541463004425168, 2.256731200031936];vaso;C:\2023\REPSWITCH21092023\REPSWITCH_excgange\REPSWITCH_excgange\data/460203_REPSWITCH1_version2_list3_2024-01-24_16h38.36.496_micRespv2l3_recorded\recording_micRespv2l3_2024-01-24_16h40.37.009.wav;128.9229462;;None;128.9229462;128.9229462;128.9229462;128.9229462;128.9229462;128.9229462;;;;;;460203;1;2024-01-24_16h38.36.496;REPSWITCH1_version2_list3;2022.2.4;144.0158538;
REPSWITCH1/PICTURE_142.png;vaso;speak;darkblue;switch;2;T;1;2;3;2;Stim7_Set1;0;None;25;24;25;0;24;24;24;;;;;;;;;;;;;;;;;;;;;;;129.423019;130.5620432;130.5620432;130.5620432;130.5620432;130.5620432;130.5620432;130.5620432;130.5620432;None;0;;;C:\2023\REPSWITCH21092023\REPSWITCH_excgange\REPSWITCH_excgange\data/460203_REPSWITCH1_version2_list3_2024-01-24_16h38.36.496_micRespv2l3_recorded\recording_micRespv2l3_2024-01-24_16h40.41.677.wav;133.5832655;134.0833356;None;133.5832655;133.5832655;133.5832655;133.5832655;133.5832655;133.5832655;;;;;;460203;1;2024-01-24_16h38.36.496;REPSWITCH1_version2_list3;2022.2.4;144.0158538;
REPSWITCH1/PICTURE_687.png;camisa;type;gold;filler;1;F;1;2;3;2;Stim5_Set4;1;switch;26;25;26;0;25;25;25;;;;;;;;;;;;;;;;;;;;;;;134.0833356;135.1043409;135.1043409;135.1043409;135.1043409;135.1043409;135.1043409;135.1043409;135.1043409;['c', 'a', 'm', 'i', 's', 'a'];0;[1.1810599006712437, 1.3016842007637024, 1.5373841002583504, 1.6609085006639361, 1.8163906000554562, 1.9184215003624558];camisa;C:\2023\REPSWITCH21092023\REPSWITCH_excgange\REPSWITCH_excgange\data/460203_REPSWITCH1_version2_list3_2024-01-24_16h38.36.496_micRespv2l3_recorded\recording_micRespv2l3_2024-01-24_16h40.46.219.wav;138.1255153;138.6255928;None;138.1255153;138.1255153;138.1255153;138.1255153;138.1255153;138.1255153;;;;;;460203;1;2024-01-24_16h38.36.496;REPSWITCH1_version2_list3;2022.2.4;144.0158538;
REPSWITCH1/PICTURE_30.png;granja;type;gold;nontarget;1;NT;2;2;3;2;Stim5_Set2;0;None;27;26;27;0;26;26;26;;;;;;;;;;;;;;;;;;;;;;;138.6255928;139.6743281;139.6743281;139.6743281;139.6743281;139.6743281;139.6743281;139.6743281;139.6743281;['g', 'r', 'a', 'n', 'j', 'a'];0;[1.2378100007772446, 1.3304994003847241, 1.573135000653565, 1.6816897001117468, 2.0535629000514746, 2.1721456004306674];granja;C:\2023\REPSWITCH21092023\REPSWITCH_excgange\REPSWITCH_excgange\data/460203_REPSWITCH1_version2_list3_2024-01-24_16h38.36.496_micRespv2l3_recorded\recording_micRespv2l3_2024-01-24_16h40.50.790.wav;142.7025164;;None;142.7025164;142.7025164;142.7025164;142.7025164;142.7025164;142.7025164;;;;;;460203;1;2024-01-24_16h38.36.496;REPSWITCH1_version2_list3;2022.2.4;144.0158538;
REPSWITCH1/PICTURE_30.png;granja;type;gold;repeat;1;T;2;2;3;2;Stim5_Set2;0;None;28;27;28;0;27;27;27;;;;;;;;;;;;;;;;;;;;;;;143.2025879;144.3207945;144.3207945;144.3207945;144.3207945;144.3207945;144.3207945;144.3207945;144.3207945;['g', 'r', 'a', 'j', 'a'];0;[1.0141880000010133, 1.0610518008470535, 1.2802985003218055, 1.587283200584352, 1.7070363005623221];graja;C:\2023\REPSWITCH21092023\REPSWITCH_excgange\REPSWITCH_excgange\data/460203_REPSWITCH1_version2_list3_2024-01-24_16h38.36.496_micRespv2l3_recorded\recording_micRespv2l3_2024-01-24_16h40.55.436.wav;147.34898;;None;147.34898;147.34898;147.34898;147.34898;147.34898;147.34898;;;;;;460203;1;2024-01-24_16h38.36.496;REPSWITCH1_version2_list3;2022.2.4;144.0158538;
REPSWITCH1/PICTURE_128.png;muñeca;speak;darkblue;filler;2;F;2;2;3;2;Stim4_Set1;0;None;29;28;29;0;28;28;28;;;;;;;;;;;;;;;;;;;;;;;147.8490506;148.932543;148.932543;148.932543;148.932543;148.932543;148.932543;148.932543;148.932543;None;0;;;C:\2023\REPSWITCH21092023\REPSWITCH_excgange\REPSWITCH_excgange\data/460203_REPSWITCH1_version2_list3_2024-01-24_16h38.36.496_micRespv2l3_recorded\recording_micRespv2l3_2024-01-24_16h41.00.048.wav;151.9607051;;None;151.9607051;151.9607051;151.9607051;151.9607051;151.9607051;151.9607051;;;;;;460203;1;2024-01-24_16h38.36.496;REPSWITCH1_version2_list3;2022.2.4;144.0158538;
REPSWITCH1/PICTURE_264.png;mano;type;gold;nontarget;1;NT;2;2;3;2;Stim3_Set2;1;switch;30;29;30;0;29;29;29;;;;;;;;;;;;;;;;;;;;;;;152.4607479;153.5581458;153.5581458;153.5581458;153.5581458;153.5581458;153.5581458;153.5581458;153.5581458;['m', 'a', 'n', 'o'];0;[0.9279098995029926, 1.0511365998536348, 1.151800099760294, 1.5478322999551892];mano;C:\2023\REPSWITCH21092023\REPSWITCH_excgange\REPSWITCH_excgange\data/460203_REPSWITCH1_version2_list3_2024-01-24_16h38.36.496_micRespv2l3_recorded\recording_micRespv2l3_2024-01-24_16h41.04.673.wav;156.5863641;;None;156.5863641;156.5863641;156.5863641;156.5863641;156.5863641;156.5863641;;;;;;460203;1;2024-01-24_16h38.36.496;REPSWITCH1_version2_list3;2022.2.4;144.0158538;
REPSWITCH1/PICTURE_264.png;mano;type;gold;repeat;1;T;2;2;3;2;Stim3_Set2;0;None;31;30;31;0;30;30;30;;;;;;;;;;;;;;;;;;;;;;;157.0863511;158.1351682;158.1351682;158.1351682;158.1351682;158.1351682;158.1351682;158.1351682;158.1351682;['m', 'a', 'n', 'o'];0;[0.8486345000565052, 0.9752038000151515, 1.098035299219191, 1.5210737995803356];mano;C:\2023\REPSWITCH21092023\REPSWITCH_excgange\REPSWITCH_excgange\data/460203_REPSWITCH1_version2_list3_2024-01-24_16h38.36.496_micRespv2l3_recorded\recording_micRespv2l3_2024-01-24_16h41.09.250.wav;161.1632955;;None;161.1632955;161.1632955;161.1632955;161.1632955;161.1632955;161.1632955;;;;;;460203;1;2024-01-24_16h38.36.496;REPSWITCH1_version2_list3;2022.2.4;144.0158538;
REPSWITCH1/PICTURE_175.png;pintor;type;gold;nontarget;1;NT;2;2;3;2;Stim1_Set2;0;None;32;31;32;0;31;31;31;;;;;;;;;;;;;;;;;;;;;;;161.6633356;162.7538547;162.7538547;162.7538547;162.7538547;162.7538547;162.7538547;162.7538547;162.7538547;['p', 'i', 'n', 't', 'o', 'r'];0;[1.5273055005818605, 1.8392460998147726, 1.9986776998266578, 2.1864287005737424, 2.2674668999388814, 2.363150800578296];pintor;C:\2023\REPSWITCH21092023\REPSWITCH_excgange\REPSWITCH_excgange\data/460203_REPSWITCH1_version2_list3_2024-01-24_16h38.36.496_micRespv2l3_recorded\recording_micRespv2l3_2024-01-24_16h41.13.869.wav;165.7750554;166.2750769;None;165.7750554;165.7750554;165.7750554;165.7750554;165.7750554;165.7750554;;;;;;460203;1;2024-01-24_16h38.36.496;REPSWITCH1_version2_list3;2022.2.4;144.0158538;
REPSWITCH1/PICTURE_175.png;pintor;speak;darkblue;switch;2;T;2;2;3;2;Stim1_Set2;0;None;33;32;33;0;32;32;32;;;;;;;;;;;;;;;;;;;;;;;166.2750769;167.3168583;167.3168583;167.3168583;167.3168583;167.3168583;167.3168583;167.3168583;167.3168583;None;0;;;C:\2023\REPSWITCH21092023\REPSWITCH_excgange\REPSWITCH_excgange\data/460203_REPSWITCH1_version2_list3_2024-01-24_16h38.36.496_micRespv2l3_recorded\recording_micRespv2l3_2024-01-24_16h41.18.431.wav;170.3450778;;None;170.3450778;170.3450778;170.3450778;170.3450778;170.3450778;170.3450778;;;;;;460203;1;2024-01-24_16h38.36.496;REPSWITCH1_version2_list3;2022.2.4;144.0158538;
REPSWITCH1/PICTURE_135.png;traje;speak;darkblue;filler;2;F;2;2;3;2;Stim3_Set1;1;repeat;34;33;34;0;33;33;33;;;;;;;;;;;;;;;;;;;;;;;170.8451173;171.9563724;171.9563724;171.9563724;171.9563724;171.9563724;171.9563724;171.9563724;171.9563724;None;0;;;C:\2023\REPSWITCH21092023\REPSWITCH_excgange\REPSWITCH_excgange\data/460203_REPSWITCH1_version2_list3_2024-01-24_16h38.36.496_micRespv2l3_recorded\recording_micRespv2l3_2024-01-24_16h41.23.070.wav;174.9775934;175.4777348;None;174.9775934;174.9775934;174.9775934;174.9775934;174.9775934;174.9775934;;;;;;460203;1;2024-01-24_16h38.36.496;REPSWITCH1_version2_list3;2022.2.4;144.0158538;
REPSWITCH1/PICTURE_446.png;cerdo;speak;darkblue;nontarget;2;NT;2;2;3;2;Stim7_Set2;1;repeat;35;34;35;0;34;34;34;;;;;;;;;;;;;;;;;;;;;;;175.4777348;176.5472389;176.5472389;176.5472389;176.5472389;176.5472389;176.5472389;176.5472389;176.5472389;None;0;;;C:\2023\REPSWITCH21092023\REPSWITCH_excgange\REPSWITCH_excgange\data/460203_REPSWITCH1_version2_list3_2024-01-24_16h38.36.496_micRespv2l3_recorded\recording_micRespv2l3_2024-01-24_16h41.27.661.wav;179.5684622;180.0685241;None;179.5684622;179.5684622;179.5684622;179.5684622;179.5684622;179.5684622;;;;;;460203;1;2024-01-24_16h38.36.496;REPSWITCH1_version2_list3;2022.2.4;144.0158538;
REPSWITCH1/PICTURE_446.png;cerdo;type;gold;switch;1;T;2;2;3;2;Stim7_Set2;0;None;36;35;36;0;35;35;35;;;;;;;;;;;;;;;;;;;;;;;180.0685241;181.1242546;181.1242546;181.1242546;181.1242546;181.1242546;181.1242546;181.1242546;181.1242546;['c', 'e', 'r', 'd', 'o'];0;[1.218911100178957, 1.3784233005717397, 1.4730906998738647, 1.6928989998996258, 1.7845846004784107];cerdo;C:\2023\REPSWITCH21092023\REPSWITCH_excgange\REPSWITCH_excgange\data/460203_REPSWITCH1_version2_list3_2024-01-24_16h38.36.496_micRespv2l3_recorded\recording_micRespv2l3_2024-01-24_16h41.32.238.wav;184.1454504;184.6455221;None;184.1454504;184.1454504;184.1454504;184.1454504;184.1454504;184.1454504;;;;;;460203;1;2024-01-24_16h38.36.496;REPSWITCH1_version2_list3;2022.2.4;144.0158538;
REPSWITCH1/PICTURE_152.png;caracol;type;gold;nontarget;1;NT;2;2;3;2;Stim2_Set2;1;repeat;37;36;37;0;36;36;36;;;;;;;;;;;;;;;;;;;;;;;184.6455221;185.6734613;185.6734613;185.6734613;185.6734613;185.6734613;185.6734613;185.6734613;185.6734613;['c', 'a', 'r', 'a', 'c'];0;[1.778295699506998, 1.929879899136722, 2.0133615992963314, 2.130654599517584, 2.318032699637115];carac;C:\2023\REPSWITCH21092023\REPSWITCH_excgange\REPSWITCH_excgange\data/460203_REPSWITCH1_version2_list3_2024-01-24_16h38.36.496_micRespv2l3_recorded\recording_micRespv2l3_2024-01-24_16h41.36.788.wav;188.7016301;;None;188.7016301;188.7016301;188.7016301;188.7016301;188.7016301;188.7016301;;;;;;460203;1;2024-01-24_16h38.36.496;REPSWITCH1_version2_list3;2022.2.4;144.0158538;
REPSWITCH1/PICTURE_152.png;caracol;speak;darkblue;switch;2;T;2;2;3;2;Stim2_Set2;0;None;38;37;38;0;37;37;37;;;;;;;;;;;;;;;;;;;;;;;189.2016869;190.2643291;190.2643291;190.2643291;190.2643291;190.2643291;190.2643291;190.2643291;190.2643291;None;0;;;C:\2023\REPSWITCH21092023\REPSWITCH_excgange\REPSWITCH_excgange\data/460203_REPSWITCH1_version2_list3_2024-01-24_16h38.36.496_micRespv2l3_recorded\recording_micRespv2l3_2024-01-24_16h41.41.379.wav;193.2855287;193.785626;None;193.2855287;193.2855287;193.2855287;193.2855287;193.2855287;193.2855287;;;;;;460203;1;2024-01-24_16h38.36.496;REPSWITCH1_version2_list3;2022.2.4;144.0158538;
REPSWITCH1/PICTURE_16.png;cazador;type;gold;filler;1;F;2;2;3;2;Stim6_Set1;0;None;39;38;39;0;38;38;38;;;;;;;;;;;;;;;;;;;;;;;193.785626;195.0496713;195.0496713;195.0496713;195.0496713;195.0496713;195.0496713;195.0496713;195.0496713;['c', 'a', 'z', 'a', 'd', 'o', 'r'];0;[1.0396000994369388, 1.173208199441433, 1.5524505991488695, 1.7364231999963522, 1.8709466997534037, 2.01968149933964, 2.1223340993747115];cazador;C:\2023\REPSWITCH21092023\REPSWITCH_excgange\REPSWITCH_excgange\data/460203_REPSWITCH1_version2_list3_2024-01-24_16h38.36.496_micRespv2l3_recorded\recording_micRespv2l3_2024-01-24_16h41.46.165.wav;198.0778526;;None;198.0778526;198.0778526;198.0778526;198.0778526;198.0778526;198.0778526;;;;;;460203;1;2024-01-24_16h38.36.496;REPSWITCH1_version2_list3;2022.2.4;144.0158538;
REPSWITCH1/PICTURE_381.png;fresa;speak;darkblue;filler;2;F;2;2;3;2;Stim2_Set1;0;None;40;39;40;0;39;39;39;;;;;;;;;;;;;;;;;;;;;;;198.5779973;199.6891846;199.6891846;199.6891846;199.6891846;199.6891846;199.6891846;199.6891846;199.6891846;None;0;;;C:\2023\REPSWITCH21092023\REPSWITCH_excgange\REPSWITCH_excgange\data/460203_REPSWITCH1_version2_list3_2024-01-24_16h38.36.496_micRespv2l3_recorded\recording_micRespv2l3_2024-01-24_16h41.50.804.wav;202.7173137;;None;202.7173137;202.7173137;202.7173137;202.7173137;202.7173137;202.7173137;;;;;;460203;1;2024-01-24_16h38.36.496;REPSWITCH1_version2_list3;2022.2.4;144.0158538;
REPSWITCH1/PICTURE_19.png;pavo;type;gold;filler;1;F;2;2;3;2;Stim5_Set1;0;None;41;40;41;0;40;40;40;;;;;;;;;;;;;;;;;;;;;;;203.2173956;204.287032;204.287032;204.287032;204.287032;204.287032;204.287032;204.287032;204.287032;['p', 'a', 'v', 'o'];0;[1.0284973001107574, 1.1332773994654417, 1.3300304999575019, 1.3951731994748116];pavo;C:\2023\REPSWITCH21092023\REPSWITCH_excgange\REPSWITCH_excgange\data/460203_REPSWITCH1_version2_list3_2024-01-24_16h38.36.496_micRespv2l3_recorded\recording_micRespv2l3_2024-01-24_16h41.55.402.wav;207.3152559;;None;207.3152559;207.3152559;207.3152559;207.3152559;207.3152559;207.3152559;;;;;;460203;1;2024-01-24_16h38.36.496;REPSWITCH1_version2_list3;2022.2.4;144.0158538;
REPSWITCH1/PICTURE_517.png;cuerda;speak;darkblue;nontarget;2;NT;2;2;3;2;Stim4_Set2;1;switch;42;41;42;0;41;41;41;;;;;;;;;;;;;;;;;;;;;;;207.8153068;208.8362319;208.8362319;208.8362319;208.8362319;208.8362319;208.8362319;208.8362319;208.8362319;None;0;;;C:\2023\REPSWITCH21092023\REPSWITCH_excgange\REPSWITCH_excgange\data/460203_REPSWITCH1_version2_list3_2024-01-24_16h38.36.496_micRespv2l3_recorded\recording_micRespv2l3_2024-01-24_16h41.59.951.wav;211.8643636;;None;211.8643636;211.8643636;211.8643636;211.8643636;211.8643636;211.8643636;;;;;;460203;1;2024-01-24_16h38.36.496;REPSWITCH1_version2_list3;2022.2.4;144.0158538;
REPSWITCH1/PICTURE_517.png;cuerda;speak;darkblue;repeat;2;T;2;2;3;2;Stim4_Set2;0;None;43;42;43;0;42;42;42;;;;;;;;;;;;;;;;;;;;;;;212.3644122;213.5243318;213.5243318;213.5243318;213.5243318;213.5243318;213.5243318;213.5243318;213.5243318;None;0;;;C:\2023\REPSWITCH21092023\REPSWITCH_excgange\REPSWITCH_excgange\data/460203_REPSWITCH1_version2_list3_2024-01-24_16h38.36.496_micRespv2l3_recorded\recording_micRespv2l3_2024-01-24_16h42.04.640.wav;216.5525448;;None;216.5525448;216.5525448;216.5525448;216.5525448;216.5525448;216.5525448;;;;;;460203;1;2024-01-24_16h38.36.496;REPSWITCH1_version2_list3;2022.2.4;144.0158538;
REPSWITCH1/PICTURE_178.png;puente;type;gold;filler;1;F;2;2;3;2;Stim1_Set1;0;None;44;43;44;0;43;43;43;;;;;;;;;;;;;;;;;;;;;;;217.0525399;218.0597103;218.0597103;218.0597103;218.0597103;218.0597103;218.0597103;218.0597103;218.0597103;['p', 'u', 'e', 'n', 't', 'e'];0;[1.229670099914074, 1.5595974000170827, 1.8239943999797106, 1.8369377003982663, 2.3603725004941225, 2.4580300003290176];puente;C:\2023\REPSWITCH21092023\REPSWITCH_excgange\REPSWITCH_excgange\data/460203_REPSWITCH1_version2_list3_2024-01-24_16h38.36.496_micRespv2l3_recorded\recording_micRespv2l3_2024-01-24_16h42.09.174.wav;221.0808786;221.5809373;None;221.0808786;221.0808786;221.0808786;221.0808786;221.0808786;221.0808786;;;;;;460203;1;2024-01-24_16h38.36.496;REPSWITCH1_version2_list3;2022.2.4;144.0158538;
REPSWITCH1/PICTURE_199.png;falda;speak;darkblue;nontarget;2;NT;2;2;3;2;Stim8_Set2;1;switch;45;44;45;0;44;44;44;;;;;;;;;;;;;;;;;;;;;;;221.5809373;222.7060852;222.7060852;222.7060852;222.7060852;222.7060852;222.7060852;222.7060852;222.7060852;None;0;;;C:\2023\REPSWITCH21092023\REPSWITCH_excgange\REPSWITCH_excgange\data/460203_REPSWITCH1_version2_list3_2024-01-24_16h38.36.496_micRespv2l3_recorded\recording_micRespv2l3_2024-01-24_16h42.13.822.wav;225.7342609;;None;225.7342609;225.7342609;225.7342609;225.7342609;225.7342609;225.7342609;;;;;;460203;1;2024-01-24_16h38.36.496;REPSWITCH1_version2_list3;2022.2.4;144.0158538;
REPSWITCH1/PICTURE_199.png;falda;speak;darkblue;repeat;2;T;2;2;3;2;Stim8_Set2;0;None;46;45;46;0;45;45;45;;;;;;;;;;;;;;;;;;;;;;;226.2343267;227.317814;227.317814;227.317814;227.317814;227.317814;227.317814;227.317814;227.317814;None;0;;;C:\2023\REPSWITCH21092023\REPSWITCH_excgange\REPSWITCH_excgange\data/460203_REPSWITCH1_version2_list3_2024-01-24_16h38.36.496_micRespv2l3_recorded\recording_micRespv2l3_2024-01-24_16h42.18.432.wav;230.3460408;;None;230.3460408;230.3460408;230.3460408;230.3460408;230.3460408;230.3460408;;;;;;460203;1;2024-01-24_16h38.36.496;REPSWITCH1_version2_list3;2022.2.4;144.0158538;
REPSWITCH1/PICTURE_169.png;espalda;type;gold;filler;1;F;2;2;3;2;Stim8_Set1;0;None;47;46;47;0;46;46;46;;;;;;;;;;;;;;;;;;;;;;;230.8460407;231.9434356;231.9434356;231.9434356;231.9434356;231.9434356;231.9434356;231.9434356;231.9434356;['e', 's', 'p', 'a', 'd'];0;[1.6610187003389, 1.833576699718833, 1.9236409002915025, 2.638272199779749, 2.8784609995782375];espad;C:\2023\REPSWITCH21092023\REPSWITCH_excgange\REPSWITCH_excgange\data/460203_REPSWITCH1_version2_list3_2024-01-24_16h38.36.496_micRespv2l3_recorded\recording_micRespv2l3_2024-01-24_16h42.23.058.wav;234.9646916;235.4646919;None;234.9646916;234.9646916;234.9646916;234.9646916;234.9646916;234.9646916;;;;;;460203;1;2024-01-24_16h38.36.496;REPSWITCH1_version2_list3;2022.2.4;144.0158538;
REPSWITCH1/PICTURE_142.png;vaso;speak;darkblue;filler;2;F;2;2;3;2;Stim7_Set1;0;None;48;47;48;0;47;47;47;;;;;;;;;;;;;;;;;;;;;;;235.4646919;236.5273255;236.5273255;236.5273255;236.5273255;236.5273255;236.5273255;236.5273255;236.5273255;None;0;;;C:\2023\REPSWITCH21092023\REPSWITCH_excgange\REPSWITCH_excgange\data/460203_REPSWITCH1_version2_list3_2024-01-24_16h38.36.496_micRespv2l3_recorded\recording_micRespv2l3_2024-01-24_16h42.27.642.wav;239.5486155;240.0486344;None;239.5486155;239.5486155;239.5486155;239.5486155;239.5486155;239.5486155;;;;;;460203;1;2024-01-24_16h38.36.496;REPSWITCH1_version2_list3;2022.2.4;144.0158538;
REPSWITCH1/PICTURE_552.png;manzana;speak;darkblue;nontarget;2;NT;2;2;3;2;Stim6_Set2;0;None;49;48;49;0;48;48;48;;;;;;;;;;;;;;;;;;;;;;;240.0486344;241.0765451;241.0765451;241.0765451;241.0765451;241.0765451;241.0765451;241.0765451;241.0765451;None;0;;;C:\2023\REPSWITCH21092023\REPSWITCH_excgange\REPSWITCH_excgange\data/460203_REPSWITCH1_version2_list3_2024-01-24_16h38.36.496_micRespv2l3_recorded\recording_micRespv2l3_2024-01-24_16h42.32.191.wav;244.1047349;;None;244.1047349;244.1047349;244.1047349;244.1047349;244.1047349;244.1047349;;;;;;460203;1;2024-01-24_16h38.36.496;REPSWITCH1_version2_list3;2022.2.4;144.0158538;
REPSWITCH1/PICTURE_552.png;manzana;type;gold;switch;1;T;2;2;3;2;Stim6_Set2;0;None;50;49;50;0;49;49;49;;;;;;;;;;;;;;;;;;;;;;;244.6047934;245.6952515;245.6952515;245.6952515;245.6952515;245.6952515;245.6952515;245.6952515;245.6952515;None;0;;;C:\2023\REPSWITCH21092023\REPSWITCH_excgange\REPSWITCH_excgange\data/460203_REPSWITCH1_version2_list3_2024-01-24_16h38.36.496_micRespv2l3_recorded\recording_micRespv2l3_2024-01-24_16h42.36.810.wav;248.7233587;;None;248.7233587;248.7233587;248.7233587;248.7233587;248.7233587;248.7233587;;;;;;460203;1;2024-01-24_16h38.36.496;REPSWITCH1_version2_list3;2022.2.4;144.0158538;
REPSWITCH1/PICTURE_590.png;escoba;speak;darkblue;filler;2;F;1;2;3;2;Extra3;0;None;51;50;51;0;50;50;50;;;;;;;;;;;;;;;;;;;;;;;249.2234987;250.3208406;250.3208406;250.3208406;250.3208406;250.3208406;250.3208406;250.3208406;250.3208406;['e', 's', 'c', 'o'];0;[1.8529705004766583, 2.039496200159192, 2.2506820000708103, 2.4454104006290436];esco;C:\2023\REPSWITCH21092023\REPSWITCH_excgange\REPSWITCH_excgange\data/460203_REPSWITCH1_version2_list3_2024-01-24_16h38.36.496_micRespv2l3_recorded\recording_micRespv2l3_2024-01-24_16h42.41.435.wav;253.342061;253.842117;space;253.342061;253.342061;253.342061;253.342061;253.342061;253.342061;253.842117;253.842117;4.316984301;;;460203;1;2024-01-24_16h38.36.496;REPSWITCH1_version2_list3;2022.2.4;144.0158538;
REPSWITCH1/PICTURE_552.png;manzana;type;gold;filler;1;F;3;2;3;2;Stim6_Set2;0;None;52;51;52;0;51;51;51;;;;;;;;;;;;;;;;;;;;;;;258.1690777;259.1969717;259.1969717;259.1969717;259.1969717;259.1969717;259.1969717;259.1969717;259.1969717;['f', 'r', 'e', 's', 'a'];0;[2.013014200143516, 2.185256900265813, 2.2879016995429993, 2.669524699449539, 2.7741676000878215];fresa;C:\2023\REPSWITCH21092023\REPSWITCH_excgange\REPSWITCH_excgange\data/460203_REPSWITCH1_version2_list3_2024-01-24_16h38.36.496_micRespv2l3_recorded\recording_micRespv2l3_2024-01-24_16h42.50.312.wav;262.2251668;;None;262.2251668;262.2251668;262.2251668;262.2251668;262.2251668;262.2251668;;;;;;460203;1;2024-01-24_16h38.36.496;REPSWITCH1_version2_list3;2022.2.4;144.0158538;
REPSWITCH1/PICTURE_464.png;goma;type;gold;nontarget;1;NT;3;2;3;2;Stim6_Set3;1;repeat;53;52;53;0;52;52;52;;;;;;;;;;;;;;;;;;;;;;;262.7252244;263.829521;263.829521;263.829521;263.829521;263.829521;263.829521;263.829521;263.829521;['g', 'o', 'm', 'a'];0;[1.0063431998714805, 1.1295019993558526, 1.3527571000158787, 1.4095604997128248];goma;C:\2023\REPSWITCH21092023\REPSWITCH_excgange\REPSWITCH_excgange\data/460203_REPSWITCH1_version2_list3_2024-01-24_16h38.36.496_micRespv2l3_recorded\recording_micRespv2l3_2024-01-24_16h42.54.944.wav;266.857699;;None;266.857699;266.857699;266.857699;266.857699;266.857699;266.857699;;;;;;460203;1;2024-01-24_16h38.36.496;REPSWITCH1_version2_list3;2022.2.4;144.0158538;
REPSWITCH1/PICTURE_464.png;goma;speak;darkblue;switch;2;T;3;2;3;2;Stim6_Set3;0;None;54;53;54;0;53;53;53;;;;;;;;;;;;;;;;;;;;;;;267.3578472;268.4273435;268.4273435;268.4273435;268.4273435;268.4273435;268.4273435;268.4273435;268.4273435;None;0;;;C:\2023\REPSWITCH21092023\REPSWITCH_excgange\REPSWITCH_excgange\data/460203_REPSWITCH1_version2_list3_2024-01-24_16h38.36.496_micRespv2l3_recorded\recording_micRespv2l3_2024-01-24_16h42.59.542.wav;271.4555218;;None;271.4555218;271.4555218;271.4555218;271.4555218;271.4555218;271.4555218;;;;;;460203;1;2024-01-24_16h38.36.496;REPSWITCH1_version2_list3;2022.2.4;144.0158538;
REPSWITCH1/PICTURE_30.png;granja;speak;darkblue;filler;2;F;3;2;3;2;Stim5_Set2;0;None;55;54;55;0;54;54;54;;;;;;;;;;;;;;;;;;;;;;;271.9556;273.0390903;273.0390903;273.0390903;273.0390903;273.0390903;273.0390903;273.0390903;273.0390903;None;0;;;C:\2023\REPSWITCH21092023\REPSWITCH_excgange\REPSWITCH_excgange\data/460203_REPSWITCH1_version2_list3_2024-01-24_16h38.36.496_micRespv2l3_recorded\recording_micRespv2l3_2024-01-24_16h43.04.154.wav;276.0672598;;None;276.0672598;276.0672598;276.0672598;276.0672598;276.0672598;276.0672598;;;;;;460203;1;2024-01-24_16h38.36.496;REPSWITCH1_version2_list3;2022.2.4;144.0158538;
REPSWITCH1/PICTURE_235.png;aguja;speak;darkblue;nontarget;2;NT;3;2;3;2;Stim4_Set3;1;repeat;56;55;56;0;55;55;55;;;;;;;;;;;;;;;;;;;;;;;276.5672954;277.6578091;277.6578091;277.6578091;277.6578091;277.6578091;277.6578091;277.6578091;277.6578091;None;0;;;C:\2023\REPSWITCH21092023\REPSWITCH_excgange\REPSWITCH_excgange\data/460203_REPSWITCH1_version2_list3_2024-01-24_16h38.36.496_micRespv2l3_recorded\recording_micRespv2l3_2024-01-24_16h43.08.773.wav;280.6789396;281.1789999;None;280.6789396;280.6789396;280.6789396;280.6789396;280.6789396;280.6789396;;;;;;460203;1;2024-01-24_16h38.36.496;REPSWITCH1_version2_list3;2022.2.4;144.0158538;
REPSWITCH1/PICTURE_235.png;aguja;type;gold;switch;1;T;3;2;3;2;Stim4_Set3;0;None;57;56;57;0;56;56;56;;;;;;;;;;;;;;;;;;;;;;;281.1789999;282.227777;282.227777;282.227777;282.227777;282.227777;282.227777;282.227777;282.227777;['a', 'g', 'u', 'j', 'a'];0;[1.1038228003308177, 1.2911275001242757, 1.5143302995711565, 1.7250522999092937, 1.801830600015819];aguja;C:\2023\REPSWITCH21092023\REPSWITCH_excgange\REPSWITCH_excgange\data/460203_REPSWITCH1_version2_list3_2024-01-24_16h38.36.496_micRespv2l3_recorded\recording_micRespv2l3_2024-01-24_16h43.13.342.wav;285.2490146;285.7490753;None;285.2490146;285.2490146;285.2490146;285.2490146;285.2490146;285.2490146;;;;;;460203;1;2024-01-24_16h38.36.496;REPSWITCH1_version2_list3;2022.2.4;144.0158538;
REPSWITCH1/PICTURE_391.png;cadena;type;gold;filler;1;F;3;2;3;2;Extra2;0;None;58;57;58;0;57;57;57;;;;;;;;;;;;;;;;;;;;;;;285.7490753;286.832564;286.832564;286.832564;286.832564;286.832564;286.832564;286.832564;286.832564;['c', 'a', 'd', 'e', 'n', 'a'];0;[1.5663082003593445, 1.71779889985919, 1.8753513004630804, 2.006821599788964, 2.270570100285113, 2.6073866998776793];cadena;C:\2023\REPSWITCH21092023\REPSWITCH_excgange\REPSWITCH_excgange\data/460203_REPSWITCH1_version2_list3_2024-01-24_16h38.36.496_micRespv2l3_recorded\recording_micRespv2l3_2024-01-24_16h43.17.948.wav;289.8607361;;None;289.8607361;289.8607361;289.8607361;289.8607361;289.8607361;289.8607361;;;;;;460203;1;2024-01-24_16h38.36.496;REPSWITCH1_version2_list3;2022.2.4;144.0158538;
REPSWITCH1/PICTURE_320.png;iglesia;type;gold;nontarget;1;NT;3;2;3;2;Stim8_Set3;0;None;59;58;59;0;58;58;58;;;;;;;;;;;;;;;;;;;;;;;290.3607927;291.4303602;291.4303602;291.4303602;291.4303602;291.4303602;291.4303602;291.4303602;291.4303602;['i', 'g', 'l', 'e', 's', 'i', 'a'];0;[1.0998056000098586, 1.2873529000207782, 1.4175952998921275, 1.5371921993792057, 1.8341951994225383, 2.380531999282539, 2.5426802998408675];iglesia;C:\2023\REPSWITCH21092023\REPSWITCH_excgange\REPSWITCH_excgange\data/460203_REPSWITCH1_version2_list3_2024-01-24_16h38.36.496_micRespv2l3_recorded\recording_micRespv2l3_2024-01-24_16h43.22.545.wav;294.4516317;294.9516622;None;294.4516317;294.4516317;294.4516317;294.4516317;294.4516317;294.4516317;;;;;;460203;1;2024-01-24_16h38.36.496;REPSWITCH1_version2_list3;2022.2.4;144.0158538;
REPSWITCH1/PICTURE_320.png;iglesia;speak;darkblue;switch;2;T;3;2;3;2;Stim8_Set3;0;None;60;59;60;0;59;59;59;;;;;;;;;;;;;;;;;;;;;;;294.9516622;296.0004018;296.0004018;296.0004018;296.0004018;296.0004018;296.0004018;296.0004018;296.0004018;None;0;;;C:\2023\REPSWITCH21092023\REPSWITCH_excgange\REPSWITCH_excgange\data/460203_REPSWITCH1_version2_list3_2024-01-24_16h38.36.496_micRespv2l3_recorded\recording_micRespv2l3_2024-01-24_16h43.27.115.wav;299.0216815;299.5217902;None;299.0216815;299.0216815;299.0216815;299.0216815;299.0216815;299.0216815;;;;;;460203;1;2024-01-24_16h38.36.496;REPSWITCH1_version2_list3;2022.2.4;144.0158538;
REPSWITCH1/PICTURE_175.png;pintor;type;gold;filler;1;F;3;2;3;2;Stim1_Set2;0;None;61;60;61;0;60;60;60;;;;;;;;;;;;;;;;;;;;;;;299.5217902;300.626037;300.626037;300.626037;300.626037;300.626037;300.626037;300.626037;300.626037;['p', 'i', 'n', 't', 'o', 'r'];0;[0.9160777004435658, 1.2596372002735734, 1.451953100040555, 1.6526264008134604, 1.7154217008501291, 1.871046000160277];pintor;C:\2023\REPSWITCH21092023\REPSWITCH_excgange\REPSWITCH_excgange\data/460203_REPSWITCH1_version2_list3_2024-01-24_16h38.36.496_micRespv2l3_recorded\recording_micRespv2l3_2024-01-24_16h43.31.740.wav;303.6472727;304.147293;None;303.6472727;303.6472727;303.6472727;303.6472727;303.6472727;303.6472727;;;;;;460203;1;2024-01-24_16h38.36.496;REPSWITCH1_version2_list3;2022.2.4;144.0158538;
REPSWITCH1/PICTURE_271.png;conejo;speak;darkblue;nontarget;2;NT;3;2;3;2;Stim7_Set3;1;switch;62;61;62;0;61;61;61;;;;;;;;;;;;;;;;;;;;;;;304.147293;305.2655482;305.2655482;305.2655482;305.2655482;305.2655482;305.2655482;305.2655482;305.2655482;None;0;;;C:\2023\REPSWITCH21092023\REPSWITCH_excgange\REPSWITCH_excgange\data/460203_REPSWITCH1_version2_list3_2024-01-24_16h38.36.496_micRespv2l3_recorded\recording_micRespv2l3_2024-01-24_16h43.36.381.wav;308.2937828;;None;308.2937828;308.2937828;308.2937828;308.2937828;308.2937828;308.2937828;;;;;;460203;1;2024-01-24_16h38.36.496;REPSWITCH1_version2_list3;2022.2.4;144.0158538;
REPSWITCH1/PICTURE_271.png;conejo;speak;darkblue;repeat;2;T;3;2;3;2;Stim7_Set3;0;None;63;62;63;0;62;62;62;;;;;;;;;;;;;;;;;;;;;;;308.7937516;309.9814871;309.9814871;309.9814871;309.9814871;309.9814871;309.9814871;309.9814871;309.9814871;None;0;;;C:\2023\REPSWITCH21092023\REPSWITCH_excgange\REPSWITCH_excgange\data/460203_REPSWITCH1_version2_list3_2024-01-24_16h38.36.496_micRespv2l3_recorded\recording_micRespv2l3_2024-01-24_16h43.41.096.wav;313.0095866;;None;313.0095866;313.0095866;313.0095866;313.0095866;313.0095866;313.0095866;;;;;;460203;1;2024-01-24_16h38.36.496;REPSWITCH1_version2_list3;2022.2.4;144.0158538;
REPSWITCH1/PICTURE_446.png;cerdo;speak;darkblue;filler;2;F;3;2;3;2;Stim7_Set2;0;None;64;63;64;0;63;63;63;;;;;;;;;;;;;;;;;;;;;;;313.5096586;314.6556706;314.6556706;314.6556706;314.6556706;314.6556706;314.6556706;314.6556706;314.6556706;None;0;;;C:\2023\REPSWITCH21092023\REPSWITCH_excgange\REPSWITCH_excgange\data/460203_REPSWITCH1_version2_list3_2024-01-24_16h38.36.496_micRespv2l3_recorded\recording_micRespv2l3_2024-01-24_16h43.45.770.wav;317.6838224;;None;317.6838224;317.6838224;317.6838224;317.6838224;317.6838224;317.6838224;;;;;;460203;1;2024-01-24_16h38.36.496;REPSWITCH1_version2_list3;2022.2.4;144.0158538;
REPSWITCH1/PICTURE_152.png;caracol;type;gold;filler;1;F;3;2;3;2;Stim2_Set2;0;None;65;64;65;0;64;64;64;;;;;;;;;;;;;;;;;;;;;;;318.1838964;319.274312;319.274312;319.274312;319.274312;319.274312;319.274312;319.274312;319.274312;['c', 'a', 'r', 'a', 'c', 'o', 'l'];0;[0.9141292003914714, 1.0668584005907178, 1.1505725998431444, 1.2651826003566384, 1.454560900107026, 1.611014200374484, 1.8562861001119018];caracol;C:\2023\REPSWITCH21092023\REPSWITCH_excgange\REPSWITCH_excgange\data/460203_REPSWITCH1_version2_list3_2024-01-24_16h38.36.496_micRespv2l3_recorded\recording_micRespv2l3_2024-01-24_16h43.50.389.wav;322.2956053;322.7956104;None;322.2956053;322.2956053;322.2956053;322.2956053;322.2956053;322.2956053;;;;;;460203;1;2024-01-24_16h38.36.496;REPSWITCH1_version2_list3;2022.2.4;144.0158538;
REPSWITCH1/PICTURE_576.png;guante;speak;darkblue;nontarget;2;NT;3;2;3;2;Stim1_Set3;1;switch;66;65;66;0;65;65;65;;;;;;;;;;;;;;;;;;;;;;;322.7956104;323.9276716;323.9276716;323.9276716;323.9276716;323.9276716;323.9276716;323.9276716;323.9276716;None;0;;;C:\2023\REPSWITCH21092023\REPSWITCH_excgange\REPSWITCH_excgange\data/460203_REPSWITCH1_version2_list3_2024-01-24_16h38.36.496_micRespv2l3_recorded\recording_micRespv2l3_2024-01-24_16h43.55.043.wav;326.9558775;;None;326.9558775;326.9558775;326.9558775;326.9558775;326.9558775;326.9558775;;;;;;460203;1;2024-01-24_16h38.36.496;REPSWITCH1_version2_list3;2022.2.4;144.0158538;
REPSWITCH1/PICTURE_576.png;guante;speak;darkblue;repeat;2;T;3;2;3;2;Stim1_Set3;0;None;67;66;67;0;66;66;66;;;;;;;;;;;;;;;;;;;;;;;327.4559468;328.5672305;328.5672305;328.5672305;328.5672305;328.5672305;328.5672305;328.5672305;328.5672305;None;0;;;C:\2023\REPSWITCH21092023\REPSWITCH_excgange\REPSWITCH_excgange\data/460203_REPSWITCH1_version2_list3_2024-01-24_16h38.36.496_micRespv2l3_recorded\recording_micRespv2l3_2024-01-24_16h43.59.681.wav;331.5884903;332.088495;None;331.5884903;331.5884903;331.5884903;331.5884903;331.5884903;331.5884903;;;;;;460203;1;2024-01-24_16h38.36.496;REPSWITCH1_version2_list3;2022.2.4;144.0158538;
REPSWITCH1/PICTURE_242.png;cartero;speak;darkblue;nontarget;2;NT;3;2;3;2;Stim3_Set3;0;None;68;67;68;0;67;67;67;;;;;;;;;;;;;;;;;;;;;;;332.088495;333.2414128;333.2414128;333.2414128;333.2414128;333.2414128;333.2414128;333.2414128;333.2414128;None;0;;;C:\2023\REPSWITCH21092023\REPSWITCH_excgange\REPSWITCH_excgange\data/460203_REPSWITCH1_version2_list3_2024-01-24_16h38.36.496_micRespv2l3_recorded\recording_micRespv2l3_2024-01-24_16h44.04.355.wav;336.2626582;336.7627215;None;336.2626582;336.2626582;336.2626582;336.2626582;336.2626582;336.2626582;;;;;;460203;1;2024-01-24_16h38.36.496;REPSWITCH1_version2_list3;2022.2.4;144.0158538;
REPSWITCH1/PICTURE_242.png;cartero;type;gold;switch;1;T;3;2;3;2;Stim3_Set3;0;None;69;68;69;0;68;68;68;;;;;;;;;;;;;;;;;;;;;;;336.7627215;337.8392376;337.8392376;337.8392376;337.8392376;337.8392376;337.8392376;337.8392376;337.8392376;['c', 'a', 'r', 't', 'e', 'r', 'o'];0;[0.8146577998995781, 0.9113767994567752, 1.0548329995945096, 1.2940317001193762, 1.373772899620235, 1.4877787996083498, 1.6362199997529387];cartero;C:\2023\REPSWITCH21092023\REPSWITCH_excgange\REPSWITCH_excgange\data/460203_REPSWITCH1_version2_list3_2024-01-24_16h38.36.496_micRespv2l3_recorded\recording_micRespv2l3_2024-01-24_16h44.08.954.wav;340.8604498;341.3605276;None;340.8604498;340.8604498;340.8604498;340.8604498;340.8604498;340.8604498;;;;;;460203;1;2024-01-24_16h38.36.496;REPSWITCH1_version2_list3;2022.2.4;144.0158538;
REPSWITCH1/PICTURE_517.png;cuerda;speak;darkblue;filler;2;F;3;2;3;2;Stim4_Set2;0;None;70;69;70;0;69;69;69;;;;;;;;;;;;;;;;;;;;;;;341.3605276;342.4510162;342.4510162;342.4510162;342.4510162;342.4510162;342.4510162;342.4510162;342.4510162;None;0;;;C:\2023\REPSWITCH21092023\REPSWITCH_excgange\REPSWITCH_excgange\data/460203_REPSWITCH1_version2_list3_2024-01-24_16h38.36.496_micRespv2l3_recorded\recording_micRespv2l3_2024-01-24_16h44.13.566.wav;345.4791721;;None;345.4791721;345.4791721;345.4791721;345.4791721;345.4791721;345.4791721;;;;;;460203;1;2024-01-24_16h38.36.496;REPSWITCH1_version2_list3;2022.2.4;144.0158538;
REPSWITCH1/PICTURE_646.png;tronco;type;gold;filler;1;F;3;2;3;2;Extra4;0;None;71;70;71;0;70;70;70;;;;;;;;;;;;;;;;;;;;;;;345.9792064;347.0279435;347.0279435;347.0279435;347.0279435;347.0279435;347.0279435;347.0279435;347.0279435;['t', 'r', 'n', 'c', 'o'];0;[1.2704851999878883, 1.280401300638914, 1.8399612000212073, 2.0435095001012087, 2.136251199990511];trnco;C:\2023\REPSWITCH21092023\REPSWITCH_excgange\REPSWITCH_excgange\data/460203_REPSWITCH1_version2_list3_2024-01-24_16h38.36.496_micRespv2l3_recorded\recording_micRespv2l3_2024-01-24_16h44.18.143.wav;350.056128;;None;350.056128;350.056128;350.056128;350.056128;350.056128;350.056128;;;;;;460203;1;2024-01-24_16h38.36.496;REPSWITCH1_version2_list3;2022.2.4;144.0158538;
REPSWITCH1/PICTURE_35.png;oreja;type;gold;nontarget;1;NT;3;2;3;2;Stim5_Set3;1;repeat;72;71;72;0;71;71;71;;;;;;;;;;;;;;;;;;;;;;;350.5561961;351.5910738;351.5910738;351.5910738;351.5910738;351.5910738;351.5910738;351.5910738;351.5910738;['o', 'r', 'e', 'j', 'a'];0;[1.4592369999736547, 1.6137108001857996, 1.6616153996437788, 1.9080870002508163, 2.0037494003772736];oreja;C:\2023\REPSWITCH21092023\REPSWITCH_excgange\REPSWITCH_excgange\data/460203_REPSWITCH1_version2_list3_2024-01-24_16h38.36.496_micRespv2l3_recorded\recording_micRespv2l3_2024-01-24_16h44.22.707.wav;354.619193;;None;354.619193;354.619193;354.619193;354.619193;354.619193;354.619193;;;;;;460203;1;2024-01-24_16h38.36.496;REPSWITCH1_version2_list3;2022.2.4;144.0158538;
REPSWITCH1/PICTURE_35.png;oreja;type;gold;repeat;1;T;3;2;3;2;Stim5_Set3;0;None;73;72;73;0;72;72;72;;;;;;;;;;;;;;;;;;;;;;;355.1192568;356.1611319;356.1611319;356.1611319;356.1611319;356.1611319;356.1611319;356.1611319;356.1611319;['o', 'r', 'e', 'j', 'a'];0;[1.0769164003431797, 1.2254170002415776, 1.2752446997910738, 1.603867500089109, 2.08888310007751];oreja;C:\2023\REPSWITCH21092023\REPSWITCH_excgange\REPSWITCH_excgange\data/460203_REPSWITCH1_version2_list3_2024-01-24_16h38.36.496_micRespv2l3_recorded\recording_micRespv2l3_2024-01-24_16h44.27.276.wav;359.1893277;;None;359.1893277;359.1893277;359.1893277;359.1893277;359.1893277;359.1893277;;;;;;460203;1;2024-01-24_16h38.36.496;REPSWITCH1_version2_list3;2022.2.4;144.0158538;
REPSWITCH1/PICTURE_199.png;falda;speak;darkblue;filler;2;F;3;2;3;2;Stim8_Set2;0;None;74;73;74;0;73;73;73;;;;;;;;;;;;;;;;;;;;;;;359.6893042;360.8353027;360.8353027;360.8353027;360.8353027;360.8353027;360.8353027;360.8353027;360.8353027;None;0;;;C:\2023\REPSWITCH21092023\REPSWITCH_excgange\REPSWITCH_excgange\data/460203_REPSWITCH1_version2_list3_2024-01-24_16h38.36.496_micRespv2l3_recorded\recording_micRespv2l3_2024-01-24_16h44.31.951.wav;363.8635426;;None;363.8635426;363.8635426;363.8635426;363.8635426;363.8635426;363.8635426;;;;;;460203;1;2024-01-24_16h38.36.496;REPSWITCH1_version2_list3;2022.2.4;144.0158538;
REPSWITCH1/PICTURE_610.png;miel;type;gold;nontarget;1;NT;3;2;3;2;Stim2_Set3;1;switch;75;74;75;0;74;74;74;;;;;;;;;;;;;;;;;;;;;;;364.3635687;365.4400846;365.4400846;365.4400846;365.4400846;365.4400846;365.4400846;365.4400846;365.4400846;['m', 'i', 'l', 'backspace', 'e', 'l'];0;[1.398262900300324, 1.6752388002350926, 1.9523079004138708, 2.3733861995860934, 2.6087119998410344, 2.759745099581778];miel;C:\2023\REPSWITCH21092023\REPSWITCH_excgange\REPSWITCH_excgange\data/460203_REPSWITCH1_version2_list3_2024-01-24_16h38.36.496_micRespv2l3_recorded\recording_micRespv2l3_2024-01-24_16h44.36.555.wav;368.4612995;368.9613688;None;368.4612995;368.4612995;368.4612995;368.4612995;368.4612995;368.4612995;;;;;;460203;1;2024-01-24_16h38.36.496;REPSWITCH1_version2_list3;2022.2.4;144.0158538;
REPSWITCH1/PICTURE_610.png;miel;type;gold;repeat;1;T;3;2;3;2;Stim2_Set3;0;None;76;75;76;0;75;75;75;;;;;;;;;;;;;;;;;;;;;;;368.9613688;370.0378976;370.0378976;370.0378976;370.0378976;370.0378976;370.0378976;370.0378976;370.0378976;['m', 'i', 'e', 'l'];0;[1.1182859996333718, 1.3006720999255776, 1.4131568996235728, 1.5447051003575325];miel;C:\2023\REPSWITCH21092023\REPSWITCH_excgange\REPSWITCH_excgange\data/460203_REPSWITCH1_version2_list3_2024-01-24_16h38.36.496_micRespv2l3_recorded\recording_micRespv2l3_2024-01-24_16h44.41.152.wav;373.0591185;373.5592159;None;373.0591185;373.0591185;373.0591185;373.0591185;373.0591185;373.0591185;;;;;;460203;1;2024-01-24_16h38.36.496;REPSWITCH1_version2_list3;2022.2.4;144.0158538;
REPSWITCH1/PICTURE_264.png;mano;type;gold;filler;1;F;3;2;3;2;Stim3_Set2;1;repeat;77;76;77;0;76;76;76;;;;;;;;;;;;;;;;;;;;;;;373.5592159;374.6427421;374.6427421;374.6427421;374.6427421;374.6427421;374.6427421;374.6427421;374.6427421;['m', 'a', 'n', 'o'];0;[0.6874957997351885, 0.8200715994462371, 0.94664999935776, 1.1531143998727202];mano;C:\2023\REPSWITCH21092023\REPSWITCH_excgange\REPSWITCH_excgange\data/460203_REPSWITCH1_version2_list3_2024-01-24_16h38.36.496_micRespv2l3_recorded\recording_micRespv2l3_2024-01-24_16h44.45.758.wav;377.6708723;;None;377.6708723;377.6708723;377.6708723;377.6708723;377.6708723;377.6708723;;;;;;460203;1;2024-01-24_16h38.36.496;REPSWITCH1_version2_list3;2022.2.4;144.0158538;
REPSWITCH1/PICTURE_464.png;goma;speak;darkblue;filler;2;F;4;2;3;2;Stim6_Set3;0;None;78;77;78;0;77;77;77;;;;;;;;;;;;;;;;;;;;;;;378.1709336;379.4072187;379.4072187;379.4072187;379.4072187;379.4072187;379.4072187;379.4072187;379.4072187;None;0;;;C:\2023\REPSWITCH21092023\REPSWITCH_excgange\REPSWITCH_excgange\data/460203_REPSWITCH1_version2_list3_2024-01-24_16h38.36.496_micRespv2l3_recorded\recording_micRespv2l3_2024-01-24_16h44.50.522.wav;382.4284126;382.9284794;None;382.4284126;382.4284126;382.4284126;382.4284126;382.4284126;382.4284126;;;;;;460203;1;2024-01-24_16h38.36.496;REPSWITCH1_version2_list3;2022.2.4;144.0158538;
REPSWITCH1/PICTURE_8.png;pierna;type;gold;nontarget;1;NT;4;2;3;2;Stim3_Set4;1;switch;79;78;79;0;78;78;78;;;;;;;;;;;;;;;;;;;;;;;382.9284794;384.0605907;384.0605907;384.0605907;384.0605907;384.0605907;384.0605907;384.0605907;384.0605907;['p', 'i', 'e', 'r', 'n', 'a'];0;[1.033377700485289, 1.2990365996956825, 1.4324652003124356, 1.50465780030936, 1.7036318005993962, 1.8541555004194379];pierna;C:\2023\REPSWITCH21092023\REPSWITCH_excgange\REPSWITCH_excgange\data/460203_REPSWITCH1_version2_list3_2024-01-24_16h38.36.496_micRespv2l3_recorded\recording_micRespv2l3_2024-01-24_16h44.55.175.wav;387.0818969;387.5818923;None;387.0818969;387.0818969;387.0818969;387.0818969;387.0818969;387.0818969;;;;;;460203;1;2024-01-24_16h38.36.496;REPSWITCH1_version2_list3;2022.2.4;144.0158538;
REPSWITCH1/PICTURE_8.png;pierna;type;gold;repeat;1;T;4;2;3;2;Stim3_Set4;0;None;80;79;80;0;79;79;79;;;;;;;;;;;;;;;;;;;;;;;387.5818923;388.6654579;388.6654579;388.6654579;388.6654579;388.6654579;388.6654579;388.6654579;388.6654579;['p', 'i', 'e', 'r', 'n', 'a'];0;[0.755057199858129, 1.1447636997327209, 1.2603639997541904, 1.3132547000423074, 1.5368683999404311, 1.7306925999000669];pierna;C:\2023\REPSWITCH21092023\REPSWITCH_excgange\REPSWITCH_excgange\data/460203_REPSWITCH1_version2_list3_2024-01-24_16h38.36.496_micRespv2l3_recorded\recording_micRespv2l3_2024-01-24_16h44.59.780.wav;391.6865834;392.1866605;None;391.6865834;391.6865834;391.6865834;391.6865834;391.6865834;391.6865834;;;;;;460203;1;2024-01-24_16h38.36.496;REPSWITCH1_version2_list3;2022.2.4;144.0158538;
REPSWITCH1/PICTURE_728.png;pulpo;type;gold;nontarget;1;NT;4;2;3;2;Stim8_Set4;1;repeat;81;80;81;0;80;80;80;;;;;;;;;;;;;;;;;;;;;;;392.1866605;393.3188192;393.3188192;393.3188192;393.3188192;393.3188192;393.3188192;393.3188192;393.3188192;['p', 'u', 'l', 'p', 'o'];0;[0.9639128996059299, 1.6539340997114778, 2.1059086993336678, 2.403349899686873, 2.661691799759865];pulpo;C:\2023\REPSWITCH21092023\REPSWITCH_excgange\REPSWITCH_excgange\data/460203_REPSWITCH1_version2_list3_2024-01-24_16h38.36.496_micRespv2l3_recorded\recording_micRespv2l3_2024-01-24_16h45.04.434.wav;396.346943;;None;396.346943;396.346943;396.346943;396.346943;396.346943;396.346943;;;;;;460203;1;2024-01-24_16h38.36.496;REPSWITCH1_version2_list3;2022.2.4;144.0158538;
REPSWITCH1/PICTURE_728.png;pulpo;speak;darkblue;switch;2;T;4;2;3;2;Stim8_Set4;0;None;82;81;82;0;81;81;81;;;;;;;;;;;;;;;;;;;;;;;396.8469581;398.0068642;398.0068642;398.0068642;398.0068642;398.0068642;398.0068642;398.0068642;398.0068642;None;0;;;C:\2023\REPSWITCH21092023\REPSWITCH_excgange\REPSWITCH_excgange\data/460203_REPSWITCH1_version2_list3_2024-01-24_16h38.36.496_micRespv2l3_recorded\recording_micRespv2l3_2024-01-24_16h45.09.122.wav;401.0351154;;None;401.0351154;401.0351154;401.0351154;401.0351154;401.0351154;401.0351154;;;;;;460203;1;2024-01-24_16h38.36.496;REPSWITCH1_version2_list3;2022.2.4;144.0158538;
REPSWITCH1/PICTURE_235.png;aguja;type;gold;filler;1;F;4;2;3;2;Stim4_Set3;0;None;83;82;83;0;82;82;82;;;;;;;;;;;;;;;;;;;;;;;401.5351095;402.6116271;402.6116271;402.6116271;402.6116271;402.6116271;402.6116271;402.6116271;402.6116271;['a', 'g', 'u', 'j', 'a'];0;[0.7969041001051664, 1.0964118000119925, 1.3391610998660326, 1.577016499824822, 1.6298719998449087];aguja;C:\2023\REPSWITCH21092023\REPSWITCH_excgange\REPSWITCH_excgange\data/460203_REPSWITCH1_version2_list3_2024-01-24_16h38.36.496_micRespv2l3_recorded\recording_micRespv2l3_2024-01-24_16h45.13.726.wav;405.6328511;406.1329236;None;405.6328511;405.6328511;405.6328511;405.6328511;405.6328511;405.6328511;;;;;;460203;1;2024-01-24_16h38.36.496;REPSWITCH1_version2_list3;2022.2.4;144.0158538;
REPSWITCH1/PICTURE_498.png;taza;speak;darkblue;nontarget;2;NT;4;2;3;2;Stim4_Set4;1;switch;84;83;84;0;83;83;83;;;;;;;;;;;;;;;;;;;;;;;406.1329236;407.3692264;407.3692264;407.3692264;407.3692264;407.3692264;407.3692264;407.3692264;407.3692264;None;0;;;C:\2023\REPSWITCH21092023\REPSWITCH_excgange\REPSWITCH_excgange\data/460203_REPSWITCH1_version2_list3_2024-01-24_16h38.36.496_micRespv2l3_recorded\recording_micRespv2l3_2024-01-24_16h45.18.484.wav;410.3904006;410.890578;None;410.3904006;410.3904006;410.3904006;410.3904006;410.3904006;410.3904006;;;;;;460203;1;2024-01-24_16h38.36.496;REPSWITCH1_version2_list3;2022.2.4;144.0158538;
REPSWITCH1/PICTURE_498.png;taza;speak;darkblue;repeat;2;T;4;2;3;2;Stim4_Set4;0;None;85;84;85;0;84;84;84;;;;;;;;;;;;;;;;;;;;;;;410.890578;411.9739939;411.9739939;411.9739939;411.9739939;411.9739939;411.9739939;411.9739939;411.9739939;None;0;;;C:\2023\REPSWITCH21092023\REPSWITCH_excgange\REPSWITCH_excgange\data/460203_REPSWITCH1_version2_list3_2024-01-24_16h38.36.496_micRespv2l3_recorded\recording_micRespv2l3_2024-01-24_16h45.23.088.wav;414.9952153;415.4952594;None;414.9952153;414.9952153;414.9952153;414.9952153;414.9952153;414.9952153;;;;;;460203;1;2024-01-24_16h38.36.496;REPSWITCH1_version2_list3;2022.2.4;144.0158538;
REPSWITCH1/PICTURE_719.png;baño;speak;darkblue;nontarget;2;NT;4;2;3;2;Stim2_Set4;0;None;86;85;86;0;85;85;85;;;;;;;;;;;;;;;;;;;;;;;415.4952594;416.551033;416.551033;416.551033;416.551033;416.551033;416.551033;416.551033;416.551033;None;0;;;C:\2023\REPSWITCH21092023\REPSWITCH_excgange\REPSWITCH_excgange\data/460203_REPSWITCH1_version2_list3_2024-01-24_16h38.36.496_micRespv2l3_recorded\recording_micRespv2l3_2024-01-24_16h45.27.665.wav;419.5722068;420.0723035;None;419.5722068;419.5722068;419.5722068;419.5722068;419.5722068;419.5722068;;;;;;460203;1;2024-01-24_16h38.36.496;REPSWITCH1_version2_list3;2022.2.4;144.0158538;
REPSWITCH1/PICTURE_719.png;baño;type;gold;switch;1;T;4;2;3;2;Stim2_Set4;0;None;87;86;87;0;86;86;86;;;;;;;;;;;;;;;;;;;;;;;420.0723035;421.239078;421.239078;421.239078;421.239078;421.239078;421.239078;421.239078;421.239078;['b', 'ñ', 'o', 'backspace', 'backspace', 'a'];0;[0.7027328992262483, 1.3429640997201204, 1.5742031000554562, 2.2020630994811654, 2.4033800000324845, 2.535026199184358];ba;C:\2023\REPSWITCH21092023\REPSWITCH_excgange\REPSWITCH_excgange\data/460203_REPSWITCH1_version2_list3_2024-01-24_16h38.36.496_micRespv2l3_recorded\recording_micRespv2l3_2024-01-24_16h45.32.354.wav;424.2602928;424.7604195;None;424.2602928;424.2602928;424.2602928;424.2602928;424.2602928;424.2602928;;;;;;460203;1;2024-01-24_16h38.36.496;REPSWITCH1_version2_list3;2022.2.4;144.0158538;
REPSWITCH1/PICTURE_320.png;iglesia;speak;darkblue;filler;2;F;4;2;3;2;Stim8_Set3;0;None;88;87;88;0;87;87;87;;;;;;;;;;;;;;;;;;;;;;;424.7604195;425.836906;425.836906;425.836906;425.836906;425.836906;425.836906;425.836906;425.836906;None;0;;;C:\2023\REPSWITCH21092023\REPSWITCH_excgange\REPSWITCH_excgange\data/460203_REPSWITCH1_version2_list3_2024-01-24_16h38.36.496_micRespv2l3_recorded\recording_micRespv2l3_2024-01-24_16h45.36.951.wav;428.858131;429.358203;None;428.858131;428.858131;428.858131;428.858131;428.858131;428.858131;;;;;;460203;1;2024-01-24_16h38.36.496;REPSWITCH1_version2_list3;2022.2.4;144.0158538;
REPSWITCH1/PICTURE_48.png;bombero;type;gold;nontarget;1;NT;4;2;3;2;Stim7_Set4;1;switch;89;88;89;0;88;88;88;;;;;;;;;;;;;;;;;;;;;;;429.358203;430.4695256;430.4695256;430.4695256;430.4695256;430.4695256;430.4695256;430.4695256;430.4695256;['b', 'o', 'm', 'b', 'e', 'r', 'o'];0;[1.5522063001990318, 1.7018905002623796, 1.9321595001965761, 2.2772096004337072, 2.4878756999969482, 2.544625099748373, 2.733233300037682];bombero;C:\2023\REPSWITCH21092023\REPSWITCH_excgange\REPSWITCH_excgange\data/460203_REPSWITCH1_version2_list3_2024-01-24_16h38.36.496_micRespv2l3_recorded\recording_micRespv2l3_2024-01-24_16h45.41.583.wav;433.4907687;433.9907693;None;433.4907687;433.4907687;433.4907687;433.4907687;433.4907687;433.4907687;;;;;;460203;1;2024-01-24_16h38.36.496;REPSWITCH1_version2_list3;2022.2.4;144.0158538;
REPSWITCH1/PICTURE_48.png;bombero;speak;darkblue;switch;2;T;4;2;3;2;Stim7_Set4;0;None;90;89;90;0;89;89;89;;;;;;;;;;;;;;;;;;;;;;;433.9907693;435.1854005;435.1854005;435.1854005;435.1854005;435.1854005;435.1854005;435.1854005;435.1854005;None;0;;;C:\2023\REPSWITCH21092023\REPSWITCH_excgange\REPSWITCH_excgange\data/460203_REPSWITCH1_version2_list3_2024-01-24_16h38.36.496_micRespv2l3_recorded\recording_micRespv2l3_2024-01-24_16h45.46.299.wav;438.2066321;438.7066616;None;438.2066321;438.2066321;438.2066321;438.2066321;438.2066321;438.2066321;;;;;;460203;1;2024-01-24_16h38.36.496;REPSWITCH1_version2_list3;2022.2.4;144.0158538;
REPSWITCH1/PICTURE_576.png;guante;type;gold;filler;1;F;4;2;3;2;Stim1_Set3;0;None;91;90;91;0;90;90;90;;;;;;;;;;;;;;;;;;;;;;;438.7066616;439.8457644;439.8457644;439.8457644;439.8457644;439.8457644;439.8457644;439.8457644;439.8457644;['g', 'u', 'a', 'n', 't', 'e'];0;[1.0313053000718355, 1.1510077994316816, 1.3034079996868968, 1.553545099683106, 1.6791423996910453, 1.7180337002500892];guante;C:\2023\REPSWITCH21092023\REPSWITCH_excgange\REPSWITCH_excgange\data/460203_REPSWITCH1_version2_list3_2024-01-24_16h38.36.496_micRespv2l3_recorded\recording_micRespv2l3_2024-01-24_16h45.50.960.wav;442.8669153;443.3670724;None;442.8669153;442.8669153;442.8669153;442.8669153;442.8669153;442.8669153;;;;;;460203;1;2024-01-24_16h38.36.496;REPSWITCH1_version2_list3;2022.2.4;144.0158538;
REPSWITCH1/PICTURE_271.png;conejo;speak;darkblue;filler;2;F;4;2;3;2;Stim7_Set3;0;None;92;91;92;0;91;91;91;;;;;;;;;;;;;;;;;;;;;;;443.3670724;444.4504623;444.4504623;444.4504623;444.4504623;444.4504623;444.4504623;444.4504623;444.4504623;None;0;;;C:\2023\REPSWITCH21092023\REPSWITCH_excgange\REPSWITCH_excgange\data/460203_REPSWITCH1_version2_list3_2024-01-24_16h38.36.496_micRespv2l3_recorded\recording_micRespv2l3_2024-01-24_16h45.55.566.wav;447.4786542;;None;447.4786542;447.4786542;447.4786542;447.4786542;447.4786542;447.4786542;;;;;;460203;1;2024-01-24_16h38.36.496;REPSWITCH1_version2_list3;2022.2.4;144.0158538;
REPSWITCH1/PICTURE_319.png;vaca;speak;darkblue;nontarget;2;NT;4;2;3;2;Stim1_Set4;1;repeat;93;92;93;0;92;92;92;;;;;;;;;;;;;;;;;;;;;;;447.9787112;449.0413553;449.0413553;449.0413553;449.0413553;449.0413553;449.0413553;449.0413553;449.0413553;None;0;;;C:\2023\REPSWITCH21092023\REPSWITCH_excgange\REPSWITCH_excgange\data/460203_REPSWITCH1_version2_list3_2024-01-24_16h38.36.496_micRespv2l3_recorded\recording_micRespv2l3_2024-01-24_16h46.00.156.wav;452.0695241;;None;452.0695241;452.0695241;452.0695241;452.0695241;452.0695241;452.0695241;;;;;;460203;1;2024-01-24_16h38.36.496;REPSWITCH1_version2_list3;2022.2.4;144.0158538;
REPSWITCH1/PICTURE_319.png;vaca;speak;darkblue;repeat;2;T;4;2;3;2;Stim1_Set4;0;None;94;93;94;0;93;93;93;;;;;;;;;;;;;;;;;;;;;;;452.5695996;453.5905461;453.5905461;453.5905461;453.5905461;453.5905461;453.5905461;453.5905461;453.5905461;None;0;;;C:\2023\REPSWITCH21092023\REPSWITCH_excgange\REPSWITCH_excgange\data/460203_REPSWITCH1_version2_list3_2024-01-24_16h38.36.496_micRespv2l3_recorded\recording_micRespv2l3_2024-01-24_16h46.04.706.wav;456.6117868;457.1118536;None;456.6117868;456.6117868;456.6117868;456.6117868;456.6117868;456.6117868;;;;;;460203;1;2024-01-24_16h38.36.496;REPSWITCH1_version2_list3;2022.2.4;144.0158538;
REPSWITCH1/PICTURE_242.png;cartero;type;gold;filler;1;F;4;2;3;2;Stim3_Set3;0;None;95;94;95;0;94;94;94;;;;;;;;;;;;;;;;;;;;;;;457.1118536;458.2647814;458.2647814;458.2647814;458.2647814;458.2647814;458.2647814;458.2647814;458.2647814;['c', 'a', 'r', 't', 'e', 'r', 'o'];0;[1.3865169007331133, 1.5061420006677508, 1.6436846004799008, 1.8440175000578165, 1.903813499957323, 2.0134425004944205, 2.2440490005537868];cartero;C:\2023\REPSWITCH21092023\REPSWITCH_excgange\REPSWITCH_excgange\data/460203_REPSWITCH1_version2_list3_2024-01-24_16h38.36.496_micRespv2l3_recorded\recording_micRespv2l3_2024-01-24_16h46.09.379.wav;461.286016;461.7860559;None;461.286016;461.286016;461.286016;461.286016;461.286016;461.286016;;;;;;460203;1;2024-01-24_16h38.36.496;REPSWITCH1_version2_list3;2022.2.4;144.0158538;
REPSWITCH1/PICTURE_35.png;oreja;speak;darkblue;filler;2;F;4;2;3;2;Stim5_Set3;1;switch;96;95;96;0;95;95;95;;;;;;;;;;;;;;;;;;;;;;;461.7860559;462.8903694;462.8903694;462.8903694;462.8903694;462.8903694;462.8903694;462.8903694;462.8903694;None;0;;;C:\2023\REPSWITCH21092023\REPSWITCH_excgange\REPSWITCH_excgange\data/460203_REPSWITCH1_version2_list3_2024-01-24_16h38.36.496_micRespv2l3_recorded\recording_micRespv2l3_2024-01-24_16h46.14.005.wav;465.9115999;466.4116816;None;465.9115999;465.9115999;465.9115999;465.9115999;465.9115999;465.9115999;;;;;;460203;1;2024-01-24_16h38.36.496;REPSWITCH1_version2_list3;2022.2.4;144.0158538;
REPSWITCH1/PICTURE_338.png;regalo;speak;darkblue;nontarget;2;NT;4;2;3;2;Stim6_Set4;1;repeat;97;96;97;0;96;96;96;;;;;;;;;;;;;;;;;;;;;;;466.4116816;467.48125;467.48125;467.48125;467.48125;467.48125;467.48125;467.48125;467.48125;None;0;;;C:\2023\REPSWITCH21092023\REPSWITCH_excgange\REPSWITCH_excgange\data/460203_REPSWITCH1_version2_list3_2024-01-24_16h38.36.496_micRespv2l3_recorded\recording_micRespv2l3_2024-01-24_16h46.18.595.wav;470.5025725;471.0025666;None;470.5025725;470.5025725;470.5025725;470.5025725;470.5025725;470.5025725;;;;;;460203;1;2024-01-24_16h38.36.496;REPSWITCH1_version2_list3;2022.2.4;144.0158538;
REPSWITCH1/PICTURE_338.png;regalo;type;gold;switch;1;T;4;2;3;2;Stim6_Set4;0;None;98;97;98;0;97;97;97;;;;;;;;;;;;;;;;;;;;;;;471.0025666;472.113843;472.113843;472.113843;472.113843;472.113843;472.113843;472.113843;472.113843;['r', 'e', 'g', 'a', 'l', 'o'];0;[0.8073847992345691, 0.8402745993807912, 1.0708348993211985, 1.2040781993418932, 1.3479289999231696, 1.5563608994707465];regalo;C:\2023\REPSWITCH21092023\REPSWITCH_excgange\REPSWITCH_excgange\data/460203_REPSWITCH1_version2_list3_2024-01-24_16h38.36.496_micRespv2l3_recorded\recording_micRespv2l3_2024-01-24_16h46.23.228.wav;475.1350289;475.6351023;None;475.1350289;475.1350289;475.1350289;475.1350289;475.1350289;475.1350289;;;;;;460203;1;2024-01-24_16h38.36.496;REPSWITCH1_version2_list3;2022.2.4;144.0158538;
REPSWITCH1/PICTURE_687.png;camisa;type;gold;nontarget;1;NT;4;2;3;2;Stim5_Set4;0;None;99;98;99;0;98;98;98;;;;;;;;;;;;;;;;;;;;;;;475.6351023;476.7533689;476.7533689;476.7533689;476.7533689;476.7533689;476.7533689;476.7533689;476.7533689;['c', 'a', 'm', 'o', 's', 'a', 'backspace', 'backspace', 'backspace', 'o'];0;[0.9601151002570987, 1.0427879001945257, 1.2243972001597285, 1.440353499725461, 1.588819400407374, 1.6366908997297287, 2.204122300259769, 2.3608742002397776, 2.5627905996516347, 2.9266133001074195];camo;C:\2023\REPSWITCH21092023\REPSWITCH_excgange\REPSWITCH_excgange\data/460203_REPSWITCH1_version2_list3_2024-01-24_16h38.36.496_micRespv2l3_recorded\recording_micRespv2l3_2024-01-24_16h46.27.868.wav;479.7745769;480.2746181;None;479.7745769;479.7745769;479.7745769;479.7745769;479.7745769;479.7745769;;;;;;460203;1;2024-01-24_16h38.36.496;REPSWITCH1_version2_list3;2022.2.4;144.0158538;
REPSWITCH1/PICTURE_687.png;camisa;type;gold;repeat;1;T;4;2;3;2;Stim5_Set4;0;None;100;99;100;0;99;99;99;;;;;;;;;;;;;;;;;;;;;;;480.2746181;481.3789226;481.3789226;481.3789226;481.3789226;481.3789226;481.3789226;481.3789226;481.3789226;['c', 'a', 'm', 'i', 's', 'a'];0;[0.8402938991785049, 0.9512423994019628, 1.1598368994891644, 1.3413629997521639, 1.4680385999381542, 1.587626799941063];camisa;C:\2023\REPSWITCH21092023\REPSWITCH_excgange\REPSWITCH_excgange\data/460203_REPSWITCH1_version2_list3_2024-01-24_16h38.36.496_micRespv2l3_recorded\recording_micRespv2l3_2024-01-24_16h46.32.493.wav;484.4001286;484.9002037;None;484.4001286;484.4001286;484.4001286;484.4001286;484.4001286;484.4001286;;;;;;460203;1;2024-01-24_16h38.36.496;REPSWITCH1_version2_list3;2022.2.4;144.0158538;
REPSWITCH1/PICTURE_340.png;espejo;speak;darkblue;filler;2;F;4;2;3;2;Extra1;0;None;101;100;101;0;100;100;100;;;;;;;;;;;;;;;;;;;;;;;484.9002037;486.0948538;486.0948538;486.0948538;486.0948538;486.0948538;486.0948538;486.0948538;486.0948538;None;0;;;C:\2023\REPSWITCH21092023\REPSWITCH_excgange\REPSWITCH_excgange\data/460203_REPSWITCH1_version2_list3_2024-01-24_16h38.36.496_micRespv2l3_recorded\recording_micRespv2l3_2024-01-24_16h46.37.210.wav;489.1160162;489.6161139;None;489.1160162;489.1160162;489.1160162;489.1160162;489.1160162;489.1160162;;;;;;460203;1;2024-01-24_16h38.36.496;REPSWITCH1_version2_list3;2022.2.4;144.0158538;
REPSWITCH1/PICTURE_610.png;miel;type;gold;filler;1;F;4;2;3;2;Stim2_Set3;0;None;102;101;102;0;101;101;101;;;;;;;;;;;;;;;;;;;;;;;489.6161139;490.7065755;490.7065755;490.7065755;490.7065755;490.7065755;490.7065755;490.7065755;490.7065755;['m', 'i', 'e', 'l'];0;[0.8342043999582529, 0.991894899867475, 1.1375222001224756, 1.262092899531126];miel;C:\2023\REPSWITCH21092023\REPSWITCH_excgange\REPSWITCH_excgange\data/460203_REPSWITCH1_version2_list3_2024-01-24_16h38.36.496_micRespv2l3_recorded\recording_micRespv2l3_2024-01-24_16h46.41.821.wav;493.7277561;494.2278427;space;493.7277561;493.7277561;493.7277561;493.7277561;493.7277561;493.7277561;494.2278427;494.2278427;9.1403457;;;460203;1;2024-01-24_16h38.36.496;REPSWITCH1_version2_list3;2022.2.4;144.0158538;
REPSWITCH1/PICTURE_8.png;pierna;type;gold;filler;1;F;1;4;3;2;Stim3_Set4;0;None;103;102;1;0;102;102;102;;;;;;;;;;;;;;;;;;;;;;;503.3818181;504.4375777;504.4375777;504.4375777;504.4375777;504.4375777;504.4375777;504.4375777;504.4375777;['p', 'i', 'e', 'r', 'n', 'a'];0;[1.2453458001837134, 1.5084759006276727, 1.5936566004529595, 1.6425298005342484, 1.7591327000409365, 1.8757129004225135];pierna;C:\2023\REPSWITCH21092023\REPSWITCH_excgange\REPSWITCH_excgange\data/460203_REPSWITCH1_version2_list3_2024-01-24_16h38.36.496_micRespv2l3_recorded\recording_micRespv2l3_2024-01-24_16h46.55.552.wav;507.4587499;507.958813;None;507.4587499;507.4587499;507.4587499;507.4587499;507.4587499;507.4587499;;;;;;460203;1;2024-01-24_16h38.36.496;REPSWITCH1_version2_list3;2022.2.4;144.0158538;
REPSWITCH1/PICTURE_498.png;taza;speak;darkblue;filler;2;F;1;4;3;2;Stim4_Set4;0;None;104;103;2;0;103;103;103;;;;;;;;;;;;;;;;;;;;;;;507.958813;509.0076156;509.0076156;509.0076156;509.0076156;509.0076156;509.0076156;509.0076156;509.0076156;None;0;;;C:\2023\REPSWITCH21092023\REPSWITCH_excgange\REPSWITCH_excgange\data/460203_REPSWITCH1_version2_list3_2024-01-24_16h38.36.496_micRespv2l3_recorded\recording_micRespv2l3_2024-01-24_16h47.00.122.wav;512.028798;512.5288356;None;512.028798;512.028798;512.028798;512.028798;512.028798;512.028798;;;;;;460203;1;2024-01-24_16h38.36.496;REPSWITCH1_version2_list3;2022.2.4;144.0158538;
REPSWITCH1/PICTURE_19.png;pavo;speak;darkblue;nontarget;2;NT;1;4;3;2;Stim5_Set1;1;repeat;105;104;3;0;104;104;104;;;;;;;;;;;;;;;;;;;;;;;512.5288356;513.6331604;513.6331604;513.6331604;513.6331604;513.6331604;513.6331604;513.6331604;513.6331604;None;0;;;C:\2023\REPSWITCH21092023\REPSWITCH_excgange\REPSWITCH_excgange\data/460203_REPSWITCH1_version2_list3_2024-01-24_16h38.36.496_micRespv2l3_recorded\recording_micRespv2l3_2024-01-24_16h47.04.748.wav;516.6613789;;None;516.6613789;516.6613789;516.6613789;516.6613789;516.6613789;516.6613789;;;;;;460203;1;2024-01-24_16h38.36.496;REPSWITCH1_version2_list3;2022.2.4;144.0158538;
REPSWITCH1/PICTURE_19.png;pavo;speak;darkblue;repeat;2;T;1;4;3;2;Stim5_Set1;0;None;106;105;4;0;105;105;105;;;;;;;;;;;;;;;;;;;;;;;517.1613754;518.2726879;518.2726879;518.2726879;518.2726879;518.2726879;518.2726879;518.2726879;518.2726879;None;0;;;C:\2023\REPSWITCH21092023\REPSWITCH_excgange\REPSWITCH_excgange\data/460203_REPSWITCH1_version2_list3_2024-01-24_16h38.36.496_micRespv2l3_recorded\recording_micRespv2l3_2024-01-24_16h47.09.387.wav;521.2938905;521.7939574;None;521.2938905;521.2938905;521.2938905;521.2938905;521.2938905;521.2938905;;;;;;460203;1;2024-01-24_16h38.36.496;REPSWITCH1_version2_list3;2022.2.4;144.0158538;
REPSWITCH1/PICTURE_319.png;vaca;type;gold;filler;1;F;1;4;3;2;Stim1_Set4;1;repeat;107;106;5;0;106;106;106;;;;;;;;;;;;;;;;;;;;;;;521.7939574;523.0024591;523.0024591;523.0024591;523.0024591;523.0024591;523.0024591;523.0024591;523.0024591;['v', 'a', 'c', 'a'];0;[0.983092600479722, 1.1864071004092693, 1.3827531998977065, 1.497647000476718];vaca;C:\2023\REPSWITCH21092023\REPSWITCH_excgange\REPSWITCH_excgange\data/460203_REPSWITCH1_version2_list3_2024-01-24_16h38.36.496_micRespv2l3_recorded\recording_micRespv2l3_2024-01-24_16h47.14.117.wav;526.030632;;None;526.030632;526.030632;526.030632;526.030632;526.030632;526.030632;;;;;;460203;1;2024-01-24_16h38.36.496;REPSWITCH1_version2_list3;2022.2.4;144.0158538;
REPSWITCH1/PICTURE_169.png;espalda;speak;darkblue;nontarget;2;NT;1;4;3;2;Stim8_Set1;1;switch;108;107;6;0;107;107;107;;;;;;;;;;;;;;;;;;;;;;;526.5307587;527.6350582;527.6350582;527.6350582;527.6350582;527.6350582;527.6350582;527.6350582;527.6350582;None;0;;;C:\2023\REPSWITCH21092023\REPSWITCH_excgange\REPSWITCH_excgange\data/460203_REPSWITCH1_version2_list3_2024-01-24_16h38.36.496_micRespv2l3_recorded\recording_micRespv2l3_2024-01-24_16h47.18.749.wav;530.6562073;531.1562898;None;530.6562073;530.6562073;530.6562073;530.6562073;530.6562073;530.6562073;;;;;;460203;1;2024-01-24_16h38.36.496;REPSWITCH1_version2_list3;2022.2.4;144.0158538;
REPSWITCH1/PICTURE_169.png;espalda;speak;darkblue;repeat;2;T;1;4;3;2;Stim8_Set1;0;None;109;108;7;0;108;108;108;;;;;;;;;;;;;;;;;;;;;;;531.1562898;532.2536597;532.2536597;532.2536597;532.2536597;532.2536597;532.2536597;532.2536597;532.2536597;None;0;;;C:\2023\REPSWITCH21092023\REPSWITCH_excgange\REPSWITCH_excgange\data/460203_REPSWITCH1_version2_list3_2024-01-24_16h38.36.496_micRespv2l3_recorded\recording_micRespv2l3_2024-01-24_16h47.23.368.wav;535.2748736;535.7749531;None;535.2748736;535.2748736;535.2748736;535.2748736;535.2748736;535.2748736;;;;;;460203;1;2024-01-24_16h38.36.496;REPSWITCH1_version2_list3;2022.2.4;144.0158538;
REPSWITCH1/PICTURE_728.png;pulpo;type;gold;filler;1;F;1;4;3;2;Stim8_Set4;0;None;110;109;8;0;109;109;109;;;;;;;;;;;;;;;;;;;;;;;535.7749531;536.9139925;536.9139925;536.9139925;536.9139925;536.9139925;536.9139925;536.9139925;536.9139925;['p', 'u', 'l', 'p', 'o'];0;[1.0933416998013854, 1.4502335004508495, 1.7259411998093128, 1.9993137000128627, 2.2245919005945325];pulpo;C:\2023\REPSWITCH21092023\REPSWITCH_excgange\REPSWITCH_excgange\data/460203_REPSWITCH1_version2_list3_2024-01-24_16h38.36.496_micRespv2l3_recorded\recording_micRespv2l3_2024-01-24_16h47.28.028.wav;539.9351991;540.4352748;None;539.9351991;539.9351991;539.9351991;539.9351991;539.9351991;539.9351991;;;;;;460203;1;2024-01-24_16h38.36.496;REPSWITCH1_version2_list3;2022.2.4;144.0158538;
REPSWITCH1/PICTURE_142.png;vaso;speak;darkblue;nontarget;2;NT;1;4;3;2;Stim7_Set1;1;switch;111;110;9;0;110;110;110;;;;;;;;;;;;;;;;;;;;;;;540.4352748;541.525739;541.525739;541.525739;541.525739;541.525739;541.525739;541.525739;541.525739;None;0;;;C:\2023\REPSWITCH21092023\REPSWITCH_excgange\REPSWITCH_excgange\data/460203_REPSWITCH1_version2_list3_2024-01-24_16h38.36.496_micRespv2l3_recorded\recording_micRespv2l3_2024-01-24_16h47.32.641.wav;544.5538737;;None;544.5538737;544.5538737;544.5538737;544.5538737;544.5538737;544.5538737;;;;;;460203;1;2024-01-24_16h38.36.496;REPSWITCH1_version2_list3;2022.2.4;144.0158538;
REPSWITCH1/PICTURE_142.png;vaso;type;gold;switch;1;T;1;4;3;2;Stim7_Set1;0;None;112;111;10;0;111;111;111;;;;;;;;;;;;;;;;;;;;;;;545.0539529;546.165199;546.165199;546.165199;546.165199;546.165199;546.165199;546.165199;546.165199;['v', 'a', 's', 'o'];0;[0.8636086005717516, 1.0265894001349807, 1.119672100059688, 1.2049230998381972];vaso;C:\2023\REPSWITCH21092023\REPSWITCH_excgange\REPSWITCH_excgange\data/460203_REPSWITCH1_version2_list3_2024-01-24_16h38.36.496_micRespv2l3_recorded\recording_micRespv2l3_2024-01-24_16h47.37.280.wav;549.1864059;549.6865061;None;549.1864059;549.1864059;549.1864059;549.1864059;549.1864059;549.1864059;;;;;;460203;1;2024-01-24_16h38.36.496;REPSWITCH1_version2_list3;2022.2.4;144.0158538;
REPSWITCH1/PICTURE_338.png;regalo;type;gold;filler;1;F;1;4;3;2;Stim6_Set4;1;repeat;113;112;11;0;112;112;112;;;;;;;;;;;;;;;;;;;;;;;549.6865061;550.7908792;550.7908792;550.7908792;550.7908792;550.7908792;550.7908792;550.7908792;550.7908792;['r', 'e', 'g', 'a', 'l', 'o'];0;[1.2413150006905198, 1.304130100645125, 1.5164323998615146, 1.6563217006623745, 1.7459515007212758, 1.985610700212419];regalo;C:\2023\REPSWITCH21092023\REPSWITCH_excgange\REPSWITCH_excgange\data/460203_REPSWITCH1_version2_list3_2024-01-24_16h38.36.496_micRespv2l3_recorded\recording_micRespv2l3_2024-01-24_16h47.41.906.wav;553.8190246;;None;553.8190246;553.8190246;553.8190246;553.8190246;553.8190246;553.8190246;;;;;;460203;1;2024-01-24_16h38.36.496;REPSWITCH1_version2_list3;2022.2.4;144.0158538;
REPSWITCH1/PICTURE_135.png;traje;type;gold;nontarget;1;NT;1;4;3;2;Stim3_Set1;1;repeat;114;113;12;0;113;113;113;;;;;;;;;;;;;;;;;;;;;;;554.3190614;555.4372441;555.4372441;555.4372441;555.4372441;555.4372441;555.4372441;555.4372441;555.4372441;['t', 'r', 'a', 'j', 'e'];0;[0.8456673994660378, 1.0236875992268324, 1.2140093995258212, 1.550870900042355, 1.7243554992601275];traje;C:\2023\REPSWITCH21092023\REPSWITCH_excgange\REPSWITCH_excgange\data/460203_REPSWITCH1_version2_list3_2024-01-24_16h38.36.496_micRespv2l3_recorded\recording_micRespv2l3_2024-01-24_16h47.46.552.wav;558.4584978;558.9585705;None;558.4584978;558.4584978;558.4584978;558.4584978;558.4584978;558.4584978;;;;;;460203;1;2024-01-24_16h38.36.496;REPSWITCH1_version2_list3;2022.2.4;144.0158538;
REPSWITCH1/PICTURE_135.png;traje;speak;darkblue;switch;2;T;1;4;3;2;Stim3_Set1;0;None;115;114;13;0;114;114;114;;;;;;;;;;;;;;;;;;;;;;;558.9585705;560.000423;560.000423;560.000423;560.000423;560.000423;560.000423;560.000423;560.000423;None;0;;;C:\2023\REPSWITCH21092023\REPSWITCH_excgange\REPSWITCH_excgange\data/460203_REPSWITCH1_version2_list3_2024-01-24_16h38.36.496_micRespv2l3_recorded\recording_micRespv2l3_2024-01-24_16h47.51.115.wav;563.0285338;;None;563.0285338;563.0285338;563.0285338;563.0285338;563.0285338;563.0285338;;;;;;460203;1;2024-01-24_16h38.36.496;REPSWITCH1_version2_list3;2022.2.4;144.0158538;
REPSWITCH1/PICTURE_381.png;fresa;speak;darkblue;nontarget;2;NT;1;4;3;2;Stim2_Set1;1;repeat;116;115;14;0;115;115;115;;;;;;;;;;;;;;;;;;;;;;;563.5285974;564.5495784;564.5495784;564.5495784;564.5495784;564.5495784;564.5495784;564.5495784;564.5495784;None;0;;;C:\2023\REPSWITCH21092023\REPSWITCH_excgange\REPSWITCH_excgange\data/460203_REPSWITCH1_version2_list3_2024-01-24_16h38.36.496_micRespv2l3_recorded\recording_micRespv2l3_2024-01-24_16h47.55.665.wav;567.5708354;568.0708355;None;567.5708354;567.5708354;567.5708354;567.5708354;567.5708354;567.5708354;;;;;;460203;1;2024-01-24_16h38.36.496;REPSWITCH1_version2_list3;2022.2.4;144.0158538;
REPSWITCH1/PICTURE_381.png;fresa;type;gold;switch;1;T;1;4;3;2;Stim2_Set1;0;None;117;116;15;0;116;116;116;;;;;;;;;;;;;;;;;;;;;;;568.0708355;569.0987863;569.0987863;569.0987863;569.0987863;569.0987863;569.0987863;569.0987863;569.0987863;['f', 'r', 'e', 's', 'a'];0;[0.895248600281775, 1.0925633003935218, 1.21311470028013, 1.5351203000172973, 1.6298473002389073];fresa;C:\2023\REPSWITCH21092023\REPSWITCH_excgange\REPSWITCH_excgange\data/460203_REPSWITCH1_version2_list3_2024-01-24_16h38.36.496_micRespv2l3_recorded\recording_micRespv2l3_2024-01-24_16h48.00.213.wav;572.1199768;572.6200721;None;572.1199768;572.1199768;572.1199768;572.1199768;572.1199768;572.1199768;;;;;;460203;1;2024-01-24_16h38.36.496;REPSWITCH1_version2_list3;2022.2.4;144.0158538;
REPSWITCH1/PICTURE_48.png;bombero;type;gold;filler;1;F;1;4;3;2;Stim7_Set4;0;None;118;117;16;0;117;117;117;;;;;;;;;;;;;;;;;;;;;;;572.6200721;573.7174744;573.7174744;573.7174744;573.7174744;573.7174744;573.7174744;573.7174744;573.7174744;['b', 'o', 'm', 'b', 'e', 'r', 'o'];0;[1.3353957002982497, 1.4812030997127295, 1.8154103001579642, 2.2452739998698235, 2.4539276994764805, 2.497778800316155, 2.677568200044334];bombero;C:\2023\REPSWITCH21092023\REPSWITCH_excgange\REPSWITCH_excgange\data/460203_REPSWITCH1_version2_list3_2024-01-24_16h38.36.496_micRespv2l3_recorded\recording_micRespv2l3_2024-01-24_16h48.04.832.wav;576.7456064;;None;576.7456064;576.7456064;576.7456064;576.7456064;576.7456064;576.7456064;;;;;;460203;1;2024-01-24_16h38.36.496;REPSWITCH1_version2_list3;2022.2.4;144.0158538;
REPSWITCH1/PICTURE_687.png;camisa;speak;darkblue;filler;2;F;1;4;3;2;Stim5_Set4;0;None;119;118;17;0;118;118;118;;;;;;;;;;;;;;;;;;;;;;;577.2456791;578.3360861;578.3360861;578.3360861;578.3360861;578.3360861;578.3360861;578.3360861;578.3360861;None;0;;;C:\2023\REPSWITCH21092023\REPSWITCH_excgange\REPSWITCH_excgange\data/460203_REPSWITCH1_version2_list3_2024-01-24_16h38.36.496_micRespv2l3_recorded\recording_micRespv2l3_2024-01-24_16h48.09.451.wav;581.3573089;581.8573743;None;581.3573089;581.3573089;581.3573089;581.3573089;581.3573089;581.3573089;;;;;;460203;1;2024-01-24_16h38.36.496;REPSWITCH1_version2_list3;2022.2.4;144.0158538;
REPSWITCH1/PICTURE_128.png;muñeca;type;gold;nontarget;1;NT;1;4;3;2;Stim4_Set1;0;None;120;119;18;0;119;119;119;;;;;;;;;;;;;;;;;;;;;;;581.8573743;582.8922566;582.8922566;582.8922566;582.8922566;582.8922566;582.8922566;582.8922566;582.8922566;['m', 'u', 'ñ', 'e', 'r', 'backspace', 'c'];0;[1.1013302998617291, 1.5303445998579264, 1.9580455999821424, 2.0781704001128674, 2.159861800260842, 2.827251499518752, 2.959282400086522];muñec;C:\2023\REPSWITCH21092023\REPSWITCH_excgange\REPSWITCH_excgange\data/460203_REPSWITCH1_version2_list3_2024-01-24_16h38.36.496_micRespv2l3_recorded\recording_micRespv2l3_2024-01-24_16h48.14.007.wav;585.9134926;586.4135348;None;585.9134926;585.9134926;585.9134926;585.9134926;585.9134926;585.9134926;;;;;;460203;1;2024-01-24_16h38.36.496;REPSWITCH1_version2_list3;2022.2.4;144.0158538;
REPSWITCH1/PICTURE_128.png;muñeca;type;gold;repeat;1;T;1;4;3;2;Stim4_Set1;0;None;121;120;19;0;120;120;120;;;;;;;;;;;;;;;;;;;;;;;586.4135348;587.5109681;587.5109681;587.5109681;587.5109681;587.5109681;587.5109681;587.5109681;587.5109681;['m', 'u', 'ñ', 'e', 'c', 'a'];0;[0.8796065002679825, 1.1200139001011848, 1.8321002004668117, 1.9327506003901362, 2.1703666001558304, 2.242207900620997];muñeca;C:\2023\REPSWITCH21092023\REPSWITCH_excgange\REPSWITCH_excgange\data/460203_REPSWITCH1_version2_list3_2024-01-24_16h38.36.496_micRespv2l3_recorded\recording_micRespv2l3_2024-01-24_16h48.18.626.wav;590.5321505;591.0321954;None;590.5321505;590.5321505;590.5321505;590.5321505;590.5321505;590.5321505;;;;;;460203;1;2024-01-24_16h38.36.496;REPSWITCH1_version2_list3;2022.2.4;144.0158538;
REPSWITCH1/PICTURE_719.png;baño;speak;darkblue;filler;2;F;1;4;3;2;Stim2_Set4;1;switch;122;121;20;0;121;121;121;;;;;;;;;;;;;;;;;;;;;;;591.0321954;592.1851519;592.1851519;592.1851519;592.1851519;592.1851519;592.1851519;592.1851519;592.1851519;None;0;;;C:\2023\REPSWITCH21092023\REPSWITCH_excgange\REPSWITCH_excgange\data/460203_REPSWITCH1_version2_list3_2024-01-24_16h38.36.496_micRespv2l3_recorded\recording_micRespv2l3_2024-01-24_16h48.23.300.wav;595.2064207;595.7064356;None;595.2064207;595.2064207;595.2064207;595.2064207;595.2064207;595.2064207;;;;;;460203;1;2024-01-24_16h38.36.496;REPSWITCH1_version2_list3;2022.2.4;144.0158538;
REPSWITCH1/PICTURE_178.png;puente;type;gold;nontarget;1;NT;1;4;3;2;Stim1_Set1;1;switch;123;122;21;0;122;122;122;;;;;;;;;;;;;;;;;;;;;;;595.7064356;596.8525233;596.8525233;596.8525233;596.8525233;596.8525233;596.8525233;596.8525233;596.8525233;['p', 'u', 'e', 'n', 't', 'e'];0;[0.9207199001684785, 1.240012800320983, 1.4502958999946713, 1.4926562998443842, 1.6171864001080394, 1.7218420002609491];puente;C:\2023\REPSWITCH21092023\REPSWITCH_excgange\REPSWITCH_excgange\data/460203_REPSWITCH1_version2_list3_2024-01-24_16h38.36.496_micRespv2l3_recorded\recording_micRespv2l3_2024-01-24_16h48.27.967.wav;599.8736551;600.3737747;None;599.8736551;599.8736551;599.8736551;599.8736551;599.8736551;599.8736551;;;;;;460203;1;2024-01-24_16h38.36.496;REPSWITCH1_version2_list3;2022.2.4;144.0158538;
REPSWITCH1/PICTURE_178.png;puente;type;gold;repeat;1;T;1;4;3;2;Stim1_Set1;0;None;124;123;22;0;123;123;123;;;;;;;;;;;;;;;;;;;;;;;600.3737747;601.4502608;601.4502608;601.4502608;601.4502608;601.4502608;601.4502608;601.4502608;601.4502608;['p', 'u', 'e', 'n', 't', 'e'];0;[0.6954998997971416, 1.1054159002378583, 1.2068296000361443, 1.3095065001398325, 1.3383871000260115, 1.4470255002379417];puente;C:\2023\REPSWITCH21092023\REPSWITCH_excgange\REPSWITCH_excgange\data/460203_REPSWITCH1_version2_list3_2024-01-24_16h38.36.496_micRespv2l3_recorded\recording_micRespv2l3_2024-01-24_16h48.32.565.wav;604.4714407;604.971568;None;604.4714407;604.4714407;604.4714407;604.4714407;604.4714407;604.4714407;;;;;;460203;1;2024-01-24_16h38.36.496;REPSWITCH1_version2_list3;2022.2.4;144.0158538;
REPSWITCH1/PICTURE_16.png;cazador;type;gold;nontarget;1;NT;1;4;3;2;Stim6_Set1;1;repeat;125;124;23;0;124;124;124;;;;;;;;;;;;;;;;;;;;;;;604.971568;606.2078604;606.2078604;606.2078604;606.2078604;606.2078604;606.2078604;606.2078604;606.2078604;['c', 'a', 'z', 'a', 'd', 'o', 'r'];0;[1.1576046999543905, 1.2921126997098327, 1.57919429987669, 1.790480699390173, 2.251088699325919, 2.4006156995892525, 2.5017226999625564];cazador;C:\2023\REPSWITCH21092023\REPSWITCH_excgange\REPSWITCH_excgange\data/460203_REPSWITCH1_version2_list3_2024-01-24_16h38.36.496_micRespv2l3_recorded\recording_micRespv2l3_2024-01-24_16h48.37.323.wav;609.2360639;;None;609.2360639;609.2360639;609.2360639;609.2360639;609.2360639;609.2360639;;;;;;460203;1;2024-01-24_16h38.36.496;REPSWITCH1_version2_list3;2022.2.4;144.0158538;
REPSWITCH1/PICTURE_16.png;cazador;speak;darkblue;switch;2;T;1;4;3;2;Stim6_Set1;0;None;126;125;24;0;125;125;125;;;;;;;;;;;;;;;;;;;;;;;609.7360481;610.9168075;610.9168075;610.9168075;610.9168075;610.9168075;610.9168075;610.9168075;610.9168075;None;0;;;C:\2023\REPSWITCH21092023\REPSWITCH_excgange\REPSWITCH_excgange\data/460203_REPSWITCH1_version2_list3_2024-01-24_16h38.36.496_micRespv2l3_recorded\recording_micRespv2l3_2024-01-24_16h48.42.032.wav;613.9450106;;None;613.9450106;613.9450106;613.9450106;613.9450106;613.9450106;613.9450106;;;;;;460203;1;2024-01-24_16h38.36.496;REPSWITCH1_version2_list3;2022.2.4;144.0158538;
REPSWITCH1/PICTURE_19.png;pavo;type;gold;filler;1;F;2;4;3;2;Stim5_Set1;0;None;127;126;25;0;126;126;126;;;;;;;;;;;;;;;;;;;;;;;614.445077;615.5423513;615.5423513;615.5423513;615.5423513;615.5423513;615.5423513;615.5423513;615.5423513;['p', 'a', 'v', 'o'];0;[0.7972604995593429, 0.8958906000480056, 1.0763202998787165, 1.156058399938047];pavo;C:\2023\REPSWITCH21092023\REPSWITCH_excgange\REPSWITCH_excgange\data/460203_REPSWITCH1_version2_list3_2024-01-24_16h38.36.496_micRespv2l3_recorded\recording_micRespv2l3_2024-01-24_16h48.46.657.wav;618.5706226;;None;618.5706226;618.5706226;618.5706226;618.5706226;618.5706226;618.5706226;;;;;;460203;1;2024-01-24_16h38.36.496;REPSWITCH1_version2_list3;2022.2.4;144.0158538;
REPSWITCH1/PICTURE_199.png;falda;type;gold;nontarget;1;NT;2;4;3;2;Stim8_Set2;1;repeat;128;127;26;0;127;127;127;;;;;;;;;;;;;;;;;;;;;;;619.0706205;620.1610986;620.1610986;620.1610986;620.1610986;620.1610986;620.1610986;620.1610986;620.1610986;['f', 'a', 'l', 'd', 'a'];0;[0.9073650995269418, 1.0374865997582674, 1.1410953998565674, 1.2886553993448615, 1.317536599934101];falda;C:\2023\REPSWITCH21092023\REPSWITCH_excgange\REPSWITCH_excgange\data/460203_REPSWITCH1_version2_list3_2024-01-24_16h38.36.496_micRespv2l3_recorded\recording_micRespv2l3_2024-01-24_16h48.51.275.wav;623.1823121;623.6822949;None;623.1823121;623.1823121;623.1823121;623.1823121;623.1823121;623.1823121;;;;;;460203;1;2024-01-24_16h38.36.496;REPSWITCH1_version2_list3;2022.2.4;144.0158538;
REPSWITCH1/PICTURE_199.png;falda;type;gold;repeat;1;T;2;4;3;2;Stim8_Set2;0;None;129;128;27;0;128;128;128;;;;;;;;;;;;;;;;;;;;;;;623.6822949;624.7380817;624.7380817;624.7380817;624.7380817;624.7380817;624.7380817;624.7380817;624.7380817;['f', 'a', 'l', 'd', 'a'];0;[0.7537519000470638, 0.8288529999554157, 1.0250987000763416, 1.2896807994693518, 1.3474771995097399];falda;C:\2023\REPSWITCH21092023\REPSWITCH_excgange\REPSWITCH_excgange\data/460203_REPSWITCH1_version2_list3_2024-01-24_16h38.36.496_micRespv2l3_recorded\recording_micRespv2l3_2024-01-24_16h48.55.853.wav;627.7592327;628.2593022;None;627.7592327;627.7592327;627.7592327;627.7592327;627.7592327;627.7592327;;;;;;460203;1;2024-01-24_16h38.36.496;REPSWITCH1_version2_list3;2022.2.4;144.0158538;
REPSWITCH1/PICTURE_178.png;puente;speak;darkblue;filler;2;F;2;4;3;2;Stim1_Set1;1;switch;130;129;28;0;129;129;129;;;;;;;;;;;;;;;;;;;;;;;628.2593022;629.3636852;629.3636852;629.3636852;629.3636852;629.3636852;629.3636852;629.3636852;629.3636852;None;0;;;C:\2023\REPSWITCH21092023\REPSWITCH_excgange\REPSWITCH_excgange\data/460203_REPSWITCH1_version2_list3_2024-01-24_16h38.36.496_micRespv2l3_recorded\recording_micRespv2l3_2024-01-24_16h49.00.479.wav;632.3848669;632.8849349;None;632.3848669;632.3848669;632.3848669;632.3848669;632.3848669;632.3848669;;;;;;460203;1;2024-01-24_16h38.36.496;REPSWITCH1_version2_list3;2022.2.4;144.0158538;
REPSWITCH1/PICTURE_517.png;cuerda;type;gold;nontarget;1;NT;2;4;3;2;Stim4_Set2;1;switch;131;130;29;0;130;130;130;;;;;;;;;;;;;;;;;;;;;;;632.8849349;633.9684043;633.9684043;633.9684043;633.9684043;633.9684043;633.9684043;633.9684043;633.9684043;['c', 'u', 'e', 'r', 'd', 'a'];0;[0.8685112996026874, 1.1000437000766397, 1.1808150000870228, 1.2715480998158455, 1.4867869997397065, 1.5326757999137044];cuerda;C:\2023\REPSWITCH21092023\REPSWITCH_excgange\REPSWITCH_excgange\data/460203_REPSWITCH1_version2_list3_2024-01-24_16h38.36.496_micRespv2l3_recorded\recording_micRespv2l3_2024-01-24_16h49.05.083.wav;636.9966026;;None;636.9966026;636.9966026;636.9966026;636.9966026;636.9966026;636.9966026;;;;;;460203;1;2024-01-24_16h38.36.496;REPSWITCH1_version2_list3;2022.2.4;144.0158538;
REPSWITCH1/PICTURE_517.png;cuerda;type;gold;repeat;1;T;2;4;3;2;Stim4_Set2;0;None;132;131;30;0;131;131;131;;;;;;;;;;;;;;;;;;;;;;;637.4966447;638.6010312;638.6010312;638.6010312;638.6010312;638.6010312;638.6010312;638.6010312;638.6010312;['c', 'u', 'e', 'r', 'd', 'a'];0;[0.8080313000828028, 0.9977895999327302, 1.1017593005672097, 1.1366328001022339, 1.3578937007114291, 1.385801600292325];cuerda;C:\2023\REPSWITCH21092023\REPSWITCH_excgange\REPSWITCH_excgange\data/460203_REPSWITCH1_version2_list3_2024-01-24_16h38.36.496_micRespv2l3_recorded\recording_micRespv2l3_2024-01-24_16h49.09.716.wav;641.6222076;642.1222182;None;641.6222076;641.6222076;641.6222076;641.6222076;641.6222076;641.6222076;;;;;;460203;1;2024-01-24_16h38.36.496;REPSWITCH1_version2_list3;2022.2.4;144.0158538;
REPSWITCH1/PICTURE_169.png;espalda;type;gold;filler;1;F;2;4;3;2;Stim8_Set1;0;None;133;132;31;0;132;132;132;;;;;;;;;;;;;;;;;;;;;;;642.1222182;643.1571808;643.1571808;643.1571808;643.1571808;643.1571808;643.1571808;643.1571808;643.1571808;['e', 's', 's', 'p', 'backspace', 'backspace', 'p', 'a', 'l', 'd', 'a'];0;[0.8441141992807388, 1.0077812997624278, 1.1453526001423597, 1.3785680001601577, 1.8044608999043703, 1.992536399513483, 2.2906045001000166, 2.4599381992593408, 2.6035601999610662, 2.7085886001586914, 2.7763157999143004];espalda;C:\2023\REPSWITCH21092023\REPSWITCH_excgange\REPSWITCH_excgange\data/460203_REPSWITCH1_version2_list3_2024-01-24_16h38.36.496_micRespv2l3_recorded\recording_micRespv2l3_2024-01-24_16h49.14.272.wav;646.1852809;;None;646.1852809;646.1852809;646.1852809;646.1852809;646.1852809;646.1852809;;;;;;460203;1;2024-01-24_16h38.36.496;REPSWITCH1_version2_list3;2022.2.4;144.0158538;
REPSWITCH1/PICTURE_673.png;tenedor;speak;darkblue;filler;2;F;2;4;3;2;Extra5;0;None;134;133;32;0;133;133;133;;;;;;;;;;;;;;;;;;;;;;;646.6853152;647.7549326;647.7549326;647.7549326;647.7549326;647.7549326;647.7549326;647.7549326;647.7549326;None;0;;;C:\2023\REPSWITCH21092023\REPSWITCH_excgange\REPSWITCH_excgange\data/460203_REPSWITCH1_version2_list3_2024-01-24_16h38.36.496_micRespv2l3_recorded\recording_micRespv2l3_2024-01-24_16h49.18.870.wav;650.7761349;651.2762089;None;650.7761349;650.7761349;650.7761349;650.7761349;650.7761349;650.7761349;;;;;;460203;1;2024-01-24_16h38.36.496;REPSWITCH1_version2_list3;2022.2.4;144.0158538;
REPSWITCH1/PICTURE_142.png;vaso;type;gold;filler;1;F;2;4;3;2;Stim7_Set1;1;switch;135;134;33;0;134;134;134;;;;;;;;;;;;;;;;;;;;;;;651.2762089;652.3736486;652.3736486;652.3736486;652.3736486;652.3736486;652.3736486;652.3736486;652.3736486;['v', 'a', 's', 'o'];0;[0.8256897004321218, 0.9931268002837896, 1.0618857005611062, 1.1585285998880863];vaso;C:\2023\REPSWITCH21092023\REPSWITCH_excgange\REPSWITCH_excgange\data/460203_REPSWITCH1_version2_list3_2024-01-24_16h38.36.496_micRespv2l3_recorded\recording_micRespv2l3_2024-01-24_16h49.23.488.wav;655.3948395;655.8948951;None;655.3948395;655.3948395;655.3948395;655.3948395;655.3948395;655.3948395;;;;;;460203;1;2024-01-24_16h38.36.496;REPSWITCH1_version2_list3;2022.2.4;144.0158538;
REPSWITCH1/PICTURE_552.png;manzana;type;gold;nontarget;1;NT;2;4;3;2;Stim6_Set2;1;repeat;136;135;34;0;135;135;135;;;;;;;;;;;;;;;;;;;;;;;655.8948951;656.9020536;656.9020536;656.9020536;656.9020536;656.9020536;656.9020536;656.9020536;656.9020536;['m', 'a', 'n', 'z', 'a'];0;[2.0891606993973255, 2.163901699706912, 2.314391299150884, 2.4243820998817682, 2.8570999996736646];manza;C:\2023\REPSWITCH21092023\REPSWITCH_excgange\REPSWITCH_excgange\data/460203_REPSWITCH1_version2_list3_2024-01-24_16h38.36.496_micRespv2l3_recorded\recording_micRespv2l3_2024-01-24_16h49.28.017.wav;659.93012;;None;659.93012;659.93012;659.93012;659.93012;659.93012;659.93012;;;;;;460203;1;2024-01-24_16h38.36.496;REPSWITCH1_version2_list3;2022.2.4;144.0158538;
REPSWITCH1/PICTURE_552.png;manzana;speak;darkblue;switch;1;T;2;4;3;2;Stim6_Set2;0;None;137;136;35;0;136;136;136;;;;;;;;;;;;;;;;;;;;;;;660.4302614;661.4650549;661.4650549;661.4650549;661.4650549;661.4650549;661.4650549;661.4650549;661.4650549;None;0;;;C:\2023\REPSWITCH21092023\REPSWITCH_excgange\REPSWITCH_excgange\data/460203_REPSWITCH1_version2_list3_2024-01-24_16h38.36.496_micRespv2l3_recorded\recording_micRespv2l3_2024-01-24_16h49.32.580.wav;664.4932166;;None;664.4932166;664.4932166;664.4932166;664.4932166;664.4932166;664.4932166;;;;;;460203;1;2024-01-24_16h38.36.496;REPSWITCH1_version2_list3;2022.2.4;144.0158538;
REPSWITCH1/PICTURE_135.png;traje;speak;darkblue;filler;2;F;2;4;3;2;Stim3_Set1;0;None;138;137;36;0;137;137;137;;;;;;;;;;;;;;;;;;;;;;;664.993274;666.083802;666.083802;666.083802;666.083802;666.083802;666.083802;666.083802;666.083802;None;0;;;C:\2023\REPSWITCH21092023\REPSWITCH_excgange\REPSWITCH_excgange\data/460203_REPSWITCH1_version2_list3_2024-01-24_16h38.36.496_micRespv2l3_recorded\recording_micRespv2l3_2024-01-24_16h49.37.198.wav;669.1049682;669.6050323;None;669.1049682;669.1049682;669.1049682;669.1049682;669.1049682;669.1049682;;;;;;460203;1;2024-01-24_16h38.36.496;REPSWITCH1_version2_list3;2022.2.4;144.0158538;
REPSWITCH1/PICTURE_152.png;caracol;speak;darkblue;nontarget;2;NT;2;4;3;2;Stim2_Set2;1;repeat;139;138;37;0;138;138;138;;;;;;;;;;;;;;;;;;;;;;;669.6050323;670.8066382;670.8066382;670.8066382;670.8066382;670.8066382;670.8066382;670.8066382;670.8066382;None;0;;;C:\2023\REPSWITCH21092023\REPSWITCH_excgange\REPSWITCH_excgange\data/460203_REPSWITCH1_version2_list3_2024-01-24_16h38.36.496_micRespv2l3_recorded\recording_micRespv2l3_2024-01-24_16h49.41.921.wav;673.8277826;674.3278555;None;673.8277826;673.8277826;673.8277826;673.8277826;673.8277826;673.8277826;;;;;;460203;1;2024-01-24_16h38.36.496;REPSWITCH1_version2_list3;2022.2.4;144.0158538;
REPSWITCH1/PICTURE_152.png;caracol;type;gold;switch;1;T;2;4;3;2;Stim2_Set2;0;None;140;139;38;0;139;139;139;;;;;;;;;;;;;;;;;;;;;;;674.3278555;675.4113787;675.4113787;675.4113787;675.4113787;675.4113787;675.4113787;675.4113787;675.4113787;['c', 'a', 'r', 'a', 'c', 'o', 'l'];0;[1.0683006001636386, 1.2077845996245742, 1.3172605000436306, 1.4477802002802491, 1.648152000270784, 1.8165950002148747, 2.090657999739051];caracol;C:\2023\REPSWITCH21092023\REPSWITCH_excgange\REPSWITCH_excgange\data/460203_REPSWITCH1_version2_list3_2024-01-24_16h38.36.496_micRespv2l3_recorded\recording_micRespv2l3_2024-01-24_16h49.46.526.wav;678.4325682;678.9326427;None;678.4325682;678.4325682;678.4325682;678.4325682;678.4325682;678.4325682;;;;;;460203;1;2024-01-24_16h38.36.496;REPSWITCH1_version2_list3;2022.2.4;144.0158538;
REPSWITCH1/PICTURE_381.png;fresa;type;gold;filler;1;F;2;4;3;2;Stim2_Set1;0;None;141;140;39;0;140;140;140;;;;;;;;;;;;;;;;;;;;;;;678.9326427;680.1133641;680.1133641;680.1133641;680.1133641;680.1133641;680.1133641;680.1133641;680.1133641;['f', 'r', 'e', 's', 'a'];0;[0.8110679993405938, 1.0073699997738004, 1.0901247998699546, 1.4306492991745472, 1.536361699923873];fresa;C:\2023\REPSWITCH21092023\REPSWITCH_excgange\REPSWITCH_excgange\data/460203_REPSWITCH1_version2_list3_2024-01-24_16h38.36.496_micRespv2l3_recorded\recording_micRespv2l3_2024-01-24_16h49.51.228.wav;683.1415297;;None;683.1415297;683.1415297;683.1415297;683.1415297;683.1415297;683.1415297;;;;;;460203;1;2024-01-24_16h38.36.496;REPSWITCH1_version2_list3;2022.2.4;144.0158538;
