image;correctAns;respModal;frameColor;repSwitch;sequence;target;set;block;list;exp_version;stimulus;baseline;baseline_condition;trial_no;psychopy_trial;Column1;trialsREPSWITCH.thisRepN;trialsREPSWITCH.thisTrialN;trialsREPSWITCH.thisN;trialsREPSWITCH.thisIndex;textWelcome.started;textboxInstrMain1.started;textboxInstrMain1_2.started;textboxInstrMain1_3.started;keyInstrMain.started;keyInstrMain.keys;keyInstrMain.rt;textboxInstrMain2.started;textboxInstrMain2_2.started;textboxInstrMain2_3.started;textboxInstrMain2_4.started;textboxInstrMain2_5.started;textboxInstrMain2_6.started;textboxInstrMain2_7.started;textboxInstrMain2_8.started;textboxInstrMain2_9.started;textboxInstrMain2_10.started;textboxInstrMain2_11.started;textboxInstrMain2_12.started;keyInstrMain2.started;keyInstrMain2.keys;keyInstrMain2.rt;fixationITI.started;fixationITI.stopped;polygonColour.started;polygonWhite.started;imageObject.started;polygonType.started;textInput.started;keyResp.started;micRespv1l3.started;keyResp.keys;keyResp.corr;keyResp.rt;subjResponse;micRespv1l3.clip;textBlankLoop.started;textBlankLoop.stopped;keyPause.keys;polygonColour.stopped;polygonWhite.stopped;imageObject.stopped;polygonType.stopped;textInput.stopped;keyResp.stopped;textboxPause.started;keyPause.started;keyPause.rt;textboxGoodbye.started;textboxGoodbye.stopped;participant;session;date;expName;psychopyVersion;frameRate;Column2
;;;;;;;;;;;;;;;;;;;;;10.8786707;13.3722802;13.3722802;13.3722802;13.3722802;space;3.6351054;;;;;;;;;;;;;;;;;;;;;;;;;;;;;;;;;;;;;;;;;;;;470104;1;2024-01-26_09h17.38.599;REPSWITCH1_version1_list3;2022.2.4;143.8110196;
;;;;;;;;;;;;;;;;;;;;;;;;;;;;17.0254865;17.0254865;17.0254865;17.0254865;17.0254865;17.0254865;17.0254865;17.0254865;17.0254865;17.0254865;17.0254865;17.0254865;17.0254865;space;1.315546201;;;;;;;;;;;;;;;;;;;;;;;;;;;;;470104;1;2024-01-26_09h17.38.599;REPSWITCH1_version1_list3;2022.2.4;143.8110196;
REPSWITCH1/PICTURE_663.png;columna;type;darkblue;filler;1;F;1;2;3;1;Extra6;0;None;1;0;1;0;0;0;0;;;;;;;;;;;;;;;;;;;;;;;18.4423581;19.4633849;19.4633849;19.4633849;19.4633849;19.4633849;19.4633849;19.4633849;19.4633849;['c', 'o', 'l', 'u', 'm', 'n', 'a'];0;[1.1458467999473214, 1.611840800382197, 1.7742822002619505, 1.9745976999402046, 2.187870300374925, 2.3593340003862977, 2.4515495002269745];columna;C:\2023\REPSWITCH21092023\REPSWITCH_excgange\REPSWITCH_excgange\data/470104_REPSWITCH1_version1_list3_2024-01-26_09h17.38.599_micRespv1l3_recorded\recording_micRespv1l3_2024-01-26_09h17.52.063.wav;22.4845302;22.9846153;None;;;;;;;;;;;;470104;1;2024-01-26_09h17.38.599;REPSWITCH1_version1_list3;2022.2.4;143.8110196;
REPSWITCH1/PICTURE_128.png;muñeca;speak;gold;nontarget;2;NT;1;2;3;1;Stim4_Set1;1;switch;2;1;2;0;1;1;1;;;;;;;;;;;;;;;;;;;;;;;22.9846153;24.1375282;24.1375282;24.1375282;24.1375282;24.1375282;24.1375282;24.1375282;24.1375282;None;0;;;C:\2023\REPSWITCH21092023\REPSWITCH_excgange\REPSWITCH_excgange\data/470104_REPSWITCH1_version1_list3_2024-01-26_09h17.38.599_micRespv1l3_recorded\recording_micRespv1l3_2024-01-26_09h17.56.741.wav;27.1657299;27.6657872;None;27.1657299;27.1657299;27.1657299;27.1657299;27.1657299;27.1657299;;;;;;470104;1;2024-01-26_09h17.38.599;REPSWITCH1_version1_list3;2022.2.4;143.8110196;
REPSWITCH1/PICTURE_128.png;muñeca;speak;gold;repeat;2;T;1;2;3;1;Stim4_Set1;0;None;3;2;3;0;2;2;2;;;;;;;;;;;;;;;;;;;;;;;27.6657872;28.7701607;28.7701607;28.7701607;28.7701607;28.7701607;28.7701607;28.7701607;28.7701607;None;0;;;C:\2023\REPSWITCH21092023\REPSWITCH_excgange\REPSWITCH_excgange\data/470104_REPSWITCH1_version1_list3_2024-01-26_09h17.38.599_micRespv1l3_recorded\recording_micRespv1l3_2024-01-26_09h18.01.372.wav;31.7913074;32.2914359;None;31.7913074;31.7913074;31.7913074;31.7913074;31.7913074;31.7913074;;;;;;470104;1;2024-01-26_09h17.38.599;REPSWITCH1_version1_list3;2022.2.4;143.8110196;
REPSWITCH1/PICTURE_8.png;pierna;type;darkblue;filler;1;F;1;2;3;1;Stim3_Set4;0;None;4;3;4;0;3;3;3;;;;;;;;;;;;;;;;;;;;;;;32.2914359;33.3679399;33.3679399;33.3679399;33.3679399;33.3679399;33.3679399;33.3679399;33.3679399;['p', 'i', 'e', 'r', 'n', 'a'];0;[1.1865081004798412, 1.3863291004672647, 1.4749627001583576, 1.5572487004101276, 1.6828433005139232, 1.776486299932003];pierna;C:\2023\REPSWITCH21092023\REPSWITCH_excgange\REPSWITCH_excgange\data/470104_REPSWITCH1_version1_list3_2024-01-26_09h17.38.599_micRespv1l3_recorded\recording_micRespv1l3_2024-01-26_09h18.05.970.wav;36.3892122;36.8892014;None;36.3892122;36.3892122;36.3892122;36.3892122;36.3892122;36.3892122;;;;;;470104;1;2024-01-26_09h17.38.599;REPSWITCH1_version1_list3;2022.2.4;143.8110196;
REPSWITCH1/PICTURE_135.png;traje;speak;gold;nontarget;2;NT;1;2;3;1;Stim3_Set1;1;switch;5;4;5;0;4;4;4;;;;;;;;;;;;;;;;;;;;;;;36.8892014;38.0352604;38.0352604;38.0352604;38.0352604;38.0352604;38.0352604;38.0352604;38.0352604;None;0;;;C:\2023\REPSWITCH21092023\REPSWITCH_excgange\REPSWITCH_excgange\data/470104_REPSWITCH1_version1_list3_2024-01-26_09h17.38.599_micRespv1l3_recorded\recording_micRespv1l3_2024-01-26_09h18.10.639.wav;41.0633844;;None;41.0633844;41.0633844;41.0633844;41.0633844;41.0633844;41.0633844;;;;;;470104;1;2024-01-26_09h17.38.599;REPSWITCH1_version1_list3;2022.2.4;143.8110196;
REPSWITCH1/PICTURE_135.png;traje;speak;gold;repeat;2;T;1;2;3;1;Stim3_Set1;0;None;6;5;6;0;5;5;5;;;;;;;;;;;;;;;;;;;;;;;41.5633897;42.6954904;42.6954904;42.6954904;42.6954904;42.6954904;42.6954904;42.6954904;42.6954904;None;0;;;C:\2023\REPSWITCH21092023\REPSWITCH_excgange\REPSWITCH_excgange\data/470104_REPSWITCH1_version1_list3_2024-01-26_09h17.38.599_micRespv1l3_recorded\recording_micRespv1l3_2024-01-26_09h18.15.298.wav;45.7167967;46.2167898;None;45.7167967;45.7167967;45.7167967;45.7167967;45.7167967;45.7167967;;;;;;470104;1;2024-01-26_09h17.38.599;REPSWITCH1_version1_list3;2022.2.4;143.8110196;
REPSWITCH1/PICTURE_673.png;tenedor;type;darkblue;filler;1;F;1;2;3;1;Extra5;0;None;7;6;7;0;6;6;6;;;;;;;;;;;;;;;;;;;;;;;46.2167898;47.2794176;47.2794176;47.2794176;47.2794176;47.2794176;47.2794176;47.2794176;47.2794176;['t', 'e', 'n', 'e', 'd', 'o', 'r'];0;[0.8920409008860588, 1.0525398002937436, 1.137316701002419, 1.2389902006834745, 1.4562311004847288, 1.5694095008075237, 1.7019275007769465];tenedor;C:\2023\REPSWITCH21092023\REPSWITCH_excgange\REPSWITCH_excgange\data/470104_REPSWITCH1_version1_list3_2024-01-26_09h17.38.599_micRespv1l3_recorded\recording_micRespv1l3_2024-01-26_09h18.19.882.wav;50.3076006;;None;50.3076006;50.3076006;50.3076006;50.3076006;50.3076006;50.3076006;;;;;;470104;1;2024-01-26_09h17.38.599;REPSWITCH1_version1_list3;2022.2.4;143.8110196;
REPSWITCH1/PICTURE_728.png;pulpo;speak;gold;filler;2;F;1;2;3;1;Stim8_Set4;0;None;8;7;8;0;7;7;7;;;;;;;;;;;;;;;;;;;;;;;50.8077405;51.9952983;51.9952983;51.9952983;51.9952983;51.9952983;51.9952983;51.9952983;51.9952983;None;0;;;C:\2023\REPSWITCH21092023\REPSWITCH_excgange\REPSWITCH_excgange\data/470104_REPSWITCH1_version1_list3_2024-01-26_09h17.38.599_micRespv1l3_recorded\recording_micRespv1l3_2024-01-26_09h18.24.598.wav;55.0234649;;None;55.0234649;55.0234649;55.0234649;55.0234649;55.0234649;55.0234649;;;;;;470104;1;2024-01-26_09h17.38.599;REPSWITCH1_version1_list3;2022.2.4;143.8110196;
REPSWITCH1/PICTURE_16.png;cazador;speak;gold;nontarget;2;NT;1;2;3;1;Stim6_Set1;1;repeat;9;8;9;0;8;8;8;;;;;;;;;;;;;;;;;;;;;;;55.5235136;56.6001006;56.6001006;56.6001006;56.6001006;56.6001006;56.6001006;56.6001006;56.6001006;None;0;;;C:\2023\REPSWITCH21092023\REPSWITCH_excgange\REPSWITCH_excgange\data/470104_REPSWITCH1_version1_list3_2024-01-26_09h17.38.599_micRespv1l3_recorded\recording_micRespv1l3_2024-01-26_09h18.29.203.wav;59.628251;;None;59.628251;59.628251;59.628251;59.628251;59.628251;59.628251;;;;;;470104;1;2024-01-26_09h17.38.599;REPSWITCH1_version1_list3;2022.2.4;143.8110196;
REPSWITCH1/PICTURE_16.png;cazador;type;darkblue;switch;1;T;1;2;3;1;Stim6_Set1;0;None;10;9;10;0;9;9;9;;;;;;;;;;;;;;;;;;;;;;;60.1282805;61.1701292;61.1701292;61.1701292;61.1701292;61.1701292;61.1701292;61.1701292;61.1701292;['c', 'a', 'z', 'a', 'd', 'o', 'r'];0;[0.9964482001960278, 1.0851461999118328, 1.384452199563384, 1.5597868002951145, 1.802271599881351, 1.979712300002575, 2.113299099728465];cazador;C:\2023\REPSWITCH21092023\REPSWITCH_excgange\REPSWITCH_excgange\data/470104_REPSWITCH1_version1_list3_2024-01-26_09h17.38.599_micRespv1l3_recorded\recording_micRespv1l3_2024-01-26_09h18.33.773.wav;64.1982842;;None;64.1982842;64.1982842;64.1982842;64.1982842;64.1982842;64.1982842;;;;;;470104;1;2024-01-26_09h17.38.599;REPSWITCH1_version1_list3;2022.2.4;143.8110196;
REPSWITCH1/PICTURE_498.png;taza;type;darkblue;filler;1;F;1;2;3;1;Stim4_Set4;1;repeat;11;10;11;0;10;10;10;;;;;;;;;;;;;;;;;;;;;;;64.6983134;65.8582163;65.8582163;65.8582163;65.8582163;65.8582163;65.8582163;65.8582163;65.8582163;['t', 'a', 'z', 'a'];0;[0.8308269008994102, 1.0046246005222201, 1.22796400077641, 1.4033392006531358];taza;C:\2023\REPSWITCH21092023\REPSWITCH_excgange\REPSWITCH_excgange\data/470104_REPSWITCH1_version1_list3_2024-01-26_09h17.38.599_micRespv1l3_recorded\recording_micRespv1l3_2024-01-26_09h18.38.461.wav;68.879421;69.3794863;None;68.879421;68.879421;68.879421;68.879421;68.879421;68.879421;;;;;;470104;1;2024-01-26_09h17.38.599;REPSWITCH1_version1_list3;2022.2.4;143.8110196;
REPSWITCH1/PICTURE_381.png;fresa;type;darkblue;nontarget;1;NT;1;2;3;1;Stim2_Set1;1;repeat;12;11;12;0;11;11;11;;;;;;;;;;;;;;;;;;;;;;;69.3794863;70.5394238;70.5394238;70.5394238;70.5394238;70.5394238;70.5394238;70.5394238;70.5394238;['f', 'r', 'e', 's', 'a'];0;[1.0815300000831485, 1.37055469956249, 1.4154687002301216, 1.6566417999565601, 1.8518839003518224];fresa;C:\2023\REPSWITCH21092023\REPSWITCH_excgange\REPSWITCH_excgange\data/470104_REPSWITCH1_version1_list3_2024-01-26_09h17.38.599_micRespv1l3_recorded\recording_micRespv1l3_2024-01-26_09h18.43.142.wav;73.5606045;74.0606724;None;73.5606045;73.5606045;73.5606045;73.5606045;73.5606045;73.5606045;;;;;;470104;1;2024-01-26_09h17.38.599;REPSWITCH1_version1_list3;2022.2.4;143.8110196;
REPSWITCH1/PICTURE_381.png;fresa;speak;gold;switch;2;T;1;2;3;1;Stim2_Set1;0;None;13;12;13;0;12;12;12;;;;;;;;;;;;;;;;;;;;;;;74.0606724;75.1164154;75.1164154;75.1164154;75.1164154;75.1164154;75.1164154;75.1164154;75.1164154;None;0;;;C:\2023\REPSWITCH21092023\REPSWITCH_excgange\REPSWITCH_excgange\data/470104_REPSWITCH1_version1_list3_2024-01-26_09h17.38.599_micRespv1l3_recorded\recording_micRespv1l3_2024-01-26_09h18.47.719.wav;78.1445731;;None;78.1445731;78.1445731;78.1445731;78.1445731;78.1445731;78.1445731;;;;;;470104;1;2024-01-26_09h17.38.599;REPSWITCH1_version1_list3;2022.2.4;143.8110196;
REPSWITCH1/PICTURE_178.png;puente;speak;gold;nontarget;2;NT;1;2;3;1;Stim1_Set1;0;None;14;13;14;0;13;13;13;;;;;;;;;;;;;;;;;;;;;;;78.6446056;79.6864618;79.6864618;79.6864618;79.6864618;79.6864618;79.6864618;79.6864618;79.6864618;None;0;;;C:\2023\REPSWITCH21092023\REPSWITCH_excgange\REPSWITCH_excgange\data/470104_REPSWITCH1_version1_list3_2024-01-26_09h17.38.599_micRespv1l3_recorded\recording_micRespv1l3_2024-01-26_09h18.52.290.wav;82.707624;83.2077518;None;82.707624;82.707624;82.707624;82.707624;82.707624;82.707624;;;;;;470104;1;2024-01-26_09h17.38.599;REPSWITCH1_version1_list3;2022.2.4;143.8110196;
REPSWITCH1/PICTURE_178.png;puente;type;darkblue;switch;1;T;1;2;3;1;Stim1_Set1;0;None;15;14;15;0;14;14;14;;;;;;;;;;;;;;;;;;;;;;;83.2077518;84.3397923;84.3397923;84.3397923;84.3397923;84.3397923;84.3397923;84.3397923;84.3397923;['p', 'u', 'e', 'n', 't', 'e'];0;[1.4577368004247546, 1.6743347998708487, 1.871671199798584, 2.112087800167501, 2.2316362001001835, 2.3542350996285677];puente;C:\2023\REPSWITCH21092023\REPSWITCH_excgange\REPSWITCH_excgange\data/470104_REPSWITCH1_version1_list3_2024-01-26_09h17.38.599_micRespv1l3_recorded\recording_micRespv1l3_2024-01-26_09h18.56.942.wav;87.3609723;87.8610624;None;87.3609723;87.3609723;87.3609723;87.3609723;87.3609723;87.3609723;;;;;;470104;1;2024-01-26_09h17.38.599;REPSWITCH1_version1_list3;2022.2.4;143.8110196;
REPSWITCH1/PICTURE_719.png;baño;speak;gold;filler;2;F;1;2;3;1;Stim2_Set4;0;None;16;15;16;0;15;15;15;;;;;;;;;;;;;;;;;;;;;;;87.8610624;89.0278688;89.0278688;89.0278688;89.0278688;89.0278688;89.0278688;89.0278688;89.0278688;None;0;;;C:\2023\REPSWITCH21092023\REPSWITCH_excgange\REPSWITCH_excgange\data/470104_REPSWITCH1_version1_list3_2024-01-26_09h17.38.599_micRespv1l3_recorded\recording_micRespv1l3_2024-01-26_09h19.01.630.wav;92.0491054;92.5491646;None;92.0491054;92.0491054;92.0491054;92.0491054;92.0491054;92.0491054;;;;;;470104;1;2024-01-26_09h17.38.599;REPSWITCH1_version1_list3;2022.2.4;143.8110196;
REPSWITCH1/PICTURE_169.png;espalda;type;darkblue;nontarget;1;NT;1;2;3;1;Stim8_Set1;1;switch;17;16;17;0;16;16;16;;;;;;;;;;;;;;;;;;;;;;;92.5491646;93.6326699;93.6326699;93.6326699;93.6326699;93.6326699;93.6326699;93.6326699;93.6326699;['e', 's', 'p', 'a', 'l', 'd', 'a'];0;[0.9378433004021645, 1.1153016006574035, 1.288663100451231, 1.4086230006068945, 1.5215661004185677, 1.840551600791514, 2.0292240008711815];espalda;C:\2023\REPSWITCH21092023\REPSWITCH_excgange\REPSWITCH_excgange\data/470104_REPSWITCH1_version1_list3_2024-01-26_09h17.38.599_micRespv1l3_recorded\recording_micRespv1l3_2024-01-26_09h19.06.236.wav;96.6608794;;None;96.6608794;96.6608794;96.6608794;96.6608794;96.6608794;96.6608794;;;;;;470104;1;2024-01-26_09h17.38.599;REPSWITCH1_version1_list3;2022.2.4;143.8110196;
REPSWITCH1/PICTURE_169.png;espalda;type;darkblue;repeat;1;T;1;2;3;1;Stim8_Set1;0;None;18;17;18;0;17;17;17;;;;;;;;;;;;;;;;;;;;;;;97.1609431;98.251376;98.251376;98.251376;98.251376;98.251376;98.251376;98.251376;98.251376;['e', 's', 'p', 'a', 'l', 'd', 'a'];0;[1.0572896003723145, 1.2275152001529932, 1.351987300440669, 1.4884974006563425, 1.6162723004817963, 1.8058904008939862, 1.891644200310111];espalda;C:\2023\REPSWITCH21092023\REPSWITCH_excgange\REPSWITCH_excgange\data/470104_REPSWITCH1_version1_list3_2024-01-26_09h17.38.599_micRespv1l3_recorded\recording_micRespv1l3_2024-01-26_09h19.10.853.wav;101.272564;101.7725784;None;101.272564;101.272564;101.272564;101.272564;101.272564;101.272564;;;;;;470104;1;2024-01-26_09h17.38.599;REPSWITCH1_version1_list3;2022.2.4;143.8110196;
REPSWITCH1/PICTURE_48.png;bombero;speak;gold;filler;2;F;1;2;3;1;Stim7_Set4;1;switch;19;18;19;0;18;18;18;;;;;;;;;;;;;;;;;;;;;;;101.7725784;102.9255732;102.9255732;102.9255732;102.9255732;102.9255732;102.9255732;102.9255732;102.9255732;None;0;;;C:\2023\REPSWITCH21092023\REPSWITCH_excgange\REPSWITCH_excgange\data/470104_REPSWITCH1_version1_list3_2024-01-26_09h17.38.599_micRespv1l3_recorded\recording_micRespv1l3_2024-01-26_09h19.15.528.wav;105.9536816;;None;105.9536816;105.9536816;105.9536816;105.9536816;105.9536816;105.9536816;;;;;;470104;1;2024-01-26_09h17.38.599;REPSWITCH1_version1_list3;2022.2.4;143.8110196;
REPSWITCH1/PICTURE_19.png;pavo;type;darkblue;nontarget;1;NT;1;2;3;1;Stim5_Set1;1;switch;20;19;20;0;19;19;19;;;;;;;;;;;;;;;;;;;;;;;106.453744;107.5927808;107.5927808;107.5927808;107.5927808;107.5927808;107.5927808;107.5927808;107.5927808;['p', 'a', 'v', 'o'];0;[1.1620897995308042, 1.252793500199914, 1.656436000019312, 1.8158545000478625];pavo;C:\2023\REPSWITCH21092023\REPSWITCH_excgange\REPSWITCH_excgange\data/470104_REPSWITCH1_version1_list3_2024-01-26_09h17.38.599_micRespv1l3_recorded\recording_micRespv1l3_2024-01-26_09h19.20.195.wav;110.6209396;;None;110.6209396;110.6209396;110.6209396;110.6209396;110.6209396;110.6209396;;;;;;470104;1;2024-01-26_09h17.38.599;REPSWITCH1_version1_list3;2022.2.4;143.8110196;
REPSWITCH1/PICTURE_19.png;pavo;type;darkblue;repeat;1;T;1;2;3;1;Stim5_Set1;0;None;21;20;21;0;20;20;20;;;;;;;;;;;;;;;;;;;;;;;111.1210857;112.2045365;112.2045365;112.2045365;112.2045365;112.2045365;112.2045365;112.2045365;112.2045365;['p', 'a', 'v', 'o'];0;[0.5623813001438975, 0.7356917997822165, 0.978256500326097, 1.0790343005210161];pavo;C:\2023\REPSWITCH21092023\REPSWITCH_excgange\REPSWITCH_excgange\data/470104_REPSWITCH1_version1_list3_2024-01-26_09h17.38.599_micRespv1l3_recorded\recording_micRespv1l3_2024-01-26_09h19.24.808.wav;115.2326694;;None;115.2326694;115.2326694;115.2326694;115.2326694;115.2326694;115.2326694;;;;;;470104;1;2024-01-26_09h17.38.599;REPSWITCH1_version1_list3;2022.2.4;143.8110196;
REPSWITCH1/PICTURE_319.png;vaca;speak;gold;filler;2;F;1;2;3;1;Stim1_Set4;0;None;22;21;22;0;21;21;21;;;;;;;;;;;;;;;;;;;;;;;115.7327116;116.7467197;116.7467197;116.7467197;116.7467197;116.7467197;116.7467197;116.7467197;116.7467197;None;0;;;C:\2023\REPSWITCH21092023\REPSWITCH_excgange\REPSWITCH_excgange\data/470104_REPSWITCH1_version1_list3_2024-01-26_09h17.38.599_micRespv1l3_recorded\recording_micRespv1l3_2024-01-26_09h19.29.350.wav;119.7749121;;None;119.7749121;119.7749121;119.7749121;119.7749121;119.7749121;119.7749121;;;;;;470104;1;2024-01-26_09h17.38.599;REPSWITCH1_version1_list3;2022.2.4;143.8110196;
REPSWITCH1/PICTURE_338.png;regalo;type;darkblue;filler;1;F;1;2;3;1;Stim6_Set4;0;None;23;22;23;0;22;22;22;;;;;;;;;;;;;;;;;;;;;;;120.2749532;121.3306854;121.3306854;121.3306854;121.3306854;121.3306854;121.3306854;121.3306854;121.3306854;['r', 'e', 'g', 'a', 'l', 'o'];0;[0.831861600279808, 0.9439228009432554, 1.2442452004179358, 1.3616858003661036, 1.6303731007501483, 1.8729616003111005];regalo;C:\2023\REPSWITCH21092023\REPSWITCH_excgange\REPSWITCH_excgange\data/470104_REPSWITCH1_version1_list3_2024-01-26_09h17.38.599_micRespv1l3_recorded\recording_micRespv1l3_2024-01-26_09h19.33.933.wav;124.3519577;124.851954;None;124.3519577;124.3519577;124.3519577;124.3519577;124.3519577;124.3519577;;;;;;470104;1;2024-01-26_09h17.38.599;REPSWITCH1_version1_list3;2022.2.4;143.8110196;
REPSWITCH1/PICTURE_142.png;vaso;type;darkblue;nontarget;1;NT;1;2;3;1;Stim7_Set1;0;None;24;23;24;0;23;23;23;;;;;;;;;;;;;;;;;;;;;;;124.851954;125.9562786;125.9562786;125.9562786;125.9562786;125.9562786;125.9562786;125.9562786;125.9562786;['v', 'a', 's', 'o'];0;[0.7479904005303979, 0.8875174997374415, 0.9875883003696799, 1.1493437997996807];vaso;C:\2023\REPSWITCH21092023\REPSWITCH_excgange\REPSWITCH_excgange\data/470104_REPSWITCH1_version1_list3_2024-01-26_09h17.38.599_micRespv1l3_recorded\recording_micRespv1l3_2024-01-26_09h19.38.559.wav;128.9774431;129.4775404;None;128.9774431;128.9774431;128.9774431;128.9774431;128.9774431;128.9774431;;;;;;470104;1;2024-01-26_09h17.38.599;REPSWITCH1_version1_list3;2022.2.4;143.8110196;
REPSWITCH1/PICTURE_142.png;vaso;speak;gold;switch;2;T;1;2;3;1;Stim7_Set1;0;None;25;24;25;0;24;24;24;;;;;;;;;;;;;;;;;;;;;;;129.4775404;130.5957628;130.5957628;130.5957628;130.5957628;130.5957628;130.5957628;130.5957628;130.5957628;None;0;;;C:\2023\REPSWITCH21092023\REPSWITCH_excgange\REPSWITCH_excgange\data/470104_REPSWITCH1_version1_list3_2024-01-26_09h17.38.599_micRespv1l3_recorded\recording_micRespv1l3_2024-01-26_09h19.43.199.wav;133.6169348;134.1170314;None;133.6169348;133.6169348;133.6169348;133.6169348;133.6169348;133.6169348;;;;;;470104;1;2024-01-26_09h17.38.599;REPSWITCH1_version1_list3;2022.2.4;143.8110196;
REPSWITCH1/PICTURE_687.png;camisa;type;darkblue;filler;1;F;1;2;3;1;Stim5_Set4;1;switch;26;25;26;0;25;25;25;;;;;;;;;;;;;;;;;;;;;;;134.1170314;135.2491504;135.2491504;135.2491504;135.2491504;135.2491504;135.2491504;135.2491504;135.2491504;['c', 'a', 'm', 'i', 's', 'a'];0;[1.3836714001372457, 1.476779700256884, 1.579308900050819, 1.6910087000578642, 1.7288860995322466, 1.9062463995069265];camisa;C:\2023\REPSWITCH21092023\REPSWITCH_excgange\REPSWITCH_excgange\data/470104_REPSWITCH1_version1_list3_2024-01-26_09h17.38.599_micRespv1l3_recorded\recording_micRespv1l3_2024-01-26_09h19.47.852.wav;138.2703252;138.7703752;None;138.2703252;138.2703252;138.2703252;138.2703252;138.2703252;138.2703252;;;;;;470104;1;2024-01-26_09h17.38.599;REPSWITCH1_version1_list3;2022.2.4;143.8110196;
REPSWITCH1/PICTURE_30.png;granja;type;darkblue;nontarget;1;NT;2;2;3;1;Stim5_Set2;0;None;27;26;27;0;26;26;26;;;;;;;;;;;;;;;;;;;;;;;138.7703752;139.7982902;139.7982902;139.7982902;139.7982902;139.7982902;139.7982902;139.7982902;139.7982902;['g', 'r', 'a', 'n', 'j', 'a'];0;[0.8760939007624984, 0.9639292005449533, 1.0725612007081509, 1.2021327009424567, 1.3366526002064347, 1.3934684004634619];granja;C:\2023\REPSWITCH21092023\REPSWITCH_excgange\REPSWITCH_excgange\data/470104_REPSWITCH1_version1_list3_2024-01-26_09h17.38.599_micRespv1l3_recorded\recording_micRespv1l3_2024-01-26_09h19.52.402.wav;142.8264771;143.3266245;None;142.8264771;142.8264771;142.8264771;142.8264771;142.8264771;142.8264771;;;;;;470104;1;2024-01-26_09h17.38.599;REPSWITCH1_version1_list3;2022.2.4;143.8110196;
REPSWITCH1/PICTURE_30.png;granja;type;darkblue;repeat;1;T;2;2;3;1;Stim5_Set2;0;None;28;27;28;0;27;27;27;;;;;;;;;;;;;;;;;;;;;;;143.3266245;144.4100549;144.4100549;144.4100549;144.4100549;144.4100549;144.4100549;144.4100549;144.4100549;['g', 'r', 'a', 'n', 'j', 'a'];0;[0.787368300370872, 0.8680996000766754, 0.9740583002567291, 1.1269000004976988, 1.2913806000724435, 1.3711578007787466];granja;C:\2023\REPSWITCH21092023\REPSWITCH_excgange\REPSWITCH_excgange\data/470104_REPSWITCH1_version1_list3_2024-01-26_09h17.38.599_micRespv1l3_recorded\recording_micRespv1l3_2024-01-26_09h19.57.014.wav;147.4382033;;None;147.4382033;147.4382033;147.4382033;147.4382033;147.4382033;147.4382033;;;;;;470104;1;2024-01-26_09h17.38.599;REPSWITCH1_version1_list3;2022.2.4;143.8110196;
REPSWITCH1/PICTURE_128.png;muñeca;speak;gold;filler;2;F;2;2;3;1;Stim4_Set1;0;None;29;28;29;0;28;28;28;;;;;;;;;;;;;;;;;;;;;;;147.9382564;149.0217481;149.0217481;149.0217481;149.0217481;149.0217481;149.0217481;149.0217481;149.0217481;None;0;;;C:\2023\REPSWITCH21092023\REPSWITCH_excgange\REPSWITCH_excgange\data/470104_REPSWITCH1_version1_list3_2024-01-26_09h17.38.599_micRespv1l3_recorded\recording_micRespv1l3_2024-01-26_09h20.01.624.wav;152.0499117;;None;152.0499117;152.0499117;152.0499117;152.0499117;152.0499117;152.0499117;;;;;;470104;1;2024-01-26_09h17.38.599;REPSWITCH1_version1_list3;2022.2.4;143.8110196;
REPSWITCH1/PICTURE_264.png;mano;type;darkblue;nontarget;1;NT;2;2;3;1;Stim3_Set2;1;switch;30;29;30;0;29;29;29;;;;;;;;;;;;;;;;;;;;;;;152.5499693;153.6334527;153.6334527;153.6334527;153.6334527;153.6334527;153.6334527;153.6334527;153.6334527;['m', 'a', 'n', 'o'];0;[0.908788900822401, 0.9535756008699536, 1.117039700038731, 1.2156675001606345];mano;C:\2023\REPSWITCH21092023\REPSWITCH_excgange\REPSWITCH_excgange\data/470104_REPSWITCH1_version1_list3_2024-01-26_09h17.38.599_micRespv1l3_recorded\recording_micRespv1l3_2024-01-26_09h20.06.236.wav;156.661606;;None;156.661606;156.661606;156.661606;156.661606;156.661606;156.661606;;;;;;470104;1;2024-01-26_09h17.38.599;REPSWITCH1_version1_list3;2022.2.4;143.8110196;
REPSWITCH1/PICTURE_264.png;mano;type;darkblue;repeat;1;T;2;2;3;1;Stim3_Set2;0;None;31;30;31;0;30;30;30;;;;;;;;;;;;;;;;;;;;;;;157.1616763;158.2937418;158.2937418;158.2937418;158.2937418;158.2937418;158.2937418;158.2937418;158.2937418;['m', 'a', 'n', 'o'];0;[0.7674529999494553, 0.8431930001825094, 0.9551486000418663, 1.016937400214374];mano;C:\2023\REPSWITCH21092023\REPSWITCH_excgange\REPSWITCH_excgange\data/470104_REPSWITCH1_version1_list3_2024-01-26_09h17.38.599_micRespv1l3_recorded\recording_micRespv1l3_2024-01-26_09h20.10.896.wav;161.3220007;;None;161.3220007;161.3220007;161.3220007;161.3220007;161.3220007;161.3220007;;;;;;470104;1;2024-01-26_09h17.38.599;REPSWITCH1_version1_list3;2022.2.4;143.8110196;
REPSWITCH1/PICTURE_175.png;pintor;type;darkblue;nontarget;1;NT;2;2;3;1;Stim1_Set2;0;None;32;31;32;0;31;31;31;;;;;;;;;;;;;;;;;;;;;;;161.8220009;162.9262926;162.9262926;162.9262926;162.9262926;162.9262926;162.9262926;162.9262926;162.9262926;['p', 'i', 'n', 't', 'o', 'r'];0;[1.9167745998129249, 2.1158101996406913, 2.2663214998319745, 2.3839096995070577, 2.46595530025661, 2.5785823995247483];pintor;C:\2023\REPSWITCH21092023\REPSWITCH_excgange\REPSWITCH_excgange\data/470104_REPSWITCH1_version1_list3_2024-01-26_09h17.38.599_micRespv1l3_recorded\recording_micRespv1l3_2024-01-26_09h20.15.529.wav;165.9475011;166.4476027;None;165.9475011;165.9475011;165.9475011;165.9475011;165.9475011;165.9475011;;;;;;470104;1;2024-01-26_09h17.38.599;REPSWITCH1_version1_list3;2022.2.4;143.8110196;
REPSWITCH1/PICTURE_175.png;pintor;speak;gold;switch;2;T;2;2;3;1;Stim1_Set2;0;None;33;32;33;0;32;32;32;;;;;;;;;;;;;;;;;;;;;;;166.4476027;167.5171596;167.5171596;167.5171596;167.5171596;167.5171596;167.5171596;167.5171596;167.5171596;None;0;;;C:\2023\REPSWITCH21092023\REPSWITCH_excgange\REPSWITCH_excgange\data/470104_REPSWITCH1_version1_list3_2024-01-26_09h17.38.599_micRespv1l3_recorded\recording_micRespv1l3_2024-01-26_09h20.20.120.wav;170.5383708;171.0384412;None;170.5383708;170.5383708;170.5383708;170.5383708;170.5383708;170.5383708;;;;;;470104;1;2024-01-26_09h17.38.599;REPSWITCH1_version1_list3;2022.2.4;143.8110196;
REPSWITCH1/PICTURE_135.png;traje;speak;gold;filler;2;F;2;2;3;1;Stim3_Set1;1;repeat;34;33;34;0;33;33;33;;;;;;;;;;;;;;;;;;;;;;;171.0384412;172.1566863;172.1566863;172.1566863;172.1566863;172.1566863;172.1566863;172.1566863;172.1566863;None;0;;;C:\2023\REPSWITCH21092023\REPSWITCH_excgange\REPSWITCH_excgange\data/470104_REPSWITCH1_version1_list3_2024-01-26_09h17.38.599_micRespv1l3_recorded\recording_micRespv1l3_2024-01-26_09h20.24.759.wav;175.1778838;175.6779716;None;175.1778838;175.1778838;175.1778838;175.1778838;175.1778838;175.1778838;;;;;;470104;1;2024-01-26_09h17.38.599;REPSWITCH1_version1_list3;2022.2.4;143.8110196;
REPSWITCH1/PICTURE_446.png;cerdo;speak;gold;nontarget;2;NT;2;2;3;1;Stim7_Set2;1;repeat;35;34;35;0;34;34;34;;;;;;;;;;;;;;;;;;;;;;;175.6779716;176.761411;176.761411;176.761411;176.761411;176.761411;176.761411;176.761411;176.761411;None;0;;;C:\2023\REPSWITCH21092023\REPSWITCH_excgange\REPSWITCH_excgange\data/470104_REPSWITCH1_version1_list3_2024-01-26_09h17.38.599_micRespv1l3_recorded\recording_micRespv1l3_2024-01-26_09h20.29.364.wav;179.7826363;180.282715;None;179.7826363;179.7826363;179.7826363;179.7826363;179.7826363;179.7826363;;;;;;470104;1;2024-01-26_09h17.38.599;REPSWITCH1_version1_list3;2022.2.4;143.8110196;
REPSWITCH1/PICTURE_446.png;cerdo;type;darkblue;switch;1;T;2;2;3;1;Stim7_Set2;0;None;36;35;36;0;35;35;35;;;;;;;;;;;;;;;;;;;;;;;180.282715;181.3175763;181.3175763;181.3175763;181.3175763;181.3175763;181.3175763;181.3175763;181.3175763;['c', 'e', 'r', 'd', 'o'];0;[0.6246394999325275, 0.7883272999897599, 0.8531144000589848, 1.0906157996505499, 1.1803484996780753];cerdo;C:\2023\REPSWITCH21092023\REPSWITCH_excgange\REPSWITCH_excgange\data/470104_REPSWITCH1_version1_list3_2024-01-26_09h17.38.599_micRespv1l3_recorded\recording_micRespv1l3_2024-01-26_09h20.33.920.wav;184.3388357;184.8388484;None;184.3388357;184.3388357;184.3388357;184.3388357;184.3388357;184.3388357;;;;;;470104;1;2024-01-26_09h17.38.599;REPSWITCH1_version1_list3;2022.2.4;143.8110196;
REPSWITCH1/PICTURE_152.png;caracol;type;darkblue;nontarget;1;NT;2;2;3;1;Stim2_Set2;1;repeat;37;36;37;0;36;36;36;;;;;;;;;;;;;;;;;;;;;;;184.8388484;185.9640176;185.9640176;185.9640176;185.9640176;185.9640176;185.9640176;185.9640176;185.9640176;['c', 'a', 'r', 'a', 'c', 'o', 'l'];0;[0.7298732008785009, 0.832510900683701, 1.0099123008549213, 1.0949558010324836, 1.3058221004903316, 1.4045347003266215, 1.635759200900793];caracol;C:\2023\REPSWITCH21092023\REPSWITCH_excgange\REPSWITCH_excgange\data/470104_REPSWITCH1_version1_list3_2024-01-26_09h17.38.599_micRespv1l3_recorded\recording_micRespv1l3_2024-01-26_09h20.38.567.wav;188.992209;;None;188.992209;188.992209;188.992209;188.992209;188.992209;188.992209;;;;;;470104;1;2024-01-26_09h17.38.599;REPSWITCH1_version1_list3;2022.2.4;143.8110196;
REPSWITCH1/PICTURE_152.png;caracol;speak;gold;switch;2;T;2;2;3;1;Stim2_Set2;0;None;38;37;38;0;37;37;37;;;;;;;;;;;;;;;;;;;;;;;189.4921979;190.5826766;190.5826766;190.5826766;190.5826766;190.5826766;190.5826766;190.5826766;190.5826766;None;0;;;C:\2023\REPSWITCH21092023\REPSWITCH_excgange\REPSWITCH_excgange\data/470104_REPSWITCH1_version1_list3_2024-01-26_09h17.38.599_micRespv1l3_recorded\recording_micRespv1l3_2024-01-26_09h20.43.185.wav;193.6108238;;None;193.6108238;193.6108238;193.6108238;193.6108238;193.6108238;193.6108238;;;;;;470104;1;2024-01-26_09h17.38.599;REPSWITCH1_version1_list3;2022.2.4;143.8110196;
REPSWITCH1/PICTURE_16.png;cazador;type;darkblue;filler;1;F;2;2;3;1;Stim6_Set1;0;None;39;38;39;0;38;38;38;;;;;;;;;;;;;;;;;;;;;;;194.1109648;195.2152699;195.2152699;195.2152699;195.2152699;195.2152699;195.2152699;195.2152699;195.2152699;['c', 'a', 'z', 'a', 'd', 'o', 'r'];0;[1.155859200283885, 1.2315907003358006, 1.443139100447297, 1.6194820003584027, 1.7598016001284122, 1.8835317008197308, 1.9951779004186392];cazador;C:\2023\REPSWITCH21092023\REPSWITCH_excgange\REPSWITCH_excgange\data/470104_REPSWITCH1_version1_list3_2024-01-26_09h17.38.599_micRespv1l3_recorded\recording_micRespv1l3_2024-01-26_09h20.47.817.wav;198.2364145;198.7364654;None;198.2364145;198.2364145;198.2364145;198.2364145;198.2364145;198.2364145;;;;;;470104;1;2024-01-26_09h17.38.599;REPSWITCH1_version1_list3;2022.2.4;143.8110196;
REPSWITCH1/PICTURE_381.png;fresa;speak;gold;filler;2;F;2;2;3;1;Stim2_Set1;0;None;40;39;40;0;39;39;39;;;;;;;;;;;;;;;;;;;;;;;198.7364654;199.8477347;199.8477347;199.8477347;199.8477347;199.8477347;199.8477347;199.8477347;199.8477347;None;0;;;C:\2023\REPSWITCH21092023\REPSWITCH_excgange\REPSWITCH_excgange\data/470104_REPSWITCH1_version1_list3_2024-01-26_09h17.38.599_micRespv1l3_recorded\recording_micRespv1l3_2024-01-26_09h20.52.451.wav;202.8689787;203.3690437;None;202.8689787;202.8689787;202.8689787;202.8689787;202.8689787;202.8689787;;;;;;470104;1;2024-01-26_09h17.38.599;REPSWITCH1_version1_list3;2022.2.4;143.8110196;
REPSWITCH1/PICTURE_19.png;pavo;type;darkblue;filler;1;F;2;2;3;1;Stim5_Set1;0;None;41;40;41;0;40;40;40;;;;;;;;;;;;;;;;;;;;;;;203.3690437;204.6261382;204.6261382;204.6261382;204.6261382;204.6261382;204.6261382;204.6261382;204.6261382;['p', 'a', 'v', 'o'];0;[0.8349676001816988, 0.8977517997846007, 1.1578882997855544, 1.25853839982301];pavo;C:\2023\REPSWITCH21092023\REPSWITCH_excgange\REPSWITCH_excgange\data/470104_REPSWITCH1_version1_list3_2024-01-26_09h17.38.599_micRespv1l3_recorded\recording_micRespv1l3_2024-01-26_09h20.57.230.wav;207.6542875;;None;207.6542875;207.6542875;207.6542875;207.6542875;207.6542875;207.6542875;;;;;;470104;1;2024-01-26_09h17.38.599;REPSWITCH1_version1_list3;2022.2.4;143.8110196;
REPSWITCH1/PICTURE_517.png;cuerda;speak;gold;nontarget;2;NT;2;2;3;1;Stim4_Set2;1;switch;42;41;42;0;41;41;41;;;;;;;;;;;;;;;;;;;;;;;208.1543497;209.2656511;209.2656511;209.2656511;209.2656511;209.2656511;209.2656511;209.2656511;209.2656511;None;0;;;C:\2023\REPSWITCH21092023\REPSWITCH_excgange\REPSWITCH_excgange\data/470104_REPSWITCH1_version1_list3_2024-01-26_09h17.38.599_micRespv1l3_recorded\recording_micRespv1l3_2024-01-26_09h21.01.868.wav;212.2937962;;None;212.2937962;212.2937962;212.2937962;212.2937962;212.2937962;212.2937962;;;;;;470104;1;2024-01-26_09h17.38.599;REPSWITCH1_version1_list3;2022.2.4;143.8110196;
REPSWITCH1/PICTURE_517.png;cuerda;speak;gold;repeat;2;T;2;2;3;1;Stim4_Set2;0;None;43;42;43;0;42;42;42;;;;;;;;;;;;;;;;;;;;;;;212.7938615;213.8495579;213.8495579;213.8495579;213.8495579;213.8495579;213.8495579;213.8495579;213.8495579;None;0;;;C:\2023\REPSWITCH21092023\REPSWITCH_excgange\REPSWITCH_excgange\data/470104_REPSWITCH1_version1_list3_2024-01-26_09h17.38.599_micRespv1l3_recorded\recording_micRespv1l3_2024-01-26_09h21.06.452.wav;216.8846771;;None;216.8846771;216.8846771;216.8846771;216.8846771;216.8846771;216.8846771;;;;;;470104;1;2024-01-26_09h17.38.599;REPSWITCH1_version1_list3;2022.2.4;143.8110196;
REPSWITCH1/PICTURE_178.png;puente;type;darkblue;filler;1;F;2;2;3;1;Stim1_Set1;0;None;44;43;44;0;43;43;43;;;;;;;;;;;;;;;;;;;;;;;217.3847978;218.4126446;218.4126446;218.4126446;218.4126446;218.4126446;218.4126446;218.4126446;218.4126446;['p', 'u', 'e', 'n', 't', 'e'];0;[0.8329685004428029, 1.0471785003319383, 1.120873000472784, 1.2833163002505898, 1.3904705997556448, 1.4123959001153708];puente;C:\2023\REPSWITCH21092023\REPSWITCH_excgange\REPSWITCH_excgange\data/470104_REPSWITCH1_version1_list3_2024-01-26_09h17.38.599_micRespv1l3_recorded\recording_micRespv1l3_2024-01-26_09h21.11.015.wav;221.4338394;221.9339441;None;221.4338394;221.4338394;221.4338394;221.4338394;221.4338394;221.4338394;;;;;;470104;1;2024-01-26_09h17.38.599;REPSWITCH1_version1_list3;2022.2.4;143.8110196;
REPSWITCH1/PICTURE_199.png;falda;speak;gold;nontarget;2;NT;2;2;3;1;Stim8_Set2;1;switch;45;44;45;0;44;44;44;;;;;;;;;;;;;;;;;;;;;;;221.9339441;223.0591441;223.0591441;223.0591441;223.0591441;223.0591441;223.0591441;223.0591441;223.0591441;None;0;;;C:\2023\REPSWITCH21092023\REPSWITCH_excgange\REPSWITCH_excgange\data/470104_REPSWITCH1_version1_list3_2024-01-26_09h17.38.599_micRespv1l3_recorded\recording_micRespv1l3_2024-01-26_09h21.15.662.wav;226.0872162;;None;226.0872162;226.0872162;226.0872162;226.0872162;226.0872162;226.0872162;;;;;;470104;1;2024-01-26_09h17.38.599;REPSWITCH1_version1_list3;2022.2.4;143.8110196;
REPSWITCH1/PICTURE_199.png;falda;speak;gold;repeat;2;T;2;2;3;1;Stim8_Set2;0;None;46;45;46;0;45;45;45;;;;;;;;;;;;;;;;;;;;;;;226.5872847;227.7193813;227.7193813;227.7193813;227.7193813;227.7193813;227.7193813;227.7193813;227.7193813;None;0;;;C:\2023\REPSWITCH21092023\REPSWITCH_excgange\REPSWITCH_excgange\data/470104_REPSWITCH1_version1_list3_2024-01-26_09h17.38.599_micRespv1l3_recorded\recording_micRespv1l3_2024-01-26_09h21.20.322.wav;230.7476379;;None;230.7476379;230.7476379;230.7476379;230.7476379;230.7476379;230.7476379;;;;;;470104;1;2024-01-26_09h17.38.599;REPSWITCH1_version1_list3;2022.2.4;143.8110196;
REPSWITCH1/PICTURE_169.png;espalda;type;darkblue;filler;1;F;2;2;3;1;Stim8_Set1;0;None;47;46;47;0;46;46;46;;;;;;;;;;;;;;;;;;;;;;;231.2476316;232.2547119;232.2547119;232.2547119;232.2547119;232.2547119;232.2547119;232.2547119;232.2547119;['e', 's', 'p', 'o', 'a', 'l', 'd', 'a', 'backspace', 'backspace'];0;[0.8808102002367377, 1.066258200444281, 1.234650700353086, 1.2356509007513523, 1.3253456009551883, 1.7459835009649396, 2.048298300243914, 2.148950100876391, 2.718037800863385, 2.8846496008336544];esoal;C:\2023\REPSWITCH21092023\REPSWITCH_excgange\REPSWITCH_excgange\data/470104_REPSWITCH1_version1_list3_2024-01-26_09h17.38.599_micRespv1l3_recorded\recording_micRespv1l3_2024-01-26_09h21.24.857.wav;235.2759301;235.7759948;None;235.2759301;235.2759301;235.2759301;235.2759301;235.2759301;235.2759301;;;;;;470104;1;2024-01-26_09h17.38.599;REPSWITCH1_version1_list3;2022.2.4;143.8110196;
REPSWITCH1/PICTURE_142.png;vaso;speak;gold;filler;2;F;2;2;3;1;Stim7_Set1;0;None;48;47;48;0;47;47;47;;;;;;;;;;;;;;;;;;;;;;;235.7759948;236.998437;236.998437;236.998437;236.998437;236.998437;236.998437;236.998437;236.998437;None;0;;;C:\2023\REPSWITCH21092023\REPSWITCH_excgange\REPSWITCH_excgange\data/470104_REPSWITCH1_version1_list3_2024-01-26_09h17.38.599_micRespv1l3_recorded\recording_micRespv1l3_2024-01-26_09h21.29.601.wav;240.0265407;;None;240.0265407;240.0265407;240.0265407;240.0265407;240.0265407;240.0265407;;;;;;470104;1;2024-01-26_09h17.38.599;REPSWITCH1_version1_list3;2022.2.4;143.8110196;
REPSWITCH1/PICTURE_552.png;manzana;speak;gold;nontarget;2;NT;2;2;3;1;Stim6_Set2;0;None;49;48;49;0;48;48;48;;;;;;;;;;;;;;;;;;;;;;;240.5265717;241.5822811;241.5822811;241.5822811;241.5822811;241.5822811;241.5822811;241.5822811;241.5822811;None;0;;;C:\2023\REPSWITCH21092023\REPSWITCH_excgange\REPSWITCH_excgange\data/470104_REPSWITCH1_version1_list3_2024-01-26_09h17.38.599_micRespv1l3_recorded\recording_micRespv1l3_2024-01-26_09h21.34.186.wav;244.6105124;;None;244.6105124;244.6105124;244.6105124;244.6105124;244.6105124;244.6105124;;;;;;470104;1;2024-01-26_09h17.38.599;REPSWITCH1_version1_list3;2022.2.4;143.8110196;
REPSWITCH1/PICTURE_552.png;manzana;type;darkblue;switch;1;T;2;2;3;1;Stim6_Set2;0;None;50;49;50;0;49;49;49;;;;;;;;;;;;;;;;;;;;;;;245.1105191;246.2843479;246.2843479;246.2843479;246.2843479;246.2843479;246.2843479;246.2843479;246.2843479;['m', 'a', 'n', 'z', 'a', 'n', 'a'];0;[1.0329983001574874, 1.1277657002210617, 1.3355310000479221, 1.5358942998573184, 1.9159796005114913, 2.086487799882889, 2.1622304003685713];manzana;C:\2023\REPSWITCH21092023\REPSWITCH_excgange\REPSWITCH_excgange\data/470104_REPSWITCH1_version1_list3_2024-01-26_09h17.38.599_micRespv1l3_recorded\recording_micRespv1l3_2024-01-26_09h21.38.888.wav;249.3125166;;None;249.3125166;249.3125166;249.3125166;249.3125166;249.3125166;249.3125166;;;;;;470104;1;2024-01-26_09h17.38.599;REPSWITCH1_version1_list3;2022.2.4;143.8110196;
REPSWITCH1/PICTURE_590.png;escoba;speak;gold;filler;2;F;1;2;3;1;Extra3;0;None;51;50;51;0;50;50;50;;;;;;;;;;;;;;;;;;;;;;;249.8125158;250.8751352;250.8751352;250.8751352;250.8751352;250.8751352;250.8751352;250.8751352;250.8751352;None;0;;;C:\2023\REPSWITCH21092023\REPSWITCH_excgange\REPSWITCH_excgange\data/470104_REPSWITCH1_version1_list3_2024-01-26_09h17.38.599_micRespv1l3_recorded\recording_micRespv1l3_2024-01-26_09h21.43.478.wav;253.9033276;254.4033635;space;253.9033276;253.9033276;253.9033276;253.9033276;253.9033276;253.9033276;254.4033635;254.4033635;1.804733;;;470104;1;2024-01-26_09h17.38.599;REPSWITCH1_version1_list3;2022.2.4;143.8110196;
REPSWITCH1/PICTURE_552.png;manzana;type;darkblue;filler;1;F;3;2;3;1;Stim6_Set2;0;None;52;51;52;0;51;51;51;;;;;;;;;;;;;;;;;;;;;;;256.216121;257.3205024;257.3205024;257.3205024;257.3205024;257.3205024;257.3205024;257.3205024;257.3205024;['m', 'a', 'n', 'z', 'a', 'n', 'a'];0;[0.8049113005399704, 0.8887403998523951, 1.0107484003528953, 1.1086814999580383, 1.3131917007267475, 1.4122187998145819, 1.499936000443995];manzana;C:\2023\REPSWITCH21092023\REPSWITCH_excgange\REPSWITCH_excgange\data/470104_REPSWITCH1_version1_list3_2024-01-26_09h17.38.599_micRespv1l3_recorded\recording_micRespv1l3_2024-01-26_09h21.49.923.wav;260.3416472;260.8417702;None;260.3416472;260.3416472;260.3416472;260.3416472;260.3416472;260.3416472;;;;;;470104;1;2024-01-26_09h17.38.599;REPSWITCH1_version1_list3;2022.2.4;143.8110196;
REPSWITCH1/PICTURE_464.png;goma;type;darkblue;nontarget;1;NT;3;2;3;1;Stim6_Set3;1;repeat;53;52;53;0;52;52;52;;;;;;;;;;;;;;;;;;;;;;;260.8417702;261.9946751;261.9946751;261.9946751;261.9946751;261.9946751;261.9946751;261.9946751;261.9946751;['b', 'o', 'r', 'r', 'a'];0;[0.8965815007686615, 1.0170874008908868, 1.119734700769186, 1.2885090000927448, 1.3937193006277084];borra;C:\2023\REPSWITCH21092023\REPSWITCH_excgange\REPSWITCH_excgange\data/470104_REPSWITCH1_version1_list3_2024-01-26_09h17.38.599_micRespv1l3_recorded\recording_micRespv1l3_2024-01-26_09h21.54.598.wav;265.0228248;;None;265.0228248;265.0228248;265.0228248;265.0228248;265.0228248;265.0228248;;;;;;470104;1;2024-01-26_09h17.38.599;REPSWITCH1_version1_list3;2022.2.4;143.8110196;
REPSWITCH1/PICTURE_464.png;goma;speak;gold;switch;2;T;3;2;3;1;Stim6_Set3;0;None;54;53;54;0;53;53;53;;;;;;;;;;;;;;;;;;;;;;;265.5228902;266.6480168;266.6480168;266.6480168;266.6480168;266.6480168;266.6480168;266.6480168;266.6480168;None;0;;;C:\2023\REPSWITCH21092023\REPSWITCH_excgange\REPSWITCH_excgange\data/470104_REPSWITCH1_version1_list3_2024-01-26_09h17.38.599_micRespv1l3_recorded\recording_micRespv1l3_2024-01-26_09h21.59.251.wav;269.6762004;;None;269.6762004;269.6762004;269.6762004;269.6762004;269.6762004;269.6762004;;;;;;470104;1;2024-01-26_09h17.38.599;REPSWITCH1_version1_list3;2022.2.4;143.8110196;
REPSWITCH1/PICTURE_30.png;granja;speak;gold;filler;2;F;3;2;3;1;Stim5_Set2;0;None;55;54;55;0;54;54;54;;;;;;;;;;;;;;;;;;;;;;;270.1763137;271.2666925;271.2666925;271.2666925;271.2666925;271.2666925;271.2666925;271.2666925;271.2666925;None;0;;;C:\2023\REPSWITCH21092023\REPSWITCH_excgange\REPSWITCH_excgange\data/470104_REPSWITCH1_version1_list3_2024-01-26_09h17.38.599_micRespv1l3_recorded\recording_micRespv1l3_2024-01-26_09h22.03.870.wav;274.2948652;;None;274.2948652;274.2948652;274.2948652;274.2948652;274.2948652;274.2948652;;;;;;470104;1;2024-01-26_09h17.38.599;REPSWITCH1_version1_list3;2022.2.4;143.8110196;
REPSWITCH1/PICTURE_235.png;aguja;speak;gold;nontarget;2;NT;3;2;3;1;Stim4_Set3;1;repeat;56;55;56;0;55;55;55;;;;;;;;;;;;;;;;;;;;;;;274.7949266;275.8367424;275.8367424;275.8367424;275.8367424;275.8367424;275.8367424;275.8367424;275.8367424;None;0;;;C:\2023\REPSWITCH21092023\REPSWITCH_excgange\REPSWITCH_excgange\data/470104_REPSWITCH1_version1_list3_2024-01-26_09h17.38.599_micRespv1l3_recorded\recording_micRespv1l3_2024-01-26_09h22.08.439.wav;278.8579375;279.3580848;None;278.8579375;278.8579375;278.8579375;278.8579375;278.8579375;278.8579375;;;;;;470104;1;2024-01-26_09h17.38.599;REPSWITCH1_version1_list3;2022.2.4;143.8110196;
REPSWITCH1/PICTURE_235.png;aguja;type;darkblue;switch;1;T;3;2;3;1;Stim4_Set3;0;None;57;56;57;0;56;56;56;;;;;;;;;;;;;;;;;;;;;;;279.3580848;280.5109445;280.5109445;280.5109445;280.5109445;280.5109445;280.5109445;280.5109445;280.5109445;['a', 'g', 'u', 'j', 'a'];0;[0.8101004995405674, 0.9805338997393847, 1.0820057997480035, 1.2546073999255896, 1.3313050996512175];aguja;C:\2023\REPSWITCH21092023\REPSWITCH_excgange\REPSWITCH_excgange\data/470104_REPSWITCH1_version1_list3_2024-01-26_09h17.38.599_micRespv1l3_recorded\recording_micRespv1l3_2024-01-26_09h22.13.113.wav;283.5321656;284.0321954;None;283.5321656;283.5321656;283.5321656;283.5321656;283.5321656;283.5321656;;;;;;470104;1;2024-01-26_09h17.38.599;REPSWITCH1_version1_list3;2022.2.4;143.8110196;
REPSWITCH1/PICTURE_391.png;cadena;type;darkblue;filler;1;F;3;2;3;1;Extra2;0;None;58;57;58;0;57;57;57;;;;;;;;;;;;;;;;;;;;;;;284.0321954;285.0879806;285.0879806;285.0879806;285.0879806;285.0879806;285.0879806;285.0879806;285.0879806;['c', 'a', 'd', 'e', 'n', 'a'];0;[0.9533775001764297, 1.0420336006209254, 1.2327346000820398, 1.3343897005543113, 1.5036400007084012, 1.5584475006908178];cadena;C:\2023\REPSWITCH21092023\REPSWITCH_excgange\REPSWITCH_excgange\data/470104_REPSWITCH1_version1_list3_2024-01-26_09h17.38.599_micRespv1l3_recorded\recording_micRespv1l3_2024-01-26_09h22.17.691.wav;288.1160785;;None;288.1160785;288.1160785;288.1160785;288.1160785;288.1160785;288.1160785;;;;;;470104;1;2024-01-26_09h17.38.599;REPSWITCH1_version1_list3;2022.2.4;143.8110196;
REPSWITCH1/PICTURE_320.png;iglesia;type;darkblue;nontarget;1;NT;3;2;3;1;Stim8_Set3;0;None;59;58;59;0;58;58;58;;;;;;;;;;;;;;;;;;;;;;;288.6161532;289.6648984;289.6648984;289.6648984;289.6648984;289.6648984;289.6648984;289.6648984;289.6648984;['i', 'g', 'l', 'e', 's', 'i', 'a'];0;[0.868554700165987, 1.0559152998030186, 1.1397206000983715, 1.2474814001470804, 1.4118649000301957, 1.5015690997242928, 1.5743263000622392];iglesia;C:\2023\REPSWITCH21092023\REPSWITCH_excgange\REPSWITCH_excgange\data/470104_REPSWITCH1_version1_list3_2024-01-26_09h17.38.599_micRespv1l3_recorded\recording_micRespv1l3_2024-01-26_09h22.22.268.wav;292.6930699;;None;292.6930699;292.6930699;292.6930699;292.6930699;292.6930699;292.6930699;;;;;;470104;1;2024-01-26_09h17.38.599;REPSWITCH1_version1_list3;2022.2.4;143.8110196;
REPSWITCH1/PICTURE_320.png;iglesia;speak;gold;switch;2;T;3;2;3;1;Stim8_Set3;0;None;60;59;60;0;59;59;59;;;;;;;;;;;;;;;;;;;;;;;293.1931298;294.3183327;294.3183327;294.3183327;294.3183327;294.3183327;294.3183327;294.3183327;294.3183327;None;0;;;C:\2023\REPSWITCH21092023\REPSWITCH_excgange\REPSWITCH_excgange\data/470104_REPSWITCH1_version1_list3_2024-01-26_09h17.38.599_micRespv1l3_recorded\recording_micRespv1l3_2024-01-26_09h22.26.922.wav;297.3464207;;None;297.3464207;297.3464207;297.3464207;297.3464207;297.3464207;297.3464207;;;;;;470104;1;2024-01-26_09h17.38.599;REPSWITCH1_version1_list3;2022.2.4;143.8110196;
REPSWITCH1/PICTURE_175.png;pintor;type;darkblue;filler;1;F;3;2;3;1;Stim1_Set2;0;None;61;60;61;0;60;60;60;;;;;;;;;;;;;;;;;;;;;;;297.8465125;298.8952935;298.8952935;298.8952935;298.8952935;298.8952935;298.8952935;298.8952935;298.8952935;['p', 'i', 'n', 't', 'o', 'r'];0;[0.8418786004185677, 1.0681119002401829, 1.1959912003949285, 1.2782500004395843, 1.3859216002747416, 1.4955577999353409];pintor;C:\2023\REPSWITCH21092023\REPSWITCH_excgange\REPSWITCH_excgange\data/470104_REPSWITCH1_version1_list3_2024-01-26_09h17.38.599_micRespv1l3_recorded\recording_micRespv1l3_2024-01-26_09h22.31.498.wav;301.9164965;302.4166177;None;301.9164965;301.9164965;301.9164965;301.9164965;301.9164965;301.9164965;;;;;;470104;1;2024-01-26_09h17.38.599;REPSWITCH1_version1_list3;2022.2.4;143.8110196;
REPSWITCH1/PICTURE_271.png;conejo;speak;gold;nontarget;2;NT;3;2;3;1;Stim7_Set3;1;switch;62;61;62;0;61;61;61;;;;;;;;;;;;;;;;;;;;;;;302.4166177;303.5139203;303.5139203;303.5139203;303.5139203;303.5139203;303.5139203;303.5139203;303.5139203;None;0;;;C:\2023\REPSWITCH21092023\REPSWITCH_excgange\REPSWITCH_excgange\data/470104_REPSWITCH1_version1_list3_2024-01-26_09h17.38.599_micRespv1l3_recorded\recording_micRespv1l3_2024-01-26_09h22.36.118.wav;306.5421558;;None;306.5421558;306.5421558;306.5421558;306.5421558;306.5421558;306.5421558;;;;;;470104;1;2024-01-26_09h17.38.599;REPSWITCH1_version1_list3;2022.2.4;143.8110196;
REPSWITCH1/PICTURE_271.png;conejo;speak;gold;repeat;2;T;3;2;3;1;Stim7_Set3;0;None;63;62;63;0;62;62;62;;;;;;;;;;;;;;;;;;;;;;;307.0422077;308.063175;308.063175;308.063175;308.063175;308.063175;308.063175;308.063175;308.063175;None;0;;;C:\2023\REPSWITCH21092023\REPSWITCH_excgange\REPSWITCH_excgange\data/470104_REPSWITCH1_version1_list3_2024-01-26_09h17.38.599_micRespv1l3_recorded\recording_micRespv1l3_2024-01-26_09h22.40.666.wav;311.0843324;311.5843694;None;311.0843324;311.0843324;311.0843324;311.0843324;311.0843324;311.0843324;;;;;;470104;1;2024-01-26_09h17.38.599;REPSWITCH1_version1_list3;2022.2.4;143.8110196;
REPSWITCH1/PICTURE_446.png;cerdo;speak;gold;filler;2;F;3;2;3;1;Stim7_Set2;0;None;64;63;64;0;63;63;63;;;;;;;;;;;;;;;;;;;;;;;311.5843694;312.709527;312.709527;312.709527;312.709527;312.709527;312.709527;312.709527;312.709527;None;0;;;C:\2023\REPSWITCH21092023\REPSWITCH_excgange\REPSWITCH_excgange\data/470104_REPSWITCH1_version1_list3_2024-01-26_09h17.38.599_micRespv1l3_recorded\recording_micRespv1l3_2024-01-26_09h22.45.312.wav;315.7307683;316.2308314;None;315.7307683;315.7307683;315.7307683;315.7307683;315.7307683;315.7307683;;;;;;470104;1;2024-01-26_09h17.38.599;REPSWITCH1_version1_list3;2022.2.4;143.8110196;
REPSWITCH1/PICTURE_152.png;caracol;type;darkblue;filler;1;F;3;2;3;1;Stim2_Set2;0;None;65;64;65;0;64;64;64;;;;;;;;;;;;;;;;;;;;;;;316.2308314;317.3629114;317.3629114;317.3629114;317.3629114;317.3629114;317.3629114;317.3629114;317.3629114;['c', 'a', 'r', 'a', 'c', 'o', 'l'];0;[0.669153599999845, 0.751817399635911, 0.9280669996514916, 1.0347811002284288, 1.1781652001664042, 1.32265970017761, 1.5469171004369855];caracol;C:\2023\REPSWITCH21092023\REPSWITCH_excgange\REPSWITCH_excgange\data/470104_REPSWITCH1_version1_list3_2024-01-26_09h17.38.599_micRespv1l3_recorded\recording_micRespv1l3_2024-01-26_09h22.49.966.wav;320.391087;;None;320.391087;320.391087;320.391087;320.391087;320.391087;320.391087;;;;;;470104;1;2024-01-26_09h17.38.599;REPSWITCH1_version1_list3;2022.2.4;143.8110196;
REPSWITCH1/PICTURE_576.png;guante;speak;gold;nontarget;2;NT;3;2;3;1;Stim1_Set3;1;switch;66;65;66;0;65;65;65;;;;;;;;;;;;;;;;;;;;;;;320.8911436;322.0302455;322.0302455;322.0302455;322.0302455;322.0302455;322.0302455;322.0302455;322.0302455;None;0;;;C:\2023\REPSWITCH21092023\REPSWITCH_excgange\REPSWITCH_excgange\data/470104_REPSWITCH1_version1_list3_2024-01-26_09h17.38.599_micRespv1l3_recorded\recording_micRespv1l3_2024-01-26_09h22.54.633.wav;325.0514112;325.5514612;None;325.0514112;325.0514112;325.0514112;325.0514112;325.0514112;325.0514112;;;;;;470104;1;2024-01-26_09h17.38.599;REPSWITCH1_version1_list3;2022.2.4;143.8110196;
REPSWITCH1/PICTURE_576.png;guante;speak;gold;repeat;2;T;3;2;3;1;Stim1_Set3;0;None;67;66;67;0;66;66;66;;;;;;;;;;;;;;;;;;;;;;;325.5514612;326.6905042;326.6905042;326.6905042;326.6905042;326.6905042;326.6905042;326.6905042;326.6905042;None;0;;;C:\2023\REPSWITCH21092023\REPSWITCH_excgange\REPSWITCH_excgange\data/470104_REPSWITCH1_version1_list3_2024-01-26_09h17.38.599_micRespv1l3_recorded\recording_micRespv1l3_2024-01-26_09h22.59.293.wav;329.7117401;330.2118004;None;329.7117401;329.7117401;329.7117401;329.7117401;329.7117401;329.7117401;;;;;;470104;1;2024-01-26_09h17.38.599;REPSWITCH1_version1_list3;2022.2.4;143.8110196;
REPSWITCH1/PICTURE_242.png;cartero;speak;gold;nontarget;2;NT;3;2;3;1;Stim3_Set3;0;None;68;67;68;0;67;67;67;;;;;;;;;;;;;;;;;;;;;;;330.2118004;331.3856178;331.3856178;331.3856178;331.3856178;331.3856178;331.3856178;331.3856178;331.3856178;None;0;;;C:\2023\REPSWITCH21092023\REPSWITCH_excgange\REPSWITCH_excgange\data/470104_REPSWITCH1_version1_list3_2024-01-26_09h17.38.599_micRespv1l3_recorded\recording_micRespv1l3_2024-01-26_09h23.03.988.wav;334.4068082;334.9068576;None;334.4068082;334.4068082;334.4068082;334.4068082;334.4068082;334.4068082;;;;;;470104;1;2024-01-26_09h17.38.599;REPSWITCH1_version1_list3;2022.2.4;143.8110196;
REPSWITCH1/PICTURE_242.png;cartero;type;darkblue;switch;1;T;3;2;3;1;Stim3_Set3;0;None;69;68;69;0;68;68;68;;;;;;;;;;;;;;;;;;;;;;;334.9068576;336.0458754;336.0458754;336.0458754;336.0458754;336.0458754;336.0458754;336.0458754;336.0458754;['c', 'a', 'r', 't', 'e', 'r', 'o'];0;[0.9738325010985136, 1.1083739008754492, 1.3043483002111316, 1.5076660010963678, 1.6630824003368616, 2.023881101049483, 2.1658198004588485];cartero;C:\2023\REPSWITCH21092023\REPSWITCH_excgange\REPSWITCH_excgange\data/470104_REPSWITCH1_version1_list3_2024-01-26_09h17.38.599_micRespv1l3_recorded\recording_micRespv1l3_2024-01-26_09h23.08.648.wav;339.0671198;339.5671563;None;339.0671198;339.0671198;339.0671198;339.0671198;339.0671198;339.0671198;;;;;;470104;1;2024-01-26_09h17.38.599;REPSWITCH1_version1_list3;2022.2.4;143.8110196;
REPSWITCH1/PICTURE_517.png;cuerda;speak;gold;filler;2;F;3;2;3;1;Stim4_Set2;0;None;70;69;70;0;69;69;69;;;;;;;;;;;;;;;;;;;;;;;339.5671563;340.6367427;340.6367427;340.6367427;340.6367427;340.6367427;340.6367427;340.6367427;340.6367427;None;0;;;C:\2023\REPSWITCH21092023\REPSWITCH_excgange\REPSWITCH_excgange\data/470104_REPSWITCH1_version1_list3_2024-01-26_09h17.38.599_micRespv1l3_recorded\recording_micRespv1l3_2024-01-26_09h23.13.239.wav;343.6579495;344.1580487;None;343.6579495;343.6579495;343.6579495;343.6579495;343.6579495;343.6579495;;;;;;470104;1;2024-01-26_09h17.38.599;REPSWITCH1_version1_list3;2022.2.4;143.8110196;
REPSWITCH1/PICTURE_646.png;tronco;type;darkblue;filler;1;F;3;2;3;1;Extra4;0;None;71;70;71;0;70;70;70;;;;;;;;;;;;;;;;;;;;;;;344.1580487;345.2693664;345.2693664;345.2693664;345.2693664;345.2693664;345.2693664;345.2693664;345.2693664;['t', 'r', 'o', 'n', 'c', 'o'];0;[1.2664548996835947, 1.4148648995906115, 1.5172192994505167, 1.683593399822712, 1.8159419996663928, 1.9843547996133566];tronco;C:\2023\REPSWITCH21092023\REPSWITCH_excgange\REPSWITCH_excgange\data/470104_REPSWITCH1_version1_list3_2024-01-26_09h17.38.599_micRespv1l3_recorded\recording_micRespv1l3_2024-01-26_09h23.17.872.wav;348.2975354;;None;348.2975354;348.2975354;348.2975354;348.2975354;348.2975354;348.2975354;;;;;;470104;1;2024-01-26_09h17.38.599;REPSWITCH1_version1_list3;2022.2.4;143.8110196;
REPSWITCH1/PICTURE_35.png;oreja;type;darkblue;nontarget;1;NT;3;2;3;1;Stim5_Set3;1;repeat;72;71;72;0;71;71;71;;;;;;;;;;;;;;;;;;;;;;;348.7975232;349.9087702;349.9087702;349.9087702;349.9087702;349.9087702;349.9087702;349.9087702;349.9087702;['p', 'r', 'p', 'e', 'backspace', 'backspace', 'backspace', 'backspace', 'o', 'r', 'e', 'e', 'j', 'a'];0;[0.8685908997431397, 0.9099206002429128, 0.957778699696064, 1.3727329997345805, 1.7697545997798443, 1.9064221000298858, 2.07017180044204, 2.211736500263214, 2.4928534999489784, 2.5725312996655703, 2.65125900041312, 2.6741858003661036, 2.865512900054455, 2.9204398998990655];oreeja;C:\2023\REPSWITCH21092023\REPSWITCH_excgange\REPSWITCH_excgange\data/470104_REPSWITCH1_version1_list3_2024-01-26_09h17.38.599_micRespv1l3_recorded\recording_micRespv1l3_2024-01-26_09h23.22.511.wav;352.9370249;;None;352.9370249;352.9370249;352.9370249;352.9370249;352.9370249;352.9370249;;;;;;470104;1;2024-01-26_09h17.38.599;REPSWITCH1_version1_list3;2022.2.4;143.8110196;
REPSWITCH1/PICTURE_35.png;oreja;type;darkblue;repeat;1;T;3;2;3;1;Stim5_Set3;0;None;73;72;73;0;72;72;72;;;;;;;;;;;;;;;;;;;;;;;353.4370063;354.4996904;354.4996904;354.4996904;354.4996904;354.4996904;354.4996904;354.4996904;354.4996904;['o', 'r', 'e', 'j', 'a'];0;[0.8263529995456338, 0.956908400170505, 0.9957758001983166, 1.1043998003005981, 1.194118999876082];oreja;C:\2023\REPSWITCH21092023\REPSWITCH_excgange\REPSWITCH_excgange\data/470104_REPSWITCH1_version1_list3_2024-01-26_09h17.38.599_micRespv1l3_recorded\recording_micRespv1l3_2024-01-26_09h23.27.102.wav;357.5278328;;None;357.5278328;357.5278328;357.5278328;357.5278328;357.5278328;357.5278328;;;;;;470104;1;2024-01-26_09h17.38.599;REPSWITCH1_version1_list3;2022.2.4;143.8110196;
REPSWITCH1/PICTURE_199.png;falda;speak;gold;filler;2;F;3;2;3;1;Stim8_Set2;0;None;74;73;74;0;73;73;73;;;;;;;;;;;;;;;;;;;;;;;358.0279144;359.1530485;359.1530485;359.1530485;359.1530485;359.1530485;359.1530485;359.1530485;359.1530485;None;0;;;C:\2023\REPSWITCH21092023\REPSWITCH_excgange\REPSWITCH_excgange\data/470104_REPSWITCH1_version1_list3_2024-01-26_09h17.38.599_micRespv1l3_recorded\recording_micRespv1l3_2024-01-26_09h23.31.756.wav;362.1742253;362.6742997;None;362.1742253;362.1742253;362.1742253;362.1742253;362.1742253;362.1742253;;;;;;470104;1;2024-01-26_09h17.38.599;REPSWITCH1_version1_list3;2022.2.4;143.8110196;
REPSWITCH1/PICTURE_610.png;miel;type;darkblue;nontarget;1;NT;3;2;3;1;Stim2_Set3;1;switch;75;74;75;0;74;74;74;;;;;;;;;;;;;;;;;;;;;;;362.6742997;363.7370463;363.7370463;363.7370463;363.7370463;363.7370463;363.7370463;363.7370463;363.7370463;['m', 'i', 'e', 'l'];0;[0.8338619004935026, 0.9684073003008962, 1.054118100553751, 1.1677073007449508];miel;C:\2023\REPSWITCH21092023\REPSWITCH_excgange\REPSWITCH_excgange\data/470104_REPSWITCH1_version1_list3_2024-01-26_09h17.38.599_micRespv1l3_recorded\recording_micRespv1l3_2024-01-26_09h23.36.339.wav;366.7650911;;None;366.7650911;366.7650911;366.7650911;366.7650911;366.7650911;366.7650911;;;;;;470104;1;2024-01-26_09h17.38.599;REPSWITCH1_version1_list3;2022.2.4;143.8110196;
REPSWITCH1/PICTURE_610.png;miel;type;darkblue;repeat;1;T;3;2;3;1;Stim2_Set3;0;None;76;75;76;0;75;75;75;;;;;;;;;;;;;;;;;;;;;;;367.26517;368.3416914;368.3416914;368.3416914;368.3416914;368.3416914;368.3416914;368.3416914;368.3416914;['m', 'i', 'e', 'l'];0;[0.6917642001062632, 0.8282861998304725, 0.8831123001873493, 1.003943500109017];miel;C:\2023\REPSWITCH21092023\REPSWITCH_excgange\REPSWITCH_excgange\data/470104_REPSWITCH1_version1_list3_2024-01-26_09h17.38.599_micRespv1l3_recorded\recording_micRespv1l3_2024-01-26_09h23.40.945.wav;371.3699352;;None;371.3699352;371.3699352;371.3699352;371.3699352;371.3699352;371.3699352;;;;;;470104;1;2024-01-26_09h17.38.599;REPSWITCH1_version1_list3;2022.2.4;143.8110196;
REPSWITCH1/PICTURE_264.png;mano;type;darkblue;filler;1;F;3;2;3;1;Stim3_Set2;1;repeat;77;76;77;0;76;76;76;;;;;;;;;;;;;;;;;;;;;;;371.8699536;372.960436;372.960436;372.960436;372.960436;372.960436;372.960436;372.960436;372.960436;['m', 'a', 'n', 'o'];0;[0.7049757000058889, 0.7987141003832221, 0.8863577004522085, 0.959081300534308];mano;C:\2023\REPSWITCH21092023\REPSWITCH_excgange\REPSWITCH_excgange\data/470104_REPSWITCH1_version1_list3_2024-01-26_09h17.38.599_micRespv1l3_recorded\recording_micRespv1l3_2024-01-26_09h23.45.563.wav;375.9886174;;None;375.9886174;375.9886174;375.9886174;375.9886174;375.9886174;375.9886174;;;;;;470104;1;2024-01-26_09h17.38.599;REPSWITCH1_version1_list3;2022.2.4;143.8110196;
REPSWITCH1/PICTURE_464.png;goma;speak;gold;filler;2;F;4;2;3;1;Stim6_Set3;0;None;78;77;78;0;77;77;77;;;;;;;;;;;;;;;;;;;;;;;376.4886352;377.5304347;377.5304347;377.5304347;377.5304347;377.5304347;377.5304347;377.5304347;377.5304347;None;0;;;C:\2023\REPSWITCH21092023\REPSWITCH_excgange\REPSWITCH_excgange\data/470104_REPSWITCH1_version1_list3_2024-01-26_09h17.38.599_micRespv1l3_recorded\recording_micRespv1l3_2024-01-26_09h23.50.133.wav;380.5515991;381.0517;None;380.5515991;380.5515991;380.5515991;380.5515991;380.5515991;380.5515991;;;;;;470104;1;2024-01-26_09h17.38.599;REPSWITCH1_version1_list3;2022.2.4;143.8110196;
REPSWITCH1/PICTURE_8.png;pierna;type;darkblue;nontarget;1;NT;4;2;3;1;Stim3_Set4;1;switch;79;78;79;0;78;78;78;;;;;;;;;;;;;;;;;;;;;;;381.0517;382.0865453;382.0865453;382.0865453;382.0865453;382.0865453;382.0865453;382.0865453;382.0865453;['p', 'i', 'e', 'r', 'n', 'a'];0;[0.792557300068438, 0.965909100137651, 1.034647500142455, 1.0875109005719423, 1.2070944998413324, 1.2977569997310638];pierna;C:\2023\REPSWITCH21092023\REPSWITCH_excgange\REPSWITCH_excgange\data/470104_REPSWITCH1_version1_list3_2024-01-26_09h17.38.599_micRespv1l3_recorded\recording_micRespv1l3_2024-01-26_09h23.54.689.wav;385.1077521;385.6078355;None;385.1077521;385.1077521;385.1077521;385.1077521;385.1077521;385.1077521;;;;;;470104;1;2024-01-26_09h17.38.599;REPSWITCH1_version1_list3;2022.2.4;143.8110196;
REPSWITCH1/PICTURE_8.png;pierna;type;darkblue;repeat;1;T;4;2;3;1;Stim3_Set4;0;None;80;79;80;0;79;79;79;;;;;;;;;;;;;;;;;;;;;;;385.6078355;386.6427134;386.6427134;386.6427134;386.6427134;386.6427134;386.6427134;386.6427134;386.6427134;['p', 'i', 'e', 'r', 'n', 'a'];0;[1.1899073999375105, 1.3403348997235298, 1.3925630003213882, 1.455269199796021, 1.5781997004523873, 1.6628958005458117];pierna;C:\2023\REPSWITCH21092023\REPSWITCH_excgange\REPSWITCH_excgange\data/470104_REPSWITCH1_version1_list3_2024-01-26_09h17.38.599_micRespv1l3_recorded\recording_micRespv1l3_2024-01-26_09h23.59.245.wav;389.6639021;390.1639815;None;389.6639021;389.6639021;389.6639021;389.6639021;389.6639021;389.6639021;;;;;;470104;1;2024-01-26_09h17.38.599;REPSWITCH1_version1_list3;2022.2.4;143.8110196;
REPSWITCH1/PICTURE_728.png;pulpo;type;darkblue;nontarget;1;NT;4;2;3;1;Stim8_Set4;1;repeat;81;80;81;0;80;80;80;;;;;;;;;;;;;;;;;;;;;;;390.1639815;391.254395;391.254395;391.254395;391.254395;391.254395;391.254395;391.254395;391.254395;['p', 'u', 'l', 'p', 'o'];0;[0.7138316007331014, 0.8930604010820389, 1.088330700993538, 1.2875987002626061, 1.4384493008255959];pulpo;C:\2023\REPSWITCH21092023\REPSWITCH_excgange\REPSWITCH_excgange\data/470104_REPSWITCH1_version1_list3_2024-01-26_09h17.38.599_micRespv1l3_recorded\recording_micRespv1l3_2024-01-26_09h24.03.857.wav;394.2825858;;None;394.2825858;394.2825858;394.2825858;394.2825858;394.2825858;394.2825858;;;;;;470104;1;2024-01-26_09h17.38.599;REPSWITCH1_version1_list3;2022.2.4;143.8110196;
REPSWITCH1/PICTURE_728.png;pulpo;speak;gold;switch;2;T;4;2;3;1;Stim8_Set4;0;None;82;81;82;0;81;81;81;;;;;;;;;;;;;;;;;;;;;;;394.7827146;395.9008146;395.9008146;395.9008146;395.9008146;395.9008146;395.9008146;395.9008146;395.9008146;None;0;;;C:\2023\REPSWITCH21092023\REPSWITCH_excgange\REPSWITCH_excgange\data/470104_REPSWITCH1_version1_list3_2024-01-26_09h17.38.599_micRespv1l3_recorded\recording_micRespv1l3_2024-01-26_09h24.08.503.wav;398.9220655;399.4221343;None;398.9220655;398.9220655;398.9220655;398.9220655;398.9220655;398.9220655;;;;;;470104;1;2024-01-26_09h17.38.599;REPSWITCH1_version1_list3;2022.2.4;143.8110196;
REPSWITCH1/PICTURE_235.png;aguja;type;darkblue;filler;1;F;4;2;3;1;Stim4_Set3;0;None;83;82;83;0;82;82;82;;;;;;;;;;;;;;;;;;;;;;;399.4221343;400.4986784;400.4986784;400.4986784;400.4986784;400.4986784;400.4986784;400.4986784;400.4986784;['a', 'g', 'u', 'j', 'a'];0;[0.8228263007476926, 1.0066376002505422, 1.0875786002725363, 1.2722071008756757, 1.3240363001823425];aguja;C:\2023\REPSWITCH21092023\REPSWITCH_excgange\REPSWITCH_excgange\data/470104_REPSWITCH1_version1_list3_2024-01-26_09h17.38.599_micRespv1l3_recorded\recording_micRespv1l3_2024-01-26_09h24.13.102.wav;403.5268856;;None;403.5268856;403.5268856;403.5268856;403.5268856;403.5268856;403.5268856;;;;;;470104;1;2024-01-26_09h17.38.599;REPSWITCH1_version1_list3;2022.2.4;143.8110196;
REPSWITCH1/PICTURE_498.png;taza;speak;gold;nontarget;2;NT;4;2;3;1;Stim4_Set4;1;switch;84;83;84;0;83;83;83;;;;;;;;;;;;;;;;;;;;;;;404.0268935;405.0617851;405.0617851;405.0617851;405.0617851;405.0617851;405.0617851;405.0617851;405.0617851;None;0;;;C:\2023\REPSWITCH21092023\REPSWITCH_excgange\REPSWITCH_excgange\data/470104_REPSWITCH1_version1_list3_2024-01-26_09h17.38.599_micRespv1l3_recorded\recording_micRespv1l3_2024-01-26_09h24.17.664.wav;408.0829375;408.5830357;None;408.0829375;408.0829375;408.0829375;408.0829375;408.0829375;408.0829375;;;;;;470104;1;2024-01-26_09h17.38.599;REPSWITCH1_version1_list3;2022.2.4;143.8110196;
REPSWITCH1/PICTURE_498.png;taza;speak;gold;repeat;2;T;4;2;3;1;Stim4_Set4;0;None;85;84;85;0;84;84;84;;;;;;;;;;;;;;;;;;;;;;;408.5830357;409.7220663;409.7220663;409.7220663;409.7220663;409.7220663;409.7220663;409.7220663;409.7220663;None;0;;;C:\2023\REPSWITCH21092023\REPSWITCH_excgange\REPSWITCH_excgange\data/470104_REPSWITCH1_version1_list3_2024-01-26_09h17.38.599_micRespv1l3_recorded\recording_micRespv1l3_2024-01-26_09h24.22.324.wav;412.7432713;413.2433181;None;412.7432713;412.7432713;412.7432713;412.7432713;412.7432713;412.7432713;;;;;;470104;1;2024-01-26_09h17.38.599;REPSWITCH1_version1_list3;2022.2.4;143.8110196;
REPSWITCH1/PICTURE_719.png;baño;speak;gold;nontarget;2;NT;4;2;3;1;Stim2_Set4;0;None;86;85;86;0;85;85;85;;;;;;;;;;;;;;;;;;;;;;;413.2433181;414.4796991;414.4796991;414.4796991;414.4796991;414.4796991;414.4796991;414.4796991;414.4796991;None;0;;;C:\2023\REPSWITCH21092023\REPSWITCH_excgange\REPSWITCH_excgange\data/470104_REPSWITCH1_version1_list3_2024-01-26_09h17.38.599_micRespv1l3_recorded\recording_micRespv1l3_2024-01-26_09h24.27.083.wav;417.5078653;;None;417.5078653;417.5078653;417.5078653;417.5078653;417.5078653;417.5078653;;;;;;470104;1;2024-01-26_09h17.38.599;REPSWITCH1_version1_list3;2022.2.4;143.8110196;
REPSWITCH1/PICTURE_719.png;baño;type;darkblue;switch;1;T;4;2;3;1;Stim2_Set4;0;None;87;86;87;0;86;86;86;;;;;;;;;;;;;;;;;;;;;;;418.0079326;419.0427705;419.0427705;419.0427705;419.0427705;419.0427705;419.0427705;419.0427705;419.0427705;['b', 'a', 'ñ', 'o'];0;[0.9042429998517036, 1.0059194006025791, 1.236553099937737, 1.3880634000524879];baño;C:\2023\REPSWITCH21092023\REPSWITCH_excgange\REPSWITCH_excgange\data/470104_REPSWITCH1_version1_list3_2024-01-26_09h17.38.599_micRespv1l3_recorded\recording_micRespv1l3_2024-01-26_09h24.31.646.wav;422.0709;;None;422.0709;422.0709;422.0709;422.0709;422.0709;422.0709;;;;;;470104;1;2024-01-26_09h17.38.599;REPSWITCH1_version1_list3;2022.2.4;143.8110196;
REPSWITCH1/PICTURE_320.png;iglesia;speak;gold;filler;2;F;4;2;3;1;Stim8_Set3;0;None;88;87;88;0;87;87;87;;;;;;;;;;;;;;;;;;;;;;;422.5709618;423.6058012;423.6058012;423.6058012;423.6058012;423.6058012;423.6058012;423.6058012;423.6058012;None;0;;;C:\2023\REPSWITCH21092023\REPSWITCH_excgange\REPSWITCH_excgange\data/470104_REPSWITCH1_version1_list3_2024-01-26_09h17.38.599_micRespv1l3_recorded\recording_micRespv1l3_2024-01-26_09h24.36.209.wav;426.633971;;None;426.633971;426.633971;426.633971;426.633971;426.633971;426.633971;;;;;;470104;1;2024-01-26_09h17.38.599;REPSWITCH1_version1_list3;2022.2.4;143.8110196;
REPSWITCH1/PICTURE_48.png;bombero;type;darkblue;nontarget;1;NT;4;2;3;1;Stim7_Set4;1;switch;89;88;89;0;88;88;88;;;;;;;;;;;;;;;;;;;;;;;427.1340376;428.259248;428.259248;428.259248;428.259248;428.259248;428.259248;428.259248;428.259248;['b', 'o', 'm', 'b', 'e', 'r', 'o'];0;[0.8522252002730966, 0.9948252001777291, 1.4711287003010511, 1.7053393004462123, 1.9335789000615478, 2.0093302000313997, 2.0860766004770994];bombero;C:\2023\REPSWITCH21092023\REPSWITCH_excgange\REPSWITCH_excgange\data/470104_REPSWITCH1_version1_list3_2024-01-26_09h17.38.599_micRespv1l3_recorded\recording_micRespv1l3_2024-01-26_09h24.40.862.wav;431.2873478;;None;431.2873478;431.2873478;431.2873478;431.2873478;431.2873478;431.2873478;;;;;;470104;1;2024-01-26_09h17.38.599;REPSWITCH1_version1_list3;2022.2.4;143.8110196;
REPSWITCH1/PICTURE_48.png;bombero;speak;gold;switch;2;T;4;2;3;1;Stim7_Set4;0;None;90;89;90;0;89;89;89;;;;;;;;;;;;;;;;;;;;;;;431.7874107;432.8847934;432.8847934;432.8847934;432.8847934;432.8847934;432.8847934;432.8847934;432.8847934;None;0;;;C:\2023\REPSWITCH21092023\REPSWITCH_excgange\REPSWITCH_excgange\data/470104_REPSWITCH1_version1_list3_2024-01-26_09h17.38.599_micRespv1l3_recorded\recording_micRespv1l3_2024-01-26_09h24.45.488.wav;435.9130229;;None;435.9130229;435.9130229;435.9130229;435.9130229;435.9130229;435.9130229;;;;;;470104;1;2024-01-26_09h17.38.599;REPSWITCH1_version1_list3;2022.2.4;143.8110196;
REPSWITCH1/PICTURE_576.png;guante;type;darkblue;filler;1;F;4;2;3;1;Stim1_Set3;0;None;91;90;91;0;90;90;90;;;;;;;;;;;;;;;;;;;;;;;436.4130113;437.5173188;437.5173188;437.5173188;437.5173188;437.5173188;437.5173188;437.5173188;437.5173188;['g', 'u', 'a', 'n', 't', 'e'];0;[0.782922999933362, 0.8954918999224901, 0.973301200196147, 1.0642355997115374, 1.1762760998681188, 1.2577569000422955];guante;C:\2023\REPSWITCH21092023\REPSWITCH_excgange\REPSWITCH_excgange\data/470104_REPSWITCH1_version1_list3_2024-01-26_09h17.38.599_micRespv1l3_recorded\recording_micRespv1l3_2024-01-26_09h24.50.120.wav;440.5454879;;None;440.5454879;440.5454879;440.5454879;440.5454879;440.5454879;440.5454879;;;;;;470104;1;2024-01-26_09h17.38.599;REPSWITCH1_version1_list3;2022.2.4;143.8110196;
REPSWITCH1/PICTURE_271.png;conejo;speak;gold;filler;2;F;4;2;3;1;Stim7_Set3;0;None;92;91;92;0;91;91;91;;;;;;;;;;;;;;;;;;;;;;;441.0455571;442.2054431;442.2054431;442.2054431;442.2054431;442.2054431;442.2054431;442.2054431;442.2054431;None;0;;;C:\2023\REPSWITCH21092023\REPSWITCH_excgange\REPSWITCH_excgange\data/470104_REPSWITCH1_version1_list3_2024-01-26_09h17.38.599_micRespv1l3_recorded\recording_micRespv1l3_2024-01-26_09h24.54.808.wav;445.2266394;445.7267179;None;445.2266394;445.2266394;445.2266394;445.2266394;445.2266394;445.2266394;;;;;;470104;1;2024-01-26_09h17.38.599;REPSWITCH1_version1_list3;2022.2.4;143.8110196;
REPSWITCH1/PICTURE_319.png;vaca;speak;gold;nontarget;2;NT;4;2;3;1;Stim1_Set4;1;repeat;93;92;93;0;92;92;92;;;;;;;;;;;;;;;;;;;;;;;445.7267179;446.8240672;446.8240672;446.8240672;446.8240672;446.8240672;446.8240672;446.8240672;446.8240672;None;0;;;C:\2023\REPSWITCH21092023\REPSWITCH_excgange\REPSWITCH_excgange\data/470104_REPSWITCH1_version1_list3_2024-01-26_09h17.38.599_micRespv1l3_recorded\recording_micRespv1l3_2024-01-26_09h24.59.426.wav;449.8453522;450.3454181;None;449.8453522;449.8453522;449.8453522;449.8453522;449.8453522;449.8453522;;;;;;470104;1;2024-01-26_09h17.38.599;REPSWITCH1_version1_list3;2022.2.4;143.8110196;
REPSWITCH1/PICTURE_319.png;vaca;speak;gold;repeat;2;T;4;2;3;1;Stim1_Set4;0;None;94;93;94;0;93;93;93;;;;;;;;;;;;;;;;;;;;;;;450.3454181;451.4358111;451.4358111;451.4358111;451.4358111;451.4358111;451.4358111;451.4358111;451.4358111;None;0;;;C:\2023\REPSWITCH21092023\REPSWITCH_excgange\REPSWITCH_excgange\data/470104_REPSWITCH1_version1_list3_2024-01-26_09h17.38.599_micRespv1l3_recorded\recording_micRespv1l3_2024-01-26_09h25.04.039.wav;454.4570063;454.9570713;None;454.4570063;454.4570063;454.4570063;454.4570063;454.4570063;454.4570063;;;;;;470104;1;2024-01-26_09h17.38.599;REPSWITCH1_version1_list3;2022.2.4;143.8110196;
REPSWITCH1/PICTURE_242.png;cartero;type;darkblue;filler;1;F;4;2;3;1;Stim3_Set3;0;None;95;94;95;0;94;94;94;;;;;;;;;;;;;;;;;;;;;;;454.9570713;456.075267;456.075267;456.075267;456.075267;456.075267;456.075267;456.075267;456.075267;['c', 'a', 'r', 't', 'e', 'r', 'o'];0;[0.9696279997006059, 1.083245299756527, 1.2227449994534254, 1.6047292994335294, 1.8865871001034975, 1.9872116995975375, 2.1071649994701147];cartero;C:\2023\REPSWITCH21092023\REPSWITCH_excgange\REPSWITCH_excgange\data/470104_REPSWITCH1_version1_list3_2024-01-26_09h17.38.599_micRespv1l3_recorded\recording_micRespv1l3_2024-01-26_09h25.08.677.wav;459.0965384;459.5965632;None;459.0965384;459.0965384;459.0965384;459.0965384;459.0965384;459.0965384;;;;;;470104;1;2024-01-26_09h17.38.599;REPSWITCH1_version1_list3;2022.2.4;143.8110196;
REPSWITCH1/PICTURE_35.png;oreja;speak;gold;filler;2;F;4;2;3;1;Stim5_Set3;1;switch;96;95;96;0;95;95;95;;;;;;;;;;;;;;;;;;;;;;;459.5965632;460.825876;460.825876;460.825876;460.825876;460.825876;460.825876;460.825876;460.825876;None;0;;;C:\2023\REPSWITCH21092023\REPSWITCH_excgange\REPSWITCH_excgange\data/470104_REPSWITCH1_version1_list3_2024-01-26_09h17.38.599_micRespv1l3_recorded\recording_micRespv1l3_2024-01-26_09h25.13.429.wav;463.8541204;;None;463.8541204;463.8541204;463.8541204;463.8541204;463.8541204;463.8541204;;;;;;470104;1;2024-01-26_09h17.38.599;REPSWITCH1_version1_list3;2022.2.4;143.8110196;
REPSWITCH1/PICTURE_338.png;regalo;speak;gold;nontarget;2;NT;4;2;3;1;Stim6_Set4;1;repeat;97;96;97;0;96;96;96;;;;;;;;;;;;;;;;;;;;;;;464.3541167;465.4445747;465.4445747;465.4445747;465.4445747;465.4445747;465.4445747;465.4445747;465.4445747;None;0;;;C:\2023\REPSWITCH21092023\REPSWITCH_excgange\REPSWITCH_excgange\data/470104_REPSWITCH1_version1_list3_2024-01-26_09h17.38.599_micRespv1l3_recorded\recording_micRespv1l3_2024-01-26_09h25.18.047.wav;468.465772;468.9658279;None;468.465772;468.465772;468.465772;468.465772;468.465772;468.465772;;;;;;470104;1;2024-01-26_09h17.38.599;REPSWITCH1_version1_list3;2022.2.4;143.8110196;
REPSWITCH1/PICTURE_338.png;regalo;type;darkblue;switch;1;T;4;2;3;1;Stim6_Set4;0;None;98;97;98;0;97;97;97;;;;;;;;;;;;;;;;;;;;;;;468.9658279;470.0770999;470.0770999;470.0770999;470.0770999;470.0770999;470.0770999;470.0770999;470.0770999;['r', 'e', 'g', 'a', 'l', 'o'];0;[0.6148597998544574, 0.7005837000906467, 0.8710003001615405, 0.993851600214839, 1.09364840015769, 1.4496789006516337];regalo;C:\2023\REPSWITCH21092023\REPSWITCH_excgange\REPSWITCH_excgange\data/470104_REPSWITCH1_version1_list3_2024-01-26_09h17.38.599_micRespv1l3_recorded\recording_micRespv1l3_2024-01-26_09h25.22.680.wav;473.0983143;473.5983473;None;473.0983143;473.0983143;473.0983143;473.0983143;473.0983143;473.0983143;;;;;;470104;1;2024-01-26_09h17.38.599;REPSWITCH1_version1_list3;2022.2.4;143.8110196;
REPSWITCH1/PICTURE_687.png;camisa;type;darkblue;nontarget;1;NT;4;2;3;1;Stim5_Set4;0;None;99;98;99;0;98;98;98;;;;;;;;;;;;;;;;;;;;;;;473.5983473;474.6888503;474.6888503;474.6888503;474.6888503;474.6888503;474.6888503;474.6888503;474.6888503;['c', 'a', 'm', 'i', 's', 'a'];0;[1.1008377000689507, 1.203486000187695, 1.3111217003315687, 1.374439399689436, 1.4400455998256803, 1.5845688004046679];camisa;C:\2023\REPSWITCH21092023\REPSWITCH_excgange\REPSWITCH_excgange\data/470104_REPSWITCH1_version1_list3_2024-01-26_09h17.38.599_micRespv1l3_recorded\recording_micRespv1l3_2024-01-26_09h25.27.292.wav;477.7169303;;None;477.7169303;477.7169303;477.7169303;477.7169303;477.7169303;477.7169303;;;;;;470104;1;2024-01-26_09h17.38.599;REPSWITCH1_version1_list3;2022.2.4;143.8110196;
REPSWITCH1/PICTURE_687.png;camisa;type;darkblue;repeat;1;T;4;2;3;1;Stim5_Set4;0;None;100;99;100;0;99;99;99;;;;;;;;;;;;;;;;;;;;;;;478.2170263;479.2449417;479.2449417;479.2449417;479.2449417;479.2449417;479.2449417;479.2449417;479.2449417;['c', 'a', 'm', 'i', 's', 'a'];0;[0.6220974000170827, 0.71079340018332, 0.8314020000398159, 0.8612490007653832, 0.9520835001021624, 1.0511614000424743];camisa;C:\2023\REPSWITCH21092023\REPSWITCH_excgange\REPSWITCH_excgange\data/470104_REPSWITCH1_version1_list3_2024-01-26_09h17.38.599_micRespv1l3_recorded\recording_micRespv1l3_2024-01-26_09h25.31.848.wav;482.2731068;;None;482.2731068;482.2731068;482.2731068;482.2731068;482.2731068;482.2731068;;;;;;470104;1;2024-01-26_09h17.38.599;REPSWITCH1_version1_list3;2022.2.4;143.8110196;
REPSWITCH1/PICTURE_340.png;espejo;speak;gold;filler;2;F;4;2;3;1;Extra1;0;None;101;100;101;0;100;100;100;;;;;;;;;;;;;;;;;;;;;;;482.7731422;483.8288736;483.8288736;483.8288736;483.8288736;483.8288736;483.8288736;483.8288736;483.8288736;None;0;;;C:\2023\REPSWITCH21092023\REPSWITCH_excgange\REPSWITCH_excgange\data/470104_REPSWITCH1_version1_list3_2024-01-26_09h17.38.599_micRespv1l3_recorded\recording_micRespv1l3_2024-01-26_09h25.36.432.wav;486.8570235;;None;486.8570235;486.8570235;486.8570235;486.8570235;486.8570235;486.8570235;;;;;;470104;1;2024-01-26_09h17.38.599;REPSWITCH1_version1_list3;2022.2.4;143.8110196;
REPSWITCH1/PICTURE_610.png;miel;type;darkblue;filler;1;F;4;2;3;1;Stim2_Set3;0;None;102;101;102;0;101;101;101;;;;;;;;;;;;;;;;;;;;;;;487.3571055;488.5378094;488.5378094;488.5378094;488.5378094;488.5378094;488.5378094;488.5378094;488.5378094;['m', 'i', 'e', 'l'];0;[0.779648601077497, 0.9699293002486229, 1.1206817002967, 1.257871400564909];miel;C:\2023\REPSWITCH21092023\REPSWITCH_excgange\REPSWITCH_excgange\data/470104_REPSWITCH1_version1_list3_2024-01-26_09h17.38.599_micRespv1l3_recorded\recording_micRespv1l3_2024-01-26_09h25.41.140.wav;491.5590292;492.0591646;space;491.5590292;491.5590292;491.5590292;491.5590292;491.5590292;491.5590292;492.0591646;492.0591646;8.5716842;;;470104;1;2024-01-26_09h17.38.599;REPSWITCH1_version1_list3;2022.2.4;143.8110196;
REPSWITCH1/PICTURE_8.png;pierna;type;darkblue;filler;1;F;1;4;3;1;Stim3_Set4;0;None;103;102;1;0;102;102;102;;;;;;;;;;;;;;;;;;;;;;;500.6435283;501.7061838;501.7061838;501.7061838;501.7061838;501.7061838;501.7061838;501.7061838;501.7061838;['p', 'i', 'e', 'r', 'n', 'a'];0;[0.6927633006125689, 0.8705741008743644, 0.97688880097121, 0.9817212009802461, 1.1371481008827686, 1.2118861004710197];pierna;C:\2023\REPSWITCH21092023\REPSWITCH_excgange\REPSWITCH_excgange\data/470104_REPSWITCH1_version1_list3_2024-01-26_09h17.38.599_micRespv1l3_recorded\recording_micRespv1l3_2024-01-26_09h25.54.308.wav;504.7274732;505.2275298;None;504.7274732;504.7274732;504.7274732;504.7274732;504.7274732;504.7274732;;;;;;470104;1;2024-01-26_09h17.38.599;REPSWITCH1_version1_list3;2022.2.4;143.8110196;
REPSWITCH1/PICTURE_498.png;taza;speak;gold;filler;2;F;1;4;3;1;Stim4_Set4;0;None;104;103;2;0;103;103;103;;;;;;;;;;;;;;;;;;;;;;;505.2275298;506.3109433;506.3109433;506.3109433;506.3109433;506.3109433;506.3109433;506.3109433;506.3109433;None;0;;;C:\2023\REPSWITCH21092023\REPSWITCH_excgange\REPSWITCH_excgange\data/470104_REPSWITCH1_version1_list3_2024-01-26_09h17.38.599_micRespv1l3_recorded\recording_micRespv1l3_2024-01-26_09h25.58.913.wav;509.332169;509.8322618;None;509.332169;509.332169;509.332169;509.332169;509.332169;509.332169;;;;;;470104;1;2024-01-26_09h17.38.599;REPSWITCH1_version1_list3;2022.2.4;143.8110196;
REPSWITCH1/PICTURE_19.png;pavo;speak;gold;nontarget;2;NT;1;4;3;1;Stim5_Set1;1;repeat;105;104;3;0;104;104;104;;;;;;;;;;;;;;;;;;;;;;;509.8322618;510.9365492;510.9365492;510.9365492;510.9365492;510.9365492;510.9365492;510.9365492;510.9365492;None;0;;;C:\2023\REPSWITCH21092023\REPSWITCH_excgange\REPSWITCH_excgange\data/470104_REPSWITCH1_version1_list3_2024-01-26_09h17.38.599_micRespv1l3_recorded\recording_micRespv1l3_2024-01-26_09h26.03.539.wav;513.9646974;;None;513.9646974;513.9646974;513.9646974;513.9646974;513.9646974;513.9646974;;;;;;470104;1;2024-01-26_09h17.38.599;REPSWITCH1_version1_list3;2022.2.4;143.8110196;
REPSWITCH1/PICTURE_19.png;pavo;speak;gold;repeat;2;T;1;4;3;1;Stim5_Set1;0;None;106;105;4;0;105;105;105;;;;;;;;;;;;;;;;;;;;;;;514.4647512;515.5343386;515.5343386;515.5343386;515.5343386;515.5343386;515.5343386;515.5343386;515.5343386;None;0;;;C:\2023\REPSWITCH21092023\REPSWITCH_excgange\REPSWITCH_excgange\data/470104_REPSWITCH1_version1_list3_2024-01-26_09h17.38.599_micRespv1l3_recorded\recording_micRespv1l3_2024-01-26_09h26.08.137.wav;518.5556359;519.0557041;None;518.5556359;518.5556359;518.5556359;518.5556359;518.5556359;518.5556359;;;;;;470104;1;2024-01-26_09h17.38.599;REPSWITCH1_version1_list3;2022.2.4;143.8110196;
REPSWITCH1/PICTURE_319.png;vaca;type;darkblue;filler;1;F;1;4;3;1;Stim1_Set4;1;repeat;107;106;5;0;106;106;106;;;;;;;;;;;;;;;;;;;;;;;519.0557041;520.1946941;520.1946941;520.1946941;520.1946941;520.1946941;520.1946941;520.1946941;520.1946941;['v', 'a', 'a', 'backspace', 'c', 'a'];0;[0.7397948000580072, 0.8474192004650831, 1.1374246999621391, 1.8729490004479885, 1.9965152004733682, 2.080155299976468];vaca;C:\2023\REPSWITCH21092023\REPSWITCH_excgange\REPSWITCH_excgange\data/470104_REPSWITCH1_version1_list3_2024-01-26_09h17.38.599_micRespv1l3_recorded\recording_micRespv1l3_2024-01-26_09h26.12.797.wav;523.2158918;523.7159772;None;523.2158918;523.2158918;523.2158918;523.2158918;523.2158918;523.2158918;;;;;;470104;1;2024-01-26_09h17.38.599;REPSWITCH1_version1_list3;2022.2.4;143.8110196;
REPSWITCH1/PICTURE_169.png;espalda;speak;gold;nontarget;2;NT;1;4;3;1;Stim8_Set1;1;switch;108;107;6;0;107;107;107;;;;;;;;;;;;;;;;;;;;;;;523.7159772;524.8480405;524.8480405;524.8480405;524.8480405;524.8480405;524.8480405;524.8480405;524.8480405;None;0;;;C:\2023\REPSWITCH21092023\REPSWITCH_excgange\REPSWITCH_excgange\data/470104_REPSWITCH1_version1_list3_2024-01-26_09h17.38.599_micRespv1l3_recorded\recording_micRespv1l3_2024-01-26_09h26.17.450.wav;527.8692318;528.3693804;None;527.8692318;527.8692318;527.8692318;527.8692318;527.8692318;527.8692318;;;;;;470104;1;2024-01-26_09h17.38.599;REPSWITCH1_version1_list3;2022.2.4;143.8110196;
REPSWITCH1/PICTURE_169.png;espalda;speak;gold;repeat;2;T;1;4;3;1;Stim8_Set1;0;None;109;108;7;0;108;108;108;;;;;;;;;;;;;;;;;;;;;;;528.3693804;529.4250878;529.4250878;529.4250878;529.4250878;529.4250878;529.4250878;529.4250878;529.4250878;None;0;;;C:\2023\REPSWITCH21092023\REPSWITCH_excgange\REPSWITCH_excgange\data/470104_REPSWITCH1_version1_list3_2024-01-26_09h17.38.599_micRespv1l3_recorded\recording_micRespv1l3_2024-01-26_09h26.22.027.wav;532.4462251;532.9463667;None;532.4462251;532.4462251;532.4462251;532.4462251;532.4462251;532.4462251;;;;;;470104;1;2024-01-26_09h17.38.599;REPSWITCH1_version1_list3;2022.2.4;143.8110196;
REPSWITCH1/PICTURE_728.png;pulpo;type;darkblue;filler;1;F;1;4;3;1;Stim8_Set4;0;None;110;109;8;0;109;109;109;;;;;;;;;;;;;;;;;;;;;;;532.9463667;533.9742127;533.9742127;533.9742127;533.9742127;533.9742127;533.9742127;533.9742127;533.9742127;['p', 'u', 'l', 'p', 'o'];0;[0.7100194999948144, 0.9203964006155729, 1.1914287004619837, 1.4547496000304818, 1.586307100020349];pulpo;C:\2023\REPSWITCH21092023\REPSWITCH_excgange\REPSWITCH_excgange\data/470104_REPSWITCH1_version1_list3_2024-01-26_09h17.38.599_micRespv1l3_recorded\recording_micRespv1l3_2024-01-26_09h26.26.577.wav;536.9954504;537.4955868;None;536.9954504;536.9954504;536.9954504;536.9954504;536.9954504;536.9954504;;;;;;470104;1;2024-01-26_09h17.38.599;REPSWITCH1_version1_list3;2022.2.4;143.8110196;
REPSWITCH1/PICTURE_142.png;vaso;speak;gold;nontarget;2;NT;1;4;3;1;Stim7_Set1;1;switch;111;110;9;0;110;110;110;;;;;;;;;;;;;;;;;;;;;;;537.4955868;538.5651025;538.5651025;538.5651025;538.5651025;538.5651025;538.5651025;538.5651025;538.5651025;None;0;;;C:\2023\REPSWITCH21092023\REPSWITCH_excgange\REPSWITCH_excgange\data/470104_REPSWITCH1_version1_list3_2024-01-26_09h17.38.599_micRespv1l3_recorded\recording_micRespv1l3_2024-01-26_09h26.31.167.wav;541.586298;542.0864518;None;541.586298;541.586298;541.586298;541.586298;541.586298;541.586298;;;;;;470104;1;2024-01-26_09h17.38.599;REPSWITCH1_version1_list3;2022.2.4;143.8110196;
REPSWITCH1/PICTURE_142.png;vaso;type;darkblue;switch;1;T;1;4;3;1;Stim7_Set1;0;None;112;111;10;0;111;111;111;;;;;;;;;;;;;;;;;;;;;;;542.0864518;543.2115086;543.2115086;543.2115086;543.2115086;543.2115086;543.2115086;543.2115086;543.2115086;['v', 'a', 's', 'o'];0;[1.0286930007860065, 1.1144356010481715, 1.258950000628829, 1.445405600592494];vaso;C:\2023\REPSWITCH21092023\REPSWITCH_excgange\REPSWITCH_excgange\data/470104_REPSWITCH1_version1_list3_2024-01-26_09h17.38.599_micRespv1l3_recorded\recording_micRespv1l3_2024-01-26_09h26.35.815.wav;546.2327168;546.7328123;None;546.2327168;546.2327168;546.2327168;546.2327168;546.2327168;546.2327168;;;;;;470104;1;2024-01-26_09h17.38.599;REPSWITCH1_version1_list3;2022.2.4;143.8110196;
REPSWITCH1/PICTURE_338.png;regalo;type;darkblue;filler;1;F;1;4;3;1;Stim6_Set4;1;repeat;113;112;11;0;112;112;112;;;;;;;;;;;;;;;;;;;;;;;546.7328123;547.7816372;547.7816372;547.7816372;547.7816372;547.7816372;547.7816372;547.7816372;547.7816372;['r', 'e', 'g', 'l', 'a', 'o', 'backspace', 'backspace', 'backspace', 'a', 'l', 'o'];0;[0.8165174005553126, 0.9111321000382304, 1.0550404004752636, 1.1885572001338005, 1.2364039001986384, 1.408848600462079, 2.050805300474167, 2.1894615003839135, 2.3169713001698256, 2.4704170003533363, 2.541203400120139, 2.7325435001403093];regalo;C:\2023\REPSWITCH21092023\REPSWITCH_excgange\REPSWITCH_excgange\data/470104_REPSWITCH1_version1_list3_2024-01-26_09h17.38.599_micRespv1l3_recorded\recording_micRespv1l3_2024-01-26_09h26.40.384.wav;550.8028257;551.3028541;None;550.8028257;550.8028257;550.8028257;550.8028257;550.8028257;550.8028257;;;;;;470104;1;2024-01-26_09h17.38.599;REPSWITCH1_version1_list3;2022.2.4;143.8110196;
REPSWITCH1/PICTURE_135.png;traje;type;darkblue;nontarget;1;NT;1;4;3;1;Stim3_Set1;1;repeat;114;113;12;0;113;113;113;;;;;;;;;;;;;;;;;;;;;;;551.3028541;552.3933265;552.3933265;552.3933265;552.3933265;552.3933265;552.3933265;552.3933265;552.3933265;['t', 'r', 'a', 'j', 'e'];0;[0.9071893999353051, 1.0147866997867823, 1.1753046000376344, 1.2909167995676398, 1.4035511994734406];traje;C:\2023\REPSWITCH21092023\REPSWITCH_excgange\REPSWITCH_excgange\data/470104_REPSWITCH1_version1_list3_2024-01-26_09h17.38.599_micRespv1l3_recorded\recording_micRespv1l3_2024-01-26_09h26.44.997.wav;555.4214875;;None;555.4214875;555.4214875;555.4214875;555.4214875;555.4214875;555.4214875;;;;;;470104;1;2024-01-26_09h17.38.599;REPSWITCH1_version1_list3;2022.2.4;143.8110196;
REPSWITCH1/PICTURE_135.png;traje;speak;gold;switch;2;T;1;4;3;1;Stim3_Set1;0;None;115;114;13;0;114;114;114;;;;;;;;;;;;;;;;;;;;;;;555.9214892;557.0744229;557.0744229;557.0744229;557.0744229;557.0744229;557.0744229;557.0744229;557.0744229;None;0;;;C:\2023\REPSWITCH21092023\REPSWITCH_excgange\REPSWITCH_excgange\data/470104_REPSWITCH1_version1_list3_2024-01-26_09h17.38.599_micRespv1l3_recorded\recording_micRespv1l3_2024-01-26_09h26.49.678.wav;560.1026624;;None;560.1026624;560.1026624;560.1026624;560.1026624;560.1026624;560.1026624;;;;;;470104;1;2024-01-26_09h17.38.599;REPSWITCH1_version1_list3;2022.2.4;143.8110196;
REPSWITCH1/PICTURE_381.png;fresa;speak;gold;nontarget;2;NT;1;4;3;1;Stim2_Set1;1;repeat;116;115;14;0;115;115;115;;;;;;;;;;;;;;;;;;;;;;;560.6026575;561.7973255;561.7973255;561.7973255;561.7973255;561.7973255;561.7973255;561.7973255;561.7973255;None;0;;;C:\2023\REPSWITCH21092023\REPSWITCH_excgange\REPSWITCH_excgange\data/470104_REPSWITCH1_version1_list3_2024-01-26_09h17.38.599_micRespv1l3_recorded\recording_micRespv1l3_2024-01-26_09h26.54.399.wav;564.8185603;565.318533;None;564.8185603;564.8185603;564.8185603;564.8185603;564.8185603;564.8185603;;;;;;470104;1;2024-01-26_09h17.38.599;REPSWITCH1_version1_list3;2022.2.4;143.8110196;
REPSWITCH1/PICTURE_381.png;fresa;type;darkblue;switch;1;T;1;4;3;1;Stim2_Set1;0;None;117;116;15;0;116;116;116;;;;;;;;;;;;;;;;;;;;;;;565.318533;566.4784147;566.4784147;566.4784147;566.4784147;566.4784147;566.4784147;566.4784147;566.4784147;['f', 'r', 'e', 's', 'a'];0;[0.9198008999228477, 1.0274299997836351, 1.109150200150907, 1.3085080003365874, 1.3991832006722689];fresa;C:\2023\REPSWITCH21092023\REPSWITCH_excgange\REPSWITCH_excgange\data/470104_REPSWITCH1_version1_list3_2024-01-26_09h17.38.599_micRespv1l3_recorded\recording_micRespv1l3_2024-01-26_09h26.59.080.wav;569.4997149;569.9997074;None;569.4997149;569.4997149;569.4997149;569.4997149;569.4997149;569.4997149;;;;;;470104;1;2024-01-26_09h17.38.599;REPSWITCH1_version1_list3;2022.2.4;143.8110196;
REPSWITCH1/PICTURE_48.png;bombero;type;darkblue;filler;1;F;1;4;3;1;Stim7_Set4;0;None;118;117;16;0;117;117;117;;;;;;;;;;;;;;;;;;;;;;;569.9997074;571.0762191;571.0762191;571.0762191;571.0762191;571.0762191;571.0762191;571.0762191;571.0762191;['b', 'o', 'm', 'b', 'e', 'r', 'o'];0;[0.8669065004214644, 0.9775330005213618, 1.1754013001918793, 1.3939955001696944, 1.474732800386846, 1.5026212008669972, 1.632201200351119];bombero;C:\2023\REPSWITCH21092023\REPSWITCH_excgange\REPSWITCH_excgange\data/470104_REPSWITCH1_version1_list3_2024-01-26_09h17.38.599_micRespv1l3_recorded\recording_micRespv1l3_2024-01-26_09h27.03.679.wav;574.0974927;574.5975278;None;574.0974927;574.0974927;574.0974927;574.0974927;574.0974927;574.0974927;;;;;;470104;1;2024-01-26_09h17.38.599;REPSWITCH1_version1_list3;2022.2.4;143.8110196;
REPSWITCH1/PICTURE_687.png;camisa;speak;gold;filler;2;F;1;4;3;1;Stim5_Set4;0;None;119;118;17;0;118;118;118;;;;;;;;;;;;;;;;;;;;;;;574.5975278;575.6393528;575.6393528;575.6393528;575.6393528;575.6393528;575.6393528;575.6393528;575.6393528;None;0;;;C:\2023\REPSWITCH21092023\REPSWITCH_excgange\REPSWITCH_excgange\data/470104_REPSWITCH1_version1_list3_2024-01-26_09h17.38.599_micRespv1l3_recorded\recording_micRespv1l3_2024-01-26_09h27.08.242.wav;578.6605507;579.1606817;None;578.6605507;578.6605507;578.6605507;578.6605507;578.6605507;578.6605507;;;;;;470104;1;2024-01-26_09h17.38.599;REPSWITCH1_version1_list3;2022.2.4;143.8110196;
REPSWITCH1/PICTURE_128.png;muñeca;type;darkblue;nontarget;1;NT;1;4;3;1;Stim4_Set1;0;None;120;119;18;0;119;119;119;;;;;;;;;;;;;;;;;;;;;;;579.1606817;580.2788217;580.2788217;580.2788217;580.2788217;580.2788217;580.2788217;580.2788217;580.2788217;['m', 'u', 'ñ', 'e', 'c', 'a'];0;[1.1258790008723736, 1.2946189008653164, 1.5908955000340939, 1.9025598000735044, 2.276283700019121, 2.3710416005924344];muñeca;C:\2023\REPSWITCH21092023\REPSWITCH_excgange\REPSWITCH_excgange\data/470104_REPSWITCH1_version1_list3_2024-01-26_09h17.38.599_micRespv1l3_recorded\recording_micRespv1l3_2024-01-26_09h27.12.882.wav;583.306984;;None;583.306984;583.306984;583.306984;583.306984;583.306984;583.306984;;;;;;470104;1;2024-01-26_09h17.38.599;REPSWITCH1_version1_list3;2022.2.4;143.8110196;
REPSWITCH1/PICTURE_128.png;muñeca;type;darkblue;repeat;1;T;1;4;3;1;Stim4_Set1;0;None;121;120;19;0;120;120;120;;;;;;;;;;;;;;;;;;;;;;;583.8071156;584.9461288;584.9461288;584.9461288;584.9461288;584.9461288;584.9461288;584.9461288;584.9461288;['m', 'u', 'ñ', 'e', 'c', 'a'];0;[0.6155714001506567, 0.7600469999015331, 0.9698640005663037, 1.1883455999195576, 1.4046464003622532, 1.513284300453961];muñeca;C:\2023\REPSWITCH21092023\REPSWITCH_excgange\REPSWITCH_excgange\data/470104_REPSWITCH1_version1_list3_2024-01-26_09h17.38.599_micRespv1l3_recorded\recording_micRespv1l3_2024-01-26_09h27.17.549.wav;587.974241;;None;587.974241;587.974241;587.974241;587.974241;587.974241;587.974241;;;;;;470104;1;2024-01-26_09h17.38.599;REPSWITCH1_version1_list3;2022.2.4;143.8110196;
REPSWITCH1/PICTURE_719.png;baño;speak;gold;filler;2;F;1;4;3;1;Stim2_Set4;1;switch;122;121;20;0;121;121;121;;;;;;;;;;;;;;;;;;;;;;;588.4742887;589.5856145;589.5856145;589.5856145;589.5856145;589.5856145;589.5856145;589.5856145;589.5856145;None;0;;;C:\2023\REPSWITCH21092023\REPSWITCH_excgange\REPSWITCH_excgange\data/470104_REPSWITCH1_version1_list3_2024-01-26_09h17.38.599_micRespv1l3_recorded\recording_micRespv1l3_2024-01-26_09h27.22.188.wav;592.6067593;593.1069021;None;592.6067593;592.6067593;592.6067593;592.6067593;592.6067593;592.6067593;;;;;;470104;1;2024-01-26_09h17.38.599;REPSWITCH1_version1_list3;2022.2.4;143.8110196;
REPSWITCH1/PICTURE_178.png;puente;type;darkblue;nontarget;1;NT;1;4;3;1;Stim1_Set1;1;switch;123;122;21;0;122;122;122;;;;;;;;;;;;;;;;;;;;;;;593.1069021;594.1764437;594.1764437;594.1764437;594.1764437;594.1764437;594.1764437;594.1764437;594.1764437;['p', 'u', 'e', 'n', 't', 'e'];0;[0.7605343004688621, 0.9692710004746914, 1.0558797996491194, 1.189478799700737, 1.2632231004536152, 1.3339485004544258];puente;C:\2023\REPSWITCH21092023\REPSWITCH_excgange\REPSWITCH_excgange\data/470104_REPSWITCH1_version1_list3_2024-01-26_09h17.38.599_micRespv1l3_recorded\recording_micRespv1l3_2024-01-26_09h27.26.780.wav;597.2046084;;None;597.2046084;597.2046084;597.2046084;597.2046084;597.2046084;597.2046084;;;;;;470104;1;2024-01-26_09h17.38.599;REPSWITCH1_version1_list3;2022.2.4;143.8110196;
REPSWITCH1/PICTURE_178.png;puente;type;darkblue;repeat;1;T;1;4;3;1;Stim1_Set1;0;None;124;123;22;0;123;123;123;;;;;;;;;;;;;;;;;;;;;;;597.7046641;598.7743177;598.7743177;598.7743177;598.7743177;598.7743177;598.7743177;598.7743177;598.7743177;['p', 'u', 'e', 'n', 't', 'e', 'd', 'backspace'];0;[0.6640468006953597, 0.897253300063312, 0.9468783000484109, 1.0864057000726461, 1.1571743004024029, 1.2386485999450088, 1.6485705999657512, 2.1944232005625963];puente;C:\2023\REPSWITCH21092023\REPSWITCH_excgange\REPSWITCH_excgange\data/470104_REPSWITCH1_version1_list3_2024-01-26_09h17.38.599_micRespv1l3_recorded\recording_micRespv1l3_2024-01-26_09h27.31.377.wav;601.8024527;;None;601.8024527;601.8024527;601.8024527;601.8024527;601.8024527;601.8024527;;;;;;470104;1;2024-01-26_09h17.38.599;REPSWITCH1_version1_list3;2022.2.4;143.8110196;
REPSWITCH1/PICTURE_16.png;cazador;type;darkblue;nontarget;1;NT;1;4;3;1;Stim6_Set1;1;repeat;125;124;23;0;124;124;124;;;;;;;;;;;;;;;;;;;;;;;602.3024528;603.5110281;603.5110281;603.5110281;603.5110281;603.5110281;603.5110281;603.5110281;603.5110281;['c', 'a', 'z', 'a', 'd', 'o', 'r'];0;[0.8147643003612757, 0.9632276007905602, 1.173831100575626, 1.3522149007767439, 1.467967800796032, 1.5661566006019711, 1.6685320008546114];cazador;C:\2023\REPSWITCH21092023\REPSWITCH_excgange\REPSWITCH_excgange\data/470104_REPSWITCH1_version1_list3_2024-01-26_09h17.38.599_micRespv1l3_recorded\recording_micRespv1l3_2024-01-26_09h27.36.115.wav;606.5391261;;None;606.5391261;606.5391261;606.5391261;606.5391261;606.5391261;606.5391261;;;;;;470104;1;2024-01-26_09h17.38.599;REPSWITCH1_version1_list3;2022.2.4;143.8110196;
REPSWITCH1/PICTURE_16.png;cazador;speak;gold;switch;2;T;1;4;3;1;Stim6_Set1;0;None;126;125;24;0;125;125;125;;;;;;;;;;;;;;;;;;;;;;;607.039185;608.1644225;608.1644225;608.1644225;608.1644225;608.1644225;608.1644225;608.1644225;608.1644225;None;0;;;C:\2023\REPSWITCH21092023\REPSWITCH_excgange\REPSWITCH_excgange\data/470104_REPSWITCH1_version1_list3_2024-01-26_09h17.38.599_micRespv1l3_recorded\recording_micRespv1l3_2024-01-26_09h27.40.768.wav;611.192588;;None;611.192588;611.192588;611.192588;611.192588;611.192588;611.192588;;;;;;470104;1;2024-01-26_09h17.38.599;REPSWITCH1_version1_list3;2022.2.4;143.8110196;
REPSWITCH1/PICTURE_19.png;pavo;type;darkblue;filler;1;F;2;4;3;1;Stim5_Set1;0;None;127;126;25;0;126;126;126;;;;;;;;;;;;;;;;;;;;;;;611.6925753;612.8177154;612.8177154;612.8177154;612.8177154;612.8177154;612.8177154;612.8177154;612.8177154;['p', 'a', 'v', 'o'];0;[0.803655200637877, 0.9092984003946185, 1.0647688005119562, 1.136494300328195];pavo;C:\2023\REPSWITCH21092023\REPSWITCH_excgange\REPSWITCH_excgange\data/470104_REPSWITCH1_version1_list3_2024-01-26_09h17.38.599_micRespv1l3_recorded\recording_micRespv1l3_2024-01-26_09h27.45.421.wav;615.8459509;;None;615.8459509;615.8459509;615.8459509;615.8459509;615.8459509;615.8459509;;;;;;470104;1;2024-01-26_09h17.38.599;REPSWITCH1_version1_list3;2022.2.4;143.8110196;
REPSWITCH1/PICTURE_199.png;falda;type;darkblue;nontarget;1;NT;2;4;3;1;Stim8_Set2;1;repeat;128;127;26;0;127;127;127;;;;;;;;;;;;;;;;;;;;;;;616.3459923;617.4780655;617.4780655;617.4780655;617.4780655;617.4780655;617.4780655;617.4780655;617.4780655;['f', 'a', 'l', 'd', 'a'];0;[0.7844799002632499, 0.8671849006786942, 0.9638397004455328, 1.1203356999903917, 1.2040498005226254];falda;C:\2023\REPSWITCH21092023\REPSWITCH_excgange\REPSWITCH_excgange\data/470104_REPSWITCH1_version1_list3_2024-01-26_09h17.38.599_micRespv1l3_recorded\recording_micRespv1l3_2024-01-26_09h27.50.081.wav;620.4992606;620.999346;None;620.4992606;620.4992606;620.4992606;620.4992606;620.4992606;620.4992606;;;;;;470104;1;2024-01-26_09h17.38.599;REPSWITCH1_version1_list3;2022.2.4;143.8110196;
REPSWITCH1/PICTURE_199.png;falda;type;darkblue;repeat;1;T;2;4;3;1;Stim8_Set2;0;None;129;128;27;0;128;128;128;;;;;;;;;;;;;;;;;;;;;;;620.999346;622.0759347;622.0759347;622.0759347;622.0759347;622.0759347;622.0759347;622.0759347;622.0759347;['f', 'a', 'l', 'd', 'a'];0;[0.7061262000352144, 0.8008059998974204, 0.891321299597621, 1.0793148996308446, 1.128460199572146];falda;C:\2023\REPSWITCH21092023\REPSWITCH_excgange\REPSWITCH_excgange\data/470104_REPSWITCH1_version1_list3_2024-01-26_09h17.38.599_micRespv1l3_recorded\recording_micRespv1l3_2024-01-26_09h27.54.679.wav;625.1040507;;None;625.1040507;625.1040507;625.1040507;625.1040507;625.1040507;625.1040507;;;;;;470104;1;2024-01-26_09h17.38.599;REPSWITCH1_version1_list3;2022.2.4;143.8110196;
REPSWITCH1/PICTURE_178.png;puente;speak;gold;filler;2;F;2;4;3;1;Stim1_Set1;1;switch;130;129;28;0;129;129;129;;;;;;;;;;;;;;;;;;;;;;;625.6040851;626.7778952;626.7778952;626.7778952;626.7778952;626.7778952;626.7778952;626.7778952;626.7778952;None;0;;;C:\2023\REPSWITCH21092023\REPSWITCH_excgange\REPSWITCH_excgange\data/470104_REPSWITCH1_version1_list3_2024-01-26_09h17.38.599_micRespv1l3_recorded\recording_micRespv1l3_2024-01-26_09h27.59.381.wav;629.8060203;;None;629.8060203;629.8060203;629.8060203;629.8060203;629.8060203;629.8060203;;;;;;470104;1;2024-01-26_09h17.38.599;REPSWITCH1_version1_list3;2022.2.4;143.8110196;
REPSWITCH1/PICTURE_517.png;cuerda;type;darkblue;nontarget;1;NT;2;4;3;1;Stim4_Set2;1;switch;131;130;29;0;130;130;130;;;;;;;;;;;;;;;;;;;;;;;630.3060778;631.5007404;631.5007404;631.5007404;631.5007404;631.5007404;631.5007404;631.5007404;631.5007404;['c', 'u', 'e', 'r', 'd', 'a'];0;[1.1027816999703646, 1.2064388999715447, 1.2881607003509998, 1.3657496003434062, 1.6717863008379936, 1.7863476006314158];cuerda;C:\2023\REPSWITCH21092023\REPSWITCH_excgange\REPSWITCH_excgange\data/470104_REPSWITCH1_version1_list3_2024-01-26_09h17.38.599_micRespv1l3_recorded\recording_micRespv1l3_2024-01-26_09h28.04.103.wav;634.5220014;635.0220642;None;634.5220014;634.5220014;634.5220014;634.5220014;634.5220014;634.5220014;;;;;;470104;1;2024-01-26_09h17.38.599;REPSWITCH1_version1_list3;2022.2.4;143.8110196;
REPSWITCH1/PICTURE_517.png;cuerda;type;darkblue;repeat;1;T;2;4;3;1;Stim4_Set2;0;None;132;131;30;0;131;131;131;;;;;;;;;;;;;;;;;;;;;;;635.0220642;636.0916351;636.0916351;636.0916351;636.0916351;636.0916351;636.0916351;636.0916351;636.0916351;['c', 'u', 'e', 'r', 'd', 'a'];0;[0.6862408006563783, 0.864652500487864, 0.9423944000154734, 0.9757138006389141, 1.2050510002300143, 1.2927593998610973];cuerda;C:\2023\REPSWITCH21092023\REPSWITCH_excgange\REPSWITCH_excgange\data/470104_REPSWITCH1_version1_list3_2024-01-26_09h17.38.599_micRespv1l3_recorded\recording_micRespv1l3_2024-01-26_09h28.08.694.wav;639.1128624;639.6128544;None;639.1128624;639.1128624;639.1128624;639.1128624;639.1128624;639.1128624;;;;;;470104;1;2024-01-26_09h17.38.599;REPSWITCH1_version1_list3;2022.2.4;143.8110196;
REPSWITCH1/PICTURE_169.png;espalda;type;darkblue;filler;1;F;2;4;3;1;Stim8_Set1;0;None;133;132;31;0;132;132;132;;;;;;;;;;;;;;;;;;;;;;;639.6128544;640.7172071;640.7172071;640.7172071;640.7172071;640.7172071;640.7172071;640.7172071;640.7172071;['e', 's', 'p', 'a', 'l', 'd', 'a'];0;[0.7078418005257845, 0.8973308000713587, 0.95914570055902, 1.10593940038234, 1.1786759998649359, 1.2962746005505323, 1.3600713005289435];espalda;C:\2023\REPSWITCH21092023\REPSWITCH_excgange\REPSWITCH_excgange\data/470104_REPSWITCH1_version1_list3_2024-01-26_09h17.38.599_micRespv1l3_recorded\recording_micRespv1l3_2024-01-26_09h28.13.319.wav;643.7384022;644.2384569;None;643.7384022;643.7384022;643.7384022;643.7384022;643.7384022;643.7384022;;;;;;470104;1;2024-01-26_09h17.38.599;REPSWITCH1_version1_list3;2022.2.4;143.8110196;
REPSWITCH1/PICTURE_673.png;tenedor;speak;gold;filler;2;F;2;4;3;1;Extra5;0;None;134;133;32;0;133;133;133;;;;;;;;;;;;;;;;;;;;;;;644.2384569;645.2524593;645.2524593;645.2524593;645.2524593;645.2524593;645.2524593;645.2524593;645.2524593;None;0;;;C:\2023\REPSWITCH21092023\REPSWITCH_excgange\REPSWITCH_excgange\data/470104_REPSWITCH1_version1_list3_2024-01-26_09h17.38.599_micRespv1l3_recorded\recording_micRespv1l3_2024-01-26_09h28.17.855.wav;648.273665;648.7738418;None;648.273665;648.273665;648.273665;648.273665;648.273665;648.273665;;;;;;470104;1;2024-01-26_09h17.38.599;REPSWITCH1_version1_list3;2022.2.4;143.8110196;
REPSWITCH1/PICTURE_142.png;vaso;type;darkblue;filler;1;F;2;4;3;1;Stim7_Set1;1;switch;135;134;33;0;134;134;134;;;;;;;;;;;;;;;;;;;;;;;648.7738418;649.8989813;649.8989813;649.8989813;649.8989813;649.8989813;649.8989813;649.8989813;649.8989813;['v', 'a', 's', 'o'];0;[0.7618249002844095, 0.8375684004276991, 0.9720824006944895, 1.091729300096631];vaso;C:\2023\REPSWITCH21092023\REPSWITCH_excgange\REPSWITCH_excgange\data/470104_REPSWITCH1_version1_list3_2024-01-26_09h17.38.599_micRespv1l3_recorded\recording_micRespv1l3_2024-01-26_09h28.22.501.wav;652.9201829;653.4202463;None;652.9201829;652.9201829;652.9201829;652.9201829;652.9201829;652.9201829;;;;;;470104;1;2024-01-26_09h17.38.599;REPSWITCH1_version1_list3;2022.2.4;143.8110196;
REPSWITCH1/PICTURE_552.png;manzana;type;darkblue;nontarget;1;NT;2;4;3;1;Stim6_Set2;1;repeat;136;135;34;0;135;135;135;;;;;;;;;;;;;;;;;;;;;;;653.4202463;654.5592545;654.5592545;654.5592545;654.5592545;654.5592545;654.5592545;654.5592545;654.5592545;['m', 'a', 'n', 'z', 'a', 'n', 'a'];0;[0.7145904004573822, 0.804283500649035, 0.9547823006287217, 1.012584300711751, 1.216214400716126, 1.312958300113678, 1.7241141004487872];manzana;C:\2023\REPSWITCH21092023\REPSWITCH_excgange\REPSWITCH_excgange\data/470104_REPSWITCH1_version1_list3_2024-01-26_09h17.38.599_micRespv1l3_recorded\recording_micRespv1l3_2024-01-26_09h28.27.162.wav;657.5874667;;None;657.5874667;657.5874667;657.5874667;657.5874667;657.5874667;657.5874667;;;;;;470104;1;2024-01-26_09h17.38.599;REPSWITCH1_version1_list3;2022.2.4;143.8110196;
REPSWITCH1/PICTURE_552.png;manzana;speak;gold;switch;1;T;2;4;3;1;Stim6_Set2;0;None;137;136;35;0;136;136;136;;;;;;;;;;;;;;;;;;;;;;;658.0874734;659.1153713;659.1153713;659.1153713;659.1153713;659.1153713;659.1153713;659.1153713;659.1153713;None;0;;;C:\2023\REPSWITCH21092023\REPSWITCH_excgange\REPSWITCH_excgange\data/470104_REPSWITCH1_version1_list3_2024-01-26_09h17.38.599_micRespv1l3_recorded\recording_micRespv1l3_2024-01-26_09h28.31.719.wav;662.1365673;662.6366663;None;662.1365673;662.1365673;662.1365673;662.1365673;662.1365673;662.1365673;;;;;;470104;1;2024-01-26_09h17.38.599;REPSWITCH1_version1_list3;2022.2.4;143.8110196;
REPSWITCH1/PICTURE_135.png;traje;speak;gold;filler;2;F;2;4;3;1;Stim3_Set1;0;None;138;137;36;0;137;137;137;;;;;;;;;;;;;;;;;;;;;;;662.6366663;663.6784498;663.6784498;663.6784498;663.6784498;663.6784498;663.6784498;663.6784498;663.6784498;None;0;;;C:\2023\REPSWITCH21092023\REPSWITCH_excgange\REPSWITCH_excgange\data/470104_REPSWITCH1_version1_list3_2024-01-26_09h17.38.599_micRespv1l3_recorded\recording_micRespv1l3_2024-01-26_09h28.36.281.wav;666.699694;667.1997577;None;666.699694;666.699694;666.699694;666.699694;666.699694;666.699694;;;;;;470104;1;2024-01-26_09h17.38.599;REPSWITCH1_version1_list3;2022.2.4;143.8110196;
REPSWITCH1/PICTURE_152.png;caracol;speak;gold;nontarget;2;NT;2;4;3;1;Stim2_Set2;1;repeat;139;138;37;0;138;138;138;;;;;;;;;;;;;;;;;;;;;;;667.1997577;668.2276502;668.2276502;668.2276502;668.2276502;668.2276502;668.2276502;668.2276502;668.2276502;None;0;;;C:\2023\REPSWITCH21092023\REPSWITCH_excgange\REPSWITCH_excgange\data/470104_REPSWITCH1_version1_list3_2024-01-26_09h17.38.599_micRespv1l3_recorded\recording_micRespv1l3_2024-01-26_09h28.40.830.wav;671.2488965;671.7490215;None;671.2488965;671.2488965;671.2488965;671.2488965;671.2488965;671.2488965;;;;;;470104;1;2024-01-26_09h17.38.599;REPSWITCH1_version1_list3;2022.2.4;143.8110196;
REPSWITCH1/PICTURE_152.png;caracol;type;darkblue;switch;1;T;2;4;3;1;Stim2_Set2;0;None;140;139;38;0;139;139;139;;;;;;;;;;;;;;;;;;;;;;;671.7490215;672.9435386;672.9435386;672.9435386;672.9435386;672.9435386;672.9435386;672.9435386;672.9435386;['c', 'a', 'r', 'a', 'c', 'o', 'l'];0;[0.6902302000671625, 0.7719646003097296, 0.9234429998323321, 1.0520054996013641, 1.1895094001665711, 1.3113740999251604, 1.5572712002322078];caracol;C:\2023\REPSWITCH21092023\REPSWITCH_excgange\REPSWITCH_excgange\data/470104_REPSWITCH1_version1_list3_2024-01-26_09h17.38.599_micRespv1l3_recorded\recording_micRespv1l3_2024-01-26_09h28.45.546.wav;675.964784;676.4648237;None;675.964784;675.964784;675.964784;675.964784;675.964784;675.964784;;;;;;470104;1;2024-01-26_09h17.38.599;REPSWITCH1_version1_list3;2022.2.4;143.8110196;
