image,correctAns,respModal,frameColor,repSwitch,sequence,target,set,block,list,exp_version,stimulus,baseline,baseline_condition,trial_no,psychopy_trial,Column1,trialsREPSWITCH.thisRepN,trialsREPSWITCH.thisTrialN,trialsREPSWITCH.thisN,trialsREPSWITCH.thisIndex,textWelcome.started,textboxInstrMain1.started,textboxInstrMain1_2.started,textboxInstrMain1_3.started,keyInstrMain.started,keyInstrMain.keys,keyInstrMain.rt,textboxInstrMain2.started,textboxInstrMain2_2.started,textboxInstrMain2_3.started,textboxInstrMain2_4.started,textboxInstrMain2_5.started,textboxInstrMain2_6.started,textboxInstrMain2_7.started,textboxInstrMain2_8.started,textboxInstrMain2_9.started,textboxInstrMain2_10.started,textboxInstrMain2_11.started,textboxInstrMain2_12.started,keyInstrMain2.started,keyInstrMain2.keys,keyInstrMain2.rt,fixationITI.started,fixationITI.stopped,polygonColour.started,polygonWhite.started,imageObject.started,polygonType.started,textInput.started,keyResp.started,micRespv1l3.started,keyResp.keys,keyResp.corr,keyResp.rt,subjResponse,micRespv1l3.clip,textBlankLoop.started,textBlankLoop.stopped,keyPause.keys,polygonColour.stopped,polygonWhite.stopped,imageObject.stopped,polygonType.stopped,textInput.stopped,keyResp.stopped,textboxPause.started,keyPause.started,keyPause.rt,textboxGoodbye.started,textboxGoodbye.stopped,participant,session,date,expName,psychopyVersion,frameRate,
,,,,,,,,,,,,,,,,,,,,,10.878670699894428,13.372280200012028,13.372280200012028,13.372280200012028,13.372280200012028,space,3.6351054003462195,,,,,,,,,,,,,,,,,,,,,,,,,,,,,,,,,,,,,,,,,,,,470104,001,2024-01-26_09h17.38.599,REPSWITCH1_version1_list3,2022.2.4,143.8110195639389,
,,,,,,,,,,,,,,,,,,,,,,,,,,,,17.025486500002444,17.025486500002444,17.025486500002444,17.025486500002444,17.025486500002444,17.025486500002444,17.025486500002444,17.025486500002444,17.025486500002444,17.025486500002444,17.025486500002444,17.025486500002444,17.025486500002444,space,1.3155462006106973,,,,,,,,,,,,,,,,,,,,,,,,,,,,,470104,001,2024-01-26_09h17.38.599,REPSWITCH1_version1_list3,2022.2.4,143.8110195639389,
REPSWITCH1/PICTURE_663.png,columna,type,darkblue,filler,1,F,1,2,3,1,Extra6,0,None,1,0,1,0,0,0,0,,,,,,,,,,,,,,,,,,,,,,,18.442358099855483,19.46338490024209,19.46338490024209,19.46338490024209,19.46338490024209,19.46338490024209,19.46338490024209,19.46338490024209,19.46338490024209,"['c', 'o', 'l', 'u', 'm', 'n', 'a']",0,"[1.1458467999473214, 1.611840800382197, 1.7742822002619505, 1.9745976999402046, 2.187870300374925, 2.3593340003862977, 2.4515495002269745]",columna,C:\2023\REPSWITCH21092023\REPSWITCH_excgange\REPSWITCH_excgange\data/470104_REPSWITCH1_version1_list3_2024-01-26_09h17.38.599_micRespv1l3_recorded\recording_micRespv1l3_2024-01-26_09h17.52.063.wav,22.484530200250447,22.984615299850702,None,,,,,,,,,,,,470104,001,2024-01-26_09h17.38.599,REPSWITCH1_version1_list3,2022.2.4,143.8110195639389,
REPSWITCH1/PICTURE_128.png,muñeca,speak,gold,nontarget,2,NT,1,2,3,1,Stim4_Set1,1,switch,2,1,2,0,1,1,1,,,,,,,,,,,,,,,,,,,,,,,22.984615299850702,24.1375281997025,24.1375281997025,24.1375281997025,24.1375281997025,24.1375281997025,24.1375281997025,24.1375281997025,24.1375281997025,None,0,,,C:\2023\REPSWITCH21092023\REPSWITCH_excgange\REPSWITCH_excgange\data/470104_REPSWITCH1_version1_list3_2024-01-26_09h17.38.599_micRespv1l3_recorded\recording_micRespv1l3_2024-01-26_09h17.56.741.wav,27.16572989989072,27.665787199512124,None,27.16572989989072,27.16572989989072,27.16572989989072,27.16572989989072,27.16572989989072,27.16572989989072,,,,,,470104,001,2024-01-26_09h17.38.599,REPSWITCH1_version1_list3,2022.2.4,143.8110195639389,
REPSWITCH1/PICTURE_128.png,muñeca,speak,gold,repeat,2,T,1,2,3,1,Stim4_Set1,0,None,3,2,3,0,2,2,2,,,,,,,,,,,,,,,,,,,,,,,27.665787199512124,28.770160700194538,28.770160700194538,28.770160700194538,28.770160700194538,28.770160700194538,28.770160700194538,28.770160700194538,28.770160700194538,None,0,,,C:\2023\REPSWITCH21092023\REPSWITCH_excgange\REPSWITCH_excgange\data/470104_REPSWITCH1_version1_list3_2024-01-26_09h17.38.599_micRespv1l3_recorded\recording_micRespv1l3_2024-01-26_09h18.01.372.wav,31.791307399980724,32.29143590014428,None,31.791307399980724,31.791307399980724,31.791307399980724,31.791307399980724,31.791307399980724,31.791307399980724,,,,,,470104,001,2024-01-26_09h17.38.599,REPSWITCH1_version1_list3,2022.2.4,143.8110195639389,
REPSWITCH1/PICTURE_8.png,pierna,type,darkblue,filler,1,F,1,2,3,1,Stim3_Set4,0,None,4,3,4,0,3,3,3,,,,,,,,,,,,,,,,,,,,,,,32.29143590014428,33.36793989967555,33.36793989967555,33.36793989967555,33.36793989967555,33.36793989967555,33.36793989967555,33.36793989967555,33.36793989967555,"['p', 'i', 'e', 'r', 'n', 'a']",0,"[1.1865081004798412, 1.3863291004672647, 1.4749627001583576, 1.5572487004101276, 1.6828433005139232, 1.776486299932003]",pierna,C:\2023\REPSWITCH21092023\REPSWITCH_excgange\REPSWITCH_excgange\data/470104_REPSWITCH1_version1_list3_2024-01-26_09h17.38.599_micRespv1l3_recorded\recording_micRespv1l3_2024-01-26_09h18.05.970.wav,36.38921219948679,36.88920139987022,None,36.38921219948679,36.38921219948679,36.38921219948679,36.38921219948679,36.38921219948679,36.38921219948679,,,,,,470104,001,2024-01-26_09h17.38.599,REPSWITCH1_version1_list3,2022.2.4,143.8110195639389,
REPSWITCH1/PICTURE_135.png,traje,speak,gold,nontarget,2,NT,1,2,3,1,Stim3_Set1,1,switch,5,4,5,0,4,4,4,,,,,,,,,,,,,,,,,,,,,,,36.88920139987022,38.03526039980352,38.03526039980352,38.03526039980352,38.03526039980352,38.03526039980352,38.03526039980352,38.03526039980352,38.03526039980352,None,0,,,C:\2023\REPSWITCH21092023\REPSWITCH_excgange\REPSWITCH_excgange\data/470104_REPSWITCH1_version1_list3_2024-01-26_09h17.38.599_micRespv1l3_recorded\recording_micRespv1l3_2024-01-26_09h18.10.639.wav,41.06338439974934,,None,41.06338439974934,41.06338439974934,41.06338439974934,41.06338439974934,41.06338439974934,41.06338439974934,,,,,,470104,001,2024-01-26_09h17.38.599,REPSWITCH1_version1_list3,2022.2.4,143.8110195639389,
REPSWITCH1/PICTURE_135.png,traje,speak,gold,repeat,2,T,1,2,3,1,Stim3_Set1,0,None,6,5,6,0,5,5,5,,,,,,,,,,,,,,,,,,,,,,,41.56338969990611,42.69549040030688,42.69549040030688,42.69549040030688,42.69549040030688,42.69549040030688,42.69549040030688,42.69549040030688,42.69549040030688,None,0,,,C:\2023\REPSWITCH21092023\REPSWITCH_excgange\REPSWITCH_excgange\data/470104_REPSWITCH1_version1_list3_2024-01-26_09h17.38.599_micRespv1l3_recorded\recording_micRespv1l3_2024-01-26_09h18.15.298.wav,45.716796699911356,46.2167897997424,None,45.716796699911356,45.716796699911356,45.716796699911356,45.716796699911356,45.716796699911356,45.716796699911356,,,,,,470104,001,2024-01-26_09h17.38.599,REPSWITCH1_version1_list3,2022.2.4,143.8110195639389,
REPSWITCH1/PICTURE_673.png,tenedor,type,darkblue,filler,1,F,1,2,3,1,Extra5,0,None,7,6,7,0,6,6,6,,,,,,,,,,,,,,,,,,,,,,,46.2167897997424,47.27941759955138,47.27941759955138,47.27941759955138,47.27941759955138,47.27941759955138,47.27941759955138,47.27941759955138,47.27941759955138,"['t', 'e', 'n', 'e', 'd', 'o', 'r']",0,"[0.8920409008860588, 1.0525398002937436, 1.137316701002419, 1.2389902006834745, 1.4562311004847288, 1.5694095008075237, 1.7019275007769465]",tenedor,C:\2023\REPSWITCH21092023\REPSWITCH_excgange\REPSWITCH_excgange\data/470104_REPSWITCH1_version1_list3_2024-01-26_09h17.38.599_micRespv1l3_recorded\recording_micRespv1l3_2024-01-26_09h18.19.882.wav,50.30760059971362,,None,50.30760059971362,50.30760059971362,50.30760059971362,50.30760059971362,50.30760059971362,50.30760059971362,,,,,,470104,001,2024-01-26_09h17.38.599,REPSWITCH1_version1_list3,2022.2.4,143.8110195639389,
REPSWITCH1/PICTURE_728.png,pulpo,speak,gold,filler,2,F,1,2,3,1,Stim8_Set4,0,None,8,7,8,0,7,7,7,,,,,,,,,,,,,,,,,,,,,,,50.807740500196815,51.99529829993844,51.99529829993844,51.99529829993844,51.99529829993844,51.99529829993844,51.99529829993844,51.99529829993844,51.99529829993844,None,0,,,C:\2023\REPSWITCH21092023\REPSWITCH_excgange\REPSWITCH_excgange\data/470104_REPSWITCH1_version1_list3_2024-01-26_09h17.38.599_micRespv1l3_recorded\recording_micRespv1l3_2024-01-26_09h18.24.598.wav,55.023464899510145,,None,55.023464899510145,55.023464899510145,55.023464899510145,55.023464899510145,55.023464899510145,55.023464899510145,,,,,,470104,001,2024-01-26_09h17.38.599,REPSWITCH1_version1_list3,2022.2.4,143.8110195639389,
REPSWITCH1/PICTURE_16.png,cazador,speak,gold,nontarget,2,NT,1,2,3,1,Stim6_Set1,1,repeat,9,8,9,0,8,8,8,,,,,,,,,,,,,,,,,,,,,,,55.52351360023022,56.60010060016066,56.60010060016066,56.60010060016066,56.60010060016066,56.60010060016066,56.60010060016066,56.60010060016066,56.60010060016066,None,0,,,C:\2023\REPSWITCH21092023\REPSWITCH_excgange\REPSWITCH_excgange\data/470104_REPSWITCH1_version1_list3_2024-01-26_09h17.38.599_micRespv1l3_recorded\recording_micRespv1l3_2024-01-26_09h18.29.203.wav,59.6282510003075,,None,59.6282510003075,59.6282510003075,59.6282510003075,59.6282510003075,59.6282510003075,59.6282510003075,,,,,,470104,001,2024-01-26_09h17.38.599,REPSWITCH1_version1_list3,2022.2.4,143.8110195639389,
REPSWITCH1/PICTURE_16.png,cazador,type,darkblue,switch,1,T,1,2,3,1,Stim6_Set1,0,None,10,9,10,0,9,9,9,,,,,,,,,,,,,,,,,,,,,,,60.12828049995005,61.1701291995123,61.1701291995123,61.1701291995123,61.1701291995123,61.1701291995123,61.1701291995123,61.1701291995123,61.1701291995123,"['c', 'a', 'z', 'a', 'd', 'o', 'r']",0,"[0.9964482001960278, 1.0851461999118328, 1.384452199563384, 1.5597868002951145, 1.802271599881351, 1.979712300002575, 2.113299099728465]",cazador,C:\2023\REPSWITCH21092023\REPSWITCH_excgange\REPSWITCH_excgange\data/470104_REPSWITCH1_version1_list3_2024-01-26_09h17.38.599_micRespv1l3_recorded\recording_micRespv1l3_2024-01-26_09h18.33.773.wav,64.19828419946134,,None,64.19828419946134,64.19828419946134,64.19828419946134,64.19828419946134,64.19828419946134,64.19828419946134,,,,,,470104,001,2024-01-26_09h17.38.599,REPSWITCH1_version1_list3,2022.2.4,143.8110195639389,
REPSWITCH1/PICTURE_498.png,taza,type,darkblue,filler,1,F,1,2,3,1,Stim4_Set4,1,repeat,11,10,11,0,10,10,10,,,,,,,,,,,,,,,,,,,,,,,64.69831340014935,65.8582162996754,65.8582162996754,65.8582162996754,65.8582162996754,65.8582162996754,65.8582162996754,65.8582162996754,65.8582162996754,"['t', 'a', 'z', 'a']",0,"[0.8308269008994102, 1.0046246005222201, 1.22796400077641, 1.4033392006531358]",taza,C:\2023\REPSWITCH21092023\REPSWITCH_excgange\REPSWITCH_excgange\data/470104_REPSWITCH1_version1_list3_2024-01-26_09h17.38.599_micRespv1l3_recorded\recording_micRespv1l3_2024-01-26_09h18.38.461.wav,68.87942099943757,69.37948630005121,None,68.87942099943757,68.87942099943757,68.87942099943757,68.87942099943757,68.87942099943757,68.87942099943757,,,,,,470104,001,2024-01-26_09h17.38.599,REPSWITCH1_version1_list3,2022.2.4,143.8110195639389,
REPSWITCH1/PICTURE_381.png,fresa,type,darkblue,nontarget,1,NT,1,2,3,1,Stim2_Set1,1,repeat,12,11,12,0,11,11,11,,,,,,,,,,,,,,,,,,,,,,,69.37948630005121,70.53942380007356,70.53942380007356,70.53942380007356,70.53942380007356,70.53942380007356,70.53942380007356,70.53942380007356,70.53942380007356,"['f', 'r', 'e', 's', 'a']",0,"[1.0815300000831485, 1.37055469956249, 1.4154687002301216, 1.6566417999565601, 1.8518839003518224]",fresa,C:\2023\REPSWITCH21092023\REPSWITCH_excgange\REPSWITCH_excgange\data/470104_REPSWITCH1_version1_list3_2024-01-26_09h17.38.599_micRespv1l3_recorded\recording_micRespv1l3_2024-01-26_09h18.43.142.wav,73.56060449965298,74.06067239958793,None,73.56060449965298,73.56060449965298,73.56060449965298,73.56060449965298,73.56060449965298,73.56060449965298,,,,,,470104,001,2024-01-26_09h17.38.599,REPSWITCH1_version1_list3,2022.2.4,143.8110195639389,
REPSWITCH1/PICTURE_381.png,fresa,speak,gold,switch,2,T,1,2,3,1,Stim2_Set1,0,None,13,12,13,0,12,12,12,,,,,,,,,,,,,,,,,,,,,,,74.06067239958793,75.11641540005803,75.11641540005803,75.11641540005803,75.11641540005803,75.11641540005803,75.11641540005803,75.11641540005803,75.11641540005803,None,0,,,C:\2023\REPSWITCH21092023\REPSWITCH_excgange\REPSWITCH_excgange\data/470104_REPSWITCH1_version1_list3_2024-01-26_09h17.38.599_micRespv1l3_recorded\recording_micRespv1l3_2024-01-26_09h18.47.719.wav,78.14457309991121,,None,78.14457309991121,78.14457309991121,78.14457309991121,78.14457309991121,78.14457309991121,78.14457309991121,,,,,,470104,001,2024-01-26_09h17.38.599,REPSWITCH1_version1_list3,2022.2.4,143.8110195639389,
REPSWITCH1/PICTURE_178.png,puente,speak,gold,nontarget,2,NT,1,2,3,1,Stim1_Set1,0,None,14,13,14,0,13,13,13,,,,,,,,,,,,,,,,,,,,,,,78.6446056002751,79.68646179977804,79.68646179977804,79.68646179977804,79.68646179977804,79.68646179977804,79.68646179977804,79.68646179977804,79.68646179977804,None,0,,,C:\2023\REPSWITCH21092023\REPSWITCH_excgange\REPSWITCH_excgange\data/470104_REPSWITCH1_version1_list3_2024-01-26_09h17.38.599_micRespv1l3_recorded\recording_micRespv1l3_2024-01-26_09h18.52.290.wav,82.70762399956584,83.20775180030614,None,82.70762399956584,82.70762399956584,82.70762399956584,82.70762399956584,82.70762399956584,82.70762399956584,,,,,,470104,001,2024-01-26_09h17.38.599,REPSWITCH1_version1_list3,2022.2.4,143.8110195639389,
REPSWITCH1/PICTURE_178.png,puente,type,darkblue,switch,1,T,1,2,3,1,Stim1_Set1,0,None,15,14,15,0,14,14,14,,,,,,,,,,,,,,,,,,,,,,,83.20775180030614,84.33979230001569,84.33979230001569,84.33979230001569,84.33979230001569,84.33979230001569,84.33979230001569,84.33979230001569,84.33979230001569,"['p', 'u', 'e', 'n', 't', 'e']",0,"[1.4577368004247546, 1.6743347998708487, 1.871671199798584, 2.112087800167501, 2.2316362001001835, 2.3542350996285677]",puente,C:\2023\REPSWITCH21092023\REPSWITCH_excgange\REPSWITCH_excgange\data/470104_REPSWITCH1_version1_list3_2024-01-26_09h17.38.599_micRespv1l3_recorded\recording_micRespv1l3_2024-01-26_09h18.56.942.wav,87.36097230017185,87.86106240004301,None,87.36097230017185,87.36097230017185,87.36097230017185,87.36097230017185,87.36097230017185,87.36097230017185,,,,,,470104,001,2024-01-26_09h17.38.599,REPSWITCH1_version1_list3,2022.2.4,143.8110195639389,
REPSWITCH1/PICTURE_719.png,baño,speak,gold,filler,2,F,1,2,3,1,Stim2_Set4,0,None,16,15,16,0,15,15,15,,,,,,,,,,,,,,,,,,,,,,,87.86106240004301,89.02786879986525,89.02786879986525,89.02786879986525,89.02786879986525,89.02786879986525,89.02786879986525,89.02786879986525,89.02786879986525,None,0,,,C:\2023\REPSWITCH21092023\REPSWITCH_excgange\REPSWITCH_excgange\data/470104_REPSWITCH1_version1_list3_2024-01-26_09h17.38.599_micRespv1l3_recorded\recording_micRespv1l3_2024-01-26_09h19.01.630.wav,92.04910540021956,92.54916459973902,None,92.04910540021956,92.04910540021956,92.04910540021956,92.04910540021956,92.04910540021956,92.04910540021956,,,,,,470104,001,2024-01-26_09h17.38.599,REPSWITCH1_version1_list3,2022.2.4,143.8110195639389,
REPSWITCH1/PICTURE_169.png,espalda,type,darkblue,nontarget,1,NT,1,2,3,1,Stim8_Set1,1,switch,17,16,17,0,16,16,16,,,,,,,,,,,,,,,,,,,,,,,92.54916459973902,93.63266989961267,93.63266989961267,93.63266989961267,93.63266989961267,93.63266989961267,93.63266989961267,93.63266989961267,93.63266989961267,"['e', 's', 'p', 'a', 'l', 'd', 'a']",0,"[0.9378433004021645, 1.1153016006574035, 1.288663100451231, 1.4086230006068945, 1.5215661004185677, 1.840551600791514, 2.0292240008711815]",espalda,C:\2023\REPSWITCH21092023\REPSWITCH_excgange\REPSWITCH_excgange\data/470104_REPSWITCH1_version1_list3_2024-01-26_09h17.38.599_micRespv1l3_recorded\recording_micRespv1l3_2024-01-26_09h19.06.236.wav,96.66087939962745,,None,96.66087939962745,96.66087939962745,96.66087939962745,96.66087939962745,96.66087939962745,96.66087939962745,,,,,,470104,001,2024-01-26_09h17.38.599,REPSWITCH1_version1_list3,2022.2.4,143.8110195639389,
REPSWITCH1/PICTURE_169.png,espalda,type,darkblue,repeat,1,T,1,2,3,1,Stim8_Set1,0,None,18,17,18,0,17,17,17,,,,,,,,,,,,,,,,,,,,,,,97.1609431002289,98.251376000233,98.251376000233,98.251376000233,98.251376000233,98.251376000233,98.251376000233,98.251376000233,98.251376000233,"['e', 's', 'p', 'a', 'l', 'd', 'a']",0,"[1.0572896003723145, 1.2275152001529932, 1.351987300440669, 1.4884974006563425, 1.6162723004817963, 1.8058904008939862, 1.891644200310111]",espalda,C:\2023\REPSWITCH21092023\REPSWITCH_excgange\REPSWITCH_excgange\data/470104_REPSWITCH1_version1_list3_2024-01-26_09h17.38.599_micRespv1l3_recorded\recording_micRespv1l3_2024-01-26_09h19.10.853.wav,101.27256399951875,101.7725783996284,None,101.27256399951875,101.27256399951875,101.27256399951875,101.27256399951875,101.27256399951875,101.27256399951875,,,,,,470104,001,2024-01-26_09h17.38.599,REPSWITCH1_version1_list3,2022.2.4,143.8110195639389,
REPSWITCH1/PICTURE_48.png,bombero,speak,gold,filler,2,F,1,2,3,1,Stim7_Set4,1,switch,19,18,19,0,18,18,18,,,,,,,,,,,,,,,,,,,,,,,101.7725783996284,102.92557319998741,102.92557319998741,102.92557319998741,102.92557319998741,102.92557319998741,102.92557319998741,102.92557319998741,102.92557319998741,None,0,,,C:\2023\REPSWITCH21092023\REPSWITCH_excgange\REPSWITCH_excgange\data/470104_REPSWITCH1_version1_list3_2024-01-26_09h17.38.599_micRespv1l3_recorded\recording_micRespv1l3_2024-01-26_09h19.15.528.wav,105.9536816002801,,None,105.9536816002801,105.9536816002801,105.9536816002801,105.9536816002801,105.9536816002801,105.9536816002801,,,,,,470104,001,2024-01-26_09h17.38.599,REPSWITCH1_version1_list3,2022.2.4,143.8110195639389,
REPSWITCH1/PICTURE_19.png,pavo,type,darkblue,nontarget,1,NT,1,2,3,1,Stim5_Set1,1,switch,20,19,20,0,19,19,19,,,,,,,,,,,,,,,,,,,,,,,106.45374399982393,107.59278079960495,107.59278079960495,107.59278079960495,107.59278079960495,107.59278079960495,107.59278079960495,107.59278079960495,107.59278079960495,"['p', 'a', 'v', 'o']",0,"[1.1620897995308042, 1.252793500199914, 1.656436000019312, 1.8158545000478625]",pavo,C:\2023\REPSWITCH21092023\REPSWITCH_excgange\REPSWITCH_excgange\data/470104_REPSWITCH1_version1_list3_2024-01-26_09h17.38.599_micRespv1l3_recorded\recording_micRespv1l3_2024-01-26_09h19.20.195.wav,110.62093960028142,,None,110.62093960028142,110.62093960028142,110.62093960028142,110.62093960028142,110.62093960028142,110.62093960028142,,,,,,470104,001,2024-01-26_09h17.38.599,REPSWITCH1_version1_list3,2022.2.4,143.8110195639389,
REPSWITCH1/PICTURE_19.png,pavo,type,darkblue,repeat,1,T,1,2,3,1,Stim5_Set1,0,None,21,20,21,0,20,20,20,,,,,,,,,,,,,,,,,,,,,,,111.12108569964767,112.20453649945557,112.20453649945557,112.20453649945557,112.20453649945557,112.20453649945557,112.20453649945557,112.20453649945557,112.20453649945557,"['p', 'a', 'v', 'o']",0,"[0.5623813001438975, 0.7356917997822165, 0.978256500326097, 1.0790343005210161]",pavo,C:\2023\REPSWITCH21092023\REPSWITCH_excgange\REPSWITCH_excgange\data/470104_REPSWITCH1_version1_list3_2024-01-26_09h17.38.599_micRespv1l3_recorded\recording_micRespv1l3_2024-01-26_09h19.24.808.wav,115.23266940005124,,None,115.23266940005124,115.23266940005124,115.23266940005124,115.23266940005124,115.23266940005124,115.23266940005124,,,,,,470104,001,2024-01-26_09h17.38.599,REPSWITCH1_version1_list3,2022.2.4,143.8110195639389,
REPSWITCH1/PICTURE_319.png,vaca,speak,gold,filler,2,F,1,2,3,1,Stim1_Set4,0,None,22,21,22,0,21,21,21,,,,,,,,,,,,,,,,,,,,,,,115.73271160013974,116.7467197002843,116.7467197002843,116.7467197002843,116.7467197002843,116.7467197002843,116.7467197002843,116.7467197002843,116.7467197002843,None,0,,,C:\2023\REPSWITCH21092023\REPSWITCH_excgange\REPSWITCH_excgange\data/470104_REPSWITCH1_version1_list3_2024-01-26_09h17.38.599_micRespv1l3_recorded\recording_micRespv1l3_2024-01-26_09h19.29.350.wav,119.77491210028529,,None,119.77491210028529,119.77491210028529,119.77491210028529,119.77491210028529,119.77491210028529,119.77491210028529,,,,,,470104,001,2024-01-26_09h17.38.599,REPSWITCH1_version1_list3,2022.2.4,143.8110195639389,
REPSWITCH1/PICTURE_338.png,regalo,type,darkblue,filler,1,F,1,2,3,1,Stim6_Set4,0,None,23,22,23,0,22,22,22,,,,,,,,,,,,,,,,,,,,,,,120.27495319955051,121.33068539947271,121.33068539947271,121.33068539947271,121.33068539947271,121.33068539947271,121.33068539947271,121.33068539947271,121.33068539947271,"['r', 'e', 'g', 'a', 'l', 'o']",0,"[0.831861600279808, 0.9439228009432554, 1.2442452004179358, 1.3616858003661036, 1.6303731007501483, 1.8729616003111005]",regalo,C:\2023\REPSWITCH21092023\REPSWITCH_excgange\REPSWITCH_excgange\data/470104_REPSWITCH1_version1_list3_2024-01-26_09h17.38.599_micRespv1l3_recorded\recording_micRespv1l3_2024-01-26_09h19.33.933.wav,124.35195770021528,124.85195400007069,None,124.35195770021528,124.35195770021528,124.35195770021528,124.35195770021528,124.35195770021528,124.35195770021528,,,,,,470104,001,2024-01-26_09h17.38.599,REPSWITCH1_version1_list3,2022.2.4,143.8110195639389,
REPSWITCH1/PICTURE_142.png,vaso,type,darkblue,nontarget,1,NT,1,2,3,1,Stim7_Set1,0,None,24,23,24,0,23,23,23,,,,,,,,,,,,,,,,,,,,,,,124.85195400007069,125.95627859979868,125.95627859979868,125.95627859979868,125.95627859979868,125.95627859979868,125.95627859979868,125.95627859979868,125.95627859979868,"['v', 'a', 's', 'o']",0,"[0.7479904005303979, 0.8875174997374415, 0.9875883003696799, 1.1493437997996807]",vaso,C:\2023\REPSWITCH21092023\REPSWITCH_excgange\REPSWITCH_excgange\data/470104_REPSWITCH1_version1_list3_2024-01-26_09h17.38.599_micRespv1l3_recorded\recording_micRespv1l3_2024-01-26_09h19.38.559.wav,128.97744309995323,129.47754039987922,None,128.97744309995323,128.97744309995323,128.97744309995323,128.97744309995323,128.97744309995323,128.97744309995323,,,,,,470104,001,2024-01-26_09h17.38.599,REPSWITCH1_version1_list3,2022.2.4,143.8110195639389,
REPSWITCH1/PICTURE_142.png,vaso,speak,gold,switch,2,T,1,2,3,1,Stim7_Set1,0,None,25,24,25,0,24,24,24,,,,,,,,,,,,,,,,,,,,,,,129.47754039987922,130.59576279949397,130.59576279949397,130.59576279949397,130.59576279949397,130.59576279949397,130.59576279949397,130.59576279949397,130.59576279949397,None,0,,,C:\2023\REPSWITCH21092023\REPSWITCH_excgange\REPSWITCH_excgange\data/470104_REPSWITCH1_version1_list3_2024-01-26_09h17.38.599_micRespv1l3_recorded\recording_micRespv1l3_2024-01-26_09h19.43.199.wav,133.61693479958922,134.11703140009195,None,133.61693479958922,133.61693479958922,133.61693479958922,133.61693479958922,133.61693479958922,133.61693479958922,,,,,,470104,001,2024-01-26_09h17.38.599,REPSWITCH1_version1_list3,2022.2.4,143.8110195639389,
REPSWITCH1/PICTURE_687.png,camisa,type,darkblue,filler,1,F,1,2,3,1,Stim5_Set4,1,switch,26,25,26,0,25,25,25,,,,,,,,,,,,,,,,,,,,,,,134.11703140009195,135.24915040004998,135.24915040004998,135.24915040004998,135.24915040004998,135.24915040004998,135.24915040004998,135.24915040004998,135.24915040004998,"['c', 'a', 'm', 'i', 's', 'a']",0,"[1.3836714001372457, 1.476779700256884, 1.579308900050819, 1.6910087000578642, 1.7288860995322466, 1.9062463995069265]",camisa,C:\2023\REPSWITCH21092023\REPSWITCH_excgange\REPSWITCH_excgange\data/470104_REPSWITCH1_version1_list3_2024-01-26_09h17.38.599_micRespv1l3_recorded\recording_micRespv1l3_2024-01-26_09h19.47.852.wav,138.2703251997009,138.77037519961596,None,138.2703251997009,138.2703251997009,138.2703251997009,138.2703251997009,138.2703251997009,138.2703251997009,,,,,,470104,001,2024-01-26_09h17.38.599,REPSWITCH1_version1_list3,2022.2.4,143.8110195639389,
REPSWITCH1/PICTURE_30.png,granja,type,darkblue,nontarget,1,NT,2,2,3,1,Stim5_Set2,0,None,27,26,27,0,26,26,26,,,,,,,,,,,,,,,,,,,,,,,138.77037519961596,139.79829019960016,139.79829019960016,139.79829019960016,139.79829019960016,139.79829019960016,139.79829019960016,139.79829019960016,139.79829019960016,"['g', 'r', 'a', 'n', 'j', 'a']",0,"[0.8760939007624984, 0.9639292005449533, 1.0725612007081509, 1.2021327009424567, 1.3366526002064347, 1.3934684004634619]",granja,C:\2023\REPSWITCH21092023\REPSWITCH_excgange\REPSWITCH_excgange\data/470104_REPSWITCH1_version1_list3_2024-01-26_09h17.38.599_micRespv1l3_recorded\recording_micRespv1l3_2024-01-26_09h19.52.402.wav,142.82647710014135,143.3266244996339,None,142.82647710014135,142.82647710014135,142.82647710014135,142.82647710014135,142.82647710014135,142.82647710014135,,,,,,470104,001,2024-01-26_09h17.38.599,REPSWITCH1_version1_list3,2022.2.4,143.8110195639389,
REPSWITCH1/PICTURE_30.png,granja,type,darkblue,repeat,1,T,2,2,3,1,Stim5_Set2,0,None,28,27,28,0,27,27,27,,,,,,,,,,,,,,,,,,,,,,,143.3266244996339,144.41005489975214,144.41005489975214,144.41005489975214,144.41005489975214,144.41005489975214,144.41005489975214,144.41005489975214,144.41005489975214,"['g', 'r', 'a', 'n', 'j', 'a']",0,"[0.787368300370872, 0.8680996000766754, 0.9740583002567291, 1.1269000004976988, 1.2913806000724435, 1.3711578007787466]",granja,C:\2023\REPSWITCH21092023\REPSWITCH_excgange\REPSWITCH_excgange\data/470104_REPSWITCH1_version1_list3_2024-01-26_09h17.38.599_micRespv1l3_recorded\recording_micRespv1l3_2024-01-26_09h19.57.014.wav,147.4382032994181,,None,147.4382032994181,147.4382032994181,147.4382032994181,147.4382032994181,147.4382032994181,147.4382032994181,,,,,,470104,001,2024-01-26_09h17.38.599,REPSWITCH1_version1_list3,2022.2.4,143.8110195639389,
REPSWITCH1/PICTURE_128.png,muñeca,speak,gold,filler,2,F,2,2,3,1,Stim4_Set1,0,None,29,28,29,0,28,28,28,,,,,,,,,,,,,,,,,,,,,,,147.938256399706,149.0217480994761,149.0217480994761,149.0217480994761,149.0217480994761,149.0217480994761,149.0217480994761,149.0217480994761,149.0217480994761,None,0,,,C:\2023\REPSWITCH21092023\REPSWITCH_excgange\REPSWITCH_excgange\data/470104_REPSWITCH1_version1_list3_2024-01-26_09h17.38.599_micRespv1l3_recorded\recording_micRespv1l3_2024-01-26_09h20.01.624.wav,152.0499117001891,,None,152.0499117001891,152.0499117001891,152.0499117001891,152.0499117001891,152.0499117001891,152.0499117001891,,,,,,470104,001,2024-01-26_09h17.38.599,REPSWITCH1_version1_list3,2022.2.4,143.8110195639389,
REPSWITCH1/PICTURE_264.png,mano,type,darkblue,nontarget,1,NT,2,2,3,1,Stim3_Set2,1,switch,30,29,30,0,29,29,29,,,,,,,,,,,,,,,,,,,,,,,152.5499692996964,153.6334526995197,153.6334526995197,153.6334526995197,153.6334526995197,153.6334526995197,153.6334526995197,153.6334526995197,153.6334526995197,"['m', 'a', 'n', 'o']",0,"[0.908788900822401, 0.9535756008699536, 1.117039700038731, 1.2156675001606345]",mano,C:\2023\REPSWITCH21092023\REPSWITCH_excgange\REPSWITCH_excgange\data/470104_REPSWITCH1_version1_list3_2024-01-26_09h17.38.599_micRespv1l3_recorded\recording_micRespv1l3_2024-01-26_09h20.06.236.wav,156.66160599980503,,None,156.66160599980503,156.66160599980503,156.66160599980503,156.66160599980503,156.66160599980503,156.66160599980503,,,,,,470104,001,2024-01-26_09h17.38.599,REPSWITCH1_version1_list3,2022.2.4,143.8110195639389,
REPSWITCH1/PICTURE_264.png,mano,type,darkblue,repeat,1,T,2,2,3,1,Stim3_Set2,0,None,31,30,31,0,30,30,30,,,,,,,,,,,,,,,,,,,,,,,157.16167629975826,158.293741799891,158.293741799891,158.293741799891,158.293741799891,158.293741799891,158.293741799891,158.293741799891,158.293741799891,"['m', 'a', 'n', 'o']",0,"[0.7674529999494553, 0.8431930001825094, 0.9551486000418663, 1.016937400214374]",mano,C:\2023\REPSWITCH21092023\REPSWITCH_excgange\REPSWITCH_excgange\data/470104_REPSWITCH1_version1_list3_2024-01-26_09h17.38.599_micRespv1l3_recorded\recording_micRespv1l3_2024-01-26_09h20.10.896.wav,161.3220007000491,,None,161.3220007000491,161.3220007000491,161.3220007000491,161.3220007000491,161.3220007000491,161.3220007000491,,,,,,470104,001,2024-01-26_09h17.38.599,REPSWITCH1_version1_list3,2022.2.4,143.8110195639389,
REPSWITCH1/PICTURE_175.png,pintor,type,darkblue,nontarget,1,NT,2,2,3,1,Stim1_Set2,0,None,32,31,32,0,31,31,31,,,,,,,,,,,,,,,,,,,,,,,161.82200090028346,162.92629260011017,162.92629260011017,162.92629260011017,162.92629260011017,162.92629260011017,162.92629260011017,162.92629260011017,162.92629260011017,"['p', 'i', 'n', 't', 'o', 'r']",0,"[1.9167745998129249, 2.1158101996406913, 2.2663214998319745, 2.3839096995070577, 2.46595530025661, 2.5785823995247483]",pintor,C:\2023\REPSWITCH21092023\REPSWITCH_excgange\REPSWITCH_excgange\data/470104_REPSWITCH1_version1_list3_2024-01-26_09h17.38.599_micRespv1l3_recorded\recording_micRespv1l3_2024-01-26_09h20.15.529.wav,165.94750109966844,166.44760269951075,None,165.94750109966844,165.94750109966844,165.94750109966844,165.94750109966844,165.94750109966844,165.94750109966844,,,,,,470104,001,2024-01-26_09h17.38.599,REPSWITCH1_version1_list3,2022.2.4,143.8110195639389,
REPSWITCH1/PICTURE_175.png,pintor,speak,gold,switch,2,T,2,2,3,1,Stim1_Set2,0,None,33,32,33,0,32,32,32,,,,,,,,,,,,,,,,,,,,,,,166.44760269951075,167.51715959981084,167.51715959981084,167.51715959981084,167.51715959981084,167.51715959981084,167.51715959981084,167.51715959981084,167.51715959981084,None,0,,,C:\2023\REPSWITCH21092023\REPSWITCH_excgange\REPSWITCH_excgange\data/470104_REPSWITCH1_version1_list3_2024-01-26_09h17.38.599_micRespv1l3_recorded\recording_micRespv1l3_2024-01-26_09h20.20.120.wav,170.53837080020458,171.0384411998093,None,170.53837080020458,170.53837080020458,170.53837080020458,170.53837080020458,170.53837080020458,170.53837080020458,,,,,,470104,001,2024-01-26_09h17.38.599,REPSWITCH1_version1_list3,2022.2.4,143.8110195639389,
REPSWITCH1/PICTURE_135.png,traje,speak,gold,filler,2,F,2,2,3,1,Stim3_Set1,1,repeat,34,33,34,0,33,33,33,,,,,,,,,,,,,,,,,,,,,,,171.0384411998093,172.1566862994805,172.1566862994805,172.1566862994805,172.1566862994805,172.1566862994805,172.1566862994805,172.1566862994805,172.1566862994805,None,0,,,C:\2023\REPSWITCH21092023\REPSWITCH_excgange\REPSWITCH_excgange\data/470104_REPSWITCH1_version1_list3_2024-01-26_09h17.38.599_micRespv1l3_recorded\recording_micRespv1l3_2024-01-26_09h20.24.759.wav,175.17788380011916,175.67797159962356,None,175.17788380011916,175.17788380011916,175.17788380011916,175.17788380011916,175.17788380011916,175.17788380011916,,,,,,470104,001,2024-01-26_09h17.38.599,REPSWITCH1_version1_list3,2022.2.4,143.8110195639389,
REPSWITCH1/PICTURE_446.png,cerdo,speak,gold,nontarget,2,NT,2,2,3,1,Stim7_Set2,1,repeat,35,34,35,0,34,34,34,,,,,,,,,,,,,,,,,,,,,,,175.67797159962356,176.76141100004315,176.76141100004315,176.76141100004315,176.76141100004315,176.76141100004315,176.76141100004315,176.76141100004315,176.76141100004315,None,0,,,C:\2023\REPSWITCH21092023\REPSWITCH_excgange\REPSWITCH_excgange\data/470104_REPSWITCH1_version1_list3_2024-01-26_09h17.38.599_micRespv1l3_recorded\recording_micRespv1l3_2024-01-26_09h20.29.364.wav,179.78263629972935,180.2827150002122,None,179.78263629972935,179.78263629972935,179.78263629972935,179.78263629972935,179.78263629972935,179.78263629972935,,,,,,470104,001,2024-01-26_09h17.38.599,REPSWITCH1_version1_list3,2022.2.4,143.8110195639389,
REPSWITCH1/PICTURE_446.png,cerdo,type,darkblue,switch,1,T,2,2,3,1,Stim7_Set2,0,None,36,35,36,0,35,35,35,,,,,,,,,,,,,,,,,,,,,,,180.2827150002122,181.3175762994215,181.3175762994215,181.3175762994215,181.3175762994215,181.3175762994215,181.3175762994215,181.3175762994215,181.3175762994215,"['c', 'e', 'r', 'd', 'o']",0,"[0.6246394999325275, 0.7883272999897599, 0.8531144000589848, 1.0906157996505499, 1.1803484996780753]",cerdo,C:\2023\REPSWITCH21092023\REPSWITCH_excgange\REPSWITCH_excgange\data/470104_REPSWITCH1_version1_list3_2024-01-26_09h17.38.599_micRespv1l3_recorded\recording_micRespv1l3_2024-01-26_09h20.33.920.wav,184.33883569948375,184.8388483999297,None,184.33883569948375,184.33883569948375,184.33883569948375,184.33883569948375,184.33883569948375,184.33883569948375,,,,,,470104,001,2024-01-26_09h17.38.599,REPSWITCH1_version1_list3,2022.2.4,143.8110195639389,
REPSWITCH1/PICTURE_152.png,caracol,type,darkblue,nontarget,1,NT,2,2,3,1,Stim2_Set2,1,repeat,37,36,37,0,36,36,36,,,,,,,,,,,,,,,,,,,,,,,184.8388483999297,185.9640175998211,185.9640175998211,185.9640175998211,185.9640175998211,185.9640175998211,185.9640175998211,185.9640175998211,185.9640175998211,"['c', 'a', 'r', 'a', 'c', 'o', 'l']",0,"[0.7298732008785009, 0.832510900683701, 1.0099123008549213, 1.0949558010324836, 1.3058221004903316, 1.4045347003266215, 1.635759200900793]",caracol,C:\2023\REPSWITCH21092023\REPSWITCH_excgange\REPSWITCH_excgange\data/470104_REPSWITCH1_version1_list3_2024-01-26_09h17.38.599_micRespv1l3_recorded\recording_micRespv1l3_2024-01-26_09h20.38.567.wav,188.99220899958163,,None,188.99220899958163,188.99220899958163,188.99220899958163,188.99220899958163,188.99220899958163,188.99220899958163,,,,,,470104,001,2024-01-26_09h17.38.599,REPSWITCH1_version1_list3,2022.2.4,143.8110195639389,
REPSWITCH1/PICTURE_152.png,caracol,speak,gold,switch,2,T,2,2,3,1,Stim2_Set2,0,None,38,37,38,0,37,37,37,,,,,,,,,,,,,,,,,,,,,,,189.4921979000792,190.58267659973353,190.58267659973353,190.58267659973353,190.58267659973353,190.58267659973353,190.58267659973353,190.58267659973353,190.58267659973353,None,0,,,C:\2023\REPSWITCH21092023\REPSWITCH_excgange\REPSWITCH_excgange\data/470104_REPSWITCH1_version1_list3_2024-01-26_09h17.38.599_micRespv1l3_recorded\recording_micRespv1l3_2024-01-26_09h20.43.185.wav,193.610823799856,,None,193.610823799856,193.610823799856,193.610823799856,193.610823799856,193.610823799856,193.610823799856,,,,,,470104,001,2024-01-26_09h17.38.599,REPSWITCH1_version1_list3,2022.2.4,143.8110195639389,
REPSWITCH1/PICTURE_16.png,cazador,type,darkblue,filler,1,F,2,2,3,1,Stim6_Set1,0,None,39,38,39,0,38,38,38,,,,,,,,,,,,,,,,,,,,,,,194.11096480023116,195.21526989992708,195.21526989992708,195.21526989992708,195.21526989992708,195.21526989992708,195.21526989992708,195.21526989992708,195.21526989992708,"['c', 'a', 'z', 'a', 'd', 'o', 'r']",0,"[1.155859200283885, 1.2315907003358006, 1.443139100447297, 1.6194820003584027, 1.7598016001284122, 1.8835317008197308, 1.9951779004186392]",cazador,C:\2023\REPSWITCH21092023\REPSWITCH_excgange\REPSWITCH_excgange\data/470104_REPSWITCH1_version1_list3_2024-01-26_09h17.38.599_micRespv1l3_recorded\recording_micRespv1l3_2024-01-26_09h20.47.817.wav,198.23641449958086,198.73646540008485,None,198.23641449958086,198.23641449958086,198.23641449958086,198.23641449958086,198.23641449958086,198.23641449958086,,,,,,470104,001,2024-01-26_09h17.38.599,REPSWITCH1_version1_list3,2022.2.4,143.8110195639389,
REPSWITCH1/PICTURE_381.png,fresa,speak,gold,filler,2,F,2,2,3,1,Stim2_Set1,0,None,40,39,40,0,39,39,39,,,,,,,,,,,,,,,,,,,,,,,198.73646540008485,199.84773469995707,199.84773469995707,199.84773469995707,199.84773469995707,199.84773469995707,199.84773469995707,199.84773469995707,199.84773469995707,None,0,,,C:\2023\REPSWITCH21092023\REPSWITCH_excgange\REPSWITCH_excgange\data/470104_REPSWITCH1_version1_list3_2024-01-26_09h17.38.599_micRespv1l3_recorded\recording_micRespv1l3_2024-01-26_09h20.52.451.wav,202.86897869966924,203.3690436994657,None,202.86897869966924,202.86897869966924,202.86897869966924,202.86897869966924,202.86897869966924,202.86897869966924,,,,,,470104,001,2024-01-26_09h17.38.599,REPSWITCH1_version1_list3,2022.2.4,143.8110195639389,
REPSWITCH1/PICTURE_19.png,pavo,type,darkblue,filler,1,F,2,2,3,1,Stim5_Set1,0,None,41,40,41,0,40,40,40,,,,,,,,,,,,,,,,,,,,,,,203.3690436994657,204.62613820005208,204.62613820005208,204.62613820005208,204.62613820005208,204.62613820005208,204.62613820005208,204.62613820005208,204.62613820005208,"['p', 'a', 'v', 'o']",0,"[0.8349676001816988, 0.8977517997846007, 1.1578882997855544, 1.25853839982301]",pavo,C:\2023\REPSWITCH21092023\REPSWITCH_excgange\REPSWITCH_excgange\data/470104_REPSWITCH1_version1_list3_2024-01-26_09h17.38.599_micRespv1l3_recorded\recording_micRespv1l3_2024-01-26_09h20.57.230.wav,207.65428750030696,,None,207.65428750030696,207.65428750030696,207.65428750030696,207.65428750030696,207.65428750030696,207.65428750030696,,,,,,470104,001,2024-01-26_09h17.38.599,REPSWITCH1_version1_list3,2022.2.4,143.8110195639389,
REPSWITCH1/PICTURE_517.png,cuerda,speak,gold,nontarget,2,NT,2,2,3,1,Stim4_Set2,1,switch,42,41,42,0,41,41,41,,,,,,,,,,,,,,,,,,,,,,,208.15434969961643,209.26565110031515,209.26565110031515,209.26565110031515,209.26565110031515,209.26565110031515,209.26565110031515,209.26565110031515,209.26565110031515,None,0,,,C:\2023\REPSWITCH21092023\REPSWITCH_excgange\REPSWITCH_excgange\data/470104_REPSWITCH1_version1_list3_2024-01-26_09h17.38.599_micRespv1l3_recorded\recording_micRespv1l3_2024-01-26_09h21.01.868.wav,212.29379620030522,,None,212.29379620030522,212.29379620030522,212.29379620030522,212.29379620030522,212.29379620030522,212.29379620030522,,,,,,470104,001,2024-01-26_09h17.38.599,REPSWITCH1_version1_list3,2022.2.4,143.8110195639389,
REPSWITCH1/PICTURE_517.png,cuerda,speak,gold,repeat,2,T,2,2,3,1,Stim4_Set2,0,None,43,42,43,0,42,42,42,,,,,,,,,,,,,,,,,,,,,,,212.79386149998754,213.84955789986998,213.84955789986998,213.84955789986998,213.84955789986998,213.84955789986998,213.84955789986998,213.84955789986998,213.84955789986998,None,0,,,C:\2023\REPSWITCH21092023\REPSWITCH_excgange\REPSWITCH_excgange\data/470104_REPSWITCH1_version1_list3_2024-01-26_09h17.38.599_micRespv1l3_recorded\recording_micRespv1l3_2024-01-26_09h21.06.452.wav,216.88467709999532,,None,216.88467709999532,216.88467709999532,216.88467709999532,216.88467709999532,216.88467709999532,216.88467709999532,,,,,,470104,001,2024-01-26_09h17.38.599,REPSWITCH1_version1_list3,2022.2.4,143.8110195639389,
REPSWITCH1/PICTURE_178.png,puente,type,darkblue,filler,1,F,2,2,3,1,Stim1_Set1,0,None,44,43,44,0,43,43,43,,,,,,,,,,,,,,,,,,,,,,,217.3847978003323,218.41264459956437,218.41264459956437,218.41264459956437,218.41264459956437,218.41264459956437,218.41264459956437,218.41264459956437,218.41264459956437,"['p', 'u', 'e', 'n', 't', 'e']",0,"[0.8329685004428029, 1.0471785003319383, 1.120873000472784, 1.2833163002505898, 1.3904705997556448, 1.4123959001153708]",puente,C:\2023\REPSWITCH21092023\REPSWITCH_excgange\REPSWITCH_excgange\data/470104_REPSWITCH1_version1_list3_2024-01-26_09h17.38.599_micRespv1l3_recorded\recording_micRespv1l3_2024-01-26_09h21.11.015.wav,221.4338394002989,221.93394409958273,None,221.4338394002989,221.4338394002989,221.4338394002989,221.4338394002989,221.4338394002989,221.4338394002989,,,,,,470104,001,2024-01-26_09h17.38.599,REPSWITCH1_version1_list3,2022.2.4,143.8110195639389,
REPSWITCH1/PICTURE_199.png,falda,speak,gold,nontarget,2,NT,2,2,3,1,Stim8_Set2,1,switch,45,44,45,0,44,44,44,,,,,,,,,,,,,,,,,,,,,,,221.93394409958273,223.0591441001743,223.0591441001743,223.0591441001743,223.0591441001743,223.0591441001743,223.0591441001743,223.0591441001743,223.0591441001743,None,0,,,C:\2023\REPSWITCH21092023\REPSWITCH_excgange\REPSWITCH_excgange\data/470104_REPSWITCH1_version1_list3_2024-01-26_09h17.38.599_micRespv1l3_recorded\recording_micRespv1l3_2024-01-26_09h21.15.662.wav,226.087216200307,,None,226.087216200307,226.087216200307,226.087216200307,226.087216200307,226.087216200307,226.087216200307,,,,,,470104,001,2024-01-26_09h17.38.599,REPSWITCH1_version1_list3,2022.2.4,143.8110195639389,
REPSWITCH1/PICTURE_199.png,falda,speak,gold,repeat,2,T,2,2,3,1,Stim8_Set2,0,None,46,45,46,0,45,45,45,,,,,,,,,,,,,,,,,,,,,,,226.5872847000137,227.71938129980117,227.71938129980117,227.71938129980117,227.71938129980117,227.71938129980117,227.71938129980117,227.71938129980117,227.71938129980117,None,0,,,C:\2023\REPSWITCH21092023\REPSWITCH_excgange\REPSWITCH_excgange\data/470104_REPSWITCH1_version1_list3_2024-01-26_09h17.38.599_micRespv1l3_recorded\recording_micRespv1l3_2024-01-26_09h21.20.322.wav,230.74763789959252,,None,230.74763789959252,230.74763789959252,230.74763789959252,230.74763789959252,230.74763789959252,230.74763789959252,,,,,,470104,001,2024-01-26_09h17.38.599,REPSWITCH1_version1_list3,2022.2.4,143.8110195639389,
REPSWITCH1/PICTURE_169.png,espalda,type,darkblue,filler,1,F,2,2,3,1,Stim8_Set1,0,None,47,46,47,0,46,46,46,,,,,,,,,,,,,,,,,,,,,,,231.24763160012662,232.2547118999064,232.2547118999064,232.2547118999064,232.2547118999064,232.2547118999064,232.2547118999064,232.2547118999064,232.2547118999064,"['e', 's', 'p', 'o', 'a', 'l', 'd', 'a', 'backspace', 'backspace']",0,"[0.8808102002367377, 1.066258200444281, 1.234650700353086, 1.2356509007513523, 1.3253456009551883, 1.7459835009649396, 2.048298300243914, 2.148950100876391, 2.718037800863385, 2.8846496008336544]",esoal,C:\2023\REPSWITCH21092023\REPSWITCH_excgange\REPSWITCH_excgange\data/470104_REPSWITCH1_version1_list3_2024-01-26_09h17.38.599_micRespv1l3_recorded\recording_micRespv1l3_2024-01-26_09h21.24.857.wav,235.2759301001206,235.77599480003119,None,235.2759301001206,235.2759301001206,235.2759301001206,235.2759301001206,235.2759301001206,235.2759301001206,,,,,,470104,001,2024-01-26_09h17.38.599,REPSWITCH1_version1_list3,2022.2.4,143.8110195639389,
REPSWITCH1/PICTURE_142.png,vaso,speak,gold,filler,2,F,2,2,3,1,Stim7_Set1,0,None,48,47,48,0,47,47,47,,,,,,,,,,,,,,,,,,,,,,,235.77599480003119,236.99843699950725,236.99843699950725,236.99843699950725,236.99843699950725,236.99843699950725,236.99843699950725,236.99843699950725,236.99843699950725,None,0,,,C:\2023\REPSWITCH21092023\REPSWITCH_excgange\REPSWITCH_excgange\data/470104_REPSWITCH1_version1_list3_2024-01-26_09h17.38.599_micRespv1l3_recorded\recording_micRespv1l3_2024-01-26_09h21.29.601.wav,240.0265406994149,,None,240.0265406994149,240.0265406994149,240.0265406994149,240.0265406994149,240.0265406994149,240.0265406994149,,,,,,470104,001,2024-01-26_09h17.38.599,REPSWITCH1_version1_list3,2022.2.4,143.8110195639389,
REPSWITCH1/PICTURE_552.png,manzana,speak,gold,nontarget,2,NT,2,2,3,1,Stim6_Set2,0,None,49,48,49,0,48,48,48,,,,,,,,,,,,,,,,,,,,,,,240.52657169941813,241.58228109963238,241.58228109963238,241.58228109963238,241.58228109963238,241.58228109963238,241.58228109963238,241.58228109963238,241.58228109963238,None,0,,,C:\2023\REPSWITCH21092023\REPSWITCH_excgange\REPSWITCH_excgange\data/470104_REPSWITCH1_version1_list3_2024-01-26_09h17.38.599_micRespv1l3_recorded\recording_micRespv1l3_2024-01-26_09h21.34.186.wav,244.610512400046,,None,244.610512400046,244.610512400046,244.610512400046,244.610512400046,244.610512400046,244.610512400046,,,,,,470104,001,2024-01-26_09h17.38.599,REPSWITCH1_version1_list3,2022.2.4,143.8110195639389,
REPSWITCH1/PICTURE_552.png,manzana,type,darkblue,switch,1,T,2,2,3,1,Stim6_Set2,0,None,50,49,50,0,49,49,49,,,,,,,,,,,,,,,,,,,,,,,245.1105190999806,246.28434790018946,246.28434790018946,246.28434790018946,246.28434790018946,246.28434790018946,246.28434790018946,246.28434790018946,246.28434790018946,"['m', 'a', 'n', 'z', 'a', 'n', 'a']",0,"[1.0329983001574874, 1.1277657002210617, 1.3355310000479221, 1.5358942998573184, 1.9159796005114913, 2.086487799882889, 2.1622304003685713]",manzana,C:\2023\REPSWITCH21092023\REPSWITCH_excgange\REPSWITCH_excgange\data/470104_REPSWITCH1_version1_list3_2024-01-26_09h17.38.599_micRespv1l3_recorded\recording_micRespv1l3_2024-01-26_09h21.38.888.wav,249.31251659989357,,None,249.31251659989357,249.31251659989357,249.31251659989357,249.31251659989357,249.31251659989357,249.31251659989357,,,,,,470104,001,2024-01-26_09h17.38.599,REPSWITCH1_version1_list3,2022.2.4,143.8110195639389,
REPSWITCH1/PICTURE_590.png,escoba,speak,gold,filler,2,F,1,2,3,1,Extra3,0,None,51,50,51,0,50,50,50,,,,,,,,,,,,,,,,,,,,,,,249.81251579988748,250.87513520009816,250.87513520009816,250.87513520009816,250.87513520009816,250.87513520009816,250.87513520009816,250.87513520009816,250.87513520009816,None,0,,,C:\2023\REPSWITCH21092023\REPSWITCH_excgange\REPSWITCH_excgange\data/470104_REPSWITCH1_version1_list3_2024-01-26_09h17.38.599_micRespv1l3_recorded\recording_micRespv1l3_2024-01-26_09h21.43.478.wav,253.90332760009915,254.40336349979043,space,253.90332760009915,253.90332760009915,253.90332760009915,253.90332760009915,253.90332760009915,253.90332760009915,254.40336349979043,254.40336349979043,1.8047329997643828,,,470104,001,2024-01-26_09h17.38.599,REPSWITCH1_version1_list3,2022.2.4,143.8110195639389,
REPSWITCH1/PICTURE_552.png,manzana,type,darkblue,filler,1,F,3,2,3,1,Stim6_Set2,0,None,52,51,52,0,51,51,51,,,,,,,,,,,,,,,,,,,,,,,256.21612100023776,257.32050239946693,257.32050239946693,257.32050239946693,257.32050239946693,257.32050239946693,257.32050239946693,257.32050239946693,257.32050239946693,"['m', 'a', 'n', 'z', 'a', 'n', 'a']",0,"[0.8049113005399704, 0.8887403998523951, 1.0107484003528953, 1.1086814999580383, 1.3131917007267475, 1.4122187998145819, 1.499936000443995]",manzana,C:\2023\REPSWITCH21092023\REPSWITCH_excgange\REPSWITCH_excgange\data/470104_REPSWITCH1_version1_list3_2024-01-26_09h17.38.599_micRespv1l3_recorded\recording_micRespv1l3_2024-01-26_09h21.49.923.wav,260.3416472002864,260.8417702000588,None,260.3416472002864,260.3416472002864,260.3416472002864,260.3416472002864,260.3416472002864,260.3416472002864,,,,,,470104,001,2024-01-26_09h17.38.599,REPSWITCH1_version1_list3,2022.2.4,143.8110195639389,
REPSWITCH1/PICTURE_464.png,goma,type,darkblue,nontarget,1,NT,3,2,3,1,Stim6_Set3,1,repeat,53,52,53,0,52,52,52,,,,,,,,,,,,,,,,,,,,,,,260.8417702000588,261.9946750998497,261.9946750998497,261.9946750998497,261.9946750998497,261.9946750998497,261.9946750998497,261.9946750998497,261.9946750998497,"['b', 'o', 'r', 'r', 'a']",0,"[0.8965815007686615, 1.0170874008908868, 1.119734700769186, 1.2885090000927448, 1.3937193006277084]",borra,C:\2023\REPSWITCH21092023\REPSWITCH_excgange\REPSWITCH_excgange\data/470104_REPSWITCH1_version1_list3_2024-01-26_09h17.38.599_micRespv1l3_recorded\recording_micRespv1l3_2024-01-26_09h21.54.598.wav,265.02282479964197,,None,265.02282479964197,265.02282479964197,265.02282479964197,265.02282479964197,265.02282479964197,265.02282479964197,,,,,,470104,001,2024-01-26_09h17.38.599,REPSWITCH1_version1_list3,2022.2.4,143.8110195639389,
REPSWITCH1/PICTURE_464.png,goma,speak,gold,switch,2,T,3,2,3,1,Stim6_Set3,0,None,54,53,54,0,53,53,53,,,,,,,,,,,,,,,,,,,,,,,265.5228901999071,266.6480168001726,266.6480168001726,266.6480168001726,266.6480168001726,266.6480168001726,266.6480168001726,266.6480168001726,266.6480168001726,None,0,,,C:\2023\REPSWITCH21092023\REPSWITCH_excgange\REPSWITCH_excgange\data/470104_REPSWITCH1_version1_list3_2024-01-26_09h17.38.599_micRespv1l3_recorded\recording_micRespv1l3_2024-01-26_09h21.59.251.wav,269.6762004001066,,None,269.6762004001066,269.6762004001066,269.6762004001066,269.6762004001066,269.6762004001066,269.6762004001066,,,,,,470104,001,2024-01-26_09h17.38.599,REPSWITCH1_version1_list3,2022.2.4,143.8110195639389,
REPSWITCH1/PICTURE_30.png,granja,speak,gold,filler,2,F,3,2,3,1,Stim5_Set2,0,None,55,54,55,0,54,54,54,,,,,,,,,,,,,,,,,,,,,,,270.1763137001544,271.26669249963015,271.26669249963015,271.26669249963015,271.26669249963015,271.26669249963015,271.26669249963015,271.26669249963015,271.26669249963015,None,0,,,C:\2023\REPSWITCH21092023\REPSWITCH_excgange\REPSWITCH_excgange\data/470104_REPSWITCH1_version1_list3_2024-01-26_09h17.38.599_micRespv1l3_recorded\recording_micRespv1l3_2024-01-26_09h22.03.870.wav,274.29486520029604,,None,274.29486520029604,274.29486520029604,274.29486520029604,274.29486520029604,274.29486520029604,274.29486520029604,,,,,,470104,001,2024-01-26_09h17.38.599,REPSWITCH1_version1_list3,2022.2.4,143.8110195639389,
REPSWITCH1/PICTURE_235.png,aguja,speak,gold,nontarget,2,NT,3,2,3,1,Stim4_Set3,1,repeat,56,55,56,0,55,55,55,,,,,,,,,,,,,,,,,,,,,,,274.7949265995994,275.8367424001917,275.8367424001917,275.8367424001917,275.8367424001917,275.8367424001917,275.8367424001917,275.8367424001917,275.8367424001917,None,0,,,C:\2023\REPSWITCH21092023\REPSWITCH_excgange\REPSWITCH_excgange\data/470104_REPSWITCH1_version1_list3_2024-01-26_09h17.38.599_micRespv1l3_recorded\recording_micRespv1l3_2024-01-26_09h22.08.439.wav,278.8579374998808,279.35808479972184,None,278.8579374998808,278.8579374998808,278.8579374998808,278.8579374998808,278.8579374998808,278.8579374998808,,,,,,470104,001,2024-01-26_09h17.38.599,REPSWITCH1_version1_list3,2022.2.4,143.8110195639389,
REPSWITCH1/PICTURE_235.png,aguja,type,darkblue,switch,1,T,3,2,3,1,Stim4_Set3,0,None,57,56,57,0,56,56,56,,,,,,,,,,,,,,,,,,,,,,,279.35808479972184,280.5109444996342,280.5109444996342,280.5109444996342,280.5109444996342,280.5109444996342,280.5109444996342,280.5109444996342,280.5109444996342,"['a', 'g', 'u', 'j', 'a']",0,"[0.8101004995405674, 0.9805338997393847, 1.0820057997480035, 1.2546073999255896, 1.3313050996512175]",aguja,C:\2023\REPSWITCH21092023\REPSWITCH_excgange\REPSWITCH_excgange\data/470104_REPSWITCH1_version1_list3_2024-01-26_09h17.38.599_micRespv1l3_recorded\recording_micRespv1l3_2024-01-26_09h22.13.113.wav,283.5321655999869,284.03219539951533,None,283.5321655999869,283.5321655999869,283.5321655999869,283.5321655999869,283.5321655999869,283.5321655999869,,,,,,470104,001,2024-01-26_09h17.38.599,REPSWITCH1_version1_list3,2022.2.4,143.8110195639389,
REPSWITCH1/PICTURE_391.png,cadena,type,darkblue,filler,1,F,3,2,3,1,Extra2,0,None,58,57,58,0,57,57,57,,,,,,,,,,,,,,,,,,,,,,,284.03219539951533,285.08798060007393,285.08798060007393,285.08798060007393,285.08798060007393,285.08798060007393,285.08798060007393,285.08798060007393,285.08798060007393,"['c', 'a', 'd', 'e', 'n', 'a']",0,"[0.9533775001764297, 1.0420336006209254, 1.2327346000820398, 1.3343897005543113, 1.5036400007084012, 1.5584475006908178]",cadena,C:\2023\REPSWITCH21092023\REPSWITCH_excgange\REPSWITCH_excgange\data/470104_REPSWITCH1_version1_list3_2024-01-26_09h17.38.599_micRespv1l3_recorded\recording_micRespv1l3_2024-01-26_09h22.17.691.wav,288.1160784997046,,None,288.1160784997046,288.1160784997046,288.1160784997046,288.1160784997046,288.1160784997046,288.1160784997046,,,,,,470104,001,2024-01-26_09h17.38.599,REPSWITCH1_version1_list3,2022.2.4,143.8110195639389,
REPSWITCH1/PICTURE_320.png,iglesia,type,darkblue,nontarget,1,NT,3,2,3,1,Stim8_Set3,0,None,59,58,59,0,58,58,58,,,,,,,,,,,,,,,,,,,,,,,288.616153200157,289.66489840019494,289.66489840019494,289.66489840019494,289.66489840019494,289.66489840019494,289.66489840019494,289.66489840019494,289.66489840019494,"['i', 'g', 'l', 'e', 's', 'i', 'a']",0,"[0.868554700165987, 1.0559152998030186, 1.1397206000983715, 1.2474814001470804, 1.4118649000301957, 1.5015690997242928, 1.5743263000622392]",iglesia,C:\2023\REPSWITCH21092023\REPSWITCH_excgange\REPSWITCH_excgange\data/470104_REPSWITCH1_version1_list3_2024-01-26_09h17.38.599_micRespv1l3_recorded\recording_micRespv1l3_2024-01-26_09h22.22.268.wav,292.6930698994547,,None,292.6930698994547,292.6930698994547,292.6930698994547,292.6930698994547,292.6930698994547,292.6930698994547,,,,,,470104,001,2024-01-26_09h17.38.599,REPSWITCH1_version1_list3,2022.2.4,143.8110195639389,
REPSWITCH1/PICTURE_320.png,iglesia,speak,gold,switch,2,T,3,2,3,1,Stim8_Set3,0,None,60,59,60,0,59,59,59,,,,,,,,,,,,,,,,,,,,,,,293.19312980026007,294.3183327000588,294.3183327000588,294.3183327000588,294.3183327000588,294.3183327000588,294.3183327000588,294.3183327000588,294.3183327000588,None,0,,,C:\2023\REPSWITCH21092023\REPSWITCH_excgange\REPSWITCH_excgange\data/470104_REPSWITCH1_version1_list3_2024-01-26_09h17.38.599_micRespv1l3_recorded\recording_micRespv1l3_2024-01-26_09h22.26.922.wav,297.3464206997305,,None,297.3464206997305,297.3464206997305,297.3464206997305,297.3464206997305,297.3464206997305,297.3464206997305,,,,,,470104,001,2024-01-26_09h17.38.599,REPSWITCH1_version1_list3,2022.2.4,143.8110195639389,
REPSWITCH1/PICTURE_175.png,pintor,type,darkblue,filler,1,F,3,2,3,1,Stim1_Set2,0,None,61,60,61,0,60,60,60,,,,,,,,,,,,,,,,,,,,,,,297.8465125001967,298.8952935002744,298.8952935002744,298.8952935002744,298.8952935002744,298.8952935002744,298.8952935002744,298.8952935002744,298.8952935002744,"['p', 'i', 'n', 't', 'o', 'r']",0,"[0.8418786004185677, 1.0681119002401829, 1.1959912003949285, 1.2782500004395843, 1.3859216002747416, 1.4955577999353409]",pintor,C:\2023\REPSWITCH21092023\REPSWITCH_excgange\REPSWITCH_excgange\data/470104_REPSWITCH1_version1_list3_2024-01-26_09h17.38.599_micRespv1l3_recorded\recording_micRespv1l3_2024-01-26_09h22.31.498.wav,301.91649649944156,302.4166176998988,None,301.91649649944156,301.91649649944156,301.91649649944156,301.91649649944156,301.91649649944156,301.91649649944156,,,,,,470104,001,2024-01-26_09h17.38.599,REPSWITCH1_version1_list3,2022.2.4,143.8110195639389,
REPSWITCH1/PICTURE_271.png,conejo,speak,gold,nontarget,2,NT,3,2,3,1,Stim7_Set3,1,switch,62,61,62,0,61,61,61,,,,,,,,,,,,,,,,,,,,,,,302.4166176998988,303.51392029970884,303.51392029970884,303.51392029970884,303.51392029970884,303.51392029970884,303.51392029970884,303.51392029970884,303.51392029970884,None,0,,,C:\2023\REPSWITCH21092023\REPSWITCH_excgange\REPSWITCH_excgange\data/470104_REPSWITCH1_version1_list3_2024-01-26_09h17.38.599_micRespv1l3_recorded\recording_micRespv1l3_2024-01-26_09h22.36.118.wav,306.54215579945594,,None,306.54215579945594,306.54215579945594,306.54215579945594,306.54215579945594,306.54215579945594,306.54215579945594,,,,,,470104,001,2024-01-26_09h17.38.599,REPSWITCH1_version1_list3,2022.2.4,143.8110195639389,
REPSWITCH1/PICTURE_271.png,conejo,speak,gold,repeat,2,T,3,2,3,1,Stim7_Set3,0,None,63,62,63,0,62,62,62,,,,,,,,,,,,,,,,,,,,,,,307.0422077002004,308.06317500025034,308.06317500025034,308.06317500025034,308.06317500025034,308.06317500025034,308.06317500025034,308.06317500025034,308.06317500025034,None,0,,,C:\2023\REPSWITCH21092023\REPSWITCH_excgange\REPSWITCH_excgange\data/470104_REPSWITCH1_version1_list3_2024-01-26_09h17.38.599_micRespv1l3_recorded\recording_micRespv1l3_2024-01-26_09h22.40.666.wav,311.0843324000016,311.58436939958483,None,311.0843324000016,311.0843324000016,311.0843324000016,311.0843324000016,311.0843324000016,311.0843324000016,,,,,,470104,001,2024-01-26_09h17.38.599,REPSWITCH1_version1_list3,2022.2.4,143.8110195639389,
REPSWITCH1/PICTURE_446.png,cerdo,speak,gold,filler,2,F,3,2,3,1,Stim7_Set2,0,None,64,63,64,0,63,63,63,,,,,,,,,,,,,,,,,,,,,,,311.58436939958483,312.70952699985355,312.70952699985355,312.70952699985355,312.70952699985355,312.70952699985355,312.70952699985355,312.70952699985355,312.70952699985355,None,0,,,C:\2023\REPSWITCH21092023\REPSWITCH_excgange\REPSWITCH_excgange\data/470104_REPSWITCH1_version1_list3_2024-01-26_09h17.38.599_micRespv1l3_recorded\recording_micRespv1l3_2024-01-26_09h22.45.312.wav,315.7307682996616,316.23083139956,None,315.7307682996616,315.7307682996616,315.7307682996616,315.7307682996616,315.7307682996616,315.7307682996616,,,,,,470104,001,2024-01-26_09h17.38.599,REPSWITCH1_version1_list3,2022.2.4,143.8110195639389,
REPSWITCH1/PICTURE_152.png,caracol,type,darkblue,filler,1,F,3,2,3,1,Stim2_Set2,0,None,65,64,65,0,64,64,64,,,,,,,,,,,,,,,,,,,,,,,316.23083139956,317.3629113994539,317.3629113994539,317.3629113994539,317.3629113994539,317.3629113994539,317.3629113994539,317.3629113994539,317.3629113994539,"['c', 'a', 'r', 'a', 'c', 'o', 'l']",0,"[0.669153599999845, 0.751817399635911, 0.9280669996514916, 1.0347811002284288, 1.1781652001664042, 1.32265970017761, 1.5469171004369855]",caracol,C:\2023\REPSWITCH21092023\REPSWITCH_excgange\REPSWITCH_excgange\data/470104_REPSWITCH1_version1_list3_2024-01-26_09h17.38.599_micRespv1l3_recorded\recording_micRespv1l3_2024-01-26_09h22.49.966.wav,320.39108700025827,,None,320.39108700025827,320.39108700025827,320.39108700025827,320.39108700025827,320.39108700025827,320.39108700025827,,,,,,470104,001,2024-01-26_09h17.38.599,REPSWITCH1_version1_list3,2022.2.4,143.8110195639389,
REPSWITCH1/PICTURE_576.png,guante,speak,gold,nontarget,2,NT,3,2,3,1,Stim1_Set3,1,switch,66,65,66,0,65,65,65,,,,,,,,,,,,,,,,,,,,,,,320.8911435995251,322.0302454996854,322.0302454996854,322.0302454996854,322.0302454996854,322.0302454996854,322.0302454996854,322.0302454996854,322.0302454996854,None,0,,,C:\2023\REPSWITCH21092023\REPSWITCH_excgange\REPSWITCH_excgange\data/470104_REPSWITCH1_version1_list3_2024-01-26_09h17.38.599_micRespv1l3_recorded\recording_micRespv1l3_2024-01-26_09h22.54.633.wav,325.05141120031476,325.5514612002298,None,325.05141120031476,325.05141120031476,325.05141120031476,325.05141120031476,325.05141120031476,325.05141120031476,,,,,,470104,001,2024-01-26_09h17.38.599,REPSWITCH1_version1_list3,2022.2.4,143.8110195639389,
REPSWITCH1/PICTURE_576.png,guante,speak,gold,repeat,2,T,3,2,3,1,Stim1_Set3,0,None,67,66,67,0,66,66,66,,,,,,,,,,,,,,,,,,,,,,,325.5514612002298,326.6905041998252,326.6905041998252,326.6905041998252,326.6905041998252,326.6905041998252,326.6905041998252,326.6905041998252,326.6905041998252,None,0,,,C:\2023\REPSWITCH21092023\REPSWITCH_excgange\REPSWITCH_excgange\data/470104_REPSWITCH1_version1_list3_2024-01-26_09h17.38.599_micRespv1l3_recorded\recording_micRespv1l3_2024-01-26_09h22.59.293.wav,329.71174009982497,330.2118004001677,None,329.71174009982497,329.71174009982497,329.71174009982497,329.71174009982497,329.71174009982497,329.71174009982497,,,,,,470104,001,2024-01-26_09h17.38.599,REPSWITCH1_version1_list3,2022.2.4,143.8110195639389,
REPSWITCH1/PICTURE_242.png,cartero,speak,gold,nontarget,2,NT,3,2,3,1,Stim3_Set3,0,None,68,67,68,0,67,67,67,,,,,,,,,,,,,,,,,,,,,,,330.2118004001677,331.38561780005693,331.38561780005693,331.38561780005693,331.38561780005693,331.38561780005693,331.38561780005693,331.38561780005693,331.38561780005693,None,0,,,C:\2023\REPSWITCH21092023\REPSWITCH_excgange\REPSWITCH_excgange\data/470104_REPSWITCH1_version1_list3_2024-01-26_09h17.38.599_micRespv1l3_recorded\recording_micRespv1l3_2024-01-26_09h23.03.988.wav,334.4068082002923,334.9068575995043,None,334.4068082002923,334.4068082002923,334.4068082002923,334.4068082002923,334.4068082002923,334.4068082002923,,,,,,470104,001,2024-01-26_09h17.38.599,REPSWITCH1_version1_list3,2022.2.4,143.8110195639389,
REPSWITCH1/PICTURE_242.png,cartero,type,darkblue,switch,1,T,3,2,3,1,Stim3_Set3,0,None,69,68,69,0,68,68,68,,,,,,,,,,,,,,,,,,,,,,,334.9068575995043,336.0458754003048,336.0458754003048,336.0458754003048,336.0458754003048,336.0458754003048,336.0458754003048,336.0458754003048,336.0458754003048,"['c', 'a', 'r', 't', 'e', 'r', 'o']",0,"[0.9738325010985136, 1.1083739008754492, 1.3043483002111316, 1.5076660010963678, 1.6630824003368616, 2.023881101049483, 2.1658198004588485]",cartero,C:\2023\REPSWITCH21092023\REPSWITCH_excgange\REPSWITCH_excgange\data/470104_REPSWITCH1_version1_list3_2024-01-26_09h17.38.599_micRespv1l3_recorded\recording_micRespv1l3_2024-01-26_09h23.08.648.wav,339.06711979955435,339.5671562999487,None,339.06711979955435,339.06711979955435,339.06711979955435,339.06711979955435,339.06711979955435,339.06711979955435,,,,,,470104,001,2024-01-26_09h17.38.599,REPSWITCH1_version1_list3,2022.2.4,143.8110195639389,
REPSWITCH1/PICTURE_517.png,cuerda,speak,gold,filler,2,F,3,2,3,1,Stim4_Set2,0,None,70,69,70,0,69,69,69,,,,,,,,,,,,,,,,,,,,,,,339.5671562999487,340.63674269989133,340.63674269989133,340.63674269989133,340.63674269989133,340.63674269989133,340.63674269989133,340.63674269989133,340.63674269989133,None,0,,,C:\2023\REPSWITCH21092023\REPSWITCH_excgange\REPSWITCH_excgange\data/470104_REPSWITCH1_version1_list3_2024-01-26_09h17.38.599_micRespv1l3_recorded\recording_micRespv1l3_2024-01-26_09h23.13.239.wav,343.6579494997859,344.15804869960994,None,343.6579494997859,343.6579494997859,343.6579494997859,343.6579494997859,343.6579494997859,343.6579494997859,,,,,,470104,001,2024-01-26_09h17.38.599,REPSWITCH1_version1_list3,2022.2.4,143.8110195639389,
REPSWITCH1/PICTURE_646.png,tronco,type,darkblue,filler,1,F,3,2,3,1,Extra4,0,None,71,70,71,0,70,70,70,,,,,,,,,,,,,,,,,,,,,,,344.15804869960994,345.26936640031636,345.26936640031636,345.26936640031636,345.26936640031636,345.26936640031636,345.26936640031636,345.26936640031636,345.26936640031636,"['t', 'r', 'o', 'n', 'c', 'o']",0,"[1.2664548996835947, 1.4148648995906115, 1.5172192994505167, 1.683593399822712, 1.8159419996663928, 1.9843547996133566]",tronco,C:\2023\REPSWITCH21092023\REPSWITCH_excgange\REPSWITCH_excgange\data/470104_REPSWITCH1_version1_list3_2024-01-26_09h17.38.599_micRespv1l3_recorded\recording_micRespv1l3_2024-01-26_09h23.17.872.wav,348.29753539990634,,None,348.29753539990634,348.29753539990634,348.29753539990634,348.29753539990634,348.29753539990634,348.29753539990634,,,,,,470104,001,2024-01-26_09h17.38.599,REPSWITCH1_version1_list3,2022.2.4,143.8110195639389,
REPSWITCH1/PICTURE_35.png,oreja,type,darkblue,nontarget,1,NT,3,2,3,1,Stim5_Set3,1,repeat,72,71,72,0,71,71,71,,,,,,,,,,,,,,,,,,,,,,,348.7975231995806,349.9087701998651,349.9087701998651,349.9087701998651,349.9087701998651,349.9087701998651,349.9087701998651,349.9087701998651,349.9087701998651,"['p', 'r', 'p', 'e', 'backspace', 'backspace', 'backspace', 'backspace', 'o', 'r', 'e', 'e', 'j', 'a']",0,"[0.8685908997431397, 0.9099206002429128, 0.957778699696064, 1.3727329997345805, 1.7697545997798443, 1.9064221000298858, 2.07017180044204, 2.211736500263214, 2.4928534999489784, 2.5725312996655703, 2.65125900041312, 2.6741858003661036, 2.865512900054455, 2.9204398998990655]",oreeja,C:\2023\REPSWITCH21092023\REPSWITCH_excgange\REPSWITCH_excgange\data/470104_REPSWITCH1_version1_list3_2024-01-26_09h17.38.599_micRespv1l3_recorded\recording_micRespv1l3_2024-01-26_09h23.22.511.wav,352.9370248997584,,None,352.9370248997584,352.9370248997584,352.9370248997584,352.9370248997584,352.9370248997584,352.9370248997584,,,,,,470104,001,2024-01-26_09h17.38.599,REPSWITCH1_version1_list3,2022.2.4,143.8110195639389,
REPSWITCH1/PICTURE_35.png,oreja,type,darkblue,repeat,1,T,3,2,3,1,Stim5_Set3,0,None,73,72,73,0,72,72,72,,,,,,,,,,,,,,,,,,,,,,,353.43700630031526,354.4996903995052,354.4996903995052,354.4996903995052,354.4996903995052,354.4996903995052,354.4996903995052,354.4996903995052,354.4996903995052,"['o', 'r', 'e', 'j', 'a']",0,"[0.8263529995456338, 0.956908400170505, 0.9957758001983166, 1.1043998003005981, 1.194118999876082]",oreja,C:\2023\REPSWITCH21092023\REPSWITCH_excgange\REPSWITCH_excgange\data/470104_REPSWITCH1_version1_list3_2024-01-26_09h17.38.599_micRespv1l3_recorded\recording_micRespv1l3_2024-01-26_09h23.27.102.wav,357.5278327995911,,None,357.5278327995911,357.5278327995911,357.5278327995911,357.5278327995911,357.5278327995911,357.5278327995911,,,,,,470104,001,2024-01-26_09h17.38.599,REPSWITCH1_version1_list3,2022.2.4,143.8110195639389,
REPSWITCH1/PICTURE_199.png,falda,speak,gold,filler,2,F,3,2,3,1,Stim8_Set2,0,None,74,73,74,0,73,73,73,,,,,,,,,,,,,,,,,,,,,,,358.02791440021247,359.15304849948734,359.15304849948734,359.15304849948734,359.15304849948734,359.15304849948734,359.15304849948734,359.15304849948734,359.15304849948734,None,0,,,C:\2023\REPSWITCH21092023\REPSWITCH_excgange\REPSWITCH_excgange\data/470104_REPSWITCH1_version1_list3_2024-01-26_09h17.38.599_micRespv1l3_recorded\recording_micRespv1l3_2024-01-26_09h23.31.756.wav,362.17422529961914,362.67429970018566,None,362.17422529961914,362.17422529961914,362.17422529961914,362.17422529961914,362.17422529961914,362.17422529961914,,,,,,470104,001,2024-01-26_09h17.38.599,REPSWITCH1_version1_list3,2022.2.4,143.8110195639389,
REPSWITCH1/PICTURE_610.png,miel,type,darkblue,nontarget,1,NT,3,2,3,1,Stim2_Set3,1,switch,75,74,75,0,74,74,74,,,,,,,,,,,,,,,,,,,,,,,362.67429970018566,363.73704629950225,363.73704629950225,363.73704629950225,363.73704629950225,363.73704629950225,363.73704629950225,363.73704629950225,363.73704629950225,"['m', 'i', 'e', 'l']",0,"[0.8338619004935026, 0.9684073003008962, 1.054118100553751, 1.1677073007449508]",miel,C:\2023\REPSWITCH21092023\REPSWITCH_excgange\REPSWITCH_excgange\data/470104_REPSWITCH1_version1_list3_2024-01-26_09h17.38.599_micRespv1l3_recorded\recording_micRespv1l3_2024-01-26_09h23.36.339.wav,366.7650910997763,,None,366.7650910997763,366.7650910997763,366.7650910997763,366.7650910997763,366.7650910997763,366.7650910997763,,,,,,470104,001,2024-01-26_09h17.38.599,REPSWITCH1_version1_list3,2022.2.4,143.8110195639389,
REPSWITCH1/PICTURE_610.png,miel,type,darkblue,repeat,1,T,3,2,3,1,Stim2_Set3,0,None,76,75,76,0,75,75,75,,,,,,,,,,,,,,,,,,,,,,,367.2651699995622,368.34169139992446,368.34169139992446,368.34169139992446,368.34169139992446,368.34169139992446,368.34169139992446,368.34169139992446,368.34169139992446,"['m', 'i', 'e', 'l']",0,"[0.6917642001062632, 0.8282861998304725, 0.8831123001873493, 1.003943500109017]",miel,C:\2023\REPSWITCH21092023\REPSWITCH_excgange\REPSWITCH_excgange\data/470104_REPSWITCH1_version1_list3_2024-01-26_09h17.38.599_micRespv1l3_recorded\recording_micRespv1l3_2024-01-26_09h23.40.945.wav,371.36993519961834,,None,371.36993519961834,371.36993519961834,371.36993519961834,371.36993519961834,371.36993519961834,371.36993519961834,,,,,,470104,001,2024-01-26_09h17.38.599,REPSWITCH1_version1_list3,2022.2.4,143.8110195639389,
REPSWITCH1/PICTURE_264.png,mano,type,darkblue,filler,1,F,3,2,3,1,Stim3_Set2,1,repeat,77,76,77,0,76,76,76,,,,,,,,,,,,,,,,,,,,,,,371.86995359975845,372.9604359995574,372.9604359995574,372.9604359995574,372.9604359995574,372.9604359995574,372.9604359995574,372.9604359995574,372.9604359995574,"['m', 'a', 'n', 'o']",0,"[0.7049757000058889, 0.7987141003832221, 0.8863577004522085, 0.959081300534308]",mano,C:\2023\REPSWITCH21092023\REPSWITCH_excgange\REPSWITCH_excgange\data/470104_REPSWITCH1_version1_list3_2024-01-26_09h17.38.599_micRespv1l3_recorded\recording_micRespv1l3_2024-01-26_09h23.45.563.wav,375.98861739970744,,None,375.98861739970744,375.98861739970744,375.98861739970744,375.98861739970744,375.98861739970744,375.98861739970744,,,,,,470104,001,2024-01-26_09h17.38.599,REPSWITCH1_version1_list3,2022.2.4,143.8110195639389,
REPSWITCH1/PICTURE_464.png,goma,speak,gold,filler,2,F,4,2,3,1,Stim6_Set3,0,None,78,77,78,0,77,77,77,,,,,,,,,,,,,,,,,,,,,,,376.4886352000758,377.5304346997291,377.5304346997291,377.5304346997291,377.5304346997291,377.5304346997291,377.5304346997291,377.5304346997291,377.5304346997291,None,0,,,C:\2023\REPSWITCH21092023\REPSWITCH_excgange\REPSWITCH_excgange\data/470104_REPSWITCH1_version1_list3_2024-01-26_09h17.38.599_micRespv1l3_recorded\recording_micRespv1l3_2024-01-26_09h23.50.133.wav,380.5515991002321,381.05169999971986,None,380.5515991002321,380.5515991002321,380.5515991002321,380.5515991002321,380.5515991002321,380.5515991002321,,,,,,470104,001,2024-01-26_09h17.38.599,REPSWITCH1_version1_list3,2022.2.4,143.8110195639389,
REPSWITCH1/PICTURE_8.png,pierna,type,darkblue,nontarget,1,NT,4,2,3,1,Stim3_Set4,1,switch,79,78,79,0,78,78,78,,,,,,,,,,,,,,,,,,,,,,,381.05169999971986,382.08654529973865,382.08654529973865,382.08654529973865,382.08654529973865,382.08654529973865,382.08654529973865,382.08654529973865,382.08654529973865,"['p', 'i', 'e', 'r', 'n', 'a']",0,"[0.792557300068438, 0.965909100137651, 1.034647500142455, 1.0875109005719423, 1.2070944998413324, 1.2977569997310638]",pierna,C:\2023\REPSWITCH21092023\REPSWITCH_excgange\REPSWITCH_excgange\data/470104_REPSWITCH1_version1_list3_2024-01-26_09h17.38.599_micRespv1l3_recorded\recording_micRespv1l3_2024-01-26_09h23.54.689.wav,385.1077520996332,385.6078354995698,None,385.1077520996332,385.1077520996332,385.1077520996332,385.1077520996332,385.1077520996332,385.1077520996332,,,,,,470104,001,2024-01-26_09h17.38.599,REPSWITCH1_version1_list3,2022.2.4,143.8110195639389,
REPSWITCH1/PICTURE_8.png,pierna,type,darkblue,repeat,1,T,4,2,3,1,Stim3_Set4,0,None,80,79,80,0,79,79,79,,,,,,,,,,,,,,,,,,,,,,,385.6078354995698,386.64271339960396,386.64271339960396,386.64271339960396,386.64271339960396,386.64271339960396,386.64271339960396,386.64271339960396,386.64271339960396,"['p', 'i', 'e', 'r', 'n', 'a']",0,"[1.1899073999375105, 1.3403348997235298, 1.3925630003213882, 1.455269199796021, 1.5781997004523873, 1.6628958005458117]",pierna,C:\2023\REPSWITCH21092023\REPSWITCH_excgange\REPSWITCH_excgange\data/470104_REPSWITCH1_version1_list3_2024-01-26_09h17.38.599_micRespv1l3_recorded\recording_micRespv1l3_2024-01-26_09h23.59.245.wav,389.6639021001756,390.1639815000817,None,389.6639021001756,389.6639021001756,389.6639021001756,389.6639021001756,389.6639021001756,389.6639021001756,,,,,,470104,001,2024-01-26_09h17.38.599,REPSWITCH1_version1_list3,2022.2.4,143.8110195639389,
REPSWITCH1/PICTURE_728.png,pulpo,type,darkblue,nontarget,1,NT,4,2,3,1,Stim8_Set4,1,repeat,81,80,81,0,80,80,80,,,,,,,,,,,,,,,,,,,,,,,390.1639815000817,391.25439499970526,391.25439499970526,391.25439499970526,391.25439499970526,391.25439499970526,391.25439499970526,391.25439499970526,391.25439499970526,"['p', 'u', 'l', 'p', 'o']",0,"[0.7138316007331014, 0.8930604010820389, 1.088330700993538, 1.2875987002626061, 1.4384493008255959]",pulpo,C:\2023\REPSWITCH21092023\REPSWITCH_excgange\REPSWITCH_excgange\data/470104_REPSWITCH1_version1_list3_2024-01-26_09h17.38.599_micRespv1l3_recorded\recording_micRespv1l3_2024-01-26_09h24.03.857.wav,394.28258579969406,,None,394.28258579969406,394.28258579969406,394.28258579969406,394.28258579969406,394.28258579969406,394.28258579969406,,,,,,470104,001,2024-01-26_09h17.38.599,REPSWITCH1_version1_list3,2022.2.4,143.8110195639389,
REPSWITCH1/PICTURE_728.png,pulpo,speak,gold,switch,2,T,4,2,3,1,Stim8_Set4,0,None,82,81,82,0,81,81,81,,,,,,,,,,,,,,,,,,,,,,,394.7827145997435,395.90081460028887,395.90081460028887,395.90081460028887,395.90081460028887,395.90081460028887,395.90081460028887,395.90081460028887,395.90081460028887,None,0,,,C:\2023\REPSWITCH21092023\REPSWITCH_excgange\REPSWITCH_excgange\data/470104_REPSWITCH1_version1_list3_2024-01-26_09h17.38.599_micRespv1l3_recorded\recording_micRespv1l3_2024-01-26_09h24.08.503.wav,398.92206550017,399.42213429976255,None,398.92206550017,398.92206550017,398.92206550017,398.92206550017,398.92206550017,398.92206550017,,,,,,470104,001,2024-01-26_09h17.38.599,REPSWITCH1_version1_list3,2022.2.4,143.8110195639389,
REPSWITCH1/PICTURE_235.png,aguja,type,darkblue,filler,1,F,4,2,3,1,Stim4_Set3,0,None,83,82,83,0,82,82,82,,,,,,,,,,,,,,,,,,,,,,,399.42213429976255,400.49867840018123,400.49867840018123,400.49867840018123,400.49867840018123,400.49867840018123,400.49867840018123,400.49867840018123,400.49867840018123,"['a', 'g', 'u', 'j', 'a']",0,"[0.8228263007476926, 1.0066376002505422, 1.0875786002725363, 1.2722071008756757, 1.3240363001823425]",aguja,C:\2023\REPSWITCH21092023\REPSWITCH_excgange\REPSWITCH_excgange\data/470104_REPSWITCH1_version1_list3_2024-01-26_09h17.38.599_micRespv1l3_recorded\recording_micRespv1l3_2024-01-26_09h24.13.102.wav,403.52688559982926,,None,403.52688559982926,403.52688559982926,403.52688559982926,403.52688559982926,403.52688559982926,403.52688559982926,,,,,,470104,001,2024-01-26_09h17.38.599,REPSWITCH1_version1_list3,2022.2.4,143.8110195639389,
REPSWITCH1/PICTURE_498.png,taza,speak,gold,nontarget,2,NT,4,2,3,1,Stim4_Set4,1,switch,84,83,84,0,83,83,83,,,,,,,,,,,,,,,,,,,,,,,404.02689350023866,405.0617851000279,405.0617851000279,405.0617851000279,405.0617851000279,405.0617851000279,405.0617851000279,405.0617851000279,405.0617851000279,None,0,,,C:\2023\REPSWITCH21092023\REPSWITCH_excgange\REPSWITCH_excgange\data/470104_REPSWITCH1_version1_list3_2024-01-26_09h17.38.599_micRespv1l3_recorded\recording_micRespv1l3_2024-01-26_09h24.17.664.wav,408.08293749950826,408.5830357000232,None,408.08293749950826,408.08293749950826,408.08293749950826,408.08293749950826,408.08293749950826,408.08293749950826,,,,,,470104,001,2024-01-26_09h17.38.599,REPSWITCH1_version1_list3,2022.2.4,143.8110195639389,
REPSWITCH1/PICTURE_498.png,taza,speak,gold,repeat,2,T,4,2,3,1,Stim4_Set4,0,None,85,84,85,0,84,84,84,,,,,,,,,,,,,,,,,,,,,,,408.5830357000232,409.7220662999898,409.7220662999898,409.7220662999898,409.7220662999898,409.7220662999898,409.7220662999898,409.7220662999898,409.7220662999898,None,0,,,C:\2023\REPSWITCH21092023\REPSWITCH_excgange\REPSWITCH_excgange\data/470104_REPSWITCH1_version1_list3_2024-01-26_09h17.38.599_micRespv1l3_recorded\recording_micRespv1l3_2024-01-26_09h24.22.324.wav,412.74327129963785,413.24331809952855,None,412.74327129963785,412.74327129963785,412.74327129963785,412.74327129963785,412.74327129963785,412.74327129963785,,,,,,470104,001,2024-01-26_09h17.38.599,REPSWITCH1_version1_list3,2022.2.4,143.8110195639389,
REPSWITCH1/PICTURE_719.png,baño,speak,gold,nontarget,2,NT,4,2,3,1,Stim2_Set4,0,None,86,85,86,0,85,85,85,,,,,,,,,,,,,,,,,,,,,,,413.24331809952855,414.4796990994364,414.4796990994364,414.4796990994364,414.4796990994364,414.4796990994364,414.4796990994364,414.4796990994364,414.4796990994364,None,0,,,C:\2023\REPSWITCH21092023\REPSWITCH_excgange\REPSWITCH_excgange\data/470104_REPSWITCH1_version1_list3_2024-01-26_09h17.38.599_micRespv1l3_recorded\recording_micRespv1l3_2024-01-26_09h24.27.083.wav,417.5078652994707,,None,417.5078652994707,417.5078652994707,417.5078652994707,417.5078652994707,417.5078652994707,417.5078652994707,,,,,,470104,001,2024-01-26_09h17.38.599,REPSWITCH1_version1_list3,2022.2.4,143.8110195639389,
REPSWITCH1/PICTURE_719.png,baño,type,darkblue,switch,1,T,4,2,3,1,Stim2_Set4,0,None,87,86,87,0,86,86,86,,,,,,,,,,,,,,,,,,,,,,,418.00793259963393,419.04277050029486,419.04277050029486,419.04277050029486,419.04277050029486,419.04277050029486,419.04277050029486,419.04277050029486,419.04277050029486,"['b', 'a', 'ñ', 'o']",0,"[0.9042429998517036, 1.0059194006025791, 1.236553099937737, 1.3880634000524879]",baño,C:\2023\REPSWITCH21092023\REPSWITCH_excgange\REPSWITCH_excgange\data/470104_REPSWITCH1_version1_list3_2024-01-26_09h17.38.599_micRespv1l3_recorded\recording_micRespv1l3_2024-01-26_09h24.31.646.wav,422.0708999997005,,None,422.0708999997005,422.0708999997005,422.0708999997005,422.0708999997005,422.0708999997005,422.0708999997005,,,,,,470104,001,2024-01-26_09h17.38.599,REPSWITCH1_version1_list3,2022.2.4,143.8110195639389,
REPSWITCH1/PICTURE_320.png,iglesia,speak,gold,filler,2,F,4,2,3,1,Stim8_Set3,0,None,88,87,88,0,87,87,87,,,,,,,,,,,,,,,,,,,,,,,422.57096179947257,423.60580119956285,423.60580119956285,423.60580119956285,423.60580119956285,423.60580119956285,423.60580119956285,423.60580119956285,423.60580119956285,None,0,,,C:\2023\REPSWITCH21092023\REPSWITCH_excgange\REPSWITCH_excgange\data/470104_REPSWITCH1_version1_list3_2024-01-26_09h17.38.599_micRespv1l3_recorded\recording_micRespv1l3_2024-01-26_09h24.36.209.wav,426.63397100009024,,None,426.63397100009024,426.63397100009024,426.63397100009024,426.63397100009024,426.63397100009024,426.63397100009024,,,,,,470104,001,2024-01-26_09h17.38.599,REPSWITCH1_version1_list3,2022.2.4,143.8110195639389,
REPSWITCH1/PICTURE_48.png,bombero,type,darkblue,nontarget,1,NT,4,2,3,1,Stim7_Set4,1,switch,89,88,89,0,88,88,88,,,,,,,,,,,,,,,,,,,,,,,427.1340375998989,428.2592479996383,428.2592479996383,428.2592479996383,428.2592479996383,428.2592479996383,428.2592479996383,428.2592479996383,428.2592479996383,"['b', 'o', 'm', 'b', 'e', 'r', 'o']",0,"[0.8522252002730966, 0.9948252001777291, 1.4711287003010511, 1.7053393004462123, 1.9335789000615478, 2.0093302000313997, 2.0860766004770994]",bombero,C:\2023\REPSWITCH21092023\REPSWITCH_excgange\REPSWITCH_excgange\data/470104_REPSWITCH1_version1_list3_2024-01-26_09h17.38.599_micRespv1l3_recorded\recording_micRespv1l3_2024-01-26_09h24.40.862.wav,431.28734780009836,,None,431.28734780009836,431.28734780009836,431.28734780009836,431.28734780009836,431.28734780009836,431.28734780009836,,,,,,470104,001,2024-01-26_09h17.38.599,REPSWITCH1_version1_list3,2022.2.4,143.8110195639389,
REPSWITCH1/PICTURE_48.png,bombero,speak,gold,switch,2,T,4,2,3,1,Stim7_Set4,0,None,90,89,90,0,89,89,89,,,,,,,,,,,,,,,,,,,,,,,431.7874106997624,432.88479339983314,432.88479339983314,432.88479339983314,432.88479339983314,432.88479339983314,432.88479339983314,432.88479339983314,432.88479339983314,None,0,,,C:\2023\REPSWITCH21092023\REPSWITCH_excgange\REPSWITCH_excgange\data/470104_REPSWITCH1_version1_list3_2024-01-26_09h17.38.599_micRespv1l3_recorded\recording_micRespv1l3_2024-01-26_09h24.45.488.wav,435.9130229000002,,None,435.9130229000002,435.9130229000002,435.9130229000002,435.9130229000002,435.9130229000002,435.9130229000002,,,,,,470104,001,2024-01-26_09h17.38.599,REPSWITCH1_version1_list3,2022.2.4,143.8110195639389,
REPSWITCH1/PICTURE_576.png,guante,type,darkblue,filler,1,F,4,2,3,1,Stim1_Set3,0,None,91,90,91,0,90,90,90,,,,,,,,,,,,,,,,,,,,,,,436.4130112994462,437.51731880009174,437.51731880009174,437.51731880009174,437.51731880009174,437.51731880009174,437.51731880009174,437.51731880009174,437.51731880009174,"['g', 'u', 'a', 'n', 't', 'e']",0,"[0.782922999933362, 0.8954918999224901, 0.973301200196147, 1.0642355997115374, 1.1762760998681188, 1.2577569000422955]",guante,C:\2023\REPSWITCH21092023\REPSWITCH_excgange\REPSWITCH_excgange\data/470104_REPSWITCH1_version1_list3_2024-01-26_09h17.38.599_micRespv1l3_recorded\recording_micRespv1l3_2024-01-26_09h24.50.120.wav,440.54548790026456,,None,440.54548790026456,440.54548790026456,440.54548790026456,440.54548790026456,440.54548790026456,440.54548790026456,,,,,,470104,001,2024-01-26_09h17.38.599,REPSWITCH1_version1_list3,2022.2.4,143.8110195639389,
REPSWITCH1/PICTURE_271.png,conejo,speak,gold,filler,2,F,4,2,3,1,Stim7_Set3,0,None,92,91,92,0,91,91,91,,,,,,,,,,,,,,,,,,,,,,,441.0455571003258,442.20544310007244,442.20544310007244,442.20544310007244,442.20544310007244,442.20544310007244,442.20544310007244,442.20544310007244,442.20544310007244,None,0,,,C:\2023\REPSWITCH21092023\REPSWITCH_excgange\REPSWITCH_excgange\data/470104_REPSWITCH1_version1_list3_2024-01-26_09h17.38.599_micRespv1l3_recorded\recording_micRespv1l3_2024-01-26_09h24.54.808.wav,445.2266394002363,445.7267178995535,None,445.2266394002363,445.2266394002363,445.2266394002363,445.2266394002363,445.2266394002363,445.2266394002363,,,,,,470104,001,2024-01-26_09h17.38.599,REPSWITCH1_version1_list3,2022.2.4,143.8110195639389,
REPSWITCH1/PICTURE_319.png,vaca,speak,gold,nontarget,2,NT,4,2,3,1,Stim1_Set4,1,repeat,93,92,93,0,92,92,92,,,,,,,,,,,,,,,,,,,,,,,445.7267178995535,446.8240671996027,446.8240671996027,446.8240671996027,446.8240671996027,446.8240671996027,446.8240671996027,446.8240671996027,446.8240671996027,None,0,,,C:\2023\REPSWITCH21092023\REPSWITCH_excgange\REPSWITCH_excgange\data/470104_REPSWITCH1_version1_list3_2024-01-26_09h17.38.599_micRespv1l3_recorded\recording_micRespv1l3_2024-01-26_09h24.59.426.wav,449.8453521998599,450.3454181002453,None,449.8453521998599,449.8453521998599,449.8453521998599,449.8453521998599,449.8453521998599,449.8453521998599,,,,,,470104,001,2024-01-26_09h17.38.599,REPSWITCH1_version1_list3,2022.2.4,143.8110195639389,
REPSWITCH1/PICTURE_319.png,vaca,speak,gold,repeat,2,T,4,2,3,1,Stim1_Set4,0,None,94,93,94,0,93,93,93,,,,,,,,,,,,,,,,,,,,,,,450.3454181002453,451.4358110995963,451.4358110995963,451.4358110995963,451.4358110995963,451.4358110995963,451.4358110995963,451.4358110995963,451.4358110995963,None,0,,,C:\2023\REPSWITCH21092023\REPSWITCH_excgange\REPSWITCH_excgange\data/470104_REPSWITCH1_version1_list3_2024-01-26_09h17.38.599_micRespv1l3_recorded\recording_micRespv1l3_2024-01-26_09h25.04.039.wav,454.4570062998682,454.9570712996647,None,454.4570062998682,454.4570062998682,454.4570062998682,454.4570062998682,454.4570062998682,454.4570062998682,,,,,,470104,001,2024-01-26_09h17.38.599,REPSWITCH1_version1_list3,2022.2.4,143.8110195639389,
REPSWITCH1/PICTURE_242.png,cartero,type,darkblue,filler,1,F,4,2,3,1,Stim3_Set3,0,None,95,94,95,0,94,94,94,,,,,,,,,,,,,,,,,,,,,,,454.9570712996647,456.07526700012386,456.07526700012386,456.07526700012386,456.07526700012386,456.07526700012386,456.07526700012386,456.07526700012386,456.07526700012386,"['c', 'a', 'r', 't', 'e', 'r', 'o']",0,"[0.9696279997006059, 1.083245299756527, 1.2227449994534254, 1.6047292994335294, 1.8865871001034975, 1.9872116995975375, 2.1071649994701147]",cartero,C:\2023\REPSWITCH21092023\REPSWITCH_excgange\REPSWITCH_excgange\data/470104_REPSWITCH1_version1_list3_2024-01-26_09h17.38.599_micRespv1l3_recorded\recording_micRespv1l3_2024-01-26_09h25.08.677.wav,459.0965384002775,459.596563199535,None,459.0965384002775,459.0965384002775,459.0965384002775,459.0965384002775,459.0965384002775,459.0965384002775,,,,,,470104,001,2024-01-26_09h17.38.599,REPSWITCH1_version1_list3,2022.2.4,143.8110195639389,
REPSWITCH1/PICTURE_35.png,oreja,speak,gold,filler,2,F,4,2,3,1,Stim5_Set3,1,switch,96,95,96,0,95,95,95,,,,,,,,,,,,,,,,,,,,,,,459.596563199535,460.825875999406,460.825875999406,460.825875999406,460.825875999406,460.825875999406,460.825875999406,460.825875999406,460.825875999406,None,0,,,C:\2023\REPSWITCH21092023\REPSWITCH_excgange\REPSWITCH_excgange\data/470104_REPSWITCH1_version1_list3_2024-01-26_09h17.38.599_micRespv1l3_recorded\recording_micRespv1l3_2024-01-26_09h25.13.429.wav,463.8541203998029,,None,463.8541203998029,463.8541203998029,463.8541203998029,463.8541203998029,463.8541203998029,463.8541203998029,,,,,,470104,001,2024-01-26_09h17.38.599,REPSWITCH1_version1_list3,2022.2.4,143.8110195639389,
REPSWITCH1/PICTURE_338.png,regalo,speak,gold,nontarget,2,NT,4,2,3,1,Stim6_Set4,1,repeat,97,96,97,0,96,96,96,,,,,,,,,,,,,,,,,,,,,,,464.35411669965833,465.44457469973713,465.44457469973713,465.44457469973713,465.44457469973713,465.44457469973713,465.44457469973713,465.44457469973713,465.44457469973713,None,0,,,C:\2023\REPSWITCH21092023\REPSWITCH_excgange\REPSWITCH_excgange\data/470104_REPSWITCH1_version1_list3_2024-01-26_09h17.38.599_micRespv1l3_recorded\recording_micRespv1l3_2024-01-26_09h25.18.047.wav,468.46577200014144,468.965827899985,None,468.46577200014144,468.46577200014144,468.46577200014144,468.46577200014144,468.46577200014144,468.46577200014144,,,,,,470104,001,2024-01-26_09h17.38.599,REPSWITCH1_version1_list3,2022.2.4,143.8110195639389,
REPSWITCH1/PICTURE_338.png,regalo,type,darkblue,switch,1,T,4,2,3,1,Stim6_Set4,0,None,98,97,98,0,97,97,97,,,,,,,,,,,,,,,,,,,,,,,468.965827899985,470.0770998997614,470.0770998997614,470.0770998997614,470.0770998997614,470.0770998997614,470.0770998997614,470.0770998997614,470.0770998997614,"['r', 'e', 'g', 'a', 'l', 'o']",0,"[0.6148597998544574, 0.7005837000906467, 0.8710003001615405, 0.993851600214839, 1.09364840015769, 1.4496789006516337]",regalo,C:\2023\REPSWITCH21092023\REPSWITCH_excgange\REPSWITCH_excgange\data/470104_REPSWITCH1_version1_list3_2024-01-26_09h17.38.599_micRespv1l3_recorded\recording_micRespv1l3_2024-01-26_09h25.22.680.wav,473.0983143001795,473.59834729973227,None,473.0983143001795,473.0983143001795,473.0983143001795,473.0983143001795,473.0983143001795,473.0983143001795,,,,,,470104,001,2024-01-26_09h17.38.599,REPSWITCH1_version1_list3,2022.2.4,143.8110195639389,
REPSWITCH1/PICTURE_687.png,camisa,type,darkblue,nontarget,1,NT,4,2,3,1,Stim5_Set4,0,None,99,98,99,0,98,98,98,,,,,,,,,,,,,,,,,,,,,,,473.59834729973227,474.6888502994552,474.6888502994552,474.6888502994552,474.6888502994552,474.6888502994552,474.6888502994552,474.6888502994552,474.6888502994552,"['c', 'a', 'm', 'i', 's', 'a']",0,"[1.1008377000689507, 1.203486000187695, 1.3111217003315687, 1.374439399689436, 1.4400455998256803, 1.5845688004046679]",camisa,C:\2023\REPSWITCH21092023\REPSWITCH_excgange\REPSWITCH_excgange\data/470104_REPSWITCH1_version1_list3_2024-01-26_09h17.38.599_micRespv1l3_recorded\recording_micRespv1l3_2024-01-26_09h25.27.292.wav,477.71693029999733,,None,477.71693029999733,477.71693029999733,477.71693029999733,477.71693029999733,477.71693029999733,477.71693029999733,,,,,,470104,001,2024-01-26_09h17.38.599,REPSWITCH1_version1_list3,2022.2.4,143.8110195639389,
REPSWITCH1/PICTURE_687.png,camisa,type,darkblue,repeat,1,T,4,2,3,1,Stim5_Set4,0,None,100,99,100,0,99,99,99,,,,,,,,,,,,,,,,,,,,,,,478.217026299797,479.2449417002499,479.2449417002499,479.2449417002499,479.2449417002499,479.2449417002499,479.2449417002499,479.2449417002499,479.2449417002499,"['c', 'a', 'm', 'i', 's', 'a']",0,"[0.6220974000170827, 0.71079340018332, 0.8314020000398159, 0.8612490007653832, 0.9520835001021624, 1.0511614000424743]",camisa,C:\2023\REPSWITCH21092023\REPSWITCH_excgange\REPSWITCH_excgange\data/470104_REPSWITCH1_version1_list3_2024-01-26_09h17.38.599_micRespv1l3_recorded\recording_micRespv1l3_2024-01-26_09h25.31.848.wav,482.27310679946095,,None,482.27310679946095,482.27310679946095,482.27310679946095,482.27310679946095,482.27310679946095,482.27310679946095,,,,,,470104,001,2024-01-26_09h17.38.599,REPSWITCH1_version1_list3,2022.2.4,143.8110195639389,
REPSWITCH1/PICTURE_340.png,espejo,speak,gold,filler,2,F,4,2,3,1,Extra1,0,None,101,100,101,0,100,100,100,,,,,,,,,,,,,,,,,,,,,,,482.77314219996333,483.82887359987944,483.82887359987944,483.82887359987944,483.82887359987944,483.82887359987944,483.82887359987944,483.82887359987944,483.82887359987944,None,0,,,C:\2023\REPSWITCH21092023\REPSWITCH_excgange\REPSWITCH_excgange\data/470104_REPSWITCH1_version1_list3_2024-01-26_09h17.38.599_micRespv1l3_recorded\recording_micRespv1l3_2024-01-26_09h25.36.432.wav,486.85702349990606,,None,486.85702349990606,486.85702349990606,486.85702349990606,486.85702349990606,486.85702349990606,486.85702349990606,,,,,,470104,001,2024-01-26_09h17.38.599,REPSWITCH1_version1_list3,2022.2.4,143.8110195639389,
REPSWITCH1/PICTURE_610.png,miel,type,darkblue,filler,1,F,4,2,3,1,Stim2_Set3,0,None,102,101,102,0,101,101,101,,,,,,,,,,,,,,,,,,,,,,,487.3571055000648,488.5378093998879,488.5378093998879,488.5378093998879,488.5378093998879,488.5378093998879,488.5378093998879,488.5378093998879,488.5378093998879,"['m', 'i', 'e', 'l']",0,"[0.779648601077497, 0.9699293002486229, 1.1206817002967, 1.257871400564909]",miel,C:\2023\REPSWITCH21092023\REPSWITCH_excgange\REPSWITCH_excgange\data/470104_REPSWITCH1_version1_list3_2024-01-26_09h17.38.599_micRespv1l3_recorded\recording_micRespv1l3_2024-01-26_09h25.41.140.wav,491.5590292001143,492.0591645995155,space,491.5590292001143,491.5590292001143,491.5590292001143,491.5590292001143,491.5590292001143,491.5590292001143,492.0591645995155,492.0591645995155,8.571684200316668,,,470104,001,2024-01-26_09h17.38.599,REPSWITCH1_version1_list3,2022.2.4,143.8110195639389,
REPSWITCH1/PICTURE_8.png,pierna,type,darkblue,filler,1,F,1,4,3,1,Stim3_Set4,0,None,103,102,1,0,102,102,102,,,,,,,,,,,,,,,,,,,,,,,500.64352829940617,501.7061837995425,501.7061837995425,501.7061837995425,501.7061837995425,501.7061837995425,501.7061837995425,501.7061837995425,501.7061837995425,"['p', 'i', 'e', 'r', 'n', 'a']",0,"[0.6927633006125689, 0.8705741008743644, 0.97688880097121, 0.9817212009802461, 1.1371481008827686, 1.2118861004710197]",pierna,C:\2023\REPSWITCH21092023\REPSWITCH_excgange\REPSWITCH_excgange\data/470104_REPSWITCH1_version1_list3_2024-01-26_09h17.38.599_micRespv1l3_recorded\recording_micRespv1l3_2024-01-26_09h25.54.308.wav,504.72747320029885,505.2275297995657,None,504.72747320029885,504.72747320029885,504.72747320029885,504.72747320029885,504.72747320029885,504.72747320029885,,,,,,470104,001,2024-01-26_09h17.38.599,REPSWITCH1_version1_list3,2022.2.4,143.8110195639389,
REPSWITCH1/PICTURE_498.png,taza,speak,gold,filler,2,F,1,4,3,1,Stim4_Set4,0,None,104,103,2,0,103,103,103,,,,,,,,,,,,,,,,,,,,,,,505.2275297995657,506.31094329990447,506.31094329990447,506.31094329990447,506.31094329990447,506.31094329990447,506.31094329990447,506.31094329990447,506.31094329990447,None,0,,,C:\2023\REPSWITCH21092023\REPSWITCH_excgange\REPSWITCH_excgange\data/470104_REPSWITCH1_version1_list3_2024-01-26_09h17.38.599_micRespv1l3_recorded\recording_micRespv1l3_2024-01-26_09h25.58.913.wav,509.33216900005937,509.83226179983467,None,509.33216900005937,509.33216900005937,509.33216900005937,509.33216900005937,509.33216900005937,509.33216900005937,,,,,,470104,001,2024-01-26_09h17.38.599,REPSWITCH1_version1_list3,2022.2.4,143.8110195639389,
REPSWITCH1/PICTURE_19.png,pavo,speak,gold,nontarget,2,NT,1,4,3,1,Stim5_Set1,1,repeat,105,104,3,0,104,104,104,,,,,,,,,,,,,,,,,,,,,,,509.83226179983467,510.93654919974506,510.93654919974506,510.93654919974506,510.93654919974506,510.93654919974506,510.93654919974506,510.93654919974506,510.93654919974506,None,0,,,C:\2023\REPSWITCH21092023\REPSWITCH_excgange\REPSWITCH_excgange\data/470104_REPSWITCH1_version1_list3_2024-01-26_09h17.38.599_micRespv1l3_recorded\recording_micRespv1l3_2024-01-26_09h26.03.539.wav,513.964697400108,,None,513.964697400108,513.964697400108,513.964697400108,513.964697400108,513.964697400108,513.964697400108,,,,,,470104,001,2024-01-26_09h17.38.599,REPSWITCH1_version1_list3,2022.2.4,143.8110195639389,
REPSWITCH1/PICTURE_19.png,pavo,speak,gold,repeat,2,T,1,4,3,1,Stim5_Set1,0,None,106,105,4,0,105,105,105,,,,,,,,,,,,,,,,,,,,,,,514.4647511998191,515.5343386000022,515.5343386000022,515.5343386000022,515.5343386000022,515.5343386000022,515.5343386000022,515.5343386000022,515.5343386000022,None,0,,,C:\2023\REPSWITCH21092023\REPSWITCH_excgange\REPSWITCH_excgange\data/470104_REPSWITCH1_version1_list3_2024-01-26_09h17.38.599_micRespv1l3_recorded\recording_micRespv1l3_2024-01-26_09h26.08.137.wav,518.5556359002367,519.0557041000575,None,518.5556359002367,518.5556359002367,518.5556359002367,518.5556359002367,518.5556359002367,518.5556359002367,,,,,,470104,001,2024-01-26_09h17.38.599,REPSWITCH1_version1_list3,2022.2.4,143.8110195639389,
REPSWITCH1/PICTURE_319.png,vaca,type,darkblue,filler,1,F,1,4,3,1,Stim1_Set4,1,repeat,107,106,5,0,106,106,106,,,,,,,,,,,,,,,,,,,,,,,519.0557041000575,520.1946940999478,520.1946940999478,520.1946940999478,520.1946940999478,520.1946940999478,520.1946940999478,520.1946940999478,520.1946940999478,"['v', 'a', 'a', 'backspace', 'c', 'a']",0,"[0.7397948000580072, 0.8474192004650831, 1.1374246999621391, 1.8729490004479885, 1.9965152004733682, 2.080155299976468]",vaca,C:\2023\REPSWITCH21092023\REPSWITCH_excgange\REPSWITCH_excgange\data/470104_REPSWITCH1_version1_list3_2024-01-26_09h17.38.599_micRespv1l3_recorded\recording_micRespv1l3_2024-01-26_09h26.12.797.wav,523.2158917998895,523.715977200307,None,523.2158917998895,523.2158917998895,523.2158917998895,523.2158917998895,523.2158917998895,523.2158917998895,,,,,,470104,001,2024-01-26_09h17.38.599,REPSWITCH1_version1_list3,2022.2.4,143.8110195639389,
REPSWITCH1/PICTURE_169.png,espalda,speak,gold,nontarget,2,NT,1,4,3,1,Stim8_Set1,1,switch,108,107,6,0,107,107,107,,,,,,,,,,,,,,,,,,,,,,,523.715977200307,524.8480404997244,524.8480404997244,524.8480404997244,524.8480404997244,524.8480404997244,524.8480404997244,524.8480404997244,524.8480404997244,None,0,,,C:\2023\REPSWITCH21092023\REPSWITCH_excgange\REPSWITCH_excgange\data/470104_REPSWITCH1_version1_list3_2024-01-26_09h17.38.599_micRespv1l3_recorded\recording_micRespv1l3_2024-01-26_09h26.17.450.wav,527.8692317996174,528.3693803995848,None,527.8692317996174,527.8692317996174,527.8692317996174,527.8692317996174,527.8692317996174,527.8692317996174,,,,,,470104,001,2024-01-26_09h17.38.599,REPSWITCH1_version1_list3,2022.2.4,143.8110195639389,
REPSWITCH1/PICTURE_169.png,espalda,speak,gold,repeat,2,T,1,4,3,1,Stim8_Set1,0,None,109,108,7,0,108,108,108,,,,,,,,,,,,,,,,,,,,,,,528.3693803995848,529.4250878002495,529.4250878002495,529.4250878002495,529.4250878002495,529.4250878002495,529.4250878002495,529.4250878002495,529.4250878002495,None,0,,,C:\2023\REPSWITCH21092023\REPSWITCH_excgange\REPSWITCH_excgange\data/470104_REPSWITCH1_version1_list3_2024-01-26_09h17.38.599_micRespv1l3_recorded\recording_micRespv1l3_2024-01-26_09h26.22.027.wav,532.4462251001969,532.9463666994125,None,532.4462251001969,532.4462251001969,532.4462251001969,532.4462251001969,532.4462251001969,532.4462251001969,,,,,,470104,001,2024-01-26_09h17.38.599,REPSWITCH1_version1_list3,2022.2.4,143.8110195639389,
REPSWITCH1/PICTURE_728.png,pulpo,type,darkblue,filler,1,F,1,4,3,1,Stim8_Set4,0,None,110,109,8,0,109,109,109,,,,,,,,,,,,,,,,,,,,,,,532.9463666994125,533.9742126995698,533.9742126995698,533.9742126995698,533.9742126995698,533.9742126995698,533.9742126995698,533.9742126995698,533.9742126995698,"['p', 'u', 'l', 'p', 'o']",0,"[0.7100194999948144, 0.9203964006155729, 1.1914287004619837, 1.4547496000304818, 1.586307100020349]",pulpo,C:\2023\REPSWITCH21092023\REPSWITCH_excgange\REPSWITCH_excgange\data/470104_REPSWITCH1_version1_list3_2024-01-26_09h17.38.599_micRespv1l3_recorded\recording_micRespv1l3_2024-01-26_09h26.26.577.wav,536.995450399816,537.4955867994577,None,536.995450399816,536.995450399816,536.995450399816,536.995450399816,536.995450399816,536.995450399816,,,,,,470104,001,2024-01-26_09h17.38.599,REPSWITCH1_version1_list3,2022.2.4,143.8110195639389,
REPSWITCH1/PICTURE_142.png,vaso,speak,gold,nontarget,2,NT,1,4,3,1,Stim7_Set1,1,switch,111,110,9,0,110,110,110,,,,,,,,,,,,,,,,,,,,,,,537.4955867994577,538.5651024999097,538.5651024999097,538.5651024999097,538.5651024999097,538.5651024999097,538.5651024999097,538.5651024999097,538.5651024999097,None,0,,,C:\2023\REPSWITCH21092023\REPSWITCH_excgange\REPSWITCH_excgange\data/470104_REPSWITCH1_version1_list3_2024-01-26_09h17.38.599_micRespv1l3_recorded\recording_micRespv1l3_2024-01-26_09h26.31.167.wav,541.5862980000675,542.0864517996088,None,541.5862980000675,541.5862980000675,541.5862980000675,541.5862980000675,541.5862980000675,541.5862980000675,,,,,,470104,001,2024-01-26_09h17.38.599,REPSWITCH1_version1_list3,2022.2.4,143.8110195639389,
REPSWITCH1/PICTURE_142.png,vaso,type,darkblue,switch,1,T,1,4,3,1,Stim7_Set1,0,None,112,111,10,0,111,111,111,,,,,,,,,,,,,,,,,,,,,,,542.0864517996088,543.2115086000413,543.2115086000413,543.2115086000413,543.2115086000413,543.2115086000413,543.2115086000413,543.2115086000413,543.2115086000413,"['v', 'a', 's', 'o']",0,"[1.0286930007860065, 1.1144356010481715, 1.258950000628829, 1.445405600592494]",vaso,C:\2023\REPSWITCH21092023\REPSWITCH_excgange\REPSWITCH_excgange\data/470104_REPSWITCH1_version1_list3_2024-01-26_09h17.38.599_micRespv1l3_recorded\recording_micRespv1l3_2024-01-26_09h26.35.815.wav,546.2327167997137,546.7328123003244,None,546.2327167997137,546.2327167997137,546.2327167997137,546.2327167997137,546.2327167997137,546.2327167997137,,,,,,470104,001,2024-01-26_09h17.38.599,REPSWITCH1_version1_list3,2022.2.4,143.8110195639389,
REPSWITCH1/PICTURE_338.png,regalo,type,darkblue,filler,1,F,1,4,3,1,Stim6_Set4,1,repeat,113,112,11,0,112,112,112,,,,,,,,,,,,,,,,,,,,,,,546.7328123003244,547.7816372001544,547.7816372001544,547.7816372001544,547.7816372001544,547.7816372001544,547.7816372001544,547.7816372001544,547.7816372001544,"['r', 'e', 'g', 'l', 'a', 'o', 'backspace', 'backspace', 'backspace', 'a', 'l', 'o']",0,"[0.8165174005553126, 0.9111321000382304, 1.0550404004752636, 1.1885572001338005, 1.2364039001986384, 1.408848600462079, 2.050805300474167, 2.1894615003839135, 2.3169713001698256, 2.4704170003533363, 2.541203400120139, 2.7325435001403093]",regalo,C:\2023\REPSWITCH21092023\REPSWITCH_excgange\REPSWITCH_excgange\data/470104_REPSWITCH1_version1_list3_2024-01-26_09h17.38.599_micRespv1l3_recorded\recording_micRespv1l3_2024-01-26_09h26.40.384.wav,550.8028256995603,551.3028541002423,None,550.8028256995603,550.8028256995603,550.8028256995603,550.8028256995603,550.8028256995603,550.8028256995603,,,,,,470104,001,2024-01-26_09h17.38.599,REPSWITCH1_version1_list3,2022.2.4,143.8110195639389,
REPSWITCH1/PICTURE_135.png,traje,type,darkblue,nontarget,1,NT,1,4,3,1,Stim3_Set1,1,repeat,114,113,12,0,113,113,113,,,,,,,,,,,,,,,,,,,,,,,551.3028541002423,552.3933264994994,552.3933264994994,552.3933264994994,552.3933264994994,552.3933264994994,552.3933264994994,552.3933264994994,552.3933264994994,"['t', 'r', 'a', 'j', 'e']",0,"[0.9071893999353051, 1.0147866997867823, 1.1753046000376344, 1.2909167995676398, 1.4035511994734406]",traje,C:\2023\REPSWITCH21092023\REPSWITCH_excgange\REPSWITCH_excgange\data/470104_REPSWITCH1_version1_list3_2024-01-26_09h17.38.599_micRespv1l3_recorded\recording_micRespv1l3_2024-01-26_09h26.44.997.wav,555.4214874999598,,None,555.4214874999598,555.4214874999598,555.4214874999598,555.4214874999598,555.4214874999598,555.4214874999598,,,,,,470104,001,2024-01-26_09h17.38.599,REPSWITCH1_version1_list3,2022.2.4,143.8110195639389,
REPSWITCH1/PICTURE_135.png,traje,speak,gold,switch,2,T,1,4,3,1,Stim3_Set1,0,None,115,114,13,0,114,114,114,,,,,,,,,,,,,,,,,,,,,,,555.9214891996235,557.0744228996336,557.0744228996336,557.0744228996336,557.0744228996336,557.0744228996336,557.0744228996336,557.0744228996336,557.0744228996336,None,0,,,C:\2023\REPSWITCH21092023\REPSWITCH_excgange\REPSWITCH_excgange\data/470104_REPSWITCH1_version1_list3_2024-01-26_09h17.38.599_micRespv1l3_recorded\recording_micRespv1l3_2024-01-26_09h26.49.678.wav,560.1026623994112,,None,560.1026623994112,560.1026623994112,560.1026623994112,560.1026623994112,560.1026623994112,560.1026623994112,,,,,,470104,001,2024-01-26_09h17.38.599,REPSWITCH1_version1_list3,2022.2.4,143.8110195639389,
REPSWITCH1/PICTURE_381.png,fresa,speak,gold,nontarget,2,NT,1,4,3,1,Stim2_Set1,1,repeat,116,115,14,0,115,115,115,,,,,,,,,,,,,,,,,,,,,,,560.6026574997231,561.7973255002871,561.7973255002871,561.7973255002871,561.7973255002871,561.7973255002871,561.7973255002871,561.7973255002871,561.7973255002871,None,0,,,C:\2023\REPSWITCH21092023\REPSWITCH_excgange\REPSWITCH_excgange\data/470104_REPSWITCH1_version1_list3_2024-01-26_09h17.38.599_micRespv1l3_recorded\recording_micRespv1l3_2024-01-26_09h26.54.399.wav,564.8185602994636,565.3185329996049,None,564.8185602994636,564.8185602994636,564.8185602994636,564.8185602994636,564.8185602994636,564.8185602994636,,,,,,470104,001,2024-01-26_09h17.38.599,REPSWITCH1_version1_list3,2022.2.4,143.8110195639389,
REPSWITCH1/PICTURE_381.png,fresa,type,darkblue,switch,1,T,1,4,3,1,Stim2_Set1,0,None,117,116,15,0,116,116,116,,,,,,,,,,,,,,,,,,,,,,,565.3185329996049,566.4784146994352,566.4784146994352,566.4784146994352,566.4784146994352,566.4784146994352,566.4784146994352,566.4784146994352,566.4784146994352,"['f', 'r', 'e', 's', 'a']",0,"[0.9198008999228477, 1.0274299997836351, 1.109150200150907, 1.3085080003365874, 1.3991832006722689]",fresa,C:\2023\REPSWITCH21092023\REPSWITCH_excgange\REPSWITCH_excgange\data/470104_REPSWITCH1_version1_list3_2024-01-26_09h17.38.599_micRespv1l3_recorded\recording_micRespv1l3_2024-01-26_09h26.59.080.wav,569.4997148998082,569.9997073998675,None,569.4997148998082,569.4997148998082,569.4997148998082,569.4997148998082,569.4997148998082,569.4997148998082,,,,,,470104,001,2024-01-26_09h17.38.599,REPSWITCH1_version1_list3,2022.2.4,143.8110195639389,
REPSWITCH1/PICTURE_48.png,bombero,type,darkblue,filler,1,F,1,4,3,1,Stim7_Set4,0,None,118,117,16,0,117,117,117,,,,,,,,,,,,,,,,,,,,,,,569.9997073998675,571.0762190995738,571.0762190995738,571.0762190995738,571.0762190995738,571.0762190995738,571.0762190995738,571.0762190995738,571.0762190995738,"['b', 'o', 'm', 'b', 'e', 'r', 'o']",0,"[0.8669065004214644, 0.9775330005213618, 1.1754013001918793, 1.3939955001696944, 1.474732800386846, 1.5026212008669972, 1.632201200351119]",bombero,C:\2023\REPSWITCH21092023\REPSWITCH_excgange\REPSWITCH_excgange\data/470104_REPSWITCH1_version1_list3_2024-01-26_09h17.38.599_micRespv1l3_recorded\recording_micRespv1l3_2024-01-26_09h27.03.679.wav,574.0974926995113,574.5975278001279,None,574.0974926995113,574.0974926995113,574.0974926995113,574.0974926995113,574.0974926995113,574.0974926995113,,,,,,470104,001,2024-01-26_09h17.38.599,REPSWITCH1_version1_list3,2022.2.4,143.8110195639389,
REPSWITCH1/PICTURE_687.png,camisa,speak,gold,filler,2,F,1,4,3,1,Stim5_Set4,0,None,119,118,17,0,118,118,118,,,,,,,,,,,,,,,,,,,,,,,574.5975278001279,575.6393528003246,575.6393528003246,575.6393528003246,575.6393528003246,575.6393528003246,575.6393528003246,575.6393528003246,575.6393528003246,None,0,,,C:\2023\REPSWITCH21092023\REPSWITCH_excgange\REPSWITCH_excgange\data/470104_REPSWITCH1_version1_list3_2024-01-26_09h17.38.599_micRespv1l3_recorded\recording_micRespv1l3_2024-01-26_09h27.08.242.wav,578.6605506995693,579.160681700334,None,578.6605506995693,578.6605506995693,578.6605506995693,578.6605506995693,578.6605506995693,578.6605506995693,,,,,,470104,001,2024-01-26_09h17.38.599,REPSWITCH1_version1_list3,2022.2.4,143.8110195639389,
REPSWITCH1/PICTURE_128.png,muñeca,type,darkblue,nontarget,1,NT,1,4,3,1,Stim4_Set1,0,None,120,119,18,0,119,119,119,,,,,,,,,,,,,,,,,,,,,,,579.160681700334,580.2788217002526,580.2788217002526,580.2788217002526,580.2788217002526,580.2788217002526,580.2788217002526,580.2788217002526,580.2788217002526,"['m', 'u', 'ñ', 'e', 'c', 'a']",0,"[1.1258790008723736, 1.2946189008653164, 1.5908955000340939, 1.9025598000735044, 2.276283700019121, 2.3710416005924344]",muñeca,C:\2023\REPSWITCH21092023\REPSWITCH_excgange\REPSWITCH_excgange\data/470104_REPSWITCH1_version1_list3_2024-01-26_09h17.38.599_micRespv1l3_recorded\recording_micRespv1l3_2024-01-26_09h27.12.882.wav,583.306983999908,,None,583.306983999908,583.306983999908,583.306983999908,583.306983999908,583.306983999908,583.306983999908,,,,,,470104,001,2024-01-26_09h17.38.599,REPSWITCH1_version1_list3,2022.2.4,143.8110195639389,
