image;correctAns;respModal;frameColor;repSwitch;sequence;target;set;block;list;exp_version;stimulus;baseline;baseline_condition;trial_no;psychopy_trial;Column1;trialsREPSWITCH.thisRepN;trialsREPSWITCH.thisTrialN;trialsREPSWITCH.thisN;trialsREPSWITCH.thisIndex;textWelcome.started;textboxInstrMain1.started;textboxInstrMain1_2.started;textboxInstrMain1_3.started;keyInstrMain.started;keyInstrMain.keys;keyInstrMain.rt;textboxInstrMain2.started;textboxInstrMain2_2.started;textboxInstrMain2_3.started;textboxInstrMain2_4.started;textboxInstrMain2_5.started;textboxInstrMain2_6.started;textboxInstrMain2_7.started;textboxInstrMain2_8.started;textboxInstrMain2_9.started;textboxInstrMain2_10.started;textboxInstrMain2_11.started;textboxInstrMain2_12.started;keyInstrMain2.started;keyInstrMain2.keys;keyInstrMain2.rt;fixationITI.started;fixationITI.stopped;polygonColour.started;polygonWhite.started;imageObject.started;polygonType.started;textInput.started;keyResp.started;micRespv2l4.started;polygonColour.stopped;polygonWhite.stopped;imageObject.stopped;polygonType.stopped;textInput.stopped;keyResp.stopped;keyResp.keys;keyResp.corr;keyResp.rt;subjResponse;micRespv2l4.clip;textBlankLoop.started;textBlankLoop.stopped;keyPause.keys;textboxPause.started;keyPause.started;keyPause.rt;textboxGoodbye.started;textboxGoodbye.stopped;participant;session;date;expName;psychopyVersion;frameRate;Column2
;;;;;;;;;;;;;;;;;;;;;8.99154;11.4876549;11.4876549;11.4876549;11.4876549;space;5.9730026;;;;;;;;;;;;;;;;;;;;;;;;;;;;;;;;;;;;;;;;;;;;480204;1;2024-01-26_11h17.24.971;REPSWITCH1_version2_list4;2022.2.4;143.9016642;
;;;;;;;;;;;;;;;;;;;;;;;;;;;;17.4746078;17.4746078;17.4746078;17.4746078;17.4746078;17.4746078;17.4746078;17.4746078;17.4746078;17.4746078;17.4746078;17.4746078;17.4746078;space;2.0700307;;;;;;;;;;;;;;;;;;;;;;;;;;;;;480204;1;2024-01-26_11h17.24.971;REPSWITCH1_version2_list4;2022.2.4;143.9016642;
REPSWITCH1/PICTURE_8.png;pierna;type;gold;filler;1;F;1;4;4;2;Stim3_Set4;0;None;1;0;1;0;0;0;0;;;;;;;;;;;;;;;;;;;;;;;19.6415088;20.7388541;20.7388541;20.7388541;20.7388541;20.7388541;20.7388541;20.7388541;20.7388541;23.767036;23.767036;23.767036;23.767036;23.767036;23.767036;['p', 'i', 'e', 'r', 'n', 'm', 'a', 'backspace', 'backspace'];0;[1.238705299794674, 1.296509899199009, 1.405536899343133, 1.5649971999228, 1.6895759999752045, 1.690560800023377, 1.771262999624014, 2.3397809993475676, 2.4802719997242093];pier;C:\2023\REPSWITCH21092023\REPSWITCH_excgange\REPSWITCH_excgange\data/480204_REPSWITCH1_version2_list4_2024-01-26_11h17.24.971_micRespv2l4_recorded\recording_micRespv2l4_2024-01-26_11h17.41.502.wav;23.767036;24.2670996;None;;;;;;480204;1;2024-01-26_11h17.24.971;REPSWITCH1_version2_list4;2022.2.4;143.9016642;
REPSWITCH1/PICTURE_498.png;taza;speak;darkblue;filler;2;F;1;4;4;2;Stim4_Set4;0;None;2;1;2;0;1;1;1;;;;;;;;;;;;;;;;;;;;;;;24.2670996;25.4061534;25.4061534;25.4061534;25.4061534;25.4061534;25.4061534;25.4061534;25.4061534;28.4343351;28.4343351;28.4343351;28.4343351;28.4343351;28.4343351;None;0;;;C:\2023\REPSWITCH21092023\REPSWITCH_excgange\REPSWITCH_excgange\data/480204_REPSWITCH1_version2_list4_2024-01-26_11h17.24.971_micRespv2l4_recorded\recording_micRespv2l4_2024-01-26_11h17.46.167.wav;28.4343351;;None;;;;;;480204;1;2024-01-26_11h17.24.971;REPSWITCH1_version2_list4;2022.2.4;143.9016642;
REPSWITCH1/PICTURE_19.png;pavo;speak;darkblue;nontarget;2;NT;1;4;4;2;Stim5_Set1;1;repeat;3;2;3;0;2;2;2;;;;;;;;;;;;;;;;;;;;;;;28.9344085;30.017855;30.017855;30.017855;30.017855;30.017855;30.017855;30.017855;30.017855;33.0390844;33.0390844;33.0390844;33.0390844;33.0390844;33.0390844;None;0;;;C:\2023\REPSWITCH21092023\REPSWITCH_excgange\REPSWITCH_excgange\data/480204_REPSWITCH1_version2_list4_2024-01-26_11h17.24.971_micRespv2l4_recorded\recording_micRespv2l4_2024-01-26_11h17.50.779.wav;33.0390844;33.5391491;None;;;;;;480204;1;2024-01-26_11h17.24.971;REPSWITCH1_version2_list4;2022.2.4;143.9016642;
REPSWITCH1/PICTURE_19.png;pavo;speak;darkblue;repeat;2;T;1;4;4;2;Stim5_Set1;0;None;4;3;4;0;3;3;3;;;;;;;;;;;;;;;;;;;;;;;33.5391491;34.6226488;34.6226488;34.6226488;34.6226488;34.6226488;34.6226488;34.6226488;34.6226488;37.6508959;37.6508959;37.6508959;37.6508959;37.6508959;37.6508959;None;0;;;C:\2023\REPSWITCH21092023\REPSWITCH_excgange\REPSWITCH_excgange\data/480204_REPSWITCH1_version2_list4_2024-01-26_11h17.24.971_micRespv2l4_recorded\recording_micRespv2l4_2024-01-26_11h17.55.384.wav;37.6508959;;None;;;;;;480204;1;2024-01-26_11h17.24.971;REPSWITCH1_version2_list4;2022.2.4;143.9016642;
REPSWITCH1/PICTURE_319.png;vaca;type;gold;filler;1;F;1;4;4;2;Stim1_Set4;1;repeat;5;4;5;0;4;4;4;;;;;;;;;;;;;;;;;;;;;;;38.1508961;39.2413129;39.2413129;39.2413129;39.2413129;39.2413129;39.2413129;39.2413129;39.2413129;42.2695247;42.2695247;42.2695247;42.2695247;42.2695247;42.2695247;['v', 'a', 'c', 'a'];0;[0.9584135003387928, 1.130697499960661, 1.3071317998692393, 1.3808246003463864];vaca;C:\2023\REPSWITCH21092023\REPSWITCH_excgange\REPSWITCH_excgange\data/480204_REPSWITCH1_version2_list4_2024-01-26_11h17.24.971_micRespv2l4_recorded\recording_micRespv2l4_2024-01-26_11h18.00.002.wav;42.2695247;;None;;;;;;480204;1;2024-01-26_11h17.24.971;REPSWITCH1_version2_list4;2022.2.4;143.9016642;
REPSWITCH1/PICTURE_169.png;espalda;speak;darkblue;nontarget;2;NT;1;4;4;2;Stim8_Set1;1;switch;6;5;6;0;5;5;5;;;;;;;;;;;;;;;;;;;;;;;42.7695567;43.8530826;43.8530826;43.8530826;43.8530826;43.8530826;43.8530826;43.8530826;43.8530826;46.8742504;46.8742504;46.8742504;46.8742504;46.8742504;46.8742504;None;0;;;C:\2023\REPSWITCH21092023\REPSWITCH_excgange\REPSWITCH_excgange\data/480204_REPSWITCH1_version2_list4_2024-01-26_11h17.24.971_micRespv2l4_recorded\recording_micRespv2l4_2024-01-26_11h18.04.614.wav;46.8742504;47.3743284;None;;;;;;480204;1;2024-01-26_11h17.24.971;REPSWITCH1_version2_list4;2022.2.4;143.9016642;
REPSWITCH1/PICTURE_169.png;espalda;speak;darkblue;repeat;2;T;1;4;4;2;Stim8_Set1;0;None;7;6;7;0;6;6;6;;;;;;;;;;;;;;;;;;;;;;;47.3743284;48.5272373;48.5272373;48.5272373;48.5272373;48.5272373;48.5272373;48.5272373;48.5272373;51.5555017;51.5555017;51.5555017;51.5555017;51.5555017;51.5555017;None;0;;;C:\2023\REPSWITCH21092023\REPSWITCH_excgange\REPSWITCH_excgange\data/480204_REPSWITCH1_version2_list4_2024-01-26_11h17.24.971_micRespv2l4_recorded\recording_micRespv2l4_2024-01-26_11h18.09.288.wav;51.5555017;;None;;;;;;480204;1;2024-01-26_11h17.24.971;REPSWITCH1_version2_list4;2022.2.4;143.9016642;
REPSWITCH1/PICTURE_728.png;pulpo;type;gold;filler;1;F;1;4;4;2;Stim8_Set4;0;None;8;7;8;0;7;7;7;;;;;;;;;;;;;;;;;;;;;;;52.0555632;53.2084117;53.2084117;53.2084117;53.2084117;53.2084117;53.2084117;53.2084117;53.2084117;56.2296303;56.2296303;56.2296303;56.2296303;56.2296303;56.2296303;['p', 'i', 'u', 'l', 'p', 'o', 'backspace', 'backspace', 'backspace', 'backspace'];0;[0.8785664001479745, 1.4164006002247334, 1.4472983004525304, 1.6221574004739523, 1.8684201007708907, 1.9121796004474163, 2.519342500716448, 2.664916600100696, 2.7846527006477118, 2.9192049000412226];pi;C:\2023\REPSWITCH21092023\REPSWITCH_excgange\REPSWITCH_excgange\data/480204_REPSWITCH1_version2_list4_2024-01-26_11h17.24.971_micRespv2l4_recorded\recording_micRespv2l4_2024-01-26_11h18.13.969.wav;56.2296303;56.7297168;None;;;;;;480204;1;2024-01-26_11h17.24.971;REPSWITCH1_version2_list4;2022.2.4;143.9016642;
REPSWITCH1/PICTURE_142.png;vaso;speak;darkblue;nontarget;2;NT;1;4;4;2;Stim7_Set1;1;switch;9;8;9;0;8;8;8;;;;;;;;;;;;;;;;;;;;;;;56.7297168;57.9034553;57.9034553;57.9034553;57.9034553;57.9034553;57.9034553;57.9034553;57.9034553;60.9316633;60.9316633;60.9316633;60.9316633;60.9316633;60.9316633;None;0;;;C:\2023\REPSWITCH21092023\REPSWITCH_excgange\REPSWITCH_excgange\data/480204_REPSWITCH1_version2_list4_2024-01-26_11h17.24.971_micRespv2l4_recorded\recording_micRespv2l4_2024-01-26_11h18.18.665.wav;60.9316633;;None;;;;;;480204;1;2024-01-26_11h17.24.971;REPSWITCH1_version2_list4;2022.2.4;143.9016642;
REPSWITCH1/PICTURE_142.png;vaso;type;gold;switch;1;T;1;4;4;2;Stim7_Set1;0;None;10;9;10;0;9;9;9;;;;;;;;;;;;;;;;;;;;;;;61.4317166;62.5082389;62.5082389;62.5082389;62.5082389;62.5082389;62.5082389;62.5082389;62.5082389;65.5294777;65.5294777;65.5294777;65.5294777;65.5294777;65.5294777;['v', 'a', 's', 'o'];0;[0.8176306001842022, 1.0236344998702407, 1.0853719003498554, 1.154325400479138];vaso;C:\2023\REPSWITCH21092023\REPSWITCH_excgange\REPSWITCH_excgange\data/480204_REPSWITCH1_version2_list4_2024-01-26_11h17.24.971_micRespv2l4_recorded\recording_micRespv2l4_2024-01-26_11h18.23.269.wav;65.5294777;66.0295527;None;;;;;;480204;1;2024-01-26_11h17.24.971;REPSWITCH1_version2_list4;2022.2.4;143.9016642;
REPSWITCH1/PICTURE_338.png;regalo;type;gold;filler;1;F;1;4;4;2;Stim6_Set4;1;repeat;11;10;11;0;10;10;10;;;;;;;;;;;;;;;;;;;;;;;66.0295527;67.161626;67.161626;67.161626;67.161626;67.161626;67.161626;67.161626;67.161626;70.1829171;70.1829171;70.1829171;70.1829171;70.1829171;70.1829171;['r', 'e', 'g', 'a', 'l', 'o'];0;[0.943189499899745, 1.0079719005152583, 1.1455182004719973, 1.4333396004512906, 1.5709295999258757, 1.697227600030601];regalo;C:\2023\REPSWITCH21092023\REPSWITCH_excgange\REPSWITCH_excgange\data/480204_REPSWITCH1_version2_list4_2024-01-26_11h17.24.971_micRespv2l4_recorded\recording_micRespv2l4_2024-01-26_11h18.27.922.wav;70.1829171;70.6829797;None;;;;;;480204;1;2024-01-26_11h17.24.971;REPSWITCH1_version2_list4;2022.2.4;143.9016642;
REPSWITCH1/PICTURE_135.png;traje;type;gold;nontarget;1;NT;1;4;4;2;Stim3_Set1;1;repeat;12;11;12;0;11;11;11;;;;;;;;;;;;;;;;;;;;;;;70.6829797;71.8011564;71.8011564;71.8011564;71.8011564;71.8011564;71.8011564;71.8011564;71.8011564;74.8293358;74.8293358;74.8293358;74.8293358;74.8293358;74.8293358;['t', 'r', 'a', 'j', 'e'];0;[0.8735311003401875, 1.0768086006864905, 1.1346451006829739, 1.6425339002162218, 1.7800524001941085];traje;C:\2023\REPSWITCH21092023\REPSWITCH_excgange\REPSWITCH_excgange\data/480204_REPSWITCH1_version2_list4_2024-01-26_11h17.24.971_micRespv2l4_recorded\recording_micRespv2l4_2024-01-26_11h18.32.563.wav;74.8293358;;None;;;;;;480204;1;2024-01-26_11h17.24.971;REPSWITCH1_version2_list4;2022.2.4;143.9016642;
REPSWITCH1/PICTURE_135.png;traje;speak;darkblue;switch;2;T;1;4;4;2;Stim3_Set1;0;None;13;12;13;0;12;12;12;;;;;;;;;;;;;;;;;;;;;;;75.3293887;76.4058941;76.4058941;76.4058941;76.4058941;76.4058941;76.4058941;76.4058941;76.4058941;79.4271197;79.4271197;79.4271197;79.4271197;79.4271197;79.4271197;None;0;;;C:\2023\REPSWITCH21092023\REPSWITCH_excgange\REPSWITCH_excgange\data/480204_REPSWITCH1_version2_list4_2024-01-26_11h17.24.971_micRespv2l4_recorded\recording_micRespv2l4_2024-01-26_11h18.37.166.wav;79.4271197;79.9272585;None;;;;;;480204;1;2024-01-26_11h17.24.971;REPSWITCH1_version2_list4;2022.2.4;143.9016642;
REPSWITCH1/PICTURE_381.png;fresa;speak;darkblue;nontarget;2;NT;1;4;4;2;Stim2_Set1;1;repeat;14;13;14;0;13;13;13;;;;;;;;;;;;;;;;;;;;;;;79.9272585;80.9898339;80.9898339;80.9898339;80.9898339;80.9898339;80.9898339;80.9898339;80.9898339;84.0110543;84.0110543;84.0110543;84.0110543;84.0110543;84.0110543;None;0;;;C:\2023\REPSWITCH21092023\REPSWITCH_excgange\REPSWITCH_excgange\data/480204_REPSWITCH1_version2_list4_2024-01-26_11h17.24.971_micRespv2l4_recorded\recording_micRespv2l4_2024-01-26_11h18.41.751.wav;84.0110543;84.5111908;None;;;;;;480204;1;2024-01-26_11h17.24.971;REPSWITCH1_version2_list4;2022.2.4;143.9016642;
REPSWITCH1/PICTURE_381.png;fresa;type;gold;switch;1;T;1;4;4;2;Stim2_Set1;0;None;15;14;15;0;14;14;14;;;;;;;;;;;;;;;;;;;;;;;84.5111908;85.6155179;85.6155179;85.6155179;85.6155179;85.6155179;85.6155179;85.6155179;85.6155179;88.6366597;88.6366597;88.6366597;88.6366597;88.6366597;88.6366597;['f', 'r', 'e', 's', 'a'];0;[0.7139285998418927, 0.9252115003764629, 1.0408204002305865, 1.2642291998490691, 1.3157120998948812];fresa;C:\2023\REPSWITCH21092023\REPSWITCH_excgange\REPSWITCH_excgange\data/480204_REPSWITCH1_version2_list4_2024-01-26_11h17.24.971_micRespv2l4_recorded\recording_micRespv2l4_2024-01-26_11h18.46.375.wav;88.6366597;89.1367499;None;;;;;;480204;1;2024-01-26_11h17.24.971;REPSWITCH1_version2_list4;2022.2.4;143.9016642;
REPSWITCH1/PICTURE_48.png;bombero;type;gold;filler;1;F;1;4;4;2;Stim7_Set4;0;None;16;15;16;0;15;15;15;;;;;;;;;;;;;;;;;;;;;;;89.1367499;90.1994473;90.1994473;90.1994473;90.1994473;90.1994473;90.1994473;90.1994473;90.1994473;93.2276313;93.2276313;93.2276313;93.2276313;93.2276313;93.2276313;['b', 'o', 'm', 'b', 'e', 'r', 'o'];0;[1.1253964994102716, 1.3571852995082736, 1.575475899502635, 1.8625766998156905, 1.9631768995895982, 2.039059999398887, 2.1357506001368165];bombero;C:\2023\REPSWITCH21092023\REPSWITCH_excgange\REPSWITCH_excgange\data/480204_REPSWITCH1_version2_list4_2024-01-26_11h17.24.971_micRespv2l4_recorded\recording_micRespv2l4_2024-01-26_11h18.50.961.wav;93.2276313;;None;;;;;;480204;1;2024-01-26_11h17.24.971;REPSWITCH1_version2_list4;2022.2.4;143.9016642;
REPSWITCH1/PICTURE_687.png;camisa;speak;darkblue;filler;2;F;1;4;4;2;Stim5_Set4;0;None;17;16;17;0;16;16;16;;;;;;;;;;;;;;;;;;;;;;;93.727707;94.8250129;94.8250129;94.8250129;94.8250129;94.8250129;94.8250129;94.8250129;94.8250129;97.8531526;97.8531526;97.8531526;97.8531526;97.8531526;97.8531526;None;0;;;C:\2023\REPSWITCH21092023\REPSWITCH_excgange\REPSWITCH_excgange\data/480204_REPSWITCH1_version2_list4_2024-01-26_11h17.24.971_micRespv2l4_recorded\recording_micRespv2l4_2024-01-26_11h18.55.586.wav;97.8531526;;None;;;;;;480204;1;2024-01-26_11h17.24.971;REPSWITCH1_version2_list4;2022.2.4;143.9016642;
REPSWITCH1/PICTURE_128.png;muñeca;type;gold;nontarget;1;NT;1;4;4;2;Stim4_Set1;0;None;18;17;18;0;17;17;17;;;;;;;;;;;;;;;;;;;;;;;98.3532354;99.4853167;99.4853167;99.4853167;99.4853167;99.4853167;99.4853167;99.4853167;99.4853167;102.51354;102.51354;102.51354;102.51354;102.51354;102.51354;['m', 'u', 'ñ', 'e', 'c', 'a'];0;[1.0801012003794312, 1.316508600488305, 1.6992414006963372, 1.7460857005789876, 1.907523900270462, 2.2667740005999804];muñeca;C:\2023\REPSWITCH21092023\REPSWITCH_excgange\REPSWITCH_excgange\data/480204_REPSWITCH1_version2_list4_2024-01-26_11h17.24.971_micRespv2l4_recorded\recording_micRespv2l4_2024-01-26_11h19.00.247.wav;102.51354;103.0135755;None;;;;;;480204;1;2024-01-26_11h17.24.971;REPSWITCH1_version2_list4;2022.2.4;143.9016642;
REPSWITCH1/PICTURE_128.png;muñeca;type;gold;repeat;1;T;1;4;4;2;Stim4_Set1;0;None;19;18;19;0;18;18;18;;;;;;;;;;;;;;;;;;;;;;;103.0135755;104.1178994;104.1178994;104.1178994;104.1178994;104.1178994;104.1178994;104.1178994;104.1178994;107.1460964;107.1460964;107.1460964;107.1460964;107.1460964;107.1460964;['m', 'u', 'ñ', 'e', 'c', 'a'];0;[0.864334600046277, 1.0766310999169946, 1.361999500542879, 1.4079795004799962, 1.5635385001078248, 1.6940716002136469];muñeca;C:\2023\REPSWITCH21092023\REPSWITCH_excgange\REPSWITCH_excgange\data/480204_REPSWITCH1_version2_list4_2024-01-26_11h17.24.971_micRespv2l4_recorded\recording_micRespv2l4_2024-01-26_11h19.04.879.wav;107.1460964;;None;;;;;;480204;1;2024-01-26_11h17.24.971;REPSWITCH1_version2_list4;2022.2.4;143.9016642;
REPSWITCH1/PICTURE_719.png;baño;speak;darkblue;filler;2;F;1;4;4;2;Stim2_Set4;1;switch;20;19;20;0;19;19;19;;;;;;;;;;;;;;;;;;;;;;;107.64611;108.9101806;108.9101806;108.9101806;108.9101806;108.9101806;108.9101806;108.9101806;108.9101806;111.9314213;111.9314213;111.9314213;111.9314213;111.9314213;111.9314213;None;0;;;C:\2023\REPSWITCH21092023\REPSWITCH_excgange\REPSWITCH_excgange\data/480204_REPSWITCH1_version2_list4_2024-01-26_11h17.24.971_micRespv2l4_recorded\recording_micRespv2l4_2024-01-26_11h19.09.671.wav;111.9314213;112.4315449;None;;;;;;480204;1;2024-01-26_11h17.24.971;REPSWITCH1_version2_list4;2022.2.4;143.9016642;
REPSWITCH1/PICTURE_178.png;puente;type;gold;nontarget;1;NT;1;4;4;2;Stim1_Set1;1;switch;21;20;21;0;20;20;20;;;;;;;;;;;;;;;;;;;;;;;112.4315449;113.4941012;113.4941012;113.4941012;113.4941012;113.4941012;113.4941012;113.4941012;113.4941012;116.5222998;116.5222998;116.5222998;116.5222998;116.5222998;116.5222998;['p', 'u', 'i', 'e', 'n', 't', 'e', 'backspace', 'backspace', 'backspace', 'backspace', 'backspace', 'u', 'e', 'n', 'm'];0;[1.0655301995575428, 1.1604490000754595, 1.1634336998686194, 1.268712899647653, 1.3886684998869896, 1.5222161998972297, 1.5909676998853683, 1.8172233998775482, 1.9550671000033617, 2.076195899397135, 2.1970811001956463, 2.3206855999305844, 2.5129822995513678, 2.7329380000010133, 2.8703638995066285, 2.878276400268078, 2.981898699887097];puenmt;C:\2023\REPSWITCH21092023\REPSWITCH_excgange\REPSWITCH_excgange\data/480204_REPSWITCH1_version2_list4_2024-01-26_11h17.24.971_micRespv2l4_recorded\recording_micRespv2l4_2024-01-26_11h19.14.255.wav;116.5222998;;None;;;;;;480204;1;2024-01-26_11h17.24.971;REPSWITCH1_version2_list4;2022.2.4;143.9016642;
REPSWITCH1/PICTURE_178.png;puente;type;gold;repeat;1;T;1;4;4;2;Stim1_Set1;0;None;22;21;22;0;21;21;21;;;;;;;;;;;;;;;;;;;;;;;117.022359;118.1266498;118.1266498;118.1266498;118.1266498;118.1266498;118.1266498;118.1266498;118.1266498;121.1479705;121.1479705;121.1479705;121.1479705;121.1479705;121.1479705;['p', 'u', 'e', 'n', 't', 'e'];0;[0.9224879005923867, 1.0530437007546425, 1.258669700473547, 1.3703028000891209, 1.447341300547123, 1.5242169005796313];puente;C:\2023\REPSWITCH21092023\REPSWITCH_excgange\REPSWITCH_excgange\data/480204_REPSWITCH1_version2_list4_2024-01-26_11h17.24.971_micRespv2l4_recorded\recording_micRespv2l4_2024-01-26_11h19.18.887.wav;121.1479705;121.6479433;None;;;;;;480204;1;2024-01-26_11h17.24.971;REPSWITCH1_version2_list4;2022.2.4;143.9016642;
REPSWITCH1/PICTURE_16.png;cazador;type;gold;nontarget;1;NT;1;4;4;2;Stim6_Set1;1;repeat;23;22;23;0;22;22;22;;;;;;;;;;;;;;;;;;;;;;;121.6479433;122.717579;122.717579;122.717579;122.717579;122.717579;122.717579;122.717579;122.717579;125.7457257;125.7457257;125.7457257;125.7457257;125.7457257;125.7457257;['c', 'a', 'z', 'a', 'd', 'o', 'r'];0;[0.9962639007717371, 1.1330661000683904, 1.3223714008927345, 1.3845431003719568, 1.509085800498724, 1.5845429003238678, 1.6573900002986193];cazador;C:\2023\REPSWITCH21092023\REPSWITCH_excgange\REPSWITCH_excgange\data/480204_REPSWITCH1_version2_list4_2024-01-26_11h17.24.971_micRespv2l4_recorded\recording_micRespv2l4_2024-01-26_11h19.23.478.wav;125.7457257;;None;;;;;;480204;1;2024-01-26_11h17.24.971;REPSWITCH1_version2_list4;2022.2.4;143.9016642;
REPSWITCH1/PICTURE_16.png;cazador;speak;darkblue;switch;2;T;1;4;4;2;Stim6_Set1;0;None;24;23;24;0;23;23;23;;;;;;;;;;;;;;;;;;;;;;;126.2457916;127.3014943;127.3014943;127.3014943;127.3014943;127.3014943;127.3014943;127.3014943;127.3014943;130.3296629;130.3296629;130.3296629;130.3296629;130.3296629;130.3296629;None;0;;;C:\2023\REPSWITCH21092023\REPSWITCH_excgange\REPSWITCH_excgange\data/480204_REPSWITCH1_version2_list4_2024-01-26_11h17.24.971_micRespv2l4_recorded\recording_micRespv2l4_2024-01-26_11h19.28.063.wav;130.3296629;;None;;;;;;480204;1;2024-01-26_11h17.24.971;REPSWITCH1_version2_list4;2022.2.4;143.9016642;
REPSWITCH1/PICTURE_19.png;pavo;type;gold;filler;1;F;2;4;4;2;Stim5_Set1;0;None;25;24;25;0;24;24;24;;;;;;;;;;;;;;;;;;;;;;;130.8296871;131.8715084;131.8715084;131.8715084;131.8715084;131.8715084;131.8715084;131.8715084;131.8715084;134.899708;134.899708;134.899708;134.899708;134.899708;134.899708;['p', 'a', 'v', 'o'];0;[1.2060097996145487, 1.2591520994901657, 1.4684560997411609, 1.522311200387776];pavo;C:\2023\REPSWITCH21092023\REPSWITCH_excgange\REPSWITCH_excgange\data/480204_REPSWITCH1_version2_list4_2024-01-26_11h17.24.971_micRespv2l4_recorded\recording_micRespv2l4_2024-01-26_11h19.32.633.wav;134.899708;;None;;;;;;480204;1;2024-01-26_11h17.24.971;REPSWITCH1_version2_list4;2022.2.4;143.9016642;
REPSWITCH1/PICTURE_199.png;falda;type;gold;nontarget;1;NT;2;4;4;2;Stim8_Set2;1;repeat;26;25;26;0;25;25;25;;;;;;;;;;;;;;;;;;;;;;;135.3998405;136.5457786;136.5457786;136.5457786;136.5457786;136.5457786;136.5457786;136.5457786;136.5457786;139.574001;139.574001;139.574001;139.574001;139.574001;139.574001;['f', 'a', 'l', 'd', 'a'];0;[0.7951739002019167, 0.9347043000161648, 1.049316399730742, 1.1711849002167583, 1.2145018000155687];falda;C:\2023\REPSWITCH21092023\REPSWITCH_excgange\REPSWITCH_excgange\data/480204_REPSWITCH1_version2_list4_2024-01-26_11h17.24.971_micRespv2l4_recorded\recording_micRespv2l4_2024-01-26_11h19.37.307.wav;139.574001;;None;;;;;;480204;1;2024-01-26_11h17.24.971;REPSWITCH1_version2_list4;2022.2.4;143.9016642;
REPSWITCH1/PICTURE_199.png;falda;type;gold;repeat;1;T;2;4;4;2;Stim8_Set2;0;None;27;26;27;0;26;26;26;;;;;;;;;;;;;;;;;;;;;;;140.0739592;141.1575276;141.1575276;141.1575276;141.1575276;141.1575276;141.1575276;141.1575276;141.1575276;144.1856473;144.1856473;144.1856473;144.1856473;144.1856473;144.1856473;['f', 'a', 'l', 'd', 'a'];0;[0.5374557003378868, 0.6690418999642134, 0.7731596007943153, 0.9174707001075149, 0.9726723004132509];falda;C:\2023\REPSWITCH21092023\REPSWITCH_excgange\REPSWITCH_excgange\data/480204_REPSWITCH1_version2_list4_2024-01-26_11h17.24.971_micRespv2l4_recorded\recording_micRespv2l4_2024-01-26_11h19.41.919.wav;144.1856473;;None;;;;;;480204;1;2024-01-26_11h17.24.971;REPSWITCH1_version2_list4;2022.2.4;143.9016642;
REPSWITCH1/PICTURE_178.png;puente;speak;darkblue;filler;2;F;2;4;4;2;Stim1_Set1;1;switch;28;27;28;0;27;27;27;;;;;;;;;;;;;;;;;;;;;;;144.685733;145.6997185;145.6997185;145.6997185;145.6997185;145.6997185;145.6997185;145.6997185;145.6997185;148.7279869;148.7279869;148.7279869;148.7279869;148.7279869;148.7279869;None;0;;;C:\2023\REPSWITCH21092023\REPSWITCH_excgange\REPSWITCH_excgange\data/480204_REPSWITCH1_version2_list4_2024-01-26_11h17.24.971_micRespv2l4_recorded\recording_micRespv2l4_2024-01-26_11h19.46.461.wav;148.7279869;;None;;;;;;480204;1;2024-01-26_11h17.24.971;REPSWITCH1_version2_list4;2022.2.4;143.9016642;
REPSWITCH1/PICTURE_517.png;cuerda;type;gold;nontarget;1;NT;2;4;4;2;Stim4_Set2;1;switch;29;28;29;0;28;28;28;;;;;;;;;;;;;;;;;;;;;;;149.2279519;150.32536;150.32536;150.32536;150.32536;150.32536;150.32536;150.32536;150.32536;153.3465472;153.3465472;153.3465472;153.3465472;153.3465472;153.3465472;['c', 'u', 'e', 'r', 'x', 'a', 'backspace', 'backspace', 'd', 'a'];0;[1.2423278000205755, 1.403727199882269, 1.4954300001263618, 1.5660615004599094, 1.7473862003535032, 1.8440698003396392, 2.1339309997856617, 2.264460099861026, 2.3042930997908115, 2.355057700537145];cuerda;C:\2023\REPSWITCH21092023\REPSWITCH_excgange\REPSWITCH_excgange\data/480204_REPSWITCH1_version2_list4_2024-01-26_11h17.24.971_micRespv2l4_recorded\recording_micRespv2l4_2024-01-26_11h19.51.086.wav;153.3465472;153.8466413;None;;;;;;480204;1;2024-01-26_11h17.24.971;REPSWITCH1_version2_list4;2022.2.4;143.9016642;
REPSWITCH1/PICTURE_517.png;cuerda;type;gold;repeat;1;T;2;4;4;2;Stim4_Set2;0;None;30;29;30;0;29;29;29;;;;;;;;;;;;;;;;;;;;;;;153.8466413;154.9648643;154.9648643;154.9648643;154.9648643;154.9648643;154.9648643;154.9648643;154.9648643;157.9930651;157.9930651;157.9930651;157.9930651;157.9930651;157.9930651;['c', 'u', 'e', 'r', 'd', 'a'];0;[0.5410168999806046, 0.7801995994523168, 0.8958057994022965, 1.0345042999833822, 1.1849956000223756, 1.2448046999052167];cuerda;C:\2023\REPSWITCH21092023\REPSWITCH_excgange\REPSWITCH_excgange\data/480204_REPSWITCH1_version2_list4_2024-01-26_11h17.24.971_micRespv2l4_recorded\recording_micRespv2l4_2024-01-26_11h19.55.726.wav;157.9930651;;None;;;;;;480204;1;2024-01-26_11h17.24.971;REPSWITCH1_version2_list4;2022.2.4;143.9016642;
REPSWITCH1/PICTURE_169.png;espalda;type;gold;filler;1;F;2;4;4;2;Stim8_Set1;0;None;31;30;31;0;30;30;30;;;;;;;;;;;;;;;;;;;;;;;158.4930765;159.5973821;159.5973821;159.5973821;159.5973821;159.5973821;159.5973821;159.5973821;159.5973821;162.6186085;162.6186085;162.6186085;162.6186085;162.6186085;162.6186085;['e', 's', 'p', 'a', 'l', 'd', 'a'];0;[0.6587821003049612, 0.8321152003481984, 0.9507942004129291, 1.0516665000468493, 1.314287600107491, 1.4089603004977107, 1.4587520007044077];espalda;C:\2023\REPSWITCH21092023\REPSWITCH_excgange\REPSWITCH_excgange\data/480204_REPSWITCH1_version2_list4_2024-01-26_11h17.24.971_micRespv2l4_recorded\recording_micRespv2l4_2024-01-26_11h20.00.358.wav;162.6186085;163.118689;None;;;;;;480204;1;2024-01-26_11h17.24.971;REPSWITCH1_version2_list4;2022.2.4;143.9016642;
REPSWITCH1/PICTURE_673.png;tenedor;speak;darkblue;filler;2;F;2;4;4;2;Extra5;0;None;32;31;32;0;31;31;31;;;;;;;;;;;;;;;;;;;;;;;163.118689;164.2577148;164.2577148;164.2577148;164.2577148;164.2577148;164.2577148;164.2577148;164.2577148;167.2789306;167.2789306;167.2789306;167.2789306;167.2789306;167.2789306;None;0;;;C:\2023\REPSWITCH21092023\REPSWITCH_excgange\REPSWITCH_excgange\data/480204_REPSWITCH1_version2_list4_2024-01-26_11h17.24.971_micRespv2l4_recorded\recording_micRespv2l4_2024-01-26_11h20.05.018.wav;167.2789306;167.7789979;None;;;;;;480204;1;2024-01-26_11h17.24.971;REPSWITCH1_version2_list4;2022.2.4;143.9016642;
REPSWITCH1/PICTURE_142.png;vaso;type;gold;filler;1;F;2;4;4;2;Stim7_Set1;1;switch;33;32;33;0;32;32;32;;;;;;;;;;;;;;;;;;;;;;;167.7789979;168.8277915;168.8277915;168.8277915;168.8277915;168.8277915;168.8277915;168.8277915;168.8277915;171.8489792;171.8489792;171.8489792;171.8489792;171.8489792;171.8489792;['v', 'a', 's', 'o'];0;[0.8041898002848029, 1.002568100579083, 1.0683015007525682, 1.127135400660336];vaso;C:\2023\REPSWITCH21092023\REPSWITCH_excgange\REPSWITCH_excgange\data/480204_REPSWITCH1_version2_list4_2024-01-26_11h17.24.971_micRespv2l4_recorded\recording_micRespv2l4_2024-01-26_11h20.09.589.wav;171.8489792;172.3490671;None;;;;;;480204;1;2024-01-26_11h17.24.971;REPSWITCH1_version2_list4;2022.2.4;143.9016642;
REPSWITCH1/PICTURE_552.png;manzana;type;gold;nontarget;1;NT;2;4;4;2;Stim6_Set2;1;repeat;34;33;34;0;33;33;33;;;;;;;;;;;;;;;;;;;;;;;172.3490671;173.3908577;173.3908577;173.3908577;173.3908577;173.3908577;173.3908577;173.3908577;173.3908577;176.4190208;176.4190208;176.4190208;176.4190208;176.4190208;176.4190208;['m', 'n', 'backspace', 'a', 'n', 'z', 'a', 'd', 'a', 'backspace', 'backspace', 'a'];0;[0.8313910001888871, 1.0137815000489354, 1.2968256995081902, 1.347625999711454, 1.518211499787867, 1.6157686999067664, 1.6944875996559858, 1.8180423993617296, 1.875853699631989, 2.319670000113547, 2.4392013996839523, 2.914593099616468];manzaa;C:\2023\REPSWITCH21092023\REPSWITCH_excgange\REPSWITCH_excgange\data/480204_REPSWITCH1_version2_list4_2024-01-26_11h17.24.971_micRespv2l4_recorded\recording_micRespv2l4_2024-01-26_11h20.14.153.wav;176.4190208;176.9190906;None;;;;;;480204;1;2024-01-26_11h17.24.971;REPSWITCH1_version2_list4;2022.2.4;143.9016642;
REPSWITCH1/PICTURE_552.png;manzana;speak;darkblue;switch;1;T;2;4;4;2;Stim6_Set2;0;None;35;34;35;0;34;34;34;;;;;;;;;;;;;;;;;;;;;;;176.9190906;178.1553645;178.1553645;178.1553645;178.1553645;178.1553645;178.1553645;178.1553645;178.1553645;181.1835874;181.1835874;181.1835874;181.1835874;181.1835874;181.1835874;None;0;;;C:\2023\REPSWITCH21092023\REPSWITCH_excgange\REPSWITCH_excgange\data/480204_REPSWITCH1_version2_list4_2024-01-26_11h17.24.971_micRespv2l4_recorded\recording_micRespv2l4_2024-01-26_11h20.18.917.wav;181.1835874;;None;;;;;;480204;1;2024-01-26_11h17.24.971;REPSWITCH1_version2_list4;2022.2.4;143.9016642;
REPSWITCH1/PICTURE_135.png;traje;speak;darkblue;filler;2;F;2;4;4;2;Stim3_Set1;0;None;36;35;36;0;35;35;35;;;;;;;;;;;;;;;;;;;;;;;181.6836692;182.8365796;182.8365796;182.8365796;182.8365796;182.8365796;182.8365796;182.8365796;182.8365796;185.8578588;185.8578588;185.8578588;185.8578588;185.8578588;185.8578588;None;0;;;C:\2023\REPSWITCH21092023\REPSWITCH_excgange\REPSWITCH_excgange\data/480204_REPSWITCH1_version2_list4_2024-01-26_11h17.24.971_micRespv2l4_recorded\recording_micRespv2l4_2024-01-26_11h20.23.597.wav;185.8578588;186.3578503;None;;;;;;480204;1;2024-01-26_11h17.24.971;REPSWITCH1_version2_list4;2022.2.4;143.9016642;
REPSWITCH1/PICTURE_152.png;caracol;speak;darkblue;nontarget;2;NT;2;4;4;2;Stim2_Set2;1;repeat;37;36;37;0;36;36;36;;;;;;;;;;;;;;;;;;;;;;;186.3578503;187.5177876;187.5177876;187.5177876;187.5177876;187.5177876;187.5177876;187.5177876;187.5177876;190.5459118;190.5459118;190.5459118;190.5459118;190.5459118;190.5459118;None;0;;;C:\2023\REPSWITCH21092023\REPSWITCH_excgange\REPSWITCH_excgange\data/480204_REPSWITCH1_version2_list4_2024-01-26_11h17.24.971_micRespv2l4_recorded\recording_micRespv2l4_2024-01-26_11h20.28.278.wav;190.5459118;;None;;;;;;480204;1;2024-01-26_11h17.24.971;REPSWITCH1_version2_list4;2022.2.4;143.9016642;
REPSWITCH1/PICTURE_152.png;caracol;type;gold;switch;1;T;2;4;4;2;Stim2_Set2;0;None;38;37;38;0;37;37;37;;;;;;;;;;;;;;;;;;;;;;;191.0459432;192.1711136;192.1711136;192.1711136;192.1711136;192.1711136;192.1711136;192.1711136;192.1711136;195.1993138;195.1993138;195.1993138;195.1993138;195.1993138;195.1993138;['c', 'a', 'r', 'a', 'c', 'o', 'l'];0;[0.628460499458015, 0.7718781996518373, 0.9014462996274233, 0.9821827001869678, 1.1555600995197892, 1.4762550992891192, 1.6655813995748758];caracol;C:\2023\REPSWITCH21092023\REPSWITCH_excgange\REPSWITCH_excgange\data/480204_REPSWITCH1_version2_list4_2024-01-26_11h17.24.971_micRespv2l4_recorded\recording_micRespv2l4_2024-01-26_11h20.32.932.wav;195.1993138;;None;;;;;;480204;1;2024-01-26_11h17.24.971;REPSWITCH1_version2_list4;2022.2.4;143.9016642;
REPSWITCH1/PICTURE_381.png;fresa;type;gold;filler;1;F;2;4;4;2;Stim2_Set1;0;None;39;38;39;0;38;38;38;;;;;;;;;;;;;;;;;;;;;;;195.6994268;196.7272434;196.7272434;196.7272434;196.7272434;196.7272434;196.7272434;196.7272434;196.7272434;199.7554542;199.7554542;199.7554542;199.7554542;199.7554542;199.7554542;['f', 'r', 'e', 's', 'a'];0;[0.7657017996534705, 0.9761862996965647, 1.0602040002122521, 1.2538273995742202, 1.3249078001827002];fresa;C:\2023\REPSWITCH21092023\REPSWITCH_excgange\REPSWITCH_excgange\data/480204_REPSWITCH1_version2_list4_2024-01-26_11h17.24.971_micRespv2l4_recorded\recording_micRespv2l4_2024-01-26_11h20.37.489.wav;199.7554542;200.2555265;None;;;;;;480204;1;2024-01-26_11h17.24.971;REPSWITCH1_version2_list4;2022.2.4;143.9016642;
REPSWITCH1/PICTURE_446.png;cerdo;type;gold;nontarget;1;NT;2;4;4;2;Stim7_Set2;1;repeat;40;39;40;0;39;39;39;;;;;;;;;;;;;;;;;;;;;;;200.2555265;201.3876758;201.3876758;201.3876758;201.3876758;201.3876758;201.3876758;201.3876758;201.3876758;204.4157804;204.4157804;204.4157804;204.4157804;204.4157804;204.4157804;['c', 'e', 'r', 'd', 'o'];0;[0.8242691000923514, 1.047096200287342, 1.1088899001479149, 1.3072158005088568, 1.3879488008096814];cerdo;C:\2023\REPSWITCH21092023\REPSWITCH_excgange\REPSWITCH_excgange\data/480204_REPSWITCH1_version2_list4_2024-01-26_11h17.24.971_micRespv2l4_recorded\recording_micRespv2l4_2024-01-26_11h20.42.149.wav;204.4157804;;None;;;;;;480204;1;2024-01-26_11h17.24.971;REPSWITCH1_version2_list4;2022.2.4;143.9016642;
REPSWITCH1/PICTURE_446.png;cerdo;speak;darkblue;switch;2;T;2;4;4;2;Stim7_Set2;0;None;41;40;41;0;40;40;40;;;;;;;;;;;;;;;;;;;;;;;204.9158347;205.9646163;205.9646163;205.9646163;205.9646163;205.9646163;205.9646163;205.9646163;205.9646163;208.9858729;208.9858729;208.9858729;208.9858729;208.9858729;208.9858729;None;0;;;C:\2023\REPSWITCH21092023\REPSWITCH_excgange\REPSWITCH_excgange\data/480204_REPSWITCH1_version2_list4_2024-01-26_11h17.24.971_micRespv2l4_recorded\recording_micRespv2l4_2024-01-26_11h20.46.725.wav;208.9858729;209.4858921;None;;;;;;480204;1;2024-01-26_11h17.24.971;REPSWITCH1_version2_list4;2022.2.4;143.9016642;
REPSWITCH1/PICTURE_264.png;mano;speak;darkblue;nontarget;2;NT;2;4;4;2;Stim3_Set2;0;None;42;41;42;0;41;41;41;;;;;;;;;;;;;;;;;;;;;;;209.4858921;210.5902069;210.5902069;210.5902069;210.5902069;210.5902069;210.5902069;210.5902069;210.5902069;213.6183714;213.6183714;213.6183714;213.6183714;213.6183714;213.6183714;None;0;;;C:\2023\REPSWITCH21092023\REPSWITCH_excgange\REPSWITCH_excgange\data/480204_REPSWITCH1_version2_list4_2024-01-26_11h17.24.971_micRespv2l4_recorded\recording_micRespv2l4_2024-01-26_11h20.51.352.wav;213.6183714;;None;;;;;;480204;1;2024-01-26_11h17.24.971;REPSWITCH1_version2_list4;2022.2.4;143.9016642;
REPSWITCH1/PICTURE_264.png;mano;speak;darkblue;repeat;2;T;2;4;4;2;Stim3_Set2;0;None;43;42;43;0;42;42;42;;;;;;;;;;;;;;;;;;;;;;;214.1184419;215.2714385;215.2714385;215.2714385;215.2714385;215.2714385;215.2714385;215.2714385;215.2714385;218.2995501;218.2995501;218.2995501;218.2995501;218.2995501;218.2995501;None;0;;;C:\2023\REPSWITCH21092023\REPSWITCH_excgange\REPSWITCH_excgange\data/480204_REPSWITCH1_version2_list4_2024-01-26_11h17.24.971_micRespv2l4_recorded\recording_micRespv2l4_2024-01-26_11h20.56.032.wav;218.2995501;;None;;;;;;480204;1;2024-01-26_11h17.24.971;REPSWITCH1_version2_list4;2022.2.4;143.9016642;
REPSWITCH1/PICTURE_128.png;muñeca;type;gold;filler;1;F;2;4;4;2;Stim4_Set1;0;None;44;43;44;0;43;43;43;;;;;;;;;;;;;;;;;;;;;;;218.799617;219.8969673;219.8969673;219.8969673;219.8969673;219.8969673;219.8969673;219.8969673;219.8969673;222.9182276;222.9182276;222.9182276;222.9182276;222.9182276;222.9182276;['m', 'u', 'ñ', 'e', 'c', 'a'];0;[0.8233965998515487, 1.0585921006277204, 1.3238631002604961, 1.3826109999790788, 1.6506756003946066, 1.7995873000472784];muñeca;C:\2023\REPSWITCH21092023\REPSWITCH_excgange\REPSWITCH_excgange\data/480204_REPSWITCH1_version2_list4_2024-01-26_11h17.24.971_micRespv2l4_recorded\recording_micRespv2l4_2024-01-26_11h21.00.657.wav;222.9182276;223.4183585;None;;;;;;480204;1;2024-01-26_11h17.24.971;REPSWITCH1_version2_list4;2022.2.4;143.9016642;
REPSWITCH1/PICTURE_30.png;granja;speak;darkblue;nontarget;2;NT;2;4;4;2;Stim5_Set2;1;switch;45;44;45;0;44;44;44;;;;;;;;;;;;;;;;;;;;;;;223.4183585;224.4600582;224.4600582;224.4600582;224.4600582;224.4600582;224.4600582;224.4600582;224.4600582;227.488276;227.488276;227.488276;227.488276;227.488276;227.488276;None;0;;;C:\2023\REPSWITCH21092023\REPSWITCH_excgange\REPSWITCH_excgange\data/480204_REPSWITCH1_version2_list4_2024-01-26_11h17.24.971_micRespv2l4_recorded\recording_micRespv2l4_2024-01-26_11h21.05.222.wav;227.488276;;None;;;;;;480204;1;2024-01-26_11h17.24.971;REPSWITCH1_version2_list4;2022.2.4;143.9016642;
REPSWITCH1/PICTURE_30.png;granja;speak;darkblue;repeat;2;T;2;4;4;2;Stim5_Set2;0;None;46;45;46;0;45;45;45;;;;;;;;;;;;;;;;;;;;;;;227.9883296;229.0648772;229.0648772;229.0648772;229.0648772;229.0648772;229.0648772;229.0648772;229.0648772;232.0860512;232.0860512;232.0860512;232.0860512;232.0860512;232.0860512;None;0;;;C:\2023\REPSWITCH21092023\REPSWITCH_excgange\REPSWITCH_excgange\data/480204_REPSWITCH1_version2_list4_2024-01-26_11h17.24.971_micRespv2l4_recorded\recording_micRespv2l4_2024-01-26_11h21.09.826.wav;232.0860512;232.5861232;None;;;;;;480204;1;2024-01-26_11h17.24.971;REPSWITCH1_version2_list4;2022.2.4;143.9016642;
REPSWITCH1/PICTURE_646.png;tronco;type;gold;filler;1;F;2;4;4;2;Extra4;0;None;47;46;47;0;46;46;46;;;;;;;;;;;;;;;;;;;;;;;232.5861232;233.6141172;233.6141172;233.6141172;233.6141172;233.6141172;233.6141172;233.6141172;233.6141172;236.6353024;236.6353024;236.6353024;236.6353024;236.6353024;236.6353024;['t', 'r', 'o', 'c', 'n', 'o', 'backspace', 'backspace', 'backspace'];0;[1.5006132004782557, 1.7039008000865579, 1.7886531008407474, 1.9770836001262069, 2.083033500239253, 2.2284642001613975, 2.607959200628102, 2.7235568007454276, 2.8690674006938934];tro;C:\2023\REPSWITCH21092023\REPSWITCH_excgange\REPSWITCH_excgange\data/480204_REPSWITCH1_version2_list4_2024-01-26_11h17.24.971_micRespv2l4_recorded\recording_micRespv2l4_2024-01-26_11h21.14.375.wav;236.6353024;237.135358;None;;;;;;480204;1;2024-01-26_11h17.24.971;REPSWITCH1_version2_list4;2022.2.4;143.9016642;
REPSWITCH1/PICTURE_16.png;cazador;speak;darkblue;filler;2;F;2;4;4;2;Stim6_Set1;0;None;48;47;48;0;47;47;47;;;;;;;;;;;;;;;;;;;;;;;237.135358;238.2327037;238.2327037;238.2327037;238.2327037;238.2327037;238.2327037;238.2327037;238.2327037;241.2609621;241.2609621;241.2609621;241.2609621;241.2609621;241.2609621;None;0;;;C:\2023\REPSWITCH21092023\REPSWITCH_excgange\REPSWITCH_excgange\data/480204_REPSWITCH1_version2_list4_2024-01-26_11h17.24.971_micRespv2l4_recorded\recording_micRespv2l4_2024-01-26_11h21.18.994.wav;241.2609621;;None;;;;;;480204;1;2024-01-26_11h17.24.971;REPSWITCH1_version2_list4;2022.2.4;143.9016642;
REPSWITCH1/PICTURE_175.png;pintor;speak;darkblue;nontarget;2;NT;2;4;4;2;Stim1_Set2;1;repeat;49;48;49;0;48;48;48;;;;;;;;;;;;;;;;;;;;;;;241.7609374;242.9347959;242.9347959;242.9347959;242.9347959;242.9347959;242.9347959;242.9347959;242.9347959;245.9629397;245.9629397;245.9629397;245.9629397;245.9629397;245.9629397;None;0;;;C:\2023\REPSWITCH21092023\REPSWITCH_excgange\REPSWITCH_excgange\data/480204_REPSWITCH1_version2_list4_2024-01-26_11h17.24.971_micRespv2l4_recorded\recording_micRespv2l4_2024-01-26_11h21.23.696.wav;245.9629397;;None;;;;;;480204;1;2024-01-26_11h17.24.971;REPSWITCH1_version2_list4;2022.2.4;143.9016642;
REPSWITCH1/PICTURE_175.png;pintor;type;gold;switch;1;T;2;4;4;2;Stim1_Set2;0;None;50;49;50;0;49;49;49;;;;;;;;;;;;;;;;;;;;;;;246.462948;247.5464313;247.5464313;247.5464313;247.5464313;247.5464313;247.5464313;247.5464313;247.5464313;250.5676765;250.5676765;250.5676765;250.5676765;250.5676765;250.5676765;['p', 'i', 'n', 't', 'o', 'r'];0;[1.0210413997992873, 1.1217501992359757, 1.3499579997733235, 1.423710299655795, 1.5333391996100545, 1.592144399881363];pintor;C:\2023\REPSWITCH21092023\REPSWITCH_excgange\REPSWITCH_excgange\data/480204_REPSWITCH1_version2_list4_2024-01-26_11h17.24.971_micRespv2l4_recorded\recording_micRespv2l4_2024-01-26_11h21.28.307.wav;250.5676765;251.06775;None;;;;;;480204;1;2024-01-26_11h17.24.971;REPSWITCH1_version2_list4;2022.2.4;143.9016642;
REPSWITCH1/PICTURE_663.png;columna;speak;darkblue;filler;2;F;4;4;4;2;Extra6;0;None;51;50;51;0;50;50;50;;;;;;;;;;;;;;;;;;;;;;;251.06775;252.1512112;252.1512112;252.1512112;252.1512112;252.1512112;252.1512112;252.1512112;252.1512112;255.1793779;255.1793779;255.1793779;255.1793779;255.1793779;255.1793779;None;0;;;C:\2023\REPSWITCH21092023\REPSWITCH_excgange\REPSWITCH_excgange\data/480204_REPSWITCH1_version2_list4_2024-01-26_11h17.24.971_micRespv2l4_recorded\recording_micRespv2l4_2024-01-26_11h21.32.912.wav;255.1793779;;space;255.6794595;255.6794595;11.9321747;;;480204;1;2024-01-26_11h17.24.971;REPSWITCH1_version2_list4;2022.2.4;143.9016642;
REPSWITCH1/PICTURE_35.png;oreja;type;gold;nontarget;1;NT;3;4;4;2;Stim5_Set3;0;None;52;51;52;0;51;51;51;;;;;;;;;;;;;;;;;;;;;;;267.6186029;268.6742907;268.6742907;268.6742907;268.6742907;268.6742907;268.6742907;268.6742907;268.6742907;271.6954524;271.6954524;271.6954524;271.6954524;271.6954524;271.6954524;['o', 'r', 'e', 'k', 'a', 'backspace', 'backspace', 'j', 'a'];0;[0.7936332998797297, 0.9142477996647358, 0.980107500217855, 1.1106032999232411, 1.1763746999204159, 1.5372858000919223, 1.652904199436307, 1.871170999482274, 1.9369493992999196];oreja;C:\2023\REPSWITCH21092023\REPSWITCH_excgange\REPSWITCH_excgange\data/480204_REPSWITCH1_version2_list4_2024-01-26_11h17.24.971_micRespv2l4_recorded\recording_micRespv2l4_2024-01-26_11h21.49.435.wav;271.6954524;272.1955228;None;;;;;;480204;1;2024-01-26_11h17.24.971;REPSWITCH1_version2_list4;2022.2.4;143.9016642;
REPSWITCH1/PICTURE_35.png;oreja;speak;darkblue;switch;2;T;3;4;4;2;Stim5_Set3;0;None;53;52;53;0;52;52;52;;;;;;;;;;;;;;;;;;;;;;;272.1955228;273.3137056;273.3137056;273.3137056;273.3137056;273.3137056;273.3137056;273.3137056;273.3137056;276.3418697;276.3418697;276.3418697;276.3418697;276.3418697;276.3418697;None;0;;;C:\2023\REPSWITCH21092023\REPSWITCH_excgange\REPSWITCH_excgange\data/480204_REPSWITCH1_version2_list4_2024-01-26_11h17.24.971_micRespv2l4_recorded\recording_micRespv2l4_2024-01-26_11h21.54.074.wav;276.3418697;;None;;;;;;480204;1;2024-01-26_11h17.24.971;REPSWITCH1_version2_list4;2022.2.4;143.9016642;
REPSWITCH1/PICTURE_199.png;falda;speak;darkblue;filler;2;F;3;4;4;2;Stim8_Set2;0;None;54;53;54;0;53;53;53;;;;;;;;;;;;;;;;;;;;;;;276.8420143;277.9254536;277.9254536;277.9254536;277.9254536;277.9254536;277.9254536;277.9254536;277.9254536;280.9536731;280.9536731;280.9536731;280.9536731;280.9536731;280.9536731;None;0;;;C:\2023\REPSWITCH21092023\REPSWITCH_excgange\REPSWITCH_excgange\data/480204_REPSWITCH1_version2_list4_2024-01-26_11h17.24.971_micRespv2l4_recorded\recording_micRespv2l4_2024-01-26_11h21.58.687.wav;280.9536731;;None;;;;;;480204;1;2024-01-26_11h17.24.971;REPSWITCH1_version2_list4;2022.2.4;143.9016642;
REPSWITCH1/PICTURE_576.png;guante;speak;darkblue;nontarget;2;NT;3;4;4;2;Stim1_Set3;1;repeat;55;54;55;0;54;54;54;;;;;;;;;;;;;;;;;;;;;;;281.4536915;282.558004;282.558004;282.558004;282.558004;282.558004;282.558004;282.558004;282.558004;285.5792291;285.5792291;285.5792291;285.5792291;285.5792291;285.5792291;None;0;;;C:\2023\REPSWITCH21092023\REPSWITCH_excgange\REPSWITCH_excgange\data/480204_REPSWITCH1_version2_list4_2024-01-26_11h17.24.971_micRespv2l4_recorded\recording_micRespv2l4_2024-01-26_11h22.03.319.wav;285.5792291;286.0792919;None;;;;;;480204;1;2024-01-26_11h17.24.971;REPSWITCH1_version2_list4;2022.2.4;143.9016642;
REPSWITCH1/PICTURE_576.png;guante;type;gold;switch;1;T;3;4;4;2;Stim1_Set3;0;None;56;55;56;0;55;55;55;;;;;;;;;;;;;;;;;;;;;;;286.0792919;287.1697164;287.1697164;287.1697164;287.1697164;287.1697164;287.1697164;287.1697164;287.1697164;290.1978666;290.1978666;290.1978666;290.1978666;290.1978666;290.1978666;['g', 'u', 'a', 'n', 't', 'e'];0;[0.8773878002539277, 1.0236694002524018, 1.1115412004292011, 1.2421905007213354, 1.3601712007075548, 1.4030006006360054];guante;C:\2023\REPSWITCH21092023\REPSWITCH_excgange\REPSWITCH_excgange\data/480204_REPSWITCH1_version2_list4_2024-01-26_11h17.24.971_micRespv2l4_recorded\recording_micRespv2l4_2024-01-26_11h22.07.931.wav;290.1978666;;None;;;;;;480204;1;2024-01-26_11h17.24.971;REPSWITCH1_version2_list4;2022.2.4;143.9016642;
REPSWITCH1/PICTURE_517.png;cuerda;type;gold;filler;1;F;3;4;4;2;Stim4_Set2;1;repeat;57;56;57;0;56;56;56;;;;;;;;;;;;;;;;;;;;;;;290.6979284;291.7327883;291.7327883;291.7327883;291.7327883;291.7327883;291.7327883;291.7327883;291.7327883;294.7609623;294.7609623;294.7609623;294.7609623;294.7609623;294.7609623;['c', 'u', 'e', 'r', 'd', 'a'];0;[0.7179013006389141, 0.8594268998131156, 0.9281950006261468, 0.9889889005571604, 1.166788499802351, 1.256427200511098];cuerda;C:\2023\REPSWITCH21092023\REPSWITCH_excgange\REPSWITCH_excgange\data/480204_REPSWITCH1_version2_list4_2024-01-26_11h17.24.971_micRespv2l4_recorded\recording_micRespv2l4_2024-01-26_11h22.12.494.wav;294.7609623;;None;;;;;;480204;1;2024-01-26_11h17.24.971;REPSWITCH1_version2_list4;2022.2.4;143.9016642;
REPSWITCH1/PICTURE_271.png;conejo;type;gold;nontarget;1;NT;3;4;4;2;Stim7_Set3;1;repeat;58;57;58;0;57;57;57;;;;;;;;;;;;;;;;;;;;;;;295.2610306;296.323761;296.323761;296.323761;296.323761;296.323761;296.323761;296.323761;296.323761;299.3448891;299.3448891;299.3448891;299.3448891;299.3448891;299.3448891;['c', 'o', 'n', 'e', 'j', 'o'];0;[0.5718020992353559, 1.448956599459052, 1.62039399985224, 1.7051278995350003, 1.8756954995915294, 1.913561699911952];conejo;C:\2023\REPSWITCH21092023\REPSWITCH_excgange\REPSWITCH_excgange\data/480204_REPSWITCH1_version2_list4_2024-01-26_11h17.24.971_micRespv2l4_recorded\recording_micRespv2l4_2024-01-26_11h22.17.085.wav;299.3448891;299.8449672;None;;;;;;480204;1;2024-01-26_11h17.24.971;REPSWITCH1_version2_list4;2022.2.4;143.9016642;
REPSWITCH1/PICTURE_271.png;conejo;speak;darkblue;switch;2;T;3;4;4;2;Stim7_Set3;0;None;59;58;59;0;58;58;58;;;;;;;;;;;;;;;;;;;;;;;299.8449672;300.9562517;300.9562517;300.9562517;300.9562517;300.9562517;300.9562517;300.9562517;300.9562517;303.9774391;303.9774391;303.9774391;303.9774391;303.9774391;303.9774391;None;0;;;C:\2023\REPSWITCH21092023\REPSWITCH_excgange\REPSWITCH_excgange\data/480204_REPSWITCH1_version2_list4_2024-01-26_11h17.24.971_micRespv2l4_recorded\recording_micRespv2l4_2024-01-26_11h22.21.717.wav;303.9774391;304.4776033;None;;;;;;480204;1;2024-01-26_11h17.24.971;REPSWITCH1_version2_list4;2022.2.4;143.9016642;
REPSWITCH1/PICTURE_552.png;manzana;type;gold;filler;1;F;3;4;4;2;Stim6_Set2;0;None;60;59;60;0;59;59;59;;;;;;;;;;;;;;;;;;;;;;;304.4776033;305.567966;305.567966;305.567966;305.567966;305.567966;305.567966;305.567966;305.567966;308.5891992;308.5891992;308.5891992;308.5891992;308.5891992;308.5891992;['m', 'a', 'n', 'z', 'a', 'n', 'a'];0;[0.9402649002149701, 1.0229763006791472, 1.1495641004294157, 1.2548414003103971, 1.3186113005504012, 1.3863891009241343, 1.4907276006415486];manzana;C:\2023\REPSWITCH21092023\REPSWITCH_excgange\REPSWITCH_excgange\data/480204_REPSWITCH1_version2_list4_2024-01-26_11h17.24.971_micRespv2l4_recorded\recording_micRespv2l4_2024-01-26_11h22.26.328.wav;308.5891992;309.0893383;None;;;;;;480204;1;2024-01-26_11h17.24.971;REPSWITCH1_version2_list4;2022.2.4;143.9016642;
REPSWITCH1/PICTURE_242.png;cartero;speak;darkblue;nontarget;2;NT;3;4;4;2;Stim3_Set3;1;switch;61;60;61;0;60;60;60;;;;;;;;;;;;;;;;;;;;;;;309.0893383;310.1866238;310.1866238;310.1866238;310.1866238;310.1866238;310.1866238;310.1866238;310.1866238;313.2079265;313.2079265;313.2079265;313.2079265;313.2079265;313.2079265;None;0;;;C:\2023\REPSWITCH21092023\REPSWITCH_excgange\REPSWITCH_excgange\data/480204_REPSWITCH1_version2_list4_2024-01-26_11h17.24.971_micRespv2l4_recorded\recording_micRespv2l4_2024-01-26_11h22.30.947.wav;313.2079265;313.7078976;None;;;;;;480204;1;2024-01-26_11h17.24.971;REPSWITCH1_version2_list4;2022.2.4;143.9016642;
REPSWITCH1/PICTURE_242.png;cartero;speak;darkblue;repeat;2;T;3;4;4;2;Stim3_Set3;0;None;62;61;62;0;61;61;61;;;;;;;;;;;;;;;;;;;;;;;313.7078976;314.8053169;314.8053169;314.8053169;314.8053169;314.8053169;314.8053169;314.8053169;314.8053169;317.8335259;317.8335259;317.8335259;317.8335259;317.8335259;317.8335259;None;0;;;C:\2023\REPSWITCH21092023\REPSWITCH_excgange\REPSWITCH_excgange\data/480204_REPSWITCH1_version2_list4_2024-01-26_11h17.24.971_micRespv2l4_recorded\recording_micRespv2l4_2024-01-26_11h22.35.566.wav;317.8335259;;None;;;;;;480204;1;2024-01-26_11h17.24.971;REPSWITCH1_version2_list4;2022.2.4;143.9016642;
REPSWITCH1/PICTURE_152.png;caracol;speak;darkblue;filler;2;F;3;4;4;2;Stim2_Set2;0;None;63;62;63;0;62;62;62;;;;;;;;;;;;;;;;;;;;;;;318.3335963;319.4934271;319.4934271;319.4934271;319.4934271;319.4934271;319.4934271;319.4934271;319.4934271;322.5146903;322.5146903;322.5146903;322.5146903;322.5146903;322.5146903;None;0;;;C:\2023\REPSWITCH21092023\REPSWITCH_excgange\REPSWITCH_excgange\data/480204_REPSWITCH1_version2_list4_2024-01-26_11h17.24.971_micRespv2l4_recorded\recording_micRespv2l4_2024-01-26_11h22.40.254.wav;322.5146903;323.0146967;None;;;;;;480204;1;2024-01-26_11h17.24.971;REPSWITCH1_version2_list4;2022.2.4;143.9016642;
REPSWITCH1/PICTURE_446.png;cerdo;type;gold;filler;1;F;3;4;4;2;Stim7_Set2;1;switch;64;63;64;0;63;63;63;;;;;;;;;;;;;;;;;;;;;;;323.0146967;324.1328987;324.1328987;324.1328987;324.1328987;324.1328987;324.1328987;324.1328987;324.1328987;327.1541365;327.1541365;327.1541365;327.1541365;327.1541365;327.1541365;['c', 'e', 'r', 'd', 'o'];0;[0.7063637999817729, 0.9725524000823498, 1.0551442997530103, 1.233368900604546, 1.3051314000040293];cerdo;C:\2023\REPSWITCH21092023\REPSWITCH_excgange\REPSWITCH_excgange\data/480204_REPSWITCH1_version2_list4_2024-01-26_11h17.24.971_micRespv2l4_recorded\recording_micRespv2l4_2024-01-26_11h22.44.894.wav;327.1541365;327.6542007;None;;;;;;480204;1;2024-01-26_11h17.24.971;REPSWITCH1_version2_list4;2022.2.4;143.9016642;
REPSWITCH1/PICTURE_610.png;miel;speak;darkblue;nontarget;2;NT;3;4;4;2;Stim2_Set3;1;switch;65;64;65;0;64;64;64;;;;;;;;;;;;;;;;;;;;;;;327.6542007;328.7099112;328.7099112;328.7099112;328.7099112;328.7099112;328.7099112;328.7099112;328.7099112;331.7310907;331.7310907;331.7310907;331.7310907;331.7310907;331.7310907;None;0;;;C:\2023\REPSWITCH21092023\REPSWITCH_excgange\REPSWITCH_excgange\data/480204_REPSWITCH1_version2_list4_2024-01-26_11h17.24.971_micRespv2l4_recorded\recording_micRespv2l4_2024-01-26_11h22.49.470.wav;331.7310907;332.231221;None;;;;;;480204;1;2024-01-26_11h17.24.971;REPSWITCH1_version2_list4;2022.2.4;143.9016642;
REPSWITCH1/PICTURE_610.png;miel;speak;darkblue;repeat;2;T;3;4;4;2;Stim2_Set3;0;None;66;65;66;0;65;65;65;;;;;;;;;;;;;;;;;;;;;;;332.231221;333.2522044;333.2522044;333.2522044;333.2522044;333.2522044;333.2522044;333.2522044;333.2522044;336.2734129;336.2734129;336.2734129;336.2734129;336.2734129;336.2734129;None;0;;;C:\2023\REPSWITCH21092023\REPSWITCH_excgange\REPSWITCH_excgange\data/480204_REPSWITCH1_version2_list4_2024-01-26_11h17.24.971_micRespv2l4_recorded\recording_micRespv2l4_2024-01-26_11h22.54.012.wav;336.2734129;336.7734574;None;;;;;;480204;1;2024-01-26_11h17.24.971;REPSWITCH1_version2_list4;2022.2.4;143.9016642;
REPSWITCH1/PICTURE_320.png;iglesia;speak;darkblue;nontarget;2;NT;3;4;4;2;Stim8_Set3;1;repeat;67;66;67;0;66;66;66;;;;;;;;;;;;;;;;;;;;;;;336.7734574;337.8361523;337.8361523;337.8361523;337.8361523;337.8361523;337.8361523;337.8361523;337.8361523;340.8573264;340.8573264;340.8573264;340.8573264;340.8573264;340.8573264;None;0;;;C:\2023\REPSWITCH21092023\REPSWITCH_excgange\REPSWITCH_excgange\data/480204_REPSWITCH1_version2_list4_2024-01-26_11h17.24.971_micRespv2l4_recorded\recording_micRespv2l4_2024-01-26_11h22.58.597.wav;340.8573264;341.3573923;None;;;;;;480204;1;2024-01-26_11h17.24.971;REPSWITCH1_version2_list4;2022.2.4;143.9016642;
REPSWITCH1/PICTURE_320.png;iglesia;type;gold;switch;1;T;3;4;4;2;Stim8_Set3;0;None;68;67;68;0;67;67;67;;;;;;;;;;;;;;;;;;;;;;;341.3573923;342.4130834;342.4130834;342.4130834;342.4130834;342.4130834;342.4130834;342.4130834;342.4130834;345.4342891;345.4342891;345.4342891;345.4342891;345.4342891;345.4342891;['i', 'g', 'l', 'e', 's', 'i', 'a'];0;[0.8455930994823575, 0.9583102995529771, 1.0830282997339964, 1.1858332995325327, 1.3351266998797655, 1.4058876996859908, 1.5025491993874311];iglesia;C:\2023\REPSWITCH21092023\REPSWITCH_excgange\REPSWITCH_excgange\data/480204_REPSWITCH1_version2_list4_2024-01-26_11h17.24.971_micRespv2l4_recorded\recording_micRespv2l4_2024-01-26_11h23.03.174.wav;345.4342891;345.9343754;None;;;;;;480204;1;2024-01-26_11h17.24.971;REPSWITCH1_version2_list4;2022.2.4;143.9016642;
REPSWITCH1/PICTURE_30.png;granja;speak;darkblue;filler;2;F;3;4;4;2;Stim5_Set2;0;None;69;68;69;0;68;68;68;;;;;;;;;;;;;;;;;;;;;;;345.9343754;347.0178453;347.0178453;347.0178453;347.0178453;347.0178453;347.0178453;347.0178453;347.0178453;350.0460632;350.0460632;350.0460632;350.0460632;350.0460632;350.0460632;None;0;;;C:\2023\REPSWITCH21092023\REPSWITCH_excgange\REPSWITCH_excgange\data/480204_REPSWITCH1_version2_list4_2024-01-26_11h17.24.971_micRespv2l4_recorded\recording_micRespv2l4_2024-01-26_11h23.07.779.wav;350.0460632;;None;;;;;;480204;1;2024-01-26_11h17.24.971;REPSWITCH1_version2_list4;2022.2.4;143.9016642;
REPSWITCH1/PICTURE_264.png;mano;type;gold;filler;1;F;3;4;4;2;Stim3_Set2;0;None;70;69;70;0;69;69;69;;;;;;;;;;;;;;;;;;;;;;;350.5461512;351.7128981;351.7128981;351.7128981;351.7128981;351.7128981;351.7128981;351.7128981;351.7128981;354.7341461;354.7341461;354.7341461;354.7341461;354.7341461;354.7341461;['m', 'a', 'n', 'o'];0;[0.8504417007789016, 0.9430813007056713, 1.0467862002551556, 1.1635718001052737];mano;C:\2023\REPSWITCH21092023\REPSWITCH_excgange\REPSWITCH_excgange\data/480204_REPSWITCH1_version2_list4_2024-01-26_11h17.24.971_micRespv2l4_recorded\recording_micRespv2l4_2024-01-26_11h23.12.474.wav;354.7341461;355.2342124;None;;;;;;480204;1;2024-01-26_11h17.24.971;REPSWITCH1_version2_list4;2022.2.4;143.9016642;
REPSWITCH1/PICTURE_464.png;goma;type;gold;nontarget;1;NT;3;4;4;2;Stim6_Set3;0;None;71;70;71;0;70;70;70;;;;;;;;;;;;;;;;;;;;;;;355.2342124;356.331604;356.331604;356.331604;356.331604;356.331604;356.331604;356.331604;356.331604;359.3528037;359.3528037;359.3528037;359.3528037;359.3528037;359.3528037;['g', 'o', 'm', 'a'];0;[0.8414345998317003, 0.9402438998222351, 1.057778500020504, 1.1474802996963263];goma;C:\2023\REPSWITCH21092023\REPSWITCH_excgange\REPSWITCH_excgange\data/480204_REPSWITCH1_version2_list4_2024-01-26_11h17.24.971_micRespv2l4_recorded\recording_micRespv2l4_2024-01-26_11h23.17.092.wav;359.3528037;359.8528435;None;;;;;;480204;1;2024-01-26_11h17.24.971;REPSWITCH1_version2_list4;2022.2.4;143.9016642;
REPSWITCH1/PICTURE_464.png;goma;type;gold;repeat;1;T;3;4;4;2;Stim6_Set3;0;None;72;71;72;0;71;71;71;;;;;;;;;;;;;;;;;;;;;;;359.8528435;360.9572048;360.9572048;360.9572048;360.9572048;360.9572048;360.9572048;360.9572048;360.9572048;363.9853797;363.9853797;363.9853797;363.9853797;363.9853797;363.9853797;['g', 'o', 'm', 'a'];0;[0.45537340082228184, 0.5780982002615929, 0.6760943001136184, 0.9500592006370425];goma;C:\2023\REPSWITCH21092023\REPSWITCH_excgange\REPSWITCH_excgange\data/480204_REPSWITCH1_version2_list4_2024-01-26_11h17.24.971_micRespv2l4_recorded\recording_micRespv2l4_2024-01-26_11h23.21.718.wav;363.9853797;;None;;;;;;480204;1;2024-01-26_11h17.24.971;REPSWITCH1_version2_list4;2022.2.4;143.9016642;
REPSWITCH1/PICTURE_175.png;pintor;speak;darkblue;filler;2;F;3;4;4;2;Stim1_Set2;0;None;73;72;73;0;72;72;72;;;;;;;;;;;;;;;;;;;;;;;364.4854381;365.6939357;365.6939357;365.6939357;365.6939357;365.6939357;365.6939357;365.6939357;365.6939357;368.715153;368.715153;368.715153;368.715153;368.715153;368.715153;None;0;;;C:\2023\REPSWITCH21092023\REPSWITCH_excgange\REPSWITCH_excgange\data/480204_REPSWITCH1_version2_list4_2024-01-26_11h17.24.971_micRespv2l4_recorded\recording_micRespv2l4_2024-01-26_11h23.26.455.wav;368.715153;369.2152182;None;;;;;;480204;1;2024-01-26_11h17.24.971;REPSWITCH1_version2_list4;2022.2.4;143.9016642;
REPSWITCH1/PICTURE_235.png;aguja;type;gold;nontarget;1;NT;3;4;4;2;Stim4_Set3;1;switch;74;73;74;0;73;73;73;;;;;;;;;;;;;;;;;;;;;;;369.2152182;370.2917846;370.2917846;370.2917846;370.2917846;370.2917846;370.2917846;370.2917846;370.2917846;373.3129427;373.3129427;373.3129427;373.3129427;373.3129427;373.3129427;['a', 'g', 'u', 'j', 'a'];0;[1.198593900538981, 1.4746692003682256, 1.627207800745964, 1.8121873009949923, 1.9058781005442142];aguja;C:\2023\REPSWITCH21092023\REPSWITCH_excgange\REPSWITCH_excgange\data/480204_REPSWITCH1_version2_list4_2024-01-26_11h17.24.971_micRespv2l4_recorded\recording_micRespv2l4_2024-01-26_11h23.31.052.wav;373.3129427;373.8130074;None;;;;;;480204;1;2024-01-26_11h17.24.971;REPSWITCH1_version2_list4;2022.2.4;143.9016642;
REPSWITCH1/PICTURE_235.png;aguja;type;gold;repeat;1;T;3;4;4;2;Stim4_Set3;0;None;75;74;75;0;74;74;74;;;;;;;;;;;;;;;;;;;;;;;373.8130074;374.9174213;374.9174213;374.9174213;374.9174213;374.9174213;374.9174213;374.9174213;374.9174213;377.9455398;377.9455398;377.9455398;377.9455398;377.9455398;377.9455398;['a', 'u', 'g', 'u', 'j', 'a'];0;[0.6274116998538375, 0.9423683993518353, 1.681178099475801, 1.8028095997869968, 1.987155199982226, 2.0550026996061206];auguja;C:\2023\REPSWITCH21092023\REPSWITCH_excgange\REPSWITCH_excgange\data/480204_REPSWITCH1_version2_list4_2024-01-26_11h17.24.971_micRespv2l4_recorded\recording_micRespv2l4_2024-01-26_11h23.35.679.wav;377.9455398;;None;;;;;;480204;1;2024-01-26_11h17.24.971;REPSWITCH1_version2_list4;2022.2.4;143.9016642;
REPSWITCH1/PICTURE_576.png;guante;type;gold;filler;1;F;4;4;4;2;Stim1_Set3;1;repeat;76;75;76;0;75;75;75;;;;;;;;;;;;;;;;;;;;;;;378.445592;379.5013182;379.5013182;379.5013182;379.5013182;379.5013182;379.5013182;379.5013182;379.5013182;382.5294626;382.5294626;382.5294626;382.5294626;382.5294626;382.5294626;['g', 'u', 'a', 'n', 't', 'e'];0;[0.9281128998845816, 1.026770600117743, 1.1145449997857213, 1.2151528997346759, 1.3436886994168162, 1.3895239997655153];guante;C:\2023\REPSWITCH21092023\REPSWITCH_excgange\REPSWITCH_excgange\data/480204_REPSWITCH1_version2_list4_2024-01-26_11h17.24.971_micRespv2l4_recorded\recording_micRespv2l4_2024-01-26_11h23.40.263.wav;382.5294626;;None;;;;;;480204;1;2024-01-26_11h17.24.971;REPSWITCH1_version2_list4;2022.2.4;143.9016642;
REPSWITCH1/PICTURE_340.png;espejo;speak;darkblue;filler;2;F;4;4;4;2;Extra1;0;None;77;76;77;0;76;76;76;;;;;;;;;;;;;;;;;;;;;;;383.0295359;384.0922086;384.0922086;384.0922086;384.0922086;384.0922086;384.0922086;384.0922086;384.0922086;387.1133875;387.1133875;387.1133875;387.1133875;387.1133875;387.1133875;None;0;;;C:\2023\REPSWITCH21092023\REPSWITCH_excgange\REPSWITCH_excgange\data/480204_REPSWITCH1_version2_list4_2024-01-26_11h17.24.971_micRespv2l4_recorded\recording_micRespv2l4_2024-01-26_11h23.44.853.wav;387.1133875;387.6135437;None;;;;;;480204;1;2024-01-26_11h17.24.971;REPSWITCH1_version2_list4;2022.2.4;143.9016642;
REPSWITCH1/PICTURE_464.png;goma;speak;darkblue;filler;2;F;4;4;4;2;Stim6_Set3;1;repeat;78;77;78;0;77;77;77;;;;;;;;;;;;;;;;;;;;;;;387.6135437;388.7386122;388.7386122;388.7386122;388.7386122;388.7386122;388.7386122;388.7386122;388.7386122;391.7598391;391.7598391;391.7598391;391.7598391;391.7598391;391.7598391;None;0;;;C:\2023\REPSWITCH21092023\REPSWITCH_excgange\REPSWITCH_excgange\data/480204_REPSWITCH1_version2_list4_2024-01-26_11h17.24.971_micRespv2l4_recorded\recording_micRespv2l4_2024-01-26_11h23.49.498.wav;391.7598391;392.2598919;None;;;;;;480204;1;2024-01-26_11h17.24.971;REPSWITCH1_version2_list4;2022.2.4;143.9016642;
REPSWITCH1/PICTURE_338.png;regalo;type;gold;nontarget;1;NT;4;4;4;2;Stim6_Set4;0;None;79;78;79;0;78;78;78;;;;;;;;;;;;;;;;;;;;;;;392.2598919;393.3573031;393.3573031;393.3573031;393.3573031;393.3573031;393.3573031;393.3573031;393.3573031;396.3785813;396.3785813;396.3785813;396.3785813;396.3785813;396.3785813;['r', 'e', 'g', 'a', 'l', 'o'];0;[0.8853910006582737, 0.9508292004466057, 1.0992490006610751, 1.248992600478232, 1.5724178003147244, 1.7317150002345443];regalo;C:\2023\REPSWITCH21092023\REPSWITCH_excgange\REPSWITCH_excgange\data/480204_REPSWITCH1_version2_list4_2024-01-26_11h17.24.971_micRespv2l4_recorded\recording_micRespv2l4_2024-01-26_11h23.54.117.wav;396.3785813;396.8785759;None;;;;;;480204;1;2024-01-26_11h17.24.971;REPSWITCH1_version2_list4;2022.2.4;143.9016642;
REPSWITCH1/PICTURE_338.png;regalo;type;gold;repeat;1;T;4;4;4;2;Stim6_Set4;0;None;80;79;80;0;79;79;79;;;;;;;;;;;;;;;;;;;;;;;396.8785759;398.003714;398.003714;398.003714;398.003714;398.003714;398.003714;398.003714;398.003714;401.0318793;401.0318793;401.0318793;401.0318793;401.0318793;401.0318793;['r', 'e', 'g', 'a', 'l', 'o'];0;[0.8469146005809307, 0.8997266003862023, 1.0631477003917098, 1.1917511001229286, 1.2764646001160145, 1.4239497007802129];regalo;C:\2023\REPSWITCH21092023\REPSWITCH_excgange\REPSWITCH_excgange\data/480204_REPSWITCH1_version2_list4_2024-01-26_11h17.24.971_micRespv2l4_recorded\recording_micRespv2l4_2024-01-26_11h23.58.765.wav;401.0318793;;None;;;;;;480204;1;2024-01-26_11h17.24.971;REPSWITCH1_version2_list4;2022.2.4;143.9016642;
REPSWITCH1/PICTURE_8.png;pierna;type;gold;nontarget;1;NT;4;4;4;2;Stim3_Set4;1;repeat;81;80;81;0;80;80;80;;;;;;;;;;;;;;;;;;;;;;;401.5319298;402.6432432;402.6432432;402.6432432;402.6432432;402.6432432;402.6432432;402.6432432;402.6432432;405.6644359;405.6644359;405.6644359;405.6644359;405.6644359;405.6644359;['p', 'i', 'e', 'r', 'n', 'a'];0;[1.0659535005688667, 1.1636355007067323, 1.256674600765109, 1.3982826005667448, 1.5417639007791877, 1.6305703008547425];pierna;C:\2023\REPSWITCH21092023\REPSWITCH_excgange\REPSWITCH_excgange\data/480204_REPSWITCH1_version2_list4_2024-01-26_11h17.24.971_micRespv2l4_recorded\recording_micRespv2l4_2024-01-26_11h24.03.404.wav;405.6644359;406.1645213;None;;;;;;480204;1;2024-01-26_11h17.24.971;REPSWITCH1_version2_list4;2022.2.4;143.9016642;
REPSWITCH1/PICTURE_8.png;pierna;speak;darkblue;switch;2;T;4;4;4;2;Stim3_Set4;0;None;82;81;82;0;81;81;81;;;;;;;;;;;;;;;;;;;;;;;406.1645213;407.1993937;407.1993937;407.1993937;407.1993937;407.1993937;407.1993937;407.1993937;407.1993937;410.2205896;410.2205896;410.2205896;410.2205896;410.2205896;410.2205896;None;0;;;C:\2023\REPSWITCH21092023\REPSWITCH_excgange\REPSWITCH_excgange\data/480204_REPSWITCH1_version2_list4_2024-01-26_11h17.24.971_micRespv2l4_recorded\recording_micRespv2l4_2024-01-26_11h24.07.960.wav;410.2205896;410.7206748;None;;;;;;480204;1;2024-01-26_11h17.24.971;REPSWITCH1_version2_list4;2022.2.4;143.9016642;
REPSWITCH1/PICTURE_271.png;conejo;type;gold;filler;1;F;4;4;4;2;Stim7_Set3;0;None;83;82;83;0;82;82;82;;;;;;;;;;;;;;;;;;;;;;;410.7206748;411.8249839;411.8249839;411.8249839;411.8249839;411.8249839;411.8249839;411.8249839;411.8249839;414.8532393;414.8532393;414.8532393;414.8532393;414.8532393;414.8532393;['c', 'o', 'n', 'e', 'j', 'o'];0;[0.9427644005045295, 1.0790779003873467, 1.256755000911653, 1.3211536007001996, 1.4616154003888369, 1.5431237006559968];conejo;C:\2023\REPSWITCH21092023\REPSWITCH_excgange\REPSWITCH_excgange\data/480204_REPSWITCH1_version2_list4_2024-01-26_11h17.24.971_micRespv2l4_recorded\recording_micRespv2l4_2024-01-26_11h24.12.587.wav;414.8532393;;None;;;;;;480204;1;2024-01-26_11h17.24.971;REPSWITCH1_version2_list4;2022.2.4;143.9016642;
REPSWITCH1/PICTURE_687.png;camisa;speak;darkblue;nontarget;2;NT;4;4;4;2;Stim5_Set4;1;switch;84;83;84;0;83;83;83;;;;;;;;;;;;;;;;;;;;;;;415.3532336;416.4228195;416.4228195;416.4228195;416.4228195;416.4228195;416.4228195;416.4228195;416.4228195;419.4441122;419.4441122;419.4441122;419.4441122;419.4441122;419.4441122;None;0;;;C:\2023\REPSWITCH21092023\REPSWITCH_excgange\REPSWITCH_excgange\data/480204_REPSWITCH1_version2_list4_2024-01-26_11h17.24.971_micRespv2l4_recorded\recording_micRespv2l4_2024-01-26_11h24.17.183.wav;419.4441122;419.944102;None;;;;;;480204;1;2024-01-26_11h17.24.971;REPSWITCH1_version2_list4;2022.2.4;143.9016642;
REPSWITCH1/PICTURE_687.png;camisa;speak;darkblue;repeat;2;T;4;4;4;2;Stim5_Set4;0;None;85;84;85;0;84;84;84;;;;;;;;;;;;;;;;;;;;;;;419.944102;421.090081;421.090081;421.090081;421.090081;421.090081;421.090081;421.090081;421.090081;424.1113295;424.1113295;424.1113295;424.1113295;424.1113295;424.1113295;None;0;;;C:\2023\REPSWITCH21092023\REPSWITCH_excgange\REPSWITCH_excgange\data/480204_REPSWITCH1_version2_list4_2024-01-26_11h17.24.971_micRespv2l4_recorded\recording_micRespv2l4_2024-01-26_11h24.21.850.wav;424.1113295;424.6114604;None;;;;;;480204;1;2024-01-26_11h17.24.971;REPSWITCH1_version2_list4;2022.2.4;143.9016642;
REPSWITCH1/PICTURE_319.png;vaca;speak;darkblue;nontarget;2;NT;4;4;4;2;Stim1_Set4;0;None;86;85;86;0;85;85;85;;;;;;;;;;;;;;;;;;;;;;;424.6114604;425.6879482;425.6879482;425.6879482;425.6879482;425.6879482;425.6879482;425.6879482;425.6879482;428.7091187;428.7091187;428.7091187;428.7091187;428.7091187;428.7091187;None;0;;;C:\2023\REPSWITCH21092023\REPSWITCH_excgange\REPSWITCH_excgange\data/480204_REPSWITCH1_version2_list4_2024-01-26_11h17.24.971_micRespv2l4_recorded\recording_micRespv2l4_2024-01-26_11h24.26.448.wav;428.7091187;429.2092875;None;;;;;;480204;1;2024-01-26_11h17.24.971;REPSWITCH1_version2_list4;2022.2.4;143.9016642;
REPSWITCH1/PICTURE_319.png;vaca;type;gold;switch;1;T;4;4;4;2;Stim1_Set4;0;None;87;86;87;0;86;86;86;;;;;;;;;;;;;;;;;;;;;;;429.2092875;430.3621902;430.3621902;430.3621902;430.3621902;430.3621902;430.3621902;430.3621902;430.3621902;433.3833869;433.3833869;433.3833869;433.3833869;433.3833869;433.3833869;['v', 'a', 'c', 'a'];0;[0.9079999998211861, 1.0685018999502063, 1.2060260996222496, 1.317654499784112];vaca;C:\2023\REPSWITCH21092023\REPSWITCH_excgange\REPSWITCH_excgange\data/480204_REPSWITCH1_version2_list4_2024-01-26_11h17.24.971_micRespv2l4_recorded\recording_micRespv2l4_2024-01-26_11h24.31.123.wav;433.3833869;433.883435;None;;;;;;480204;1;2024-01-26_11h17.24.971;REPSWITCH1_version2_list4;2022.2.4;143.9016642;
REPSWITCH1/PICTURE_242.png;cartero;speak;darkblue;filler;2;F;4;4;4;2;Stim3_Set3;0;None;88;87;88;0;87;87;87;;;;;;;;;;;;;;;;;;;;;;;433.883435;435.0294101;435.0294101;435.0294101;435.0294101;435.0294101;435.0294101;435.0294101;435.0294101;438.0576065;438.0576065;438.0576065;438.0576065;438.0576065;438.0576065;None;0;;;C:\2023\REPSWITCH21092023\REPSWITCH_excgange\REPSWITCH_excgange\data/480204_REPSWITCH1_version2_list4_2024-01-26_11h17.24.971_micRespv2l4_recorded\recording_micRespv2l4_2024-01-26_11h24.35.790.wav;438.0576065;;None;;;;;;480204;1;2024-01-26_11h17.24.971;REPSWITCH1_version2_list4;2022.2.4;143.9016642;
REPSWITCH1/PICTURE_498.png;taza;type;gold;nontarget;1;NT;4;4;4;2;Stim4_Set4;1;switch;89;88;89;0;88;88;88;;;;;;;;;;;;;;;;;;;;;;;438.5576767;439.6411397;439.6411397;439.6411397;439.6411397;439.6411397;439.6411397;439.6411397;439.6411397;442.6623804;442.6623804;442.6623804;442.6623804;442.6623804;442.6623804;['t', 'a', 'z', 'a'];0;[0.8048158995807171, 0.9682751996442676, 1.2037754002958536, 1.255558899603784];taza;C:\2023\REPSWITCH21092023\REPSWITCH_excgange\REPSWITCH_excgange\data/480204_REPSWITCH1_version2_list4_2024-01-26_11h17.24.971_micRespv2l4_recorded\recording_micRespv2l4_2024-01-26_11h24.40.402.wav;442.6623804;443.1624422;None;;;;;;480204;1;2024-01-26_11h17.24.971;REPSWITCH1_version2_list4;2022.2.4;143.9016642;
REPSWITCH1/PICTURE_498.png;taza;speak;darkblue;switch;2;T;4;4;4;2;Stim4_Set4;0;None;90;89;90;0;89;89;89;;;;;;;;;;;;;;;;;;;;;;;443.1624422;444.3084322;444.3084322;444.3084322;444.3084322;444.3084322;444.3084322;444.3084322;444.3084322;447.3366065;447.3366065;447.3366065;447.3366065;447.3366065;447.3366065;None;0;;;C:\2023\REPSWITCH21092023\REPSWITCH_excgange\REPSWITCH_excgange\data/480204_REPSWITCH1_version2_list4_2024-01-26_11h17.24.971_micRespv2l4_recorded\recording_micRespv2l4_2024-01-26_11h24.45.070.wav;447.3366065;;None;;;;;;480204;1;2024-01-26_11h17.24.971;REPSWITCH1_version2_list4;2022.2.4;143.9016642;
REPSWITCH1/PICTURE_391.png;cadena;type;gold;filler;1;F;4;4;4;2;Extra2;0;None;91;90;91;0;90;90;90;;;;;;;;;;;;;;;;;;;;;;;447.8366675;448.9965603;448.9965603;448.9965603;448.9965603;448.9965603;448.9965603;448.9965603;448.9965603;452.0247746;452.0247746;452.0247746;452.0247746;452.0247746;452.0247746;['c', 'a', 'd', 'e', 'n', 'a'];0;[0.6567238997668028, 0.8381647001951933, 0.9618533002212644, 1.1445452002808452, 1.251680700108409, 1.3742432994768023];cadena;C:\2023\REPSWITCH21092023\REPSWITCH_excgange\REPSWITCH_excgange\data/480204_REPSWITCH1_version2_list4_2024-01-26_11h17.24.971_micRespv2l4_recorded\recording_micRespv2l4_2024-01-26_11h24.49.757.wav;452.0247746;;None;;;;;;480204;1;2024-01-26_11h17.24.971;REPSWITCH1_version2_list4;2022.2.4;143.9016642;
REPSWITCH1/PICTURE_610.png;miel;speak;darkblue;filler;2;F;4;4;4;2;Stim2_Set3;0;None;92;91;92;0;91;91;91;;;;;;;;;;;;;;;;;;;;;;;452.5247728;453.6082417;453.6082417;453.6082417;453.6082417;453.6082417;453.6082417;453.6082417;453.6082417;456.6294931;456.6294931;456.6294931;456.6294931;456.6294931;456.6294931;None;0;;;C:\2023\REPSWITCH21092023\REPSWITCH_excgange\REPSWITCH_excgange\data/480204_REPSWITCH1_version2_list4_2024-01-26_11h17.24.971_micRespv2l4_recorded\recording_micRespv2l4_2024-01-26_11h24.54.369.wav;456.6294931;457.1295438;None;;;;;;480204;1;2024-01-26_11h17.24.971;REPSWITCH1_version2_list4;2022.2.4;143.9016642;
REPSWITCH1/PICTURE_48.png;bombero;speak;darkblue;nontarget;2;NT;4;4;4;2;Stim7_Set4;1;repeat;93;92;93;0;92;92;92;;;;;;;;;;;;;;;;;;;;;;;457.1295438;458.1713777;458.1713777;458.1713777;458.1713777;458.1713777;458.1713777;458.1713777;458.1713777;461.1926338;461.1926338;461.1926338;461.1926338;461.1926338;461.1926338;None;0;;;C:\2023\REPSWITCH21092023\REPSWITCH_excgange\REPSWITCH_excgange\data/480204_REPSWITCH1_version2_list4_2024-01-26_11h17.24.971_micRespv2l4_recorded\recording_micRespv2l4_2024-01-26_11h24.58.932.wav;461.1926338;461.692657;None;;;;;;480204;1;2024-01-26_11h17.24.971;REPSWITCH1_version2_list4;2022.2.4;143.9016642;
REPSWITCH1/PICTURE_48.png;bombero;speak;darkblue;repeat;2;T;4;4;4;2;Stim7_Set4;0;None;94;93;94;0;93;93;93;;;;;;;;;;;;;;;;;;;;;;;461.692657;462.7553129;462.7553129;462.7553129;462.7553129;462.7553129;462.7553129;462.7553129;462.7553129;465.7764924;465.7764924;465.7764924;465.7764924;465.7764924;465.7764924;None;0;;;C:\2023\REPSWITCH21092023\REPSWITCH_excgange\REPSWITCH_excgange\data/480204_REPSWITCH1_version2_list4_2024-01-26_11h17.24.971_micRespv2l4_recorded\recording_micRespv2l4_2024-01-26_11h25.03.516.wav;465.7764924;466.2765807;None;;;;;;480204;1;2024-01-26_11h17.24.971;REPSWITCH1_version2_list4;2022.2.4;143.9016642;
REPSWITCH1/PICTURE_320.png;iglesia;type;gold;filler;1;F;4;4;4;2;Stim8_Set3;1;switch;95;94;95;0;94;94;94;;;;;;;;;;;;;;;;;;;;;;;466.2765807;467.2906152;467.2906152;467.2906152;467.2906152;467.2906152;467.2906152;467.2906152;467.2906152;470.3187908;470.3187908;470.3187908;470.3187908;470.3187908;470.3187908;['i', 'g', 'l', 'e', 's', 'i', 'a'];0;[0.9762744000181556, 1.0580267999321222, 1.2516876002773643, 1.3333764001727104, 1.4842296000570059, 1.5260845003649592, 1.6486905002966523];iglesia;C:\2023\REPSWITCH21092023\REPSWITCH_excgange\REPSWITCH_excgange\data/480204_REPSWITCH1_version2_list4_2024-01-26_11h17.24.971_micRespv2l4_recorded\recording_micRespv2l4_2024-01-26_11h25.08.052.wav;470.3187908;;None;;;;;;480204;1;2024-01-26_11h17.24.971;REPSWITCH1_version2_list4;2022.2.4;143.9016642;
REPSWITCH1/PICTURE_35.png;oreja;speak;darkblue;filler;2;F;4;4;4;2;Stim5_Set3;0;None;96;95;96;0;95;95;95;;;;;;;;;;;;;;;;;;;;;;;470.8188339;471.853696;471.853696;471.853696;471.853696;471.853696;471.853696;471.853696;471.853696;474.8749242;474.8749242;474.8749242;474.8749242;474.8749242;474.8749242;None;0;;;C:\2023\REPSWITCH21092023\REPSWITCH_excgange\REPSWITCH_excgange\data/480204_REPSWITCH1_version2_list4_2024-01-26_11h17.24.971_micRespv2l4_recorded\recording_micRespv2l4_2024-01-26_11h25.12.615.wav;474.8749242;475.3749736;None;;;;;;480204;1;2024-01-26_11h17.24.971;REPSWITCH1_version2_list4;2022.2.4;143.9016642;
REPSWITCH1/PICTURE_728.png;pulpo;speak;darkblue;nontarget;2;NT;4;4;4;2;Stim8_Set4;1;repeat;97;96;97;0;96;96;96;;;;;;;;;;;;;;;;;;;;;;;475.3749736;476.4794095;476.4794095;476.4794095;476.4794095;476.4794095;476.4794095;476.4794095;476.4794095;479.5074875;479.5074875;479.5074875;479.5074875;479.5074875;479.5074875;None;0;;;C:\2023\REPSWITCH21092023\REPSWITCH_excgange\REPSWITCH_excgange\data/480204_REPSWITCH1_version2_list4_2024-01-26_11h17.24.971_micRespv2l4_recorded\recording_micRespv2l4_2024-01-26_11h25.17.241.wav;479.5074875;;None;;;;;;480204;1;2024-01-26_11h17.24.971;REPSWITCH1_version2_list4;2022.2.4;143.9016642;
REPSWITCH1/PICTURE_728.png;pulpo;type;gold;switch;1;T;4;4;4;2;Stim8_Set4;0;None;98;97;98;0;97;97;97;;;;;;;;;;;;;;;;;;;;;;;480.0075685;481.0702309;481.0702309;481.0702309;481.0702309;481.0702309;481.0702309;481.0702309;481.0702309;484.091443;484.091443;484.091443;484.091443;484.091443;484.091443;['p', 'u', 'k', 'backspace', 'l', 'p', 'o'];0;[0.8551402995362878, 0.9468652000650764, 1.1990122999995947, 1.653783599846065, 1.8969872994348407, 2.103346399962902, 2.436103000305593];pulpo;C:\2023\REPSWITCH21092023\REPSWITCH_excgange\REPSWITCH_excgange\data/480204_REPSWITCH1_version2_list4_2024-01-26_11h17.24.971_micRespv2l4_recorded\recording_micRespv2l4_2024-01-26_11h25.21.831.wav;484.091443;484.5915062;None;;;;;;480204;1;2024-01-26_11h17.24.971;REPSWITCH1_version2_list4;2022.2.4;143.9016642;
REPSWITCH1/PICTURE_590.png;escoba;speak;darkblue;filler;2;F;4;4;4;2;Extra3;0;None;99;98;99;0;98;98;98;;;;;;;;;;;;;;;;;;;;;;;484.5915062;485.7513787;485.7513787;485.7513787;485.7513787;485.7513787;485.7513787;485.7513787;485.7513787;488.7795438;488.7795438;488.7795438;488.7795438;488.7795438;488.7795438;None;0;;;C:\2023\REPSWITCH21092023\REPSWITCH_excgange\REPSWITCH_excgange\data/480204_REPSWITCH1_version2_list4_2024-01-26_11h17.24.971_micRespv2l4_recorded\recording_micRespv2l4_2024-01-26_11h25.26.513.wav;488.7795438;;None;;;;;;480204;1;2024-01-26_11h17.24.971;REPSWITCH1_version2_list4;2022.2.4;143.9016642;
REPSWITCH1/PICTURE_235.png;aguja;type;gold;filler;1;F;4;4;4;2;Stim4_Set3;0;None;100;99;100;0;99;99;99;;;;;;;;;;;;;;;;;;;;;;;489.2796188;490.3561627;490.3561627;490.3561627;490.3561627;490.3561627;490.3561627;490.3561627;490.3561627;493.3773924;493.3773924;493.3773924;493.3773924;493.3773924;493.3773924;['a', 'g', 'u', 'a', 'backspace', 'j', 'a'];0;[0.8067028000950813, 1.022006600163877, 1.1346367998048663, 1.42066500056535, 1.6735546002164483, 1.8779524005949497, 1.9548938004299998];aguja;C:\2023\REPSWITCH21092023\REPSWITCH_excgange\REPSWITCH_excgange\data/480204_REPSWITCH1_version2_list4_2024-01-26_11h17.24.971_micRespv2l4_recorded\recording_micRespv2l4_2024-01-26_11h25.31.117.wav;493.3773924;493.8775139;None;;;;;;480204;1;2024-01-26_11h17.24.971;REPSWITCH1_version2_list4;2022.2.4;143.9016642;
REPSWITCH1/PICTURE_719.png;baño;type;gold;nontarget;1;NT;4;4;4;2;Stim2_Set4;1;repeat;101;100;101;0;100;100;100;;;;;;;;;;;;;;;;;;;;;;;493.8775139;494.9609306;494.9609306;494.9609306;494.9609306;494.9609306;494.9609306;494.9609306;494.9609306;497.989116;497.989116;497.989116;497.989116;497.989116;497.989116;['b', 'a', 'ñ', 'o'];0;[0.8915162002667785, 1.1062334002926946, 1.3862859001383185, 1.538702099584043];baño;C:\2023\REPSWITCH21092023\REPSWITCH_excgange\REPSWITCH_excgange\data/480204_REPSWITCH1_version2_list4_2024-01-26_11h17.24.971_micRespv2l4_recorded\recording_micRespv2l4_2024-01-26_11h25.35.722.wav;497.989116;;None;;;;;;480204;1;2024-01-26_11h17.24.971;REPSWITCH1_version2_list4;2022.2.4;143.9016642;
REPSWITCH1/PICTURE_719.png;baño;type;gold;repeat;1;T;4;4;4;2;Stim2_Set4;0;None;102;101;102;0;101;101;101;;;;;;;;;;;;;;;;;;;;;;;498.4892372;499.551783;499.551783;499.551783;499.551783;499.551783;499.551783;499.551783;499.551783;502.5799624;502.5799624;502.5799624;502.5799624;502.5799624;502.5799624;['b', 'a', 'ñ', 'o'];0;[0.5143423993140459, 0.6528790993615985, 0.7974299993366003, 0.9977437993511558];baño;C:\2023\REPSWITCH21092023\REPSWITCH_excgange\REPSWITCH_excgange\data/480204_REPSWITCH1_version2_list4_2024-01-26_11h17.24.971_micRespv2l4_recorded\recording_micRespv2l4_2024-01-26_11h25.40.313.wav;502.5799624;;space;503.0800293;503.0800293;12.4807865;;;480204;1;2024-01-26_11h17.24.971;REPSWITCH1_version2_list4;2022.2.4;143.9016642;
REPSWITCH1/PICTURE_646.png;tronco;speak;darkblue;filler;2;F;1;3;4;2;Extra4;0;None;103;102;1;0;102;102;102;;;;;;;;;;;;;;;;;;;;;;;515.5677824;516.6512501;516.6512501;516.6512501;516.6512501;516.6512501;516.6512501;516.6512501;516.6512501;519.6795042;519.6795042;519.6795042;519.6795042;519.6795042;519.6795042;None;0;;;C:\2023\REPSWITCH21092023\REPSWITCH_excgange\REPSWITCH_excgange\data/480204_REPSWITCH1_version2_list4_2024-01-26_11h17.24.971_micRespv2l4_recorded\recording_micRespv2l4_2024-01-26_11h25.57.412.wav;519.6795042;;None;;;;;;480204;1;2024-01-26_11h17.24.971;REPSWITCH1_version2_list4;2022.2.4;143.9016642;
REPSWITCH1/PICTURE_340.png;espejo;type;gold;filler;1;F;1;3;4;2;Extra1;0;None;104;103;2;0;103;103;103;;;;;;;;;;;;;;;;;;;;;;;520.1794919;521.2907629;521.2907629;521.2907629;521.2907629;521.2907629;521.2907629;521.2907629;521.2907629;524.3119829;524.3119829;524.3119829;524.3119829;524.3119829;524.3119829;['e', 'w', 's', 'p', 'backspace', 'backspace', 'backspace', 's', 'p', 'e', 'j', 'o'];0;[0.9070704998448491, 1.1004018001258373, 1.1303505999967456, 1.1931163994595408, 1.618304600007832, 1.739933899603784, 1.8585517993196845, 1.927436599507928, 2.104466799646616, 2.1912313997745514, 2.3148163994774222, 2.4004124999046326];espejo;C:\2023\REPSWITCH21092023\REPSWITCH_excgange\REPSWITCH_excgange\data/480204_REPSWITCH1_version2_list4_2024-01-26_11h17.24.971_micRespv2l4_recorded\recording_micRespv2l4_2024-01-26_11h26.02.052.wav;524.3119829;524.8120668;None;;;;;;480204;1;2024-01-26_11h17.24.971;REPSWITCH1_version2_list4;2022.2.4;143.9016642;
REPSWITCH1/PICTURE_338.png;regalo;speak;darkblue;filler;2;F;1;3;4;2;Stim6_Set4;0;None;105;104;3;0;104;104;104;;;;;;;;;;;;;;;;;;;;;;;524.8120668;525.9719289;525.9719289;525.9719289;525.9719289;525.9719289;525.9719289;525.9719289;525.9719289;529.0001862;529.0001862;529.0001862;529.0001862;529.0001862;529.0001862;None;0;;;C:\2023\REPSWITCH21092023\REPSWITCH_excgange\REPSWITCH_excgange\data/480204_REPSWITCH1_version2_list4_2024-01-26_11h17.24.971_micRespv2l4_recorded\recording_micRespv2l4_2024-01-26_11h26.06.733.wav;529.0001862;;None;;;;;;480204;1;2024-01-26_11h17.24.971;REPSWITCH1_version2_list4;2022.2.4;143.9016642;
REPSWITCH1/PICTURE_142.png;vaso;speak;darkblue;nontarget;2;NT;1;3;4;2;Stim7_Set1;1;repeat;106;105;4;0;105;105;105;;;;;;;;;;;;;;;;;;;;;;;529.5001847;530.5419806;530.5419806;530.5419806;530.5419806;530.5419806;530.5419806;530.5419806;530.5419806;533.5632292;533.5632292;533.5632292;533.5632292;533.5632292;533.5632292;None;0;;;C:\2023\REPSWITCH21092023\REPSWITCH_excgange\REPSWITCH_excgange\data/480204_REPSWITCH1_version2_list4_2024-01-26_11h17.24.971_micRespv2l4_recorded\recording_micRespv2l4_2024-01-26_11h26.11.303.wav;533.5632292;534.063283;None;;;;;;480204;1;2024-01-26_11h17.24.971;REPSWITCH1_version2_list4;2022.2.4;143.9016642;
REPSWITCH1/PICTURE_142.png;vaso;speak;darkblue;repeat;2;T;1;3;4;2;Stim7_Set1;0;None;107;106;5;0;106;106;106;;;;;;;;;;;;;;;;;;;;;;;534.063283;535.1954213;535.1954213;535.1954213;535.1954213;535.1954213;535.1954213;535.1954213;535.1954213;538.2166126;538.2166126;538.2166126;538.2166126;538.2166126;538.2166126;None;0;;;C:\2023\REPSWITCH21092023\REPSWITCH_excgange\REPSWITCH_excgange\data/480204_REPSWITCH1_version2_list4_2024-01-26_11h17.24.971_micRespv2l4_recorded\recording_micRespv2l4_2024-01-26_11h26.15.956.wav;538.2166126;538.7166662;None;;;;;;480204;1;2024-01-26_11h17.24.971;REPSWITCH1_version2_list4;2022.2.4;143.9016642;
REPSWITCH1/PICTURE_498.png;taza;type;gold;filler;1;F;1;3;4;2;Stim4_Set4;0;None;108;107;6;0;107;107;107;;;;;;;;;;;;;;;;;;;;;;;538.7166662;539.8974;539.8974;539.8974;539.8974;539.8974;539.8974;539.8974;539.8974;542.918595;542.918595;542.918595;542.918595;542.918595;542.918595;['t', 'a', 'z', 'a'];0;[0.6360435001552105, 0.8234338006004691, 1.0297463005408645, 1.1237015007063746];taza;C:\2023\REPSWITCH21092023\REPSWITCH_excgange\REPSWITCH_excgange\data/480204_REPSWITCH1_version2_list4_2024-01-26_11h17.24.971_micRespv2l4_recorded\recording_micRespv2l4_2024-01-26_11h26.20.657.wav;542.918595;543.418681;None;;;;;;480204;1;2024-01-26_11h17.24.971;REPSWITCH1_version2_list4;2022.2.4;143.9016642;
REPSWITCH1/PICTURE_16.png;cazador;speak;darkblue;nontarget;2;NT;1;3;4;2;Stim6_Set1;1;switch;109;108;7;0;108;108;108;;;;;;;;;;;;;;;;;;;;;;;543.418681;544.4882849;544.4882849;544.4882849;544.4882849;544.4882849;544.4882849;544.4882849;544.4882849;547.5095023;547.5095023;547.5095023;547.5095023;547.5095023;547.5095023;None;0;;;C:\2023\REPSWITCH21092023\REPSWITCH_excgange\REPSWITCH_excgange\data/480204_REPSWITCH1_version2_list4_2024-01-26_11h17.24.971_micRespv2l4_recorded\recording_micRespv2l4_2024-01-26_11h26.25.249.wav;547.5095023;548.0095628;None;;;;;;480204;1;2024-01-26_11h17.24.971;REPSWITCH1_version2_list4;2022.2.4;143.9016642;
REPSWITCH1/PICTURE_16.png;cazador;speak;darkblue;repeat;2;T;1;3;4;2;Stim6_Set1;0;None;110;109;8;0;109;109;109;;;;;;;;;;;;;;;;;;;;;;;548.0095628;549.1903411;549.1903411;549.1903411;549.1903411;549.1903411;549.1903411;549.1903411;549.1903411;552.2115547;552.2115547;552.2115547;552.2115547;552.2115547;552.2115547;None;0;;;C:\2023\REPSWITCH21092023\REPSWITCH_excgange\REPSWITCH_excgange\data/480204_REPSWITCH1_version2_list4_2024-01-26_11h17.24.971_micRespv2l4_recorded\recording_micRespv2l4_2024-01-26_11h26.29.951.wav;552.2115547;552.7115911;None;;;;;;480204;1;2024-01-26_11h17.24.971;REPSWITCH1_version2_list4;2022.2.4;143.9016642;
REPSWITCH1/PICTURE_719.png;baño;type;gold;filler;1;F;1;3;4;2;Stim2_Set4;0;None;111;110;9;0;110;110;110;;;;;;;;;;;;;;;;;;;;;;;552.7115911;553.8020124;553.8020124;553.8020124;553.8020124;553.8020124;553.8020124;553.8020124;553.8020124;556.8302291;556.8302291;556.8302291;556.8302291;556.8302291;556.8302291;['b', 'a', 'ñ', 'o'];0;[0.9729298995807767, 1.0695596002042294, 1.323743600398302, 2.0478371996432543];baño;C:\2023\REPSWITCH21092023\REPSWITCH_excgange\REPSWITCH_excgange\data/480204_REPSWITCH1_version2_list4_2024-01-26_11h17.24.971_micRespv2l4_recorded\recording_micRespv2l4_2024-01-26_11h26.34.563.wav;556.8302291;;None;;;;;;480204;1;2024-01-26_11h17.24.971;REPSWITCH1_version2_list4;2022.2.4;143.9016642;
REPSWITCH1/PICTURE_169.png;espalda;speak;darkblue;nontarget;2;NT;1;3;4;2;Stim8_Set1;0;None;112;111;10;0;111;111;111;;;;;;;;;;;;;;;;;;;;;;;557.3302229;558.5803837;558.5803837;558.5803837;558.5803837;558.5803837;558.5803837;558.5803837;558.5803837;561.6015953;561.6015953;561.6015953;561.6015953;561.6015953;561.6015953;['e', 'backspace'];0;[0.7849137997254729, 1.2137761004269123];;C:\2023\REPSWITCH21092023\REPSWITCH_excgange\REPSWITCH_excgange\data/480204_REPSWITCH1_version2_list4_2024-01-26_11h17.24.971_micRespv2l4_recorded\recording_micRespv2l4_2024-01-26_11h26.39.341.wav;561.6015953;562.1017011;None;;;;;;480204;1;2024-01-26_11h17.24.971;REPSWITCH1_version2_list4;2022.2.4;143.9016642;
REPSWITCH1/PICTURE_169.png;espalda;type;gold;switch;1;T;1;3;4;2;Stim8_Set1;0;None;113;112;11;0;112;112;112;;;;;;;;;;;;;;;;;;;;;;;562.1017011;563.2268588;563.2268588;563.2268588;563.2268588;563.2268588;563.2268588;563.2268588;563.2268588;566.2481612;566.2481612;566.2481612;566.2481612;566.2481612;566.2481612;['e', 's', 'p', 'a', 'l', 'd', 'a'];0;[0.9380510998889804, 1.0995426001027226, 1.2390413004904985, 1.3350415006279945, 1.4496859004721045, 1.580248000100255, 1.6280844006687403];espalda;C:\2023\REPSWITCH21092023\REPSWITCH_excgange\REPSWITCH_excgange\data/480204_REPSWITCH1_version2_list4_2024-01-26_11h17.24.971_micRespv2l4_recorded\recording_micRespv2l4_2024-01-26_11h26.43.987.wav;566.2481612;566.7481417;None;;;;;;480204;1;2024-01-26_11h17.24.971;REPSWITCH1_version2_list4;2022.2.4;143.9016642;
REPSWITCH1/PICTURE_687.png;camisa;type;gold;filler;1;F;1;3;4;2;Stim5_Set4;0;None;114;113;12;0;113;113;113;;;;;;;;;;;;;;;;;;;;;;;566.7481417;567.8177571;567.8177571;567.8177571;567.8177571;567.8177571;567.8177571;567.8177571;567.8177571;570.83892;570.83892;570.83892;570.83892;570.83892;570.83892;['c', 'a', 'm', 'i', 's', 'a'];0;[1.0384197998791933, 1.170958699658513, 1.2845732998102903, 1.355324000120163, 1.4470426999032497, 1.4946391005069017];camisa;C:\2023\REPSWITCH21092023\REPSWITCH_excgange\REPSWITCH_excgange\data/480204_REPSWITCH1_version2_list4_2024-01-26_11h17.24.971_micRespv2l4_recorded\recording_micRespv2l4_2024-01-26_11h26.48.578.wav;570.83892;571.3390102;None;;;;;;480204;1;2024-01-26_11h17.24.971;REPSWITCH1_version2_list4;2022.2.4;143.9016642;
REPSWITCH1/PICTURE_178.png;puente;type;gold;nontarget;1;NT;1;3;4;2;Stim1_Set1;1;repeat;115;114;13;0;114;114;114;;;;;;;;;;;;;;;;;;;;;;;571.3390102;572.5127889;572.5127889;572.5127889;572.5127889;572.5127889;572.5127889;572.5127889;572.5127889;575.5340539;575.5340539;575.5340539;575.5340539;575.5340539;575.5340539;['p', 'u', 'e', 'n', 't', 'e'];0;[1.2974052000790834, 1.3740260004997253, 1.5115685006603599, 1.6600456004962325, 1.7697743009775877, 1.8265228001400828];puente;C:\2023\REPSWITCH21092023\REPSWITCH_excgange\REPSWITCH_excgange\data/480204_REPSWITCH1_version2_list4_2024-01-26_11h17.24.971_micRespv2l4_recorded\recording_micRespv2l4_2024-01-26_11h26.53.273.wav;575.5340539;576.0340701;None;;;;;;480204;1;2024-01-26_11h17.24.971;REPSWITCH1_version2_list4;2022.2.4;143.9016642;
REPSWITCH1/PICTURE_178.png;puente;speak;darkblue;switch;2;T;1;3;4;2;Stim1_Set1;0;None;116;115;14;0;115;115;115;;;;;;;;;;;;;;;;;;;;;;;576.0340701;577.0828124;577.0828124;577.0828124;577.0828124;577.0828124;577.0828124;577.0828124;577.0828124;580.1040273;580.1040273;580.1040273;580.1040273;580.1040273;580.1040273;None;0;;;C:\2023\REPSWITCH21092023\REPSWITCH_excgange\REPSWITCH_excgange\data/480204_REPSWITCH1_version2_list4_2024-01-26_11h17.24.971_micRespv2l4_recorded\recording_micRespv2l4_2024-01-26_11h26.57.843.wav;580.1040273;580.6041267;None;;;;;;480204;1;2024-01-26_11h17.24.971;REPSWITCH1_version2_list4;2022.2.4;143.9016642;
REPSWITCH1/PICTURE_128.png;muñeca;speak;darkblue;nontarget;2;NT;1;3;4;2;Stim4_Set1;1;repeat;117;116;15;0;116;116;116;;;;;;;;;;;;;;;;;;;;;;;580.6041267;581.6320499;581.6320499;581.6320499;581.6320499;581.6320499;581.6320499;581.6320499;581.6320499;584.6533224;584.6533224;584.6533224;584.6533224;584.6533224;584.6533224;None;0;;;C:\2023\REPSWITCH21092023\REPSWITCH_excgange\REPSWITCH_excgange\data/480204_REPSWITCH1_version2_list4_2024-01-26_11h17.24.971_micRespv2l4_recorded\recording_micRespv2l4_2024-01-26_11h27.02.393.wav;584.6533224;585.1533357;None;;;;;;480204;1;2024-01-26_11h17.24.971;REPSWITCH1_version2_list4;2022.2.4;143.9016642;
REPSWITCH1/PICTURE_128.png;muñeca;type;gold;switch;1;T;1;3;4;2;Stim4_Set1;0;None;118;117;16;0;117;117;117;;;;;;;;;;;;;;;;;;;;;;;585.1533357;586.3410009;586.3410009;586.3410009;586.3410009;586.3410009;586.3410009;586.3410009;586.3410009;589.3621912;589.3621912;589.3621912;589.3621912;589.3621912;589.3621912;['m', 'u', 'ñ', 'e', 'c', 'a'];0;[0.7202329998835921, 1.003647900186479, 1.3539009997621179, 1.4464801996946335, 2.21731820050627, 2.41666470002383];muñeca;C:\2023\REPSWITCH21092023\REPSWITCH_excgange\REPSWITCH_excgange\data/480204_REPSWITCH1_version2_list4_2024-01-26_11h17.24.971_micRespv2l4_recorded\recording_micRespv2l4_2024-01-26_11h27.07.102.wav;589.3621912;589.8622963;None;;;;;;480204;1;2024-01-26_11h17.24.971;REPSWITCH1_version2_list4;2022.2.4;143.9016642;
REPSWITCH1/PICTURE_319.png;vaca;speak;darkblue;filler;2;F;1;3;4;2;Stim1_Set4;1;switch;119;118;17;0;118;118;118;;;;;;;;;;;;;;;;;;;;;;;589.8622963;590.9249107;590.9249107;590.9249107;590.9249107;590.9249107;590.9249107;590.9249107;590.9249107;593.9461245;593.9461245;593.9461245;593.9461245;593.9461245;593.9461245;None;0;;;C:\2023\REPSWITCH21092023\REPSWITCH_excgange\REPSWITCH_excgange\data/480204_REPSWITCH1_version2_list4_2024-01-26_11h17.24.971_micRespv2l4_recorded\recording_micRespv2l4_2024-01-26_11h27.11.685.wav;593.9461245;594.4462261;None;;;;;;480204;1;2024-01-26_11h17.24.971;REPSWITCH1_version2_list4;2022.2.4;143.9016642;
REPSWITCH1/PICTURE_728.png;pulpo;speak;darkblue;filler;2;F;1;3;4;2;Stim8_Set4;0;None;120;119;18;0;119;119;119;;;;;;;;;;;;;;;;;;;;;;;594.4462261;595.4950282;595.4950282;595.4950282;595.4950282;595.4950282;595.4950282;595.4950282;595.4950282;598.5231529;598.5231529;598.5231529;598.5231529;598.5231529;598.5231529;None;0;;;C:\2023\REPSWITCH21092023\REPSWITCH_excgange\REPSWITCH_excgange\data/480204_REPSWITCH1_version2_list4_2024-01-26_11h17.24.971_micRespv2l4_recorded\recording_micRespv2l4_2024-01-26_11h27.16.256.wav;598.5231529;;None;;;;;;480204;1;2024-01-26_11h17.24.971;REPSWITCH1_version2_list4;2022.2.4;143.9016642;
REPSWITCH1/PICTURE_381.png;fresa;type;gold;nontarget;1;NT;1;3;4;2;Stim2_Set1;1;switch;121;120;19;0;120;120;120;;;;;;;;;;;;;;;;;;;;;;;599.0231867;600.0928294;600.0928294;600.0928294;600.0928294;600.0928294;600.0928294;600.0928294;600.0928294;603.1209448;603.1209448;603.1209448;603.1209448;603.1209448;603.1209448;['f', 'r', 'e', 's', 'a'];0;[0.74731620028615, 0.9705630000680685, 1.037325699813664, 1.2649467997252941, 1.331623500213027];fresa;C:\2023\REPSWITCH21092023\REPSWITCH_excgange\REPSWITCH_excgange\data/480204_REPSWITCH1_version2_list4_2024-01-26_11h17.24.971_micRespv2l4_recorded\recording_micRespv2l4_2024-01-26_11h27.20.854.wav;603.1209448;;None;;;;;;480204;1;2024-01-26_11h17.24.971;REPSWITCH1_version2_list4;2022.2.4;143.9016642;
REPSWITCH1/PICTURE_381.png;fresa;type;gold;repeat;1;T;1;3;4;2;Stim2_Set1;0;None;122;121;20;0;121;121;121;;;;;;;;;;;;;;;;;;;;;;;603.6211226;604.7393014;604.7393014;604.7393014;604.7393014;604.7393014;604.7393014;604.7393014;604.7393014;607.7604541;607.7604541;607.7604541;607.7604541;607.7604541;607.7604541;['f', 'r', 'e', 's', 'a'];0;[0.6282457998022437, 0.8315142998471856, 0.9242306994274259, 1.1434078002348542, 1.207112300209701];fresa;C:\2023\REPSWITCH21092023\REPSWITCH_excgange\REPSWITCH_excgange\data/480204_REPSWITCH1_version2_list4_2024-01-26_11h17.24.971_micRespv2l4_recorded\recording_micRespv2l4_2024-01-26_11h27.25.500.wav;607.7604541;608.2605421;None;;;;;;480204;1;2024-01-26_11h17.24.971;REPSWITCH1_version2_list4;2022.2.4;143.9016642;
REPSWITCH1/PICTURE_8.png;pierna;speak;darkblue;filler;2;F;1;3;4;2;Stim3_Set4;0;None;123;122;21;0;122;122;122;;;;;;;;;;;;;;;;;;;;;;;608.2605421;609.309279;609.309279;609.309279;609.309279;609.309279;609.309279;609.309279;609.309279;612.3304879;612.3304879;612.3304879;612.3304879;612.3304879;612.3304879;None;0;;;C:\2023\REPSWITCH21092023\REPSWITCH_excgange\REPSWITCH_excgange\data/480204_REPSWITCH1_version2_list4_2024-01-26_11h17.24.971_micRespv2l4_recorded\recording_micRespv2l4_2024-01-26_11h27.30.070.wav;612.3304879;612.8305923;None;;;;;;480204;1;2024-01-26_11h17.24.971;REPSWITCH1_version2_list4;2022.2.4;143.9016642;
REPSWITCH1/PICTURE_48.png;bombero;speak;darkblue;filler;2;F;1;3;4;2;Stim7_Set4;0;None;124;123;22;0;123;123;123;;;;;;;;;;;;;;;;;;;;;;;612.8305923;614.0252144;614.0252144;614.0252144;614.0252144;614.0252144;614.0252144;614.0252144;614.0252144;617.0533562;617.0533562;617.0533562;617.0533562;617.0533562;617.0533562;None;0;;;C:\2023\REPSWITCH21092023\REPSWITCH_excgange\REPSWITCH_excgange\data/480204_REPSWITCH1_version2_list4_2024-01-26_11h17.24.971_micRespv2l4_recorded\recording_micRespv2l4_2024-01-26_11h27.34.787.wav;617.0533562;;None;;;;;;480204;1;2024-01-26_11h17.24.971;REPSWITCH1_version2_list4;2022.2.4;143.9016642;
REPSWITCH1/PICTURE_135.png;traje;type;gold;nontarget;1;NT;1;3;4;2;Stim3_Set1;1;switch;125;124;23;0;124;124;124;;;;;;;;;;;;;;;;;;;;;;;617.5534369;618.616104;618.616104;618.616104;618.616104;618.616104;618.616104;618.616104;618.616104;621.6373206;621.6373206;621.6373206;621.6373206;621.6373206;621.6373206;['t', 'r', 'a', 'j', 'e'];0;[0.8323305994272232, 1.0176869994029403, 1.0874501997604966, 1.1850864002481103, 1.291848599910736];traje;C:\2023\REPSWITCH21092023\REPSWITCH_excgange\REPSWITCH_excgange\data/480204_REPSWITCH1_version2_list4_2024-01-26_11h17.24.971_micRespv2l4_recorded\recording_micRespv2l4_2024-01-26_11h27.39.376.wav;621.6373206;622.1373635;None;;;;;;480204;1;2024-01-26_11h17.24.971;REPSWITCH1_version2_list4;2022.2.4;143.9016642;
REPSWITCH1/PICTURE_135.png;traje;type;gold;repeat;1;T;1;3;4;2;Stim3_Set1;0;None;126;125;24;0;125;125;125;;;;;;;;;;;;;;;;;;;;;;;622.1373635;623.2277906;623.2277906;623.2277906;623.2277906;623.2277906;623.2277906;623.2277906;623.2277906;626.2559402;626.2559402;626.2559402;626.2559402;626.2559402;626.2559402;['t', 'r', 'a', 'j', 'e'];0;[0.5198374995961785, 0.7109954999759793, 0.794705799780786, 0.8973372997716069, 1.0329456999897957];traje;C:\2023\REPSWITCH21092023\REPSWITCH_excgange\REPSWITCH_excgange\data/480204_REPSWITCH1_version2_list4_2024-01-26_11h17.24.971_micRespv2l4_recorded\recording_micRespv2l4_2024-01-26_11h27.43.989.wav;626.2559402;;None;;;;;;480204;1;2024-01-26_11h17.24.971;REPSWITCH1_version2_list4;2022.2.4;143.9016642;
REPSWITCH1/PICTURE_19.png;pavo;type;gold;nontarget;1;NT;1;3;4;2;Stim5_Set1;1;repeat;127;126;25;0;126;126;126;;;;;;;;;;;;;;;;;;;;;;;626.7561001;627.8395308;627.8395308;627.8395308;627.8395308;627.8395308;627.8395308;627.8395308;627.8395308;630.86774;630.86774;630.86774;630.86774;630.86774;630.86774;['p', 'a', 'v', 'o'];0;[1.0452978005632758, 1.097121000289917, 1.333012199960649, 1.420307700522244];pavo;C:\2023\REPSWITCH21092023\REPSWITCH_excgange\REPSWITCH_excgange\data/480204_REPSWITCH1_version2_list4_2024-01-26_11h17.24.971_micRespv2l4_recorded\recording_micRespv2l4_2024-01-26_11h27.48.601.wav;630.86774;;None;;;;;;480204;1;2024-01-26_11h17.24.971;REPSWITCH1_version2_list4;2022.2.4;143.9016642;
REPSWITCH1/PICTURE_19.png;pavo;speak;darkblue;switch;2;T;1;3;4;2;Stim5_Set1;0;None;128;127;26;0;127;127;127;;;;;;;;;;;;;;;;;;;;;;;631.367725;632.4582341;632.4582341;632.4582341;632.4582341;632.4582341;632.4582341;632.4582341;632.4582341;635.4863509;635.4863509;635.4863509;635.4863509;635.4863509;635.4863509;None;0;;;C:\2023\REPSWITCH21092023\REPSWITCH_excgange\REPSWITCH_excgange\data/480204_REPSWITCH1_version2_list4_2024-01-26_11h17.24.971_micRespv2l4_recorded\recording_micRespv2l4_2024-01-26_11h27.53.219.wav;635.4863509;635.9863998;None;;;;;;480204;1;2024-01-26_11h17.24.971;REPSWITCH1_version2_list4;2022.2.4;143.9016642;
REPSWITCH1/PICTURE_142.png;vaso;speak;darkblue;filler;2;F;2;3;4;2;Stim7_Set1;0;None;129;128;27;0;128;128;128;;;;;;;;;;;;;;;;;;;;;;;635.9863998;637.0559844;637.0559844;637.0559844;637.0559844;637.0559844;637.0559844;637.0559844;637.0559844;640.0771998;640.0771998;640.0771998;640.0771998;640.0771998;640.0771998;None;0;;;C:\2023\REPSWITCH21092023\REPSWITCH_excgange\REPSWITCH_excgange\data/480204_REPSWITCH1_version2_list4_2024-01-26_11h17.24.971_micRespv2l4_recorded\recording_micRespv2l4_2024-01-26_11h27.57.816.wav;640.0771998;640.5772886;None;;;;;;480204;1;2024-01-26_11h17.24.971;REPSWITCH1_version2_list4;2022.2.4;143.9016642;
REPSWITCH1/PICTURE_135.png;traje;type;gold;filler;1;F;2;3;4;2;Stim3_Set1;0;None;130;129;28;0;129;129;129;;;;;;;;;;;;;;;;;;;;;;;640.5772886;641.6052249;641.6052249;641.6052249;641.6052249;641.6052249;641.6052249;641.6052249;641.6052249;644.626419;644.626419;644.626419;644.626419;644.626419;644.626419;['t', 'r', 'a', 'j', 'e'];0;[0.597032300196588, 0.8004553997889161, 0.8910419996827841, 1.0234169997274876, 1.0991011997684836];traje;C:\2023\REPSWITCH21092023\REPSWITCH_excgange\REPSWITCH_excgange\data/480204_REPSWITCH1_version2_list4_2024-01-26_11h17.24.971_micRespv2l4_recorded\recording_micRespv2l4_2024-01-26_11h28.02.366.wav;644.626419;645.1265036;None;;;;;;480204;1;2024-01-26_11h17.24.971;REPSWITCH1_version2_list4;2022.2.4;143.9016642;
REPSWITCH1/PICTURE_446.png;cerdo;type;gold;nontarget;1;NT;2;3;4;2;Stim7_Set2;0;None;131;130;29;0;130;130;130;;;;;;;;;;;;;;;;;;;;;;;645.1265036;646.3558501;646.3558501;646.3558501;646.3558501;646.3558501;646.3558501;646.3558501;646.3558501;649.3840421;649.3840421;649.3840421;649.3840421;649.3840421;649.3840421;['c', 'e', 'r', 'd', 'o'];0;[1.4820451000705361, 1.6415023999288678, 1.7371515007689595, 1.9094491004943848, 2.044988600537181];cerdo;C:\2023\REPSWITCH21092023\REPSWITCH_excgange\REPSWITCH_excgange\data/480204_REPSWITCH1_version2_list4_2024-01-26_11h17.24.971_micRespv2l4_recorded\recording_micRespv2l4_2024-01-26_11h28.07.117.wav;649.3840421;;None;;;;;;480204;1;2024-01-26_11h17.24.971;REPSWITCH1_version2_list4;2022.2.4;143.9016642;
REPSWITCH1/PICTURE_446.png;cerdo;type;gold;repeat;1;T;2;3;4;2;Stim7_Set2;0;None;132;131;30;0;131;131;131;;;;;;;;;;;;;;;;;;;;;;;649.8840719;651.036998;651.036998;651.036998;651.036998;651.036998;651.036998;651.036998;651.036998;654.0652489;654.0652489;654.0652489;654.0652489;654.0652489;654.0652489;['c', 'e', 'r', 'd', 'o'];0;[0.7753477999940515, 0.9497363995760679, 1.031470200046897, 1.2158101992681623, 1.312538499943912];cerdo;C:\2023\REPSWITCH21092023\REPSWITCH_excgange\REPSWITCH_excgange\data/480204_REPSWITCH1_version2_list4_2024-01-26_11h17.24.971_micRespv2l4_recorded\recording_micRespv2l4_2024-01-26_11h28.11.799.wav;654.0652489;;None;;;;;;480204;1;2024-01-26_11h17.24.971;REPSWITCH1_version2_list4;2022.2.4;143.9016642;
REPSWITCH1/PICTURE_16.png;cazador;speak;darkblue;filler;2;F;2;3;4;2;Stim6_Set1;0;None;133;132;31;0;132;132;132;;;;;;;;;;;;;;;;;;;;;;;654.5652463;655.7390316;655.7390316;655.7390316;655.7390316;655.7390316;655.7390316;655.7390316;655.7390316;658.7671922;658.7671922;658.7671922;658.7671922;658.7671922;658.7671922;None;0;;;C:\2023\REPSWITCH21092023\REPSWITCH_excgange\REPSWITCH_excgange\data/480204_REPSWITCH1_version2_list4_2024-01-26_11h17.24.971_micRespv2l4_recorded\recording_micRespv2l4_2024-01-26_11h28.16.501.wav;658.7671922;;None;;;;;;480204;1;2024-01-26_11h17.24.971;REPSWITCH1_version2_list4;2022.2.4;143.9016642;
REPSWITCH1/PICTURE_552.png;manzana;type;gold;nontarget;1;NT;2;3;4;2;Stim6_Set2;1;switch;134;133;32;0;133;133;133;;;;;;;;;;;;;;;;;;;;;;;659.267259;660.3854458;660.3854458;660.3854458;660.3854458;660.3854458;660.3854458;660.3854458;660.3854458;663.4066831;663.4066831;663.4066831;663.4066831;663.4066831;663.4066831;['m', 'a', 'n', 'a', 'backspace', 'z', 'a', 'n', 'a'];0;[0.8116672001779079, 0.8844095999374986, 1.046242400072515, 1.1787964003160596, 1.6394245000556111, 1.7261613002046943, 1.7959216004237533, 1.8746584998443723, 1.9524079002439976];manzana;C:\2023\REPSWITCH21092023\REPSWITCH_excgange\REPSWITCH_excgange\data/480204_REPSWITCH1_version2_list4_2024-01-26_11h17.24.971_micRespv2l4_recorded\recording_micRespv2l4_2024-01-26_11h28.21.146.wav;663.4066831;663.9067268;None;;;;;;480204;1;2024-01-26_11h17.24.971;REPSWITCH1_version2_list4;2022.2.4;143.9016642;
REPSWITCH1/PICTURE_552.png;manzana;type;gold;repeat;1;T;2;3;4;2;Stim6_Set2;0;None;135;134;33;0;134;134;134;;;;;;;;;;;;;;;;;;;;;;;663.9067268;664.9138447;664.9138447;664.9138447;664.9138447;664.9138447;664.9138447;664.9138447;664.9138447;667.9420145;667.9420145;667.9420145;667.9420145;667.9420145;667.9420145;['m', 'a', 'n', 'z', 'a', 'n', 'a'];0;[0.41963289957493544, 0.4733132002875209, 0.6307819001376629, 0.7564428998157382, 0.8541283998638391, 0.9647452998906374, 1.0385314002633095];manzana;C:\2023\REPSWITCH21092023\REPSWITCH_excgange\REPSWITCH_excgange\data/480204_REPSWITCH1_version2_list4_2024-01-26_11h17.24.971_micRespv2l4_recorded\recording_micRespv2l4_2024-01-26_11h28.25.675.wav;667.9420145;;None;;;;;;480204;1;2024-01-26_11h17.24.971;REPSWITCH1_version2_list4;2022.2.4;143.9016642;
REPSWITCH1/PICTURE_517.png;cuerda;type;gold;nontarget;1;NT;2;3;4;2;Stim4_Set2;0;None;136;135;34;0;135;135;135;;;;;;;;;;;;;;;;;;;;;;;668.442144;669.5324721;669.5324721;669.5324721;669.5324721;669.5324721;669.5324721;669.5324721;669.5324721;672.5606654;672.5606654;672.5606654;672.5606654;672.5606654;672.5606654;['c', 'u', 'e', 'r', 'd', 'a'];0;[0.6459274003282189, 0.8123290007933974, 0.9120187005028129, 0.9828007007017732, 1.1691757002845407, 1.2439460000023246];cuerda;C:\2023\REPSWITCH21092023\REPSWITCH_excgange\REPSWITCH_excgange\data/480204_REPSWITCH1_version2_list4_2024-01-26_11h17.24.971_micRespv2l4_recorded\recording_micRespv2l4_2024-01-26_11h28.30.293.wav;672.5606654;;None;;;;;;480204;1;2024-01-26_11h17.24.971;REPSWITCH1_version2_list4;2022.2.4;143.9016642;
REPSWITCH1/PICTURE_517.png;cuerda;speak;darkblue;switch;2;T;2;3;4;2;Stim4_Set2;0;None;137;136;35;0;136;136;136;;;;;;;;;;;;;;;;;;;;;;;673.0607122;674.1303729;674.1303729;674.1303729;674.1303729;674.1303729;674.1303729;674.1303729;674.1303729;677.1585006;677.1585006;677.1585006;677.1585006;677.1585006;677.1585006;None;0;;;C:\2023\REPSWITCH21092023\REPSWITCH_excgange\REPSWITCH_excgange\data/480204_REPSWITCH1_version2_list4_2024-01-26_11h17.24.971_micRespv2l4_recorded\recording_micRespv2l4_2024-01-26_11h28.34.892.wav;677.1585006;;None;;;;;;480204;1;2024-01-26_11h17.24.971;REPSWITCH1_version2_list4;2022.2.4;143.9016642;
REPSWITCH1/PICTURE_169.png;espalda;speak;darkblue;filler;2;F;2;3;4;2;Stim8_Set1;1;repeat;138;137;36;0;137;137;137;;;;;;;;;;;;;;;;;;;;;;;677.6585604;678.755958;678.755958;678.755958;678.755958;678.755958;678.755958;678.755958;678.755958;681.7771381;681.7771381;681.7771381;681.7771381;681.7771381;681.7771381;None;0;;;C:\2023\REPSWITCH21092023\REPSWITCH_excgange\REPSWITCH_excgange\data/480204_REPSWITCH1_version2_list4_2024-01-26_11h17.24.971_micRespv2l4_recorded\recording_micRespv2l4_2024-01-26_11h28.39.517.wav;681.7771381;682.2772972;None;;;;;;480204;1;2024-01-26_11h17.24.971;REPSWITCH1_version2_list4;2022.2.4;143.9016642;
REPSWITCH1/PICTURE_30.png;granja;speak;darkblue;nontarget;2;NT;2;3;4;2;Stim5_Set2;1;repeat;139;138;37;0;138;138;138;;;;;;;;;;;;;;;;;;;;;;;682.2772972;683.423192;683.423192;683.423192;683.423192;683.423192;683.423192;683.423192;683.423192;686.4513575;686.4513575;686.4513575;686.4513575;686.4513575;686.4513575;None;0;;;C:\2023\REPSWITCH21092023\REPSWITCH_excgange\REPSWITCH_excgange\data/480204_REPSWITCH1_version2_list4_2024-01-26_11h17.24.971_micRespv2l4_recorded\recording_micRespv2l4_2024-01-26_11h28.44.185.wav;686.4513575;;None;;;;;;480204;1;2024-01-26_11h17.24.971;REPSWITCH1_version2_list4;2022.2.4;143.9016642;
REPSWITCH1/PICTURE_30.png;granja;type;gold;switch;1;T;2;3;4;2;Stim5_Set2;0;None;140;139;38;0;139;139;139;;;;;;;;;;;;;;;;;;;;;;;686.9514407;688.139185;688.139185;688.139185;688.139185;688.139185;688.139185;688.139185;688.139185;691.1672841;691.1672841;691.1672841;691.1672841;691.1672841;691.1672841;['g', 'r', 'a', 'n', 'j', 'a'];0;[0.6912387004122138, 0.9167803004384041, 1.2865128004923463, 1.4134280001744628, 1.6200266005471349, 1.7206725999712944];granja;C:\2023\REPSWITCH21092023\REPSWITCH_excgange\REPSWITCH_excgange\data/480204_REPSWITCH1_version2_list4_2024-01-26_11h17.24.971_micRespv2l4_recorded\recording_micRespv2l4_2024-01-26_11h28.48.901.wav;691.1672841;;None;;;;;;480204;1;2024-01-26_11h17.24.971;REPSWITCH1_version2_list4;2022.2.4;143.9016642;
