image;correctAns;respModal;frameColor;repSwitch;sequence;target;set;block;list;exp_version;stimulus;baseline;baseline_condition;trial_no;psychopy_trial;Column1;trialsREPSWITCH.thisRepN;trialsREPSWITCH.thisTrialN;trialsREPSWITCH.thisN;trialsREPSWITCH.thisIndex;textWelcome.started;textboxInstrMain1.started;textboxInstrMain1_2.started;textboxInstrMain1_3.started;keyInstrMain.started;keyInstrMain.keys;keyInstrMain.rt;textboxInstrMain2.started;textboxInstrMain2_2.started;textboxInstrMain2_3.started;textboxInstrMain2_4.started;textboxInstrMain2_5.started;textboxInstrMain2_6.started;textboxInstrMain2_7.started;textboxInstrMain2_8.started;textboxInstrMain2_9.started;textboxInstrMain2_10.started;textboxInstrMain2_11.started;textboxInstrMain2_12.started;keyInstrMain2.started;keyInstrMain2.keys;keyInstrMain2.rt;fixationITI.started;fixationITI.stopped;polygonColour.started;polygonWhite.started;imageObject.started;polygonType.started;textInput.started;keyResp.started;micRespv1l1.started;keyResp.keys;keyResp.corr;keyResp.rt;subjResponse;micRespv1l1.clip;textBlankLoop.started;textBlankLoop.stopped;keyPause.keys;polygonColour.stopped;polygonWhite.stopped;imageObject.stopped;polygonType.stopped;textInput.stopped;keyResp.stopped;textboxPause.started;keyPause.started;keyPause.rt;textboxGoodbye.started;textboxGoodbye.stopped;participant;session;date;expName;psychopyVersion;frameRate;Column2
;;;;;;;;;;;;;;;;;;;;;7.635166099;10.1285073;10.1285073;10.1285073;10.1285073;space;5.974389301;;;;;;;;;;;;;;;;;;;;;;;;;;;;;;;;;;;;;;;;;;;;490101;1;2024-01-26_14h16.21.646;REPSWITCH1_version1_list1;2022.2.4;143.9853716;
;;;;;;;;;;;;;;;;;;;;;;;;;;;;16.1223499;16.1223499;16.1223499;16.1223499;16.1223499;16.1223499;16.1223499;16.1223499;16.1223499;16.1223499;16.1223499;16.1223499;16.1223499;space;0.522711;;;;;;;;;;;;;;;;;;;;;;;;;;;;;490101;1;2024-01-26_14h16.21.646;REPSWITCH1_version1_list1;2022.2.4;143.9853716;
REPSWITCH1/PICTURE_340.png;espejo;type;darkblue;filler;1;F;1;1;1;1;Extra1;0;None;1;0;1;0;0;0;0;;;;;;;;;;;;;;;;;;;;;;;16.7405001;17.8865177;17.8865177;17.8865177;17.8865177;17.8865177;17.8865177;17.8865177;17.8865177;['e', 's', 'p', 'e', 'j', 'o'];0;[0.8575169993564487, 1.082757500000298, 1.2302591996267438, 1.3119799997657537, 1.8063447996973991, 1.8760979995131493];espejo;C:\2023\REPSWITCH21092023\REPSWITCH_excgange\REPSWITCH_excgange\data/490101_REPSWITCH1_version1_list1_2024-01-26_14h16.21.646_micRespv1l1_recorded\recording_micRespv1l1_2024-01-26_14h16.36.675.wav;20.9076767;21.4077424;None;;;;;;;;;;;;490101;1;2024-01-26_14h16.21.646;REPSWITCH1_version1_list1;2022.2.4;143.9853716;
REPSWITCH1/PICTURE_391.png;cadena;speak;gold;filler;2;F;1;1;1;1;Extra2;0;None;2;1;2;0;1;1;1;;;;;;;;;;;;;;;;;;;;;;;21.4077424;22.5120914;22.5120914;22.5120914;22.5120914;22.5120914;22.5120914;22.5120914;22.5120914;None;0;;;C:\2023\REPSWITCH21092023\REPSWITCH_excgange\REPSWITCH_excgange\data/490101_REPSWITCH1_version1_list1_2024-01-26_14h16.21.646_micRespv1l1_recorded\recording_micRespv1l1_2024-01-26_14h16.41.306.wav;25.5402601;;None;25.5402601;25.5402601;25.5402601;25.5402601;25.5402601;25.5402601;;;;;;490101;1;2024-01-26_14h16.21.646;REPSWITCH1_version1_list1;2022.2.4;143.9853716;
REPSWITCH1/PICTURE_178.png;puente;speak;gold;nontarget;2;NT;1;1;1;1;Stim1_Set1;1;repeat;3;2;3;0;2;2;2;;;;;;;;;;;;;;;;;;;;;;;26.0403157;27.1515624;27.1515624;27.1515624;27.1515624;27.1515624;27.1515624;27.1515624;27.1515624;None;0;;;C:\2023\REPSWITCH21092023\REPSWITCH_excgange\REPSWITCH_excgange\data/490101_REPSWITCH1_version1_list1_2024-01-26_14h16.21.646_micRespv1l1_recorded\recording_micRespv1l1_2024-01-26_14h16.45.944.wav;30.1797275;;None;30.1797275;30.1797275;30.1797275;30.1797275;30.1797275;30.1797275;;;;;;490101;1;2024-01-26_14h16.21.646;REPSWITCH1_version1_list1;2022.2.4;143.9853716;
REPSWITCH1/PICTURE_178.png;puente;speak;gold;repeat;2;T;1;1;1;1;Stim1_Set1;0;None;4;3;4;0;3;3;3;;;;;;;;;;;;;;;;;;;;;;;30.679817;31.7841877;31.7841877;31.7841877;31.7841877;31.7841877;31.7841877;31.7841877;31.7841877;None;0;;;C:\2023\REPSWITCH21092023\REPSWITCH_excgange\REPSWITCH_excgange\data/490101_REPSWITCH1_version1_list1_2024-01-26_14h16.21.646_micRespv1l1_recorded\recording_micRespv1l1_2024-01-26_14h16.50.577.wav;34.8123098;;None;34.8123098;34.8123098;34.8123098;34.8123098;34.8123098;34.8123098;;;;;;490101;1;2024-01-26_14h16.21.646;REPSWITCH1_version1_list1;2022.2.4;143.9853716;
REPSWITCH1/PICTURE_319.png;vaca;type;darkblue;filler;1;F;1;1;1;1;Stim1_Set4;0;None;5;4;5;0;4;4;4;;;;;;;;;;;;;;;;;;;;;;;35.3123657;36.3333258;36.3333258;36.3333258;36.3333258;36.3333258;36.3333258;36.3333258;36.3333258;['v', 'a', 'c', 'a'];0;[0.902895599603653, 1.0643192995339632, 1.2157753994688392, 1.2985294992104173];vaca;C:\2023\REPSWITCH21092023\REPSWITCH_excgange\REPSWITCH_excgange\data/490101_REPSWITCH1_version1_list1_2024-01-26_14h16.21.646_micRespv1l1_recorded\recording_micRespv1l1_2024-01-26_14h16.55.125.wav;39.3545384;39.8546041;None;39.3545384;39.3545384;39.3545384;39.3545384;39.3545384;39.3545384;;;;;;490101;1;2024-01-26_14h16.21.646;REPSWITCH1_version1_list1;2022.2.4;143.9853716;
REPSWITCH1/PICTURE_381.png;fresa;speak;gold;nontarget;2;NT;1;1;1;1;Stim2_Set1;1;switch;6;5;6;0;5;5;5;;;;;;;;;;;;;;;;;;;;;;;39.8546041;40.9172548;40.9172548;40.9172548;40.9172548;40.9172548;40.9172548;40.9172548;40.9172548;None;0;;;C:\2023\REPSWITCH21092023\REPSWITCH_excgange\REPSWITCH_excgange\data/490101_REPSWITCH1_version1_list1_2024-01-26_14h16.21.646_micRespv1l1_recorded\recording_micRespv1l1_2024-01-26_14h16.59.710.wav;43.9454423;;None;43.9454423;43.9454423;43.9454423;43.9454423;43.9454423;43.9454423;;;;;;490101;1;2024-01-26_14h16.21.646;REPSWITCH1_version1_list1;2022.2.4;143.9853716;
REPSWITCH1/PICTURE_381.png;fresa;speak;gold;repeat;2;T;1;1;1;1;Stim2_Set1;0;None;7;6;7;0;6;6;6;;;;;;;;;;;;;;;;;;;;;;;44.4455043;45.4664885;45.4664885;45.4664885;45.4664885;45.4664885;45.4664885;45.4664885;45.4664885;None;0;;;C:\2023\REPSWITCH21092023\REPSWITCH_excgange\REPSWITCH_excgange\data/490101_REPSWITCH1_version1_list1_2024-01-26_14h16.21.646_micRespv1l1_recorded\recording_micRespv1l1_2024-01-26_14h17.04.259.wav;48.4876852;48.9877494;None;48.4876852;48.4876852;48.4876852;48.4876852;48.4876852;48.4876852;;;;;;490101;1;2024-01-26_14h16.21.646;REPSWITCH1_version1_list1;2022.2.4;143.9853716;
REPSWITCH1/PICTURE_719.png;baño;type;darkblue;filler;1;F;1;1;1;1;Stim2_Set4;1;switch;8;7;8;0;7;7;7;;;;;;;;;;;;;;;;;;;;;;;48.9877494;50.1685415;50.1685415;50.1685415;50.1685415;50.1685415;50.1685415;50.1685415;50.1685415;['b', 'a', 'ñ', 'o'];0;[0.94024289958179, 1.107694499194622, 1.2831516992300749, 1.4226179998368025];baño;C:\2023\REPSWITCH21092023\REPSWITCH_excgange\REPSWITCH_excgange\data/490101_REPSWITCH1_version1_list1_2024-01-26_14h16.21.646_micRespv1l1_recorded\recording_micRespv1l1_2024-01-26_14h17.08.961.wav;53.189691;53.6897744;None;53.189691;53.189691;53.189691;53.189691;53.189691;53.189691;;;;;;490101;1;2024-01-26_14h16.21.646;REPSWITCH1_version1_list1;2022.2.4;143.9853716;
REPSWITCH1/PICTURE_135.png;traje;speak;gold;nontarget;2;NT;1;1;1;1;Stim3_Set1;0;None;9;8;9;0;8;8;8;;;;;;;;;;;;;;;;;;;;;;;53.6897744;54.8218895;54.8218895;54.8218895;54.8218895;54.8218895;54.8218895;54.8218895;54.8218895;None;0;;;C:\2023\REPSWITCH21092023\REPSWITCH_excgange\REPSWITCH_excgange\data/490101_REPSWITCH1_version1_list1_2024-01-26_14h16.21.646_micRespv1l1_recorded\recording_micRespv1l1_2024-01-26_14h17.13.614.wav;57.8500618;;None;57.8500618;57.8500618;57.8500618;57.8500618;57.8500618;57.8500618;;;;;;490101;1;2024-01-26_14h16.21.646;REPSWITCH1_version1_list1;2022.2.4;143.9853716;
REPSWITCH1/PICTURE_135.png;traje;type;darkblue;switch;1;T;1;1;1;1;Stim3_Set1;0;None;10;9;10;0;9;9;9;;;;;;;;;;;;;;;;;;;;;;;58.3501102;59.5238682;59.5238682;59.5238682;59.5238682;59.5238682;59.5238682;59.5238682;59.5238682;['t', 'r', 'a', 'j', 'e'];0;[0.8658670000731945, 0.9426053995266557, 1.1220198003575206, 1.2406307999044657, 1.3054018002003431];traje;C:\2023\REPSWITCH21092023\REPSWITCH_excgange\REPSWITCH_excgange\data/490101_REPSWITCH1_version1_list1_2024-01-26_14h16.21.646_micRespv1l1_recorded\recording_micRespv1l1_2024-01-26_14h17.18.316.wav;62.54508;63.0451332;None;62.54508;62.54508;62.54508;62.54508;62.54508;62.54508;;;;;;490101;1;2024-01-26_14h16.21.646;REPSWITCH1_version1_list1;2022.2.4;143.9853716;
REPSWITCH1/PICTURE_687.png;camisa;speak;gold;filler;2;F;1;1;1;1;Stim5_Set4;0;None;11;10;11;0;10;10;10;;;;;;;;;;;;;;;;;;;;;;;63.0451332;64.1147703;64.1147703;64.1147703;64.1147703;64.1147703;64.1147703;64.1147703;64.1147703;None;0;;;C:\2023\REPSWITCH21092023\REPSWITCH_excgange\REPSWITCH_excgange\data/490101_REPSWITCH1_version1_list1_2024-01-26_14h16.21.646_micRespv1l1_recorded\recording_micRespv1l1_2024-01-26_14h17.22.906.wav;67.1359918;67.6360492;None;67.1359918;67.1359918;67.1359918;67.1359918;67.1359918;67.1359918;;;;;;490101;1;2024-01-26_14h16.21.646;REPSWITCH1_version1_list1;2022.2.4;143.9853716;
REPSWITCH1/PICTURE_128.png;muñeca;type;darkblue;nontarget;1;NT;1;1;1;1;Stim4_Set1;1;switch;12;11;12;0;11;11;11;;;;;;;;;;;;;;;;;;;;;;;67.6360492;68.6986837;68.6986837;68.6986837;68.6986837;68.6986837;68.6986837;68.6986837;68.6986837;['m', 'u', 'ñ', 'e', 'c', 'a'];0;[0.9540702002122998, 1.1972562996670604, 1.523166500031948, 1.6905934996902943, 1.9547269996255636, 2.0214566998183727];muñeca;C:\2023\REPSWITCH21092023\REPSWITCH_excgange\REPSWITCH_excgange\data/490101_REPSWITCH1_version1_list1_2024-01-26_14h16.21.646_micRespv1l1_recorded\recording_micRespv1l1_2024-01-26_14h17.27.491.wav;71.7199247;72.2199887;None;71.7199247;71.7199247;71.7199247;71.7199247;71.7199247;71.7199247;;;;;;490101;1;2024-01-26_14h16.21.646;REPSWITCH1_version1_list1;2022.2.4;143.9853716;
REPSWITCH1/PICTURE_128.png;muñeca;speak;gold;switch;2;T;1;1;1;1;Stim4_Set1;0;None;13;12;13;0;12;12;12;;;;;;;;;;;;;;;;;;;;;;;72.2199887;73.3381833;73.3381833;73.3381833;73.3381833;73.3381833;73.3381833;73.3381833;73.3381833;None;0;;;C:\2023\REPSWITCH21092023\REPSWITCH_excgange\REPSWITCH_excgange\data/490101_REPSWITCH1_version1_list1_2024-01-26_14h16.21.646_micRespv1l1_recorded\recording_micRespv1l1_2024-01-26_14h17.32.132.wav;76.3663533;;None;76.3663533;76.3663533;76.3663533;76.3663533;76.3663533;76.3663533;;;;;;490101;1;2024-01-26_14h16.21.646;REPSWITCH1_version1_list1;2022.2.4;143.9853716;
REPSWITCH1/PICTURE_8.png;pierna;speak;gold;filler;2;F;1;1;1;1;Stim3_Set4;0;None;14;13;14;0;13;13;13;;;;;;;;;;;;;;;;;;;;;;;76.8664283;77.9290676;77.9290676;77.9290676;77.9290676;77.9290676;77.9290676;77.9290676;77.9290676;None;0;;;C:\2023\REPSWITCH21092023\REPSWITCH_excgange\REPSWITCH_excgange\data/490101_REPSWITCH1_version1_list1_2024-01-26_14h16.21.646_micRespv1l1_recorded\recording_micRespv1l1_2024-01-26_14h17.36.721.wav;80.9502972;81.450347;None;80.9502972;80.9502972;80.9502972;80.9502972;80.9502972;80.9502972;;;;;;490101;1;2024-01-26_14h16.21.646;REPSWITCH1_version1_list1;2022.2.4;143.9853716;
REPSWITCH1/PICTURE_19.png;pavo;speak;gold;nontarget;2;NT;1;1;1;1;Stim5_Set1;0;None;15;14;15;0;14;14;14;;;;;;;;;;;;;;;;;;;;;;;81.450347;82.6102564;82.6102564;82.6102564;82.6102564;82.6102564;82.6102564;82.6102564;82.6102564;None;0;;;C:\2023\REPSWITCH21092023\REPSWITCH_excgange\REPSWITCH_excgange\data/490101_REPSWITCH1_version1_list1_2024-01-26_14h16.21.646_micRespv1l1_recorded\recording_micRespv1l1_2024-01-26_14h17.41.403.wav;85.6384611;;None;85.6384611;85.6384611;85.6384611;85.6384611;85.6384611;85.6384611;;;;;;490101;1;2024-01-26_14h16.21.646;REPSWITCH1_version1_list1;2022.2.4;143.9853716;
REPSWITCH1/PICTURE_19.png;pavo;type;darkblue;switch;1;T;1;1;1;1;Stim5_Set1;0;None;16;15;16;0;15;15;15;;;;;;;;;;;;;;;;;;;;;;;86.1384717;87.3123001;87.3123001;87.3123001;87.3123001;87.3123001;87.3123001;87.3123001;87.3123001;['p', 'a', 'v', 'o'];0;[0.8326000003144145, 0.9641526006162167, 1.154517000541091, 1.2312177000567317];pavo;C:\2023\REPSWITCH21092023\REPSWITCH_excgange\REPSWITCH_excgange\data/490101_REPSWITCH1_version1_list1_2024-01-26_14h16.21.646_micRespv1l1_recorded\recording_micRespv1l1_2024-01-26_14h17.46.106.wav;90.3682058;90.8682631;None;90.3682058;90.3682058;90.3682058;90.3682058;90.3682058;90.3682058;;;;;;490101;1;2024-01-26_14h16.21.646;REPSWITCH1_version1_list1;2022.2.4;143.9853716;
REPSWITCH1/PICTURE_16.png;cazador;type;darkblue;nontarget;1;NT;1;1;1;1;Stim6_Set1;1;switch;17;16;17;0;16;16;16;;;;;;;;;;;;;;;;;;;;;;;90.8682631;91.8961692;91.8961692;91.8961692;91.8961692;91.8961692;91.8961692;91.8961692;91.8961692;['c', 'a', 'z', 'a', 'd', 'o', 'r'];0;[1.0726083992049098, 1.2180992998182774, 1.4313869001343846, 1.6386959999799728, 1.7881940994411707, 1.9327288996428251, 2.023399000056088];cazador;C:\2023\REPSWITCH21092023\REPSWITCH_excgange\REPSWITCH_excgange\data/490101_REPSWITCH1_version1_list1_2024-01-26_14h16.21.646_micRespv1l1_recorded\recording_micRespv1l1_2024-01-26_14h17.50.688.wav;94.9173896;95.4174718;None;94.9173896;94.9173896;94.9173896;94.9173896;94.9173896;94.9173896;;;;;;490101;1;2024-01-26_14h16.21.646;REPSWITCH1_version1_list1;2022.2.4;143.9853716;
REPSWITCH1/PICTURE_16.png;cazador;type;darkblue;repeat;1;T;1;1;1;1;Stim6_Set1;0;None;18;17;18;0;17;17;17;;;;;;;;;;;;;;;;;;;;;;;95.4174718;96.4870405;96.4870405;96.4870405;96.4870405;96.4870405;96.4870405;96.4870405;96.4870405;['c', 'a', 'z', 'a', 'd', 'o', 'r', 'r', 'backspace'];0;[0.8232006002217531, 0.9248232999816537, 1.1820061998441815, 1.372358899563551, 1.4720251997932792, 1.6623897003009915, 1.709200399927795, 1.739131599664688, 2.4826071998104453];cazador;C:\2023\REPSWITCH21092023\REPSWITCH_excgange\REPSWITCH_excgange\data/490101_REPSWITCH1_version1_list1_2024-01-26_14h16.21.646_micRespv1l1_recorded\recording_micRespv1l1_2024-01-26_14h17.55.280.wav;99.5152258;;None;99.5152258;99.5152258;99.5152258;99.5152258;99.5152258;99.5152258;;;;;;490101;1;2024-01-26_14h16.21.646;REPSWITCH1_version1_list1;2022.2.4;143.9853716;
REPSWITCH1/PICTURE_498.png;taza;speak;gold;filler;2;F;1;1;1;1;Stim4_Set4;0;None;19;18;19;0;18;18;18;;;;;;;;;;;;;;;;;;;;;;;100.0152704;101.1126455;101.1126455;101.1126455;101.1126455;101.1126455;101.1126455;101.1126455;101.1126455;None;0;;;C:\2023\REPSWITCH21092023\REPSWITCH_excgange\REPSWITCH_excgange\data/490101_REPSWITCH1_version1_list1_2024-01-26_14h16.21.646_micRespv1l1_recorded\recording_micRespv1l1_2024-01-26_14h17.59.905.wav;104.1338906;104.6339177;None;104.1338906;104.1338906;104.1338906;104.1338906;104.1338906;104.1338906;;;;;;490101;1;2024-01-26_14h16.21.646;REPSWITCH1_version1_list1;2022.2.4;143.9853716;
REPSWITCH1/PICTURE_48.png;bombero;type;darkblue;filler;1;F;1;1;1;1;Stim7_Set4;0;None;20;19;20;0;19;19;19;;;;;;;;;;;;;;;;;;;;;;;104.6339177;105.7174558;105.7174558;105.7174558;105.7174558;105.7174558;105.7174558;105.7174558;105.7174558;['b', 'o', 'm', 'b', 'e', 'r', 'o'];0;[1.2016495997086167, 1.3351819990202785, 1.446819699369371, 1.5564488992094994, 1.7757265996187925, 1.9122184989973903, 2.0298662995919585];bombero;C:\2023\REPSWITCH21092023\REPSWITCH_excgange\REPSWITCH_excgange\data/490101_REPSWITCH1_version1_list1_2024-01-26_14h16.21.646_micRespv1l1_recorded\recording_micRespv1l1_2024-01-26_14h18.04.510.wav;108.7594763;109.2595243;None;108.7594763;108.7594763;108.7594763;108.7594763;108.7594763;108.7594763;;;;;;490101;1;2024-01-26_14h16.21.646;REPSWITCH1_version1_list1;2022.2.4;143.9853716;
REPSWITCH1/PICTURE_142.png;vaso;type;darkblue;nontarget;1;NT;1;1;1;1;Stim7_Set1;1;repeat;21;20;21;0;20;20;20;;;;;;;;;;;;;;;;;;;;;;;109.2595243;110.2944145;110.2944145;110.2944145;110.2944145;110.2944145;110.2944145;110.2944145;110.2944145;['v', 'a', 's', 'o'];0;[0.9821052998304367, 1.1804420994594693, 1.3728021997958422, 1.6598399998620152];vaso;C:\2023\REPSWITCH21092023\REPSWITCH_excgange\REPSWITCH_excgange\data/490101_REPSWITCH1_version1_list1_2024-01-26_14h16.21.646_micRespv1l1_recorded\recording_micRespv1l1_2024-01-26_14h18.09.087.wav;113.3156286;113.8157619;None;113.3156286;113.3156286;113.3156286;113.3156286;113.3156286;113.3156286;;;;;;490101;1;2024-01-26_14h16.21.646;REPSWITCH1_version1_list1;2022.2.4;143.9853716;
REPSWITCH1/PICTURE_142.png;vaso;type;darkblue;repeat;1;T;1;1;1;1;Stim7_Set1;0;None;22;21;22;0;21;21;21;;;;;;;;;;;;;;;;;;;;;;;113.8157619;114.8645243;114.8645243;114.8645243;114.8645243;114.8645243;114.8645243;114.8645243;114.8645243;['v', 'a', 's', 'o'];0;[0.8979896996170282, 1.0943374000489712, 1.1740373997017741, 1.3245641002431512];vaso;C:\2023\REPSWITCH21092023\REPSWITCH_excgange\REPSWITCH_excgange\data/490101_REPSWITCH1_version1_list1_2024-01-26_14h16.21.646_micRespv1l1_recorded\recording_micRespv1l1_2024-01-26_14h18.13.657.wav;117.8925991;;None;117.8925991;117.8925991;117.8925991;117.8925991;117.8925991;117.8925991;;;;;;490101;1;2024-01-26_14h16.21.646;REPSWITCH1_version1_list1;2022.2.4;143.9853716;
REPSWITCH1/PICTURE_338.png;regalo;speak;gold;filler;2;F;1;1;1;1;Stim6_Set4;1;switch;23;22;23;0;22;22;22;;;;;;;;;;;;;;;;;;;;;;;118.3926825;119.5664583;119.5664583;119.5664583;119.5664583;119.5664583;119.5664583;119.5664583;119.5664583;None;0;;;C:\2023\REPSWITCH21092023\REPSWITCH_excgange\REPSWITCH_excgange\data/490101_REPSWITCH1_version1_list1_2024-01-26_14h16.21.646_micRespv1l1_recorded\recording_micRespv1l1_2024-01-26_14h18.18.359.wav;122.5877038;123.0877654;None;122.5877038;122.5877038;122.5877038;122.5877038;122.5877038;122.5877038;;;;;;490101;1;2024-01-26_14h16.21.646;REPSWITCH1_version1_list1;2022.2.4;143.9853716;
REPSWITCH1/PICTURE_728.png;pulpo;type;darkblue;filler;1;F;1;1;1;1;Stim8_Set4;1;switch;24;23;24;0;23;23;23;;;;;;;;;;;;;;;;;;;;;;;123.0877654;124.1017756;124.1017756;124.1017756;124.1017756;124.1017756;124.1017756;124.1017756;124.1017756;['p', 'u', 'l', 'p', 'o'];0;[0.9705953998491168, 1.294517899863422, 1.7260813005268574, 1.89450510032475, 1.9981664000079036];pulpo;C:\2023\REPSWITCH21092023\REPSWITCH_excgange\REPSWITCH_excgange\data/490101_REPSWITCH1_version1_list1_2024-01-26_14h16.21.646_micRespv1l1_recorded\recording_micRespv1l1_2024-01-26_14h18.22.894.wav;127.1230248;127.6230464;None;127.1230248;127.1230248;127.1230248;127.1230248;127.1230248;127.1230248;;;;;;490101;1;2024-01-26_14h16.21.646;REPSWITCH1_version1_list1;2022.2.4;143.9853716;
REPSWITCH1/PICTURE_169.png;espalda;type;darkblue;nontarget;1;NT;1;1;1;1;Stim8_Set1;1;repeat;25;24;25;0;24;24;24;;;;;;;;;;;;;;;;;;;;;;;127.6230464;128.6718059;128.6718059;128.6718059;128.6718059;128.6718059;128.6718059;128.6718059;128.6718059;['e', 's', 'p', 'a', 'l', 'd', 'a'];0;[0.7660309001803398, 0.9613194996491075, 1.1137963999062777, 1.2373874001204967, 1.4157483000308275, 1.5662850001826882, 1.626056999899447];espalda;C:\2023\REPSWITCH21092023\REPSWITCH_excgange\REPSWITCH_excgange\data/490101_REPSWITCH1_version1_list1_2024-01-26_14h16.21.646_micRespv1l1_recorded\recording_micRespv1l1_2024-01-26_14h18.27.464.wav;131.6930267;132.1931256;None;131.6930267;131.6930267;131.6930267;131.6930267;131.6930267;131.6930267;;;;;;490101;1;2024-01-26_14h16.21.646;REPSWITCH1_version1_list1;2022.2.4;143.9853716;
REPSWITCH1/PICTURE_169.png;espalda;speak;gold;switch;2;T;1;1;1;1;Stim8_Set1;0;None;26;25;26;0;25;25;25;;;;;;;;;;;;;;;;;;;;;;;132.1931256;133.2905046;133.2905046;133.2905046;133.2905046;133.2905046;133.2905046;133.2905046;133.2905046;None;0;;;C:\2023\REPSWITCH21092023\REPSWITCH_excgange\REPSWITCH_excgange\data/490101_REPSWITCH1_version1_list1_2024-01-26_14h16.21.646_micRespv1l1_recorded\recording_micRespv1l1_2024-01-26_14h18.32.084.wav;136.3186509;;None;136.3186509;136.3186509;136.3186509;136.3186509;136.3186509;136.3186509;;;;;;490101;1;2024-01-26_14h16.21.646;REPSWITCH1_version1_list1;2022.2.4;143.9853716;
REPSWITCH1/PICTURE_178.png;puente;speak;gold;filler;2;F;2;1;1;1;Stim1_Set1;0;None;27;26;27;0;26;26;26;;;;;;;;;;;;;;;;;;;;;;;136.8187088;137.9786642;137.9786642;137.9786642;137.9786642;137.9786642;137.9786642;137.9786642;137.9786642;None;0;;;C:\2023\REPSWITCH21092023\REPSWITCH_excgange\REPSWITCH_excgange\data/490101_REPSWITCH1_version1_list1_2024-01-26_14h16.21.646_micRespv1l1_recorded\recording_micRespv1l1_2024-01-26_14h18.36.770.wav;140.99984;141.4999036;None;140.99984;140.99984;140.99984;140.99984;140.99984;140.99984;;;;;;490101;1;2024-01-26_14h16.21.646;REPSWITCH1_version1_list1;2022.2.4;143.9853716;
REPSWITCH1/PICTURE_175.png;pintor;type;darkblue;nontarget;1;NT;2;1;1;1;Stim1_Set2;1;switch;28;27;28;0;27;27;27;;;;;;;;;;;;;;;;;;;;;;;141.4999036;142.5416886;142.5416886;142.5416886;142.5416886;142.5416886;142.5416886;142.5416886;142.5416886;['p', 'i', 'n', 't', 'o', 'r'];0;[0.8254939001053572, 1.106555299833417, 1.1405023001134396, 1.3568063005805016, 1.4633708000183105, 1.5629786998033524];pintor;C:\2023\REPSWITCH21092023\REPSWITCH_excgange\REPSWITCH_excgange\data/490101_REPSWITCH1_version1_list1_2024-01-26_14h16.21.646_micRespv1l1_recorded\recording_micRespv1l1_2024-01-26_14h18.41.334.wav;145.569872;;None;145.569872;145.569872;145.569872;145.569872;145.569872;145.569872;;;;;;490101;1;2024-01-26_14h16.21.646;REPSWITCH1_version1_list1;2022.2.4;143.9853716;
REPSWITCH1/PICTURE_175.png;pintor;type;darkblue;repeat;1;T;2;1;1;1;Stim1_Set2;0;None;29;28;29;0;28;28;28;;;;;;;;;;;;;;;;;;;;;;;146.0699544;147.1465422;147.1465422;147.1465422;147.1465422;147.1465422;147.1465422;147.1465422;147.1465422;['p', 'i', 'n', 't', 'o', 'r'];0;[0.606929199770093, 0.8791260002180934, 0.979679299518466, 1.1042649000883102, 1.2328639002516866, 1.3644318003207445];pintor;C:\2023\REPSWITCH21092023\REPSWITCH_excgange\REPSWITCH_excgange\data/490101_REPSWITCH1_version1_list1_2024-01-26_14h16.21.646_micRespv1l1_recorded\recording_micRespv1l1_2024-01-26_14h18.45.939.wav;150.1746179;150.6746929;None;150.1746179;150.1746179;150.1746179;150.1746179;150.1746179;150.1746179;;;;;;490101;1;2024-01-26_14h16.21.646;REPSWITCH1_version1_list1;2022.2.4;143.9853716;
REPSWITCH1/PICTURE_381.png;fresa;speak;gold;filler;2;F;2;1;1;1;Stim2_Set1;0;None;30;29;30;0;29;29;29;;;;;;;;;;;;;;;;;;;;;;;150.6746929;151.7442981;151.7442981;151.7442981;151.7442981;151.7442981;151.7442981;151.7442981;151.7442981;None;0;;;C:\2023\REPSWITCH21092023\REPSWITCH_excgange\REPSWITCH_excgange\data/490101_REPSWITCH1_version1_list1_2024-01-26_14h16.21.646_micRespv1l1_recorded\recording_micRespv1l1_2024-01-26_14h18.50.536.wav;154.7724554;;None;154.7724554;154.7724554;154.7724554;154.7724554;154.7724554;154.7724554;;;;;;490101;1;2024-01-26_14h16.21.646;REPSWITCH1_version1_list1;2022.2.4;143.9853716;
REPSWITCH1/PICTURE_152.png;caracol;type;darkblue;nontarget;1;NT;2;1;1;1;Stim2_Set2;1;switch;31;30;31;0;30;30;30;;;;;;;;;;;;;;;;;;;;;;;155.2725064;156.3490597;156.3490597;156.3490597;156.3490597;156.3490597;156.3490597;156.3490597;156.3490597;['c', 'a', 'r', 'a', 'c', 'o', 'l'];0;[0.9694610005244613, 1.113968400284648, 1.246483400464058, 1.3571610003709793, 1.7169583002105355, 1.8933621998876333, 2.0668571004644036];caracol;C:\2023\REPSWITCH21092023\REPSWITCH_excgange\REPSWITCH_excgange\data/490101_REPSWITCH1_version1_list1_2024-01-26_14h16.21.646_micRespv1l1_recorded\recording_micRespv1l1_2024-01-26_14h18.55.142.wav;159.3702812;159.8703688;None;159.3702812;159.3702812;159.3702812;159.3702812;159.3702812;159.3702812;;;;;;490101;1;2024-01-26_14h16.21.646;REPSWITCH1_version1_list1;2022.2.4;143.9853716;
REPSWITCH1/PICTURE_152.png;caracol;type;darkblue;repeat;1;T;2;1;1;1;Stim2_Set2;0;None;32;31;32;0;31;31;31;;;;;;;;;;;;;;;;;;;;;;;159.8703688;160.9121741;160.9121741;160.9121741;160.9121741;160.9121741;160.9121741;160.9121741;160.9121741;['c', 'a', 'r', 'a', 'c', 'o', 'l'];0;[0.5654298001900315, 0.7059151995927095, 0.8355312999337912, 0.9242305001243949, 1.09172029979527, 1.1873369999229908, 1.3428309001028538];caracol;C:\2023\REPSWITCH21092023\REPSWITCH_excgange\REPSWITCH_excgange\data/490101_REPSWITCH1_version1_list1_2024-01-26_14h16.21.646_micRespv1l1_recorded\recording_micRespv1l1_2024-01-26_14h18.59.705.wav;163.9403503;164.4404188;None;163.9403503;163.9403503;163.9403503;163.9403503;163.9403503;163.9403503;;;;;;490101;1;2024-01-26_14h16.21.646;REPSWITCH1_version1_list1;2022.2.4;143.9853716;
REPSWITCH1/PICTURE_128.png;muñeca;speak;gold;filler;2;F;2;1;1;1;Stim4_Set1;0;None;33;32;33;0;32;32;32;;;;;;;;;;;;;;;;;;;;;;;164.4404188;165.5516522;165.5516522;165.5516522;165.5516522;165.5516522;165.5516522;165.5516522;165.5516522;None;0;;;C:\2023\REPSWITCH21092023\REPSWITCH_excgange\REPSWITCH_excgange\data/490101_REPSWITCH1_version1_list1_2024-01-26_14h16.21.646_micRespv1l1_recorded\recording_micRespv1l1_2024-01-26_14h19.04.344.wav;168.5729435;169.0729683;None;168.5729435;168.5729435;168.5729435;168.5729435;168.5729435;168.5729435;;;;;;490101;1;2024-01-26_14h16.21.646;REPSWITCH1_version1_list1;2022.2.4;143.9853716;
REPSWITCH1/PICTURE_264.png;mano;type;darkblue;nontarget;1;NT;2;1;1;1;Stim3_Set2;0;None;34;33;34;0;33;33;33;;;;;;;;;;;;;;;;;;;;;;;169.0729683;170.1217774;170.1217774;170.1217774;170.1217774;170.1217774;170.1217774;170.1217774;170.1217774;['m', 'a', 'n', 'o'];0;[0.9407280003651977, 1.0773713001981378, 1.1899295002222061, 1.3633479001000524];mano;C:\2023\REPSWITCH21092023\REPSWITCH_excgange\REPSWITCH_excgange\data/490101_REPSWITCH1_version1_list1_2024-01-26_14h16.21.646_micRespv1l1_recorded\recording_micRespv1l1_2024-01-26_14h19.08.914.wav;173.1429482;173.6429712;None;173.1429482;173.1429482;173.1429482;173.1429482;173.1429482;173.1429482;;;;;;490101;1;2024-01-26_14h16.21.646;REPSWITCH1_version1_list1;2022.2.4;143.9853716;
REPSWITCH1/PICTURE_264.png;mano;speak;gold;switch;2;T;2;1;1;1;Stim3_Set2;0;None;35;34;35;0;34;34;34;;;;;;;;;;;;;;;;;;;;;;;173.6429712;174.6917705;174.6917705;174.6917705;174.6917705;174.6917705;174.6917705;174.6917705;174.6917705;None;0;;;C:\2023\REPSWITCH21092023\REPSWITCH_excgange\REPSWITCH_excgange\data/490101_REPSWITCH1_version1_list1_2024-01-26_14h16.21.646_micRespv1l1_recorded\recording_micRespv1l1_2024-01-26_14h19.13.484.wav;177.7129679;178.2130512;None;177.7129679;177.7129679;177.7129679;177.7129679;177.7129679;177.7129679;;;;;;490101;1;2024-01-26_14h16.21.646;REPSWITCH1_version1_list1;2022.2.4;143.9853716;
REPSWITCH1/PICTURE_517.png;cuerda;speak;gold;nontarget;2;NT;2;1;1;1;Stim4_Set2;1;repeat;36;35;36;0;35;35;35;;;;;;;;;;;;;;;;;;;;;;;178.2130512;179.3243286;179.3243286;179.3243286;179.3243286;179.3243286;179.3243286;179.3243286;179.3243286;None;0;;;C:\2023\REPSWITCH21092023\REPSWITCH_excgange\REPSWITCH_excgange\data/490101_REPSWITCH1_version1_list1_2024-01-26_14h16.21.646_micRespv1l1_recorded\recording_micRespv1l1_2024-01-26_14h19.18.117.wav;182.3524561;;None;182.3524561;182.3524561;182.3524561;182.3524561;182.3524561;182.3524561;;;;;;490101;1;2024-01-26_14h16.21.646;REPSWITCH1_version1_list1;2022.2.4;143.9853716;
REPSWITCH1/PICTURE_517.png;cuerda;type;darkblue;switch;1;T;2;1;1;1;Stim4_Set2;0;None;37;36;37;0;36;36;36;;;;;;;;;;;;;;;;;;;;;;;182.8525261;184.0818752;184.0818752;184.0818752;184.0818752;184.0818752;184.0818752;184.0818752;184.0818752;['c', 'u', 'e', 'r', 'd', 'a'];0;[0.6738400999456644, 0.8273157998919487, 0.9350022999569774, 1.027636299841106, 1.1771970996633172, 1.2499396996572614];cuerda;C:\2023\REPSWITCH21092023\REPSWITCH_excgange\REPSWITCH_excgange\data/490101_REPSWITCH1_version1_list1_2024-01-26_14h16.21.646_micRespv1l1_recorded\recording_micRespv1l1_2024-01-26_14h19.22.874.wav;187.1030735;187.6031753;None;187.1030735;187.1030735;187.1030735;187.1030735;187.1030735;187.1030735;;;;;;490101;1;2024-01-26_14h16.21.646;REPSWITCH1_version1_list1;2022.2.4;143.9853716;
REPSWITCH1/PICTURE_135.png;traje;type;darkblue;filler;1;F;2;1;1;1;Stim3_Set1;0;None;38;37;38;0;37;37;37;;;;;;;;;;;;;;;;;;;;;;;187.6031753;188.6381021;188.6381021;188.6381021;188.6381021;188.6381021;188.6381021;188.6381021;188.6381021;['t', 'r', 'a', 'j', 'e'];0;[1.4029999999329448, 1.5046186996623874, 1.693983099423349, 1.7836813991889358, 1.8653691997751594];traje;C:\2023\REPSWITCH21092023\REPSWITCH_excgange\REPSWITCH_excgange\data/490101_REPSWITCH1_version1_list1_2024-01-26_14h16.21.646_micRespv1l1_recorded\recording_micRespv1l1_2024-01-26_14h19.27.431.wav;191.6592661;192.1593261;None;191.6592661;191.6592661;191.6592661;191.6592661;191.6592661;191.6592661;;;;;;490101;1;2024-01-26_14h16.21.646;REPSWITCH1_version1_list1;2022.2.4;143.9853716;
REPSWITCH1/PICTURE_30.png;granja;type;darkblue;nontarget;1;NT;2;1;1;1;Stim5_Set2;1;repeat;39;38;39;0;38;38;38;;;;;;;;;;;;;;;;;;;;;;;192.1593261;193.2983734;193.2983734;193.2983734;193.2983734;193.2983734;193.2983734;193.2983734;193.2983734;['g', 'r', 'a', 'n', 'j', 'a'];0;[1.76289870031178, 1.8326697004958987, 1.9920823005959392, 2.0728608006611466, 2.146567599847913, 2.2193611999973655];granja;C:\2023\REPSWITCH21092023\REPSWITCH_excgange\REPSWITCH_excgange\data/490101_REPSWITCH1_version1_list1_2024-01-26_14h16.21.646_micRespv1l1_recorded\recording_micRespv1l1_2024-01-26_14h19.32.091.wav;196.326524;;None;196.326524;196.326524;196.326524;196.326524;196.326524;196.326524;;;;;;490101;1;2024-01-26_14h16.21.646;REPSWITCH1_version1_list1;2022.2.4;143.9853716;
REPSWITCH1/PICTURE_30.png;granja;speak;gold;switch;2;T;2;1;1;1;Stim5_Set2;0;None;40;39;40;0;39;39;39;;;;;;;;;;;;;;;;;;;;;;;196.8265789;197.9586789;197.9586789;197.9586789;197.9586789;197.9586789;197.9586789;197.9586789;197.9586789;None;0;;;C:\2023\REPSWITCH21092023\REPSWITCH_excgange\REPSWITCH_excgange\data/490101_REPSWITCH1_version1_list1_2024-01-26_14h16.21.646_micRespv1l1_recorded\recording_micRespv1l1_2024-01-26_14h19.36.752.wav;200.9868819;;None;200.9868819;200.9868819;200.9868819;200.9868819;200.9868819;200.9868819;;;;;;490101;1;2024-01-26_14h16.21.646;REPSWITCH1_version1_list1;2022.2.4;143.9853716;
REPSWITCH1/PICTURE_142.png;vaso;type;darkblue;filler;1;F;2;1;1;1;Stim7_Set1;0;None;41;40;41;0;40;40;40;;;;;;;;;;;;;;;;;;;;;;;201.4869033;202.5842931;202.5842931;202.5842931;202.5842931;202.5842931;202.5842931;202.5842931;202.5842931;['v', 'a', 's', 'o'];0;[0.7085514003410935, 0.8649223996326327, 0.9615994999185205, 1.076210799627006];vaso;C:\2023\REPSWITCH21092023\REPSWITCH_excgange\REPSWITCH_excgange\data/490101_REPSWITCH1_version1_list1_2024-01-26_14h16.21.646_micRespv1l1_recorded\recording_micRespv1l1_2024-01-26_14h19.41.377.wav;205.6055097;206.1055619;None;205.6055097;205.6055097;205.6055097;205.6055097;205.6055097;205.6055097;;;;;;490101;1;2024-01-26_14h16.21.646;REPSWITCH1_version1_list1;2022.2.4;143.9853716;
REPSWITCH1/PICTURE_19.png;pavo;speak;gold;filler;2;F;2;1;1;1;Stim5_Set1;1;switch;42;41;42;0;41;41;41;;;;;;;;;;;;;;;;;;;;;;;206.1055619;207.2515633;207.2515633;207.2515633;207.2515633;207.2515633;207.2515633;207.2515633;207.2515633;None;0;;;C:\2023\REPSWITCH21092023\REPSWITCH_excgange\REPSWITCH_excgange\data/490101_REPSWITCH1_version1_list1_2024-01-26_14h16.21.646_micRespv1l1_recorded\recording_micRespv1l1_2024-01-26_14h19.46.045.wav;210.2727975;210.7728423;None;210.2727975;210.2727975;210.2727975;210.2727975;210.2727975;210.2727975;;;;;;490101;1;2024-01-26_14h16.21.646;REPSWITCH1_version1_list1;2022.2.4;143.9853716;
REPSWITCH1/PICTURE_552.png;manzana;speak;gold;nontarget;2;NT;2;1;1;1;Stim6_Set2;1;repeat;43;42;43;0;42;42;42;;;;;;;;;;;;;;;;;;;;;;;210.7728423;211.9328292;211.9328292;211.9328292;211.9328292;211.9328292;211.9328292;211.9328292;211.9328292;None;0;;;C:\2023\REPSWITCH21092023\REPSWITCH_excgange\REPSWITCH_excgange\data/490101_REPSWITCH1_version1_list1_2024-01-26_14h16.21.646_micRespv1l1_recorded\recording_micRespv1l1_2024-01-26_14h19.50.725.wav;214.9539627;215.4540541;None;214.9539627;214.9539627;214.9539627;214.9539627;214.9539627;214.9539627;;;;;;490101;1;2024-01-26_14h16.21.646;REPSWITCH1_version1_list1;2022.2.4;143.9853716;
REPSWITCH1/PICTURE_552.png;manzana;speak;gold;repeat;2;T;2;1;1;1;Stim6_Set2;0;None;44;43;44;0;43;43;43;;;;;;;;;;;;;;;;;;;;;;;215.4540541;216.6347654;216.6347654;216.6347654;216.6347654;216.6347654;216.6347654;216.6347654;216.6347654;None;0;;;C:\2023\REPSWITCH21092023\REPSWITCH_excgange\REPSWITCH_excgange\data/490101_REPSWITCH1_version1_list1_2024-01-26_14h16.21.646_micRespv1l1_recorded\recording_micRespv1l1_2024-01-26_14h19.55.427.wav;219.6629381;;None;219.6629381;219.6629381;219.6629381;219.6629381;219.6629381;219.6629381;;;;;;490101;1;2024-01-26_14h16.21.646;REPSWITCH1_version1_list1;2022.2.4;143.9853716;
REPSWITCH1/PICTURE_16.png;cazador;type;darkblue;filler;1;F;2;1;1;1;Stim6_Set1;0;None;45;44;45;0;44;44;44;;;;;;;;;;;;;;;;;;;;;;;220.1629983;221.3367531;221.3367531;221.3367531;221.3367531;221.3367531;221.3367531;221.3367531;221.3367531;['c', 'a', 'z', 'a', 'd', 'o', 'r'];0;[0.8707101000472903, 1.023203399963677, 1.2285192999988794, 1.4038952002301812, 1.5026018004864454, 1.6460766000673175, 1.7338166004046798];cazador;C:\2023\REPSWITCH21092023\REPSWITCH_excgange\REPSWITCH_excgange\data/490101_REPSWITCH1_version1_list1_2024-01-26_14h16.21.646_micRespv1l1_recorded\recording_micRespv1l1_2024-01-26_14h20.00.129.wav;224.3649804;;None;224.3649804;224.3649804;224.3649804;224.3649804;224.3649804;224.3649804;;;;;;490101;1;2024-01-26_14h16.21.646;REPSWITCH1_version1_list1;2022.2.4;143.9853716;
REPSWITCH1/PICTURE_446.png;cerdo;speak;gold;nontarget;2;NT;2;1;1;1;Stim7_Set2;1;switch;46;45;46;0;45;45;45;;;;;;;;;;;;;;;;;;;;;;;224.8650054;225.9554387;225.9554387;225.9554387;225.9554387;225.9554387;225.9554387;225.9554387;225.9554387;None;0;;;C:\2023\REPSWITCH21092023\REPSWITCH_excgange\REPSWITCH_excgange\data/490101_REPSWITCH1_version1_list1_2024-01-26_14h16.21.646_micRespv1l1_recorded\recording_micRespv1l1_2024-01-26_14h20.04.748.wav;228.9835832;;None;228.9835832;228.9835832;228.9835832;228.9835832;228.9835832;228.9835832;;;;;;490101;1;2024-01-26_14h16.21.646;REPSWITCH1_version1_list1;2022.2.4;143.9853716;
REPSWITCH1/PICTURE_446.png;cerdo;speak;gold;repeat;2;T;2;1;1;1;Stim7_Set2;0;None;47;46;47;0;46;46;46;;;;;;;;;;;;;;;;;;;;;;;229.4836419;230.6019537;230.6019537;230.6019537;230.6019537;230.6019537;230.6019537;230.6019537;230.6019537;None;0;;;C:\2023\REPSWITCH21092023\REPSWITCH_excgange\REPSWITCH_excgange\data/490101_REPSWITCH1_version1_list1_2024-01-26_14h16.21.646_micRespv1l1_recorded\recording_micRespv1l1_2024-01-26_14h20.09.394.wav;233.6231057;234.1231644;None;233.6231057;233.6231057;233.6231057;233.6231057;233.6231057;233.6231057;;;;;;490101;1;2024-01-26_14h16.21.646;REPSWITCH1_version1_list1;2022.2.4;143.9853716;
REPSWITCH1/PICTURE_590.png;escoba;type;darkblue;filler;1;F;2;1;1;1;Extra3;0;None;48;47;48;0;47;47;47;;;;;;;;;;;;;;;;;;;;;;;234.1231644;235.3663881;235.3663881;235.3663881;235.3663881;235.3663881;235.3663881;235.3663881;235.3663881;['e', 's', 'c', 'o', 'b', 'a'];0;[0.8223205003887415, 1.018656900152564, 1.190077600069344, 1.302763500250876, 1.4312322000041604, 1.6276165004819632];escoba;C:\2023\REPSWITCH21092023\REPSWITCH_excgange\REPSWITCH_excgange\data/490101_REPSWITCH1_version1_list1_2024-01-26_14h16.21.646_micRespv1l1_recorded\recording_micRespv1l1_2024-01-26_14h20.14.160.wav;238.3945193;;None;238.3945193;238.3945193;238.3945193;238.3945193;238.3945193;238.3945193;;;;;;490101;1;2024-01-26_14h16.21.646;REPSWITCH1_version1_list1;2022.2.4;143.9853716;
REPSWITCH1/PICTURE_169.png;espalda;speak;gold;filler;2;F;2;1;1;1;Stim8_Set1;0;None;49;48;49;0;48;48;48;;;;;;;;;;;;;;;;;;;;;;;238.8946018;240.0544791;240.0544791;240.0544791;240.0544791;240.0544791;240.0544791;240.0544791;240.0544791;None;0;;;C:\2023\REPSWITCH21092023\REPSWITCH_excgange\REPSWITCH_excgange\data/490101_REPSWITCH1_version1_list1_2024-01-26_14h16.21.646_micRespv1l1_recorded\recording_micRespv1l1_2024-01-26_14h20.18.848.wav;243.0826823;;None;243.0826823;243.0826823;243.0826823;243.0826823;243.0826823;243.0826823;;;;;;490101;1;2024-01-26_14h16.21.646;REPSWITCH1_version1_list1;2022.2.4;143.9853716;
REPSWITCH1/PICTURE_199.png;falda;speak;gold;nontarget;2;NT;2;1;1;1;Stim8_Set2;1;repeat;50;49;50;0;49;49;49;;;;;;;;;;;;;;;;;;;;;;;243.5827403;244.7079346;244.7079346;244.7079346;244.7079346;244.7079346;244.7079346;244.7079346;244.7079346;None;0;;;C:\2023\REPSWITCH21092023\REPSWITCH_excgange\REPSWITCH_excgange\data/490101_REPSWITCH1_version1_list1_2024-01-26_14h16.21.646_micRespv1l1_recorded\recording_micRespv1l1_2024-01-26_14h20.23.500.wav;247.7290985;248.229181;None;247.7290985;247.7290985;247.7290985;247.7290985;247.7290985;247.7290985;;;;;;490101;1;2024-01-26_14h16.21.646;REPSWITCH1_version1_list1;2022.2.4;143.9853716;
REPSWITCH1/PICTURE_199.png;falda;type;darkblue;switch;1;T;2;1;1;1;Stim8_Set2;0;None;51;50;51;0;50;50;50;;;;;;;;;;;;;;;;;;;;;;;248.229181;249.305777;249.305777;249.305777;249.305777;249.305777;249.305777;249.305777;249.305777;['f', 'a', 'l', 'd', 'a'];0;[1.1472255997359753, 1.2468791995197535, 1.37146719917655, 1.4452262995764613, 1.5100050000473857];falda;C:\2023\REPSWITCH21092023\REPSWITCH_excgange\REPSWITCH_excgange\data/490101_REPSWITCH1_version1_list1_2024-01-26_14h16.21.646_micRespv1l1_recorded\recording_micRespv1l1_2024-01-26_14h20.28.099.wav;252.3338605;;space;252.3338605;252.3338605;252.3338605;252.3338605;252.3338605;252.3338605;252.8339531;252.8339531;3.9707931;;;490101;1;2024-01-26_14h16.21.646;REPSWITCH1_version1_list1;2022.2.4;143.9853716;
REPSWITCH1/PICTURE_576.png;guante;type;darkblue;nontarget;1;NT;3;1;1;1;Stim1_Set3;0;None;52;51;52;0;51;51;51;;;;;;;;;;;;;;;;;;;;;;;256.8136205;257.9735784;257.9735784;257.9735784;257.9735784;257.9735784;257.9735784;257.9735784;257.9735784;['g', 'u', 'a', 'n', 't', 'e'];0;[0.8962188996374607, 1.0527326995506883, 1.1533941999077797, 1.2829494997859001, 1.3786339992657304, 1.4763115998357534];guante;C:\2023\REPSWITCH21092023\REPSWITCH_excgange\REPSWITCH_excgange\data/490101_REPSWITCH1_version1_list1_2024-01-26_14h16.21.646_micRespv1l1_recorded\recording_micRespv1l1_2024-01-26_14h20.36.766.wav;260.9947764;261.4948139;None;260.9947764;260.9947764;260.9947764;260.9947764;260.9947764;260.9947764;;;;;;490101;1;2024-01-26_14h16.21.646;REPSWITCH1_version1_list1;2022.2.4;143.9853716;
REPSWITCH1/PICTURE_576.png;guante;speak;gold;switch;2;T;3;1;1;1;Stim1_Set3;0;None;53;52;53;0;52;52;52;;;;;;;;;;;;;;;;;;;;;;;261.4948139;262.7172173;262.7172173;262.7172173;262.7172173;262.7172173;262.7172173;262.7172173;262.7172173;None;0;;;C:\2023\REPSWITCH21092023\REPSWITCH_excgange\REPSWITCH_excgange\data/490101_REPSWITCH1_version1_list1_2024-01-26_14h16.21.646_micRespv1l1_recorded\recording_micRespv1l1_2024-01-26_14h20.41.510.wav;265.7383994;266.2385383;None;265.7383994;265.7383994;265.7383994;265.7383994;265.7383994;265.7383994;;;;;;490101;1;2024-01-26_14h16.21.646;REPSWITCH1_version1_list1;2022.2.4;143.9853716;
REPSWITCH1/PICTURE_646.png;tronco;speak;gold;filler;2;F;3;1;1;1;Extra4;0;None;54;53;54;0;53;53;53;;;;;;;;;;;;;;;;;;;;;;;266.2385383;267.3289286;267.3289286;267.3289286;267.3289286;267.3289286;267.3289286;267.3289286;267.3289286;None;0;;;C:\2023\REPSWITCH21092023\REPSWITCH_excgange\REPSWITCH_excgange\data/490101_REPSWITCH1_version1_list1_2024-01-26_14h16.21.646_micRespv1l1_recorded\recording_micRespv1l1_2024-01-26_14h20.46.121.wav;270.3501532;270.8502073;None;270.3501532;270.3501532;270.3501532;270.3501532;270.3501532;270.3501532;;;;;;490101;1;2024-01-26_14h16.21.646;REPSWITCH1_version1_list1;2022.2.4;143.9853716;
REPSWITCH1/PICTURE_610.png;miel;speak;gold;nontarget;2;NT;3;1;1;1;Stim2_Set3;1;repeat;55;54;55;0;54;54;54;;;;;;;;;;;;;;;;;;;;;;;270.8502073;271.9198159;271.9198159;271.9198159;271.9198159;271.9198159;271.9198159;271.9198159;271.9198159;None;0;;;C:\2023\REPSWITCH21092023\REPSWITCH_excgange\REPSWITCH_excgange\data/490101_REPSWITCH1_version1_list1_2024-01-26_14h16.21.646_micRespv1l1_recorded\recording_micRespv1l1_2024-01-26_14h20.50.712.wav;274.9410237;275.4410856;None;274.9410237;274.9410237;274.9410237;274.9410237;274.9410237;274.9410237;;;;;;490101;1;2024-01-26_14h16.21.646;REPSWITCH1_version1_list1;2022.2.4;143.9853716;
REPSWITCH1/PICTURE_610.png;miel;type;darkblue;switch;1;T;3;1;1;1;Stim2_Set3;0;None;56;55;56;0;55;55;55;;;;;;;;;;;;;;;;;;;;;;;275.4410856;276.6148767;276.6148767;276.6148767;276.6148767;276.6148767;276.6148767;276.6148767;276.6148767;['m', 'i', 'e', 'l'];0;[0.5786270992830396, 0.7899605995044112, 0.9334904998540878, 1.0451049990952015];miel;C:\2023\REPSWITCH21092023\REPSWITCH_excgange\REPSWITCH_excgange\data/490101_REPSWITCH1_version1_list1_2024-01-26_14h16.21.646_micRespv1l1_recorded\recording_micRespv1l1_2024-01-26_14h20.55.408.wav;279.6430274;;None;279.6430274;279.6430274;279.6430274;279.6430274;279.6430274;279.6430274;;;;;;490101;1;2024-01-26_14h16.21.646;REPSWITCH1_version1_list1;2022.2.4;143.9853716;
REPSWITCH1/PICTURE_175.png;pintor;type;darkblue;filler;1;F;3;1;1;1;Stim1_Set2;1;repeat;57;56;57;0;56;56;56;;;;;;;;;;;;;;;;;;;;;;;280.1430942;281.1987697;281.1987697;281.1987697;281.1987697;281.1987697;281.1987697;281.1987697;281.1987697;['p', 'i', 'n', 't', 'o', 'r'];0;[0.8455616999417543, 1.0220152996480465, 1.117629500105977, 1.251189200207591, 1.3398911003023386, 1.4505241997539997];pintor;C:\2023\REPSWITCH21092023\REPSWITCH_excgange\REPSWITCH_excgange\data/490101_REPSWITCH1_version1_list1_2024-01-26_14h16.21.646_micRespv1l1_recorded\recording_micRespv1l1_2024-01-26_14h20.59.991.wav;284.219988;284.7200913;None;284.219988;284.219988;284.219988;284.219988;284.219988;284.219988;;;;;;490101;1;2024-01-26_14h16.21.646;REPSWITCH1_version1_list1;2022.2.4;143.9853716;
REPSWITCH1/PICTURE_242.png;cartero;type;darkblue;nontarget;1;NT;3;1;1;1;Stim3_Set3;1;repeat;58;57;58;0;57;57;57;;;;;;;;;;;;;;;;;;;;;;;284.7200913;285.8452452;285.8452452;285.8452452;285.8452452;285.8452452;285.8452452;285.8452452;285.8452452;['c', 'a', 'r', 't', 'e'];0;[1.6648039994761348, 2.399338399991393, 2.613615700043738, 2.796066500246525, 2.8936725994572043];carte;C:\2023\REPSWITCH21092023\REPSWITCH_excgange\REPSWITCH_excgange\data/490101_REPSWITCH1_version1_list1_2024-01-26_14h16.21.646_micRespv1l1_recorded\recording_micRespv1l1_2024-01-26_14h21.04.638.wav;288.8664464;289.3665005;None;288.8664464;288.8664464;288.8664464;288.8664464;288.8664464;288.8664464;;;;;;490101;1;2024-01-26_14h16.21.646;REPSWITCH1_version1_list1;2022.2.4;143.9853716;
REPSWITCH1/PICTURE_242.png;cartero;speak;gold;switch;2;T;3;1;1;1;Stim3_Set3;0;None;59;58;59;0;58;58;58;;;;;;;;;;;;;;;;;;;;;;;289.3665005;290.4499897;290.4499897;290.4499897;290.4499897;290.4499897;290.4499897;290.4499897;290.4499897;None;0;;;C:\2023\REPSWITCH21092023\REPSWITCH_excgange\REPSWITCH_excgange\data/490101_REPSWITCH1_version1_list1_2024-01-26_14h16.21.646_micRespv1l1_recorded\recording_micRespv1l1_2024-01-26_14h21.09.242.wav;293.4712015;293.9712988;None;293.4712015;293.4712015;293.4712015;293.4712015;293.4712015;293.4712015;;;;;;490101;1;2024-01-26_14h16.21.646;REPSWITCH1_version1_list1;2022.2.4;143.9853716;
REPSWITCH1/PICTURE_152.png;caracol;speak;gold;filler;2;F;3;1;1;1;Stim2_Set2;0;None;60;59;60;0;59;59;59;;;;;;;;;;;;;;;;;;;;;;;293.9712988;295.0200357;295.0200357;295.0200357;295.0200357;295.0200357;295.0200357;295.0200357;295.0200357;None;0;;;C:\2023\REPSWITCH21092023\REPSWITCH_excgange\REPSWITCH_excgange\data/490101_REPSWITCH1_version1_list1_2024-01-26_14h16.21.646_micRespv1l1_recorded\recording_micRespv1l1_2024-01-26_14h21.13.812.wav;298.0412543;298.5413065;None;298.0412543;298.0412543;298.0412543;298.0412543;298.0412543;298.0412543;;;;;;490101;1;2024-01-26_14h16.21.646;REPSWITCH1_version1_list1;2022.2.4;143.9853716;
REPSWITCH1/PICTURE_517.png;cuerda;type;darkblue;filler;1;F;3;1;1;1;Stim4_Set2;0;None;61;60;61;0;60;60;60;;;;;;;;;;;;;;;;;;;;;;;298.5413065;299.7498565;299.7498565;299.7498565;299.7498565;299.7498565;299.7498565;299.7498565;299.7498565;['c', 'u', 'e', 'r', 'd', 'a'];0;[0.985903300344944, 1.233114200644195, 1.307866900227964, 1.3825694005936384, 1.5600223001092672, 1.7234616000205278];cuerda;C:\2023\REPSWITCH21092023\REPSWITCH_excgange\REPSWITCH_excgange\data/490101_REPSWITCH1_version1_list1_2024-01-26_14h16.21.646_micRespv1l1_recorded\recording_micRespv1l1_2024-01-26_14h21.18.543.wav;302.819691;303.3197505;None;302.819691;302.819691;302.819691;302.819691;302.819691;302.819691;;;;;;490101;1;2024-01-26_14h16.21.646;REPSWITCH1_version1_list1;2022.2.4;143.9853716;
REPSWITCH1/PICTURE_235.png;aguja;speak;gold;nontarget;2;NT;3;1;1;1;Stim4_Set3;1;switch;62;61;62;0;61;61;61;;;;;;;;;;;;;;;;;;;;;;;303.3197505;304.4171236;304.4171236;304.4171236;304.4171236;304.4171236;304.4171236;304.4171236;304.4171236;None;0;;;C:\2023\REPSWITCH21092023\REPSWITCH_excgange\REPSWITCH_excgange\data/490101_REPSWITCH1_version1_list1_2024-01-26_14h16.21.646_micRespv1l1_recorded\recording_micRespv1l1_2024-01-26_14h21.23.210.wav;307.4383377;307.9383871;None;307.4383377;307.4383377;307.4383377;307.4383377;307.4383377;307.4383377;;;;;;490101;1;2024-01-26_14h16.21.646;REPSWITCH1_version1_list1;2022.2.4;143.9853716;
REPSWITCH1/PICTURE_235.png;aguja;speak;gold;repeat;2;T;3;1;1;1;Stim4_Set3;0;None;63;62;63;0;62;62;62;;;;;;;;;;;;;;;;;;;;;;;307.9383871;308.9732665;308.9732665;308.9732665;308.9732665;308.9732665;308.9732665;308.9732665;308.9732665;None;0;;;C:\2023\REPSWITCH21092023\REPSWITCH_excgange\REPSWITCH_excgange\data/490101_REPSWITCH1_version1_list1_2024-01-26_14h16.21.646_micRespv1l1_recorded\recording_micRespv1l1_2024-01-26_14h21.27.766.wav;312.0014272;;None;312.0014272;312.0014272;312.0014272;312.0014272;312.0014272;312.0014272;;;;;;490101;1;2024-01-26_14h16.21.646;REPSWITCH1_version1_list1;2022.2.4;143.9853716;
REPSWITCH1/PICTURE_30.png;granja;type;darkblue;filler;1;F;3;1;1;1;Stim5_Set2;0;None;64;63;64;0;63;63;63;;;;;;;;;;;;;;;;;;;;;;;312.5014804;313.522507;313.522507;313.522507;313.522507;313.522507;313.522507;313.522507;313.522507;['g', 'r', 'a', 'n', 'a', 'j', 'backspace', 'backspace', 'k', 'a', 'backspace'];0;[0.8427067995071411, 0.9404499996453524, 1.1137888999655843, 1.206437399610877, 1.3928453996777534, 1.420759099535644, 1.9848724994808435, 2.1612849002704024, 2.4423469994217157, 2.554957799613476, 2.9008160000666976];grank;C:\2023\REPSWITCH21092023\REPSWITCH_excgange\REPSWITCH_excgange\data/490101_REPSWITCH1_version1_list1_2024-01-26_14h16.21.646_micRespv1l1_recorded\recording_micRespv1l1_2024-01-26_14h21.32.316.wav;316.5506376;;None;316.5506376;316.5506376;316.5506376;316.5506376;316.5506376;316.5506376;;;;;;490101;1;2024-01-26_14h16.21.646;REPSWITCH1_version1_list1;2022.2.4;143.9853716;
REPSWITCH1/PICTURE_552.png;manzana;speak;gold;filler;2;F;3;1;1;1;Stim6_Set2;1;switch;65;64;65;0;64;64;64;;;;;;;;;;;;;;;;;;;;;;;317.0507173;318.1063956;318.1063956;318.1063956;318.1063956;318.1063956;318.1063956;318.1063956;318.1063956;None;0;;;C:\2023\REPSWITCH21092023\REPSWITCH_excgange\REPSWITCH_excgange\data/490101_REPSWITCH1_version1_list1_2024-01-26_14h16.21.646_micRespv1l1_recorded\recording_micRespv1l1_2024-01-26_14h21.36.899.wav;321.1276226;321.6277112;None;321.1276226;321.1276226;321.1276226;321.1276226;321.1276226;321.1276226;;;;;;490101;1;2024-01-26_14h16.21.646;REPSWITCH1_version1_list1;2022.2.4;143.9853716;
REPSWITCH1/PICTURE_35.png;oreja;speak;gold;nontarget;2;NT;3;1;1;1;Stim5_Set3;1;repeat;66;65;66;0;65;65;65;;;;;;;;;;;;;;;;;;;;;;;321.6277112;322.6972793;322.6972793;322.6972793;322.6972793;322.6972793;322.6972793;322.6972793;322.6972793;None;0;;;C:\2023\REPSWITCH21092023\REPSWITCH_excgange\REPSWITCH_excgange\data/490101_REPSWITCH1_version1_list1_2024-01-26_14h16.21.646_micRespv1l1_recorded\recording_micRespv1l1_2024-01-26_14h21.41.490.wav;325.7254282;;None;325.7254282;325.7254282;325.7254282;325.7254282;325.7254282;325.7254282;;;;;;490101;1;2024-01-26_14h16.21.646;REPSWITCH1_version1_list1;2022.2.4;143.9853716;
REPSWITCH1/PICTURE_35.png;oreja;speak;gold;repeat;2;T;3;1;1;1;Stim5_Set3;0;None;67;66;67;0;66;66;66;;;;;;;;;;;;;;;;;;;;;;;326.2255103;327.3993119;327.3993119;327.3993119;327.3993119;327.3993119;327.3993119;327.3993119;327.3993119;None;0;;;C:\2023\REPSWITCH21092023\REPSWITCH_excgange\REPSWITCH_excgange\data/490101_REPSWITCH1_version1_list1_2024-01-26_14h16.21.646_micRespv1l1_recorded\recording_micRespv1l1_2024-01-26_14h21.46.191.wav;330.4205129;330.9205726;None;330.4205129;330.4205129;330.4205129;330.4205129;330.4205129;330.4205129;;;;;;490101;1;2024-01-26_14h16.21.646;REPSWITCH1_version1_list1;2022.2.4;143.9853716;
REPSWITCH1/PICTURE_673.png;tenedor;type;darkblue;filler;1;F;3;1;1;1;Extra5;0;None;68;67;68;0;67;67;67;;;;;;;;;;;;;;;;;;;;;;;330.9205726;332.0804824;332.0804824;332.0804824;332.0804824;332.0804824;332.0804824;332.0804824;332.0804824;['t', 'e', 'n', 'e', 'd', 'o', 'r'];0;[0.7579323993995786, 0.870554800145328, 0.9961398998275399, 1.0888348994776607, 1.2921056998893619, 1.3778475997969508, 1.4695469997823238];tenedor;C:\2023\REPSWITCH21092023\REPSWITCH_excgange\REPSWITCH_excgange\data/490101_REPSWITCH1_version1_list1_2024-01-26_14h16.21.646_micRespv1l1_recorded\recording_micRespv1l1_2024-01-26_14h21.50.873.wav;335.1086203;;None;335.1086203;335.1086203;335.1086203;335.1086203;335.1086203;335.1086203;;;;;;490101;1;2024-01-26_14h16.21.646;REPSWITCH1_version1_list1;2022.2.4;143.9853716;
REPSWITCH1/PICTURE_464.png;goma;speak;gold;nontarget;2;NT;3;1;1;1;Stim6_Set3;0;None;69;68;69;0;68;68;68;;;;;;;;;;;;;;;;;;;;;;;335.6087144;336.6991539;336.6991539;336.6991539;336.6991539;336.6991539;336.6991539;336.6991539;336.6991539;None;0;;;C:\2023\REPSWITCH21092023\REPSWITCH_excgange\REPSWITCH_excgange\data/490101_REPSWITCH1_version1_list1_2024-01-26_14h16.21.646_micRespv1l1_recorded\recording_micRespv1l1_2024-01-26_14h21.55.492.wav;339.7203633;340.2204035;None;339.7203633;339.7203633;339.7203633;339.7203633;339.7203633;339.7203633;;;;;;490101;1;2024-01-26_14h16.21.646;REPSWITCH1_version1_list1;2022.2.4;143.9853716;
REPSWITCH1/PICTURE_464.png;goma;type;darkblue;switch;1;T;3;1;1;1;Stim6_Set3;0;None;70;69;70;0;69;69;69;;;;;;;;;;;;;;;;;;;;;;;340.2204035;341.2622467;341.2622467;341.2622467;341.2622467;341.2622467;341.2622467;341.2622467;341.2622467;['g', 'o', 'm', 'a'];0;[0.7185920998454094, 0.8192052999511361, 0.9169135997071862, 1.0225771004334092];goma;C:\2023\REPSWITCH21092023\REPSWITCH_excgange\REPSWITCH_excgange\data/490101_REPSWITCH1_version1_list1_2024-01-26_14h16.21.646_micRespv1l1_recorded\recording_micRespv1l1_2024-01-26_14h22.00.054.wav;344.2903982;;None;344.2903982;344.2903982;344.2903982;344.2903982;344.2903982;344.2903982;;;;;;490101;1;2024-01-26_14h16.21.646;REPSWITCH1_version1_list1;2022.2.4;143.9853716;
REPSWITCH1/PICTURE_264.png;mano;speak;gold;filler;2;F;3;1;1;1;Stim3_Set2;0;None;71;70;71;0;70;70;70;;;;;;;;;;;;;;;;;;;;;;;344.7904539;345.8600513;345.8600513;345.8600513;345.8600513;345.8600513;345.8600513;345.8600513;345.8600513;None;0;;;C:\2023\REPSWITCH21092023\REPSWITCH_excgange\REPSWITCH_excgange\data/490101_REPSWITCH1_version1_list1_2024-01-26_14h16.21.646_micRespv1l1_recorded\recording_micRespv1l1_2024-01-26_14h22.04.653.wav;348.929908;;None;348.929908;348.929908;348.929908;348.929908;348.929908;348.929908;;;;;;490101;1;2024-01-26_14h16.21.646;REPSWITCH1_version1_list1;2022.2.4;143.9853716;
REPSWITCH1/PICTURE_271.png;conejo;type;darkblue;nontarget;1;NT;3;1;1;1;Stim7_Set3;1;switch;72;71;72;0;71;71;71;;;;;;;;;;;;;;;;;;;;;;;349.42997;350.6106661;350.6106661;350.6106661;350.6106661;350.6106661;350.6106661;350.6106661;350.6106661;['c', 'o', 'n', 'e', 'j', 'o'];0;[0.7826955001801252, 0.9232138004153967, 1.0238381000235677, 1.211311100050807, 1.2999435001984239, 1.469441500492394];conejo;C:\2023\REPSWITCH21092023\REPSWITCH_excgange\REPSWITCH_excgange\data/490101_REPSWITCH1_version1_list1_2024-01-26_14h16.21.646_micRespv1l1_recorded\recording_micRespv1l1_2024-01-26_14h22.09.404.wav;353.6388683;;None;353.6388683;353.6388683;353.6388683;353.6388683;353.6388683;353.6388683;;;;;;490101;1;2024-01-26_14h16.21.646;REPSWITCH1_version1_list1;2022.2.4;143.9853716;
REPSWITCH1/PICTURE_271.png;conejo;type;darkblue;repeat;1;T;3;1;1;1;Stim7_Set3;0;None;73;72;73;0;72;72;72;;;;;;;;;;;;;;;;;;;;;;;354.13892;355.2015516;355.2015516;355.2015516;355.2015516;355.2015516;355.2015516;355.2015516;355.2015516;['c', 'o', 'n', 'e', 'j', 'o'];0;[0.8611884005367756, 0.9847575007006526, 1.0625069001689553, 1.2688076002523303, 1.336586399935186, 1.4820966003462672];conejo;C:\2023\REPSWITCH21092023\REPSWITCH_excgange\REPSWITCH_excgange\data/490101_REPSWITCH1_version1_list1_2024-01-26_14h16.21.646_micRespv1l1_recorded\recording_micRespv1l1_2024-01-26_14h22.13.995.wav;358.229703;;None;358.229703;358.229703;358.229703;358.229703;358.229703;358.229703;;;;;;490101;1;2024-01-26_14h16.21.646;REPSWITCH1_version1_list1;2022.2.4;143.9853716;
REPSWITCH1/PICTURE_446.png;cerdo;speak;gold;filler;2;F;3;1;1;1;Stim7_Set2;0;None;74;73;74;0;73;73;73;;;;;;;;;;;;;;;;;;;;;;;358.7298133;359.9175244;359.9175244;359.9175244;359.9175244;359.9175244;359.9175244;359.9175244;359.9175244;None;0;;;C:\2023\REPSWITCH21092023\REPSWITCH_excgange\REPSWITCH_excgange\data/490101_REPSWITCH1_version1_list1_2024-01-26_14h16.21.646_micRespv1l1_recorded\recording_micRespv1l1_2024-01-26_14h22.18.710.wav;362.9386701;363.4387544;None;362.9386701;362.9386701;362.9386701;362.9386701;362.9386701;362.9386701;;;;;;490101;1;2024-01-26_14h16.21.646;REPSWITCH1_version1_list1;2022.2.4;143.9853716;
REPSWITCH1/PICTURE_199.png;falda;type;darkblue;filler;1;F;3;1;1;1;Stim8_Set2;1;switch;75;74;75;0;74;74;74;;;;;;;;;;;;;;;;;;;;;;;363.4387544;364.5153636;364.5153636;364.5153636;364.5153636;364.5153636;364.5153636;364.5153636;364.5153636;['f', 'a', 'l', 'd', 'a'];0;[0.84527019970119, 0.9778209999203682, 1.087458400055766, 1.1970772994682193, 1.2728301994502544];falda;C:\2023\REPSWITCH21092023\REPSWITCH_excgange\REPSWITCH_excgange\data/490101_REPSWITCH1_version1_list1_2024-01-26_14h16.21.646_micRespv1l1_recorded\recording_micRespv1l1_2024-01-26_14h22.23.309.wav;367.5434219;;None;367.5434219;367.5434219;367.5434219;367.5434219;367.5434219;367.5434219;;;;;;490101;1;2024-01-26_14h16.21.646;REPSWITCH1_version1_list1;2022.2.4;143.9853716;
REPSWITCH1/PICTURE_320.png;iglesia;type;darkblue;nontarget;1;NT;3;1;1;1;Stim8_Set3;1;repeat;76;75;76;0;75;75;75;;;;;;;;;;;;;;;;;;;;;;;368.0435045;369.2103389;369.2103389;369.2103389;369.2103389;369.2103389;369.2103389;369.2103389;369.2103389;['i', 'g', 'l', 'e', 's', 'i', 'a'];0;[1.3628577999770641, 1.551218799315393, 1.6608493002131581, 1.7844370994716883, 1.951855399645865, 2.031617099419236, 2.156193899922073];iglesia;C:\2023\REPSWITCH21092023\REPSWITCH_excgange\REPSWITCH_excgange\data/490101_REPSWITCH1_version1_list1_2024-01-26_14h16.21.646_micRespv1l1_recorded\recording_micRespv1l1_2024-01-26_14h22.28.003.wav;372.2315423;372.7316379;None;372.2315423;372.2315423;372.2315423;372.2315423;372.2315423;372.2315423;;;;;;490101;1;2024-01-26_14h16.21.646;REPSWITCH1_version1_list1;2022.2.4;143.9853716;
REPSWITCH1/PICTURE_320.png;iglesia;type;darkblue;repeat;1;T;3;1;1;1;Stim8_Set3;0;None;77;76;77;0;76;76;76;;;;;;;;;;;;;;;;;;;;;;;372.7316379;373.8290901;373.8290901;373.8290901;373.8290901;373.8290901;373.8290901;373.8290901;373.8290901;['i', 'g', 'l', 'e', 's', 'i', 'a'];0;[0.6529855998232961, 0.7746166000142694, 0.9460118003189564, 1.0467675998806953, 1.224112500436604, 1.323777800425887, 1.4214073000475764];iglesia;C:\2023\REPSWITCH21092023\REPSWITCH_excgange\REPSWITCH_excgange\data/490101_REPSWITCH1_version1_list1_2024-01-26_14h16.21.646_micRespv1l1_recorded\recording_micRespv1l1_2024-01-26_14h22.32.622.wav;376.8571917;;None;376.8571917;376.8571917;376.8571917;376.8571917;376.8571917;376.8571917;;;;;;490101;1;2024-01-26_14h16.21.646;REPSWITCH1_version1_list1;2022.2.4;143.9853716;
REPSWITCH1/PICTURE_576.png;guante;speak;gold;filler;2;F;4;1;1;1;Stim1_Set3;0;None;78;77;78;0;77;77;77;;;;;;;;;;;;;;;;;;;;;;;377.3572487;378.4338462;378.4338462;378.4338462;378.4338462;378.4338462;378.4338462;378.4338462;378.4338462;None;0;;;C:\2023\REPSWITCH21092023\REPSWITCH_excgange\REPSWITCH_excgange\data/490101_REPSWITCH1_version1_list1_2024-01-26_14h16.21.646_micRespv1l1_recorded\recording_micRespv1l1_2024-01-26_14h22.37.226.wav;381.4549871;381.9550757;None;381.4549871;381.4549871;381.4549871;381.4549871;381.4549871;381.4549871;;;;;;490101;1;2024-01-26_14h16.21.646;REPSWITCH1_version1_list1;2022.2.4;143.9853716;
REPSWITCH1/PICTURE_319.png;vaca;type;darkblue;nontarget;1;NT;4;1;1;1;Stim1_Set4;1;switch;79;78;79;0;78;78;78;;;;;;;;;;;;;;;;;;;;;;;381.9550757;383.0107699;383.0107699;383.0107699;383.0107699;383.0107699;383.0107699;383.0107699;383.0107699;['v', 'a', 'c', 'a'];0;[0.7662759004160762, 0.9346850998699665, 1.0632418002933264, 1.1649269005283713];vaca;C:\2023\REPSWITCH21092023\REPSWITCH_excgange\REPSWITCH_excgange\data/490101_REPSWITCH1_version1_list1_2024-01-26_14h16.21.646_micRespv1l1_recorded\recording_micRespv1l1_2024-01-26_14h22.41.804.wav;386.0319681;386.5320293;None;386.0319681;386.0319681;386.0319681;386.0319681;386.0319681;386.0319681;;;;;;490101;1;2024-01-26_14h16.21.646;REPSWITCH1_version1_list1;2022.2.4;143.9853716;
REPSWITCH1/PICTURE_319.png;vaca;type;darkblue;repeat;1;T;4;1;1;1;Stim1_Set4;0;None;80;79;80;0;79;79;79;;;;;;;;;;;;;;;;;;;;;;;386.5320293;387.5461048;387.5461048;387.5461048;387.5461048;387.5461048;387.5461048;387.5461048;387.5461048;['v', 'a', 'c', 'a'];0;[1.0896760998293757, 1.2969781002029777, 1.4265427999198437, 1.507244000211358];vaca;C:\2023\REPSWITCH21092023\REPSWITCH_excgange\REPSWITCH_excgange\data/490101_REPSWITCH1_version1_list1_2024-01-26_14h16.21.646_micRespv1l1_recorded\recording_micRespv1l1_2024-01-26_14h22.46.339.wav;390.5672951;391.067368;None;390.5672951;390.5672951;390.5672951;390.5672951;390.5672951;390.5672951;;;;;;490101;1;2024-01-26_14h16.21.646;REPSWITCH1_version1_list1;2022.2.4;143.9853716;
REPSWITCH1/PICTURE_719.png;baño;type;darkblue;nontarget;1;NT;4;1;1;1;Stim2_Set4;0;None;81;80;81;0;80;80;80;;;;;;;;;;;;;;;;;;;;;;;391.067368;392.2203112;392.2203112;392.2203112;392.2203112;392.2203112;392.2203112;392.2203112;392.2203112;['b', 'a', 'ñ', 'o'];0;[0.8625956000760198, 1.054955999366939, 1.204445299692452, 1.3240363001823425];baño;C:\2023\REPSWITCH21092023\REPSWITCH_excgange\REPSWITCH_excgange\data/490101_REPSWITCH1_version1_list1_2024-01-26_14h16.21.646_micRespv1l1_recorded\recording_micRespv1l1_2024-01-26_14h22.51.014.wav;395.2484603;;None;395.2484603;395.2484603;395.2484603;395.2484603;395.2484603;395.2484603;;;;;;490101;1;2024-01-26_14h16.21.646;REPSWITCH1_version1_list1;2022.2.4;143.9853716;
REPSWITCH1/PICTURE_719.png;baño;speak;gold;switch;2;T;4;1;1;1;Stim2_Set4;0;None;82;81;82;0;81;81;81;;;;;;;;;;;;;;;;;;;;;;;395.7485313;396.9500819;396.9500819;396.9500819;396.9500819;396.9500819;396.9500819;396.9500819;396.9500819;None;0;;;C:\2023\REPSWITCH21092023\REPSWITCH_excgange\REPSWITCH_excgange\data/490101_REPSWITCH1_version1_list1_2024-01-26_14h16.21.646_micRespv1l1_recorded\recording_micRespv1l1_2024-01-26_14h22.55.742.wav;399.9713092;400.4713822;None;399.9713092;399.9713092;399.9713092;399.9713092;399.9713092;399.9713092;;;;;;490101;1;2024-01-26_14h16.21.646;REPSWITCH1_version1_list1;2022.2.4;143.9853716;
REPSWITCH1/PICTURE_242.png;cartero;speak;gold;filler;2;F;4;1;1;1;Stim3_Set3;1;repeat;83;82;83;0;82;82;82;;;;;;;;;;;;;;;;;;;;;;;400.4713822;401.6520982;401.6520982;401.6520982;401.6520982;401.6520982;401.6520982;401.6520982;401.6520982;None;0;;;C:\2023\REPSWITCH21092023\REPSWITCH_excgange\REPSWITCH_excgange\data/490101_REPSWITCH1_version1_list1_2024-01-26_14h16.21.646_micRespv1l1_recorded\recording_micRespv1l1_2024-01-26_14h23.00.444.wav;404.6802433;;None;404.6802433;404.6802433;404.6802433;404.6802433;404.6802433;404.6802433;;;;;;490101;1;2024-01-26_14h16.21.646;REPSWITCH1_version1_list1;2022.2.4;143.9853716;
REPSWITCH1/PICTURE_610.png;miel;type;darkblue;filler;1;F;4;1;1;1;Stim2_Set3;0;None;84;83;84;0;83;83;83;;;;;;;;;;;;;;;;;;;;;;;405.180343;406.2221402;406.2221402;406.2221402;406.2221402;406.2221402;406.2221402;406.2221402;406.2221402;['m', 'i', 'e', 'l'];0;[0.9516468998044729, 1.1300352001562715, 1.2178090000525117, 1.3314097002148628];miel;C:\2023\REPSWITCH21092023\REPSWITCH_excgange\REPSWITCH_excgange\data/490101_REPSWITCH1_version1_list1_2024-01-26_14h16.21.646_micRespv1l1_recorded\recording_micRespv1l1_2024-01-26_14h23.05.015.wav;409.2503233;;None;409.2503233;409.2503233;409.2503233;409.2503233;409.2503233;409.2503233;;;;;;490101;1;2024-01-26_14h16.21.646;REPSWITCH1_version1_list1;2022.2.4;143.9853716;
REPSWITCH1/PICTURE_8.png;pierna;speak;gold;nontarget;2;NT;4;1;1;1;Stim3_Set4;1;switch;85;84;85;0;84;84;84;;;;;;;;;;;;;;;;;;;;;;;409.7503689;410.8616357;410.8616357;410.8616357;410.8616357;410.8616357;410.8616357;410.8616357;410.8616357;None;0;;;C:\2023\REPSWITCH21092023\REPSWITCH_excgange\REPSWITCH_excgange\data/490101_REPSWITCH1_version1_list1_2024-01-26_14h16.21.646_micRespv1l1_recorded\recording_micRespv1l1_2024-01-26_14h23.09.654.wav;413.8828605;414.3829275;None;413.8828605;413.8828605;413.8828605;413.8828605;413.8828605;413.8828605;;;;;;490101;1;2024-01-26_14h16.21.646;REPSWITCH1_version1_list1;2022.2.4;143.9853716;
REPSWITCH1/PICTURE_8.png;pierna;speak;gold;repeat;2;T;4;1;1;1;Stim3_Set4;0;None;86;85;86;0;85;85;85;;;;;;;;;;;;;;;;;;;;;;;414.3829275;415.5567263;415.5567263;415.5567263;415.5567263;415.5567263;415.5567263;415.5567263;415.5567263;None;0;;;C:\2023\REPSWITCH21092023\REPSWITCH_excgange\REPSWITCH_excgange\data/490101_REPSWITCH1_version1_list1_2024-01-26_14h16.21.646_micRespv1l1_recorded\recording_micRespv1l1_2024-01-26_14h23.14.349.wav;418.577925;419.0780039;None;418.577925;418.577925;418.577925;418.577925;418.577925;418.577925;;;;;;490101;1;2024-01-26_14h16.21.646;REPSWITCH1_version1_list1;2022.2.4;143.9853716;
REPSWITCH1/PICTURE_498.png;taza;speak;gold;nontarget;2;NT;4;1;1;1;Stim4_Set4;1;repeat;87;86;87;0;86;86;86;;;;;;;;;;;;;;;;;;;;;;;419.0780039;420.1823086;420.1823086;420.1823086;420.1823086;420.1823086;420.1823086;420.1823086;420.1823086;None;0;;;C:\2023\REPSWITCH21092023\REPSWITCH_excgange\REPSWITCH_excgange\data/490101_REPSWITCH1_version1_list1_2024-01-26_14h16.21.646_micRespv1l1_recorded\recording_micRespv1l1_2024-01-26_14h23.18.974.wav;423.2035482;423.7035903;None;423.2035482;423.2035482;423.2035482;423.2035482;423.2035482;423.2035482;;;;;;490101;1;2024-01-26_14h16.21.646;REPSWITCH1_version1_list1;2022.2.4;143.9853716;
REPSWITCH1/PICTURE_498.png;taza;type;darkblue;switch;1;T;4;1;1;1;Stim4_Set4;0;None;88;87;88;0;87;87;87;;;;;;;;;;;;;;;;;;;;;;;423.7035903;424.7940657;424.7940657;424.7940657;424.7940657;424.7940657;424.7940657;424.7940657;424.7940657;['t', 'a', 'z', 'a'];0;[0.7572088995948434, 0.8788176998496056, 1.124992299824953, 1.3303056992590427];taza;C:\2023\REPSWITCH21092023\REPSWITCH_excgange\REPSWITCH_excgange\data/490101_REPSWITCH1_version1_list1_2024-01-26_14h16.21.646_micRespv1l1_recorded\recording_micRespv1l1_2024-01-26_14h23.23.586.wav;427.8152591;428.315292;None;427.8152591;427.8152591;427.8152591;427.8152591;427.8152591;427.8152591;;;;;;490101;1;2024-01-26_14h16.21.646;REPSWITCH1_version1_list1;2022.2.4;143.9853716;
REPSWITCH1/PICTURE_235.png;aguja;speak;gold;filler;2;F;4;1;1;1;Stim4_Set3;0;None;89;88;89;0;88;88;88;;;;;;;;;;;;;;;;;;;;;;;428.315292;429.4752146;429.4752146;429.4752146;429.4752146;429.4752146;429.4752146;429.4752146;429.4752146;None;0;;;C:\2023\REPSWITCH21092023\REPSWITCH_excgange\REPSWITCH_excgange\data/490101_REPSWITCH1_version1_list1_2024-01-26_14h16.21.646_micRespv1l1_recorded\recording_micRespv1l1_2024-01-26_14h23.28.267.wav;432.4964123;432.9964662;None;432.4964123;432.4964123;432.4964123;432.4964123;432.4964123;432.4964123;;;;;;490101;1;2024-01-26_14h16.21.646;REPSWITCH1_version1_list1;2022.2.4;143.9853716;
REPSWITCH1/PICTURE_35.png;oreja;type;darkblue;filler;1;F;4;1;1;1;Stim5_Set3;0;None;90;89;90;0;89;89;89;;;;;;;;;;;;;;;;;;;;;;;432.9964662;434.0591255;434.0591255;434.0591255;434.0591255;434.0591255;434.0591255;434.0591255;434.0591255;['o', 'r', 'e', 'j', 'a'];0;[1.273417199961841, 1.3880658000707626, 1.4638192998245358, 1.5614895997568965, 1.6351955002173781];oreja;C:\2023\REPSWITCH21092023\REPSWITCH_excgange\REPSWITCH_excgange\data/490101_REPSWITCH1_version1_list1_2024-01-26_14h16.21.646_micRespv1l1_recorded\recording_micRespv1l1_2024-01-26_14h23.32.851.wav;437.0803487;437.5804136;None;437.0803487;437.0803487;437.0803487;437.0803487;437.0803487;437.0803487;;;;;;490101;1;2024-01-26_14h16.21.646;REPSWITCH1_version1_list1;2022.2.4;143.9853716;
REPSWITCH1/PICTURE_687.png;camisa;type;darkblue;nontarget;1;NT;4;1;1;1;Stim5_Set4;1;repeat;91;90;91;0;90;90;90;;;;;;;;;;;;;;;;;;;;;;;437.5804136;438.6223079;438.6223079;438.6223079;438.6223079;438.6223079;438.6223079;438.6223079;438.6223079;['c', 'a', 'm', 'i', 's', 'a'];0;[1.2640581000596285, 1.388628600165248, 1.4972152998670936, 1.6098782001063228, 1.6547897001728415, 1.7244977001100779];camisa;C:\2023\REPSWITCH21092023\REPSWITCH_excgange\REPSWITCH_excgange\data/490101_REPSWITCH1_version1_list1_2024-01-26_14h16.21.646_micRespv1l1_recorded\recording_micRespv1l1_2024-01-26_14h23.37.415.wav;441.6434473;442.1435135;None;441.6434473;441.6434473;441.6434473;441.6434473;441.6434473;441.6434473;;;;;;490101;1;2024-01-26_14h16.21.646;REPSWITCH1_version1_list1;2022.2.4;143.9853716;
REPSWITCH1/PICTURE_687.png;camisa;speak;gold;switch;2;T;4;1;1;1;Stim5_Set4;0;None;92;91;92;0;91;91;91;;;;;;;;;;;;;;;;;;;;;;;442.1435135;443.1784616;443.1784616;443.1784616;443.1784616;443.1784616;443.1784616;443.1784616;443.1784616;None;0;;;C:\2023\REPSWITCH21092023\REPSWITCH_excgange\REPSWITCH_excgange\data/490101_REPSWITCH1_version1_list1_2024-01-26_14h16.21.646_micRespv1l1_recorded\recording_micRespv1l1_2024-01-26_14h23.41.970.wav;446.1996341;446.6996673;None;446.1996341;446.1996341;446.1996341;446.1996341;446.1996341;446.1996341;;;;;;490101;1;2024-01-26_14h16.21.646;REPSWITCH1_version1_list1;2022.2.4;143.9853716;
REPSWITCH1/PICTURE_338.png;regalo;speak;gold;nontarget;2;NT;4;1;1;1;Stim6_Set4;0;None;93;92;93;0;92;92;92;;;;;;;;;;;;;;;;;;;;;;;446.6996673;447.7623275;447.7623275;447.7623275;447.7623275;447.7623275;447.7623275;447.7623275;447.7623275;None;0;;;C:\2023\REPSWITCH21092023\REPSWITCH_excgange\REPSWITCH_excgange\data/490101_REPSWITCH1_version1_list1_2024-01-26_14h16.21.646_micRespv1l1_recorded\recording_micRespv1l1_2024-01-26_14h23.46.555.wav;450.7835356;451.2836056;None;450.7835356;450.7835356;450.7835356;450.7835356;450.7835356;450.7835356;;;;;;490101;1;2024-01-26_14h16.21.646;REPSWITCH1_version1_list1;2022.2.4;143.9853716;
REPSWITCH1/PICTURE_338.png;regalo;speak;gold;repeat;2;T;4;1;1;1;Stim6_Set4;0;None;94;93;94;0;93;93;93;;;;;;;;;;;;;;;;;;;;;;;451.2836056;452.4018098;452.4018098;452.4018098;452.4018098;452.4018098;452.4018098;452.4018098;452.4018098;None;0;;;C:\2023\REPSWITCH21092023\REPSWITCH_excgange\REPSWITCH_excgange\data/490101_REPSWITCH1_version1_list1_2024-01-26_14h16.21.646_micRespv1l1_recorded\recording_micRespv1l1_2024-01-26_14h23.51.194.wav;455.4230588;455.9231213;None;455.4230588;455.4230588;455.4230588;455.4230588;455.4230588;455.4230588;;;;;;490101;1;2024-01-26_14h16.21.646;REPSWITCH1_version1_list1;2022.2.4;143.9853716;
REPSWITCH1/PICTURE_663.png;columna;type;darkblue;filler;1;F;4;1;1;1;Extra6;0;None;95;94;95;0;94;94;94;;;;;;;;;;;;;;;;;;;;;;;455.9231213;457.1942081;457.1942081;457.1942081;457.1942081;457.1942081;457.1942081;457.1942081;457.1942081;['c', 'o', 'l', 'u', 'm', 'n', 'a'];0;[0.7377822995185852, 0.8822483997792006, 1.0547149991616607, 1.3008995996788144, 1.4712854996323586, 1.653676399961114, 1.7254291996359825];columna;C:\2023\REPSWITCH21092023\REPSWITCH_excgange\REPSWITCH_excgange\data/490101_REPSWITCH1_version1_list1_2024-01-26_14h16.21.646_micRespv1l1_recorded\recording_micRespv1l1_2024-01-26_14h23.55.987.wav;460.2223173;;None;460.2223173;460.2223173;460.2223173;460.2223173;460.2223173;460.2223173;;;;;;490101;1;2024-01-26_14h16.21.646;REPSWITCH1_version1_list1;2022.2.4;143.9853716;
REPSWITCH1/PICTURE_271.png;conejo;speak;gold;filler;2;F;4;1;1;1;Stim7_Set3;0;None;96;95;96;0;95;95;95;;;;;;;;;;;;;;;;;;;;;;;460.7223419;461.8961306;461.8961306;461.8961306;461.8961306;461.8961306;461.8961306;461.8961306;461.8961306;None;0;;;C:\2023\REPSWITCH21092023\REPSWITCH_excgange\REPSWITCH_excgange\data/490101_REPSWITCH1_version1_list1_2024-01-26_14h16.21.646_micRespv1l1_recorded\recording_micRespv1l1_2024-01-26_14h24.00.689.wav;464.9243141;;None;464.9243141;464.9243141;464.9243141;464.9243141;464.9243141;464.9243141;;;;;;490101;1;2024-01-26_14h16.21.646;REPSWITCH1_version1_list1;2022.2.4;143.9853716;
REPSWITCH1/PICTURE_48.png;bombero;speak;gold;nontarget;2;NT;4;1;1;1;Stim7_Set4;0;None;97;96;97;0;96;96;96;;;;;;;;;;;;;;;;;;;;;;;465.424354;466.5286971;466.5286971;466.5286971;466.5286971;466.5286971;466.5286971;466.5286971;466.5286971;None;0;;;C:\2023\REPSWITCH21092023\REPSWITCH_excgange\REPSWITCH_excgange\data/490101_REPSWITCH1_version1_list1_2024-01-26_14h16.21.646_micRespv1l1_recorded\recording_micRespv1l1_2024-01-26_14h24.05.320.wav;469.5499158;470.0499797;None;469.5499158;469.5499158;469.5499158;469.5499158;469.5499158;469.5499158;;;;;;490101;1;2024-01-26_14h16.21.646;REPSWITCH1_version1_list1;2022.2.4;143.9853716;
REPSWITCH1/PICTURE_48.png;bombero;type;darkblue;switch;1;T;4;1;1;1;Stim7_Set4;0;None;98;97;98;0;97;97;97;;;;;;;;;;;;;;;;;;;;;;;470.0499797;471.1820658;471.1820658;471.1820658;471.1820658;471.1820658;471.1820658;471.1820658;471.1820658;['b', 'o', 'm', 'b', 'e', 'r', 'o'];0;[0.8507596999406815, 0.981305799447, 1.086961599998176, 1.251405599527061, 1.4567329995334148, 1.5463832998648286, 1.6431106999516487];bombero;C:\2023\REPSWITCH21092023\REPSWITCH_excgange\REPSWITCH_excgange\data/490101_REPSWITCH1_version1_list1_2024-01-26_14h16.21.646_micRespv1l1_recorded\recording_micRespv1l1_2024-01-26_14h24.09.974.wav;474.2033194;474.7033454;None;474.2033194;474.2033194;474.2033194;474.2033194;474.2033194;474.2033194;;;;;;490101;1;2024-01-26_14h16.21.646;REPSWITCH1_version1_list1;2022.2.4;143.9853716;
REPSWITCH1/PICTURE_728.png;pulpo;type;darkblue;nontarget;1;NT;4;1;1;1;Stim8_Set4;0;None;99;98;99;0;98;98;98;;;;;;;;;;;;;;;;;;;;;;;474.7033454;475.8910111;475.8910111;475.8910111;475.8910111;475.8910111;475.8910111;475.8910111;475.8910111;['p', 'u', 'l', 'p', 'o'];0;[0.8211596999317408, 1.0862710000947118, 1.444068499840796, 1.5676669999957085, 1.6842678999528289];pulpo;C:\2023\REPSWITCH21092023\REPSWITCH_excgange\REPSWITCH_excgange\data/490101_REPSWITCH1_version1_list1_2024-01-26_14h16.21.646_micRespv1l1_recorded\recording_micRespv1l1_2024-01-26_14h24.14.683.wav;478.9122671;479.4122839;None;478.9122671;478.9122671;478.9122671;478.9122671;478.9122671;478.9122671;;;;;;490101;1;2024-01-26_14h16.21.646;REPSWITCH1_version1_list1;2022.2.4;143.9853716;
REPSWITCH1/PICTURE_728.png;pulpo;type;darkblue;repeat;1;T;4;1;1;1;Stim8_Set4;0;None;100;99;100;0;99;99;99;;;;;;;;;;;;;;;;;;;;;;;479.4122839;480.5444002;480.5444002;480.5444002;480.5444002;480.5444002;480.5444002;480.5444002;480.5444002;['p', 'u', 'l', 'p', 'o'];0;[0.5749871004372835, 0.8281787997111678, 1.0554219000041485, 1.25674660038203, 1.3155466997995973];pulpo;C:\2023\REPSWITCH21092023\REPSWITCH_excgange\REPSWITCH_excgange\data/490101_REPSWITCH1_version1_list1_2024-01-26_14h16.21.646_micRespv1l1_recorded\recording_micRespv1l1_2024-01-26_14h24.19.337.wav;483.5725863;;None;483.5725863;483.5725863;483.5725863;483.5725863;483.5725863;483.5725863;;;;;;490101;1;2024-01-26_14h16.21.646;REPSWITCH1_version1_list1;2022.2.4;143.9853716;
REPSWITCH1/PICTURE_320.png;iglesia;speak;gold;filler;1;F;4;1;1;1;Stim8_Set3;0;None;101;100;101;0;100;100;100;;;;;;;;;;;;;;;;;;;;;;;484.0727273;485.1283376;485.1283376;485.1283376;485.1283376;485.1283376;485.1283376;485.1283376;485.1283376;None;0;;;C:\2023\REPSWITCH21092023\REPSWITCH_excgange\REPSWITCH_excgange\data/490101_REPSWITCH1_version1_list1_2024-01-26_14h16.21.646_micRespv1l1_recorded\recording_micRespv1l1_2024-01-26_14h24.23.921.wav;488.1495691;488.6496469;None;488.1495691;488.1495691;488.1495691;488.1495691;488.1495691;488.1495691;;;;;;490101;1;2024-01-26_14h16.21.646;REPSWITCH1_version1_list1;2022.2.4;143.9853716;
REPSWITCH1/PICTURE_464.png;goma;type;darkblue;filler;1;F;4;1;1;1;Stim6_Set3;0;None;102;101;102;0;101;101;101;;;;;;;;;;;;;;;;;;;;;;;488.6496469;489.6984011;489.6984011;489.6984011;489.6984011;489.6984011;489.6984011;489.6984011;489.6984011;['g', 'o', 'm', 'a'];0;[0.9869881002232432, 1.0627573002129793, 1.1395179005339742, 1.2680807001888752];goma;C:\2023\REPSWITCH21092023\REPSWITCH_excgange\REPSWITCH_excgange\data/490101_REPSWITCH1_version1_list1_2024-01-26_14h16.21.646_micRespv1l1_recorded\recording_micRespv1l1_2024-01-26_14h24.28.491.wav;492.7196379;493.2196895;space;492.7196379;492.7196379;492.7196379;492.7196379;492.7196379;492.7196379;493.2196895;493.2196895;17.7817841;;;490101;1;2024-01-26_14h16.21.646;REPSWITCH1_version1_list1;2022.2.4;143.9853716;
REPSWITCH1/PICTURE_663.png;columna;type;darkblue;filler;1;F;1;2;1;1;Extra6;0;None;103;102;1;0;102;102;102;;;;;;;;;;;;;;;;;;;;;;;511.0136564;512.2083079;512.2083079;512.2083079;512.2083079;512.2083079;512.2083079;512.2083079;512.2083079;['c', 'o', 'l', 'u', 'm', 'n', 'a'];0;[0.6868342999368906, 0.8722638003528118, 1.0815147003158927, 1.2977817999199033, 1.4651815006509423, 1.633657100610435, 1.7074151001870632];columna;C:\2023\REPSWITCH21092023\REPSWITCH_excgange\REPSWITCH_excgange\data/490101_REPSWITCH1_version1_list1_2024-01-26_14h16.21.646_micRespv1l1_recorded\recording_micRespv1l1_2024-01-26_14h24.51.001.wav;515.2294952;515.729592;None;515.2294952;515.2294952;515.2294952;515.2294952;515.2294952;515.2294952;;;;;;490101;1;2024-01-26_14h16.21.646;REPSWITCH1_version1_list1;2022.2.4;143.9853716;
REPSWITCH1/PICTURE_128.png;muñeca;speak;gold;nontarget;2;NT;1;2;1;1;Stim4_Set1;1;switch;104;103;2;0;103;103;103;;;;;;;;;;;;;;;;;;;;;;;515.729592;516.8200315;516.8200315;516.8200315;516.8200315;516.8200315;516.8200315;516.8200315;516.8200315;None;0;;;C:\2023\REPSWITCH21092023\REPSWITCH_excgange\REPSWITCH_excgange\data/490101_REPSWITCH1_version1_list1_2024-01-26_14h16.21.646_micRespv1l1_recorded\recording_micRespv1l1_2024-01-26_14h24.55.613.wav;519.8481475;;None;519.8481475;519.8481475;519.8481475;519.8481475;519.8481475;519.8481475;;;;;;490101;1;2024-01-26_14h16.21.646;REPSWITCH1_version1_list1;2022.2.4;143.9853716;
REPSWITCH1/PICTURE_128.png;muñeca;speak;gold;repeat;2;T;1;2;1;1;Stim4_Set1;0;None;105;104;3;0;104;104;104;;;;;;;;;;;;;;;;;;;;;;;520.3482593;521.4386635;521.4386635;521.4386635;521.4386635;521.4386635;521.4386635;521.4386635;521.4386635;None;0;;;C:\2023\REPSWITCH21092023\REPSWITCH_excgange\REPSWITCH_excgange\data/490101_REPSWITCH1_version1_list1_2024-01-26_14h16.21.646_micRespv1l1_recorded\recording_micRespv1l1_2024-01-26_14h25.00.231.wav;524.466847;;None;524.466847;524.466847;524.466847;524.466847;524.466847;524.466847;;;;;;490101;1;2024-01-26_14h16.21.646;REPSWITCH1_version1_list1;2022.2.4;143.9853716;
REPSWITCH1/PICTURE_8.png;pierna;type;darkblue;filler;1;F;1;2;1;1;Stim3_Set4;0;None;106;105;4;0;105;105;105;;;;;;;;;;;;;;;;;;;;;;;524.9668794;526.0017826;526.0017826;526.0017826;526.0017826;526.0017826;526.0017826;526.0017826;526.0017826;['p', 'i', 'e', 'r', 'n', 'a'];0;[0.7240968998521566, 0.8994925003498793, 1.0161101995036006, 1.0868758000433445, 1.1705978997051716, 1.3011525999754667];pierna;C:\2023\REPSWITCH21092023\REPSWITCH_excgange\REPSWITCH_excgange\data/490101_REPSWITCH1_version1_list1_2024-01-26_14h16.21.646_micRespv1l1_recorded\recording_micRespv1l1_2024-01-26_14h25.04.794.wav;529.0229802;529.5230792;None;529.0229802;529.0229802;529.0229802;529.0229802;529.0229802;529.0229802;;;;;;490101;1;2024-01-26_14h16.21.646;REPSWITCH1_version1_list1;2022.2.4;143.9853716;
REPSWITCH1/PICTURE_135.png;traje;speak;gold;nontarget;2;NT;1;2;1;1;Stim3_Set1;1;switch;107;106;5;0;106;106;106;;;;;;;;;;;;;;;;;;;;;;;529.5230792;530.5509712;530.5509712;530.5509712;530.5509712;530.5509712;530.5509712;530.5509712;530.5509712;None;0;;;C:\2023\REPSWITCH21092023\REPSWITCH_excgange\REPSWITCH_excgange\data/490101_REPSWITCH1_version1_list1_2024-01-26_14h16.21.646_micRespv1l1_recorded\recording_micRespv1l1_2024-01-26_14h25.09.343.wav;533.572177;534.0722738;None;533.572177;533.572177;533.572177;533.572177;533.572177;533.572177;;;;;;490101;1;2024-01-26_14h16.21.646;REPSWITCH1_version1_list1;2022.2.4;143.9853716;
REPSWITCH1/PICTURE_135.png;traje;speak;gold;repeat;2;T;1;2;1;1;Stim3_Set1;0;None;108;107;6;0;107;107;107;;;;;;;;;;;;;;;;;;;;;;;534.0722738;535.1696375;535.1696375;535.1696375;535.1696375;535.1696375;535.1696375;535.1696375;535.1696375;None;0;;;C:\2023\REPSWITCH21092023\REPSWITCH_excgange\REPSWITCH_excgange\data/490101_REPSWITCH1_version1_list1_2024-01-26_14h16.21.646_micRespv1l1_recorded\recording_micRespv1l1_2024-01-26_14h25.13.963.wav;538.1908383;538.6909036;None;538.1908383;538.1908383;538.1908383;538.1908383;538.1908383;538.1908383;;;;;;490101;1;2024-01-26_14h16.21.646;REPSWITCH1_version1_list1;2022.2.4;143.9853716;
REPSWITCH1/PICTURE_673.png;tenedor;type;darkblue;filler;1;F;1;2;1;1;Extra5;0;None;109;108;7;0;108;108;108;;;;;;;;;;;;;;;;;;;;;;;538.6909036;539.7049791;539.7049791;539.7049791;539.7049791;539.7049791;539.7049791;539.7049791;539.7049791;['t', 'e', 'n', 'e', 'd', 'o', 'r'];0;[0.7081292001530528, 0.8317023003473878, 0.9393338998779655, 1.052955999970436, 1.1964694000780582, 1.2801948999986053, 1.3958197999745607];tenedor;C:\2023\REPSWITCH21092023\REPSWITCH_excgange\REPSWITCH_excgange\data/490101_REPSWITCH1_version1_list1_2024-01-26_14h16.21.646_micRespv1l1_recorded\recording_micRespv1l1_2024-01-26_14h25.18.498.wav;542.7261861;543.226258;None;542.7261861;542.7261861;542.7261861;542.7261861;542.7261861;542.7261861;;;;;;490101;1;2024-01-26_14h16.21.646;REPSWITCH1_version1_list1;2022.2.4;143.9853716;
REPSWITCH1/PICTURE_728.png;pulpo;speak;gold;filler;2;F;1;2;1;1;Stim8_Set4;0;None;110;109;8;0;109;109;109;;;;;;;;;;;;;;;;;;;;;;;543.226258;544.3652916;544.3652916;544.3652916;544.3652916;544.3652916;544.3652916;544.3652916;544.3652916;None;0;;;C:\2023\REPSWITCH21092023\REPSWITCH_excgange\REPSWITCH_excgange\data/490101_REPSWITCH1_version1_list1_2024-01-26_14h16.21.646_micRespv1l1_recorded\recording_micRespv1l1_2024-01-26_14h25.23.157.wav;547.3865027;547.8865944;None;547.3865027;547.3865027;547.3865027;547.3865027;547.3865027;547.3865027;;;;;;490101;1;2024-01-26_14h16.21.646;REPSWITCH1_version1_list1;2022.2.4;143.9853716;
REPSWITCH1/PICTURE_16.png;cazador;speak;gold;nontarget;2;NT;1;2;1;1;Stim6_Set1;1;repeat;111;110;9;0;110;110;110;;;;;;;;;;;;;;;;;;;;;;;547.8865944;548.9006246;548.9006246;548.9006246;548.9006246;548.9006246;548.9006246;548.9006246;548.9006246;None;0;;;C:\2023\REPSWITCH21092023\REPSWITCH_excgange\REPSWITCH_excgange\data/490101_REPSWITCH1_version1_list1_2024-01-26_14h16.21.646_micRespv1l1_recorded\recording_micRespv1l1_2024-01-26_14h25.27.693.wav;551.9218127;552.4219111;None;551.9218127;551.9218127;551.9218127;551.9218127;551.9218127;551.9218127;;;;;;490101;1;2024-01-26_14h16.21.646;REPSWITCH1_version1_list1;2022.2.4;143.9853716;
REPSWITCH1/PICTURE_16.png;cazador;type;darkblue;switch;1;T;1;2;1;1;Stim6_Set1;0;None;112;111;10;0;111;111;111;;;;;;;;;;;;;;;;;;;;;;;552.4219111;553.567987;553.567987;553.567987;553.567987;553.567987;553.567987;553.567987;553.567987;['c', 'a', 'z', 'a', 'd', 'o', 'r'];0;[0.7137214001268148, 0.8602133998647332, 1.0495715001598, 1.2489174995571375, 1.3585463995113969, 1.501083499751985, 1.5947597995400429];cazador;C:\2023\REPSWITCH21092023\REPSWITCH_excgange\REPSWITCH_excgange\data/490101_REPSWITCH1_version1_list1_2024-01-26_14h16.21.646_micRespv1l1_recorded\recording_micRespv1l1_2024-01-26_14h25.32.361.wav;556.5890912;557.0891884;None;556.5890912;556.5890912;556.5890912;556.5890912;556.5890912;556.5890912;;;;;;490101;1;2024-01-26_14h16.21.646;REPSWITCH1_version1_list1;2022.2.4;143.9853716;
REPSWITCH1/PICTURE_498.png;taza;type;darkblue;filler;1;F;1;2;1;1;Stim4_Set4;1;repeat;113;112;11;0;112;112;112;;;;;;;;;;;;;;;;;;;;;;;557.0891884;558.1448678;558.1448678;558.1448678;558.1448678;558.1448678;558.1448678;558.1448678;558.1448678;['t', 'a', 'z', 'a'];0;[0.7843025997281075, 0.9178410992026329, 1.096243399195373, 1.2806253992021084];taza;C:\2023\REPSWITCH21092023\REPSWITCH_excgange\REPSWITCH_excgange\data/490101_REPSWITCH1_version1_list1_2024-01-26_14h16.21.646_micRespv1l1_recorded\recording_micRespv1l1_2024-01-26_14h25.36.938.wav;561.1730658;;None;561.1730658;561.1730658;561.1730658;561.1730658;561.1730658;561.1730658;;;;;;490101;1;2024-01-26_14h16.21.646;REPSWITCH1_version1_list1;2022.2.4;143.9853716;
REPSWITCH1/PICTURE_381.png;fresa;type;darkblue;nontarget;1;NT;1;2;1;1;Stim2_Set1;1;repeat;114;113;12;0;113;113;113;;;;;;;;;;;;;;;;;;;;;;;561.6731032;562.8886248;562.8886248;562.8886248;562.8886248;562.8886248;562.8886248;562.8886248;562.8886248;['f', 'r', 'e', 's', 'a'];0;[1.0667213993147016, 1.2172128995880485, 1.3288411991670728, 1.4863089993596077, 1.5670443996787071];fresa;C:\2023\REPSWITCH21092023\REPSWITCH_excgange\REPSWITCH_excgange\data/490101_REPSWITCH1_version1_list1_2024-01-26_14h16.21.646_micRespv1l1_recorded\recording_micRespv1l1_2024-01-26_14h25.41.682.wav;565.9167467;;None;565.9167467;565.9167467;565.9167467;565.9167467;565.9167467;565.9167467;;;;;;490101;1;2024-01-26_14h16.21.646;REPSWITCH1_version1_list1;2022.2.4;143.9853716;
REPSWITCH1/PICTURE_381.png;fresa;speak;gold;switch;2;T;1;2;1;1;Stim2_Set1;0;None;115;114;13;0;114;114;114;;;;;;;;;;;;;;;;;;;;;;;566.416803;567.6878701;567.6878701;567.6878701;567.6878701;567.6878701;567.6878701;567.6878701;567.6878701;None;0;;;C:\2023\REPSWITCH21092023\REPSWITCH_excgange\REPSWITCH_excgange\data/490101_REPSWITCH1_version1_list1_2024-01-26_14h16.21.646_micRespv1l1_recorded\recording_micRespv1l1_2024-01-26_14h25.46.481.wav;570.7159493;;None;570.7159493;570.7159493;570.7159493;570.7159493;570.7159493;570.7159493;;;;;;490101;1;2024-01-26_14h16.21.646;REPSWITCH1_version1_list1;2022.2.4;143.9853716;
REPSWITCH1/PICTURE_178.png;puente;speak;gold;nontarget;2;NT;1;2;1;1;Stim1_Set1;0;None;116;115;14;0;115;115;115;;;;;;;;;;;;;;;;;;;;;;;571.216062;572.2856152;572.2856152;572.2856152;572.2856152;572.2856152;572.2856152;572.2856152;572.2856152;None;0;;;C:\2023\REPSWITCH21092023\REPSWITCH_excgange\REPSWITCH_excgange\data/490101_REPSWITCH1_version1_list1_2024-01-26_14h16.21.646_micRespv1l1_recorded\recording_micRespv1l1_2024-01-26_14h25.51.078.wav;575.3068251;575.80689;None;575.3068251;575.3068251;575.3068251;575.3068251;575.3068251;575.3068251;;;;;;490101;1;2024-01-26_14h16.21.646;REPSWITCH1_version1_list1;2022.2.4;143.9853716;
REPSWITCH1/PICTURE_178.png;puente;type;darkblue;switch;1;T;1;2;1;1;Stim1_Set1;0;None;117;116;15;0;116;116;116;;;;;;;;;;;;;;;;;;;;;;;575.80689;576.8139878;576.8139878;576.8139878;576.8139878;576.8139878;576.8139878;576.8139878;576.8139878;['p', 'u', 'e', 'n', 't', 'e'];0;[0.742862599901855, 1.0288972994312644, 1.1305614998564124, 1.310967999510467, 1.4614475993439555, 1.546230299398303];puente;C:\2023\REPSWITCH21092023\REPSWITCH_excgange\REPSWITCH_excgange\data/490101_REPSWITCH1_version1_list1_2024-01-26_14h16.21.646_micRespv1l1_recorded\recording_micRespv1l1_2024-01-26_14h25.55.606.wav;579.8352425;580.3352833;None;579.8352425;579.8352425;579.8352425;579.8352425;579.8352425;579.8352425;;;;;;490101;1;2024-01-26_14h16.21.646;REPSWITCH1_version1_list1;2022.2.4;143.9853716;
REPSWITCH1/PICTURE_719.png;baño;speak;gold;filler;2;F;1;2;1;1;Stim2_Set4;0;None;118;117;16;0;117;117;117;;;;;;;;;;;;;;;;;;;;;;;580.3352833;581.4257837;581.4257837;581.4257837;581.4257837;581.4257837;581.4257837;581.4257837;581.4257837;None;0;;;C:\2023\REPSWITCH21092023\REPSWITCH_excgange\REPSWITCH_excgange\data/490101_REPSWITCH1_version1_list1_2024-01-26_14h16.21.646_micRespv1l1_recorded\recording_micRespv1l1_2024-01-26_14h26.00.218.wav;584.4538595;;None;584.4538595;584.4538595;584.4538595;584.4538595;584.4538595;584.4538595;;;;;;490101;1;2024-01-26_14h16.21.646;REPSWITCH1_version1_list1;2022.2.4;143.9853716;
REPSWITCH1/PICTURE_169.png;espalda;type;darkblue;nontarget;1;NT;1;2;1;1;Stim8_Set1;1;switch;119;118;17;0;118;118;118;;;;;;;;;;;;;;;;;;;;;;;584.953963;586.0582586;586.0582586;586.0582586;586.0582586;586.0582586;586.0582586;586.0582586;586.0582586;['e', 's', 'p', 'a', 'l', 'd', 'a'];0;[0.6360703995451331, 0.8423367999494076, 0.949966799467802, 1.1044351998716593, 1.2270996998995543, 1.322724599391222, 1.4204102996736765];espalda;C:\2023\REPSWITCH21092023\REPSWITCH_excgange\REPSWITCH_excgange\data/490101_REPSWITCH1_version1_list1_2024-01-26_14h16.21.646_micRespv1l1_recorded\recording_micRespv1l1_2024-01-26_14h26.04.850.wav;589.0794745;589.5795699;None;589.0794745;589.0794745;589.0794745;589.0794745;589.0794745;589.0794745;;;;;;490101;1;2024-01-26_14h16.21.646;REPSWITCH1_version1_list1;2022.2.4;143.9853716;
REPSWITCH1/PICTURE_169.png;espalda;type;darkblue;repeat;1;T;1;2;1;1;Stim8_Set1;0;None;120;119;18;0;119;119;119;;;;;;;;;;;;;;;;;;;;;;;589.5795699;590.697834;590.697834;590.697834;590.697834;590.697834;590.697834;590.697834;590.697834;['e', 's', 'p', 'a', 'l', 'd', 'a'];0;[0.6050386000424623, 0.7853883998468518, 0.8900796994566917, 1.057582300156355, 1.214988799765706, 1.3565790997818112, 1.4342596996575594];espalda;C:\2023\REPSWITCH21092023\REPSWITCH_excgange\REPSWITCH_excgange\data/490101_REPSWITCH1_version1_list1_2024-01-26_14h16.21.646_micRespv1l1_recorded\recording_micRespv1l1_2024-01-26_14h26.09.490.wav;593.71901;594.21907;None;593.71901;593.71901;593.71901;593.71901;593.71901;593.71901;;;;;;490101;1;2024-01-26_14h16.21.646;REPSWITCH1_version1_list1;2022.2.4;143.9853716;
REPSWITCH1/PICTURE_48.png;bombero;speak;gold;filler;2;F;1;2;1;1;Stim7_Set4;1;switch;121;120;19;0;120;120;120;;;;;;;;;;;;;;;;;;;;;;;594.21907;595.2747898;595.2747898;595.2747898;595.2747898;595.2747898;595.2747898;595.2747898;595.2747898;None;0;;;C:\2023\REPSWITCH21092023\REPSWITCH_excgange\REPSWITCH_excgange\data/490101_REPSWITCH1_version1_list1_2024-01-26_14h16.21.646_micRespv1l1_recorded\recording_micRespv1l1_2024-01-26_14h26.14.068.wav;598.2959621;598.7960234;None;598.2959621;598.2959621;598.2959621;598.2959621;598.2959621;598.2959621;;;;;;490101;1;2024-01-26_14h16.21.646;REPSWITCH1_version1_list1;2022.2.4;143.9853716;
REPSWITCH1/PICTURE_19.png;pavo;type;darkblue;nontarget;1;NT;1;2;1;1;Stim5_Set1;1;switch;122;121;20;0;121;121;121;;;;;;;;;;;;;;;;;;;;;;;598.7960234;599.9560159;599.9560159;599.9560159;599.9560159;599.9560159;599.9560159;599.9560159;599.9560159;['p', 'a', 'v', 'o'];0;[0.8112198002636433, 0.9357428997755051, 1.1181311998516321, 1.2178312996402383];pavo;C:\2023\REPSWITCH21092023\REPSWITCH_excgange\REPSWITCH_excgange\data/490101_REPSWITCH1_version1_list1_2024-01-26_14h16.21.646_micRespv1l1_recorded\recording_micRespv1l1_2024-01-26_14h26.18.749.wav;602.9840677;;None;602.9840677;602.9840677;602.9840677;602.9840677;602.9840677;602.9840677;;;;;;490101;1;2024-01-26_14h16.21.646;REPSWITCH1_version1_list1;2022.2.4;143.9853716;
REPSWITCH1/PICTURE_19.png;pavo;type;darkblue;repeat;1;T;1;2;1;1;Stim5_Set1;0;None;123;122;21;0;122;122;122;;;;;;;;;;;;;;;;;;;;;;;603.4841893;604.5121413;604.5121413;604.5121413;604.5121413;604.5121413;604.5121413;604.5121413;604.5121413;['p', 'a', 'v', 'o'];0;[0.551761600188911, 0.7031862000003457, 0.8985959002748132, 0.9892335999757051];pavo;C:\2023\REPSWITCH21092023\REPSWITCH_excgange\REPSWITCH_excgange\data/490101_REPSWITCH1_version1_list1_2024-01-26_14h16.21.646_micRespv1l1_recorded\recording_micRespv1l1_2024-01-26_14h26.23.305.wav;607.5332861;608.0333575;None;607.5332861;607.5332861;607.5332861;607.5332861;607.5332861;607.5332861;;;;;;490101;1;2024-01-26_14h16.21.646;REPSWITCH1_version1_list1;2022.2.4;143.9853716;
REPSWITCH1/PICTURE_319.png;vaca;speak;gold;filler;2;F;1;2;1;1;Stim1_Set4;0;None;124;123;22;0;123;123;123;;;;;;;;;;;;;;;;;;;;;;;608.0333575;609.1168407;609.1168407;609.1168407;609.1168407;609.1168407;609.1168407;609.1168407;609.1168407;None;0;;;C:\2023\REPSWITCH21092023\REPSWITCH_excgange\REPSWITCH_excgange\data/490101_REPSWITCH1_version1_list1_2024-01-26_14h16.21.646_micRespv1l1_recorded\recording_micRespv1l1_2024-01-26_14h26.27.909.wav;612.145034;612.6451039;None;612.145034;612.145034;612.145034;612.145034;612.145034;612.145034;;;;;;490101;1;2024-01-26_14h16.21.646;REPSWITCH1_version1_list1;2022.2.4;143.9853716;
REPSWITCH1/PICTURE_338.png;regalo;type;darkblue;filler;1;F;1;2;1;1;Stim6_Set4;0;None;125;124;23;0;124;124;124;;;;;;;;;;;;;;;;;;;;;;;612.6451039;613.7216482;613.7216482;613.7216482;613.7216482;613.7216482;613.7216482;613.7216482;613.7216482;['r', 'e', 'g', 'a', 'l', 'o'];0;[1.1862841993570328, 1.2709825998172164, 1.4782929997891188, 1.6288355998694897, 1.704535499215126, 1.8799482993781567];regalo;C:\2023\REPSWITCH21092023\REPSWITCH_excgange\REPSWITCH_excgange\data/490101_REPSWITCH1_version1_list1_2024-01-26_14h16.21.646_micRespv1l1_recorded\recording_micRespv1l1_2024-01-26_14h26.32.514.wav;616.7428371;617.242924;None;616.7428371;616.7428371;616.7428371;616.7428371;616.7428371;616.7428371;;;;;;490101;1;2024-01-26_14h16.21.646;REPSWITCH1_version1_list1;2022.2.4;143.9853716;
REPSWITCH1/PICTURE_142.png;vaso;type;darkblue;nontarget;1;NT;1;2;1;1;Stim7_Set1;0;None;126;125;24;0;125;125;125;;;;;;;;;;;;;;;;;;;;;;;617.242924;618.305596;618.305596;618.305596;618.305596;618.305596;618.305596;618.305596;618.305596;['v', 'a', 's', 'o'];0;[0.6697084996849298, 0.8491105996072292, 1.189970899373293, 1.3344535995274782];vaso;C:\2023\REPSWITCH21092023\REPSWITCH_excgange\REPSWITCH_excgange\data/490101_REPSWITCH1_version1_list1_2024-01-26_14h16.21.646_micRespv1l1_recorded\recording_micRespv1l1_2024-01-26_14h26.37.098.wav;621.326802;621.8268255;None;621.326802;621.326802;621.326802;621.326802;621.326802;621.326802;;;;;;490101;1;2024-01-26_14h16.21.646;REPSWITCH1_version1_list1;2022.2.4;143.9853716;
REPSWITCH1/PICTURE_142.png;vaso;speak;gold;switch;2;T;1;2;1;1;Stim7_Set1;0;None;127;126;25;0;126;126;126;;;;;;;;;;;;;;;;;;;;;;;621.8268255;622.8617068;622.8617068;622.8617068;622.8617068;622.8617068;622.8617068;622.8617068;622.8617068;None;0;;;C:\2023\REPSWITCH21092023\REPSWITCH_excgange\REPSWITCH_excgange\data/490101_REPSWITCH1_version1_list1_2024-01-26_14h16.21.646_micRespv1l1_recorded\recording_micRespv1l1_2024-01-26_14h26.41.653.wav;625.8829563;626.3830152;None;625.8829563;625.8829563;625.8829563;625.8829563;625.8829563;625.8829563;;;;;;490101;1;2024-01-26_14h16.21.646;REPSWITCH1_version1_list1;2022.2.4;143.9853716;
REPSWITCH1/PICTURE_687.png;camisa;type;darkblue;filler;1;F;1;2;1;1;Stim5_Set4;1;switch;128;127;26;0;127;127;127;;;;;;;;;;;;;;;;;;;;;;;626.3830152;627.6401166;627.6401166;627.6401166;627.6401166;627.6401166;627.6401166;627.6401166;627.6401166;['c', 'a', 'm', 'i', 's', 'a'];0;[1.0009523006156087, 1.1553097004070878, 1.2689613001421094, 1.3815950006246567, 1.4872262002900243, 1.6477035004645586];camisa;C:\2023\REPSWITCH21092023\REPSWITCH_excgange\REPSWITCH_excgange\data/490101_REPSWITCH1_version1_list1_2024-01-26_14h16.21.646_micRespv1l1_recorded\recording_micRespv1l1_2024-01-26_14h26.46.432.wav;630.6613187;631.1613973;None;630.6613187;630.6613187;630.6613187;630.6613187;630.6613187;630.6613187;;;;;;490101;1;2024-01-26_14h16.21.646;REPSWITCH1_version1_list1;2022.2.4;143.9853716;
REPSWITCH1/PICTURE_30.png;granja;type;darkblue;nontarget;1;NT;2;2;1;1;Stim5_Set2;0;None;129;128;27;0;128;128;128;;;;;;;;;;;;;;;;;;;;;;;631.1613973;632.2240402;632.2240402;632.2240402;632.2240402;632.2240402;632.2240402;632.2240402;632.2240402;['g', 'r', 'a', 'n', 'j', 'a'];0;[0.9069272996857762, 0.9796426994726062, 1.1551554994657636, 1.275683400221169, 1.45508630014956, 1.5637246994301677];granja;C:\2023\REPSWITCH21092023\REPSWITCH_excgange\REPSWITCH_excgange\data/490101_REPSWITCH1_version1_list1_2024-01-26_14h16.21.646_micRespv1l1_recorded\recording_micRespv1l1_2024-01-26_14h26.51.017.wav;635.2522373;;None;635.2522373;635.2522373;635.2522373;635.2522373;635.2522373;635.2522373;;;;;;490101;1;2024-01-26_14h16.21.646;REPSWITCH1_version1_list1;2022.2.4;143.9853716;
REPSWITCH1/PICTURE_30.png;granja;type;darkblue;repeat;1;T;2;2;1;1;Stim5_Set2;0;None;130;129;28;0;129;129;129;;;;;;;;;;;;;;;;;;;;;;;635.7522795;636.8010339;636.8010339;636.8010339;636.8010339;636.8010339;636.8010339;636.8010339;636.8010339;['g', 'r', 'a', 'n', 'j', 'a'];0;[0.6753876004368067, 0.7461468996480107, 0.937563699670136, 1.02023100014776, 1.2275454998016357, 1.3272053003311157];granja;C:\2023\REPSWITCH21092023\REPSWITCH_excgange\REPSWITCH_excgange\data/490101_REPSWITCH1_version1_list1_2024-01-26_14h16.21.646_micRespv1l1_recorded\recording_micRespv1l1_2024-01-26_14h26.55.595.wav;639.8292274;;None;639.8292274;639.8292274;639.8292274;639.8292274;639.8292274;639.8292274;;;;;;490101;1;2024-01-26_14h16.21.646;REPSWITCH1_version1_list1;2022.2.4;143.9853716;
REPSWITCH1/PICTURE_128.png;muñeca;speak;gold;filler;2;F;2;2;1;1;Stim4_Set1;0;None;131;130;29;0;130;130;130;;;;;;;;;;;;;;;;;;;;;;;640.3292691;641.3641348;641.3641348;641.3641348;641.3641348;641.3641348;641.3641348;641.3641348;641.3641348;None;0;;;C:\2023\REPSWITCH21092023\REPSWITCH_excgange\REPSWITCH_excgange\data/490101_REPSWITCH1_version1_list1_2024-01-26_14h16.21.646_micRespv1l1_recorded\recording_micRespv1l1_2024-01-26_14h27.00.157.wav;644.3853535;644.8854205;None;644.3853535;644.3853535;644.3853535;644.3853535;644.3853535;644.3853535;;;;;;490101;1;2024-01-26_14h16.21.646;REPSWITCH1_version1_list1;2022.2.4;143.9853716;
REPSWITCH1/PICTURE_264.png;mano;type;darkblue;nontarget;1;NT;2;2;1;1;Stim3_Set2;1;switch;132;131;30;0;131;131;131;;;;;;;;;;;;;;;;;;;;;;;644.8854205;645.9689306;645.9689306;645.9689306;645.9689306;645.9689306;645.9689306;645.9689306;645.9689306;['m', 'a', 'n', 'o'];0;[0.5911103002727032, 0.7355844005942345, 0.8562251003459096, 0.9429267002269626];mano;C:\2023\REPSWITCH21092023\REPSWITCH_excgange\REPSWITCH_excgange\data/490101_REPSWITCH1_version1_list1_2024-01-26_14h16.21.646_micRespv1l1_recorded\recording_micRespv1l1_2024-01-26_14h27.04.762.wav;649.0248671;649.5249555;None;649.0248671;649.0248671;649.0248671;649.0248671;649.0248671;649.0248671;;;;;;490101;1;2024-01-26_14h16.21.646;REPSWITCH1_version1_list1;2022.2.4;143.9853716;
REPSWITCH1/PICTURE_264.png;mano;type;darkblue;repeat;1;T;2;2;1;1;Stim3_Set2;0;None;133;132;31;0;132;132;132;;;;;;;;;;;;;;;;;;;;;;;649.5249555;650.6015402;650.6015402;650.6015402;650.6015402;650.6015402;650.6015402;650.6015402;650.6015402;['m', 'a', 'n', 'o'];0;[0.586085400544107, 0.7345289001241326, 0.8710588999092579, 0.9826877005398273];mano;C:\2023\REPSWITCH21092023\REPSWITCH_excgange\REPSWITCH_excgange\data/490101_REPSWITCH1_version1_list1_2024-01-26_14h16.21.646_micRespv1l1_recorded\recording_micRespv1l1_2024-01-26_14h27.09.394.wav;653.6226697;654.1227795;None;653.6226697;653.6226697;653.6226697;653.6226697;653.6226697;653.6226697;;;;;;490101;1;2024-01-26_14h16.21.646;REPSWITCH1_version1_list1;2022.2.4;143.9853716;
REPSWITCH1/PICTURE_175.png;pintor;type;darkblue;nontarget;1;NT;2;2;1;1;Stim1_Set2;0;None;134;133;32;0;133;133;133;;;;;;;;;;;;;;;;;;;;;;;654.1227795;655.1854334;655.1854334;655.1854334;655.1854334;655.1854334;655.1854334;655.1854334;655.1854334;['p', 'i', 'n', 't', 'o', 'r'];0;[0.724333199672401, 0.915697599761188, 0.9914281005039811, 1.127972699701786, 1.2067071003839374, 1.331300100311637];pintor;C:\2023\REPSWITCH21092023\REPSWITCH_excgange\REPSWITCH_excgange\data/490101_REPSWITCH1_version1_list1_2024-01-26_14h16.21.646_micRespv1l1_recorded\recording_micRespv1l1_2024-01-26_14h27.13.977.wav;658.2066088;658.7066688;None;658.2066088;658.2066088;658.2066088;658.2066088;658.2066088;658.2066088;;;;;;490101;1;2024-01-26_14h16.21.646;REPSWITCH1_version1_list1;2022.2.4;143.9853716;
REPSWITCH1/PICTURE_175.png;pintor;speak;gold;switch;2;T;2;2;1;1;Stim1_Set2;0;None;135;134;33;0;134;134;134;;;;;;;;;;;;;;;;;;;;;;;658.7066688;659.8387785;659.8387785;659.8387785;659.8387785;659.8387785;659.8387785;659.8387785;659.8387785;None;0;;;C:\2023\REPSWITCH21092023\REPSWITCH_excgange\REPSWITCH_excgange\data/490101_REPSWITCH1_version1_list1_2024-01-26_14h16.21.646_micRespv1l1_recorded\recording_micRespv1l1_2024-01-26_14h27.18.632.wav;662.8669734;;None;662.8669734;662.8669734;662.8669734;662.8669734;662.8669734;662.8669734;;;;;;490101;1;2024-01-26_14h16.21.646;REPSWITCH1_version1_list1;2022.2.4;143.9853716;
REPSWITCH1/PICTURE_135.png;traje;speak;gold;filler;2;F;2;2;1;1;Stim3_Set1;1;repeat;136;135;34;0;135;135;135;;;;;;;;;;;;;;;;;;;;;;;663.3670042;664.4574521;664.4574521;664.4574521;664.4574521;664.4574521;664.4574521;664.4574521;664.4574521;None;0;;;C:\2023\REPSWITCH21092023\REPSWITCH_excgange\REPSWITCH_excgange\data/490101_REPSWITCH1_version1_list1_2024-01-26_14h16.21.646_micRespv1l1_recorded\recording_micRespv1l1_2024-01-26_14h27.23.250.wav;667.4786687;667.9787568;None;667.4786687;667.4786687;667.4786687;667.4786687;667.4786687;667.4786687;;;;;;490101;1;2024-01-26_14h16.21.646;REPSWITCH1_version1_list1;2022.2.4;143.9853716;
REPSWITCH1/PICTURE_446.png;cerdo;speak;gold;nontarget;2;NT;2;2;1;1;Stim7_Set2;1;repeat;137;136;35;0;136;136;136;;;;;;;;;;;;;;;;;;;;;;;667.9787568;669.0622542;669.0622542;669.0622542;669.0622542;669.0622542;669.0622542;669.0622542;669.0622542;None;0;;;C:\2023\REPSWITCH21092023\REPSWITCH_excgange\REPSWITCH_excgange\data/490101_REPSWITCH1_version1_list1_2024-01-26_14h16.21.646_micRespv1l1_recorded\recording_micRespv1l1_2024-01-26_14h27.27.855.wav;672.0903899;;None;672.0903899;672.0903899;672.0903899;672.0903899;672.0903899;672.0903899;;;;;;490101;1;2024-01-26_14h16.21.646;REPSWITCH1_version1_list1;2022.2.4;143.9853716;
REPSWITCH1/PICTURE_446.png;cerdo;type;darkblue;switch;1;T;2;2;1;1;Stim7_Set2;0;None;138;137;36;0;137;137;137;;;;;;;;;;;;;;;;;;;;;;;672.5904766;673.6045016;673.6045016;673.6045016;673.6045016;673.6045016;673.6045016;673.6045016;673.6045016;['c', 'e', 'r', 'd', 'o'];0;[0.9808026002719998, 1.1103622997179627, 1.237928000278771, 1.4023794000968337, 1.4861655002459884];cerdo;C:\2023\REPSWITCH21092023\REPSWITCH_excgange\REPSWITCH_excgange\data/490101_REPSWITCH1_version1_list1_2024-01-26_14h16.21.646_micRespv1l1_recorded\recording_micRespv1l1_2024-01-26_14h27.32.397.wav;676.6256934;677.1257989;None;676.6256934;676.6256934;676.6256934;676.6256934;676.6256934;676.6256934;;;;;;490101;1;2024-01-26_14h16.21.646;REPSWITCH1_version1_list1;2022.2.4;143.9853716;
REPSWITCH1/PICTURE_152.png;caracol;type;darkblue;nontarget;1;NT;2;2;1;1;Stim2_Set2;1;repeat;139;138;37;0;138;138;138;;;;;;;;;;;;;;;;;;;;;;;677.1257989;678.271762;678.271762;678.271762;678.271762;678.271762;678.271762;678.271762;678.271762;['c', 'a', 'r', 'a', 'c', 'o', 'l'];0;[0.8842460000887513, 1.079586699604988, 1.206165499985218, 1.3088242998346686, 1.4473598999902606, 1.56197389960289, 1.7264996003359556];caracol;C:\2023\REPSWITCH21092023\REPSWITCH_excgange\REPSWITCH_excgange\data/490101_REPSWITCH1_version1_list1_2024-01-26_14h16.21.646_micRespv1l1_recorded\recording_micRespv1l1_2024-01-26_14h27.37.064.wav;681.292983;681.7930764;None;681.292983;681.292983;681.292983;681.292983;681.292983;681.292983;;;;;;490101;1;2024-01-26_14h16.21.646;REPSWITCH1_version1_list1;2022.2.4;143.9853716;
REPSWITCH1/PICTURE_152.png;caracol;speak;gold;switch;2;T;2;2;1;1;Stim2_Set2;0;None;140;139;38;0;139;139;139;;;;;;;;;;;;;;;;;;;;;;;681.7930764;682.9459858;682.9459858;682.9459858;682.9459858;682.9459858;682.9459858;682.9459858;682.9459858;None;0;;;C:\2023\REPSWITCH21092023\REPSWITCH_excgange\REPSWITCH_excgange\data/490101_REPSWITCH1_version1_list1_2024-01-26_14h16.21.646_micRespv1l1_recorded\recording_micRespv1l1_2024-01-26_14h27.41.739.wav;685.974182;686.4742217;None;685.974182;685.974182;685.974182;685.974182;685.974182;685.974182;;;;;;490101;1;2024-01-26_14h16.21.646;REPSWITCH1_version1_list1;2022.2.4;143.9853716;
REPSWITCH1/PICTURE_16.png;cazador;type;darkblue;filler;1;F;2;2;1;1;Stim6_Set1;0;None;141;140;39;0;140;140;140;;;;;;;;;;;;;;;;;;;;;;;686.4742217;687.5646563;687.5646563;687.5646563;687.5646563;687.5646563;687.5646563;687.5646563;687.5646563;['c', 'a', 'z', 'a', 'd', 'o', 'r'];0;[0.6809099996462464, 0.8703143000602722, 1.0696911998093128, 1.2460573995485902, 1.341729499399662, 1.5151295000687242, 1.593889799900353];cazador;C:\2023\REPSWITCH21092023\REPSWITCH_excgange\REPSWITCH_excgange\data/490101_REPSWITCH1_version1_list1_2024-01-26_14h16.21.646_micRespv1l1_recorded\recording_micRespv1l1_2024-01-26_14h27.46.357.wav;690.5928079;;None;690.5928079;690.5928079;690.5928079;690.5928079;690.5928079;690.5928079;;;;;;490101;1;2024-01-26_14h16.21.646;REPSWITCH1_version1_list1;2022.2.4;143.9853716;
