image;correctAns;respModal;frameColor;repSwitch;sequence;target;set;stimulus;order;psychopy_order;trialsREPSWITCH.thisRepN;trialsREPSWITCH.thisTrialN;trialsREPSWITCH.thisN;trialsREPSWITCH.thisIndex;textWelcome.started;textBlank500.started;textboxInstrMain1.started;textboxInstrMain1_2.started;textboxInstrMain1_3.started;keyInstrMain.started;keyInstrMain.keys;keyInstrMain.rt;textboxInstrMain2.started;textboxInstrMain2_2.started;textboxInstrMain2_3.started;textboxInstrMain2_4.started;textboxInstrMain2_5.started;textboxInstrMain2_6.started;textboxInstrMain2_7.started;textboxInstrMain2_8.started;textboxInstrMain2_9.started;textboxInstrMain2_10.started;textboxInstrMain2_11.started;textboxInstrMain2_12.started;keyInstrMain2.started;keyInstrMain2.keys;keyInstrMain2.rt;textBlank500.stopped;fixationITI.started;fixationITI.stopped;polygonColour.started;polygonWhite.started;imageObject.started;polygonType.started;textInput.started;keyResp.started;micResp.started;keyResp.keys;keyResp.corr;subjResponse;micResp.clip;keyPause.keys;polygonColour.stopped;polygonWhite.stopped;imageObject.stopped;polygonType.stopped;textInput.stopped;keyResp.stopped;keyResp.rt;textboxPause.started;keyPause.started;keyPause.rt;textboxGoodbye.started;textboxGoodbye.stopped;participant;session;date;expName;psychopyVersion;frameRate;Column1
;;;;;;;;;;;;;;;8.72E+14;1.12E+15;1.17E+16;1.17E+16;1.17E+16;1.17E+16;space;2.66E+16;;;;;;;;;;;;;;;;;;;;;;;;;;;;;;;;;;;;;;;;;;;10100;1;2023-07-17_16h27.34.455;REPSWITCH1_v2022.2.4;202224;1.44E+16;
;;;;;;;;;;;;;;;;;;;;;;;3.84E+16;3.84E+16;3.84E+16;3.84E+16;3.84E+16;3.84E+16;3.84E+16;3.84E+16;3.84E+16;3.84E+16;3.84E+16;3.84E+16;3.84E+16;space;9.03E+15;;;;;;;;;;;;;;;;;;;;;;;;;;;;10100;1;2023-07-17_16h27.34.455;REPSWITCH1_v2022.2.4;202224;1.44E+16;
REPSWITCH1/PICTURE_178.png;puente;speak;gold;nontarget;2;NT;1;Stim1_Set1;1;0;0;0;0;0;;5.21E+15;;;;;;;;;;;;;;;;;;;;;;4.80E+15;4.80E+15;4.91E+15;4.91E+15;4.91E+15;4.91E+15;4.91E+15;4.91E+15;4.91E+15;6.55E+15;None;0;;C:\Users\Experimental User\Desktop\experiment\data/010100_REPSWITCH1_v2022.2.4_2023-07-17_16h27.34.455_micResp_recorded\recording_micResp_2023-07-17_16h28.19.611.wav;None;;;;;;;;;;;;;10100;1;2023-07-17_16h27.34.455;REPSWITCH1_v2022.2.4;202224;1.44E+16;
REPSWITCH1/PICTURE_178.png;puente;speak;gold;repeat;2;T;1;Stim1_Set1;2;1;0;1;1;1;;5.67E+15;;;;;;;;;;;;;;;;;;;;;;;5.26E+16;5.37E+15;5.37E+15;5.37E+15;5.37E+15;5.37E+15;5.37E+15;5.37E+15;1.45E+16;None;0;;C:\Users\Experimental User\Desktop\experiment\data/010100_REPSWITCH1_v2022.2.4_2023-07-17_16h27.34.455_micResp_recorded\recording_micResp_2023-07-17_16h28.24.230.wav;None;;;;;;;;;;;;;10100;1;2023-07-17_16h27.34.455;REPSWITCH1_v2022.2.4;202224;1.44E+16;
REPSWITCH1/PICTURE_319.png;vaca;type;darkblue;filler;1;F;1;Stim1_Set4;3;2;0;2;2;2;;6.13E+15;;;;;;;;;;;;;;;;;;;;;;6.18E+15;5.72E+16;5.83E+15;5.83E+15;5.83E+15;5.83E+15;5.83E+15;5.83E+15;5.83E+15;4.19E+15;['v', 'a', 'c', 'a'];0;vaca;C:\Users\Experimental User\Desktop\experiment\data/010100_REPSWITCH1_v2022.2.4_2023-07-17_16h27.34.455_micResp_recorded\recording_micResp_2023-07-17_16h28.28.814.wav;None;6.13E+15;6.13E+15;6.13E+15;6.13E+15;6.13E+15;6.13E+15;[0.9352080998942256, 1.1914514992386103, 1.4154546996578574, 1.6235749991610646];;;;;;10100;1;2023-07-17_16h27.34.455;REPSWITCH1_v2022.2.4;202224;1.44E+16;
REPSWITCH1/PICTURE_142.png;vaso;speak;gold;nontarget;2;NT;1;Stim2_Set1;4;3;0;3;3;3;;6.59E+15;;;;;;;;;;;;;;;;;;;;;;6.64E+15;6.18E+15;6.29E+15;6.29E+15;6.29E+15;6.29E+15;6.29E+15;6.29E+15;6.29E+15;3.66E+15;None;0;;C:\Users\Experimental User\Desktop\experiment\data/010100_REPSWITCH1_v2022.2.4_2023-07-17_16h27.34.455_micResp_recorded\recording_micResp_2023-07-17_16h28.33.471.wav;None;;;;;;;;;;;;;10100;1;2023-07-17_16h27.34.455;REPSWITCH1_v2022.2.4;202224;1.44E+16;
REPSWITCH1/PICTURE_142.png;vaso;speak;gold;repeat;2;T;1;Stim2_Set1;5;4;0;4;4;4;;7.06E+15;;;;;;;;;;;;;;;;;;;;;;7.11E+15;6.64E+15;6.75E+15;6.75E+15;6.75E+15;6.75E+15;6.75E+15;6.75E+15;6.75E+15;1.20E+16;None;0;;C:\Users\Experimental User\Desktop\experiment\data/010100_REPSWITCH1_v2022.2.4_2023-07-17_16h27.34.455_micResp_recorded\recording_micResp_2023-07-17_16h28.38.090.wav;None;7.06E+15;7.06E+15;7.06E+15;7.06E+15;7.06E+15;7.06E+15;;;;;;;10100;1;2023-07-17_16h27.34.455;REPSWITCH1_v2022.2.4;202224;1.44E+16;
REPSWITCH1/PICTURE_719.png;baño;type;darkblue;filler;1;F;1;Stim2_Set4;6;5;0;5;5;5;;7.52E+15;;;;;;;;;;;;;;;;;;;;;;7.57E+15;7.11E+15;7.21E+15;7.21E+15;7.21E+15;7.21E+15;7.21E+15;7.21E+15;7.21E+15;3.91E+15;['b', 'a', 'ñ', 'o'];0;baño;C:\Users\Experimental User\Desktop\experiment\data/010100_REPSWITCH1_v2022.2.4_2023-07-17_16h27.34.455_micResp_recorded\recording_micResp_2023-07-17_16h28.42.680.wav;None;;;;;;;[1.3950960002839565, 1.6667865999042988, 2.61260399967432, 2.8192491997033358];;;;;;10100;1;2023-07-17_16h27.34.455;REPSWITCH1_v2022.2.4;202224;1.44E+16;
REPSWITCH1/PICTURE_135.png;traje;speak;gold;nontarget;2;NT;1;Stim3_Set1;7;6;0;6;6;6;;7.98E+14;;;;;;;;;;;;;;;;;;;;;;8.03E+15;7.57E+15;7.68E+14;7.68E+14;7.68E+14;7.68E+14;7.68E+14;7.68E+14;7.68E+14;3.60E+16;None;0;;C:\Users\Experimental User\Desktop\experiment\data/010100_REPSWITCH1_v2022.2.4_2023-07-17_16h27.34.455_micResp_recorded\recording_micResp_2023-07-17_16h28.47.375.wav;None;;;;;;;;;;;;;10100;1;2023-07-17_16h27.34.455;REPSWITCH1_v2022.2.4;202224;1.44E+16;
REPSWITCH1/PICTURE_135.png;traje;type;darkblue;switch;1;T;1;Stim3_Set1;8;7;0;7;7;7;;8.45E+15;;;;;;;;;;;;;;;;;;;;;;;8.03E+15;8.15E+15;8.15E+15;8.15E+15;8.15E+15;8.15E+15;8.15E+15;8.15E+15;1.26E+15;['t', 'r', 'a', 'j', 'e'];0;traje;C:\Users\Experimental User\Desktop\experiment\data/010100_REPSWITCH1_v2022.2.4_2023-07-17_16h27.34.455_micResp_recorded\recording_micResp_2023-07-17_16h28.52.018.wav;None;;;;;;;[1.1260260995477438, 1.301485899835825, 1.4940759995952249, 1.6700702998787165, 1.8454183991998434];;;;;;10100;1;2023-07-17_16h27.34.455;REPSWITCH1_v2022.2.4;202224;1.44E+16;
REPSWITCH1/PICTURE_128.png;muñeca;type;darkblue;nontarget;1;NT;1;Stim4_Set1;9;8;0;8;8;8;;8.91E+14;;;;;;;;;;;;;;;;;;;;;;8.96E+14;8.50E+15;8.61E+15;8.61E+15;8.61E+15;8.61E+15;8.61E+15;8.61E+15;8.61E+15;3.96E+15;['n', 'backspace', 'm', 'u'];0;mu;C:\Users\Experimental User\Desktop\experiment\data/010100_REPSWITCH1_v2022.2.4_2023-07-17_16h27.34.455_micResp_recorded\recording_micResp_2023-07-17_16h28.56.627.wav;None;;;;;;;[1.2741719987243414, 2.1532774986699224, 2.729181499220431, 2.936428398825228];;;;;;10100;1;2023-07-17_16h27.34.455;REPSWITCH1_v2022.2.4;202224;1.44E+16;
REPSWITCH1/PICTURE_128.png;muñeca;speak;gold;switch;2;T;1;Stim4_Set1;10;9;0;9;9;9;;9.38E+15;;;;;;;;;;;;;;;;;;;;;;;8.96E+14;9.07E+14;9.07E+14;9.07E+14;9.07E+14;9.07E+14;9.07E+14;9.07E+14;1.36E+16;None;0;;C:\Users\Experimental User\Desktop\experiment\data/010100_REPSWITCH1_v2022.2.4_2023-07-17_16h27.34.455_micResp_recorded\recording_micResp_2023-07-17_16h29.01.290.wav;None;;;;;;;;;;;;;10100;1;2023-07-17_16h27.34.455;REPSWITCH1_v2022.2.4;202224;1.44E+16;
REPSWITCH1/PICTURE_8.png;pierna;speak;gold;filler;2;F;1;Stim3_Set4;11;10;0;10;10;10;;9.84E+15;;;;;;;;;;;;;;;;;;;;;;9.89E+15;9.43E+15;9.54E+15;9.54E+15;9.54E+15;9.54E+15;9.54E+15;9.54E+15;9.54E+15;3.52E+16;None;0;;C:\Users\Experimental User\Desktop\experiment\data/010100_REPSWITCH1_v2022.2.4_2023-07-17_16h27.34.455_micResp_recorded\recording_micResp_2023-07-17_16h29.05.961.wav;None;;;;;;;;;;;;;10100;1;2023-07-17_16h27.34.455;REPSWITCH1_v2022.2.4;202224;1.44E+16;
REPSWITCH1/PICTURE_19.png;pavo;speak;gold;nontarget;2;NT;1;Stim5_Set1;12;11;0;11;11;11;;1.03E+16;;;;;;;;;;;;;;;;;;;;;;1.04E+16;9.89E+15;1.00E+16;1.00E+16;1.00E+16;1.00E+16;1.00E+16;1.00E+16;1.00E+16;4.09E+15;None;0;;C:\Users\Experimental User\Desktop\experiment\data/010100_REPSWITCH1_v2022.2.4_2023-07-17_16h27.34.455_micResp_recorded\recording_micResp_2023-07-17_16h29.10.561.wav;None;1.03E+16;1.03E+16;1.03E+16;1.03E+16;1.03E+16;1.03E+16;;;;;;;10100;1;2023-07-17_16h27.34.455;REPSWITCH1_v2022.2.4;202224;1.44E+16;
REPSWITCH1/PICTURE_19.png;pavo;type;darkblue;switch;1;T;1;Stim5_Set1;13;12;0;12;12;12;;1.08E+16;;;;;;;;;;;;;;;;;;;;;;1.08E+16;1.04E+16;1.05E+16;1.05E+16;1.05E+16;1.05E+16;1.05E+16;1.05E+16;1.05E+16;1.78E+16;['p', 'a', 'v', 'o'];0;pavo;C:\Users\Experimental User\Desktop\experiment\data/010100_REPSWITCH1_v2022.2.4_2023-07-17_16h27.34.455_micResp_recorded\recording_micResp_2023-07-17_16h29.15.212.wav;None;1.08E+16;1.08E+16;1.08E+16;1.08E+16;1.08E+16;1.08E+16;[1.1268621990457177, 1.590583698824048, 1.8142437990754843, 1.9105699993669987];;;;;;10100;1;2023-07-17_16h27.34.455;REPSWITCH1_v2022.2.4;202224;1.44E+16;
REPSWITCH1/PICTURE_498.png;taza;speak;gold;filler;2;F;1;Stim4_Set4;14;13;0;13;13;13;;1.12E+15;;;;;;;;;;;;;;;;;;;;;;1.13E+16;1.08E+16;1.09E+16;1.09E+16;1.09E+16;1.09E+16;1.09E+16;1.09E+16;1.09E+16;4.39E+15;None;0;;C:\Users\Experimental User\Desktop\experiment\data/010100_REPSWITCH1_v2022.2.4_2023-07-17_16h27.34.455_micResp_recorded\recording_micResp_2023-07-17_16h29.19.866.wav;None;;;;;;;;;;;;;10100;1;2023-07-17_16h27.34.455;REPSWITCH1_v2022.2.4;202224;1.44E+16;
REPSWITCH1/PICTURE_16.png;cazador;type;darkblue;nontarget;1;NT;1;Stim6_Set1;15;14;0;14;14;14;;1.17E+16;;;;;;;;;;;;;;;;;;;;;;1.17E+15;1.13E+16;1.14E+16;1.14E+16;1.14E+16;1.14E+16;1.14E+16;1.14E+16;1.14E+16;4.43E+14;['c', 'c', 'z'];0;ccz;C:\Users\Experimental User\Desktop\experiment\data/010100_REPSWITCH1_v2022.2.4_2023-07-17_16h27.34.455_micResp_recorded\recording_micResp_2023-07-17_16h29.24.463.wav;None;;;;;;;[1.0045992992818356, 1.5326180988922715, 2.077182998880744];;;;;;10100;1;2023-07-17_16h27.34.455;REPSWITCH1_v2022.2.4;202224;1.44E+16;
REPSWITCH1/PICTURE_16.png;cazador;type;darkblue;repeat;1;T;1;Stim6_Set1;16;15;0;15;15;15;;1.22E+16;;;;;;;;;;;;;;;;;;;;;;1.22E+16;1.17E+15;1.18E+16;1.18E+16;1.18E+16;1.18E+16;1.18E+16;1.18E+16;1.18E+16;1.49E+16;['v', 'backspace', 'c', 'a', 'z'];0;caz;C:\Users\Experimental User\Desktop\experiment\data/010100_REPSWITCH1_v2022.2.4_2023-07-17_16h27.34.455_micResp_recorded\recording_micResp_2023-07-17_16h29.29.034.wav;None;1.22E+16;1.22E+16;1.22E+16;1.22E+16;1.22E+16;1.22E+16;[1.529590499587357, 1.8495879992842674, 2.5374034997075796, 2.745456799864769, 2.90522029902786];;;;;;10100;1;2023-07-17_16h27.34.455;REPSWITCH1_v2022.2.4;202224;1.44E+16;
REPSWITCH1/PICTURE_687.png;camisa;speak;gold;filler;2;F;1;Stim5_Set4;17;16;0;16;16;16;;1.26E+16;;;;;;;;;;;;;;;;;;;;;;;1.22E+16;1.23E+16;1.23E+16;1.23E+16;1.23E+16;1.23E+16;1.23E+16;1.23E+16;3.62E+15;None;0;;C:\Users\Experimental User\Desktop\experiment\data/010100_REPSWITCH1_v2022.2.4_2023-07-17_16h27.34.455_micResp_recorded\recording_micResp_2023-07-17_16h29.33.707.wav;None;;;;;;;;;;;;;10100;1;2023-07-17_16h27.34.455;REPSWITCH1_v2022.2.4;202224;1.44E+16;
REPSWITCH1/PICTURE_142.png;vaso;type;darkblue;nontarget;1;NT;1;Stim7_Set1;18;17;0;17;17;17;;1.31E+16;;;;;;;;;;;;;;;;;;;;;;1.31E+16;1.27E+16;1.28E+16;1.28E+16;1.28E+16;1.28E+16;1.28E+16;1.28E+16;1.28E+16;1.23E+16;['v', 'a', 's', 'o'];0;vaso;C:\Users\Experimental User\Desktop\experiment\data/010100_REPSWITCH1_v2022.2.4_2023-07-17_16h27.34.455_micResp_recorded\recording_micResp_2023-07-17_16h29.38.367.wav;None;1.31E+16;1.31E+16;1.31E+16;1.31E+16;1.31E+16;1.31E+16;[1.0754102999344468, 1.3314006999135017, 1.4914064994081855, 1.6522704996168613];;;;;;10100;1;2023-07-17_16h27.34.455;REPSWITCH1_v2022.2.4;202224;1.44E+16;
REPSWITCH1/PICTURE_142.png;vaso;type;darkblue;repeat;1;T;1;Stim7_Set1;19;18;0;18;18;18;;1.35E+15;;;;;;;;;;;;;;;;;;;;;;;1.31E+16;1.32E+16;1.32E+16;1.32E+16;1.32E+16;1.32E+16;1.32E+16;1.32E+16;1.25E+16;['v', 'a', 's', 'o'];0;vaso;C:\Users\Experimental User\Desktop\experiment\data/010100_REPSWITCH1_v2022.2.4_2023-07-17_16h27.34.455_micResp_recorded\recording_micResp_2023-07-17_16h29.42.996.wav;None;;;;;;;[1.1231926996260881, 1.3632174003869295, 1.5071823000907898, 1.6359229004010558];;;;;;10100;1;2023-07-17_16h27.34.455;REPSWITCH1_v2022.2.4;202224;1.44E+16;
REPSWITCH1/PICTURE_338.png;regalo;speak;gold;filler;2;F;1;Stim6_Set4;20;19;0;19;19;19;;1.40E+16;;;;;;;;;;;;;;;;;;;;;;1.41E+16;1.36E+15;1.37E+16;1.37E+16;1.37E+16;1.37E+16;1.37E+16;1.37E+16;1.37E+16;3.83E+16;None;0;;C:\Users\Experimental User\Desktop\experiment\data/010100_REPSWITCH1_v2022.2.4_2023-07-17_16h27.34.455_micResp_recorded\recording_micResp_2023-07-17_16h29.47.636.wav;None;1.40E+16;1.40E+16;1.40E+16;1.40E+16;1.40E+16;1.40E+16;;;;;;;10100;1;2023-07-17_16h27.34.455;REPSWITCH1_v2022.2.4;202224;1.44E+16;
REPSWITCH1/PICTURE_169.png;espalda;type;darkblue;nontarget;1;NT;1;Stim8_Set1;21;20;0;20;20;20;;1.45E+16;;;;;;;;;;;;;;;;;;;;;;;1.41E+16;1.42E+16;1.42E+16;1.42E+16;1.42E+16;1.42E+16;1.42E+16;1.42E+16;3.61E+15;['s', 'p', 'a', 'l'];0;spal;C:\Users\Experimental User\Desktop\experiment\data/010100_REPSWITCH1_v2022.2.4_2023-07-17_16h27.34.455_micResp_recorded\recording_micResp_2023-07-17_16h29.52.201.wav;None;;;;;;;[1.362453198991716, 2.5301762986928225, 2.722607798874378, 2.8345748987048864];;;;;;10100;1;2023-07-17_16h27.34.455;REPSWITCH1_v2022.2.4;202224;1.44E+16;
REPSWITCH1/PICTURE_169.png;espalda;speak;gold;switch;2;T;1;Stim8_Set1;22;21;0;21;21;21;;1.49E+15;;;;;;;;;;;;;;;;;;;;;;1.50E+16;1.45E+16;1.46E+15;1.46E+15;1.46E+15;1.46E+15;1.46E+15;1.46E+15;1.46E+15;1.35E+16;None;0;;C:\Users\Experimental User\Desktop\experiment\data/010100_REPSWITCH1_v2022.2.4_2023-07-17_16h27.34.455_micResp_recorded\recording_micResp_2023-07-17_16h29.56.752.wav;None;1.49E+15;1.49E+15;1.49E+15;1.49E+15;1.49E+15;1.49E+15;;;;;;;10100;1;2023-07-17_16h27.34.455;REPSWITCH1_v2022.2.4;202224;1.44E+16;
REPSWITCH1/PICTURE_48.png;bombero;type;darkblue;filler;1;F;1;Stim7_Set4;23;22;0;22;22;22;;1.54E+15;;;;;;;;;;;;;;;;;;;;;;;1.50E+16;1.51E+15;1.51E+15;1.51E+15;1.51E+15;1.51E+15;1.51E+15;1.51E+15;3.82E+16;['b', 'o', 'm', 'b', 'e', 'r', 'o'];0;bombero;C:\Users\Experimental User\Desktop\experiment\data/010100_REPSWITCH1_v2022.2.4_2023-07-17_16h27.34.455_micResp_recorded\recording_micResp_2023-07-17_16h30.01.529.wav;None;;;;;;;[1.505966898985207, 1.5859691994264722, 1.7772952988743782, 2.001286598853767, 2.2252920996397734, 2.3695810995996, 2.466578599065542];;;;;;10100;1;2023-07-17_16h27.34.455;REPSWITCH1_v2022.2.4;202224;1.44E+16;
REPSWITCH1/PICTURE_728.png;pulpo;type;darkblue;filler;1;F;1;Stim8_Set4;24;23;0;23;23;23;;1.59E+15;;;;;;;;;;;;;;;;;;;;;;1.59E+16;1.55E+16;1.56E+16;1.56E+16;1.56E+16;1.56E+16;1.56E+16;1.56E+16;1.56E+16;3.79E+16;['p', 'u', 'l', 'p', 'o'];0;pulpo;C:\Users\Experimental User\Desktop\experiment\data/010100_REPSWITCH1_v2022.2.4_2023-07-17_16h27.34.455_micResp_recorded\recording_micResp_2023-07-17_16h30.06.269.wav;None;1.59E+15;1.59E+15;1.59E+15;1.59E+15;1.59E+15;1.59E+15;[1.6240207990631461, 2.087954799644649, 2.3278881991282105, 2.583849499002099, 2.7603660989552736];;;;;;10100;1;2023-07-17_16h27.34.455;REPSWITCH1_v2022.2.4;202224;1.44E+16;
REPSWITCH1/PICTURE_178.png;puente;speak;gold;filler;2;F;2;Stim1_Set1;25;24;0;24;24;24;;1.63E+16;;;;;;;;;;;;;;;;;;;;;;;1.59E+16;1.60E+16;1.60E+16;1.60E+16;1.60E+16;1.60E+16;1.60E+16;1.60E+16;1.33E+15;None;0;;C:\Users\Experimental User\Desktop\experiment\data/010100_REPSWITCH1_v2022.2.4_2023-07-17_16h27.34.455_micResp_recorded\recording_micResp_2023-07-17_16h30.10.905.wav;None;;;;;;;;;;;;;10100;1;2023-07-17_16h27.34.455;REPSWITCH1_v2022.2.4;202224;1.44E+16;
REPSWITCH1/PICTURE_175.png;pintor;type;darkblue;nontarget;1;NT;2;Stim1_Set2;26;25;0;25;25;25;;1.68E+15;;;;;;;;;;;;;;;;;;;;;;1.68E+15;1.64E+16;1.65E+16;1.65E+16;1.65E+16;1.65E+16;1.65E+16;1.65E+16;1.65E+16;3.78E+14;['p', 'n', 'backspace', 'i', 'n', 't', 'o'];0;pinto;C:\Users\Experimental User\Desktop\experiment\data/010100_REPSWITCH1_v2022.2.4_2023-07-17_16h27.34.455_micResp_recorded\recording_micResp_2023-07-17_16h30.15.506.wav;None;1.68E+15;1.68E+15;1.68E+15;1.68E+15;1.68E+15;1.68E+15;[1.2664624992758036, 1.6504226988181472, 2.163106099702418, 2.4506176989525557, 2.594320999458432, 2.7387392995879054, 2.8347353991121054];;;;;;10100;1;2023-07-17_16h27.34.455;REPSWITCH1_v2022.2.4;202224;1.44E+16;
REPSWITCH1/PICTURE_175.png;pintor;type;darkblue;repeat;1;T;2;Stim1_Set2;27;26;0;26;26;26;;1.73E+16;;;;;;;;;;;;;;;;;;;;;;;1.68E+15;1.70E+16;1.70E+16;1.70E+16;1.70E+16;1.70E+16;1.70E+16;1.70E+16;1.41E+15;['p', 'i', 'n', 't', 'o', 'r'];0;pintor;C:\Users\Experimental User\Desktop\experiment\data/010100_REPSWITCH1_v2022.2.4_2023-07-17_16h27.34.455_micResp_recorded\recording_micResp_2023-07-17_16h30.20.133.wav;None;;;;;;;[1.4108200995251536, 1.634807899594307, 1.7788071995601058, 1.9548038002103567, 2.0835910998284817, 2.7868483001366258];;;;;;10100;1;2023-07-17_16h27.34.455;REPSWITCH1_v2022.2.4;202224;1.44E+16;
REPSWITCH1/PICTURE_142.png;vaso;speak;gold;filler;2;F;2;Stim2_Set1;28;27;0;27;27;27;;1.77E+16;;;;;;;;;;;;;;;;;;;;;;1.78E+14;1.73E+14;1.74E+15;1.74E+15;1.74E+15;1.74E+15;1.74E+15;1.74E+15;1.74E+15;1.25E+16;None;0;;C:\Users\Experimental User\Desktop\experiment\data/010100_REPSWITCH1_v2022.2.4_2023-07-17_16h27.34.455_micResp_recorded\recording_micResp_2023-07-17_16h30.24.796.wav;None;1.77E+16;1.77E+16;1.77E+16;1.77E+16;1.77E+16;1.77E+16;;;;;;;10100;1;2023-07-17_16h27.34.455;REPSWITCH1_v2022.2.4;202224;1.44E+16;
REPSWITCH1/PICTURE_152.png;caracol;type;darkblue;nontarget;1;NT;2;Stim2_Set2;29;28;0;28;28;28;;1.82E+16;;;;;;;;;;;;;;;;;;;;;;1.82E+16;1.78E+14;1.79E+16;1.79E+16;1.79E+16;1.79E+16;1.79E+16;1.79E+16;1.79E+16;4.47E+15;['c', 'a', 'r', 'a', 'c', 'o', 'l'];0;caracol;C:\Users\Experimental User\Desktop\experiment\data/010100_REPSWITCH1_v2022.2.4_2023-07-17_16h27.34.455_micResp_recorded\recording_micResp_2023-07-17_16h30.29.352.wav;None;;;;;;;[1.2843643995001912, 1.524232399649918, 1.747770399786532, 1.9399044001474977, 2.163906999863684, 2.227899800054729, 2.403891899622977];;;;;;10100;1;2023-07-17_16h27.34.455;REPSWITCH1_v2022.2.4;202224;1.44E+16;
REPSWITCH1/PICTURE_152.png;caracol;type;darkblue;repeat;1;T;2;Stim2_Set2;30;29;0;29;29;29;;1.86E+16;;;;;;;;;;;;;;;;;;;;;;1.87E+16;1.82E+16;1.83E+15;1.83E+15;1.83E+15;1.83E+15;1.83E+15;1.83E+15;1.83E+15;1.49E+16;['c', 'a', 'r', 'a', 'c', 'o', 'l'];0;caracol;C:\Users\Experimental User\Desktop\experiment\data/010100_REPSWITCH1_v2022.2.4_2023-07-17_16h27.34.455_micResp_recorded\recording_micResp_2023-07-17_16h30.33.944.wav;None;1.86E+16;1.86E+16;1.86E+16;1.86E+16;1.86E+16;1.86E+16;[0.7315365988761187, 0.922970999032259, 1.1315721990540624, 1.3229380995035172, 1.5149483988061547, 1.5950096994638443, 1.7869089990854263];;;;;;10100;1;2023-07-17_16h27.34.455;REPSWITCH1_v2022.2.4;202224;1.44E+16;
REPSWITCH1/PICTURE_264.png;mano;type;darkblue;nontarget;1;NT;2;Stim3_Set2;31;30;0;30;30;30;;1.91E+16;;;;;;;;;;;;;;;;;;;;;;;1.87E+16;1.88E+15;1.88E+15;1.88E+15;1.88E+15;1.88E+15;1.88E+15;1.88E+15;4.29E+15;['m', 'a', 'n', 'o'];0;mano;C:\Users\Experimental User\Desktop\experiment\data/010100_REPSWITCH1_v2022.2.4_2023-07-17_16h27.34.455_micResp_recorded\recording_micResp_2023-07-17_16h30.38.531.wav;None;1.91E+16;1.91E+16;1.91E+16;1.91E+16;1.91E+16;1.91E+16;[0.8672851994633675, 0.9633006993681192, 1.0599804995581508, 1.2195034995675087];;;;;;10100;1;2023-07-17_16h27.34.455;REPSWITCH1_v2022.2.4;202224;1.44E+16;
REPSWITCH1/PICTURE_264.png;mano;speak;gold;switch;2;T;2;Stim3_Set2;32;31;0;31;31;31;;1.96E+16;;;;;;;;;;;;;;;;;;;;;;;1.92E+16;1.93E+16;1.93E+16;1.93E+16;1.93E+16;1.93E+16;1.93E+16;1.93E+16;1.39E+16;None;0;;C:\Users\Experimental User\Desktop\experiment\data/010100_REPSWITCH1_v2022.2.4_2023-07-17_16h27.34.455_micResp_recorded\recording_micResp_2023-07-17_16h30.43.295.wav;None;1.96E+16;1.96E+16;1.96E+16;1.96E+16;1.96E+16;1.96E+16;;;;;;;10100;1;2023-07-17_16h27.34.455;REPSWITCH1_v2022.2.4;202224;1.44E+16;
REPSWITCH1/PICTURE_517.png;cuerda;speak;gold;nontarget;2;NT;2;Stim4_Set2;33;32;0;32;32;32;;2.00E+16;;;;;;;;;;;;;;;;;;;;;;;1.96E+15;1.97E+16;1.97E+16;1.97E+16;1.97E+16;1.97E+16;1.97E+16;1.97E+16;3.81E+16;None;0;;C:\Users\Experimental User\Desktop\experiment\data/010100_REPSWITCH1_v2022.2.4_2023-07-17_16h27.34.455_micResp_recorded\recording_micResp_2023-07-17_16h30.47.888.wav;None;;;;;;;;;;;;;10100;1;2023-07-17_16h27.34.455;REPSWITCH1_v2022.2.4;202224;1.44E+16;
REPSWITCH1/PICTURE_517.png;cuerda;type;darkblue;switch;1;T;2;Stim4_Set2;34;33;0;33;33;33;;2.05E+15;;;;;;;;;;;;;;;;;;;;;;;2.01E+16;2.02E+16;2.02E+16;2.02E+16;2.02E+16;2.02E+16;2.02E+16;2.02E+16;1.46E+16;['c', 'u', 'e', 'r', 'd', 'a'];0;cuerda;C:\Users\Experimental User\Desktop\experiment\data/010100_REPSWITCH1_v2022.2.4_2023-07-17_16h27.34.455_micResp_recorded\recording_micResp_2023-07-17_16h30.52.603.wav;None;;;;;;;[1.005949699319899, 1.133937600068748, 1.2779105994850397, 1.4379755994305015, 1.5983133995905519, 1.790515199303627];;;;;;10100;1;2023-07-17_16h27.34.455;REPSWITCH1_v2022.2.4;202224;1.44E+16;
REPSWITCH1/PICTURE_135.png;traje;speak;gold;filler;2;F;2;Stim3_Set1;35;34;0;34;34;34;;2.10E+16;;;;;;;;;;;;;;;;;;;;;;;2.06E+15;2.07E+16;2.07E+16;2.07E+16;2.07E+16;2.07E+16;2.07E+16;2.07E+16;1.30E+16;None;0;;C:\Users\Experimental User\Desktop\experiment\data/010100_REPSWITCH1_v2022.2.4_2023-07-17_16h27.34.455_micResp_recorded\recording_micResp_2023-07-17_16h30.57.227.wav;None;2.10E+16;2.10E+16;2.10E+16;2.10E+16;2.10E+16;2.10E+16;;;;;;;10100;1;2023-07-17_16h27.34.455;REPSWITCH1_v2022.2.4;202224;1.44E+16;
REPSWITCH1/PICTURE_30.png;granja;type;darkblue;nontarget;1;NT;2;Stim5_Set2;36;35;0;35;35;35;;2.14E+16;;;;;;;;;;;;;;;;;;;;;;2.15E+16;2.10E+16;2.11E+15;2.11E+15;2.11E+15;2.11E+15;2.11E+15;2.11E+15;2.11E+15;4.34E+15;['g', 'r', 'a', 'n', 'j', 'a'];0;granja;C:\Users\Experimental User\Desktop\experiment\data/010100_REPSWITCH1_v2022.2.4_2023-07-17_16h27.34.455_micResp_recorded\recording_micResp_2023-07-17_16h31.01.860.wav;None;2.14E+16;2.14E+16;2.14E+16;2.14E+16;2.14E+16;2.14E+16;[1.1866432996466756, 1.3630756996572018, 1.538711099885404, 1.683042399585247, 1.938994700089097, 2.018984599970281];;;;;;10100;1;2023-07-17_16h27.34.455;REPSWITCH1_v2022.2.4;202224;1.44E+16;
REPSWITCH1/PICTURE_30.png;granja;speak;gold;switch;2;T;2;Stim5_Set2;37;36;0;36;36;36;;2.19E+16;;;;;;;;;;;;;;;;;;;;;;2.20E+16;2.15E+16;2.16E+15;2.16E+15;2.16E+15;2.16E+15;2.16E+15;2.16E+15;2.16E+15;1.94E+16;None;0;;C:\Users\Experimental User\Desktop\experiment\data/010100_REPSWITCH1_v2022.2.4_2023-07-17_16h27.34.455_micResp_recorded\recording_micResp_2023-07-17_16h31.06.587.wav;None;2.19E+16;2.19E+16;2.19E+16;2.19E+16;2.19E+16;2.19E+16;;;;;;;10100;1;2023-07-17_16h27.34.455;REPSWITCH1_v2022.2.4;202224;1.44E+16;
REPSWITCH1/PICTURE_128.png;muñeca;type;darkblue;filler;1;F;2;Stim4_Set1;38;37;0;37;37;37;;2.24E+16;;;;;;;;;;;;;;;;;;;;;;;2.20E+16;2.21E+15;2.21E+15;2.21E+15;2.21E+15;2.21E+15;2.21E+15;2.21E+15;1.37E+16;['m', 'u', 'ñ', 'e', 'c', 'a'];0;muñeca;C:\Users\Experimental User\Desktop\experiment\data/010100_REPSWITCH1_v2022.2.4_2023-07-17_16h27.34.455_micResp_recorded\recording_micResp_2023-07-17_16h31.11.173.wav;None;;;;;;;[1.0744558991864324, 1.299023998901248, 2.0187016995623708, 2.242454999126494, 2.4348586993291974, 2.642226099036634];;;;;;10100;1;2023-07-17_16h27.34.455;REPSWITCH1_v2022.2.4;202224;1.44E+16;
REPSWITCH1/PICTURE_19.png;pavo;type;darkblue;filler;1;F;2;Stim5_Set1;39;38;0;38;38;38;;2.28E+16;;;;;;;;;;;;;;;;;;;;;;2.29E+15;2.24E+16;2.25E+16;2.25E+16;2.25E+16;2.25E+16;2.25E+16;2.25E+16;2.25E+16;1.75E+16;['p', 'a', 'v', 'o'];0;pavo;C:\Users\Experimental User\Desktop\experiment\data/010100_REPSWITCH1_v2022.2.4_2023-07-17_16h27.34.455_micResp_recorded\recording_micResp_2023-07-17_16h31.15.796.wav;None;2.28E+16;2.28E+16;2.28E+16;2.28E+16;2.28E+16;2.28E+16;[1.0554990991950035, 1.1675284998491406, 1.3912592995911837, 1.4713263995945454];;;;;;10100;1;2023-07-17_16h27.34.455;REPSWITCH1_v2022.2.4;202224;1.44E+16;
REPSWITCH1/PICTURE_552.png;manzana;speak;gold;nontarget;2;NT;2;Stim6_Set2;40;39;0;39;39;39;;2.33E+16;;;;;;;;;;;;;;;;;;;;;;;2.29E+15;2.30E+16;2.30E+16;2.30E+16;2.30E+16;2.30E+16;2.30E+16;2.30E+16;3.87E+16;None;0;;C:\Users\Experimental User\Desktop\experiment\data/010100_REPSWITCH1_v2022.2.4_2023-07-17_16h27.34.455_micResp_recorded\recording_micResp_2023-07-17_16h31.20.425.wav;None;2.33E+16;2.33E+16;2.33E+16;2.33E+16;2.33E+16;2.33E+16;;;;;;;10100;1;2023-07-17_16h27.34.455;REPSWITCH1_v2022.2.4;202224;1.44E+16;
REPSWITCH1/PICTURE_552.png;manzana;speak;gold;repeat;2;T;2;Stim6_Set2;41;40;0;40;40;40;;2.38E+16;;;;;;;;;;;;;;;;;;;;;;2.38E+16;2.33E+15;2.35E+16;2.35E+16;2.35E+16;2.35E+16;2.35E+16;2.35E+16;2.35E+16;1.50E+16;None;0;;C:\Users\Experimental User\Desktop\experiment\data/010100_REPSWITCH1_v2022.2.4_2023-07-17_16h27.34.455_micResp_recorded\recording_micResp_2023-07-17_16h31.25.060.wav;None;2.38E+16;2.38E+16;2.38E+16;2.38E+16;2.38E+16;2.38E+16;;;;;;;10100;1;2023-07-17_16h27.34.455;REPSWITCH1_v2022.2.4;202224;1.44E+16;
REPSWITCH1/PICTURE_16.png;cazador;type;darkblue;filler;1;F;2;Stim6_Set1;42;41;0;41;41;41;;2.42E+16;;;;;;;;;;;;;;;;;;;;;;2.43E+15;2.38E+16;2.39E+16;2.39E+16;2.39E+16;2.39E+16;2.39E+16;2.39E+16;2.39E+16;1.51E+16;['c', 'a', 'z', 'a', 'd', 'o', 'r'];0;cazador;C:\Users\Experimental User\Desktop\experiment\data/010100_REPSWITCH1_v2022.2.4_2023-07-17_16h27.34.455_micResp_recorded\recording_micResp_2023-07-17_16h31.29.693.wav;None;2.42E+16;2.42E+16;2.42E+16;2.42E+16;2.42E+16;2.42E+16;[1.02954759914428, 1.2380499988794327, 1.414049499668181, 1.5734808994457126, 1.749805899336934, 1.862093299627304, 1.9580996995791793];;;;;;10100;1;2023-07-17_16h27.34.455;REPSWITCH1_v2022.2.4;202224;1.44E+16;
REPSWITCH1/PICTURE_446.png;cerdo;speak;gold;nontarget;2;NT;2;Stim7_Set2;43;42;0;42;42;42;;2.47E+16;;;;;;;;;;;;;;;;;;;;;;;2.43E+15;2.44E+15;2.44E+15;2.44E+15;2.44E+15;2.44E+15;2.44E+15;2.44E+15;4.53E+15;None;0;;C:\Users\Experimental User\Desktop\experiment\data/010100_REPSWITCH1_v2022.2.4_2023-07-17_16h27.34.455_micResp_recorded\recording_micResp_2023-07-17_16h31.34.412.wav;None;2.47E+16;2.47E+16;2.47E+16;2.47E+16;2.47E+16;2.47E+16;;;;;;;10100;1;2023-07-17_16h27.34.455;REPSWITCH1_v2022.2.4;202224;1.44E+16;
REPSWITCH1/PICTURE_446.png;cerdo;speak;gold;repeat;2;T;2;Stim7_Set2;44;43;0;43;43;43;;2.52E+16;;;;;;;;;;;;;;;;;;;;;;;2.47E+15;2.49E+15;2.49E+15;2.49E+15;2.49E+15;2.49E+15;2.49E+15;2.49E+15;1.42E+16;None;0;;C:\Users\Experimental User\Desktop\experiment\data/010100_REPSWITCH1_v2022.2.4_2023-07-17_16h27.34.455_micResp_recorded\recording_micResp_2023-07-17_16h31.39.059.wav;None;;;;;;;;;;;;;10100;1;2023-07-17_16h27.34.455;REPSWITCH1_v2022.2.4;202224;1.44E+16;
REPSWITCH1/PICTURE_142.png;vaso;speak;gold;filler;2;F;2;Stim7_Set1;45;44;0;44;44;44;;2.56E+15;;;;;;;;;;;;;;;;;;;;;;2.57E+15;2.52E+16;2.53E+16;2.53E+16;2.53E+16;2.53E+16;2.53E+16;2.53E+16;2.53E+16;1.26E+16;None;0;;C:\Users\Experimental User\Desktop\experiment\data/010100_REPSWITCH1_v2022.2.4_2023-07-17_16h27.34.455_micResp_recorded\recording_micResp_2023-07-17_16h31.43.659.wav;None;2.56E+15;2.56E+15;2.56E+15;2.56E+15;2.56E+15;2.56E+15;;;;;;;10100;1;2023-07-17_16h27.34.455;REPSWITCH1_v2022.2.4;202224;1.44E+16;
REPSWITCH1/PICTURE_169.png;espalda;type;darkblue;filler;1;F;2;Stim8_Set1;46;45;0;45;45;45;;2.61E+16;;;;;;;;;;;;;;;;;;;;;;;2.57E+15;2.58E+15;2.58E+15;2.58E+15;2.58E+15;2.58E+15;2.58E+15;2.58E+15;1.27E+16;['e', 's', 'p', 'a', 'l', 'a', 'backspace', 'd'];0;espald;C:\Users\Experimental User\Desktop\experiment\data/010100_REPSWITCH1_v2022.2.4_2023-07-17_16h27.34.455_micResp_recorded\recording_micResp_2023-07-17_16h31.48.337.wav;None;2.61E+16;2.61E+16;2.61E+16;2.61E+16;2.61E+16;2.61E+16;[1.3746565990149975, 1.534554598852992, 1.6783065991476178, 1.8549901992082596, 1.966987798921764, 2.0469865994527936, 2.8782914988696575, 2.9422968989238143];;;;;;10100;1;2023-07-17_16h27.34.455;REPSWITCH1_v2022.2.4;202224;1.44E+16;
REPSWITCH1/PICTURE_199.png;falda;speak;gold;nontarget;2;NT;2;Stim8_Set2;47;46;0;46;46;46;;2.65E+15;;;;;;;;;;;;;;;;;;;;;;;2.61E+16;2.62E+15;2.62E+15;2.62E+15;2.62E+15;2.62E+15;2.62E+15;2.62E+15;4.39E+15;None;0;;C:\Users\Experimental User\Desktop\experiment\data/010100_REPSWITCH1_v2022.2.4_2023-07-17_16h27.34.455_micResp_recorded\recording_micResp_2023-07-17_16h31.52.949.wav;None;2.65E+15;2.65E+15;2.65E+15;2.65E+15;2.65E+15;2.65E+15;;;;;;;10100;1;2023-07-17_16h27.34.455;REPSWITCH1_v2022.2.4;202224;1.44E+16;
REPSWITCH1/PICTURE_199.png;falda;type;darkblue;switch;1;T;2;Stim8_Set2;48;47;0;47;47;47;;2.70E+15;;;;;;;;;;;;;;;;;;;;;;2.71E+16;2.66E+16;2.67E+15;2.67E+15;2.67E+15;2.67E+15;2.67E+15;2.67E+15;2.67E+15;1.40E+16;['f', 'a', 'l', 'd', 'a'];0;falda;C:\Users\Experimental User\Desktop\experiment\data/010100_REPSWITCH1_v2022.2.4_2023-07-17_16h27.34.455_micResp_recorded\recording_micResp_2023-07-17_16h31.57.564.wav;None;2.70E+15;2.70E+15;2.70E+15;2.70E+15;2.70E+15;2.70E+15;[0.98223099950701, 1.1582228988409042, 1.254225199110806, 1.3819177988916636, 1.5419177990406752];;;;;;10100;1;2023-07-17_16h27.34.455;REPSWITCH1_v2022.2.4;202224;1.44E+16;
REPSWITCH1/PICTURE_576.png;guante;type;darkblue;nontarget;1;NT;3;Stim1_Set3;49;48;0;48;48;48;;2.75E+16;;;;;;;;;;;;;;;;;;;;;;;2.71E+16;2.72E+16;2.72E+16;2.72E+16;2.72E+16;2.72E+16;2.72E+16;2.72E+16;3.72E+15;['g', 'u', 'a', 'n', 't', 'e'];0;guante;C:\Users\Experimental User\Desktop\experiment\data/010100_REPSWITCH1_v2022.2.4_2023-07-17_16h27.34.455_micResp_recorded\recording_micResp_2023-07-17_16h32.02.209.wav;None;;;;;;;[1.241694999858737, 1.3385840002447367, 1.4665455995127559, 1.6098531996831298, 1.770304299890995, 1.945911199785769];;;;;;10100;1;2023-07-17_16h27.34.455;REPSWITCH1_v2022.2.4;202224;1.44E+16;
REPSWITCH1/PICTURE_576.png;guante;speak;gold;switch;2;T;3;Stim1_Set3;50;49;0;49;49;49;;2.79E+16;;;;;;;;;;;;;;;;;;;;;;2.80E+15;2.75E+15;2.76E+16;2.76E+16;2.76E+16;2.76E+16;2.76E+16;2.76E+16;2.76E+16;1.33E+15;None;0;;C:\Users\Experimental User\Desktop\experiment\data/010100_REPSWITCH1_v2022.2.4_2023-07-17_16h27.34.455_micResp_recorded\recording_micResp_2023-07-17_16h32.06.786.wav;None;2.79E+16;2.79E+16;2.79E+16;2.79E+16;2.79E+16;2.79E+16;;;;;;;10100;1;2023-07-17_16h27.34.455;REPSWITCH1_v2022.2.4;202224;1.44E+16;
REPSWITCH1/PICTURE_610.png;miel;speak;gold;nontarget;2;NT;3;Stim2_Set3;51;50;0;50;50;50;;2.84E+15;;;;;;;;;;;;;;;;;;;;;;;2.80E+15;2.81E+16;2.81E+16;2.81E+16;2.81E+16;2.81E+16;2.81E+16;2.81E+16;3.76E+15;None;0;;C:\Users\Experimental User\Desktop\experiment\data/010100_REPSWITCH1_v2022.2.4_2023-07-17_16h27.34.455_micResp_recorded\recording_micResp_2023-07-17_16h32.11.356.wav;None;;;;;;;;;;;;;10100;1;2023-07-17_16h27.34.455;REPSWITCH1_v2022.2.4;202224;1.44E+16;
REPSWITCH1/PICTURE_610.png;miel;type;darkblue;switch;1;T;3;Stim2_Set3;52;51;0;51;51;51;;2.88E+15;;;;;;;;;;;;;;;;;;;;;;2.89E+15;2.84E+15;2.85E+16;2.85E+16;2.85E+16;2.85E+16;2.85E+16;2.85E+16;2.85E+16;1.40E+14;['m', 'i', 'e', 'l'];0;miel;C:\Users\Experimental User\Desktop\experiment\data/010100_REPSWITCH1_v2022.2.4_2023-07-17_16h27.34.455_micResp_recorded\recording_micResp_2023-07-17_16h32.15.956.wav;None;2.88E+15;2.88E+15;2.88E+15;2.88E+15;2.88E+15;2.88E+15;[0.9274427993223071, 1.0554080000147223, 1.183509700000286, 1.3117641992866993];;;;;;10100;1;2023-07-17_16h27.34.455;REPSWITCH1_v2022.2.4;202224;1.44E+16;
REPSWITCH1/PICTURE_175.png;pintor;type;darkblue;filler;1;F;3;Stim1_Set2;53;52;0;52;52;52;;2.93E+15;;;;;;;;;;;;;;;;;;;;;;;2.89E+15;2.90E+16;2.90E+16;2.90E+16;2.90E+16;2.90E+16;2.90E+16;2.90E+16;1.42E+16;['p', 'i', 'n', 't', 'o', 'r'];0;pintor;C:\Users\Experimental User\Desktop\experiment\data/010100_REPSWITCH1_v2022.2.4_2023-07-17_16h27.34.455_micResp_recorded\recording_micResp_2023-07-17_16h32.20.571.wav;None;;;;;;;[0.9896766990423203, 1.2142062997445464, 1.3102628998458385, 1.4222622998058796, 1.5182281993329525, 1.5982303991913795];;;;;;10100;1;2023-07-17_16h27.34.455;REPSWITCH1_v2022.2.4;202224;1.44E+16;
REPSWITCH1/PICTURE_242.png;cartero;type;darkblue;nontarget;1;NT;3;Stim3_Set3;54;53;0;53;53;53;;2.98E+14;;;;;;;;;;;;;;;;;;;;;;2.98E+15;2.94E+16;2.95E+15;2.95E+15;2.95E+15;2.95E+15;2.95E+15;2.95E+15;2.95E+15;3.79E+16;['c', 'a', 'r', 'e', 't', 'e', 'r'];0;caeter;C:\Users\Experimental User\Desktop\experiment\data/010100_REPSWITCH1_v2022.2.4_2023-07-17_16h27.34.455_micResp_recorded\recording_micResp_2023-07-17_16h32.25.290.wav;None;;;;;;;[1.2505232999101281, 1.4420103002339602, 1.7783485995605588, 1.7793447999283671, 2.4182077003642917, 2.6099309995770454, 2.785791900008917];;;;;;10100;1;2023-07-17_16h27.34.455;REPSWITCH1_v2022.2.4;202224;1.44E+16;
REPSWITCH1/PICTURE_242.png;cartero;speak;gold;switch;2;T;3;Stim3_Set3;55;54;0;54;54;54;;3.02E+16;;;;;;;;;;;;;;;;;;;;;;3.03E+16;2.98E+15;2.99E+16;2.99E+16;2.99E+16;2.99E+16;2.99E+16;2.99E+16;2.99E+16;1.37E+16;None;0;;C:\Users\Experimental User\Desktop\experiment\data/010100_REPSWITCH1_v2022.2.4_2023-07-17_16h27.34.455_micResp_recorded\recording_micResp_2023-07-17_16h32.29.950.wav;None;3.02E+15;3.02E+15;3.02E+15;3.02E+15;3.02E+15;3.02E+15;;;;;;;10100;1;2023-07-17_16h27.34.455;REPSWITCH1_v2022.2.4;202224;1.44E+16;
REPSWITCH1/PICTURE_152.png;caracol;type;darkblue;filler;1;F;3;Stim2_Set2;56;55;0;55;55;55;;3.07E+15;;;;;;;;;;;;;;;;;;;;;;;3.03E+16;3.04E+15;3.04E+15;3.04E+15;3.04E+15;3.04E+15;3.04E+15;3.04E+15;1.48E+16;['c', 'a', 'r', 'a', 'c', 'o', 'l'];0;caracol;C:\Users\Experimental User\Desktop\experiment\data/010100_REPSWITCH1_v2022.2.4_2023-07-17_16h27.34.455_micResp_recorded\recording_micResp_2023-07-17_16h32.34.635.wav;None;;;;;;;[1.0219468995928764, 1.2299363994970918, 1.4694523001089692, 1.6775059001520276, 1.869450599886477, 1.9654188994318247, 2.1574502997100353];;;;;;10100;1;2023-07-17_16h27.34.455;REPSWITCH1_v2022.2.4;202224;1.44E+16;
REPSWITCH1/PICTURE_235.png;aguja;speak;gold;nontarget;2;NT;3;Stim4_Set3;57;56;0;56;56;56;;3.12E+16;;;;;;;;;;;;;;;;;;;;;;3.12E+15;3.08E+15;3.09E+15;3.09E+15;3.09E+15;3.09E+15;3.09E+15;3.09E+15;3.09E+15;4.36E+15;None;0;;C:\Users\Experimental User\Desktop\experiment\data/010100_REPSWITCH1_v2022.2.4_2023-07-17_16h27.34.455_micResp_recorded\recording_micResp_2023-07-17_16h32.39.285.wav;None;;;;;;;;;;;;;10100;1;2023-07-17_16h27.34.455;REPSWITCH1_v2022.2.4;202224;1.44E+16;
REPSWITCH1/PICTURE_235.png;aguja;speak;gold;repeat;2;T;3;Stim4_Set3;58;57;0;57;57;57;;3.16E+16;;;;;;;;;;;;;;;;;;;;;;;3.12E+15;3.13E+15;3.13E+15;3.13E+15;3.13E+15;3.13E+15;3.13E+15;3.13E+15;1.34E+16;None;0;;C:\Users\Experimental User\Desktop\experiment\data/010100_REPSWITCH1_v2022.2.4_2023-07-17_16h27.34.455_micResp_recorded\recording_micResp_2023-07-17_16h32.43.909.wav;None;3.16E+16;3.16E+16;3.16E+16;3.16E+16;3.16E+16;3.16E+16;;;;;;;10100;1;2023-07-17_16h27.34.455;REPSWITCH1_v2022.2.4;202224;1.44E+16;
REPSWITCH1/PICTURE_264.png;mano;speak;gold;filler;2;F;3;Stim3_Set2;59;58;0;58;58;58;;3.21E+15;;;;;;;;;;;;;;;;;;;;;;;3.17E+15;3.18E+15;3.18E+15;3.18E+15;3.18E+15;3.18E+15;3.18E+15;3.18E+15;1.41E+16;None;0;;C:\Users\Experimental User\Desktop\experiment\data/010100_REPSWITCH1_v2022.2.4_2023-07-17_16h27.34.455_micResp_recorded\recording_micResp_2023-07-17_16h32.48.546.wav;None;;;;;;;;;;;;;10100;1;2023-07-17_16h27.34.455;REPSWITCH1_v2022.2.4;202224;1.44E+16;
REPSWITCH1/PICTURE_517.png;cuerda;type;darkblue;filler;1;F;3;Stim4_Set2;60;59;0;59;59;59;;3.26E+16;;;;;;;;;;;;;;;;;;;;;;3.26E+15;3.22E+16;3.23E+16;3.23E+16;3.23E+16;3.23E+16;3.23E+16;3.23E+16;3.23E+16;1.44E+15;['c', 'u', 'i', 'e', 'r', 'd', 'a', 'backspace', 'backspace', 'backspace', 'backspace', 'backspace'];0;cu;C:\Users\Experimental User\Desktop\experiment\data/010100_REPSWITCH1_v2022.2.4_2023-07-17_16h27.34.455_micResp_recorded\recording_micResp_2023-07-17_16h32.53.112.wav;None;3.26E+16;3.26E+16;3.26E+16;3.26E+16;3.26E+16;3.26E+16;[1.0179219990968704, 1.145906899124384, 1.1619119998067617, 1.2739110998809338, 1.4034934993833303, 1.6105319997295737, 1.78656189981848, 2.138316499069333, 2.2983576990664005, 2.5540164997801185, 2.6983366990461946, 2.8584408992901444];;;;;;10100;1;2023-07-17_16h27.34.455;REPSWITCH1_v2022.2.4;202224;1.44E+16;
REPSWITCH1/PICTURE_30.png;granja;type;darkblue;filler;1;F;3;Stim5_Set2;61;60;0;60;60;60;;3.30E+16;;;;;;;;;;;;;;;;;;;;;;3.31E+15;3.26E+15;3.27E+16;3.27E+16;3.27E+16;3.27E+16;3.27E+16;3.27E+16;3.27E+16;1.98E+15;['g', 'r', 'a', 'n', 'j', 'a'];0;granja;C:\Users\Experimental User\Desktop\experiment\data/010100_REPSWITCH1_v2022.2.4_2023-07-17_16h27.34.455_micResp_recorded\recording_micResp_2023-07-17_16h32.57.738.wav;None;3.30E+16;3.30E+16;3.30E+16;3.30E+16;3.30E+16;3.30E+16;[1.0810755994170904, 1.273077399469912, 1.4658541996032, 1.7208128990605474, 1.8488137992098927, 1.9288122989237309];;;;;;10100;1;2023-07-17_16h27.34.455;REPSWITCH1_v2022.2.4;202224;1.44E+16;
REPSWITCH1/PICTURE_35.png;oreja;speak;gold;nontarget;2;NT;3;Stim5_Set3;62;61;0;61;61;61;;3.35E+16;;;;;;;;;;;;;;;;;;;;;;3.35E+15;3.31E+15;3.32E+16;3.32E+16;3.32E+16;3.32E+16;3.32E+16;3.32E+16;3.32E+16;4.29E+15;None;0;;C:\Users\Experimental User\Desktop\experiment\data/010100_REPSWITCH1_v2022.2.4_2023-07-17_16h27.34.455_micResp_recorded\recording_micResp_2023-07-17_16h33.02.412.wav;None;;;;;;;;;;;;;10100;1;2023-07-17_16h27.34.455;REPSWITCH1_v2022.2.4;202224;1.44E+16;
REPSWITCH1/PICTURE_35.png;oreja;speak;gold;repeat;2;T;3;Stim5_Set3;63;62;0;62;62;62;;3.39E+16;;;;;;;;;;;;;;;;;;;;;;;3.35E+15;3.36E+15;3.36E+15;3.36E+15;3.36E+15;3.36E+15;3.36E+15;3.36E+15;1.32E+16;None;0;;C:\Users\Experimental User\Desktop\experiment\data/010100_REPSWITCH1_v2022.2.4_2023-07-17_16h27.34.455_micResp_recorded\recording_micResp_2023-07-17_16h33.06.965.wav;None;;;;;;;;;;;;;10100;1;2023-07-17_16h27.34.455;REPSWITCH1_v2022.2.4;202224;1.44E+16;
REPSWITCH1/PICTURE_464.png;goma;speak;gold;nontarget;2;NT;3;Stim6_Set3;64;63;0;63;63;63;;3.44E+16;;;;;;;;;;;;;;;;;;;;;;;3.40E+16;3.41E+14;3.41E+14;3.41E+14;3.41E+14;3.41E+14;3.41E+14;3.41E+14;3.63E+15;None;0;;C:\Users\Experimental User\Desktop\experiment\data/010100_REPSWITCH1_v2022.2.4_2023-07-17_16h27.34.455_micResp_recorded\recording_micResp_2023-07-17_16h33.11.613.wav;None;;;;;;;;;;;;;10100;1;2023-07-17_16h27.34.455;REPSWITCH1_v2022.2.4;202224;1.44E+16;
REPSWITCH1/PICTURE_464.png;goma;type;darkblue;switch;1;T;3;Stim6_Set3;65;64;0;64;64;64;;3.49E+15;;;;;;;;;;;;;;;;;;;;;;3.49E+15;3.45E+15;3.46E+15;3.46E+15;3.46E+15;3.46E+15;3.46E+15;3.46E+15;3.46E+15;1.19E+16;['g', 'o', 'm', 'a'];0;goma;C:\Users\Experimental User\Desktop\experiment\data/010100_REPSWITCH1_v2022.2.4_2023-07-17_16h27.34.455_micResp_recorded\recording_micResp_2023-07-17_16h33.16.233.wav;None;3.49E+15;3.49E+15;3.49E+15;3.49E+15;3.49E+15;3.49E+15;[1.0329558989033103, 1.1612314991652966, 1.2570971995592117, 1.4010933991521597];;;;;;10100;1;2023-07-17_16h27.34.455;REPSWITCH1_v2022.2.4;202224;1.44E+16;
REPSWITCH1/PICTURE_552.png;manzana;speak;gold;filler;2;F;3;Stim6_Set2;66;65;0;65;65;65;;3.53E+16;;;;;;;;;;;;;;;;;;;;;;3.54E+15;3.49E+15;3.50E+16;3.50E+16;3.50E+16;3.50E+16;3.50E+16;3.50E+16;3.50E+16;1.51E+16;None;0;;C:\Users\Experimental User\Desktop\experiment\data/010100_REPSWITCH1_v2022.2.4_2023-07-17_16h27.34.455_micResp_recorded\recording_micResp_2023-07-17_16h33.20.838.wav;None;3.53E+16;3.53E+16;3.53E+16;3.53E+16;3.53E+16;3.53E+16;;;;;;;10100;1;2023-07-17_16h27.34.455;REPSWITCH1_v2022.2.4;202224;1.44E+16;
REPSWITCH1/PICTURE_271.png;conejo;type;darkblue;nontarget;1;NT;3;Stim7_Set3;67;66;0;66;66;66;;3.58E+15;;;;;;;;;;;;;;;;;;;;;;;3.54E+15;3.55E+16;3.55E+16;3.55E+16;3.55E+16;3.55E+16;3.55E+16;3.55E+16;4.14E+14;['c', 'o', 'n', 'e', 'j', 'o'];0;conejo;C:\Users\Experimental User\Desktop\experiment\data/010100_REPSWITCH1_v2022.2.4_2023-07-17_16h27.34.455_micResp_recorded\recording_micResp_2023-07-17_16h33.25.535.wav;None;3.58E+15;3.58E+15;3.58E+15;3.58E+15;3.58E+15;3.58E+15;[1.061337299644947, 1.205427199602127, 1.413906299509108, 1.5259061995893717, 1.6539046997204423, 1.9423261992633343];;;;;;10100;1;2023-07-17_16h27.34.455;REPSWITCH1_v2022.2.4;202224;1.44E+16;
REPSWITCH1/PICTURE_271.png;conejo;type;darkblue;repeat;1;T;3;Stim7_Set3;68;67;0;67;67;67;;3.63E+16;;;;;;;;;;;;;;;;;;;;;;3.63E+15;3.59E+16;3.60E+16;3.60E+16;3.60E+16;3.60E+16;3.60E+16;3.60E+16;3.60E+16;1.60E+16;['c', 'o', 'n', 'e', 'k', 'o'];0;coneko;C:\Users\Experimental User\Desktop\experiment\data/010100_REPSWITCH1_v2022.2.4_2023-07-17_16h27.34.455_micResp_recorded\recording_micResp_2023-07-17_16h33.30.166.wav;None;3.63E+16;3.63E+16;3.63E+16;3.63E+16;3.63E+16;3.63E+16;[1.1971652992069721, 1.2458606995642185, 1.4378418996930122, 1.5167954992502928, 1.7410741997882724, 1.8530719997361302];;;;;;10100;1;2023-07-17_16h27.34.455;REPSWITCH1_v2022.2.4;202224;1.44E+16;
REPSWITCH1/PICTURE_446.png;cerdo;speak;gold;filler;2;F;3;Stim7_Set2;69;68;0;68;68;68;;3.67E+15;;;;;;;;;;;;;;;;;;;;;;;3.63E+15;3.64E+15;3.64E+15;3.64E+15;3.64E+15;3.64E+15;3.64E+15;3.64E+15;1.43E+16;None;0;;C:\Users\Experimental User\Desktop\experiment\data/010100_REPSWITCH1_v2022.2.4_2023-07-17_16h27.34.455_micResp_recorded\recording_micResp_2023-07-17_16h33.34.802.wav;None;;;;;;;;;;;;;10100;1;2023-07-17_16h27.34.455;REPSWITCH1_v2022.2.4;202224;1.44E+16;
REPSWITCH1/PICTURE_199.png;falda;speak;gold;filler;2;F;3;Stim8_Set2;70;69;0;69;69;69;;3.72E+15;;;;;;;;;;;;;;;;;;;;;;3.72E+15;3.68E+16;3.69E+16;3.69E+16;3.69E+16;3.69E+16;3.69E+16;3.69E+16;3.69E+16;1.41E+16;None;0;;C:\Users\Experimental User\Desktop\experiment\data/010100_REPSWITCH1_v2022.2.4_2023-07-17_16h27.34.455_micResp_recorded\recording_micResp_2023-07-17_16h33.39.471.wav;None;3.72E+15;3.72E+15;3.72E+15;3.72E+15;3.72E+15;3.72E+15;;;;;;;10100;1;2023-07-17_16h27.34.455;REPSWITCH1_v2022.2.4;202224;1.44E+16;
REPSWITCH1/PICTURE_320.png;iglesia;type;darkblue;nontarget;1;NT;3;Stim8_Set3;71;70;0;70;70;70;;3.77E+16;;;;;;;;;;;;;;;;;;;;;;3.77E+16;3.72E+15;3.73E+16;3.73E+16;3.73E+16;3.73E+16;3.73E+16;3.73E+16;3.73E+16;4.68E+16;['i', 'g', 'l', 'e', 's', 'i', 'a'];0;iglesia;C:\Users\Experimental User\Desktop\experiment\data/010100_REPSWITCH1_v2022.2.4_2023-07-17_16h27.34.455_micResp_recorded\recording_micResp_2023-07-17_16h33.44.028.wav;None;;;;;;;[1.152038099244237, 1.4567922996357083, 1.6159499995410442, 1.7909088991582394, 1.9669702993705869, 2.0630242992192507, 2.158945999108255];;;;;;10100;1;2023-07-17_16h27.34.455;REPSWITCH1_v2022.2.4;202224;1.44E+16;
REPSWITCH1/PICTURE_320.png;iglesia;type;darkblue;repeat;1;T;3;Stim8_Set3;72;71;0;71;71;71;;3.81E+16;;;;;;;;;;;;;;;;;;;;;;3.82E+15;3.77E+16;3.78E+15;3.78E+15;3.78E+15;3.78E+15;3.78E+15;3.78E+15;3.78E+15;1.51E+16;['i', 'g', 'l', 'e', 's', 'i', 'a'];0;iglesia;C:\Users\Experimental User\Desktop\experiment\data/010100_REPSWITCH1_v2022.2.4_2023-07-17_16h27.34.455_micResp_recorded\recording_micResp_2023-07-17_16h33.48.598.wav;None;3.81E+16;3.81E+16;3.81E+16;3.81E+16;3.81E+16;3.81E+16;[0.9409774001687765, 1.180702599696815, 1.2766992999240756, 1.6447067996487021, 1.8210869999602437, 1.9326010001823306, 1.996593900024891];;;;;;10100;1;2023-07-17_16h27.34.455;REPSWITCH1_v2022.2.4;202224;1.44E+16;
REPSWITCH1/PICTURE_576.png;guante;speak;gold;filler;2;F;4;Stim1_Set3;73;72;0;72;72;72;;3.86E+16;;;;;;;;;;;;;;;;;;;;;;;3.82E+15;3.83E+15;3.83E+15;3.83E+15;3.83E+15;3.83E+15;3.83E+15;3.83E+15;1.32E+16;None;0;;C:\Users\Experimental User\Desktop\experiment\data/010100_REPSWITCH1_v2022.2.4_2023-07-17_16h27.34.455_micResp_recorded\recording_micResp_2023-07-17_16h33.53.185.wav;None;;;;;;;;;;;;;10100;1;2023-07-17_16h27.34.455;REPSWITCH1_v2022.2.4;202224;1.44E+16;
REPSWITCH1/PICTURE_319.png;vaca;type;darkblue;nontarget;1;NT;4;Stim1_Set4;74;73;0;73;73;73;;3.90E+16;;;;;;;;;;;;;;;;;;;;;;3.91E+15;3.86E+15;3.87E+16;3.87E+16;3.87E+16;3.87E+16;3.87E+16;3.87E+16;3.87E+16;1.25E+16;['v', 'a', 'c', 'a'];0;vaca;C:\Users\Experimental User\Desktop\experiment\data/010100_REPSWITCH1_v2022.2.4_2023-07-17_16h27.34.455_micResp_recorded\recording_micResp_2023-07-17_16h33.57.842.wav;None;3.90E+16;3.90E+16;3.90E+16;3.90E+16;3.90E+16;3.90E+16;[0.8488188991323113, 1.1200592992827296, 1.3440748993307352, 1.552181899547577];;;;;;10100;1;2023-07-17_16h27.34.455;REPSWITCH1_v2022.2.4;202224;1.44E+16;
REPSWITCH1/PICTURE_319.png;vaca;type;darkblue;repeat;1;T;4;Stim1_Set4;75;74;0;74;74;74;;3.95E+15;;;;;;;;;;;;;;;;;;;;;;;3.91E+15;3.92E+16;3.92E+16;3.92E+16;3.92E+16;3.92E+16;3.92E+16;3.92E+16;1.28E+16;['v', 'a', 'c', 'a'];0;vaca;C:\Users\Experimental User\Desktop\experiment\data/010100_REPSWITCH1_v2022.2.4_2023-07-17_16h27.34.455_micResp_recorded\recording_micResp_2023-07-17_16h34.02.569.wav;None;;;;;;;[0.8794405991211534, 1.103597299195826, 1.3275201991200447, 1.5202298993244767];;;;;;10100;1;2023-07-17_16h27.34.455;REPSWITCH1_v2022.2.4;202224;1.44E+16;
REPSWITCH1/PICTURE_719.png;baño;type;darkblue;nontarget;1;NT;4;Stim2_Set4;76;75;0;75;75;75;;4.00E+15;;;;;;;;;;;;;;;;;;;;;;4.00E+15;3.96E+14;3.97E+14;3.97E+14;3.97E+14;3.97E+14;3.97E+14;3.97E+14;3.97E+14;1.61E+16;['b', 'a', 'ñ', 'o'];0;baño;C:\Users\Experimental User\Desktop\experiment\data/010100_REPSWITCH1_v2022.2.4_2023-07-17_16h27.34.455_micResp_recorded\recording_micResp_2023-07-17_16h34.07.308.wav;None;4.00E+15;4.00E+15;4.00E+15;4.00E+15;4.00E+15;4.00E+15;[1.062292299233377, 1.1901178993284702, 1.8297070991247892, 2.086159098893404];;;;;;10100;1;2023-07-17_16h27.34.455;REPSWITCH1_v2022.2.4;202224;1.44E+16;
REPSWITCH1/PICTURE_719.png;baño;speak;gold;switch;2;T;4;Stim2_Set4;77;76;0;76;76;76;;4.04E+16;;;;;;;;;;;;;;;;;;;;;;;4.00E+15;4.01E+15;4.01E+15;4.01E+15;4.01E+15;4.01E+15;4.01E+15;4.01E+15;1.57E+16;None;0;;C:\Users\Experimental User\Desktop\experiment\data/010100_REPSWITCH1_v2022.2.4_2023-07-17_16h27.34.455_micResp_recorded\recording_micResp_2023-07-17_16h34.11.923.wav;None;4.04E+16;4.04E+16;4.04E+16;4.04E+16;4.04E+16;4.04E+16;;;;;;;10100;1;2023-07-17_16h27.34.455;REPSWITCH1_v2022.2.4;202224;1.44E+16;
REPSWITCH1/PICTURE_610.png;miel;type;darkblue;filler;1;F;4;Stim2_Set3;78;77;0;77;77;77;;4.09E+15;;;;;;;;;;;;;;;;;;;;;;;4.05E+15;4.06E+15;4.06E+15;4.06E+15;4.06E+15;4.06E+15;4.06E+15;4.06E+15;1.42E+16;['m', 'i', 'e', 'l'];0;miel;C:\Users\Experimental User\Desktop\experiment\data/010100_REPSWITCH1_v2022.2.4_2023-07-17_16h27.34.455_micResp_recorded\recording_micResp_2023-07-17_16h34.16.515.wav;None;;;;;;;[0.9815279990434647, 1.1414239993318915, 1.2544582998380065, 1.3654226996004581];;;;;;10100;1;2023-07-17_16h27.34.455;REPSWITCH1_v2022.2.4;202224;1.44E+16;
REPSWITCH1/PICTURE_242.png;cartero;type;darkblue;filler;1;F;4;Stim3_Set3;79;78;0;78;78;78;;4.14E+16;;;;;;;;;;;;;;;;;;;;;;4.14E+16;4.09E+16;4.11E+15;4.11E+15;4.11E+15;4.11E+15;4.11E+15;4.11E+15;4.11E+15;1.37E+14;['c', 'a', 'r', 't', 'e', 'r', 'o'];0;cartero;C:\Users\Experimental User\Desktop\experiment\data/010100_REPSWITCH1_v2022.2.4_2023-07-17_16h27.34.455_micResp_recorded\recording_micResp_2023-07-17_16h34.21.143.wav;None;4.14E+16;4.14E+16;4.14E+16;4.14E+16;4.14E+16;4.14E+16;[0.8270030999556184, 1.0354010993614793, 1.243427800014615, 1.41906030010432, 1.578928799368441, 1.7239908995106816, 1.8352455999702215];;;;;;10100;1;2023-07-17_16h27.34.455;REPSWITCH1_v2022.2.4;202224;1.44E+16;
REPSWITCH1/PICTURE_8.png;pierna;speak;gold;nontarget;2;NT;4;Stim3_Set4;80;79;0;79;79;79;;4.18E+15;;;;;;;;;;;;;;;;;;;;;;;4.14E+16;4.15E+15;4.15E+15;4.15E+15;4.15E+15;4.15E+15;4.15E+15;4.15E+15;1.17E+16;None;0;;C:\Users\Experimental User\Desktop\experiment\data/010100_REPSWITCH1_v2022.2.4_2023-07-17_16h27.34.455_micResp_recorded\recording_micResp_2023-07-17_16h34.25.674.wav;None;4.18E+15;4.18E+15;4.18E+15;4.18E+15;4.18E+15;4.18E+15;;;;;;;10100;1;2023-07-17_16h27.34.455;REPSWITCH1_v2022.2.4;202224;1.44E+16;
REPSWITCH1/PICTURE_8.png;pierna;speak;gold;repeat;2;T;4;Stim3_Set4;81;80;0;80;80;80;;4.23E+15;;;;;;;;;;;;;;;;;;;;;;;4.19E+16;4.20E+16;4.20E+16;4.20E+16;4.20E+16;4.20E+16;4.20E+16;4.20E+16;1.20E+16;None;0;;C:\Users\Experimental User\Desktop\experiment\data/010100_REPSWITCH1_v2022.2.4_2023-07-17_16h27.34.455_micResp_recorded\recording_micResp_2023-07-17_16h34.30.419.wav;None;;;;;;;;;;;;;10100;1;2023-07-17_16h27.34.455;REPSWITCH1_v2022.2.4;202224;1.44E+16;
REPSWITCH1/PICTURE_498.png;taza;speak;gold;nontarget;2;NT;4;Stim4_Set4;82;81;0;81;81;81;;4.28E+16;;;;;;;;;;;;;;;;;;;;;;;4.23E+15;4.25E+15;4.25E+15;4.25E+15;4.25E+15;4.25E+15;4.25E+15;4.25E+15;1.26E+16;None;0;;C:\Users\Experimental User\Desktop\experiment\data/010100_REPSWITCH1_v2022.2.4_2023-07-17_16h27.34.455_micResp_recorded\recording_micResp_2023-07-17_16h34.35.107.wav;None;;;;;;;;;;;;;10100;1;2023-07-17_16h27.34.455;REPSWITCH1_v2022.2.4;202224;1.44E+16;
REPSWITCH1/PICTURE_498.png;taza;type;darkblue;switch;1;T;4;Stim4_Set4;83;82;0;82;82;82;;4.32E+16;;;;;;;;;;;;;;;;;;;;;;4.33E+15;4.28E+15;4.29E+16;4.29E+16;4.29E+16;4.29E+16;4.29E+16;4.29E+16;4.29E+16;1.22E+15;['t', 'a', 'z', 'a'];0;taza;C:\Users\Experimental User\Desktop\experiment\data/010100_REPSWITCH1_v2022.2.4_2023-07-17_16h27.34.455_micResp_recorded\recording_micResp_2023-07-17_16h34.39.734.wav;None;4.32E+16;4.32E+16;4.32E+16;4.32E+16;4.32E+16;4.32E+16;[1.2109754988923669, 1.3549704989418387, 1.4989665988832712, 1.6588461995124817];;;;;;10100;1;2023-07-17_16h27.34.455;REPSWITCH1_v2022.2.4;202224;1.44E+16;
REPSWITCH1/PICTURE_235.png;aguja;speak;gold;filler;2;F;4;Stim4_Set3;84;83;0;83;83;83;;4.37E+15;;;;;;;;;;;;;;;;;;;;;;;4.33E+15;4.34E+15;4.34E+15;4.34E+15;4.34E+15;4.34E+15;4.34E+15;4.34E+15;1.26E+16;None;0;;C:\Users\Experimental User\Desktop\experiment\data/010100_REPSWITCH1_v2022.2.4_2023-07-17_16h27.34.455_micResp_recorded\recording_micResp_2023-07-17_16h34.44.309.wav;None;;;;;;;;;;;;;10100;1;2023-07-17_16h27.34.455;REPSWITCH1_v2022.2.4;202224;1.44E+16;
REPSWITCH1/PICTURE_687.png;camisa;type;darkblue;nontarget;1;NT;4;Stim5_Set4;85;84;0;84;84;84;;4.41E+16;;;;;;;;;;;;;;;;;;;;;;4.42E+15;4.37E+16;4.38E+16;4.38E+16;4.38E+16;4.38E+16;4.38E+16;4.38E+16;4.38E+16;1.26E+15;['c', 'a', 'm', 'i', 's', 'a'];0;camisa;C:\Users\Experimental User\Desktop\experiment\data/010100_REPSWITCH1_v2022.2.4_2023-07-17_16h27.34.455_micResp_recorded\recording_micResp_2023-07-17_16h34.48.930.wav;None;4.41E+16;4.41E+16;4.41E+16;4.41E+16;4.41E+16;4.41E+16;[1.1833383990451694, 1.3913323991000652, 1.4873308995738626, 1.632268499583006, 1.7269034991040826, 1.8706464990973473];;;;;;10100;1;2023-07-17_16h27.34.455;REPSWITCH1_v2022.2.4;202224;1.44E+16;
REPSWITCH1/PICTURE_687.png;camisa;speak;gold;switch;2;T;4;Stim5_Set4;86;85;0;85;85;85;;4.46E+16;;;;;;;;;;;;;;;;;;;;;;;4.42E+15;4.43E+16;4.43E+16;4.43E+16;4.43E+16;4.43E+16;4.43E+16;4.43E+16;1.26E+16;None;0;;C:\Users\Experimental User\Desktop\experiment\data/010100_REPSWITCH1_v2022.2.4_2023-07-17_16h27.34.455_micResp_recorded\recording_micResp_2023-07-17_16h34.53.574.wav;None;;;;;;;;;;;;;10100;1;2023-07-17_16h27.34.455;REPSWITCH1_v2022.2.4;202224;1.44E+16;
REPSWITCH1/PICTURE_338.png;regalo;speak;gold;nontarget;2;NT;4;Stim6_Set4;87;86;0;86;86;86;;4.51E+16;;;;;;;;;;;;;;;;;;;;;;4.51E+16;4.47E+16;4.48E+16;4.48E+16;4.48E+16;4.48E+16;4.48E+16;4.48E+16;4.48E+16;1.44E+15;None;0;;C:\Users\Experimental User\Desktop\experiment\data/010100_REPSWITCH1_v2022.2.4_2023-07-17_16h27.34.455_micResp_recorded\recording_micResp_2023-07-17_16h34.58.209.wav;None;4.51E+16;4.51E+16;4.51E+16;4.51E+16;4.51E+16;4.51E+16;;;;;;;10100;1;2023-07-17_16h27.34.455;REPSWITCH1_v2022.2.4;202224;1.44E+16;
REPSWITCH1/PICTURE_338.png;regalo;speak;gold;repeat;2;T;4;Stim6_Set4;88;87;0;87;87;87;;4.55E+15;;;;;;;;;;;;;;;;;;;;;;;4.51E+16;4.52E+16;4.52E+16;4.52E+16;4.52E+16;4.52E+16;4.52E+16;4.52E+16;1.42E+16;None;0;;C:\Users\Experimental User\Desktop\experiment\data/010100_REPSWITCH1_v2022.2.4_2023-07-17_16h27.34.455_micResp_recorded\recording_micResp_2023-07-17_16h35.02.887.wav;None;;;;;;;;;;;;;10100;1;2023-07-17_16h27.34.455;REPSWITCH1_v2022.2.4;202224;1.44E+16;
REPSWITCH1/PICTURE_35.png;oreja;type;darkblue;filler;1;F;4;Stim5_Set3;89;88;0;88;88;88;;4.60E+16;;;;;;;;;;;;;;;;;;;;;;4.61E+16;4.56E+15;4.57E+16;4.57E+16;4.57E+16;4.57E+16;4.57E+16;4.57E+16;4.57E+16;1.33E+16;['o', 'r', 'e', 'j', 'a'];0;oreja;C:\Users\Experimental User\Desktop\experiment\data/010100_REPSWITCH1_v2022.2.4_2023-07-17_16h27.34.455_micResp_recorded\recording_micResp_2023-07-17_16h35.07.531.wav;None;4.60E+16;4.60E+16;4.60E+16;4.60E+16;4.60E+16;4.60E+16;[1.1436559995636344, 1.2556659001857042, 1.3996660001575947, 1.5916753001511097, 1.720664999447763];;;;;;10100;1;2023-07-17_16h27.34.455;REPSWITCH1_v2022.2.4;202224;1.44E+16;
REPSWITCH1/PICTURE_464.png;goma;speak;gold;filler;2;F;4;Stim6_Set3;90;89;0;89;89;89;;4.65E+16;;;;;;;;;;;;;;;;;;;;;;;4.61E+16;4.62E+15;4.62E+15;4.62E+15;4.62E+15;4.62E+15;4.62E+15;4.62E+15;1.24E+16;None;0;;C:\Users\Experimental User\Desktop\experiment\data/010100_REPSWITCH1_v2022.2.4_2023-07-17_16h27.34.455_micResp_recorded\recording_micResp_2023-07-17_16h35.12.125.wav;None;;;;;;;;;;;;;10100;1;2023-07-17_16h27.34.455;REPSWITCH1_v2022.2.4;202224;1.44E+16;
REPSWITCH1/PICTURE_271.png;conejo;type;darkblue;filler;1;F;4;Stim7_Set3;91;90;0;90;90;90;;4.69E+15;;;;;;;;;;;;;;;;;;;;;;4.70E+16;4.65E+16;4.66E+16;4.66E+16;4.66E+16;4.66E+16;4.66E+16;4.66E+16;4.66E+16;1.60E+16;['c', 'o', 'n', 'e', 'j', 'o'];0;conejo;C:\Users\Experimental User\Desktop\experiment\data/010100_REPSWITCH1_v2022.2.4_2023-07-17_16h27.34.455_micResp_recorded\recording_micResp_2023-07-17_16h35.16.795.wav;None;4.69E+15;4.69E+15;4.69E+15;4.69E+15;4.69E+15;4.69E+15;[0.9185066996142268, 1.031500899232924, 1.2548788990825415, 1.3683353997766972, 1.5425271997228265, 1.7025253996253014];;;;;;10100;1;2023-07-17_16h27.34.455;REPSWITCH1_v2022.2.4;202224;1.44E+16;
REPSWITCH1/PICTURE_48.png;bombero;speak;gold;nontarget;2;NT;4;Stim7_Set4;92;91;0;91;91;91;;4.74E+16;;;;;;;;;;;;;;;;;;;;;;;4.70E+16;4.71E+16;4.71E+16;4.71E+16;4.71E+16;4.71E+16;4.71E+16;4.71E+16;1.44E+15;None;0;;C:\Users\Experimental User\Desktop\experiment\data/010100_REPSWITCH1_v2022.2.4_2023-07-17_16h27.34.455_micResp_recorded\recording_micResp_2023-07-17_16h35.21.405.wav;None;;;;;;;;;;;;;10100;1;2023-07-17_16h27.34.455;REPSWITCH1_v2022.2.4;202224;1.44E+16;
REPSWITCH1/PICTURE_48.png;bombero;type;darkblue;switch;1;T;4;Stim7_Set4;93;92;0;92;92;92;;4.78E+15;;;;;;;;;;;;;;;;;;;;;;;4.74E+16;4.75E+15;4.75E+15;4.75E+15;4.75E+15;4.75E+15;4.75E+15;4.75E+15;1.38E+16;['b', 'o', 'm', 'b', 'e', 'r', 'o'];0;bombero;C:\Users\Experimental User\Desktop\experiment\data/010100_REPSWITCH1_v2022.2.4_2023-07-17_16h27.34.455_micResp_recorded\recording_micResp_2023-07-17_16h35.25.987.wav;None;;;;;;;[1.2678869003430009, 1.3478798996657133, 1.491805199533701, 1.7158097000792623, 1.908479600213468, 2.0685658995062113, 2.148310899734497];;;;;;10100;1;2023-07-17_16h27.34.455;REPSWITCH1_v2022.2.4;202224;1.44E+16;
REPSWITCH1/PICTURE_320.png;iglesia;speak;gold;filler;1;F;4;Stim8_Set3;94;93;0;93;93;93;;4.83E+14;;;;;;;;;;;;;;;;;;;;;;4.84E+16;4.79E+16;4.80E+16;4.80E+16;4.80E+16;4.80E+16;4.80E+16;4.80E+16;4.80E+16;1.48E+16;None;0;;C:\Users\Experimental User\Desktop\experiment\data/010100_REPSWITCH1_v2022.2.4_2023-07-17_16h27.34.455_micResp_recorded\recording_micResp_2023-07-17_16h35.30.714.wav;None;4.83E+14;4.83E+14;4.83E+14;4.83E+14;4.83E+14;4.83E+14;;;;;;;10100;1;2023-07-17_16h27.34.455;REPSWITCH1_v2022.2.4;202224;1.44E+16;
REPSWITCH1/PICTURE_728.png;pulpo;type;darkblue;nontarget;1;NT;4;Stim8_Set4;95;94;0;94;94;94;;4.88E+16;;;;;;;;;;;;;;;;;;;;;;;4.84E+16;4.85E+15;4.85E+15;4.85E+15;4.85E+15;4.85E+15;4.85E+15;4.85E+15;1.34E+16;['p', 'u', 'l', 'o', 'p', 'backspace', 'backspace'];0;pulp;C:\Users\Experimental User\Desktop\experiment\data/010100_REPSWITCH1_v2022.2.4_2023-07-17_16h27.34.455_micResp_recorded\recording_micResp_2023-07-17_16h35.35.314.wav;None;;;;;;;[1.2207011003047228, 1.4605962000787258, 1.7165944995358586, 1.9885973995551467, 2.228595199994743, 2.693320400081575, 2.837041400372982, 2.9805770004168153];;;;;;10100;1;2023-07-17_16h27.34.455;REPSWITCH1_v2022.2.4;202224;1.44E+16;
REPSWITCH1/PICTURE_728.png;pulpo;type;darkblue;repeat;1;T;4;Stim8_Set4;96;95;0;95;95;95;;4.92E+15;;;;;;;;;;;;;;;;;;;;;;;4.88E+15;4.89E+15;4.89E+15;4.89E+15;4.89E+15;4.89E+15;4.89E+15;4.89E+15;1.31E+15;['p', 'u', 'l', 'p', 'o'];0;pulpo;C:\Users\Experimental User\Desktop\experiment\data/010100_REPSWITCH1_v2022.2.4_2023-07-17_16h27.34.455_micResp_recorded\recording_micResp_2023-07-17_16h35.39.975.wav;space;;;;;;;[1.1207105992361903, 1.425242398865521, 1.665684498846531, 1.8403310989961028, 2.0163210993632674];4.93E+16;4.93E+16;7.66E+15;;;10100;1;2023-07-17_16h27.34.455;REPSWITCH1_v2022.2.4;202224;1.44E+16;
REPSWITCH1/PICTURE_128.png;muñeca;speak;gold;nontarget;2;NT;1;Stim4_Set1;97;96;0;96;96;96;;5.74E+15;;;;;;;;;;;;;;;;;;;;;;;5.70E+15;5.71E+15;5.71E+15;5.71E+15;5.71E+15;5.71E+15;5.71E+15;5.71E+15;1.38E+15;None;0;;C:\Users\Experimental User\Desktop\experiment\data/010100_REPSWITCH1_v2022.2.4_2023-07-17_16h27.34.455_micResp_recorded\recording_micResp_2023-07-17_16h37.01.284.wav;None;;;;;;;;;;;;;10100;1;2023-07-17_16h27.34.455;REPSWITCH1_v2022.2.4;202224;1.44E+16;
REPSWITCH1/PICTURE_128.png;muñeca;speak;gold;repeat;2;T;1;Stim4_Set1;98;97;0;97;97;97;;5.78E+15;;;;;;;;;;;;;;;;;;;;;;;5.74E+15;5.75E+15;5.75E+15;5.75E+15;5.75E+15;5.75E+15;5.75E+15;5.75E+15;1.36E+16;None;0;;C:\Users\Experimental User\Desktop\experiment\data/010100_REPSWITCH1_v2022.2.4_2023-07-17_16h27.34.455_micResp_recorded\recording_micResp_2023-07-17_16h37.05.950.wav;None;;;;;;;;;;;;;10100;1;2023-07-17_16h27.34.455;REPSWITCH1_v2022.2.4;202224;1.44E+16;
REPSWITCH1/PICTURE_8.png;pierna;type;darkblue;filler;1;F;1;Stim3_Set4;99;98;0;98;98;98;;5.83E+15;;;;;;;;;;;;;;;;;;;;;;;5.79E+15;5.80E+15;5.80E+15;5.80E+15;5.80E+15;5.80E+15;5.80E+15;5.80E+15;1.16E+16;['p', 'i', 'e', 'r', 'n', 'a'];0;pierna;C:\Users\Experimental User\Desktop\experiment\data/010100_REPSWITCH1_v2022.2.4_2023-07-17_16h27.34.455_micResp_recorded\recording_micResp_2023-07-17_16h37.10.597.wav;None;;;;;;;[0.9146819990128279, 1.1066727992147207, 1.2513821991160512, 1.4113813992589712, 1.5233797989785671, 1.6674234988167882];;;;;;10100;1;2023-07-17_16h27.34.455;REPSWITCH1_v2022.2.4;202224;1.44E+16;
REPSWITCH1/PICTURE_728.png;pulpo;type;darkblue;filler;1;F;1;Stim8_Set4;100;99;0;99;99;99;;5.88E+15;;;;;;;;;;;;;;;;;;;;;;;5.84E+15;5.85E+15;5.85E+15;5.85E+15;5.85E+15;5.85E+15;5.85E+15;5.85E+15;1.43E+15;['p', 'u', 'l', 'p', 'o'];0;pulpo;C:\Users\Experimental User\Desktop\experiment\data/010100_REPSWITCH1_v2022.2.4_2023-07-17_16h27.34.455_micResp_recorded\recording_micResp_2023-07-17_16h37.15.194.wav;None;;;;;;;[0.9409371996298432, 1.1813113000243902, 1.6131965992972255, 1.789656599983573, 1.9175812993198633];;;;;;10100;1;2023-07-17_16h27.34.455;REPSWITCH1_v2022.2.4;202224;1.44E+16;
REPSWITCH1/PICTURE_135.png;traje;speak;gold;nontarget;2;NT;1;Stim3_Set1;101;100;0;100;100;100;;5.92E+15;;;;;;;;;;;;;;;;;;;;;;;5.88E+15;5.89E+15;5.89E+15;5.89E+15;5.89E+15;5.89E+15;5.89E+15;5.89E+15;1.26E+16;None;0;;C:\Users\Experimental User\Desktop\experiment\data/010100_REPSWITCH1_v2022.2.4_2023-07-17_16h27.34.455_micResp_recorded\recording_micResp_2023-07-17_16h37.19.813.wav;None;;;;;;;;;;;;;10100;1;2023-07-17_16h27.34.455;REPSWITCH1_v2022.2.4;202224;1.44E+16;
REPSWITCH1/PICTURE_135.png;traje;speak;gold;repeat;2;T;1;Stim3_Set1;102;101;0;101;101;101;;5.97E+15;;;;;;;;;;;;;;;;;;;;;;;5.93E+14;5.94E+15;5.94E+15;5.94E+15;5.94E+15;5.94E+15;5.94E+15;5.94E+15;1.25E+16;None;0;;C:\Users\Experimental User\Desktop\experiment\data/010100_REPSWITCH1_v2022.2.4_2023-07-17_16h27.34.455_micResp_recorded\recording_micResp_2023-07-17_16h37.24.432.wav;None;;;;;;;;;;;;;10100;1;2023-07-17_16h27.34.455;REPSWITCH1_v2022.2.4;202224;1.44E+16;
REPSWITCH1/PICTURE_16.png;cazador;speak;gold;nontarget;2;NT;1;Stim6_Set1;103;102;0;102;102;102;;6.01E+15;;;;;;;;;;;;;;;;;;;;;;;5.97E+15;5.98E+14;5.98E+14;5.98E+14;5.98E+14;5.98E+14;5.98E+14;5.98E+14;1.51E+16;None;0;;C:\Users\Experimental User\Desktop\experiment\data/010100_REPSWITCH1_v2022.2.4_2023-07-17_16h27.34.455_micResp_recorded\recording_micResp_2023-07-17_16h37.29.022.wav;None;;;;;;;;;;;;;10100;1;2023-07-17_16h27.34.455;REPSWITCH1_v2022.2.4;202224;1.44E+16;
REPSWITCH1/PICTURE_16.png;cazador;type;darkblue;switch;1;T;1;Stim6_Set1;104;103;0;103;103;103;;6.06E+15;;;;;;;;;;;;;;;;;;;;;;6.07E+14;6.02E+15;6.03E+15;6.03E+15;6.03E+15;6.03E+15;6.03E+15;6.03E+15;6.03E+15;1.58E+16;['c', 'a', 'x', 'a', 'd', 'o', 'r'];0;caxador;C:\Users\Experimental User\Desktop\experiment\data/010100_REPSWITCH1_v2022.2.4_2023-07-17_16h27.34.455_micResp_recorded\recording_micResp_2023-07-17_16h37.33.603.wav;None;6.06E+15;6.06E+15;6.06E+15;6.06E+15;6.06E+15;6.06E+15;[0.8790526995435357, 1.15107879973948, 1.4550490994006395, 1.6638020994141698, 2.303173399530351, 2.39913069922477, 2.527152099646628];;;;;;10100;1;2023-07-17_16h27.34.455;REPSWITCH1_v2022.2.4;202224;1.44E+16;
REPSWITCH1/PICTURE_498.png;taza;speak;gold;filler;2;F;1;Stim4_Set4;105;104;0;104;104;104;;6.11E+15;;;;;;;;;;;;;;;;;;;;;;;6.07E+14;6.08E+15;6.08E+15;6.08E+15;6.08E+15;6.08E+15;6.08E+15;6.08E+15;1.27E+16;None;0;;C:\Users\Experimental User\Desktop\experiment\data/010100_REPSWITCH1_v2022.2.4_2023-07-17_16h27.34.455_micResp_recorded\recording_micResp_2023-07-17_16h37.38.190.wav;None;6.11E+15;6.11E+15;6.11E+15;6.11E+15;6.11E+15;6.11E+15;;;;;;;10100;1;2023-07-17_16h27.34.455;REPSWITCH1_v2022.2.4;202224;1.44E+16;
REPSWITCH1/PICTURE_142.png;vaso;type;darkblue;nontarget;1;NT;1;Stim2_Set1;106;105;0;105;105;105;;6.15E+15;;;;;;;;;;;;;;;;;;;;;;;6.11E+15;6.12E+15;6.12E+15;6.12E+15;6.12E+15;6.12E+15;6.12E+15;6.12E+15;1.29E+16;['v', 'a', 's', 'o'];0;vaso;C:\Users\Experimental User\Desktop\experiment\data/010100_REPSWITCH1_v2022.2.4_2023-07-17_16h27.34.455_micResp_recorded\recording_micResp_2023-07-17_16h37.42.843.wav;None;;;;;;;[0.9240929000079632, 1.1320596998557448, 1.292090899311006, 1.3560977997258306];;;;;;10100;1;2023-07-17_16h27.34.455;REPSWITCH1_v2022.2.4;202224;1.44E+16;
REPSWITCH1/PICTURE_142.png;vaso;speak;gold;switch;2;T;1;Stim2_Set1;107;106;0;106;106;106;;6.20E+15;;;;;;;;;;;;;;;;;;;;;;6.21E+15;6.16E+15;6.17E+15;6.17E+15;6.17E+15;6.17E+15;6.17E+15;6.17E+15;6.17E+15;1.22E+16;None;0;;C:\Users\Experimental User\Desktop\experiment\data/010100_REPSWITCH1_v2022.2.4_2023-07-17_16h27.34.455_micResp_recorded\recording_micResp_2023-07-17_16h37.47.570.wav;None;6.20E+15;6.20E+15;6.20E+15;6.20E+15;6.20E+15;6.20E+15;;;;;;;10100;1;2023-07-17_16h27.34.455;REPSWITCH1_v2022.2.4;202224;1.44E+16;
REPSWITCH1/PICTURE_178.png;puente;speak;gold;nontarget;2;NT;1;Stim1_Set1;108;107;0;107;107;107;;6.25E+15;;;;;;;;;;;;;;;;;;;;;;;6.21E+15;6.22E+15;6.22E+15;6.22E+15;6.22E+15;6.22E+15;6.22E+15;6.22E+15;1.34E+16;None;0;;C:\Users\Experimental User\Desktop\experiment\data/010100_REPSWITCH1_v2022.2.4_2023-07-17_16h27.34.455_micResp_recorded\recording_micResp_2023-07-17_16h37.52.122.wav;None;;;;;;;;;;;;;10100;1;2023-07-17_16h27.34.455;REPSWITCH1_v2022.2.4;202224;1.44E+16;
REPSWITCH1/PICTURE_178.png;puente;type;darkblue;switch;1;T;1;Stim1_Set1;109;108;0;108;108;108;;6.29E+15;;;;;;;;;;;;;;;;;;;;;;;6.25E+15;6.26E+14;6.26E+14;6.26E+14;6.26E+14;6.26E+14;6.26E+14;6.26E+14;1.32E+14;['p', 'u', 'e', 'n', 't', 'e'];0;puente;C:\Users\Experimental User\Desktop\experiment\data/010100_REPSWITCH1_v2022.2.4_2023-07-17_16h27.34.455_micResp_recorded\recording_micResp_2023-07-17_16h37.56.778.wav;None;6.29E+15;6.29E+15;6.29E+15;6.29E+15;6.29E+15;6.29E+15;[1.4154268996790051, 1.718835199251771, 1.8794171996414661, 1.9753305995836854, 2.1026728991419077, 2.262638899497688];;;;;;10100;1;2023-07-17_16h27.34.455;REPSWITCH1_v2022.2.4;202224;1.44E+16;
REPSWITCH1/PICTURE_719.png;baño;speak;gold;filler;2;F;1;Stim2_Set4;110;109;0;109;109;109;;6.34E+15;;;;;;;;;;;;;;;;;;;;;;;6.30E+14;6.31E+15;6.31E+15;6.31E+15;6.31E+15;6.31E+15;6.31E+15;6.31E+15;1.61E+16;None;0;;C:\Users\Experimental User\Desktop\experiment\data/010100_REPSWITCH1_v2022.2.4_2023-07-17_16h27.34.455_micResp_recorded\recording_micResp_2023-07-17_16h38.01.417.wav;None;;;;;;;;;;;;;10100;1;2023-07-17_16h27.34.455;REPSWITCH1_v2022.2.4;202224;1.44E+16;
REPSWITCH1/PICTURE_169.png;espalda;type;darkblue;nontarget;1;NT;1;Stim8_Set1;111;110;0;110;110;110;;6.39E+15;;;;;;;;;;;;;;;;;;;;;;6.39E+15;6.34E+15;6.35E+15;6.35E+15;6.35E+15;6.35E+15;6.35E+15;6.35E+15;6.35E+15;1.31E+16;['e', 's', 'p', 'a', 'l', 'a', 'backspace', 'd', 'a'];0;espalda;C:\Users\Experimental User\Desktop\experiment\data/010100_REPSWITCH1_v2022.2.4_2023-07-17_16h27.34.455_micResp_recorded\recording_micResp_2023-07-17_16h38.06.043.wav;None;6.39E+15;6.39E+15;6.39E+15;6.39E+15;6.39E+15;6.39E+15;[1.1098361993208528, 1.2858343990519643, 1.3818093994632363, 1.4777973992750049, 1.6058279993012547, 1.6858431994915009, 2.1026145992800593, 2.198675399646163, 2.3576635997742414];;;;;;10100;1;2023-07-17_16h27.34.455;REPSWITCH1_v2022.2.4;202224;1.44E+16;
REPSWITCH1/PICTURE_169.png;espalda;type;darkblue;repeat;1;T;1;Stim8_Set1;112;111;0;111;111;111;;6.43E+15;;;;;;;;;;;;;;;;;;;;;;;6.39E+15;6.40E+15;6.40E+15;6.40E+15;6.40E+15;6.40E+15;6.40E+15;6.40E+15;1.26E+16;['e', 'l', 'p', 'a', 'l', 'd', 'a'];0;elpalda;C:\Users\Experimental User\Desktop\experiment\data/010100_REPSWITCH1_v2022.2.4_2023-07-17_16h27.34.455_micResp_recorded\recording_micResp_2023-07-17_16h38.10.680.wav;None;;;;;;;[0.799291399307549, 0.8954816991463304, 1.0717400992289186, 1.2477356987074018, 1.7757931994274259, 1.9033391987904906, 2.0473006991669536];;;;;;10100;1;2023-07-17_16h27.34.455;REPSWITCH1_v2022.2.4;202224;1.44E+16;
REPSWITCH1/PICTURE_48.png;bombero;speak;gold;filler;2;F;1;Stim7_Set4;113;112;0;112;112;112;;6.48E+15;;;;;;;;;;;;;;;;;;;;;;;6.44E+15;6.45E+15;6.45E+15;6.45E+15;6.45E+15;6.45E+15;6.45E+15;6.45E+15;1.40E+16;None;0;;C:\Users\Experimental User\Desktop\experiment\data/010100_REPSWITCH1_v2022.2.4_2023-07-17_16h27.34.455_micResp_recorded\recording_micResp_2023-07-17_16h38.15.348.wav;None;;;;;;;;;;;;;10100;1;2023-07-17_16h27.34.455;REPSWITCH1_v2022.2.4;202224;1.44E+16;
REPSWITCH1/PICTURE_19.png;pavo;type;darkblue;nontarget;1;NT;1;Stim5_Set1;114;113;0;113;113;113;;6.52E+15;;;;;;;;;;;;;;;;;;;;;;6.53E+15;6.48E+15;6.49E+15;6.49E+15;6.49E+15;6.49E+15;6.49E+15;6.49E+15;6.49E+15;1.68E+16;['a', 'backspace', 'a', 'backspace', 'p', 'a', 'v', 'o'];0;pavo;C:\Users\Experimental User\Desktop\experiment\data/010100_REPSWITCH1_v2022.2.4_2023-07-17_16h27.34.455_micResp_recorded\recording_micResp_2023-07-17_16h38.19.921.wav;None;6.52E+15;6.52E+15;6.52E+15;6.52E+15;6.52E+15;6.52E+15;[1.0891717988997698, 1.4413969991728663, 1.7130283992737532, 2.1292000990360975, 2.593074799515307, 2.6742686992511153, 2.8654898991808295, 2.8814692990854383];;;;;;10100;1;2023-07-17_16h27.34.455;REPSWITCH1_v2022.2.4;202224;1.44E+16;
REPSWITCH1/PICTURE_19.png;pavo;type;darkblue;repeat;1;T;1;Stim5_Set1;115;114;0;114;114;114;;6.57E+15;;;;;;;;;;;;;;;;;;;;;;6.57E+15;6.53E+15;6.54E+15;6.54E+15;6.54E+15;6.54E+15;6.54E+15;6.54E+15;6.54E+15;1.67E+16;['p', 'a', 'v', 'o'];0;pavo;C:\Users\Experimental User\Desktop\experiment\data/010100_REPSWITCH1_v2022.2.4_2023-07-17_16h27.34.455_micResp_recorded\recording_micResp_2023-07-17_16h38.24.511.wav;None;6.57E+15;6.57E+15;6.57E+15;6.57E+15;6.57E+15;6.57E+15;[0.8668681001290679, 0.9941720003262162, 1.218172200024128, 1.3141713002696633];;;;;;10100;1;2023-07-17_16h27.34.455;REPSWITCH1_v2022.2.4;202224;1.44E+16;
REPSWITCH1/PICTURE_319.png;vaca;type;darkblue;filler;1;F;1;Stim1_Set4;116;115;0;115;115;115;;6.62E+15;;;;;;;;;;;;;;;;;;;;;;;6.57E+15;6.59E+15;6.59E+15;6.59E+15;6.59E+15;6.59E+15;6.59E+15;6.59E+15;1.24E+16;['v', 'a', 'c', 'a'];0;vaca;C:\Users\Experimental User\Desktop\experiment\data/010100_REPSWITCH1_v2022.2.4_2023-07-17_16h27.34.455_micResp_recorded\recording_micResp_2023-07-17_16h38.29.133.wav;None;6.62E+15;6.62E+15;6.62E+15;6.62E+15;6.62E+15;6.62E+15;[0.9620607001706958, 1.1540074003860354, 1.3616864997893572, 1.5216717002913356];;;;;;10100;1;2023-07-17_16h27.34.455;REPSWITCH1_v2022.2.4;202224;1.44E+16;
REPSWITCH1/PICTURE_338.png;regalo;speak;gold;filler;2;F;1;Stim6_Set4;117;116;0;116;116;116;;6.66E+15;;;;;;;;;;;;;;;;;;;;;;6.67E+15;6.62E+15;6.63E+15;6.63E+15;6.63E+15;6.63E+15;6.63E+15;6.63E+15;6.63E+15;1.40E+15;None;0;;C:\Users\Experimental User\Desktop\experiment\data/010100_REPSWITCH1_v2022.2.4_2023-07-17_16h27.34.455_micResp_recorded\recording_micResp_2023-07-17_16h38.33.742.wav;None;6.66E+15;6.66E+15;6.66E+15;6.66E+15;6.66E+15;6.66E+15;;;;;;;10100;1;2023-07-17_16h27.34.455;REPSWITCH1_v2022.2.4;202224;1.44E+16;
REPSWITCH1/PICTURE_142.png;vaso;type;darkblue;nontarget;1;NT;1;Stim7_Set1;118;117;0;117;117;117;;6.71E+15;;;;;;;;;;;;;;;;;;;;;;;6.67E+15;6.68E+15;6.68E+15;6.68E+15;6.68E+15;6.68E+15;6.68E+15;6.68E+15;1.31E+16;['v', 'a', 's', 'o'];0;vaso;C:\Users\Experimental User\Desktop\experiment\data/010100_REPSWITCH1_v2022.2.4_2023-07-17_16h27.34.455_micResp_recorded\recording_micResp_2023-07-17_16h38.38.307.wav;None;6.71E+15;6.71E+15;6.71E+15;6.71E+15;6.71E+15;6.71E+15;[0.8432925995439291, 1.0678782993927598, 1.2277536997571588, 1.3238820992410183];;;;;;10100;1;2023-07-17_16h27.34.455;REPSWITCH1_v2022.2.4;202224;1.44E+16;
REPSWITCH1/PICTURE_142.png;vaso;speak;gold;switch;2;T;1;Stim7_Set1;119;118;0;118;118;118;;6.75E+15;;;;;;;;;;;;;;;;;;;;;;6.76E+15;6.71E+14;6.72E+15;6.72E+15;6.72E+15;6.72E+15;6.72E+15;6.72E+15;6.72E+15;1.23E+15;None;0;;C:\Users\Experimental User\Desktop\experiment\data/010100_REPSWITCH1_v2022.2.4_2023-07-17_16h27.34.455_micResp_recorded\recording_micResp_2023-07-17_16h38.42.923.wav;None;6.75E+15;6.75E+15;6.75E+15;6.75E+15;6.75E+15;6.75E+15;;;;;;;10100;1;2023-07-17_16h27.34.455;REPSWITCH1_v2022.2.4;202224;1.44E+16;
REPSWITCH1/PICTURE_687.png;camisa;type;darkblue;filler;1;F;1;Stim5_Set4;120;119;0;119;119;119;;6.80E+15;;;;;;;;;;;;;;;;;;;;;;6.81E+15;6.76E+15;6.77E+15;6.77E+15;6.77E+15;6.77E+15;6.77E+15;6.77E+15;6.77E+15;1.26E+16;['c', 'a', 'i', 'backspace', 'm', 'i', 's', 'a'];0;camisa;C:\Users\Experimental User\Desktop\experiment\data/010100_REPSWITCH1_v2022.2.4_2023-07-17_16h27.34.455_micResp_recorded\recording_micResp_2023-07-17_16h38.47.555.wav;None;6.80E+15;6.80E+15;6.80E+15;6.80E+15;6.80E+15;6.80E+15;[1.00592349935323, 1.197936199605465, 1.4539353996515274, 1.7418799996376038, 1.9499074993655086, 2.045908799394965, 2.1898727994412184, 2.3338417997583747];;;;;;10100;1;2023-07-17_16h27.34.455;REPSWITCH1_v2022.2.4;202224;1.44E+16;
REPSWITCH1/PICTURE_30.png;granja;type;darkblue;nontarget;1;NT;2;Stim5_Set2;121;120;0;120;120;120;;6.85E+15;;;;;;;;;;;;;;;;;;;;;;;6.81E+15;6.82E+15;6.82E+15;6.82E+15;6.82E+15;6.82E+15;6.82E+15;6.82E+15;1.97E+16;['g', 'r', 'a', 'n', 'j', 'a'];0;granja;C:\Users\Experimental User\Desktop\experiment\data/010100_REPSWITCH1_v2022.2.4_2023-07-17_16h27.34.455_micResp_recorded\recording_micResp_2023-07-17_16h38.52.115.wav;None;6.85E+15;6.85E+15;6.85E+15;6.85E+15;6.85E+15;6.85E+15;[0.9884601002559066, 1.1481542997062206, 1.340603600256145, 1.4525976004078984, 1.788692300207913, 1.883916700258851];;;;;;10100;1;2023-07-17_16h27.34.455;REPSWITCH1_v2022.2.4;202224;1.44E+16;
REPSWITCH1/PICTURE_30.png;granja;type;darkblue;repeat;1;T;2;Stim5_Set2;122;121;0;121;121;121;;6.89E+15;;;;;;;;;;;;;;;;;;;;;;;6.85E+15;6.86E+14;6.86E+14;6.86E+14;6.86E+14;6.86E+14;6.86E+14;6.86E+14;1.94E+16;['g', 'r', 'a', 'n', 'backspace', 'n', 'backspace', 'n'];0;gran;C:\Users\Experimental User\Desktop\experiment\data/010100_REPSWITCH1_v2022.2.4_2023-07-17_16h27.34.455_micResp_recorded\recording_micResp_2023-07-17_16h38.56.671.wav;None;6.89E+15;6.89E+15;6.89E+15;6.89E+15;6.89E+15;6.89E+15;[0.8804497988894582, 1.056441099382937, 1.24991209898144, 1.328460599295795, 1.8245965987443924, 2.2886371994391084, 2.6082575991749763, 2.9602533988654613];;;;;;10100;1;2023-07-17_16h27.34.455;REPSWITCH1_v2022.2.4;202224;1.44E+16;
REPSWITCH1/PICTURE_128.png;muñeca;speak;gold;filler;2;F;2;Stim4_Set1;123;122;0;122;122;122;;6.94E+15;;;;;;;;;;;;;;;;;;;;;;;6.90E+15;6.91E+15;6.91E+15;6.91E+15;6.91E+15;6.91E+15;6.91E+15;6.91E+15;1.38E+16;None;0;;C:\Users\Experimental User\Desktop\experiment\data/010100_REPSWITCH1_v2022.2.4_2023-07-17_16h27.34.455_micResp_recorded\recording_micResp_2023-07-17_16h39.01.353.wav;None;;;;;;;;;;;;;10100;1;2023-07-17_16h27.34.455;REPSWITCH1_v2022.2.4;202224;1.44E+16;
REPSWITCH1/PICTURE_264.png;mano;type;darkblue;nontarget;1;NT;2;Stim3_Set2;124;123;0;123;123;123;;6.98E+15;;;;;;;;;;;;;;;;;;;;;;6.99E+15;6.94E+15;6.95E+15;6.95E+15;6.95E+15;6.95E+15;6.95E+15;6.95E+15;6.95E+15;1.40E+16;['m', 'a', 'n', 'o'];0;mano;C:\Users\Experimental User\Desktop\experiment\data/010100_REPSWITCH1_v2022.2.4_2023-07-17_16h27.34.455_micResp_recorded\recording_micResp_2023-07-17_16h39.05.946.wav;None;6.98E+15;6.98E+15;6.98E+15;6.98E+15;6.98E+15;6.98E+15;[1.2875030990689993, 1.4475906994193792, 1.5435333997011185, 1.9109489992260933];;;;;;10100;1;2023-07-17_16h27.34.455;REPSWITCH1_v2022.2.4;202224;1.44E+16;
REPSWITCH1/PICTURE_264.png;mano;type;darkblue;repeat;1;T;2;Stim3_Set2;125;124;0;124;124;124;;7.03E+15;;;;;;;;;;;;;;;;;;;;;;;6.99E+15;7.00E+15;7.00E+15;7.00E+15;7.00E+15;7.00E+15;7.00E+15;7.00E+15;1.37E+15;['m', 'a', 'n', 'o'];0;mano;C:\Users\Experimental User\Desktop\experiment\data/010100_REPSWITCH1_v2022.2.4_2023-07-17_16h27.34.455_micResp_recorded\recording_micResp_2023-07-17_16h39.10.567.wav;None;7.03E+15;7.03E+15;7.03E+15;7.03E+15;7.03E+15;7.03E+15;[0.85491699911654, 0.9828696986660361, 1.0468642991036177, 1.1428691986948252];;;;;;10100;1;2023-07-17_16h27.34.455;REPSWITCH1_v2022.2.4;202224;1.44E+16;
REPSWITCH1/PICTURE_175.png;pintor;type;darkblue;nontarget;1;NT;2;Stim1_Set2;126;125;0;125;125;125;;7.08E+15;;;;;;;;;;;;;;;;;;;;;;7.08E+15;7.04E+15;7.05E+15;7.05E+15;7.05E+15;7.05E+15;7.05E+15;7.05E+15;7.05E+15;1.39E+16;['p', 'i', 'n', 't', 'o', 'r'];0;pintor;C:\Users\Experimental User\Desktop\experiment\data/010100_REPSWITCH1_v2022.2.4_2023-07-17_16h27.34.455_micResp_recorded\recording_micResp_2023-07-17_16h39.15.170.wav;None;7.08E+15;7.08E+15;7.08E+15;7.08E+15;7.08E+15;7.08E+15;[1.0238270992413163, 1.2485092990100384, 1.359727798961103, 1.5199112994596362, 1.6168692987412214, 1.96808709949255];;;;;;10100;1;2023-07-17_16h27.34.455;REPSWITCH1_v2022.2.4;202224;1.44E+16;
REPSWITCH1/PICTURE_175.png;pintor;speak;gold;switch;2;T;2;Stim1_Set2;127;126;0;126;126;126;;7.12E+15;;;;;;;;;;;;;;;;;;;;;;;7.08E+15;7.09E+13;7.09E+13;7.09E+13;7.09E+13;7.09E+13;7.09E+13;7.09E+13;1.37E+16;None;0;;C:\Users\Experimental User\Desktop\experiment\data/010100_REPSWITCH1_v2022.2.4_2023-07-17_16h27.34.455_micResp_recorded\recording_micResp_2023-07-17_16h39.19.841.wav;None;;;;;;;;;;;;;10100;1;2023-07-17_16h27.34.455;REPSWITCH1_v2022.2.4;202224;1.44E+16;
REPSWITCH1/PICTURE_135.png;traje;speak;gold;filler;2;F;2;Stim3_Set1;128;127;0;127;127;127;;7.17E+15;;;;;;;;;;;;;;;;;;;;;;;7.13E+14;7.14E+15;7.14E+15;7.14E+15;7.14E+15;7.14E+15;7.14E+15;7.14E+15;1.26E+15;None;0;;C:\Users\Experimental User\Desktop\experiment\data/010100_REPSWITCH1_v2022.2.4_2023-07-17_16h27.34.455_micResp_recorded\recording_micResp_2023-07-17_16h39.24.508.wav;None;;;;;;;;;;;;;10100;1;2023-07-17_16h27.34.455;REPSWITCH1_v2022.2.4;202224;1.44E+16;
REPSWITCH1/PICTURE_446.png;cerdo;speak;gold;nontarget;2;NT;2;Stim7_Set2;129;128;0;128;128;128;;7.22E+15;;;;;;;;;;;;;;;;;;;;;;;7.17E+12;7.19E+15;7.19E+15;7.19E+15;7.19E+15;7.19E+15;7.19E+15;7.19E+15;1.37E+16;None;0;;C:\Users\Experimental User\Desktop\experiment\data/010100_REPSWITCH1_v2022.2.4_2023-07-17_16h27.34.455_micResp_recorded\recording_micResp_2023-07-17_16h39.29.112.wav;None;;;;;;;;;;;;;10100;1;2023-07-17_16h27.34.455;REPSWITCH1_v2022.2.4;202224;1.44E+16;
REPSWITCH1/PICTURE_446.png;cerdo;type;darkblue;switch;1;T;2;Stim7_Set2;130;129;0;129;129;129;;7.26E+15;;;;;;;;;;;;;;;;;;;;;;7.27E+15;7.22E+15;7.23E+15;7.23E+15;7.23E+15;7.23E+15;7.23E+15;7.23E+15;7.23E+15;1.38E+15;['c', 'e', 'r', 'd', 'o'];0;cerdo;C:\Users\Experimental User\Desktop\experiment\data/010100_REPSWITCH1_v2022.2.4_2023-07-17_16h27.34.455_micResp_recorded\recording_micResp_2023-07-17_16h39.33.741.wav;None;7.26E+15;7.26E+15;7.26E+15;7.26E+15;7.26E+15;7.26E+15;[0.9640328995883465, 1.1560188997536898, 1.3159868996590376, 1.459990699775517, 1.5239808997139335];;;;;;10100;1;2023-07-17_16h27.34.455;REPSWITCH1_v2022.2.4;202224;1.44E+16;
REPSWITCH1/PICTURE_152.png;caracol;type;darkblue;nontarget;1;NT;2;Stim2_Set2;131;130;0;130;130;130;;7.31E+15;;;;;;;;;;;;;;;;;;;;;;;7.27E+15;7.28E+15;7.28E+15;7.28E+15;7.28E+15;7.28E+15;7.28E+15;7.28E+15;1.54E+15;['c', 'a', 'r', 'a', 'c', 'o', 'l'];0;caracol;C:\Users\Experimental User\Desktop\experiment\data/010100_REPSWITCH1_v2022.2.4_2023-07-17_16h27.34.455_micResp_recorded\recording_micResp_2023-07-17_16h39.38.469.wav;None;;;;;;;[0.9322478994727135, 1.1717647993937135, 1.39527059905231, 1.555601299740374, 1.7478922996670008, 1.8278893996030092, 1.971451299265027];;;;;;10100;1;2023-07-17_16h27.34.455;REPSWITCH1_v2022.2.4;202224;1.44E+16;
REPSWITCH1/PICTURE_152.png;caracol;speak;gold;switch;2;T;2;Stim2_Set2;132;131;0;131;131;131;;7.35E+15;;;;;;;;;;;;;;;;;;;;;;7.36E+15;7.31E+15;7.32E+15;7.32E+15;7.32E+15;7.32E+15;7.32E+15;7.32E+15;7.32E+15;1.52E+15;None;0;;C:\Users\Experimental User\Desktop\experiment\data/010100_REPSWITCH1_v2022.2.4_2023-07-17_16h27.34.455_micResp_recorded\recording_micResp_2023-07-17_16h39.43.020.wav;None;7.35E+15;7.35E+15;7.35E+15;7.35E+15;7.35E+15;7.35E+15;;;;;;;10100;1;2023-07-17_16h27.34.455;REPSWITCH1_v2022.2.4;202224;1.44E+16;
REPSWITCH1/PICTURE_16.png;cazador;type;darkblue;filler;1;F;2;Stim6_Set1;133;132;0;132;132;132;;7.40E+15;;;;;;;;;;;;;;;;;;;;;;;7.36E+15;7.37E+15;7.37E+15;7.37E+15;7.37E+15;7.37E+15;7.37E+15;7.37E+15;1.49E+16;['c', 'a', 'z', 'a', 'd', 'o', 'r'];0;cazador;C:\Users\Experimental User\Desktop\experiment\data/010100_REPSWITCH1_v2022.2.4_2023-07-17_16h27.34.455_micResp_recorded\recording_micResp_2023-07-17_16h39.47.601.wav;None;;;;;;;[0.9034115998074412, 1.1428578002378345, 1.3668432999402285, 1.5268489001318812, 1.7824489995837212, 1.9741952000185847, 2.1511913994327188];;;;;;10100;1;2023-07-17_16h27.34.455;REPSWITCH1_v2022.2.4;202224;1.44E+16;
REPSWITCH1/PICTURE_142.png;vaso;type;darkblue;filler;1;F;2;Stim2_Set1;134;133;0;133;133;133;;7.45E+15;;;;;;;;;;;;;;;;;;;;;;7.45E+15;7.41E+15;7.42E+15;7.42E+15;7.42E+15;7.42E+15;7.42E+15;7.42E+15;7.42E+15;1.22E+15;['v', 'a', 's', 'o'];0;vaso;C:\Users\Experimental User\Desktop\experiment\data/010100_REPSWITCH1_v2022.2.4_2023-07-17_16h27.34.455_micResp_recorded\recording_micResp_2023-07-17_16h39.52.251.wav;None;7.45E+15;7.45E+15;7.45E+15;7.45E+15;7.45E+15;7.45E+15;[0.9195909993723035, 1.1276714988052845, 1.3033351991325617, 1.3835334992036223];;;;;;10100;1;2023-07-17_16h27.34.455;REPSWITCH1_v2022.2.4;202224;1.44E+16;
REPSWITCH1/PICTURE_517.png;cuerda;speak;gold;nontarget;2;NT;2;Stim4_Set2;135;134;0;134;134;134;;7.49E+15;;;;;;;;;;;;;;;;;;;;;;;7.45E+15;7.46E+15;7.46E+15;7.46E+15;7.46E+15;7.46E+15;7.46E+15;7.46E+15;1.41E+16;None;0;;C:\Users\Experimental User\Desktop\experiment\data/010100_REPSWITCH1_v2022.2.4_2023-07-17_16h27.34.455_micResp_recorded\recording_micResp_2023-07-17_16h39.56.783.wav;None;7.49E+15;7.49E+15;7.49E+15;7.49E+15;7.49E+15;7.49E+15;;;;;;;10100;1;2023-07-17_16h27.34.455;REPSWITCH1_v2022.2.4;202224;1.44E+16;
REPSWITCH1/PICTURE_517.png;cuerda;speak;gold;repeat;2;T;2;Stim4_Set2;136;135;0;135;135;135;;7.54E+15;;;;;;;;;;;;;;;;;;;;;;;7.50E+15;7.51E+15;7.51E+15;7.51E+15;7.51E+15;7.51E+15;7.51E+15;7.51E+15;1.42E+16;None;0;;C:\Users\Experimental User\Desktop\experiment\data/010100_REPSWITCH1_v2022.2.4_2023-07-17_16h27.34.455_micResp_recorded\recording_micResp_2023-07-17_16h40.01.422.wav;None;;;;;;;;;;;;;10100;1;2023-07-17_16h27.34.455;REPSWITCH1_v2022.2.4;202224;1.44E+16;
REPSWITCH1/PICTURE_178.png;puente;type;darkblue;filler;1;F;2;Stim1_Set1;137;136;0;136;136;136;;7.58E+15;;;;;;;;;;;;;;;;;;;;;;7.59E+15;7.54E+15;7.55E+15;7.55E+15;7.55E+15;7.55E+15;7.55E+15;7.55E+15;7.55E+15;1.32E+15;['p', 'u', 'n', 't', 'e'];0;punte;C:\Users\Experimental User\Desktop\experiment\data/010100_REPSWITCH1_v2022.2.4_2023-07-17_16h27.34.455_micResp_recorded\recording_micResp_2023-07-17_16h40.06.016.wav;None;7.58E+15;7.58E+15;7.58E+15;7.58E+15;7.58E+15;7.58E+15;[0.8981515998020768, 1.1059293998405337, 1.233924999833107, 1.3789045996963978, 1.537911699153483];;;;;;10100;1;2023-07-17_16h27.34.455;REPSWITCH1_v2022.2.4;202224;1.44E+16;
REPSWITCH1/PICTURE_199.png;falda;speak;gold;nontarget;2;NT;2;Stim8_Set2;138;137;0;137;137;137;;7.63E+15;;;;;;;;;;;;;;;;;;;;;;;7.59E+15;7.60E+15;7.60E+15;7.60E+15;7.60E+15;7.60E+15;7.60E+15;7.60E+15;1.44E+15;None;0;;C:\Users\Experimental User\Desktop\experiment\data/010100_REPSWITCH1_v2022.2.4_2023-07-17_16h27.34.455_micResp_recorded\recording_micResp_2023-07-17_16h40.10.693.wav;None;;;;;;;;;;;;;10100;1;2023-07-17_16h27.34.455;REPSWITCH1_v2022.2.4;202224;1.44E+16;
REPSWITCH1/PICTURE_199.png;falda;speak;gold;repeat;2;T;2;Stim8_Set2;139;138;0;138;138;138;;7.68E+15;;;;;;;;;;;;;;;;;;;;;;7.68E+15;7.64E+15;7.65E+15;7.65E+15;7.65E+15;7.65E+15;7.65E+15;7.65E+15;7.65E+15;1.37E+16;None;0;;C:\Users\Experimental User\Desktop\experiment\data/010100_REPSWITCH1_v2022.2.4_2023-07-17_16h27.34.455_micResp_recorded\recording_micResp_2023-07-17_16h40.15.357.wav;None;7.68E+15;7.68E+15;7.68E+15;7.68E+15;7.68E+15;7.68E+15;;;;;;;10100;1;2023-07-17_16h27.34.455;REPSWITCH1_v2022.2.4;202224;1.44E+16;
REPSWITCH1/PICTURE_169.png;espalda;speak;gold;filler;2;F;2;Stim8_Set1;140;139;0;139;139;139;;7.72E+15;;;;;;;;;;;;;;;;;;;;;;;7.68E+15;7.69E+15;7.69E+15;7.69E+15;7.69E+15;7.69E+15;7.69E+15;7.69E+15;1.22E+16;['e', 's', 'p', 'a', 'l', 'd', 'a'];0;espalda;C:\Users\Experimental User\Desktop\experiment\data/010100_REPSWITCH1_v2022.2.4_2023-07-17_16h27.34.455_micResp_recorded\recording_micResp_2023-07-17_16h40.20.001.wav;None;;;;;;;[0.9993818989023566, 1.622384799644351, 1.7839905992150307, 1.8949778992682695, 2.007009998895228, 2.374819199554622, 2.534818299114704];;;;;;10100;1;2023-07-17_16h27.34.455;REPSWITCH1_v2022.2.4;202224;1.44E+16;
REPSWITCH1/PICTURE_19.png;pavo;type;darkblue;filler;1;F;2;Stim5_Set1;141;140;0;140;140;140;;7.77E+15;;;;;;;;;;;;;;;;;;;;;;7.78E+15;7.73E+15;7.74E+15;7.74E+15;7.74E+15;7.74E+15;7.74E+15;7.74E+15;7.74E+15;1.76E+16;['p', 'a', 'v', 'o'];0;pavo;C:\Users\Experimental User\Desktop\experiment\data/010100_REPSWITCH1_v2022.2.4_2023-07-17_16h27.34.455_micResp_recorded\recording_micResp_2023-07-17_16h40.24.678.wav;None;7.77E+15;7.77E+15;7.77E+15;7.77E+15;7.77E+15;7.77E+15;[0.9083779994398355, 0.9886004002764821, 1.259680399671197, 1.371676200069487];;;;;;10100;1;2023-07-17_16h27.34.455;REPSWITCH1_v2022.2.4;202224;1.44E+16;
REPSWITCH1/PICTURE_142.png;vaso;speak;gold;filler;2;F;2;Stim7_Set1;142;141;0;141;141;141;;7.82E+14;;;;;;;;;;;;;;;;;;;;;;;7.78E+15;7.79E+14;7.79E+14;7.79E+14;7.79E+14;7.79E+14;7.79E+14;7.79E+14;1.25E+16;None;0;;C:\Users\Experimental User\Desktop\experiment\data/010100_REPSWITCH1_v2022.2.4_2023-07-17_16h27.34.455_micResp_recorded\recording_micResp_2023-07-17_16h40.29.265.wav;None;;;;;;;;;;;;;10100;1;2023-07-17_16h27.34.455;REPSWITCH1_v2022.2.4;202224;1.44E+16;
REPSWITCH1/PICTURE_552.png;manzana;speak;gold;nontarget;2;NT;2;Stim6_Set2;143;142;0;142;142;142;;7.86E+15;;;;;;;;;;;;;;;;;;;;;;7.87E+15;7.82E+15;7.83E+15;7.83E+15;7.83E+15;7.83E+15;7.83E+15;7.83E+15;7.83E+15;1.50E+16;None;0;;C:\Users\Experimental User\Desktop\experiment\data/010100_REPSWITCH1_v2022.2.4_2023-07-17_16h27.34.455_micResp_recorded\recording_micResp_2023-07-17_16h40.33.887.wav;None;7.86E+15;7.86E+15;7.86E+15;7.86E+15;7.86E+15;7.86E+15;;;;;;;10100;1;2023-07-17_16h27.34.455;REPSWITCH1_v2022.2.4;202224;1.44E+16;
REPSWITCH1/PICTURE_552.png;manzana;type;darkblue;switch;1;T;2;Stim6_Set2;144;143;0;143;143;143;;7.91E+15;;;;;;;;;;;;;;;;;;;;;;7.91E+14;7.87E+15;7.88E+15;7.88E+15;7.88E+15;7.88E+15;7.88E+15;7.88E+15;7.88E+15;1.48E+16;['m', 'a', 'n', 'z', 'a', 'n', 'a'];0;manzana;C:\Users\Experimental User\Desktop\experiment\data/010100_REPSWITCH1_v2022.2.4_2023-07-17_16h27.34.455_micResp_recorded\recording_micResp_2023-07-17_16h40.38.513.wav;None;7.91E+15;7.91E+15;7.91E+15;7.91E+15;7.91E+15;7.91E+15;[0.9450004994869232, 1.056988699361682, 1.1529793990775943, 1.2649781992658973, 1.4251083992421627, 1.5848669996485114, 1.6487880991771817];;;;;;10100;1;2023-07-17_16h27.34.455;REPSWITCH1_v2022.2.4;202224;1.44E+16;
REPSWITCH1/PICTURE_30.png;granja;speak;gold;filler;2;F;3;Stim5_Set2;145;144;0;144;144;144;;7.96E+15;;;;;;;;;;;;;;;;;;;;;;7.96E+15;7.91E+14;7.93E+15;7.93E+15;7.93E+15;7.93E+15;7.93E+15;7.93E+15;7.93E+15;1.95E+16;None;0;;C:\Users\Experimental User\Desktop\experiment\data/010100_REPSWITCH1_v2022.2.4_2023-07-17_16h27.34.455_micResp_recorded\recording_micResp_2023-07-17_16h40.43.097.wav;None;7.96E+15;7.96E+15;7.96E+15;7.96E+15;7.96E+15;7.96E+15;;;;;;;10100;1;2023-07-17_16h27.34.455;REPSWITCH1_v2022.2.4;202224;1.44E+16;
REPSWITCH1/PICTURE_464.png;goma;type;darkblue;nontarget;1;NT;3;Stim6_Set3;146;145;0;145;145;145;;8.00E+15;;;;;;;;;;;;;;;;;;;;;;;7.96E+15;7.97E+15;7.97E+15;7.97E+15;7.97E+15;7.97E+15;7.97E+15;7.97E+15;1.19E+16;['g', 'o', 'm', 'a'];0;goma;C:\Users\Experimental User\Desktop\experiment\data/010100_REPSWITCH1_v2022.2.4_2023-07-17_16h27.34.455_micResp_recorded\recording_micResp_2023-07-17_16h40.47.649.wav;None;8.00E+15;8.00E+15;8.00E+15;8.00E+15;8.00E+15;8.00E+15;[1.3427527993917465, 1.4697183994576335, 1.533713499084115, 1.6617351993918419];;;;;;10100;1;2023-07-17_16h27.34.455;REPSWITCH1_v2022.2.4;202224;1.44E+16;
REPSWITCH1/PICTURE_464.png;goma;speak;gold;switch;2;T;3;Stim6_Set3;147;146;0;146;146;146;;8.05E+15;;;;;;;;;;;;;;;;;;;;;;;8.01E+15;8.02E+15;8.02E+15;8.02E+15;8.02E+15;8.02E+15;8.02E+15;8.02E+15;1.25E+15;None;0;;C:\Users\Experimental User\Desktop\experiment\data/010100_REPSWITCH1_v2022.2.4_2023-07-17_16h27.34.455_micResp_recorded\recording_micResp_2023-07-17_16h40.52.337.wav;None;;;;;;;;;;;;;10100;1;2023-07-17_16h27.34.455;REPSWITCH1_v2022.2.4;202224;1.44E+16;
REPSWITCH1/PICTURE_264.png;mano;speak;gold;filler;2;F;3;Stim3_Set2;148;147;0;147;147;147;;8.09E+15;;;;;;;;;;;;;;;;;;;;;;;8.05E+14;8.06E+15;8.06E+15;8.06E+15;8.06E+15;8.06E+15;8.06E+15;8.06E+15;1.41E+16;None;0;;C:\Users\Experimental User\Desktop\experiment\data/010100_REPSWITCH1_v2022.2.4_2023-07-17_16h27.34.455_micResp_recorded\recording_micResp_2023-07-17_16h40.57.019.wav;None;;;;;;;;;;;;;10100;1;2023-07-17_16h27.34.455;REPSWITCH1_v2022.2.4;202224;1.44E+16;
REPSWITCH1/PICTURE_235.png;aguja;speak;gold;nontarget;2;NT;3;Stim4_Set3;149;148;0;148;148;148;;8.14E+14;;;;;;;;;;;;;;;;;;;;;;;8.10E+15;8.11E+15;8.11E+15;8.11E+15;8.11E+15;8.11E+15;8.11E+15;8.11E+15;1.23E+16;None;0;;C:\Users\Experimental User\Desktop\experiment\data/010100_REPSWITCH1_v2022.2.4_2023-07-17_16h27.34.455_micResp_recorded\recording_micResp_2023-07-17_16h41.01.609.wav;None;;;;;;;;;;;;;10100;1;2023-07-17_16h27.34.455;REPSWITCH1_v2022.2.4;202224;1.44E+16;
REPSWITCH1/PICTURE_235.png;aguja;type;darkblue;switch;1;T;3;Stim4_Set3;150;149;0;149;149;149;;8.19E+15;;;;;;;;;;;;;;;;;;;;;;8.19E+15;8.15E+15;8.16E+15;8.16E+15;8.16E+15;8.16E+15;8.16E+15;8.16E+15;8.16E+15;1.23E+16;['a', 'g', 'u', 'j', 'a'];0;aguja;C:\Users\Experimental User\Desktop\experiment\data/010100_REPSWITCH1_v2022.2.4_2023-07-17_16h27.34.455_micResp_recorded\recording_micResp_2023-07-17_16h41.06.295.wav;None;8.19E+15;8.19E+15;8.19E+15;8.19E+15;8.19E+15;8.19E+15;[1.0521737998351455, 1.5164067996665835, 1.7077936995774508, 2.0445278994739056, 2.268407599069178];;;;;;10100;1;2023-07-17_16h27.34.455;REPSWITCH1_v2022.2.4;202224;1.44E+16;
REPSWITCH1/PICTURE_320.png;iglesia;type;darkblue;nontarget;1;NT;3;Stim8_Set3;151;150;0;150;150;150;;8.23E+15;;;;;;;;;;;;;;;;;;;;;;8.24E+14;8.19E+15;8.20E+15;8.20E+15;8.20E+15;8.20E+15;8.20E+15;8.20E+15;8.20E+15;1.52E+16;['i', 'g', 'l', 'e', 's', 'i', 'a'];0;iglesia;C:\Users\Experimental User\Desktop\experiment\data/010100_REPSWITCH1_v2022.2.4_2023-07-17_16h27.34.455_micResp_recorded\recording_micResp_2023-07-17_16h41.10.871.wav;None;8.23E+15;8.23E+15;8.23E+15;8.23E+15;8.23E+15;8.23E+15;[1.1471536997705698, 1.4668032992631197, 1.563744899816811, 1.7388172997161746, 1.9150095991790295, 1.9790114993229508, 2.0750652998685837];;;;;;10100;1;2023-07-17_16h27.34.455;REPSWITCH1_v2022.2.4;202224;1.44E+16;
REPSWITCH1/PICTURE_320.png;iglesia;speak;gold;switch;2;T;3;Stim8_Set3;152;151;0;151;151;151;;8.28E+15;;;;;;;;;;;;;;;;;;;;;;;8.24E+14;8.25E+14;8.25E+14;8.25E+14;8.25E+14;8.25E+14;8.25E+14;8.25E+14;1.54E+16;None;0;;C:\Users\Experimental User\Desktop\experiment\data/010100_REPSWITCH1_v2022.2.4_2023-07-17_16h27.34.455_micResp_recorded\recording_micResp_2023-07-17_16h41.15.493.wav;None;;;;;;;;;;;;;10100;1;2023-07-17_16h27.34.455;REPSWITCH1_v2022.2.4;202224;1.44E+16;
REPSWITCH1/PICTURE_175.png;pintor;type;darkblue;filler;1;F;3;Stim1_Set2;153;152;0;152;152;152;;8.33E+15;;;;;;;;;;;;;;;;;;;;;;8.33E+14;8.28E+15;8.30E+15;8.30E+15;8.30E+15;8.30E+15;8.30E+15;8.30E+15;8.30E+15;1.41E+16;['p', 'i', 'n', 't', 'o', 'r'];0;pintor;C:\Users\Experimental User\Desktop\experiment\data/010100_REPSWITCH1_v2022.2.4_2023-07-17_16h27.34.455_micResp_recorded\recording_micResp_2023-07-17_16h41.20.059.wav;None;8.33E+15;8.33E+15;8.33E+15;8.33E+15;8.33E+15;8.33E+15;[1.3183651994913816, 1.5420413995161653, 1.638553999364376, 1.7824075995013118, 1.894676499068737, 1.9747324995696545];;;;;;10100;1;2023-07-17_16h27.34.455;REPSWITCH1_v2022.2.4;202224;1.44E+16;
REPSWITCH1/PICTURE_271.png;conejo;speak;gold;nontarget;2;NT;3;Stim7_Set3;154;153;0;153;153;153;;8.37E+15;;;;;;;;;;;;;;;;;;;;;;;8.33E+14;8.34E+14;8.34E+14;8.34E+14;8.34E+14;8.34E+14;8.34E+14;8.34E+14;1.61E+15;None;0;;C:\Users\Experimental User\Desktop\experiment\data/010100_REPSWITCH1_v2022.2.4_2023-07-17_16h27.34.455_micResp_recorded\recording_micResp_2023-07-17_16h41.24.647.wav;None;8.37E+15;8.37E+15;8.37E+15;8.37E+15;8.37E+15;8.37E+15;;;;;;;10100;1;2023-07-17_16h27.34.455;REPSWITCH1_v2022.2.4;202224;1.44E+16;
REPSWITCH1/PICTURE_271.png;conejo;speak;gold;repeat;2;T;3;Stim7_Set3;155;154;0;154;154;154;;8.42E+15;;;;;;;;;;;;;;;;;;;;;;;8.38E+15;8.39E+15;8.39E+15;8.39E+15;8.39E+15;8.39E+15;8.39E+15;8.39E+15;1.63E+16;None;0;;C:\Users\Experimental User\Desktop\experiment\data/010100_REPSWITCH1_v2022.2.4_2023-07-17_16h27.34.455_micResp_recorded\recording_micResp_2023-07-17_16h41.29.224.wav;None;8.42E+15;8.42E+15;8.42E+15;8.42E+15;8.42E+15;8.42E+15;;;;;;;10100;1;2023-07-17_16h27.34.455;REPSWITCH1_v2022.2.4;202224;1.44E+16;
REPSWITCH1/PICTURE_446.png;cerdo;type;darkblue;filler;1;F;3;Stim7_Set2;156;155;0;155;155;155;;8.46E+15;;;;;;;;;;;;;;;;;;;;;;8.47E+15;8.42E+15;8.43E+15;8.43E+15;8.43E+15;8.43E+15;8.43E+15;8.43E+15;8.43E+15;1.40E+16;['v', 'backspace', 'c', 'e', 'r', 'd', 'o'];0;cerdo;C:\Users\Experimental User\Desktop\experiment\data/010100_REPSWITCH1_v2022.2.4_2023-07-17_16h27.34.455_micResp_recorded\recording_micResp_2023-07-17_16h41.33.908.wav;None;8.46E+15;8.46E+15;8.46E+15;8.46E+15;8.46E+15;8.46E+15;[1.1014934992417693, 1.6457853997126222, 1.7733556991443038, 1.9498116988688707, 2.079180099070072, 2.237736599519849, 2.3172280993312597];;;;;;10100;1;2023-07-17_16h27.34.455;REPSWITCH1_v2022.2.4;202224;1.44E+16;
REPSWITCH1/PICTURE_152.png;caracol;type;darkblue;filler;1;F;3;Stim2_Set2;157;156;0;156;156;156;;8.51E+15;;;;;;;;;;;;;;;;;;;;;;;8.47E+15;8.48E+14;8.48E+14;8.48E+14;8.48E+14;8.48E+14;8.48E+14;8.48E+14;1.50E+15;['c', 'a', 'r', 'a', 'c', 'o', 'l'];0;caracol;C:\Users\Experimental User\Desktop\experiment\data/010100_REPSWITCH1_v2022.2.4_2023-07-17_16h27.34.455_micResp_recorded\recording_micResp_2023-07-17_16h41.38.496.wav;None;8.51E+15;8.51E+15;8.51E+15;8.51E+15;8.51E+15;8.51E+15;[0.8957428997382522, 1.0874557998031378, 1.311452099122107, 1.471879999153316, 1.6478167995810509, 1.7598114991560578, 1.8881663996726274];;;;;;10100;1;2023-07-17_16h27.34.455;REPSWITCH1_v2022.2.4;202224;1.44E+16;
REPSWITCH1/PICTURE_576.png;guante;speak;gold;nontarget;2;NT;3;Stim1_Set3;158;157;0;157;157;157;;8.56E+15;;;;;;;;;;;;;;;;;;;;;;8.56E+15;8.51E+15;8.53E+15;8.53E+15;8.53E+15;8.53E+15;8.53E+15;8.53E+15;8.53E+15;1.30E+16;None;0;;C:\Users\Experimental User\Desktop\experiment\data/010100_REPSWITCH1_v2022.2.4_2023-07-17_16h27.34.455_micResp_recorded\recording_micResp_2023-07-17_16h41.43.201.wav;None;8.56E+15;8.56E+15;8.56E+15;8.56E+15;8.56E+15;8.56E+15;;;;;;;10100;1;2023-07-17_16h27.34.455;REPSWITCH1_v2022.2.4;202224;1.44E+16;
REPSWITCH1/PICTURE_576.png;guante;speak;gold;repeat;2;T;3;Stim1_Set3;159;158;0;158;158;158;;8.60E+15;;;;;;;;;;;;;;;;;;;;;;;8.56E+15;8.57E+15;8.57E+15;8.57E+15;8.57E+15;8.57E+15;8.57E+15;8.57E+15;1.32E+16;None;0;;C:\Users\Experimental User\Desktop\experiment\data/010100_REPSWITCH1_v2022.2.4_2023-07-17_16h27.34.455_micResp_recorded\recording_micResp_2023-07-17_16h41.47.788.wav;None;8.60E+15;8.60E+15;8.60E+15;8.60E+15;8.60E+15;8.60E+15;;;;;;;10100;1;2023-07-17_16h27.34.455;REPSWITCH1_v2022.2.4;202224;1.44E+16;
REPSWITCH1/PICTURE_242.png;cartero;speak;gold;nontarget;2;NT;3;Stim3_Set3;160;159;0;159;159;159;;8.65E+15;;;;;;;;;;;;;;;;;;;;;;;8.61E+15;8.62E+15;8.62E+15;8.62E+15;8.62E+15;8.62E+15;8.62E+15;8.62E+15;1.34E+16;None;0;;C:\Users\Experimental User\Desktop\experiment\data/010100_REPSWITCH1_v2022.2.4_2023-07-17_16h27.34.455_micResp_recorded\recording_micResp_2023-07-17_16h41.52.365.wav;None;;;;;;;;;;;;;10100;1;2023-07-17_16h27.34.455;REPSWITCH1_v2022.2.4;202224;1.44E+16;
REPSWITCH1/PICTURE_242.png;cartero;type;darkblue;switch;1;T;3;Stim3_Set3;161;160;0;160;160;160;;8.70E+14;;;;;;;;;;;;;;;;;;;;;;8.70E+15;8.65E+15;8.67E+14;8.67E+14;8.67E+14;8.67E+14;8.67E+14;8.67E+14;8.67E+14;1.39E+16;['c', 'a', 'r', 't', 'e', 'r', 'o'];0;cartero;C:\Users\Experimental User\Desktop\experiment\data/010100_REPSWITCH1_v2022.2.4_2023-07-17_16h27.34.455_micResp_recorded\recording_micResp_2023-07-17_16h41.57.084.wav;None;8.70E+14;8.70E+14;8.70E+14;8.70E+14;8.70E+14;8.70E+14;[0.8856735993176699, 1.0936750993132591, 1.3329370990395546, 1.4930283995345235, 1.6529270997270942, 1.813273198902607, 1.877587298862636];;;;;;10100;1;2023-07-17_16h27.34.455;REPSWITCH1_v2022.2.4;202224;1.44E+16;
REPSWITCH1/PICTURE_517.png;cuerda;speak;gold;filler;2;F;3;Stim4_Set2;162;161;0;161;161;161;;8.74E+14;;;;;;;;;;;;;;;;;;;;;;;8.70E+15;8.71E+15;8.71E+15;8.71E+15;8.71E+15;8.71E+15;8.71E+15;8.71E+15;1.45E+16;None;0;;C:\Users\Experimental User\Desktop\experiment\data/010100_REPSWITCH1_v2022.2.4_2023-07-17_16h27.34.455_micResp_recorded\recording_micResp_2023-07-17_16h42.01.693.wav;None;;;;;;;;;;;;;10100;1;2023-07-17_16h27.34.455;REPSWITCH1_v2022.2.4;202224;1.44E+16;
REPSWITCH1/PICTURE_35.png;oreja;type;darkblue;nontarget;1;NT;3;Stim5_Set3;163;162;0;162;162;162;;8.79E+15;;;;;;;;;;;;;;;;;;;;;;8.79E+15;8.75E+15;8.76E+15;8.76E+15;8.76E+15;8.76E+15;8.76E+15;8.76E+15;8.76E+15;1.35E+16;['o', 'r', 'e', 'j', 'a'];0;oreja;C:\Users\Experimental User\Desktop\experiment\data/010100_REPSWITCH1_v2022.2.4_2023-07-17_16h27.34.455_micResp_recorded\recording_micResp_2023-07-17_16h42.06.307.wav;None;8.79E+15;8.79E+15;8.79E+15;8.79E+15;8.79E+15;8.79E+15;[1.3901394996792078, 1.5021428996697068, 1.6461348002776504, 1.8540989002212882, 1.9661328997462988];;;;;;10100;1;2023-07-17_16h27.34.455;REPSWITCH1_v2022.2.4;202224;1.44E+16;
REPSWITCH1/PICTURE_35.png;oreja;type;darkblue;repeat;1;T;3;Stim5_Set3;164;163;0;163;163;163;;8.83E+15;;;;;;;;;;;;;;;;;;;;;;8.84E+15;8.79E+15;8.80E+15;8.80E+15;8.80E+15;8.80E+15;8.80E+15;8.80E+15;8.80E+15;1.34E+16;['i', 'backspace', 'o', 'r', 'e', 'j', 'a'];0;oreja;C:\Users\Experimental User\Desktop\experiment\data/010100_REPSWITCH1_v2022.2.4_2023-07-17_16h27.34.455_micResp_recorded\recording_micResp_2023-07-17_16h42.11.016.wav;None;8.83E+15;8.83E+15;8.83E+15;8.83E+15;8.83E+15;8.83E+15;[0.9847430000081658, 1.288863799534738, 1.4809515001252294, 1.5768657997250557, 1.7208615997806191, 2.1368626998737454, 2.2328972993418574];;;;;;10100;1;2023-07-17_16h27.34.455;REPSWITCH1_v2022.2.4;202224;1.44E+16;
REPSWITCH1/PICTURE_199.png;falda;speak;gold;filler;2;F;3;Stim8_Set2;165;164;0;164;164;164;;8.88E+15;;;;;;;;;;;;;;;;;;;;;;;8.84E+15;8.85E+15;8.85E+15;8.85E+15;8.85E+15;8.85E+15;8.85E+15;8.85E+15;1.51E+15;None;0;;C:\Users\Experimental User\Desktop\experiment\data/010100_REPSWITCH1_v2022.2.4_2023-07-17_16h27.34.455_micResp_recorded\recording_micResp_2023-07-17_16h42.15.652.wav;None;8.88E+15;8.88E+15;8.88E+15;8.88E+15;8.88E+15;8.88E+15;;;;;;;10100;1;2023-07-17_16h27.34.455;REPSWITCH1_v2022.2.4;202224;1.44E+16;
REPSWITCH1/PICTURE_610.png;miel;type;darkblue;nontarget;1;NT;3;Stim2_Set3;166;165;0;165;165;165;;8.93E+15;;;;;;;;;;;;;;;;;;;;;;8.93E+15;8.89E+15;8.90E+15;8.90E+15;8.90E+15;8.90E+15;8.90E+15;8.90E+15;8.90E+15;1.40E+16;['m', 'i', 'e', 'l'];0;miel;C:\Users\Experimental User\Desktop\experiment\data/010100_REPSWITCH1_v2022.2.4_2023-07-17_16h27.34.455_micResp_recorded\recording_micResp_2023-07-17_16h42.20.302.wav;None;8.93E+15;8.93E+15;8.93E+15;8.93E+15;8.93E+15;8.93E+15;[1.0592565992847085, 1.2189539996907115, 1.347833899781108, 1.4598856000229716];;;;;;10100;1;2023-07-17_16h27.34.455;REPSWITCH1_v2022.2.4;202224;1.44E+16;
REPSWITCH1/PICTURE_610.png;miel;type;darkblue;repeat;1;T;3;Stim2_Set3;167;166;0;166;166;166;;8.97E+15;;;;;;;;;;;;;;;;;;;;;;;8.93E+15;8.94E+15;8.94E+15;8.94E+15;8.94E+15;8.94E+15;8.94E+15;8.94E+15;1.37E+16;['m', 'i', 'e', 'l'];0;miel;C:\Users\Experimental User\Desktop\experiment\data/010100_REPSWITCH1_v2022.2.4_2023-07-17_16h27.34.455_micResp_recorded\recording_micResp_2023-07-17_16h42.24.925.wav;None;;;;;;;[1.083616099320352, 1.2105366988107562, 1.3225085996091366, 1.4185090996325016];;;;;;10100;1;2023-07-17_16h27.34.455;REPSWITCH1_v2022.2.4;202224;1.44E+16;
REPSWITCH1/PICTURE_552.png;manzana;type;darkblue;filler;1;F;3;Stim6_Set2;168;167;0;167;167;167;;9.02E+15;;;;;;;;;;;;;;;;;;;;;;9.03E+15;8.98E+14;8.99E+15;8.99E+15;8.99E+15;8.99E+15;8.99E+15;8.99E+15;8.99E+15;1.50E+16;['m', 'a', 'n', 'z', 'a', 'n', 'a'];0;manzana;C:\Users\Experimental User\Desktop\experiment\data/010100_REPSWITCH1_v2022.2.4_2023-07-17_16h27.34.455_micResp_recorded\recording_micResp_2023-07-17_16h42.29.595.wav;None;9.02E+15;9.02E+15;9.02E+15;9.02E+15;9.02E+15;9.02E+15;[0.9666713001206517, 1.078948799520731, 1.1901813000440598, 1.3198902001604438, 1.494893199764192, 1.6062626000493765, 1.6702629998326302];;;;;;10100;1;2023-07-17_16h27.34.455;REPSWITCH1_v2022.2.4;202224;1.44E+16;
REPSWITCH1/PICTURE_464.png;goma;speak;gold;filler;2;F;4;Stim6_Set3;169;168;0;168;168;168;;9.07E+15;;;;;;;;;;;;;;;;;;;;;;;9.03E+15;9.04E+15;9.04E+15;9.04E+15;9.04E+15;9.04E+15;9.04E+15;9.04E+15;1.29E+16;None;0;;C:\Users\Experimental User\Desktop\experiment\data/010100_REPSWITCH1_v2022.2.4_2023-07-17_16h27.34.455_micResp_recorded\recording_micResp_2023-07-17_16h42.34.218.wav;None;;;;;;;;;;;;;10100;1;2023-07-17_16h27.34.455;REPSWITCH1_v2022.2.4;202224;1.44E+16;
REPSWITCH1/PICTURE_8.png;pierna;type;darkblue;nontarget;1;NT;4;Stim3_Set4;170;169;0;169;169;169;;9.11E+15;;;;;;;;;;;;;;;;;;;;;;9.12E+15;9.07E+14;9.08E+15;9.08E+15;9.08E+15;9.08E+15;9.08E+15;9.08E+15;9.08E+15;1.15E+16;['p', 'i', 'e', 'r', 'n', 'a'];0;pierna;C:\Users\Experimental User\Desktop\experiment\data/010100_REPSWITCH1_v2022.2.4_2023-07-17_16h27.34.455_micResp_recorded\recording_micResp_2023-07-17_16h42.38.880.wav;None;9.11E+15;9.11E+15;9.11E+15;9.11E+15;9.11E+15;9.11E+15;[0.8971710996702313, 1.1051663998514414, 1.2491657994687557, 1.4091275995597243, 1.5211667995899916, 1.6651615994051099];;;;;;10100;1;2023-07-17_16h27.34.455;REPSWITCH1_v2022.2.4;202224;1.44E+16;
REPSWITCH1/PICTURE_8.png;pierna;type;darkblue;repeat;1;T;4;Stim3_Set4;171;170;0;170;170;170;;9.16E+15;;;;;;;;;;;;;;;;;;;;;;;9.12E+15;9.13E+15;9.13E+15;9.13E+15;9.13E+15;9.13E+15;9.13E+15;9.13E+15;1.17E+16;['p', 'i', 'e', 'r', 'n', 'a'];0;pierna;C:\Users\Experimental User\Desktop\experiment\data/010100_REPSWITCH1_v2022.2.4_2023-07-17_16h27.34.455_micResp_recorded\recording_micResp_2023-07-17_16h42.43.475.wav;None;9.16E+15;9.16E+15;9.16E+15;9.16E+15;9.16E+15;9.16E+15;[0.7960628997534513, 0.9720205990597606, 1.0996470991522074, 1.2438664995133877, 1.3078649993985891, 1.4681393997743726];;;;;;10100;1;2023-07-17_16h27.34.455;REPSWITCH1_v2022.2.4;202224;1.44E+16;
REPSWITCH1/PICTURE_728.png;pulpo;type;darkblue;nontarget;1;NT;4;Stim8_Set4;172;171;0;171;171;171;;9.21E+14;;;;;;;;;;;;;;;;;;;;;;;9.16E+15;9.17E+15;9.17E+15;9.17E+15;9.17E+15;9.17E+15;9.17E+15;9.17E+15;1.31E+16;['p', 'u', 'l', 'p', 'o'];0;pulpo;C:\Users\Experimental User\Desktop\experiment\data/010100_REPSWITCH1_v2022.2.4_2023-07-17_16h27.34.455_micResp_recorded\recording_micResp_2023-07-17_16h42.48.032.wav;None;;;;;;;[0.792574998922646, 0.9997206991538405, 1.2237218990921974, 1.4957180991768837, 1.6557166995480657];;;;;;10100;1;2023-07-17_16h27.34.455;REPSWITCH1_v2022.2.4;202224;1.44E+16;
REPSWITCH1/PICTURE_728.png;pulpo;speak;gold;switch;2;T;4;Stim8_Set4;173;172;0;172;172;172;;9.25E+15;;;;;;;;;;;;;;;;;;;;;;;9.21E+15;9.22E+15;9.22E+15;9.22E+15;9.22E+15;9.22E+15;9.22E+15;9.22E+15;1.30E+16;None;0;;C:\Users\Experimental User\Desktop\experiment\data/010100_REPSWITCH1_v2022.2.4_2023-07-17_16h27.34.455_micResp_recorded\recording_micResp_2023-07-17_16h42.52.713.wav;None;;;;;;;;;;;;;10100;1;2023-07-17_16h27.34.455;REPSWITCH1_v2022.2.4;202224;1.44E+16;
