image;correctAns;respModal;frameColor;repSwitch;sequence;target;set;block;list;exp_version;stimulus;baseline;baseline_condition;trial_no;psychopy_trial;Column1;trialsREPSWITCH.thisRepN;trialsREPSWITCH.thisTrialN;trialsREPSWITCH.thisN;trialsREPSWITCH.thisIndex;textWelcome.started;textboxInstrMain1.started;textboxInstrMain1_2.started;textboxInstrMain1_3.started;keyInstrMain.started;keyInstrMain.keys;keyInstrMain.rt;textboxInstrMain2.started;textboxInstrMain2_2.started;textboxInstrMain2_3.started;textboxInstrMain2_4.started;textboxInstrMain2_5.started;textboxInstrMain2_6.started;textboxInstrMain2_7.started;textboxInstrMain2_8.started;textboxInstrMain2_9.started;textboxInstrMain2_10.started;textboxInstrMain2_11.started;textboxInstrMain2_12.started;keyInstrMain2.started;keyInstrMain2.keys;keyInstrMain2.rt;fixationITI.started;fixationITI.stopped;polygonColour.started;polygonWhite.started;imageObject.started;polygonType.started;textInput.started;keyResp.started;micRespv2l2.started;keyResp.keys;keyResp.corr;subjResponse;micRespv2l2.clip;textBlankLoop.started;textBlankLoop.stopped;keyPause.keys;polygonColour.stopped;polygonWhite.stopped;imageObject.stopped;polygonType.stopped;textInput.stopped;keyResp.stopped;keyResp.rt;textboxPause.started;keyPause.started;keyPause.rt;textboxGoodbye.started;textboxGoodbye.stopped;participant;session;date;expName;psychopyVersion;frameRate;Column2
;;;;;;;;;;;;;;;;;;;;;8.29650849988684;10.789308200124651;10.789308200124651;10.789308200124651;10.789308200124651;space;11.063059600070119;;;;;;;;;;;;;;;;;;;;;;;;;;;;;;;;;;;;;;;;;;;;280202;001;2023-12-04_18h16.18.981;REPSWITCH1_version2_list2;2022.2.4;143.8906896822052;
;;;;;;;;;;;;;;;;;;;;;;;;;;;;21.867124800104648;21.867124800104648;21.867124800104648;21.867124800104648;21.867124800104648;21.867124800104648;21.867124800104648;21.867124800104648;21.867124800104648;21.867124800104648;21.867124800104648;21.867124800104648;21.867124800104648;space;7.454309800174087;;;;;;;;;;;;;;;;;;;;;;;;;;;;;280202;001;2023-12-04_18h16.18.981;REPSWITCH1_version2_list2;2022.2.4;143.8906896822052;
REPSWITCH1/PICTURE_646.png;tronco;speak;darkblue;filler;2;F;1;3;2;2;Extra4;0;None;1;0;1;0;0;0;0;;;;;;;;;;;;;;;;;;;;;;;29.416757700033486;30.500287500210106;30.500287500210106;30.500287500210106;30.500287500210106;30.500287500210106;30.500287500210106;30.500287500210106;30.500287500210106;None;0;;C:\2023\REPSWITCH21092023\REPSWITCH_excgange\REPSWITCH_excgange\data/280202_REPSWITCH1_version2_list2_2023-12-04_18h16.18.981_micRespv2l2_recorded\recording_micRespv2l2_2023-12-04_18h16.45.962.wav;33.52146970015019;34.02152949990705;None;;;;;;;;;;;;;280202;001;2023-12-04_18h16.18.981;REPSWITCH1_version2_list2;2022.2.4;143.8906896822052;
REPSWITCH1/PICTURE_340.png;espejo;type;gold;filler;1;F;1;3;2;2;Extra1;0;None;2;1;2;0;1;1;1;;;;;;;;;;;;;;;;;;;;;;;34.02152949990705;35.05639970023185;35.05639970023185;35.05639970023185;35.05639970023185;35.05639970023185;35.05639970023185;35.05639970023185;35.05639970023185;['e', 'e', 'k', 'backspace', 'backspace', 's', 'p', 'e', 'k'];0;espek;C:\2023\REPSWITCH21092023\REPSWITCH_excgange\REPSWITCH_excgange\data/280202_REPSWITCH1_version2_list2_2023-12-04_18h16.18.981_micRespv2l2_recorded\recording_micRespv2l2_2023-12-04_18h16.50.521.wav;38.0846028001979;;None;38.0846028001979;38.0846028001979;38.0846028001979;38.0846028001979;38.0846028001979;38.0846028001979;[0.85666360007599, 1.3373819002881646, 1.5148082002997398, 1.8787993001751602, 2.041593400295824, 2.2502628001384437, 2.3796124001964927, 2.7105061998590827, 2.9270498999394476];;;;;;280202;001;2023-12-04_18h16.18.981;REPSWITCH1_version2_list2;2022.2.4;143.8906896822052;
REPSWITCH1/PICTURE_338.png;regalo;speak;darkblue;filler;2;F;1;3;2;2;Stim6_Set4;0;None;3;2;3;0;2;2;2;;;;;;;;;;;;;;;;;;;;;;;38.58461900008842;39.765393500216305;39.765393500216305;39.765393500216305;39.765393500216305;39.765393500216305;39.765393500216305;39.765393500216305;39.765393500216305;None;0;;C:\2023\REPSWITCH21092023\REPSWITCH_excgange\REPSWITCH_excgange\data/280202_REPSWITCH1_version2_list2_2023-12-04_18h16.18.981_micRespv2l2_recorded\recording_micRespv2l2_2023-12-04_18h16.55.231.wav;42.7865400002338;43.28670040005818;None;42.7865400002338;42.7865400002338;42.7865400002338;42.7865400002338;42.7865400002338;42.7865400002338;;;;;;;280202;001;2023-12-04_18h16.18.981;REPSWITCH1_version2_list2;2022.2.4;143.8906896822052;
REPSWITCH1/PICTURE_142.png;vaso;speak;darkblue;nontarget;2;NT;1;3;2;2;Stim7_Set1;1;repeat;4;3;4;0;3;3;3;;;;;;;;;;;;;;;;;;;;;;;43.28670040005818;44.3770559001714;44.3770559001714;44.3770559001714;44.3770559001714;44.3770559001714;44.3770559001714;44.3770559001714;44.3770559001714;None;0;;C:\2023\REPSWITCH21092023\REPSWITCH_excgange\REPSWITCH_excgange\data/280202_REPSWITCH1_version2_list2_2023-12-04_18h16.18.981_micRespv2l2_recorded\recording_micRespv2l2_2023-12-04_18h16.59.841.wav;47.39827040024102;47.89834890002385;None;47.39827040024102;47.39827040024102;47.39827040024102;47.39827040024102;47.39827040024102;47.39827040024102;;;;;;;280202;001;2023-12-04_18h16.18.981;REPSWITCH1_version2_list2;2022.2.4;143.8906896822052;
REPSWITCH1/PICTURE_142.png;vaso;speak;darkblue;repeat;2;T;1;3;2;2;Stim7_Set1;0;None;5;4;5;0;4;4;4;;;;;;;;;;;;;;;;;;;;;;;47.89834890002385;48.967918100301176;48.967918100301176;48.967918100301176;48.967918100301176;48.967918100301176;48.967918100301176;48.967918100301176;48.967918100301176;None;0;;C:\2023\REPSWITCH21092023\REPSWITCH_excgange\REPSWITCH_excgange\data/280202_REPSWITCH1_version2_list2_2023-12-04_18h16.18.981_micRespv2l2_recorded\recording_micRespv2l2_2023-12-04_18h17.04.433.wav;51.98917070031166;52.48921769997105;None;51.98917070031166;51.98917070031166;51.98917070031166;51.98917070031166;51.98917070031166;51.98917070031166;;;;;;;280202;001;2023-12-04_18h16.18.981;REPSWITCH1_version2_list2;2022.2.4;143.8906896822052;
REPSWITCH1/PICTURE_498.png;taza;type;gold;filler;1;F;1;3;2;2;Stim4_Set4;0;None;6;5;6;0;5;5;5;;;;;;;;;;;;;;;;;;;;;;;52.48921769997105;53.656030900310725;53.656030900310725;53.656030900310725;53.656030900310725;53.656030900310725;53.656030900310725;53.656030900310725;53.656030900310725;['t', 'a', 'z', 'a'];0;taza;C:\2023\REPSWITCH21092023\REPSWITCH_excgange\REPSWITCH_excgange\data/280202_REPSWITCH1_version2_list2_2023-12-04_18h16.18.981_micRespv2l2_recorded\recording_micRespv2l2_2023-12-04_18h17.09.121.wav;56.67727270023897;57.17734030028805;None;56.67727270023897;56.67727270023897;56.67727270023897;56.67727270023897;56.67727270023897;56.67727270023897;[0.93407760001719, 1.104492800310254, 1.3347385004162788, 1.5436458000913262];;;;;;280202;001;2023-12-04_18h16.18.981;REPSWITCH1_version2_list2;2022.2.4;143.8906896822052;
REPSWITCH1/PICTURE_16.png;cazador;speak;darkblue;nontarget;2;NT;1;3;2;2;Stim6_Set1;1;switch;7;6;7;0;6;6;6;;;;;;;;;;;;;;;;;;;;;;;57.17734030028805;58.35108319995925;58.35108319995925;58.35108319995925;58.35108319995925;58.35108319995925;58.35108319995925;58.35108319995925;58.35108319995925;None;0;;C:\2023\REPSWITCH21092023\REPSWITCH_excgange\REPSWITCH_excgange\data/280202_REPSWITCH1_version2_list2_2023-12-04_18h16.18.981_micRespv2l2_recorded\recording_micRespv2l2_2023-12-04_18h17.13.817.wav;61.37927140016109;;None;61.37927140016109;61.37927140016109;61.37927140016109;61.37927140016109;61.37927140016109;61.37927140016109;;;;;;;280202;001;2023-12-04_18h16.18.981;REPSWITCH1_version2_list2;2022.2.4;143.8906896822052;
REPSWITCH1/PICTURE_16.png;cazador;speak;darkblue;repeat;2;T;1;3;2;2;Stim6_Set1;0;None;8;7;8;0;7;7;7;;;;;;;;;;;;;;;;;;;;;;;61.87934589991346;63.032344200182706;63.032344200182706;63.032344200182706;63.032344200182706;63.032344200182706;63.032344200182706;63.032344200182706;63.032344200182706;None;0;;C:\2023\REPSWITCH21092023\REPSWITCH_excgange\REPSWITCH_excgange\data/280202_REPSWITCH1_version2_list2_2023-12-04_18h16.18.981_micRespv2l2_recorded\recording_micRespv2l2_2023-12-04_18h17.18.497.wav;66.05350390030071;66.55358080007136;None;66.05350390030071;66.05350390030071;66.05350390030071;66.05350390030071;66.05350390030071;66.05350390030071;;;;;;;280202;001;2023-12-04_18h16.18.981;REPSWITCH1_version2_list2;2022.2.4;143.8906896822052;
REPSWITCH1/PICTURE_719.png;baño;type;gold;filler;1;F;1;3;2;2;Stim2_Set4;0;None;9;8;9;0;8;8;8;;;;;;;;;;;;;;;;;;;;;;;66.55358080007136;67.70649150013924;67.70649150013924;67.70649150013924;67.70649150013924;67.70649150013924;67.70649150013924;67.70649150013924;67.70649150013924;['b', 'a', 'ñ', 'o'];0;baño;C:\2023\REPSWITCH21092023\REPSWITCH_excgange\REPSWITCH_excgange\data/280202_REPSWITCH1_version2_list2_2023-12-04_18h16.18.981_micRespv2l2_recorded\recording_micRespv2l2_2023-12-04_18h17.23.172.wav;70.73468740005046;;None;70.73468740005046;70.73468740005046;70.73468740005046;70.73468740005046;70.73468740005046;70.73468740005046;[1.1549724000506103, 1.2805496002547443, 1.5250424002297223, 1.696239700075239];;;;;;280202;001;2023-12-04_18h16.18.981;REPSWITCH1_version2_list2;2022.2.4;143.8906896822052;
REPSWITCH1/PICTURE_169.png;espalda;speak;darkblue;nontarget;2;NT;1;3;2;2;Stim8_Set1;0;None;10;9;10;0;9;9;9;;;;;;;;;;;;;;;;;;;;;;;71.23480390012264;72.33212839998305;72.33212839998305;72.33212839998305;72.33212839998305;72.33212839998305;72.33212839998305;72.33212839998305;72.33212839998305;None;0;;C:\2023\REPSWITCH21092023\REPSWITCH_excgange\REPSWITCH_excgange\data/280202_REPSWITCH1_version2_list2_2023-12-04_18h16.18.981_micRespv2l2_recorded\recording_micRespv2l2_2023-12-04_18h17.27.797.wav;75.36027910001576;;None;75.36027910001576;75.36027910001576;75.36027910001576;75.36027910001576;75.36027910001576;75.36027910001576;;;;;;;280202;001;2023-12-04_18h16.18.981;REPSWITCH1_version2_list2;2022.2.4;143.8906896822052;
REPSWITCH1/PICTURE_169.png;espalda;type;gold;switch;1;T;1;3;2;2;Stim8_Set1;0;None;11;10;11;0;10;10;10;;;;;;;;;;;;;;;;;;;;;;;75.86034899996594;76.91603429988027;76.91603429988027;76.91603429988027;76.91603429988027;76.91603429988027;76.91603429988027;76.91603429988027;76.91603429988027;['e', 's', 'p', 'a', 'l', 'd', 'a'];0;espalda;C:\2023\REPSWITCH21092023\REPSWITCH_excgange\REPSWITCH_excgange\data/280202_REPSWITCH1_version2_list2_2023-12-04_18h16.18.981_micRespv2l2_recorded\recording_micRespv2l2_2023-12-04_18h17.32.381.wav;79.94421530002728;;None;79.94421530002728;79.94421530002728;79.94421530002728;79.94421530002728;79.94421530002728;79.94421530002728;[0.8913371004164219, 1.0629369001835585, 1.1843853001482785, 1.3268697001039982, 1.4812762001529336, 1.7364046005532146, 1.8738187002018094];;;;;;280202;001;2023-12-04_18h16.18.981;REPSWITCH1_version2_list2;2022.2.4;143.8906896822052;
REPSWITCH1/PICTURE_687.png;camisa;type;gold;filler;1;F;1;3;2;2;Stim5_Set4;0;None;12;11;12;0;11;11;11;;;;;;;;;;;;;;;;;;;;;;;80.44436149997637;81.50694830017164;81.50694830017164;81.50694830017164;81.50694830017164;81.50694830017164;81.50694830017164;81.50694830017164;81.50694830017164;['c', 'a', 'm', 's', 'i', 'backspace', 'backspace', 's', 'a'];0;camsa;C:\2023\REPSWITCH21092023\REPSWITCH_excgange\REPSWITCH_excgange\data/280202_REPSWITCH1_version2_list2_2023-12-04_18h16.18.981_micRespv2l2_recorded\recording_micRespv2l2_2023-12-04_18h17.36.972.wav;84.5281604998745;85.02822440024465;None;84.5281604998745;84.5281604998745;84.5281604998745;84.5281604998745;84.5281604998745;84.5281604998745;[0.8864128002896905, 1.050853400491178, 1.1964215002954006, 1.8447897001169622, 1.9344836003147066, 2.247720000334084, 2.376981000415981, 2.6811767001636326, 2.7419771002605557];;;;;;280202;001;2023-12-04_18h16.18.981;REPSWITCH1_version2_list2;2022.2.4;143.8906896822052;
REPSWITCH1/PICTURE_178.png;puente;type;gold;nontarget;1;NT;1;3;2;2;Stim1_Set1;1;repeat;13;12;13;0;12;12;12;;;;;;;;;;;;;;;;;;;;;;;85.02822440024465;86.12562130019069;86.12562130019069;86.12562130019069;86.12562130019069;86.12562130019069;86.12562130019069;86.12562130019069;86.12562130019069;['p', 'u', 'e', 'n', 't', 'e'];0;puente;C:\2023\REPSWITCH21092023\REPSWITCH_excgange\REPSWITCH_excgange\data/280202_REPSWITCH1_version2_list2_2023-12-04_18h16.18.981_micRespv2l2_recorded\recording_micRespv2l2_2023-12-04_18h17.41.591.wav;89.14679849985987;89.64686849992722;None;89.14679849985987;89.14679849985987;89.14679849985987;89.14679849985987;89.14679849985987;89.14679849985987;[0.995505700353533, 1.203698200173676, 1.2964371000416577, 1.3741113003343344, 1.479069100227207, 1.5169406002387404];;;;;;280202;001;2023-12-04_18h16.18.981;REPSWITCH1_version2_list2;2022.2.4;143.8906896822052;
REPSWITCH1/PICTURE_178.png;puente;speak;darkblue;switch;2;T;1;3;2;2;Stim1_Set1;0;None;14;13;14;0;13;13;13;;;;;;;;;;;;;;;;;;;;;;;89.64686849992722;90.7720902999863;90.7720902999863;90.7720902999863;90.7720902999863;90.7720902999863;90.7720902999863;90.7720902999863;90.7720902999863;None;0;;C:\2023\REPSWITCH21092023\REPSWITCH_excgange\REPSWITCH_excgange\data/280202_REPSWITCH1_version2_list2_2023-12-04_18h16.18.981_micRespv2l2_recorded\recording_micRespv2l2_2023-12-04_18h17.46.236.wav;93.79328089999035;94.29332230007276;None;93.79328089999035;93.79328089999035;93.79328089999035;93.79328089999035;93.79328089999035;93.79328089999035;;;;;;;280202;001;2023-12-04_18h16.18.981;REPSWITCH1_version2_list2;2022.2.4;143.8906896822052;
REPSWITCH1/PICTURE_128.png;muñeca;speak;darkblue;nontarget;2;NT;1;3;2;2;Stim4_Set1;1;repeat;15;14;15;0;14;14;14;;;;;;;;;;;;;;;;;;;;;;;94.29332230007276;95.33514850027859;95.33514850027859;95.33514850027859;95.33514850027859;95.33514850027859;95.33514850027859;95.33514850027859;95.33514850027859;None;0;;C:\2023\REPSWITCH21092023\REPSWITCH_excgange\REPSWITCH_excgange\data/280202_REPSWITCH1_version2_list2_2023-12-04_18h16.18.981_micRespv2l2_recorded\recording_micRespv2l2_2023-12-04_18h17.50.800.wav;98.36332410015166;;None;98.36332410015166;98.36332410015166;98.36332410015166;98.36332410015166;98.36332410015166;98.36332410015166;;;;;;;280202;001;2023-12-04_18h16.18.981;REPSWITCH1_version2_list2;2022.2.4;143.8906896822052;
REPSWITCH1/PICTURE_128.png;muñeca;type;gold;switch;1;T;1;3;2;2;Stim4_Set1;0;None;16;15;16;0;15;15;15;;;;;;;;;;;;;;;;;;;;;;;98.86337869986892;100.07188670011237;100.07188670011237;100.07188670011237;100.07188670011237;100.07188670011237;100.07188670011237;100.07188670011237;100.07188670011237;['backspace', 'm', 'u', 'ñ', 'e', 'c', 'a'];0;muñeca;C:\2023\REPSWITCH21092023\REPSWITCH_excgange\REPSWITCH_excgange\data/280202_REPSWITCH1_version2_list2_2023-12-04_18h16.18.981_micRespv2l2_recorded\recording_micRespv2l2_2023-12-04_18h17.55.537.wav;103.09306060010567;103.59316390007734;None;103.09306060010567;103.09306060010567;103.09306060010567;103.09306060010567;103.09306060010567;103.09306060010567;[1.3410840001888573, 1.6872702999971807, 1.8880459000356495, 2.2030819999054074, 2.258885699789971, 2.4273299002088606, 2.5728254998102784];;;;;;280202;001;2023-12-04_18h16.18.981;REPSWITCH1_version2_list2;2022.2.4;143.8906896822052;
REPSWITCH1/PICTURE_319.png;vaca;speak;darkblue;filler;2;F;1;3;2;2;Stim1_Set4;1;switch;17;16;17;0;16;16;16;;;;;;;;;;;;;;;;;;;;;;;103.59316390007734;104.78775010025129;104.78775010025129;104.78775010025129;104.78775010025129;104.78775010025129;104.78775010025129;104.78775010025129;104.78775010025129;None;0;;C:\2023\REPSWITCH21092023\REPSWITCH_excgange\REPSWITCH_excgange\data/280202_REPSWITCH1_version2_list2_2023-12-04_18h16.18.981_micRespv2l2_recorded\recording_micRespv2l2_2023-12-04_18h18.00.253.wav;107.80896029993892;108.30901970015839;None;107.80896029993892;107.80896029993892;107.80896029993892;107.80896029993892;107.80896029993892;107.80896029993892;;;;;;;280202;001;2023-12-04_18h16.18.981;REPSWITCH1_version2_list2;2022.2.4;143.8906896822052;
REPSWITCH1/PICTURE_728.png;pulpo;speak;darkblue;filler;2;F;1;3;2;2;Stim8_Set4;0;None;18;17;18;0;17;17;17;;;;;;;;;;;;;;;;;;;;;;;108.30901970015839;109.42039730027318;109.42039730027318;109.42039730027318;109.42039730027318;109.42039730027318;109.42039730027318;109.42039730027318;109.42039730027318;None;0;;C:\2023\REPSWITCH21092023\REPSWITCH_excgange\REPSWITCH_excgange\data/280202_REPSWITCH1_version2_list2_2023-12-04_18h16.18.981_micRespv2l2_recorded\recording_micRespv2l2_2023-12-04_18h18.04.885.wav;112.44153549987823;112.94160880008712;None;112.44153549987823;112.44153549987823;112.44153549987823;112.44153549987823;112.44153549987823;112.44153549987823;;;;;;;280202;001;2023-12-04_18h16.18.981;REPSWITCH1_version2_list2;2022.2.4;143.8906896822052;
REPSWITCH1/PICTURE_381.png;fresa;type;gold;nontarget;1;NT;1;3;2;2;Stim2_Set1;1;switch;19;18;19;0;18;18;18;;;;;;;;;;;;;;;;;;;;;;;112.94160880008712;114.04593229992315;114.04593229992315;114.04593229992315;114.04593229992315;114.04593229992315;114.04593229992315;114.04593229992315;114.04593229992315;['f', 'e', 'r', 'e', 'backspace', 'backspace', 'backspace', 'r', 'e', 's', 'a'];0;fresa;C:\2023\REPSWITCH21092023\REPSWITCH_excgange\REPSWITCH_excgange\data/280202_REPSWITCH1_version2_list2_2023-12-04_18h16.18.981_micRespv2l2_recorded\recording_micRespv2l2_2023-12-04_18h18.09.511.wav;117.06712689995766;117.56722250021994;None;117.06712689995766;117.06712689995766;117.06712689995766;117.06712689995766;117.06712689995766;117.06712689995766;[1.0499895997345448, 1.227900399826467, 1.282710200175643, 1.7504412000998855, 1.880663599818945, 2.0285636000335217, 2.149981399998069, 2.218735700007528, 2.2726651998236775, 2.405478300061077, 2.509021000005305];;;;;;280202;001;2023-12-04_18h16.18.981;REPSWITCH1_version2_list2;2022.2.4;143.8906896822052;
REPSWITCH1/PICTURE_381.png;fresa;type;gold;repeat;1;T;1;3;2;2;Stim2_Set1;0;None;20;19;20;0;19;19;19;;;;;;;;;;;;;;;;;;;;;;;117.56722250021994;118.62289590016007;118.62289590016007;118.62289590016007;118.62289590016007;118.62289590016007;118.62289590016007;118.62289590016007;118.62289590016007;['f', 'r', 'e', 's', 'a'];0;fresa;C:\2023\REPSWITCH21092023\REPSWITCH_excgange\REPSWITCH_excgange\data/280202_REPSWITCH1_version2_list2_2023-12-04_18h16.18.981_micRespv2l2_recorded\recording_micRespv2l2_2023-12-04_18h18.14.088.wav;121.65113650029525;;None;121.65113650029525;121.65113650029525;121.65113650029525;121.65113650029525;121.65113650029525;121.65113650029525;[0.9193884003907442, 1.1017514001578093, 1.1595572005026042, 1.3489912003278732, 1.4581462000496686];;;;;;280202;001;2023-12-04_18h16.18.981;REPSWITCH1_version2_list2;2022.2.4;143.8906896822052;
REPSWITCH1/PICTURE_8.png;pierna;speak;darkblue;filler;2;F;1;3;2;2;Stim3_Set4;0;None;21;20;21;0;20;20;20;;;;;;;;;;;;;;;;;;;;;;;122.15115649998188;123.28330500004813;123.28330500004813;123.28330500004813;123.28330500004813;123.28330500004813;123.28330500004813;123.28330500004813;123.28330500004813;None;0;;C:\2023\REPSWITCH21092023\REPSWITCH_excgange\REPSWITCH_excgange\data/280202_REPSWITCH1_version2_list2_2023-12-04_18h16.18.981_micRespv2l2_recorded\recording_micRespv2l2_2023-12-04_18h18.18.749.wav;126.30444710003212;126.80454079993069;None;126.30444710003212;126.30444710003212;126.30444710003212;126.30444710003212;126.30444710003212;126.30444710003212;;;;;;;280202;001;2023-12-04_18h16.18.981;REPSWITCH1_version2_list2;2022.2.4;143.8906896822052;
REPSWITCH1/PICTURE_48.png;bombero;speak;darkblue;filler;2;F;1;3;2;2;Stim7_Set4;0;None;22;21;22;0;21;21;21;;;;;;;;;;;;;;;;;;;;;;;126.80454079993069;127.85328970011324;127.85328970011324;127.85328970011324;127.85328970011324;127.85328970011324;127.85328970011324;127.85328970011324;127.85328970011324;None;0;;C:\2023\REPSWITCH21092023\REPSWITCH_excgange\REPSWITCH_excgange\data/280202_REPSWITCH1_version2_list2_2023-12-04_18h16.18.981_micRespv2l2_recorded\recording_micRespv2l2_2023-12-04_18h18.23.318.wav;130.87448860006407;131.37465560017154;None;130.87448860006407;130.87448860006407;130.87448860006407;130.87448860006407;130.87448860006407;130.87448860006407;;;;;;;280202;001;2023-12-04_18h16.18.981;REPSWITCH1_version2_list2;2022.2.4;143.8906896822052;
REPSWITCH1/PICTURE_135.png;traje;type;gold;nontarget;1;NT;1;3;2;2;Stim3_Set1;1;switch;23;22;23;0;22;22;22;;;;;;;;;;;;;;;;;;;;;;;131.37465560017154;132.45810629986227;132.45810629986227;132.45810629986227;132.45810629986227;132.45810629986227;132.45810629986227;132.45810629986227;132.45810629986227;['t', 'r', 'a', 'j', 'w', 'backspace', 'e'];0;traje;C:\2023\REPSWITCH21092023\REPSWITCH_excgange\REPSWITCH_excgange\data/280202_REPSWITCH1_version2_list2_2023-12-04_18h16.18.981_micRespv2l2_recorded\recording_micRespv2l2_2023-12-04_18h18.27.923.wav;135.4792851000093;135.97935920022428;None;135.4792851000093;135.4792851000093;135.4792851000093;135.4792851000093;135.4792851000093;135.4792851000093;[0.8177442997694016, 1.0372390002012253, 1.1632957998663187, 1.3165259999223053, 1.8428476001136005, 2.2971284999512136, 2.5357375000603497];;;;;;280202;001;2023-12-04_18h16.18.981;REPSWITCH1_version2_list2;2022.2.4;143.8906896822052;
REPSWITCH1/PICTURE_135.png;traje;type;gold;repeat;1;T;1;3;2;2;Stim3_Set1;0;None;24;23;24;0;23;23;23;;;;;;;;;;;;;;;;;;;;;;;135.97935920022428;137.12539289984852;137.12539289984852;137.12539289984852;137.12539289984852;137.12539289984852;137.12539289984852;137.12539289984852;137.12539289984852;['t', 'r', 'a', 'j', 'e', 'w', 'backspace', 'w', 'backspace', 'e'];0;traje;C:\2023\REPSWITCH21092023\REPSWITCH_excgange\REPSWITCH_excgange\data/280202_REPSWITCH1_version2_list2_2023-12-04_18h16.18.981_micRespv2l2_recorded\recording_micRespv2l2_2023-12-04_18h18.32.590.wav;140.1535963001661;;None;140.1535963001661;140.1535963001661;140.1535963001661;140.1535963001661;140.1535963001661;140.1535963001661;[0.8849545000120997, 1.0743173002265394, 1.3015426001511514, 1.4171686000190675, 1.6706580999307334, 1.6715684002265334, 2.0136442999355495, 2.204047500155866, 2.7906500003300607, 2.963207700289786];;;;;;280202;001;2023-12-04_18h16.18.981;REPSWITCH1_version2_list2;2022.2.4;143.8906896822052;
REPSWITCH1/PICTURE_19.png;pavo;type;gold;nontarget;1;NT;1;3;2;2;Stim5_Set1;1;repeat;25;24;25;0;24;24;24;;;;;;;;;;;;;;;;;;;;;;;140.65358760021627;141.74405169999227;141.74405169999227;141.74405169999227;141.74405169999227;141.74405169999227;141.74405169999227;141.74405169999227;141.74405169999227;['p', 'a', 'v', 'o'];0;pavo;C:\2023\REPSWITCH21092023\REPSWITCH_excgange\REPSWITCH_excgange\data/280202_REPSWITCH1_version2_list2_2023-12-04_18h16.18.981_micRespv2l2_recorded\recording_micRespv2l2_2023-12-04_18h18.37.210.wav;144.77218690002337;;None;144.77218690002337;144.77218690002337;144.77218690002337;144.77218690002337;144.77218690002337;144.77218690002337;[1.1050609000958502, 1.185859499964863, 1.4220702000893652, 1.5167526002041996];;;;;;280202;001;2023-12-04_18h16.18.981;REPSWITCH1_version2_list2;2022.2.4;143.8906896822052;
REPSWITCH1/PICTURE_19.png;pavo;speak;darkblue;switch;2;T;1;3;2;2;Stim5_Set1;0;None;26;25;26;0;25;25;25;;;;;;;;;;;;;;;;;;;;;;;145.272257800214;146.42525490000844;146.42525490000844;146.42525490000844;146.42525490000844;146.42525490000844;146.42525490000844;146.42525490000844;146.42525490000844;None;0;;C:\2023\REPSWITCH21092023\REPSWITCH_excgange\REPSWITCH_excgange\data/280202_REPSWITCH1_version2_list2_2023-12-04_18h16.18.981_micRespv2l2_recorded\recording_micRespv2l2_2023-12-04_18h18.41.891.wav;149.45334120001644;;None;149.45334120001644;149.45334120001644;149.45334120001644;149.45334120001644;149.45334120001644;149.45334120001644;;;;;;;280202;001;2023-12-04_18h16.18.981;REPSWITCH1_version2_list2;2022.2.4;143.8906896822052;
REPSWITCH1/PICTURE_142.png;vaso;speak;darkblue;filler;2;F;2;3;2;2;Stim7_Set1;0;None;27;26;27;0;26;26;26;;;;;;;;;;;;;;;;;;;;;;;149.9534297999926;150.99528550030664;150.99528550030664;150.99528550030664;150.99528550030664;150.99528550030664;150.99528550030664;150.99528550030664;150.99528550030664;None;0;;C:\2023\REPSWITCH21092023\REPSWITCH_excgange\REPSWITCH_excgange\data/280202_REPSWITCH1_version2_list2_2023-12-04_18h16.18.981_micRespv2l2_recorded\recording_micRespv2l2_2023-12-04_18h18.46.460.wav;154.01644380018115;154.51651210011914;None;154.01644380018115;154.01644380018115;154.01644380018115;154.01644380018115;154.01644380018115;154.01644380018115;;;;;;;280202;001;2023-12-04_18h16.18.981;REPSWITCH1_version2_list2;2022.2.4;143.8906896822052;
REPSWITCH1/PICTURE_135.png;traje;type;gold;filler;1;F;2;3;2;2;Stim3_Set1;0;None;28;27;28;0;27;27;27;;;;;;;;;;;;;;;;;;;;;;;154.51651210011914;155.6069979001768;155.6069979001768;155.6069979001768;155.6069979001768;155.6069979001768;155.6069979001768;155.6069979001768;155.6069979001768;['t', 'r', 'a', 'k', 'e', 'backspace', 'backspace'];0;tra;C:\2023\REPSWITCH21092023\REPSWITCH_excgange\REPSWITCH_excgange\data/280202_REPSWITCH1_version2_list2_2023-12-04_18h16.18.981_micRespv2l2_recorded\recording_micRespv2l2_2023-12-04_18h18.51.072.wav;158.62823879998177;159.12829730007797;None;158.62823879998177;158.62823879998177;158.62823879998177;158.62823879998177;158.62823879998177;158.62823879998177;[1.644444900099188, 1.8805891000665724, 2.178920399863273, 2.3548277001827955, 2.5003865002654493, 2.752391600050032, 2.889580000191927];;;;;;280202;001;2023-12-04_18h16.18.981;REPSWITCH1_version2_list2;2022.2.4;143.8906896822052;
REPSWITCH1/PICTURE_446.png;cerdo;type;gold;nontarget;1;NT;2;3;2;2;Stim7_Set2;0;None;29;28;29;0;28;28;28;;;;;;;;;;;;;;;;;;;;;;;159.12829730007797;160.25339160021394;160.25339160021394;160.25339160021394;160.25339160021394;160.25339160021394;160.25339160021394;160.25339160021394;160.25339160021394;['c', 'e', 'r', 'd', 'o'];0;cerdo;C:\2023\REPSWITCH21092023\REPSWITCH_excgange\REPSWITCH_excgange\data/280202_REPSWITCH1_version2_list2_2023-12-04_18h16.18.981_micRespv2l2_recorded\recording_micRespv2l2_2023-12-04_18h18.55.719.wav;163.28156400006264;;None;163.28156400006264;163.28156400006264;163.28156400006264;163.28156400006264;163.28156400006264;163.28156400006264;[1.0638753003440797, 1.2443184000439942, 1.3234111000783741, 1.4729952001944184, 1.636402300093323];;;;;;280202;001;2023-12-04_18h16.18.981;REPSWITCH1_version2_list2;2022.2.4;143.8906896822052;
REPSWITCH1/PICTURE_446.png;cerdo;type;gold;repeat;1;T;2;3;2;2;Stim7_Set2;0;None;30;29;30;0;29;29;29;;;;;;;;;;;;;;;;;;;;;;;163.78168930020183;164.86511630006135;164.86511630006135;164.86511630006135;164.86511630006135;164.86511630006135;164.86511630006135;164.86511630006135;164.86511630006135;['c', 'e', 'r', 'd', 'o'];0;cerdo;C:\2023\REPSWITCH21092023\REPSWITCH_excgange\REPSWITCH_excgange\data/280202_REPSWITCH1_version2_list2_2023-12-04_18h16.18.981_micRespv2l2_recorded\recording_micRespv2l2_2023-12-04_18h19.00.330.wav;167.8863260000944;168.3863993003033;None;167.8863260000944;167.8863260000944;167.8863260000944;167.8863260000944;167.8863260000944;167.8863260000944;[0.7766954004764557, 0.9421431003138423, 1.0314299003221095, 1.197840000037104, 1.434398700017482];;;;;;280202;001;2023-12-04_18h16.18.981;REPSWITCH1_version2_list2;2022.2.4;143.8906896822052;
REPSWITCH1/PICTURE_16.png;cazador;speak;darkblue;filler;2;F;2;3;2;2;Stim6_Set1;0;None;31;30;31;0;30;30;30;;;;;;;;;;;;;;;;;;;;;;;168.3863993003033;169.4698628000915;169.4698628000915;169.4698628000915;169.4698628000915;169.4698628000915;169.4698628000915;169.4698628000915;169.4698628000915;None;0;;C:\2023\REPSWITCH21092023\REPSWITCH_excgange\REPSWITCH_excgange\data/280202_REPSWITCH1_version2_list2_2023-12-04_18h16.18.981_micRespv2l2_recorded\recording_micRespv2l2_2023-12-04_18h19.04.936.wav;172.49809439992532;;None;172.49809439992532;172.49809439992532;172.49809439992532;172.49809439992532;172.49809439992532;172.49809439992532;;;;;;;280202;001;2023-12-04_18h16.18.981;REPSWITCH1_version2_list2;2022.2.4;143.8906896822052;
REPSWITCH1/PICTURE_552.png;manzana;type;gold;nontarget;1;NT;2;3;2;2;Stim6_Set2;1;switch;32;31;32;0;31;31;31;;;;;;;;;;;;;;;;;;;;;;;172.99809319991618;174.13022750010714;174.13022750010714;174.13022750010714;174.13022750010714;174.13022750010714;174.13022750010714;174.13022750010714;174.13022750010714;['m', 'a', 'n', 'z', 'a', 'n', 'a'];0;manzana;C:\2023\REPSWITCH21092023\REPSWITCH_excgange\REPSWITCH_excgange\data/280202_REPSWITCH1_version2_list2_2023-12-04_18h16.18.981_micRespv2l2_recorded\recording_micRespv2l2_2023-12-04_18h19.09.595.wav;177.15149160008878;177.65150459995493;None;177.15149160008878;177.15149160008878;177.15149160008878;177.15149160008878;177.15149160008878;177.15149160008878;[1.2368971002288163, 1.3016568003222346, 1.401535900309682, 1.5062458999454975, 1.6856057001277804, 1.7902994002215564, 2.009554900228977];;;;;;280202;001;2023-12-04_18h16.18.981;REPSWITCH1_version2_list2;2022.2.4;143.8906896822052;
REPSWITCH1/PICTURE_552.png;manzana;type;gold;repeat;1;T;2;3;2;2;Stim6_Set2;0;None;33;32;33;0;32;32;32;;;;;;;;;;;;;;;;;;;;;;;177.65150459995493;178.74894100008532;178.74894100008532;178.74894100008532;178.74894100008532;178.74894100008532;178.74894100008532;178.74894100008532;178.74894100008532;['m', 'a', 'n', 'z', 'a', 'n', 'a'];0;manzana;C:\2023\REPSWITCH21092023\REPSWITCH_excgange\REPSWITCH_excgange\data/280202_REPSWITCH1_version2_list2_2023-12-04_18h16.18.981_micRespv2l2_recorded\recording_micRespv2l2_2023-12-04_18h19.14.215.wav;181.77009670017287;182.27016220008954;None;181.77009670017287;181.77009670017287;181.77009670017287;181.77009670017287;181.77009670017287;181.77009670017287;[0.8477823999710381, 0.905591799877584, 1.0222320999018848, 1.1216684002429247, 1.31000109994784, 1.3977410001680255, 1.4993988000787795];;;;;;280202;001;2023-12-04_18h16.18.981;REPSWITCH1_version2_list2;2022.2.4;143.8906896822052;
REPSWITCH1/PICTURE_517.png;cuerda;type;gold;nontarget;1;NT;2;3;2;2;Stim4_Set2;0;None;34;33;34;0;33;33;33;;;;;;;;;;;;;;;;;;;;;;;182.27016220008954;183.3606036999263;183.3606036999263;183.3606036999263;183.3606036999263;183.3606036999263;183.3606036999263;183.3606036999263;183.3606036999263;['c', 'u', 'e', 'r', 'd', 'a'];0;cuerda;C:\2023\REPSWITCH21092023\REPSWITCH_excgange\REPSWITCH_excgange\data/280202_REPSWITCH1_version2_list2_2023-12-04_18h16.18.981_micRespv2l2_recorded\recording_micRespv2l2_2023-12-04_18h19.18.825.wav;186.38183140009642;186.88184310030192;None;186.38183140009642;186.38183140009642;186.38183140009642;186.38183140009642;186.38183140009642;186.38183140009642;[0.7587898001074791, 0.9206147999502718, 1.0132333999499679, 1.1026397999376059, 1.2407888998277485, 1.3573894002474844];;;;;;280202;001;2023-12-04_18h16.18.981;REPSWITCH1_version2_list2;2022.2.4;143.8906896822052;
REPSWITCH1/PICTURE_517.png;cuerda;speak;darkblue;switch;2;T;2;3;2;2;Stim4_Set2;0;None;35;34;35;0;34;34;34;;;;;;;;;;;;;;;;;;;;;;;186.88184310030192;188.08343850029632;188.08343850029632;188.08343850029632;188.08343850029632;188.08343850029632;188.08343850029632;188.08343850029632;188.08343850029632;None;0;;C:\2023\REPSWITCH21092023\REPSWITCH_excgange\REPSWITCH_excgange\data/280202_REPSWITCH1_version2_list2_2023-12-04_18h16.18.981_micRespv2l2_recorded\recording_micRespv2l2_2023-12-04_18h19.23.549.wav;191.10463100019842;191.6047298000194;None;191.10463100019842;191.10463100019842;191.10463100019842;191.10463100019842;191.10463100019842;191.10463100019842;;;;;;;280202;001;2023-12-04_18h16.18.981;REPSWITCH1_version2_list2;2022.2.4;143.8906896822052;
REPSWITCH1/PICTURE_169.png;espalda;speak;darkblue;filler;2;F;2;3;2;2;Stim8_Set1;1;repeat;36;35;36;0;35;35;35;;;;;;;;;;;;;;;;;;;;;;;191.6047298000194;192.74374860012904;192.74374860012904;192.74374860012904;192.74374860012904;192.74374860012904;192.74374860012904;192.74374860012904;192.74374860012904;None;0;;C:\2023\REPSWITCH21092023\REPSWITCH_excgange\REPSWITCH_excgange\data/280202_REPSWITCH1_version2_list2_2023-12-04_18h16.18.981_micRespv2l2_recorded\recording_micRespv2l2_2023-12-04_18h19.28.209.wav;195.76496409997344;196.26502340007573;None;195.76496409997344;195.76496409997344;195.76496409997344;195.76496409997344;195.76496409997344;195.76496409997344;;;;;;;280202;001;2023-12-04_18h16.18.981;REPSWITCH1_version2_list2;2022.2.4;143.8906896822052;
REPSWITCH1/PICTURE_30.png;granja;speak;darkblue;nontarget;2;NT;2;3;2;2;Stim5_Set2;1;repeat;37;36;37;0;36;36;36;;;;;;;;;;;;;;;;;;;;;;;196.26502340007573;197.51519720023498;197.51519720023498;197.51519720023498;197.51519720023498;197.51519720023498;197.51519720023498;197.51519720023498;197.51519720023498;None;0;;C:\2023\REPSWITCH21092023\REPSWITCH_excgange\REPSWITCH_excgange\data/280202_REPSWITCH1_version2_list2_2023-12-04_18h16.18.981_micRespv2l2_recorded\recording_micRespv2l2_2023-12-04_18h19.32.981.wav;200.54342820029706;;None;200.54342820029706;200.54342820029706;200.54342820029706;200.54342820029706;200.54342820029706;200.54342820029706;;;;;;;280202;001;2023-12-04_18h16.18.981;REPSWITCH1_version2_list2;2022.2.4;143.8906896822052;
REPSWITCH1/PICTURE_30.png;granja;type;gold;switch;1;T;2;3;2;2;Stim5_Set2;0;None;38;37;38;0;37;37;37;;;;;;;;;;;;;;;;;;;;;;;201.0434717000462;202.1895063999109;202.1895063999109;202.1895063999109;202.1895063999109;202.1895063999109;202.1895063999109;202.1895063999109;202.1895063999109;['g', 'r', 'a', 'n', 'j', 'a'];0;granja;C:\2023\REPSWITCH21092023\REPSWITCH_excgange\REPSWITCH_excgange\data/280202_REPSWITCH1_version2_list2_2023-12-04_18h16.18.981_micRespv2l2_recorded\recording_micRespv2l2_2023-12-04_18h19.37.655.wav;205.2176252999343;;None;205.2176252999343;205.2176252999343;205.2176252999343;205.2176252999343;205.2176252999343;205.2176252999343;[0.9720703000202775, 1.055769800208509, 1.135644500143826, 1.269197499845177, 1.464877599850297, 1.5455947001464665];;;;;;280202;001;2023-12-04_18h16.18.981;REPSWITCH1_version2_list2;2022.2.4;143.8906896822052;
REPSWITCH1/PICTURE_128.png;muñeca;type;gold;filler;1;F;2;3;2;2;Stim4_Set1;1;repeat;39;38;39;0;38;38;38;;;;;;;;;;;;;;;;;;;;;;;205.71770250005648;206.94005790026858;206.94005790026858;206.94005790026858;206.94005790026858;206.94005790026858;206.94005790026858;206.94005790026858;206.94005790026858;['u', 'ñ', 'e', 'c', 'a', 'backspace', 'backspace'];0;uñe;C:\2023\REPSWITCH21092023\REPSWITCH_excgange\REPSWITCH_excgange\data/280202_REPSWITCH1_version2_list2_2023-12-04_18h16.18.981_micRespv2l2_recorded\recording_micRespv2l2_2023-12-04_18h19.42.405.wav;209.96126920031384;210.46136950002983;None;209.96126920031384;209.96126920031384;209.96126920031384;209.96126920031384;209.96126920031384;209.96126920031384;[1.227007600478828, 1.588693500496447, 1.6844192002899945, 1.8399203000590205, 2.0186922000721097, 2.6293029002845287, 2.9195623002015054];;;;;;280202;001;2023-12-04_18h16.18.981;REPSWITCH1_version2_list2;2022.2.4;143.8906896822052;
REPSWITCH1/PICTURE_199.png;falda;type;gold;nontarget;1;NT;2;3;2;2;Stim8_Set2;0;None;40;39;40;0;39;39;39;;;;;;;;;;;;;;;;;;;;;;;210.46136950002983;211.60740520013496;211.60740520013496;211.60740520013496;211.60740520013496;211.60740520013496;211.60740520013496;211.60740520013496;211.60740520013496;['f', 'a', 'l', 'd', 'a'];0;falda;C:\2023\REPSWITCH21092023\REPSWITCH_excgange\REPSWITCH_excgange\data/280202_REPSWITCH1_version2_list2_2023-12-04_18h16.18.981_micRespv2l2_recorded\recording_micRespv2l2_2023-12-04_18h19.47.073.wav;214.6355111002922;;None;214.6355111002922;214.6355111002922;214.6355111002922;214.6355111002922;214.6355111002922;214.6355111002922;[0.8206792999990284, 0.9352017999626696, 1.0867004999890924, 1.2252342998981476, 1.2969909999519587];;;;;;280202;001;2023-12-04_18h16.18.981;REPSWITCH1_version2_list2;2022.2.4;143.8906896822052;
REPSWITCH1/PICTURE_199.png;falda;speak;darkblue;switch;2;T;2;3;2;2;Stim8_Set2;0;None;41;40;41;0;40;40;40;;;;;;;;;;;;;;;;;;;;;;;215.13559750001878;216.21906200004742;216.21906200004742;216.21906200004742;216.21906200004742;216.21906200004742;216.21906200004742;216.21906200004742;216.21906200004742;None;0;;C:\2023\REPSWITCH21092023\REPSWITCH_excgange\REPSWITCH_excgange\data/280202_REPSWITCH1_version2_list2_2023-12-04_18h16.18.981_micRespv2l2_recorded\recording_micRespv2l2_2023-12-04_18h19.51.684.wav;219.24030880024657;219.74037009989843;None;219.24030880024657;219.24030880024657;219.24030880024657;219.24030880024657;219.24030880024657;219.24030880024657;;;;;;;280202;001;2023-12-04_18h16.18.981;REPSWITCH1_version2_list2;2022.2.4;143.8906896822052;
REPSWITCH1/PICTURE_152.png;caracol;speak;darkblue;nontarget;2;NT;2;3;2;2;Stim2_Set2;1;switch;42;41;42;0;41;41;41;;;;;;;;;;;;;;;;;;;;;;;219.74037009989843;220.78913380019367;220.78913380019367;220.78913380019367;220.78913380019367;220.78913380019367;220.78913380019367;220.78913380019367;220.78913380019367;None;0;;C:\2023\REPSWITCH21092023\REPSWITCH_excgange\REPSWITCH_excgange\data/280202_REPSWITCH1_version2_list2_2023-12-04_18h16.18.981_micRespv2l2_recorded\recording_micRespv2l2_2023-12-04_18h19.56.255.wav;223.81729619996622;;None;223.81729619996622;223.81729619996622;223.81729619996622;223.81729619996622;223.81729619996622;223.81729619996622;;;;;;;280202;001;2023-12-04_18h16.18.981;REPSWITCH1_version2_list2;2022.2.4;143.8906896822052;
REPSWITCH1/PICTURE_152.png;caracol;speak;darkblue;repeat;2;T;2;3;2;2;Stim2_Set2;0;None;43;42;43;0;42;42;42;;;;;;;;;;;;;;;;;;;;;;;224.31734610022977;225.4008300001733;225.4008300001733;225.4008300001733;225.4008300001733;225.4008300001733;225.4008300001733;225.4008300001733;225.4008300001733;None;0;;C:\2023\REPSWITCH21092023\REPSWITCH_excgange\REPSWITCH_excgange\data/280202_REPSWITCH1_version2_list2_2023-12-04_18h16.18.981_micRespv2l2_recorded\recording_micRespv2l2_2023-12-04_18h20.00.866.wav;228.4289919002913;;None;228.4289919002913;228.4289919002913;228.4289919002913;228.4289919002913;228.4289919002913;228.4289919002913;;;;;;;280202;001;2023-12-04_18h16.18.981;REPSWITCH1_version2_list2;2022.2.4;143.8906896822052;
REPSWITCH1/PICTURE_381.png;fresa;type;gold;filler;1;F;2;3;2;2;Stim2_Set1;0;None;44;43;44;0;43;43;43;;;;;;;;;;;;;;;;;;;;;;;228.92905490007252;230.08895960031077;230.08895960031077;230.08895960031077;230.08895960031077;230.08895960031077;230.08895960031077;230.08895960031077;230.08895960031077;['f', 'r', 'e', 's', 'a'];0;fresa;C:\2023\REPSWITCH21092023\REPSWITCH_excgange\REPSWITCH_excgange\data/280202_REPSWITCH1_version2_list2_2023-12-04_18h16.18.981_micRespv2l2_recorded\recording_micRespv2l2_2023-12-04_18h20.05.554.wav;233.11018730001524;233.6102483998984;None;233.11018730001524;233.11018730001524;233.11018730001524;233.11018730001524;233.11018730001524;233.11018730001524;[0.8088386999443173, 0.9623524998314679, 1.0779647999443114, 1.2585923001170158, 1.421341700013727];;;;;;280202;001;2023-12-04_18h16.18.981;REPSWITCH1_version2_list2;2022.2.4;143.8906896822052;
REPSWITCH1/PICTURE_175.png;pintor;speak;darkblue;nontarget;2;NT;2;3;2;2;Stim1_Set2;1;switch;45;44;45;0;44;44;44;;;;;;;;;;;;;;;;;;;;;;;233.6102483998984;234.7075884998776;234.7075884998776;234.7075884998776;234.7075884998776;234.7075884998776;234.7075884998776;234.7075884998776;234.7075884998776;None;0;;C:\2023\REPSWITCH21092023\REPSWITCH_excgange\REPSWITCH_excgange\data/280202_REPSWITCH1_version2_list2_2023-12-04_18h16.18.981_micRespv2l2_recorded\recording_micRespv2l2_2023-12-04_18h20.10.174.wav;237.7357955002226;;None;237.7357955002226;237.7357955002226;237.7357955002226;237.7357955002226;237.7357955002226;237.7357955002226;;;;;;;280202;001;2023-12-04_18h16.18.981;REPSWITCH1_version2_list2;2022.2.4;143.8906896822052;
REPSWITCH1/PICTURE_175.png;pintor;speak;darkblue;repeat;2;T;2;3;2;2;Stim1_Set2;0;None;46;45;46;0;45;45;45;;;;;;;;;;;;;;;;;;;;;;;238.23581900028512;239.36102130031213;239.36102130031213;239.36102130031213;239.36102130031213;239.36102130031213;239.36102130031213;239.36102130031213;239.36102130031213;None;0;;C:\2023\REPSWITCH21092023\REPSWITCH_excgange\REPSWITCH_excgange\data/280202_REPSWITCH1_version2_list2_2023-12-04_18h16.18.981_micRespv2l2_recorded\recording_micRespv2l2_2023-12-04_18h20.14.826.wav;242.3891783999279;;None;242.3891783999279;242.3891783999279;242.3891783999279;242.3891783999279;242.3891783999279;242.3891783999279;;;;;;;280202;001;2023-12-04_18h16.18.981;REPSWITCH1_version2_list2;2022.2.4;143.8906896822052;
REPSWITCH1/PICTURE_178.png;puente;type;gold;filler;1;F;2;3;2;2;Stim1_Set1;0;None;47;46;47;0;46;46;46;;;;;;;;;;;;;;;;;;;;;;;242.88924620021135;244.00055669993162;244.00055669993162;244.00055669993162;244.00055669993162;244.00055669993162;244.00055669993162;244.00055669993162;244.00055669993162;['p', 'u', 'n', 'backspace', 'e', 'n', 't', 'e'];0;puente;C:\2023\REPSWITCH21092023\REPSWITCH_excgange\REPSWITCH_excgange\data/280202_REPSWITCH1_version2_list2_2023-12-04_18h16.18.981_micRespv2l2_recorded\recording_micRespv2l2_2023-12-04_18h20.19.466.wav;247.02171660028398;247.5217861002311;None;247.02171660028398;247.02171660028398;247.02171660028398;247.02171660028398;247.02171660028398;247.02171660028398;[0.8146917005069554, 1.0748923001810908, 1.2812337004579604, 1.6633202005177736, 2.3491349001415074, 2.435797500424087, 2.526522600091994, 2.5873205005191267];;;;;;280202;001;2023-12-04_18h16.18.981;REPSWITCH1_version2_list2;2022.2.4;143.8906896822052;
REPSWITCH1/PICTURE_19.png;pavo;speak;darkblue;filler;2;F;2;3;2;2;Stim5_Set1;0;None;48;47;48;0;47;47;47;;;;;;;;;;;;;;;;;;;;;;;247.5217861002311;248.58440730022267;248.58440730022267;248.58440730022267;248.58440730022267;248.58440730022267;248.58440730022267;248.58440730022267;248.58440730022267;None;0;;C:\2023\REPSWITCH21092023\REPSWITCH_excgange\REPSWITCH_excgange\data/280202_REPSWITCH1_version2_list2_2023-12-04_18h16.18.981_micRespv2l2_recorded\recording_micRespv2l2_2023-12-04_18h20.24.049.wav;251.61259840009734;;None;251.61259840009734;251.61259840009734;251.61259840009734;251.61259840009734;251.61259840009734;251.61259840009734;;;;;;;280202;001;2023-12-04_18h16.18.981;REPSWITCH1_version2_list2;2022.2.4;143.8906896822052;
REPSWITCH1/PICTURE_264.png;mano;speak;darkblue;nontarget;2;NT;2;3;2;2;Stim3_Set2;1;repeat;49;48;49;0;48;48;48;;;;;;;;;;;;;;;;;;;;;;;252.11268640030175;253.18926870031282;253.18926870031282;253.18926870031282;253.18926870031282;253.18926870031282;253.18926870031282;253.18926870031282;253.18926870031282;None;0;;C:\2023\REPSWITCH21092023\REPSWITCH_excgange\REPSWITCH_excgange\data/280202_REPSWITCH1_version2_list2_2023-12-04_18h16.18.981_micRespv2l2_recorded\recording_micRespv2l2_2023-12-04_18h20.28.654.wav;256.2104436000809;256.7105080001056;None;256.2104436000809;256.2104436000809;256.2104436000809;256.2104436000809;256.2104436000809;256.2104436000809;;;;;;;280202;001;2023-12-04_18h16.18.981;REPSWITCH1_version2_list2;2022.2.4;143.8906896822052;
REPSWITCH1/PICTURE_264.png;mano;type;gold;switch;1;T;2;3;2;2;Stim3_Set2;0;None;50;49;50;0;49;49;49;;;;;;;;;;;;;;;;;;;;;;;256.7105080001056;257.83566650003195;257.83566650003195;257.83566650003195;257.83566650003195;257.83566650003195;257.83566650003195;257.83566650003195;257.83566650003195;['m', 'a', 'n', 'o'];0;mano;C:\2023\REPSWITCH21092023\REPSWITCH_excgange\REPSWITCH_excgange\data/280202_REPSWITCH1_version2_list2_2023-12-04_18h16.18.981_micRespv2l2_recorded\recording_micRespv2l2_2023-12-04_18h20.33.301.wav;260.8568890001625;261.35700049996376;None;260.8568890001625;260.8568890001625;260.8568890001625;260.8568890001625;260.8568890001625;260.8568890001625;[0.8266131998971105, 0.8883905997499824, 0.9831416001543403, 1.1365721998736262];;;;;;280202;001;2023-12-04_18h16.18.981;REPSWITCH1_version2_list2;2022.2.4;143.8906896822052;
REPSWITCH1/PICTURE_446.png;cerdo;type;gold;filler;1;F;3;3;2;2;Stim7_Set2;0;None;51;50;51;0;50;50;50;;;;;;;;;;;;;;;;;;;;;;;261.35700049996376;262.5307169998996;262.5307169998996;262.5307169998996;262.5307169998996;262.5307169998996;262.5307169998996;262.5307169998996;262.5307169998996;['c', 'e', 'r', 'd', 'o'];0;cerdo;C:\2023\REPSWITCH21092023\REPSWITCH_excgange\REPSWITCH_excgange\data/280202_REPSWITCH1_version2_list2_2023-12-04_18h16.18.981_micRespv2l2_recorded\recording_micRespv2l2_2023-12-04_18h20.37.996.wav;265.5589558002539;;space;265.5589558002539;265.5589558002539;265.5589558002539;265.5589558002539;265.5589558002539;265.5589558002539;[0.7363265999592841, 0.8839324000291526, 0.988512699957937, 1.1687647001817822, 1.3451253999955952];266.05893329996616;266.05893329996616;8.828882000409067;;;280202;001;2023-12-04_18h16.18.981;REPSWITCH1_version2_list2;2022.2.4;143.8906896822052;
REPSWITCH1/PICTURE_235.png;aguja;type;gold;nontarget;1;NT;3;3;2;2;Stim4_Set3;1;repeat;52;51;52;0;51;51;51;;;;;;;;;;;;;;;;;;;;;;;274.9004029999487;275.9492088002153;275.9492088002153;275.9492088002153;275.9492088002153;275.9492088002153;275.9492088002153;275.9492088002153;275.9492088002153;['e', 's', 'p', 'backspace', 'backspace', 'backspace', 'a', 'h', 'backspace', 'g'];0;ag;C:\2023\REPSWITCH21092023\REPSWITCH_excgange\REPSWITCH_excgange\data/280202_REPSWITCH1_version2_list2_2023-12-04_18h16.18.981_micRespv2l2_recorded\recording_micRespv2l2_2023-12-04_18h20.51.414.wav;278.9773447001353;;None;278.9773447001353;278.9773447001353;278.9773447001353;278.9773447001353;278.9773447001353;278.9773447001353;[0.8688567001372576, 1.0034444001503289, 1.198205899912864, 1.502504600211978, 1.6460261000320315, 1.9698822000063956, 2.1046437001787126, 2.3556746002286673, 2.787513100076467, 2.9333247002214193];;;;;;280202;001;2023-12-04_18h16.18.981;REPSWITCH1_version2_list2;2022.2.4;143.8906896822052;
REPSWITCH1/PICTURE_235.png;aguja;speak;darkblue;switch;2;T;3;3;2;2;Stim4_Set3;0;None;53;52;53;0;52;52;52;;;;;;;;;;;;;;;;;;;;;;;279.47739320015535;280.5122417001985;280.5122417001985;280.5122417001985;280.5122417001985;280.5122417001985;280.5122417001985;280.5122417001985;280.5122417001985;None;0;;C:\2023\REPSWITCH21092023\REPSWITCH_excgange\REPSWITCH_excgange\data/280202_REPSWITCH1_version2_list2_2023-12-04_18h16.18.981_micRespv2l2_recorded\recording_micRespv2l2_2023-12-04_18h20.55.977.wav;283.533446600195;284.03354940004647;None;283.533446600195;283.533446600195;283.533446600195;283.533446600195;283.533446600195;283.533446600195;;;;;;;280202;001;2023-12-04_18h16.18.981;REPSWITCH1_version2_list2;2022.2.4;143.8906896822052;
REPSWITCH1/PICTURE_552.png;manzana;speak;darkblue;filler;2;F;3;3;2;2;Stim6_Set2;0;None;54;53;54;0;53;53;53;;;;;;;;;;;;;;;;;;;;;;;284.03354940004647;285.13093980029225;285.13093980029225;285.13093980029225;285.13093980029225;285.13093980029225;285.13093980029225;285.13093980029225;285.13093980029225;None;0;;C:\2023\REPSWITCH21092023\REPSWITCH_excgange\REPSWITCH_excgange\data/280202_REPSWITCH1_version2_list2_2023-12-04_18h16.18.981_micRespv2l2_recorded\recording_micRespv2l2_2023-12-04_18h21.00.595.wav;288.15214570006356;288.6521943998523;None;288.15214570006356;288.15214570006356;288.15214570006356;288.15214570006356;288.15214570006356;288.15214570006356;;;;;;;280202;001;2023-12-04_18h16.18.981;REPSWITCH1_version2_list2;2022.2.4;143.8906896822052;
REPSWITCH1/PICTURE_271.png;conejo;speak;darkblue;nontarget;2;NT;3;3;2;2;Stim7_Set3;1;repeat;55;54;55;0;54;54;54;;;;;;;;;;;;;;;;;;;;;;;288.6521943998523;289.7287452002056;289.7287452002056;289.7287452002056;289.7287452002056;289.7287452002056;289.7287452002056;289.7287452002056;289.7287452002056;None;0;;C:\2023\REPSWITCH21092023\REPSWITCH_excgange\REPSWITCH_excgange\data/280202_REPSWITCH1_version2_list2_2023-12-04_18h16.18.981_micRespv2l2_recorded\recording_micRespv2l2_2023-12-04_18h21.05.193.wav;292.7499480000697;293.25001370022073;None;292.7499480000697;292.7499480000697;292.7499480000697;292.7499480000697;292.7499480000697;292.7499480000697;;;;;;;280202;001;2023-12-04_18h16.18.981;REPSWITCH1_version2_list2;2022.2.4;143.8906896822052;
REPSWITCH1/PICTURE_271.png;conejo;type;gold;switch;1;T;3;3;2;2;Stim7_Set3;0;None;56;55;56;0;55;55;55;;;;;;;;;;;;;;;;;;;;;;;293.25001370022073;294.298757399898;294.298757399898;294.298757399898;294.298757399898;294.298757399898;294.298757399898;294.298757399898;294.298757399898;['c', 'o', 'n', 'e', 'j', 'o'];0;conejo;C:\2023\REPSWITCH21092023\REPSWITCH_excgange\REPSWITCH_excgange\data/280202_REPSWITCH1_version2_list2_2023-12-04_18h16.18.981_micRespv2l2_recorded\recording_micRespv2l2_2023-12-04_18h21.09.764.wav;297.319983900059;297.8201558999717;None;297.319983900059;297.319983900059;297.319983900059;297.319983900059;297.319983900059;297.319983900059;[0.8125671003945172, 0.9241434005089104, 1.093920100480318, 1.1948783001862466, 1.3154757004231215, 1.4948387001641095];;;;;;280202;001;2023-12-04_18h16.18.981;REPSWITCH1_version2_list2;2022.2.4;143.8906896822052;
REPSWITCH1/PICTURE_610.png;miel;type;gold;nontarget;1;NT;3;3;2;2;Stim2_Set3;1;repeat;57;56;57;0;56;56;56;;;;;;;;;;;;;;;;;;;;;;;297.8201558999717;298.92437450028956;298.92437450028956;298.92437450028956;298.92437450028956;298.92437450028956;298.92437450028956;298.92437450028956;298.92437450028956;['m', 'i', 'e', 'l'];0;miel;C:\2023\REPSWITCH21092023\REPSWITCH_excgange\REPSWITCH_excgange\data/280202_REPSWITCH1_version2_list2_2023-12-04_18h16.18.981_micRespv2l2_recorded\recording_micRespv2l2_2023-12-04_18h21.14.390.wav;301.9525466002524;;None;301.9525466002524;301.9525466002524;301.9525466002524;301.9525466002524;301.9525466002524;301.9525466002524;[0.8420728002674878, 0.9938612999394536, 1.0416963999159634, 1.1623023999854922];;;;;;280202;001;2023-12-04_18h16.18.981;REPSWITCH1_version2_list2;2022.2.4;143.8906896822052;
REPSWITCH1/PICTURE_610.png;miel;speak;darkblue;switch;2;T;3;3;2;2;Stim2_Set3;0;None;58;57;58;0;57;57;57;;;;;;;;;;;;;;;;;;;;;;;302.45263960026205;303.5222497000359;303.5222497000359;303.5222497000359;303.5222497000359;303.5222497000359;303.5222497000359;303.5222497000359;303.5222497000359;None;0;;C:\2023\REPSWITCH21092023\REPSWITCH_excgange\REPSWITCH_excgange\data/280202_REPSWITCH1_version2_list2_2023-12-04_18h16.18.981_micRespv2l2_recorded\recording_micRespv2l2_2023-12-04_18h21.18.988.wav;306.55039709992707;;None;306.55039709992707;306.55039709992707;306.55039709992707;306.55039709992707;306.55039709992707;306.55039709992707;;;;;;;280202;001;2023-12-04_18h16.18.981;REPSWITCH1_version2_list2;2022.2.4;143.8906896822052;
REPSWITCH1/PICTURE_199.png;falda;type;gold;filler;1;F;3;3;2;2;Stim8_Set2;0;None;59;58;59;0;58;58;58;;;;;;;;;;;;;;;;;;;;;;;307.0505146998912;308.2173748998903;308.2173748998903;308.2173748998903;308.2173748998903;308.2173748998903;308.2173748998903;308.2173748998903;308.2173748998903;['f', 'a', 'l', 'd', 'a'];0;falda;C:\2023\REPSWITCH21092023\REPSWITCH_excgange\REPSWITCH_excgange\data/280202_REPSWITCH1_version2_list2_2023-12-04_18h16.18.981_micRespv2l2_recorded\recording_micRespv2l2_2023-12-04_18h21.23.682.wav;311.23851709999144;311.7385772000998;None;311.23851709999144;311.23851709999144;311.23851709999144;311.23851709999144;311.23851709999144;311.23851709999144;[0.778606400359422, 0.956334600225091, 1.0530094001442194, 1.218458500225097, 1.3242283002473414];;;;;;280202;001;2023-12-04_18h16.18.981;REPSWITCH1_version2_list2;2022.2.4;143.8906896822052;
REPSWITCH1/PICTURE_464.png;goma;speak;darkblue;nontarget;2;NT;3;3;2;2;Stim6_Set3;1;switch;60;59;60;0;59;59;59;;;;;;;;;;;;;;;;;;;;;;;311.7385772000998;312.933177200146;312.933177200146;312.933177200146;312.933177200146;312.933177200146;312.933177200146;312.933177200146;312.933177200146;['g', 'o', 'm', 'a'];0;goma;C:\2023\REPSWITCH21092023\REPSWITCH_excgange\REPSWITCH_excgange\data/280202_REPSWITCH1_version2_list2_2023-12-04_18h16.18.981_micRespv2l2_recorded\recording_micRespv2l2_2023-12-04_18h21.28.398.wav;315.9543750998564;316.4544827998616;None;315.9543750998564;315.9543750998564;315.9543750998564;315.9543750998564;315.9543750998564;315.9543750998564;[1.1604924001730978, 1.2691731001250446, 1.4185950001701713, 1.5282220002263784];;;;;;280202;001;2023-12-04_18h16.18.981;REPSWITCH1_version2_list2;2022.2.4;143.8906896822052;
REPSWITCH1/PICTURE_464.png;goma;speak;darkblue;repeat;2;T;3;3;2;2;Stim6_Set3;0;None;61;60;61;0;60;60;60;;;;;;;;;;;;;;;;;;;;;;;316.4544827998616;317.50323210004717;317.50323210004717;317.50323210004717;317.50323210004717;317.50323210004717;317.50323210004717;317.50323210004717;317.50323210004717;None;0;;C:\2023\REPSWITCH21092023\REPSWITCH_excgange\REPSWITCH_excgange\data/280202_REPSWITCH1_version2_list2_2023-12-04_18h16.18.981_micRespv2l2_recorded\recording_micRespv2l2_2023-12-04_18h21.32.968.wav;320.52452869992703;321.02453340031207;None;320.52452869992703;320.52452869992703;320.52452869992703;320.52452869992703;320.52452869992703;320.52452869992703;;;;;;;280202;001;2023-12-04_18h16.18.981;REPSWITCH1_version2_list2;2022.2.4;143.8906896822052;
REPSWITCH1/PICTURE_152.png;caracol;type;gold;filler;1;F;3;3;2;2;Stim2_Set2;0;None;62;61;62;0;61;61;61;;;;;;;;;;;;;;;;;;;;;;;321.02453340031207;322.0802111001685;322.0802111001685;322.0802111001685;322.0802111001685;322.0802111001685;322.0802111001685;322.0802111001685;322.0802111001685;['c', 'a', 'r', 'a', 'c', 'o', 'l'];0;caracol;C:\2023\REPSWITCH21092023\REPSWITCH_excgange\REPSWITCH_excgange\data/280202_REPSWITCH1_version2_list2_2023-12-04_18h16.18.981_micRespv2l2_recorded\recording_micRespv2l2_2023-12-04_18h21.37.546.wav;325.1014522998594;325.601496799849;None;325.1014522998594;325.1014522998594;325.1014522998594;325.1014522998594;325.1014522998594;325.1014522998594;[0.9207566999830306, 1.1121209999546409, 1.1732645998708904, 1.307538399938494, 1.4970368999056518, 1.5899573997594416, 1.7469766000285745];;;;;;280202;001;2023-12-04_18h16.18.981;REPSWITCH1_version2_list2;2022.2.4;143.8906896822052;
REPSWITCH1/PICTURE_320.png;iglesia;speak;darkblue;nontarget;2;NT;3;3;2;2;Stim8_Set3;1;switch;63;62;63;0;62;62;62;;;;;;;;;;;;;;;;;;;;;;;325.601496799849;326.74062340008095;326.74062340008095;326.74062340008095;326.74062340008095;326.74062340008095;326.74062340008095;326.74062340008095;326.74062340008095;None;0;;C:\2023\REPSWITCH21092023\REPSWITCH_excgange\REPSWITCH_excgange\data/280202_REPSWITCH1_version2_list2_2023-12-04_18h16.18.981_micRespv2l2_recorded\recording_micRespv2l2_2023-12-04_18h21.42.206.wav;329.768692499958;;None;329.768692499958;329.768692499958;329.768692499958;329.768692499958;329.768692499958;329.768692499958;;;;;;;280202;001;2023-12-04_18h16.18.981;REPSWITCH1_version2_list2;2022.2.4;143.8906896822052;
REPSWITCH1/PICTURE_320.png;iglesia;speak;darkblue;repeat;2;T;3;3;2;2;Stim8_Set3;0;None;64;63;64;0;63;63;63;;;;;;;;;;;;;;;;;;;;;;;330.26883429987356;331.39395450009033;331.39395450009033;331.39395450009033;331.39395450009033;331.39395450009033;331.39395450009033;331.39395450009033;331.39395450009033;None;0;;C:\2023\REPSWITCH21092023\REPSWITCH_excgange\REPSWITCH_excgange\data/280202_REPSWITCH1_version2_list2_2023-12-04_18h16.18.981_micRespv2l2_recorded\recording_micRespv2l2_2023-12-04_18h21.46.859.wav;334.42211910011247;;None;334.42211910011247;334.42211910011247;334.42211910011247;334.42211910011247;334.42211910011247;334.42211910011247;;;;;;;280202;001;2023-12-04_18h16.18.981;REPSWITCH1_version2_list2;2022.2.4;143.8906896822052;
REPSWITCH1/PICTURE_35.png;oreja;speak;darkblue;nontarget;2;NT;3;3;2;2;Stim5_Set3;0;None;65;64;65;0;64;64;64;;;;;;;;;;;;;;;;;;;;;;;334.92217040015385;335.9431579001248;335.9431579001248;335.9431579001248;335.9431579001248;335.9431579001248;335.9431579001248;335.9431579001248;335.9431579001248;None;0;;C:\2023\REPSWITCH21092023\REPSWITCH_excgange\REPSWITCH_excgange\data/280202_REPSWITCH1_version2_list2_2023-12-04_18h16.18.981_micRespv2l2_recorded\recording_micRespv2l2_2023-12-04_18h21.51.407.wav;338.96445890003815;339.4644340998493;None;338.96445890003815;338.96445890003815;338.96445890003815;338.96445890003815;338.96445890003815;338.96445890003815;;;;;;;280202;001;2023-12-04_18h16.18.981;REPSWITCH1_version2_list2;2022.2.4;143.8906896822052;
REPSWITCH1/PICTURE_35.png;oreja;type;gold;switch;1;T;3;3;2;2;Stim5_Set3;0;None;66;65;66;0;65;65;65;;;;;;;;;;;;;;;;;;;;;;;339.4644340998493;340.52012360002846;340.52012360002846;340.52012360002846;340.52012360002846;340.52012360002846;340.52012360002846;340.52012360002846;340.52012360002846;['o', 'r', 'e', 'j', 'a'];0;oreja;C:\2023\REPSWITCH21092023\REPSWITCH_excgange\REPSWITCH_excgange\data/280202_REPSWITCH1_version2_list2_2023-12-04_18h16.18.981_micRespv2l2_recorded\recording_micRespv2l2_2023-12-04_18h21.55.984.wav;343.54140880005434;344.04143600026146;None;343.54140880005434;343.54140880005434;343.54140880005434;343.54140880005434;343.54140880005434;343.54140880005434;[0.9863769002258778, 1.0711174001917243, 1.1717504002153873, 1.289521099999547, 1.5047383001074195];;;;;;280202;001;2023-12-04_18h16.18.981;REPSWITCH1_version2_list2;2022.2.4;143.8906896822052;
REPSWITCH1/PICTURE_517.png;cuerda;speak;darkblue;filler;2;F;3;3;2;2;Stim4_Set2;0;None;67;66;67;0;66;66;66;;;;;;;;;;;;;;;;;;;;;;;344.04143600026146;345.1666017998941;345.1666017998941;345.1666017998941;345.1666017998941;345.1666017998941;345.1666017998941;345.1666017998941;345.1666017998941;None;0;;C:\2023\REPSWITCH21092023\REPSWITCH_excgange\REPSWITCH_excgange\data/280202_REPSWITCH1_version2_list2_2023-12-04_18h16.18.981_micRespv2l2_recorded\recording_micRespv2l2_2023-12-04_18h22.00.632.wav;348.18782960018143;348.6878623999655;None;348.18782960018143;348.18782960018143;348.18782960018143;348.18782960018143;348.18782960018143;348.18782960018143;;;;;;;280202;001;2023-12-04_18h16.18.981;REPSWITCH1_version2_list2;2022.2.4;143.8906896822052;
REPSWITCH1/PICTURE_30.png;granja;type;gold;filler;1;F;3;3;2;2;Stim5_Set2;1;switch;68;67;68;0;67;67;67;;;;;;;;;;;;;;;;;;;;;;;348.6878623999655;349.72972740000114;349.72972740000114;349.72972740000114;349.72972740000114;349.72972740000114;349.72972740000114;349.72972740000114;349.72972740000114;['g', 'r', 'a', 'n', 'j', 'a'];0;granja;C:\2023\REPSWITCH21092023\REPSWITCH_excgange\REPSWITCH_excgange\data/280202_REPSWITCH1_version2_list2_2023-12-04_18h16.18.981_micRespv2l2_recorded\recording_micRespv2l2_2023-12-04_18h22.05.195.wav;352.7508970000781;353.25095750018954;None;352.7508970000781;352.7508970000781;352.7508970000781;352.7508970000781;352.7508970000781;352.7508970000781;[1.1260917000472546, 1.168969000224024, 1.242718200199306, 1.3733570999465883, 1.5482820002362132, 1.9241623999550939];;;;;;280202;001;2023-12-04_18h16.18.981;REPSWITCH1_version2_list2;2022.2.4;143.8906896822052;
REPSWITCH1/PICTURE_242.png;cartero;type;gold;nontarget;1;NT;3;3;2;2;Stim3_Set3;0;None;69;68;69;0;68;68;68;;;;;;;;;;;;;;;;;;;;;;;353.25095750018954;354.2928527002223;354.2928527002223;354.2928527002223;354.2928527002223;354.2928527002223;354.2928527002223;354.2928527002223;354.2928527002223;['c', 'a', 'r', 't', 'e', 'r', 'o'];0;cartero;C:\2023\REPSWITCH21092023\REPSWITCH_excgange\REPSWITCH_excgange\data/280202_REPSWITCH1_version2_list2_2023-12-04_18h16.18.981_micRespv2l2_recorded\recording_micRespv2l2_2023-12-04_18h22.09.758.wav;357.3140731998719;357.814082399942;None;357.3140731998719;357.3140731998719;357.3140731998719;357.3140731998719;357.3140731998719;357.3140731998719;[0.796537300106138, 0.9471661001443863, 1.1385806002654135, 1.3092156001366675, 1.3779806001111865, 1.455029800068587, 1.6537386002019048];;;;;;280202;001;2023-12-04_18h16.18.981;REPSWITCH1_version2_list2;2022.2.4;143.8906896822052;
REPSWITCH1/PICTURE_242.png;cartero;type;gold;repeat;1;T;3;3;2;2;Stim3_Set3;0;None;70;69;70;0;69;69;69;;;;;;;;;;;;;;;;;;;;;;;357.814082399942;358.883730399888;358.883730399888;358.883730399888;358.883730399888;358.883730399888;358.883730399888;358.883730399888;358.883730399888;['c', 'a', 'r', 't', 'e', 'r', 'i', 'backspace', 'o'];0;cartero;C:\2023\REPSWITCH21092023\REPSWITCH_excgange\REPSWITCH_excgange\data/280202_REPSWITCH1_version2_list2_2023-12-04_18h16.18.981_micRespv2l2_recorded\recording_micRespv2l2_2023-12-04_18h22.14.349.wav;361.9048659000546;362.404939299915;None;361.9048659000546;361.9048659000546;361.9048659000546;361.9048659000546;361.9048659000546;361.9048659000546;[0.7899273005314171, 0.9593149004504085, 1.1606271001510322, 1.3231805004179478, 1.413821800146252, 1.4849038003012538, 1.8958091004751623, 2.2497193003073335, 2.547425900120288];;;;;;280202;001;2023-12-04_18h16.18.981;REPSWITCH1_version2_list2;2022.2.4;143.8906896822052;
REPSWITCH1/PICTURE_264.png;mano;speak;darkblue;filler;2;F;3;3;2;2;Stim3_Set2;1;switch;71;70;71;0;70;70;70;;;;;;;;;;;;;;;;;;;;;;;362.404939299915;363.52314640022814;363.52314640022814;363.52314640022814;363.52314640022814;363.52314640022814;363.52314640022814;363.52314640022814;363.52314640022814;None;0;;C:\2023\REPSWITCH21092023\REPSWITCH_excgange\REPSWITCH_excgange\data/280202_REPSWITCH1_version2_list2_2023-12-04_18h16.18.981_micRespv2l2_recorded\recording_micRespv2l2_2023-12-04_18h22.18.988.wav;366.5443994002417;367.0444658002816;None;366.5443994002417;366.5443994002417;366.5443994002417;366.5443994002417;366.5443994002417;366.5443994002417;;;;;;;280202;001;2023-12-04_18h16.18.981;REPSWITCH1_version2_list2;2022.2.4;143.8906896822052;
REPSWITCH1/PICTURE_576.png;guante;type;gold;nontarget;1;NT;3;3;2;2;Stim1_Set3;1;switch;72;71;72;0;71;71;71;;;;;;;;;;;;;;;;;;;;;;;367.0444658002816;368.14185700006783;368.14185700006783;368.14185700006783;368.14185700006783;368.14185700006783;368.14185700006783;368.14185700006783;368.14185700006783;['g', 'u', 'a', 'n', 't', 'e'];0;guante;C:\2023\REPSWITCH21092023\REPSWITCH_excgange\REPSWITCH_excgange\data/280202_REPSWITCH1_version2_list2_2023-12-04_18h16.18.981_micRespv2l2_recorded\recording_micRespv2l2_2023-12-04_18h22.23.607.wav;371.16307200025767;371.66311520012096;None;371.16307200025767;371.16307200025767;371.16307200025767;371.16307200025767;371.16307200025767;371.16307200025767;[0.9806935000233352, 1.091228200122714, 1.1928793997503817, 1.2656736001372337, 1.358918699901551, 1.533498200122267];;;;;;280202;001;2023-12-04_18h16.18.981;REPSWITCH1_version2_list2;2022.2.4;143.8906896822052;
REPSWITCH1/PICTURE_576.png;guante;type;gold;repeat;1;T;3;3;2;2;Stim1_Set3;0;None;73;72;73;0;72;72;72;;;;;;;;;;;;;;;;;;;;;;;371.66311520012096;372.7188508003019;372.7188508003019;372.7188508003019;372.7188508003019;372.7188508003019;372.7188508003019;372.7188508003019;372.7188508003019;['g', 'u', 'a', 'n', 't', 'e', 's', 'backspace'];0;guante;C:\2023\REPSWITCH21092023\REPSWITCH_excgange\REPSWITCH_excgange\data/280202_REPSWITCH1_version2_list2_2023-12-04_18h16.18.981_micRespv2l2_recorded\recording_micRespv2l2_2023-12-04_18h22.28.184.wav;375.740014300216;376.2401183000766;None;375.740014300216;375.740014300216;375.740014300216;375.740014300216;375.740014300216;375.740014300216;[0.8855016999877989, 1.0233041001483798, 1.1189484000205994, 1.1969925998710096, 1.3086513997986913, 1.3707996997982264, 1.5484545999206603, 1.9540931000374258];;;;;;280202;001;2023-12-04_18h16.18.981;REPSWITCH1_version2_list2;2022.2.4;143.8906896822052;
REPSWITCH1/PICTURE_175.png;pintor;speak;darkblue;filler;2;F;3;3;2;2;Stim1_Set2;0;None;74;73;74;0;73;73;73;;;;;;;;;;;;;;;;;;;;;;;376.2401183000766;377.3305183001794;377.3305183001794;377.3305183001794;377.3305183001794;377.3305183001794;377.3305183001794;377.3305183001794;377.3305183001794;None;0;;C:\2023\REPSWITCH21092023\REPSWITCH_excgange\REPSWITCH_excgange\data/280202_REPSWITCH1_version2_list2_2023-12-04_18h16.18.981_micRespv2l2_recorded\recording_micRespv2l2_2023-12-04_18h22.32.797.wav;380.3517581000924;380.85182760003954;None;380.3517581000924;380.3517581000924;380.3517581000924;380.3517581000924;380.3517581000924;380.3517581000924;;;;;;;280202;001;2023-12-04_18h16.18.981;REPSWITCH1_version2_list2;2022.2.4;143.8906896822052;
REPSWITCH1/PICTURE_498.png;taza;type;gold;nontarget;1;NT;4;3;2;2;Stim4_Set4;0;None;75;74;75;0;74;74;74;;;;;;;;;;;;;;;;;;;;;;;380.85182760003954;381.9422466000542;381.9422466000542;381.9422466000542;381.9422466000542;381.9422466000542;381.9422466000542;381.9422466000542;381.9422466000542;['t', 'a', 'z', 'a'];0;taza;C:\2023\REPSWITCH21092023\REPSWITCH_excgange\REPSWITCH_excgange\data/280202_REPSWITCH1_version2_list2_2023-12-04_18h16.18.981_micRespv2l2_recorded\recording_micRespv2l2_2023-12-04_18h22.37.407.wav;384.96348850009963;385.46353239985183;None;384.96348850009963;384.96348850009963;384.96348850009963;384.96348850009963;384.96348850009963;384.96348850009963;[0.7940290998667479, 0.900664699729532, 1.1109700999222696, 1.3651483999565244];;;;;;280202;001;2023-12-04_18h16.18.981;REPSWITCH1_version2_list2;2022.2.4;143.8906896822052;
REPSWITCH1/PICTURE_498.png;taza;type;gold;repeat;1;T;4;3;2;2;Stim4_Set4;0;None;76;75;76;0;75;75;75;;;;;;;;;;;;;;;;;;;;;;;385.46353239985183;386.4706144002266;386.4706144002266;386.4706144002266;386.4706144002266;386.4706144002266;386.4706144002266;386.4706144002266;386.4706144002266;['t', 'a', 'z', 'a'];0;taza;C:\2023\REPSWITCH21092023\REPSWITCH_excgange\REPSWITCH_excgange\data/280202_REPSWITCH1_version2_list2_2023-12-04_18h16.18.981_micRespv2l2_recorded\recording_micRespv2l2_2023-12-04_18h22.41.935.wav;389.49183929990977;389.9919011001475;None;389.49183929990977;389.49183929990977;389.49183929990977;389.49183929990977;389.49183929990977;389.49183929990977;[0.7555341003462672, 0.8787721004337072, 1.0980982002802193, 1.3114534001797438];;;;;;280202;001;2023-12-04_18h16.18.981;REPSWITCH1_version2_list2;2022.2.4;143.8906896822052;
REPSWITCH1/PICTURE_235.png;aguja;speak;darkblue;filler;2;F;4;3;2;2;Stim4_Set3;0;None;77;76;77;0;76;76;76;;;;;;;;;;;;;;;;;;;;;;;389.9919011001475;391.0963043002412;391.0963043002412;391.0963043002412;391.0963043002412;391.0963043002412;391.0963043002412;391.0963043002412;391.0963043002412;None;0;;C:\2023\REPSWITCH21092023\REPSWITCH_excgange\REPSWITCH_excgange\data/280202_REPSWITCH1_version2_list2_2023-12-04_18h16.18.981_micRespv2l2_recorded\recording_micRespv2l2_2023-12-04_18h22.46.561.wav;394.1244810000062;;None;394.1244810000062;394.1244810000062;394.1244810000062;394.1244810000062;394.1244810000062;394.1244810000062;;;;;;;280202;001;2023-12-04_18h16.18.981;REPSWITCH1_version2_list2;2022.2.4;143.8906896822052;
REPSWITCH1/PICTURE_338.png;regalo;type;gold;nontarget;1;NT;4;3;2;2;Stim6_Set4;1;switch;78;77;78;0;77;77;77;;;;;;;;;;;;;;;;;;;;;;;394.6245475001633;395.74964459985495;395.74964459985495;395.74964459985495;395.74964459985495;395.74964459985495;395.74964459985495;395.74964459985495;395.74964459985495;['r', 'e', 'g', 'a', 'l', 'o'];0;regalo;C:\2023\REPSWITCH21092023\REPSWITCH_excgange\REPSWITCH_excgange\data/280202_REPSWITCH1_version2_list2_2023-12-04_18h16.18.981_micRespv2l2_recorded\recording_micRespv2l2_2023-12-04_18h22.51.215.wav;398.7708928999491;399.2709727999754;None;398.7708928999491;398.7708928999491;398.7708928999491;398.7708928999491;398.7708928999491;398.7708928999491;[1.2317051999270916, 1.28448580019176, 1.4702388998121023, 1.6527424999512732, 1.720729200169444, 1.8482097000814974];;;;;;280202;001;2023-12-04_18h16.18.981;REPSWITCH1_version2_list2;2022.2.4;143.8906896822052;
REPSWITCH1/PICTURE_338.png;regalo;speak;darkblue;switch;2;T;4;3;2;2;Stim6_Set4;0;None;79;78;79;0;78;78;78;;;;;;;;;;;;;;;;;;;;;;;399.2709727999754;400.47939370013773;400.47939370013773;400.47939370013773;400.47939370013773;400.47939370013773;400.47939370013773;400.47939370013773;400.47939370013773;None;0;;C:\2023\REPSWITCH21092023\REPSWITCH_excgange\REPSWITCH_excgange\data/280202_REPSWITCH1_version2_list2_2023-12-04_18h16.18.981_micRespv2l2_recorded\recording_micRespv2l2_2023-12-04_18h22.55.944.wav;403.50762510020286;;None;403.50762510020286;403.50762510020286;403.50762510020286;403.50762510020286;403.50762510020286;403.50762510020286;;;;;;;280202;001;2023-12-04_18h16.18.981;REPSWITCH1_version2_list2;2022.2.4;143.8906896822052;
REPSWITCH1/PICTURE_719.png;baño;speak;darkblue;nontarget;2;NT;4;3;2;2;Stim2_Set4;1;repeat;80;79;80;0;79;79;79;;;;;;;;;;;;;;;;;;;;;;;404.00766019988805;405.17446430027485;405.17446430027485;405.17446430027485;405.17446430027485;405.17446430027485;405.17446430027485;405.17446430027485;405.17446430027485;None;0;;C:\2023\REPSWITCH21092023\REPSWITCH_excgange\REPSWITCH_excgange\data/280202_REPSWITCH1_version2_list2_2023-12-04_18h16.18.981_micRespv2l2_recorded\recording_micRespv2l2_2023-12-04_18h23.00.640.wav;408.20267309993505;;None;408.20267309993505;408.20267309993505;408.20267309993505;408.20267309993505;408.20267309993505;408.20267309993505;;;;;;;280202;001;2023-12-04_18h16.18.981;REPSWITCH1_version2_list2;2022.2.4;143.8906896822052;
REPSWITCH1/PICTURE_719.png;baño;speak;darkblue;repeat;2;T;4;3;2;2;Stim2_Set4;0;None;81;80;81;0;80;80;80;;;;;;;;;;;;;;;;;;;;;;;408.702716300264;409.7723163003102;409.7723163003102;409.7723163003102;409.7723163003102;409.7723163003102;409.7723163003102;409.7723163003102;409.7723163003102;None;0;;C:\2023\REPSWITCH21092023\REPSWITCH_excgange\REPSWITCH_excgange\data/280202_REPSWITCH1_version2_list2_2023-12-04_18h16.18.981_micRespv2l2_recorded\recording_micRespv2l2_2023-12-04_18h23.05.238.wav;412.8004828998819;;None;412.8004828998819;412.8004828998819;412.8004828998819;412.8004828998819;412.8004828998819;412.8004828998819;;;;;;;280202;001;2023-12-04_18h16.18.981;REPSWITCH1_version2_list2;2022.2.4;143.8906896822052;
REPSWITCH1/PICTURE_271.png;conejo;type;gold;filler;1;F;4;3;2;2;Stim7_Set3;0;None;82;81;82;0;81;81;81;;;;;;;;;;;;;;;;;;;;;;;413.3005452998914;414.38402350014076;414.38402350014076;414.38402350014076;414.38402350014076;414.38402350014076;414.38402350014076;414.38402350014076;414.38402350014076;['c', 'o', 'n', 'e', 'j', 'o'];0;conejo;C:\2023\REPSWITCH21092023\REPSWITCH_excgange\REPSWITCH_excgange\data/280202_REPSWITCH1_version2_list2_2023-12-04_18h16.18.981_micRespv2l2_recorded\recording_micRespv2l2_2023-12-04_18h23.09.849.wav;417.40532420016825;417.90532420016825;None;417.40532420016825;417.40532420016825;417.40532420016825;417.40532420016825;417.40532420016825;417.40532420016825;[0.8641152000054717, 1.0415642000734806, 1.213967700023204, 1.3355232002213597, 1.408315199892968, 1.5720772999338806];;;;;;280202;001;2023-12-04_18h16.18.981;REPSWITCH1_version2_list2;2022.2.4;143.8906896822052;
REPSWITCH1/PICTURE_610.png;miel;speak;darkblue;filler;2;F;4;3;2;2;Stim2_Set3;0;None;83;82;83;0;82;82;82;;;;;;;;;;;;;;;;;;;;;;;417.90532420016825;419.09993779985234;419.09993779985234;419.09993779985234;419.09993779985234;419.09993779985234;419.09993779985234;419.09993779985234;419.09993779985234;None;0;;C:\2023\REPSWITCH21092023\REPSWITCH_excgange\REPSWITCH_excgange\data/280202_REPSWITCH1_version2_list2_2023-12-04_18h16.18.981_micRespv2l2_recorded\recording_micRespv2l2_2023-12-04_18h23.14.565.wav;422.1281413002871;;None;422.1281413002871;422.1281413002871;422.1281413002871;422.1281413002871;422.1281413002871;422.1281413002871;;;;;;;280202;001;2023-12-04_18h16.18.981;REPSWITCH1_version2_list2;2022.2.4;143.8906896822052;
REPSWITCH1/PICTURE_687.png;camisa;speak;darkblue;nontarget;2;NT;4;3;2;2;Stim5_Set4;1;repeat;84;83;84;0;83;83;83;;;;;;;;;;;;;;;;;;;;;;;422.62817140016705;423.71857380028814;423.71857380028814;423.71857380028814;423.71857380028814;423.71857380028814;423.71857380028814;423.71857380028814;423.71857380028814;None;0;;C:\2023\REPSWITCH21092023\REPSWITCH_excgange\REPSWITCH_excgange\data/280202_REPSWITCH1_version2_list2_2023-12-04_18h16.18.981_micRespv2l2_recorded\recording_micRespv2l2_2023-12-04_18h23.19.183.wav;426.7397977001965;427.2398459999822;None;426.7397977001965;426.7397977001965;426.7397977001965;426.7397977001965;426.7397977001965;426.7397977001965;;;;;;;280202;001;2023-12-04_18h16.18.981;REPSWITCH1_version2_list2;2022.2.4;143.8906896822052;
REPSWITCH1/PICTURE_687.png;camisa;type;gold;switch;1;T;4;3;2;2;Stim5_Set4;0;None;85;84;85;0;84;84;84;;;;;;;;;;;;;;;;;;;;;;;427.2398459999822;428.28862030012533;428.28862030012533;428.28862030012533;428.28862030012533;428.28862030012533;428.28862030012533;428.28862030012533;428.28862030012533;['c', 'a', 'i', 's', 'a', 'backspace', 'backspace', 'backspace', 'i', 'o', 's'];0;caios;C:\2023\REPSWITCH21092023\REPSWITCH_excgange\REPSWITCH_excgange\data/280202_REPSWITCH1_version2_list2_2023-12-04_18h16.18.981_micRespv2l2_recorded\recording_micRespv2l2_2023-12-04_18h23.23.753.wav;431.30982539989054;431.80989190004766;None;431.30982539989054;431.30982539989054;431.30982539989054;431.30982539989054;431.30982539989054;431.30982539989054;[1.0146315000019968, 1.1431669001467526, 1.7254901002161205, 1.8171471999958158, 1.9278188003227115, 2.1593031003139913, 2.3038173001259565, 2.4204349000938237, 2.858238000422716, 2.8622211003676057, 2.9718516003340483];;;;;;280202;001;2023-12-04_18h16.18.981;REPSWITCH1_version2_list2;2022.2.4;143.8906896822052;
REPSWITCH1/PICTURE_319.png;vaca;type;gold;nontarget;1;NT;4;3;2;2;Stim1_Set4;0;None;86;85;86;0;85;85;85;;;;;;;;;;;;;;;;;;;;;;;431.80989190004766;432.9142232001759;432.9142232001759;432.9142232001759;432.9142232001759;432.9142232001759;432.9142232001759;432.9142232001759;432.9142232001759;['v', 'a', 'c', 'a'];0;vaca;C:\2023\REPSWITCH21092023\REPSWITCH_excgange\REPSWITCH_excgange\data/280202_REPSWITCH1_version2_list2_2023-12-04_18h16.18.981_micRespv2l2_recorded\recording_micRespv2l2_2023-12-04_18h23.28.380.wav;435.9354424001649;436.4355441001244;None;435.9354424001649;435.9354424001649;435.9354424001649;435.9354424001649;435.9354424001649;435.9354424001649;[0.8565314002335072, 1.0212344001047313, 1.1948101003654301, 1.3133391002193093];;;;;;280202;001;2023-12-04_18h16.18.981;REPSWITCH1_version2_list2;2022.2.4;143.8906896822052;
REPSWITCH1/PICTURE_319.png;vaca;speak;darkblue;switch;2;T;4;3;2;2;Stim1_Set4;0;None;87;86;87;0;86;86;86;;;;;;;;;;;;;;;;;;;;;;;436.4355441001244;437.44263629987836;437.44263629987836;437.44263629987836;437.44263629987836;437.44263629987836;437.44263629987836;437.44263629987836;437.44263629987836;None;0;;C:\2023\REPSWITCH21092023\REPSWITCH_excgange\REPSWITCH_excgange\data/280202_REPSWITCH1_version2_list2_2023-12-04_18h16.18.981_micRespv2l2_recorded\recording_micRespv2l2_2023-12-04_18h23.32.908.wav;440.4638231000863;440.9638832001947;None;440.4638231000863;440.4638231000863;440.4638231000863;440.4638231000863;440.4638231000863;440.4638231000863;;;;;;;280202;001;2023-12-04_18h16.18.981;REPSWITCH1_version2_list2;2022.2.4;143.8906896822052;
REPSWITCH1/PICTURE_464.png;goma;type;gold;filler;1;F;4;3;2;2;Stim6_Set3;1;switch;88;87;88;0;87;87;87;;;;;;;;;;;;;;;;;;;;;;;440.9638832001947;442.0057125999592;442.0057125999592;442.0057125999592;442.0057125999592;442.0057125999592;442.0057125999592;442.0057125999592;442.0057125999592;['g', 'o', 'm', 'a'];0;goma;C:\2023\REPSWITCH21092023\REPSWITCH_excgange\REPSWITCH_excgange\data/280202_REPSWITCH1_version2_list2_2023-12-04_18h16.18.981_micRespv2l2_recorded\recording_micRespv2l2_2023-12-04_18h23.37.471.wav;445.0269221998751;445.527021500282;None;445.0269221998751;445.0269221998751;445.0269221998751;445.0269221998751;445.0269221998751;445.0269221998751;[1.155177699867636, 1.3963673999533057, 1.5558807998895645, 1.6170189999975264];;;;;;280202;001;2023-12-04_18h16.18.981;REPSWITCH1_version2_list2;2022.2.4;143.8906896822052;
REPSWITCH1/PICTURE_728.png;pulpo;speak;darkblue;nontarget;2;NT;4;3;2;2;Stim8_Set4;1;switch;89;88;89;0;88;88;88;;;;;;;;;;;;;;;;;;;;;;;445.527021500282;446.6660902001895;446.6660902001895;446.6660902001895;446.6660902001895;446.6660902001895;446.6660902001895;446.6660902001895;446.6660902001895;None;0;;C:\2023\REPSWITCH21092023\REPSWITCH_excgange\REPSWITCH_excgange\data/280202_REPSWITCH1_version2_list2_2023-12-04_18h16.18.981_micRespv2l2_recorded\recording_micRespv2l2_2023-12-04_18h23.42.131.wav;449.69429720006883;;None;449.69429720006883;449.69429720006883;449.69429720006883;449.69429720006883;449.69429720006883;449.69429720006883;;;;;;;280202;001;2023-12-04_18h16.18.981;REPSWITCH1_version2_list2;2022.2.4;143.8906896822052;
REPSWITCH1/PICTURE_728.png;pulpo;speak;darkblue;repeat;2;T;4;3;2;2;Stim8_Set4;0;None;90;89;90;0;89;89;89;;;;;;;;;;;;;;;;;;;;;;;450.1942758001387;451.27081600017846;451.27081600017846;451.27081600017846;451.27081600017846;451.27081600017846;451.27081600017846;451.27081600017846;451.27081600017846;None;0;;C:\2023\REPSWITCH21092023\REPSWITCH_excgange\REPSWITCH_excgange\data/280202_REPSWITCH1_version2_list2_2023-12-04_18h16.18.981_micRespv2l2_recorded\recording_micRespv2l2_2023-12-04_18h23.46.736.wav;454.2921032998711;454.79211609996855;None;454.2921032998711;454.2921032998711;454.2921032998711;454.2921032998711;454.2921032998711;454.2921032998711;;;;;;;280202;001;2023-12-04_18h16.18.981;REPSWITCH1_version2_list2;2022.2.4;143.8906896822052;
REPSWITCH1/PICTURE_320.png;iglesia;type;gold;filler;1;F;4;3;2;2;Stim8_Set3;0;None;91;90;91;0;90;90;90;;;;;;;;;;;;;;;;;;;;;;;454.79211609996855;455.95891060028225;455.95891060028225;455.95891060028225;455.95891060028225;455.95891060028225;455.95891060028225;455.95891060028225;455.95891060028225;['i', 'g', 'l', 'e', 's', 'i', 'a'];0;iglesia;C:\2023\REPSWITCH21092023\REPSWITCH_excgange\REPSWITCH_excgange\data/280202_REPSWITCH1_version2_list2_2023-12-04_18h16.18.981_micRespv2l2_recorded\recording_micRespv2l2_2023-12-04_18h23.51.424.wav;458.980161299929;459.4802357000299;None;458.980161299929;458.980161299929;458.980161299929;458.980161299929;458.980161299929;458.980161299929;[0.9663009000942111, 1.0571138001978397, 1.211585400160402, 1.3262248001992702, 1.5719463001005352, 1.6676632999442518, 1.7856223001144826];;;;;;280202;001;2023-12-04_18h16.18.981;REPSWITCH1_version2_list2;2022.2.4;143.8906896822052;
REPSWITCH1/PICTURE_576.png;guante;speak;darkblue;filler;2;F;4;3;2;2;Stim1_Set3;0;None;92;91;92;0;91;91;91;;;;;;;;;;;;;;;;;;;;;;;459.4802357000299;460.6470325998962;460.6470325998962;460.6470325998962;460.6470325998962;460.6470325998962;460.6470325998962;460.6470325998962;460.6470325998962;None;0;;C:\2023\REPSWITCH21092023\REPSWITCH_excgange\REPSWITCH_excgange\data/280202_REPSWITCH1_version2_list2_2023-12-04_18h16.18.981_micRespv2l2_recorded\recording_micRespv2l2_2023-12-04_18h23.56.112.wav;463.67523419996724;;None;463.67523419996724;463.67523419996724;463.67523419996724;463.67523419996724;463.67523419996724;463.67523419996724;;;;;;;280202;001;2023-12-04_18h16.18.981;REPSWITCH1_version2_list2;2022.2.4;143.8906896822052;
REPSWITCH1/PICTURE_8.png;pierna;speak;darkblue;nontarget;2;NT;4;3;2;2;Stim3_Set4;1;repeat;93;92;93;0;92;92;92;;;;;;;;;;;;;;;;;;;;;;;464.17528309999034;465.3283110000193;465.3283110000193;465.3283110000193;465.3283110000193;465.3283110000193;465.3283110000193;465.3283110000193;465.3283110000193;None;0;;C:\2023\REPSWITCH21092023\REPSWITCH_excgange\REPSWITCH_excgange\data/280202_REPSWITCH1_version2_list2_2023-12-04_18h16.18.981_micRespv2l2_recorded\recording_micRespv2l2_2023-12-04_18h24.00.793.wav;468.3494702000171;468.8495028000325;None;468.3494702000171;468.3494702000171;468.3494702000171;468.3494702000171;468.3494702000171;468.3494702000171;;;;;;;280202;001;2023-12-04_18h16.18.981;REPSWITCH1_version2_list2;2022.2.4;143.8906896822052;
REPSWITCH1/PICTURE_8.png;pierna;type;gold;switch;1;T;4;3;2;2;Stim3_Set4;0;None;94;93;94;0;93;93;93;;;;;;;;;;;;;;;;;;;;;;;468.8495028000325;470.11359710013494;470.11359710013494;470.11359710013494;470.11359710013494;470.11359710013494;470.11359710013494;470.11359710013494;470.11359710013494;['p', 'i', 'e', 'r', 'n', 'a'];0;pierna;C:\2023\REPSWITCH21092023\REPSWITCH_excgange\REPSWITCH_excgange\data/280202_REPSWITCH1_version2_list2_2023-12-04_18h16.18.981_micRespv2l2_recorded\recording_micRespv2l2_2023-12-04_18h24.05.578.wav;473.1347838998772;473.6348379999399;None;473.1347838998772;473.1347838998772;473.1347838998772;473.1347838998772;473.1347838998772;473.1347838998772;[1.340621500276029, 1.5241255001164973, 1.606742599979043, 1.6595608000643551, 1.7526390999555588, 1.8672241000458598];;;;;;280202;001;2023-12-04_18h16.18.981;REPSWITCH1_version2_list2;2022.2.4;143.8906896822052;
REPSWITCH1/PICTURE_673.png;tenedor;speak;darkblue;filler;2;F;4;3;2;2;Extra5;0;None;95;94;95;0;94;94;94;;;;;;;;;;;;;;;;;;;;;;;473.6348379999399;474.74618780007586;474.74618780007586;474.74618780007586;474.74618780007586;474.74618780007586;474.74618780007586;474.74618780007586;474.74618780007586;None;0;;C:\2023\REPSWITCH21092023\REPSWITCH_excgange\REPSWITCH_excgange\data/280202_REPSWITCH1_version2_list2_2023-12-04_18h16.18.981_micRespv2l2_recorded\recording_micRespv2l2_2023-12-04_18h24.10.211.wav;477.7673325003125;478.2674465002492;None;477.7673325003125;477.7673325003125;477.7673325003125;477.7673325003125;477.7673325003125;477.7673325003125;;;;;;;280202;001;2023-12-04_18h16.18.981;REPSWITCH1_version2_list2;2022.2.4;143.8906896822052;
REPSWITCH1/PICTURE_35.png;oreja;type;gold;filler;1;F;4;3;2;2;Stim5_Set3;1;switch;96;95;96;0;95;95;95;;;;;;;;;;;;;;;;;;;;;;;478.2674465002492;479.3787020002492;479.3787020002492;479.3787020002492;479.3787020002492;479.3787020002492;479.3787020002492;479.3787020002492;479.3787020002492;['o', 'r', 'e', 'j', 'a'];0;oreja;C:\2023\REPSWITCH21092023\REPSWITCH_excgange\REPSWITCH_excgange\data/280202_REPSWITCH1_version2_list2_2023-12-04_18h16.18.981_micRespv2l2_recorded\recording_micRespv2l2_2023-12-04_18h24.14.843.wav;482.399895099923;482.8999803001061;None;482.399895099923;482.399895099923;482.399895099923;482.399895099923;482.399895099923;482.399895099923;[1.274993299972266, 1.399661600124091, 1.423522099852562, 1.52046940010041, 1.6600608001463115];;;;;;280202;001;2023-12-04_18h16.18.981;REPSWITCH1_version2_list2;2022.2.4;143.8906896822052;
REPSWITCH1/PICTURE_663.png;columna;speak;darkblue;filler;2;F;4;3;2;2;Extra6;0;None;97;96;97;0;96;96;96;;;;;;;;;;;;;;;;;;;;;;;482.8999803001061;483.93487180024385;483.93487180024385;483.93487180024385;483.93487180024385;483.93487180024385;483.93487180024385;483.93487180024385;483.93487180024385;None;0;;C:\2023\REPSWITCH21092023\REPSWITCH_excgange\REPSWITCH_excgange\data/280202_REPSWITCH1_version2_list2_2023-12-04_18h16.18.981_micRespv2l2_recorded\recording_micRespv2l2_2023-12-04_18h24.19.401.wav;486.96300949994475;;None;486.96300949994475;486.96300949994475;486.96300949994475;486.96300949994475;486.96300949994475;486.96300949994475;;;;;;;280202;001;2023-12-04_18h16.18.981;REPSWITCH1_version2_list2;2022.2.4;143.8906896822052;
REPSWITCH1/PICTURE_242.png;cartero;type;gold;filler;1;F;4;3;2;2;Stim3_Set3;1;switch;98;97;98;0;97;97;97;;;;;;;;;;;;;;;;;;;;;;;487.4630928002298;488.53265909990296;488.53265909990296;488.53265909990296;488.53265909990296;488.53265909990296;488.53265909990296;488.53265909990296;488.53265909990296;['c', 'a', 'r', 't', 'e', 'e', 'r', 'i', 'backspace', 'backspace', 'o', 'backspace', 'backspace', 'r'];0;carter;C:\2023\REPSWITCH21092023\REPSWITCH_excgange\REPSWITCH_excgange\data/280202_REPSWITCH1_version2_list2_2023-12-04_18h16.18.981_micRespv2l2_recorded\recording_micRespv2l2_2023-12-04_18h24.23.998.wav;491.5538925002329;492.05394540028647;None;491.5538925002329;491.5538925002329;491.5538925002329;491.5538925002329;491.5538925002329;491.5538925002329;[0.7632130002602935, 0.9107239004224539, 1.0560195003636181, 1.25670070014894, 1.3464236003346741, 1.5517144002951682, 1.5676555004902184, 1.7311168001033366, 2.069584400393069, 2.222378700505942, 2.436021600384265, 2.695123700425029, 2.829705400392413, 2.953292400110513];;;;;;280202;001;2023-12-04_18h16.18.981;REPSWITCH1_version2_list2;2022.2.4;143.8906896822052;
REPSWITCH1/PICTURE_48.png;bombero;type;gold;nontarget;1;NT;4;3;2;2;Stim7_Set4;1;repeat;99;98;99;0;98;98;98;;;;;;;;;;;;;;;;;;;;;;;492.05394540028647;493.13745569996536;493.13745569996536;493.13745569996536;493.13745569996536;493.13745569996536;493.13745569996536;493.13745569996536;493.13745569996536;['b', 'o', 'm', 'b', 'e', 'r', 'o'];0;bombero;C:\2023\REPSWITCH21092023\REPSWITCH_excgange\REPSWITCH_excgange\data/280202_REPSWITCH1_version2_list2_2023-12-04_18h16.18.981_micRespv2l2_recorded\recording_micRespv2l2_2023-12-04_18h24.28.602.wav;496.15867390017956;496.65878680022433;None;496.15867390017956;496.15867390017956;496.15867390017956;496.15867390017956;496.15867390017956;496.15867390017956;[0.9011701000854373, 1.1058062999509275, 1.2772110998630524, 1.469877999741584, 1.6121755000203848, 1.6649915999732912, 1.8195458999834955];;;;;;280202;001;2023-12-04_18h16.18.981;REPSWITCH1_version2_list2;2022.2.4;143.8906896822052;
REPSWITCH1/PICTURE_48.png;bombero;type;gold;repeat;1;T;4;3;2;2;Stim7_Set4;0;None;100;99;100;0;99;99;99;;;;;;;;;;;;;;;;;;;;;;;496.65878680022433;497.7074833000079;497.7074833000079;497.7074833000079;497.7074833000079;497.7074833000079;497.7074833000079;497.7074833000079;497.7074833000079;['b', 'o', 'm', 'b', 'e', 'r', 'o'];0;bombero;C:\2023\REPSWITCH21092023\REPSWITCH_excgange\REPSWITCH_excgange\data/280202_REPSWITCH1_version2_list2_2023-12-04_18h16.18.981_micRespv2l2_recorded\recording_micRespv2l2_2023-12-04_18h24.33.172.wav;500.72868409985676;501.22875889996067;None;500.72868409985676;500.72868409985676;500.72868409985676;500.72868409985676;500.72868409985676;500.72868409985676;[0.8743287003599107, 1.1016123001463711, 1.2847340004518628, 1.4920191001147032, 1.6051717004738748, 1.6669936003163457, 1.8172760005109012];;;;;;280202;001;2023-12-04_18h16.18.981;REPSWITCH1_version2_list2;2022.2.4;143.8906896822052;
REPSWITCH1/PICTURE_391.png;cadena;speak;darkblue;filler;2;F;4;3;2;2;Extra2;0;None;101;100;101;0;100;100;100;;;;;;;;;;;;;;;;;;;;;;;501.22875889996067;502.2844588998705;502.2844588998705;502.2844588998705;502.2844588998705;502.2844588998705;502.2844588998705;502.2844588998705;502.2844588998705;None;0;;C:\2023\REPSWITCH21092023\REPSWITCH_excgange\REPSWITCH_excgange\data/280202_REPSWITCH1_version2_list2_2023-12-04_18h16.18.981_micRespv2l2_recorded\recording_micRespv2l2_2023-12-04_18h24.37.749.wav;505.31271830014884;;None;505.31271830014884;505.31271830014884;505.31271830014884;505.31271830014884;505.31271830014884;505.31271830014884;;;;;;;280202;001;2023-12-04_18h16.18.981;REPSWITCH1_version2_list2;2022.2.4;143.8906896822052;
REPSWITCH1/PICTURE_590.png;escoba;type;gold;filler;1;F;4;3;2;2;Extra3;0;None;102;101;102;0;101;101;101;;;;;;;;;;;;;;;;;;;;;;;505.8126957998611;506.90321259992197;506.90321259992197;506.90321259992197;506.90321259992197;506.90321259992197;506.90321259992197;506.90321259992197;506.90321259992197;['e', 's', 'c', 'o', 'b', 'a'];0;escoba;C:\2023\REPSWITCH21092023\REPSWITCH_excgange\REPSWITCH_excgange\data/280202_REPSWITCH1_version2_list2_2023-12-04_18h16.18.981_micRespv2l2_recorded\recording_micRespv2l2_2023-12-04_18h24.42.368.wav;509.924392899964;510.424436500296;space;509.924392899964;509.924392899964;509.924392899964;509.924392899964;509.924392899964;509.924392899964;[0.7915345001965761, 0.9592003002762794, 1.1316634002141654, 1.2562804999761283, 1.4644548003561795, 1.5681402003392577];510.424436500296;510.424436500296;4.620815500151366;;;280202;001;2023-12-04_18h16.18.981;REPSWITCH1_version2_list2;2022.2.4;143.8906896822052;
REPSWITCH1/PICTURE_340.png;espejo;type;gold;filler;1;F;1;1;2;2;Extra1;0;None;103;102;1;0;102;102;102;;;;;;;;;;;;;;;;;;;;;;;515.0569878001697;516.196006400045;516.196006400045;516.196006400045;516.196006400045;516.196006400045;516.196006400045;516.196006400045;516.196006400045;['e', 's', 'p', 'e', 'j', 'o', 'p', 'backspace'];0;espejo;C:\2023\REPSWITCH21092023\REPSWITCH_excgange\REPSWITCH_excgange\data/280202_REPSWITCH1_version2_list2_2023-12-04_18h16.18.981_micRespv2l2_recorded\recording_micRespv2l2_2023-12-04_18h24.51.661.wav;519.2172492002137;519.71732910024;None;519.2172492002137;519.2172492002137;519.2172492002137;519.2172492002137;519.2172492002137;519.2172492002137;[0.7244035000912845, 0.8778253998607397, 1.0036903000436723, 1.1267213998362422, 1.253230500034988, 1.4426032998599112, 1.4465785999782383, 1.9275058000348508];;;;;;280202;001;2023-12-04_18h16.18.981;REPSWITCH1_version2_list2;2022.2.4;143.8906896822052;
REPSWITCH1/PICTURE_391.png;cadena;speak;darkblue;filler;2;F;1;1;2;2;Extra2;0;None;104;103;2;0;103;103;103;;;;;;;;;;;;;;;;;;;;;;;519.71732910024;520.856374700088;520.856374700088;520.856374700088;520.856374700088;520.856374700088;520.856374700088;520.856374700088;520.856374700088;None;0;;C:\2023\REPSWITCH21092023\REPSWITCH_excgange\REPSWITCH_excgange\data/280202_REPSWITCH1_version2_list2_2023-12-04_18h16.18.981_micRespv2l2_recorded\recording_micRespv2l2_2023-12-04_18h24.56.322.wav;523.8845454999246;;None;523.8845454999246;523.8845454999246;523.8845454999246;523.8845454999246;523.8845454999246;523.8845454999246;;;;;;;280202;001;2023-12-04_18h16.18.981;REPSWITCH1_version2_list2;2022.2.4;143.8906896822052;
REPSWITCH1/PICTURE_178.png;puente;speak;darkblue;nontarget;2;NT;1;1;2;2;Stim1_Set1;1;repeat;105;104;3;0;104;104;104;;;;;;;;;;;;;;;;;;;;;;;524.3846141998656;525.509748800192;525.509748800192;525.509748800192;525.509748800192;525.509748800192;525.509748800192;525.509748800192;525.509748800192;None;0;;C:\2023\REPSWITCH21092023\REPSWITCH_excgange\REPSWITCH_excgange\data/280202_REPSWITCH1_version2_list2_2023-12-04_18h16.18.981_micRespv2l2_recorded\recording_micRespv2l2_2023-12-04_18h25.00.974.wav;528.5309824999422;529.0310615003109;None;528.5309824999422;528.5309824999422;528.5309824999422;528.5309824999422;528.5309824999422;528.5309824999422;;;;;;;280202;001;2023-12-04_18h16.18.981;REPSWITCH1_version2_list2;2022.2.4;143.8906896822052;
REPSWITCH1/PICTURE_178.png;puente;speak;darkblue;repeat;2;T;1;1;2;2;Stim1_Set1;0;None;106;105;4;0;105;105;105;;;;;;;;;;;;;;;;;;;;;;;529.0310615003109;530.0311924000271;530.0311924000271;530.0311924000271;530.0311924000271;530.0311924000271;530.0311924000271;530.0311924000271;530.0311924000271;None;0;;C:\2023\REPSWITCH21092023\REPSWITCH_excgange\REPSWITCH_excgange\data/280202_REPSWITCH1_version2_list2_2023-12-04_18h16.18.981_micRespv2l2_recorded\recording_micRespv2l2_2023-12-04_18h25.05.496.wav;533.0524634001777;533.5524804000743;None;533.0524634001777;533.0524634001777;533.0524634001777;533.0524634001777;533.0524634001777;533.0524634001777;;;;;;;280202;001;2023-12-04_18h16.18.981;REPSWITCH1_version2_list2;2022.2.4;143.8906896822052;
REPSWITCH1/PICTURE_319.png;vaca;type;gold;filler;1;F;1;1;2;2;Stim1_Set4;0;None;107;106;5;0;106;106;106;;;;;;;;;;;;;;;;;;;;;;;533.5524804000743;534.6845637001097;534.6845637001097;534.6845637001097;534.6845637001097;534.6845637001097;534.6845637001097;534.6845637001097;534.6845637001097;['v', 'a', 'c', 'a'];0;vaca;C:\2023\REPSWITCH21092023\REPSWITCH_excgange\REPSWITCH_excgange\data/280202_REPSWITCH1_version2_list2_2023-12-04_18h16.18.981_micRespv2l2_recorded\recording_micRespv2l2_2023-12-04_18h25.10.150.wav;537.7058430002071;538.2058558999561;None;537.7058430002071;537.7058430002071;537.7058430002071;537.7058430002071;537.7058430002071;537.7058430002071;[0.7843321999534965, 0.9582684999331832, 1.1391063001938164, 1.254850400146097];;;;;;280202;001;2023-12-04_18h16.18.981;REPSWITCH1_version2_list2;2022.2.4;143.8906896822052;
REPSWITCH1/PICTURE_381.png;fresa;speak;darkblue;nontarget;2;NT;1;1;2;2;Stim2_Set1;1;switch;108;107;6;0;107;107;107;;;;;;;;;;;;;;;;;;;;;;;538.2058558999561;539.2824619999155;539.2824619999155;539.2824619999155;539.2824619999155;539.2824619999155;539.2824619999155;539.2824619999155;539.2824619999155;None;0;;C:\2023\REPSWITCH21092023\REPSWITCH_excgange\REPSWITCH_excgange\data/280202_REPSWITCH1_version2_list2_2023-12-04_18h16.18.981_micRespv2l2_recorded\recording_micRespv2l2_2023-12-04_18h25.14.747.wav;542.303632600233;542.8036643001251;None;542.303632600233;542.303632600233;542.303632600233;542.303632600233;542.303632600233;542.303632600233;;;;;;;280202;001;2023-12-04_18h16.18.981;REPSWITCH1_version2_list2;2022.2.4;143.8906896822052;
REPSWITCH1/PICTURE_381.png;fresa;speak;darkblue;repeat;2;T;1;1;2;2;Stim2_Set1;0;None;109;108;7;0;108;108;108;;;;;;;;;;;;;;;;;;;;;;;542.8036643001251;543.9288520002738;543.9288520002738;543.9288520002738;543.9288520002738;543.9288520002738;543.9288520002738;543.9288520002738;543.9288520002738;None;0;;C:\2023\REPSWITCH21092023\REPSWITCH_excgange\REPSWITCH_excgange\data/280202_REPSWITCH1_version2_list2_2023-12-04_18h16.18.981_micRespv2l2_recorded\recording_micRespv2l2_2023-12-04_18h25.19.395.wav;546.9570283000357;;None;546.9570283000357;546.9570283000357;546.9570283000357;546.9570283000357;546.9570283000357;546.9570283000357;;;;;;;280202;001;2023-12-04_18h16.18.981;REPSWITCH1_version2_list2;2022.2.4;143.8906896822052;
REPSWITCH1/PICTURE_719.png;baño;type;gold;filler;1;F;1;1;2;2;Stim2_Set4;1;switch;110;109;8;0;109;109;109;;;;;;;;;;;;;;;;;;;;;;;547.457087200135;548.5544358999468;548.5544358999468;548.5544358999468;548.5544358999468;548.5544358999468;548.5544358999468;548.5544358999468;548.5544358999468;['b', 'a', 'ñ', 'o'];0;baño;C:\2023\REPSWITCH21092023\REPSWITCH_excgange\REPSWITCH_excgange\data/280202_REPSWITCH1_version2_list2_2023-12-04_18h16.18.981_micRespv2l2_recorded\recording_micRespv2l2_2023-12-04_18h25.24.020.wav;551.5756592000835;552.0757981999777;None;551.5756592000835;551.5756592000835;551.5756592000835;551.5756592000835;551.5756592000835;551.5756592000835;[0.8709168997593224, 0.9718541000038385, 1.3756339997053146, 1.5550663997419178];;;;;;280202;001;2023-12-04_18h16.18.981;REPSWITCH1_version2_list2;2022.2.4;143.8906896822052;
REPSWITCH1/PICTURE_135.png;traje;speak;darkblue;nontarget;2;NT;1;1;2;2;Stim3_Set1;0;None;111;110;9;0;110;110;110;;;;;;;;;;;;;;;;;;;;;;;552.0757981999777;553.1036752001382;553.1036752001382;553.1036752001382;553.1036752001382;553.1036752001382;553.1036752001382;553.1036752001382;553.1036752001382;None;0;;C:\2023\REPSWITCH21092023\REPSWITCH_excgange\REPSWITCH_excgange\data/280202_REPSWITCH1_version2_list2_2023-12-04_18h16.18.981_micRespv2l2_recorded\recording_micRespv2l2_2023-12-04_18h25.28.569.wav;556.1248602000996;556.6249514999799;None;556.1248602000996;556.1248602000996;556.1248602000996;556.1248602000996;556.1248602000996;556.1248602000996;;;;;;;280202;001;2023-12-04_18h16.18.981;REPSWITCH1_version2_list2;2022.2.4;143.8906896822052;
REPSWITCH1/PICTURE_135.png;traje;type;gold;switch;1;T;1;1;2;2;Stim3_Set1;0;None;112;111;10;0;111;111;111;;;;;;;;;;;;;;;;;;;;;;;556.6249514999799;557.7154002999887;557.7154002999887;557.7154002999887;557.7154002999887;557.7154002999887;557.7154002999887;557.7154002999887;557.7154002999887;['t', 'r', 'a', 'j', 'e'];0;traje;C:\2023\REPSWITCH21092023\REPSWITCH_excgange\REPSWITCH_excgange\data/280202_REPSWITCH1_version2_list2_2023-12-04_18h16.18.981_micRespv2l2_recorded\recording_micRespv2l2_2023-12-04_18h25.33.180.wav;560.736620400101;561.2366575999185;None;560.736620400101;560.736620400101;560.736620400101;560.736620400101;560.736620400101;560.736620400101;[0.6626594001427293, 0.8988501997664571, 1.0263859000988305, 1.1599620999768376, 1.3066559000872076];;;;;;280202;001;2023-12-04_18h16.18.981;REPSWITCH1_version2_list2;2022.2.4;143.8906896822052;
REPSWITCH1/PICTURE_687.png;camisa;speak;darkblue;filler;2;F;1;1;2;2;Stim5_Set4;0;None;113;112;11;0;112;112;112;;;;;;;;;;;;;;;;;;;;;;;561.2366575999185;562.292429599911;562.292429599911;562.292429599911;562.292429599911;562.292429599911;562.292429599911;562.292429599911;562.292429599911;None;0;;C:\2023\REPSWITCH21092023\REPSWITCH_excgange\REPSWITCH_excgange\data/280202_REPSWITCH1_version2_list2_2023-12-04_18h16.18.981_micRespv2l2_recorded\recording_micRespv2l2_2023-12-04_18h25.37.758.wav;565.3205508003011;;None;565.3205508003011;565.3205508003011;565.3205508003011;565.3205508003011;565.3205508003011;565.3205508003011;;;;;;;280202;001;2023-12-04_18h16.18.981;REPSWITCH1_version2_list2;2022.2.4;143.8906896822052;
REPSWITCH1/PICTURE_128.png;muñeca;type;gold;nontarget;1;NT;1;1;2;2;Stim4_Set1;1;switch;114;113;12;0;113;113;113;;;;;;;;;;;;;;;;;;;;;;;565.8205977999605;566.8762833001092;566.8762833001092;566.8762833001092;566.8762833001092;566.8762833001092;566.8762833001092;566.8762833001092;566.8762833001092;['m', 'u', 'ñ', 'e', 'c', 'a'];0;muñeca;C:\2023\REPSWITCH21092023\REPSWITCH_excgange\REPSWITCH_excgange\data/280202_REPSWITCH1_version2_list2_2023-12-04_18h16.18.981_micRespv2l2_recorded\recording_micRespv2l2_2023-12-04_18h25.42.342.wav;569.9044991000555;570.404562599957;None;569.9044991000555;569.9044991000555;569.9044991000555;569.9044991000555;569.9044991000555;569.9044991000555;[0.8130688001401722, 1.0263885003514588, 1.376981900073588, 1.462700200267136, 1.6171133001334965, 1.7689848002046347];;;;;;280202;001;2023-12-04_18h16.18.981;REPSWITCH1_version2_list2;2022.2.4;143.8906896822052;
REPSWITCH1/PICTURE_128.png;muñeca;speak;darkblue;switch;2;T;1;1;2;2;Stim4_Set1;0;None;115;114;13;0;114;114;114;;;;;;;;;;;;;;;;;;;;;;;570.404562599957;571.6199738001451;571.6199738001451;571.6199738001451;571.6199738001451;571.6199738001451;571.6199738001451;571.6199738001451;571.6199738001451;None;0;;C:\2023\REPSWITCH21092023\REPSWITCH_excgange\REPSWITCH_excgange\data/280202_REPSWITCH1_version2_list2_2023-12-04_18h16.18.981_micRespv2l2_recorded\recording_micRespv2l2_2023-12-04_18h25.47.086.wav;574.6482263002545;;None;574.6482263002545;574.6482263002545;574.6482263002545;574.6482263002545;574.6482263002545;574.6482263002545;;;;;;;280202;001;2023-12-04_18h16.18.981;REPSWITCH1_version2_list2;2022.2.4;143.8906896822052;
REPSWITCH1/PICTURE_8.png;pierna;speak;darkblue;filler;2;F;1;1;2;2;Stim3_Set4;0;None;116;115;14;0;115;115;115;;;;;;;;;;;;;;;;;;;;;;;575.1482136999257;576.2733995001763;576.2733995001763;576.2733995001763;576.2733995001763;576.2733995001763;576.2733995001763;576.2733995001763;576.2733995001763;None;0;;C:\2023\REPSWITCH21092023\REPSWITCH_excgange\REPSWITCH_excgange\data/280202_REPSWITCH1_version2_list2_2023-12-04_18h16.18.981_micRespv2l2_recorded\recording_micRespv2l2_2023-12-04_18h25.51.738.wav;579.3015576000325;;None;579.3015576000325;579.3015576000325;579.3015576000325;579.3015576000325;579.3015576000325;579.3015576000325;;;;;;;280202;001;2023-12-04_18h16.18.981;REPSWITCH1_version2_list2;2022.2.4;143.8906896822052;
REPSWITCH1/PICTURE_19.png;pavo;speak;darkblue;nontarget;2;NT;1;1;2;2;Stim5_Set1;0;None;117;116;15;0;116;116;116;;;;;;;;;;;;;;;;;;;;;;;579.8016063999385;580.8920706999488;580.8920706999488;580.8920706999488;580.8920706999488;580.8920706999488;580.8920706999488;580.8920706999488;580.8920706999488;None;0;;C:\2023\REPSWITCH21092023\REPSWITCH_excgange\REPSWITCH_excgange\data/280202_REPSWITCH1_version2_list2_2023-12-04_18h16.18.981_micRespv2l2_recorded\recording_micRespv2l2_2023-12-04_18h25.56.357.wav;583.9202177999541;;None;583.9202177999541;583.9202177999541;583.9202177999541;583.9202177999541;583.9202177999541;583.9202177999541;;;;;;;280202;001;2023-12-04_18h16.18.981;REPSWITCH1_version2_list2;2022.2.4;143.8906896822052;
REPSWITCH1/PICTURE_19.png;pavo;type;gold;switch;1;T;1;1;2;2;Stim5_Set1;0;None;118;117;16;0;117;117;117;;;;;;;;;;;;;;;;;;;;;;;584.4202868002467;585.5523613002151;585.5523613002151;585.5523613002151;585.5523613002151;585.5523613002151;585.5523613002151;585.5523613002151;585.5523613002151;['p', 'a', 'v', 'o'];0;pavo;C:\2023\REPSWITCH21092023\REPSWITCH_excgange\REPSWITCH_excgange\data/280202_REPSWITCH1_version2_list2_2023-12-04_18h16.18.981_micRespv2l2_recorded\recording_micRespv2l2_2023-12-04_18h26.01.017.wav;588.5735718002543;589.0736564002;None;588.5735718002543;588.5735718002543;588.5735718002543;588.5735718002543;588.5735718002543;588.5735718002543;[0.8489050003699958, 0.8887476003728807, 1.132961300201714, 1.2357025002129376];;;;;;280202;001;2023-12-04_18h16.18.981;REPSWITCH1_version2_list2;2022.2.4;143.8906896822052;
REPSWITCH1/PICTURE_16.png;cazador;type;gold;nontarget;1;NT;1;1;2;2;Stim6_Set1;1;switch;119;118;17;0;118;118;118;;;;;;;;;;;;;;;;;;;;;;;589.0736564002;590.0946936998516;590.0946936998516;590.0946936998516;590.0946936998516;590.0946936998516;590.0946936998516;590.0946936998516;590.0946936998516;['c', 'a', 'z', 'a', 'd', 'o', 'r'];0;cazador;C:\2023\REPSWITCH21092023\REPSWITCH_excgange\REPSWITCH_excgange\data/280202_REPSWITCH1_version2_list2_2023-12-04_18h16.18.981_micRespv2l2_recorded\recording_micRespv2l2_2023-12-04_18h26.05.561.wav;593.1227883002721;;None;593.1227883002721;593.1227883002721;593.1227883002721;593.1227883002721;593.1227883002721;593.1227883002721;[0.7611618000082672, 0.9508865000680089, 1.169131400063634, 1.4112217002548277, 1.6035682000219822, 1.7061935001984239, 1.82282799994573];;;;;;280202;001;2023-12-04_18h16.18.981;REPSWITCH1_version2_list2;2022.2.4;143.8906896822052;
