Column1;Trial_no;CorrectAns;SubjResponse;Notes;Backspace;Item_correct;Modality_Correct;Error_Corrected;Hesitation;RT;Duration;RespModal;KeyResp_keys;key1;key2;key3;key4;key5;key6;key7;key8;key9;key10;key11;key12;key13;key14;key15;RepSwitch;baseline;baseline_condition;micRespv2l1.started
1;1;espejo;espejio;NA;0;0;NA;NA;NA;NA;NA;type;['e', 's', 'p', 'e', 'j', 'i', 'o'];1.03333230013959;1.20913750003092;1.35318089998327;1.43319430015981;1.6085264000576;1.76841320004314;1.78496740013361;NA;NA;NA;NA;NA;NA;NA;NA;filler;0;None;8.00445E+14
2;2;cadena;;NA;0;0;NA;NA;NA;NA;NA;speak;None;NA;NA;NA;NA;NA;NA;NA;NA;NA;NA;NA;NA;NA;NA;NA;filler;0;None;8.47187E+14
3;3;puente;;NA;0;0;NA;NA;NA;NA;NA;speak;None;NA;NA;NA;NA;NA;NA;NA;NA;NA;NA;NA;NA;NA;NA;NA;nontarget;1;repeat;8.93998E+14
4;4;puente;;NA;0;0;NA;NA;NA;NA;NA;speak;None;NA;NA;NA;NA;NA;NA;NA;NA;NA;NA;NA;NA;NA;NA;NA;repeat;0;None;9.39492E+13
5;5;vaca;vaca;NA;0;1;NA;NA;NA;NA;NA;type;['v', 'a', 'c', 'a'];0.920247700065374;1.04914920008741;1.12913989997469;1.20914479997009;NA;NA;NA;NA;NA;NA;NA;NA;NA;NA;NA;filler;0;None;9.85886E+14
6;6;fresa;;NA;0;0;NA;NA;NA;NA;NA;speak;None;NA;NA;NA;NA;NA;NA;NA;NA;NA;NA;NA;NA;NA;NA;NA;nontarget;1;switch;1.03277E+14
7;7;fresa;;NA;0;0;NA;NA;NA;NA;NA;speak;None;NA;NA;NA;NA;NA;NA;NA;NA;NA;NA;NA;NA;NA;NA;NA;repeat;0;None;1.08006E+14
8;8;ba?o;na?o;NA;1;0;NA;NA;NA;NA;NA;type;['n', 'a', 'backspace', 'a', '?', 'o'];0.944035199936479;1.04006210016087;1.39177020010538;1.87212990014814;2.38448340003379;2.5765305000823;NA;NA;NA;NA;NA;NA;NA;NA;NA;filler;1;switch;1.12757E+14
9;9;traje;;NA;0;0;NA;NA;NA;NA;NA;speak;None;NA;NA;NA;NA;NA;NA;NA;NA;NA;NA;NA;NA;NA;NA;NA;nontarget;0;None;1.17362E+14
10;10;traje;traje;NA;0;1;NA;NA;NA;NA;NA;type;['t', 'r', 'a', 'j', 'e'];0.654777399962768;0.798741000005975;0.894734699977562;1.18265729979612;1.24676569993608;NA;NA;NA;NA;NA;NA;NA;NA;NA;NA;switch;0;None;1.22071E+14
11;11;camisa;;NA;0;0;NA;NA;NA;NA;NA;speak;None;NA;NA;NA;NA;NA;NA;NA;NA;NA;NA;NA;NA;NA;NA;NA;filler;0;None;1.26703E+14
12;12;mu?eca;u?eac;NA;0;0;NA;NA;NA;NA;NA;type;['u', '?', 'e', 'a', 'c'];1.24773310008459;1.93543160008267;2.31938830018044;2.59142490010709;2.60741840000264;NA;NA;NA;NA;NA;NA;NA;NA;NA;NA;nontarget;1;switch;1.3135E+14
13;13;mu?eca;;NA;0;0;NA;NA;NA;NA;NA;speak;None;NA;NA;NA;NA;NA;NA;NA;NA;NA;NA;NA;NA;NA;NA;NA;switch;0;None;1.35975E+14
14;14;pierna;;NA;0;0;NA;NA;NA;NA;NA;speak;None;NA;NA;NA;NA;NA;NA;NA;NA;NA;NA;NA;NA;NA;NA;NA;filler;0;None;1.4058E+14
15;15;pavo;;NA;0;0;NA;NA;NA;NA;NA;speak;None;NA;NA;NA;NA;NA;NA;NA;NA;NA;NA;NA;NA;NA;NA;NA;nontarget;0;None;1.45199E+14
16;16;pavo;pavo;NA;0;1;NA;NA;NA;NA;NA;type;['p', 'a', 'v', 'o'];0.992577800061554;1.07253729994409;1.21675019990653;1.45675799995661;NA;NA;NA;NA;NA;NA;NA;NA;NA;NA;NA;switch;0;None;1.49797E+14
17;17;cazador;cazado;NA;0;0;NA;NA;NA;NA;NA;type;['c', 'a', 'z', 'a', 'd', 'o'];1.99804989993572;2.12587690004148;2.3983744001016;2.5273663001135;2.830372299999;2.92638540011831;NA;NA;NA;NA;NA;NA;NA;NA;NA;nontarget;1;switch;1.54407E+14
18;18;cazador;cazador;NA;0;1;NA;NA;NA;NA;NA;type;['c', 'a', 'z', 'a', 'd', 'o', 'r'];1.11888199998066;1.19887749990448;1.35886779986322;1.45491359988227;1.79128669993952;1.85511709982529;1.96704189991578;NA;NA;NA;NA;NA;NA;NA;NA;repeat;0;None;1.5911E+14
19;19;taza;;NA;0;0;NA;NA;NA;NA;NA;speak;None;NA;NA;NA;NA;NA;NA;NA;NA;NA;NA;NA;NA;NA;NA;NA;filler;0;None;1.63804E+14
20;20;bombero;bombero;NA;0;1;NA;NA;NA;NA;NA;type;['b', 'o', 'm', 'b', 'e', 'r', 'o'];1.20882139983587;1.52802410000004;1.70405159983784;1.99280609982088;2.07383089978248;2.23283749981783;2.32882399996743;NA;NA;NA;NA;NA;NA;NA;NA;filler;0;None;1.68445E+14
21;21;vaso;vaso;NA;0;1;NA;NA;NA;NA;NA;type;['v', 'a', 's', 'o'];1.49520160001703;1.55915720015764;1.71915520005859;1.86325610009953;NA;NA;NA;NA;NA;NA;NA;NA;NA;NA;NA;nontarget;1;repeat;1.7307E+14
22;22;vaso;vaso;NA;0;1;NA;NA;NA;NA;NA;type;['v', 'a', 's', 'o'];0.884075499838218;0.996073500020429;1.15540479985066;1.26978259999305;NA;NA;NA;NA;NA;NA;NA;NA;NA;NA;NA;repeat;0;None;1.77634E+14
23;23;regalo;;NA;0;0;NA;NA;NA;NA;NA;speak;None;NA;NA;NA;NA;NA;NA;NA;NA;NA;NA;NA;NA;NA;NA;NA;filler;1;switch;1.82266E+14
24;24;pulpo;pulpo;NA;0;1;NA;NA;NA;NA;NA;type;['p', 'u', 'l', 'p', 'o'];0.947495100088418;1.21882799989544;1.55548249999993;1.68309410009533;1.8270966000855;NA;NA;NA;NA;NA;NA;NA;NA;NA;NA;filler;1;switch;1.87058E+13
25;25;espalda;espalda;NA;0;1;NA;NA;NA;NA;NA;type;['e', 's', 'p', 'a', 'l', 'd', 'a'];1.2649395999033;1.37692290008999;1.47289759991691;1.55291999992914;1.64890579995699;1.77693319995888;1.95293230004609;NA;NA;NA;NA;NA;NA;NA;NA;nontarget;1;repeat;1.91684E+14
26;26;espalda;;NA;0;0;NA;NA;NA;NA;NA;speak;None;NA;NA;NA;NA;NA;NA;NA;NA;NA;NA;NA;NA;NA;NA;NA;switch;0;None;1.9631E+14
27;27;puente;;NA;0;0;NA;NA;NA;NA;NA;speak;None;NA;NA;NA;NA;NA;NA;NA;NA;NA;NA;NA;NA;NA;NA;NA;filler;0;None;2.00894E+14
28;28;pintor;pintor;NA;0;1;NA;NA;NA;NA;NA;type;['p', 'i', 'n', 't', 'o', 'r'];0.630009099841118;0.933856199961156;1.06169889983721;1.25369229982607;1.33366329991259;1.43071029987186;NA;NA;NA;NA;NA;NA;NA;NA;NA;nontarget;1;switch;2.05568E+13
29;29;pintor;pintor;NA;0;1;NA;NA;NA;NA;NA;type;['p', 'i', 'n', 't', 'o', 'r'];1.0031407000497;1.21075720014051;1.37075550016016;1.48274540016428;1.5947583001107;1.69076370005496;NA;NA;NA;NA;NA;NA;NA;NA;NA;repeat;0;None;2.10186E+14
30;30;fresa;;NA;0;0;NA;NA;NA;NA;NA;speak;None;NA;NA;NA;NA;NA;NA;NA;NA;NA;NA;NA;NA;NA;NA;NA;filler;0;None;2.14777E+14
31;31;caracol;caracol;NA;0;1;NA;NA;NA;NA;NA;type;['c', 'a', 'r', 'a', 'c', 'o', 'l'];0.796713700052351;0.924744799965993;0.988700799876824;1.11669629998505;1.14870289992541;1.43655960005708;1.56449160003103;NA;NA;NA;NA;NA;NA;NA;NA;nontarget;1;switch;2.19417E+14
32;32;caracol;carcaol;NA;0;0;NA;NA;NA;NA;NA;type;['c', 'a', 'r', 'c', 'a', 'o', 'l'];0.734171399846673;0.862113399896771;0.878154499921948;1.05415099998936;1.07021789997816;1.4383445000276;1.58233279990964;NA;NA;NA;NA;NA;NA;NA;NA;repeat;0;None;2.24007E+14
33;33;mu?eca;;NA;0;0;NA;NA;NA;NA;NA;speak;None;NA;NA;NA;NA;NA;NA;NA;NA;NA;NA;NA;NA;NA;NA;NA;filler;0;None;2.28696E+14
34;34;mano;mano;NA;0;1;NA;NA;NA;NA;NA;type;['m', 'a', 'n', 'o'];0.940363800153136;1.00419720006175;1.11615939997137;1.16556970006786;NA;NA;NA;NA;NA;NA;NA;NA;NA;NA;NA;nontarget;0;None;2.33273E+14
35;35;mano;;NA;0;0;NA;NA;NA;NA;NA;speak;None;NA;NA;NA;NA;NA;NA;NA;NA;NA;NA;NA;NA;NA;NA;NA;switch;0;None;2.37864E+14
36;36;cuerda;;NA;0;0;NA;NA;NA;NA;NA;speak;None;NA;NA;NA;NA;NA;NA;NA;NA;NA;NA;NA;NA;NA;NA;NA;nontarget;1;repeat;2.42427E+14
37;37;cuerda;cuerda;NA;0;1;NA;NA;NA;NA;NA;type;['c', 'u', 'e', 'r', 'd', 'a'];0.935784099856392;1.07978149992414;1.17577770003118;1.30334869981743;1.43150780000724;1.49506059987471;NA;NA;NA;NA;NA;NA;NA;NA;NA;switch;0;None;2.4699E+14
38;38;traje;trajhe;NA;0;0;NA;NA;NA;NA;NA;type;['t', 'r', 'a', 'j', 'h', 'e'];1.11643690010533;1.26043180003762;1.32446720008738;1.56447320012376;1.59646210004576;1.67641740012914;NA;NA;NA;NA;NA;NA;NA;NA;NA;filler;0;None;2.51608E+14
39;39;granja;granja;NA;0;1;NA;NA;NA;NA;NA;type;['g', 'r', 'a', 'n', 'j', 'a'];1.02286469982937;1.21484549995512;1.31087529985234;1.75887899985537;1.88626409997232;1.95023039984517;NA;NA;NA;NA;NA;NA;NA;NA;NA;nontarget;1;repeat;2.56151E+14
40;40;granja;;NA;0;0;NA;NA;NA;NA;NA;speak;None;NA;NA;NA;NA;NA;NA;NA;NA;NA;NA;NA;NA;NA;NA;NA;switch;0;None;2.60776E+14
41;41;vaso;vaso;NA;0;1;NA;NA;NA;NA;NA;type;['v', 'a', 's', 'o'];0.695306699955836;0.791304699843749;1.38266289979219;1.51068879989907;NA;NA;NA;NA;NA;NA;NA;NA;NA;NA;NA;filler;0;None;2.65374E+14
42;42;pavo;;NA;0;0;NA;NA;NA;NA;NA;speak;None;NA;NA;NA;NA;NA;NA;NA;NA;NA;NA;NA;NA;NA;NA;NA;filler;1;switch;2.69985E+14
43;43;manzana;;NA;0;0;NA;NA;NA;NA;NA;speak;None;NA;NA;NA;NA;NA;NA;NA;NA;NA;NA;NA;NA;NA;NA;NA;nontarget;1;repeat;2.74605E+14
44;44;manzana;;NA;0;0;NA;NA;NA;NA;NA;speak;None;NA;NA;NA;NA;NA;NA;NA;NA;NA;NA;NA;NA;NA;NA;NA;repeat;0;None;2.79153E+14
45;45;cazador;cazador;NA;0;1;NA;NA;NA;NA;NA;type;['c', 'a', 'z', 'a', 'd', 'o', 'r'];0.994960200041533;1.07495329994708;1.25130959996022;1.36330560012721;1.6036114001181;1.74763220013119;1.85964259994216;NA;NA;NA;NA;NA;NA;NA;NA;filler;0;None;2.83842E+14
46;46;cerdo;;NA;0;0;NA;NA;NA;NA;NA;speak;None;NA;NA;NA;NA;NA;NA;NA;NA;NA;NA;NA;NA;NA;NA;NA;nontarget;1;switch;2.8846E+14
47;47;cerdo;;NA;0;0;NA;NA;NA;NA;NA;speak;None;NA;NA;NA;NA;NA;NA;NA;NA;NA;NA;NA;NA;NA;NA;NA;repeat;0;None;2.93003E+13
48;48;escoba;escoba;NA;0;1;NA;NA;NA;NA;NA;type;['e', 's', 'c', 'o', 'b', 'a'];0.99059379985556;1.19865339994431;1.42298429994844;1.53497399995103;1.71072099986486;1.79069589986466;NA;NA;NA;NA;NA;NA;NA;NA;NA;filler;0;None;2.97607E+14
49;49;espalda;;NA;0;0;NA;NA;NA;NA;NA;speak;None;NA;NA;NA;NA;NA;NA;NA;NA;NA;NA;NA;NA;NA;NA;NA;filler;0;None;3.0215E+14
50;50;falda;;NA;0;0;NA;NA;NA;NA;NA;speak;None;NA;NA;NA;NA;NA;NA;NA;NA;NA;NA;NA;NA;NA;NA;NA;nontarget;1;repeat;3.06768E+14
51;51;falda;falda;NA;0;1;NA;NA;NA;NA;NA;type;['f', 'a', 'l', 'd', 'a'];0.9250572999008;1.00546399992891;1.32484659994952;1.38885129988194;1.5808868999593;NA;NA;NA;NA;NA;NA;NA;NA;NA;NA;switch;0;None;3.11352E+14
52;52;guante;guante;NA;0;1;NA;NA;NA;NA;NA;type;['g', 'u', 'a', 'n', 't', 'e'];0.923168600071222;1.01916250004433;1.17968480009586;1.24369470006786;1.43518100003712;1.48310720012523;NA;NA;NA;NA;NA;NA;NA;NA;NA;nontarget;0;None;3.18458E+14
53;53;guante;;NA;0;0;NA;NA;NA;NA;NA;speak;None;NA;NA;NA;NA;NA;NA;NA;NA;NA;NA;NA;NA;NA;NA;NA;switch;0;None;3.23021E+14
54;54;tronco;;NA;0;0;NA;NA;NA;NA;NA;speak;None;NA;NA;NA;NA;NA;NA;NA;NA;NA;NA;NA;NA;NA;NA;NA;filler;0;None;3.27716E+14
55;55;miel;;NA;0;0;NA;NA;NA;NA;NA;speak;None;NA;NA;NA;NA;NA;NA;NA;NA;NA;NA;NA;NA;NA;NA;NA;nontarget;1;repeat;3.32278E+14
56;56;miel;miel;NA;0;1;NA;NA;NA;NA;NA;type;['m', 'i', 'e', 'l'];0.638190200086683;0.798140200087801;0.894169100094587;1.05417639994994;NA;NA;NA;NA;NA;NA;NA;NA;NA;NA;NA;switch;0;None;3.36967E+14
57;57;pintor;pintor;NA;0;1;NA;NA;NA;NA;NA;type;['p', 'i', 'n', 't', 'o', 'r'];0.796846899902448;1.10062059992924;1.22865889989771;1.34033160004765;1.43673700001091;1.56478750007227;NA;NA;NA;NA;NA;NA;NA;NA;NA;filler;1;repeat;3.41592E+14
58;58;cartero;cartero;NA;0;1;NA;NA;NA;NA;NA;type;['c', 'a', 'r', 't', 'e', 'r', 'o'];0.926749699981883;1.02375319995917;1.11950699985027;1.23153809993528;1.34353569988161;1.47152389981784;1.56790749984793;NA;NA;NA;NA;NA;NA;NA;NA;nontarget;1;repeat;3.46182E+14
59;59;cartero;;NA;0;0;NA;NA;NA;NA;NA;speak;None;NA;NA;NA;NA;NA;NA;NA;NA;NA;NA;NA;NA;NA;NA;NA;switch;0;None;3.50823E+14
60;60;caracol;;NA;0;0;NA;NA;NA;NA;NA;speak;None;NA;NA;NA;NA;NA;NA;NA;NA;NA;NA;NA;NA;NA;NA;NA;filler;0;None;3.55462E+14
61;61;cuerda;vuerda;NA;0;0;NA;NA;NA;NA;NA;type;['v', 'u', 'e', 'r', 'd', 'a'];0.60761579987593;1.21595839993097;1.42491439986043;1.58395210001618;1.7919151999522;1.99994100001641;NA;NA;NA;NA;NA;NA;NA;NA;NA;filler;0;None;3.60053E+14
62;62;aguja;;NA;0;0;NA;NA;NA;NA;NA;speak;None;NA;NA;NA;NA;NA;NA;NA;NA;NA;NA;NA;NA;NA;NA;NA;nontarget;1;switch;3.64651E+14
63;63;aguja;;NA;0;0;NA;NA;NA;NA;NA;speak;None;NA;NA;NA;NA;NA;NA;NA;NA;NA;NA;NA;NA;NA;NA;NA;repeat;0;None;3.69235E+14
64;64;granja;granja;NA;0;1;NA;NA;NA;NA;NA;type;['g', 'r', 'a', 'n', 'j', 'a'];0.868723200168461;1.02872960013337;1.12577929999679;1.34883920010179;1.52484140009619;1.62083500018343;NA;NA;NA;NA;NA;NA;NA;NA;NA;filler;0;None;3.73888E+14
65;65;manzana;;NA;0;0;NA;NA;NA;NA;NA;speak;None;NA;NA;NA;NA;NA;NA;NA;NA;NA;NA;NA;NA;NA;NA;NA;filler;1;switch;3.78471E+14
66;66;oreja;;NA;0;0;NA;NA;NA;NA;NA;speak;None;NA;NA;NA;NA;NA;NA;NA;NA;NA;NA;NA;NA;NA;NA;NA;nontarget;1;repeat;3.83147E+14
67;67;oreja;;NA;0;0;NA;NA;NA;NA;NA;speak;None;NA;NA;NA;NA;NA;NA;NA;NA;NA;NA;NA;NA;NA;NA;NA;repeat;0;None;3.87897E+14
68;68;tenedor;tenedoir;NA;0;0;NA;NA;NA;NA;NA;type;['t', 'e', 'n', 'e', 'd', 'o', 'i', 'r'];0.769430800108239;0.865444299997762;0.993462600046769;1.05752660008147;1.23444469994865;1.34542150003836;1.36141130002216;1.44144660001621;NA;NA;NA;NA;NA;NA;NA;filler;0;None;3.92467E+14
69;69;goma;;NA;0;0;NA;NA;NA;NA;NA;speak;None;NA;NA;NA;NA;NA;NA;NA;NA;NA;NA;NA;NA;NA;NA;NA;nontarget;0;None;3.97107E+14
70;70;goma;goma;NA;0;1;NA;NA;NA;NA;NA;type;['g', 'o', 'm', 'a'];1.08183229994029;1.16215280001052;1.30565019999631;1.38564659981057;NA;NA;NA;NA;NA;NA;NA;NA;NA;NA;NA;switch;0;None;4.01739E+14
71;71;mano;;NA;0;0;NA;NA;NA;NA;NA;speak;None;NA;NA;NA;NA;NA;NA;NA;NA;NA;NA;NA;NA;NA;NA;NA;filler;0;None;4.0633E+14
72;72;conejo;conejo;NA;0;1;NA;NA;NA;NA;NA;type;['c', 'o', 'n', 'e', 'j', 'o'];0.790042399894446;0.902065000031143;1.17402520007454;1.3180229999125;1.73438639985397;1.78133739996701;NA;NA;NA;NA;NA;NA;NA;NA;NA;nontarget;1;switch;4.10879E+14
73;73;conejo;conejo;NA;0;1;NA;NA;NA;NA;NA;type;['c', 'o', 'n', 'e', 'j', 'o'];1.12979679997079;1.22682320000604;1.41781609994359;1.53082189988345;1.68979039997794;1.76980450004339;NA;NA;NA;NA;NA;NA;NA;NA;NA;repeat;0;None;4.15547E+14
74;74;cerdo;;NA;0;0;NA;NA;NA;NA;NA;speak;None;NA;NA;NA;NA;NA;NA;NA;NA;NA;NA;NA;NA;NA;NA;NA;filler;0;None;4.20158E+14
75;75;falda;falda;NA;0;1;NA;NA;NA;NA;NA;type;['f', 'a', 'l', 'd', 'a'];1.15453170007095;1.28269409993663;1.53885140013881;1.6348492000252;1.90685050003231;NA;NA;NA;NA;NA;NA;NA;NA;NA;NA;filler;1;switch;4.24707E+14
76;76;iglesia;iglesia;NA;0;1;NA;NA;NA;NA;NA;type;['i', 'g', 'l', 'e', 's', 'i', 'a'];1.32808959996328;1.68006579997018;1.79228329984471;1.91976860002615;2.12775500002317;2.20775990001857;2.30375149985775;NA;NA;NA;NA;NA;NA;NA;NA;nontarget;1;repeat;4.29333E+14
77;77;iglesia;iglesia;NA;0;1;NA;NA;NA;NA;NA;type;['i', 'g', 'l', 'e', 's', 'i', 'a'];1.29460479994304;1.45459749992006;1.64662719983608;1.75869959988631;1.98307249997742;2.06326049985364;2.17519490001723;NA;NA;NA;NA;NA;NA;NA;NA;repeat;0;None;4.3391E+14
78;78;guante;;NA;0;0;NA;NA;NA;NA;NA;speak;None;NA;NA;NA;NA;NA;NA;NA;NA;NA;NA;NA;NA;NA;NA;NA;filler;0;None;4.3857E+14
79;79;vaca;vaca;NA;0;1;NA;NA;NA;NA;NA;type;['v', 'a', 'c', 'a'];0.829262000042945;0.877256500069052;0.942238799994811;1.02123659988865;NA;NA;NA;NA;NA;NA;NA;NA;NA;NA;NA;nontarget;1;switch;4.43224E+14
80;80;vaca;vaca;NA;0;1;NA;NA;NA;NA;NA;type;['v', 'a', 'c', 'a'];0.840715999947861;0.904707399895415;0.984701100038365;1.08070089993998;NA;NA;NA;NA;NA;NA;NA;NA;NA;NA;NA;repeat;0;None;4.47884E+14
81;81;ba?o;ba?o;NA;0;1;NA;NA;NA;NA;NA;type;['b', 'a', 'n', 'o'];0.874145700130612;0.939535300014541;1.3537701999303;1.57837150013074;NA;NA;NA;NA;NA;NA;NA;NA;NA;NA;NA;nontarget;0;None;4.52475E+13
82;82;ba?o;;NA;0;0;NA;NA;NA;NA;NA;speak;None;NA;NA;NA;NA;NA;NA;NA;NA;NA;NA;NA;NA;NA;NA;NA;switch;0;None;4.57059E+14
83;83;cartero;;NA;0;0;NA;NA;NA;NA;NA;speak;None;NA;NA;NA;NA;NA;NA;NA;NA;NA;NA;NA;NA;NA;NA;NA;filler;1;repeat;4.61629E+14
84;84;miel;miel;NA;0;1;NA;NA;NA;NA;NA;type;['m', 'i', 'e', 'l'];1.0371596000623;1.11716130003333;1.34115700004622;1.46915520005859;NA;NA;NA;NA;NA;NA;NA;NA;NA;NA;NA;filler;0;None;4.66296E+14
85;85;pierna;;NA;0;0;NA;NA;NA;NA;NA;speak;None;NA;NA;NA;NA;NA;NA;NA;NA;NA;NA;NA;NA;NA;NA;NA;nontarget;1;switch;4.70866E+14
86;86;pierna;;NA;0;0;NA;NA;NA;NA;NA;speak;None;NA;NA;NA;NA;NA;NA;NA;NA;NA;NA;NA;NA;NA;NA;NA;repeat;0;None;4.7545E+14
87;87;taza;;NA;0;0;NA;NA;NA;NA;NA;speak;None;NA;NA;NA;NA;NA;NA;NA;NA;NA;NA;NA;NA;NA;NA;NA;nontarget;1;repeat;4.79986E+14
88;88;taza;taza;NA;0;1;NA;NA;NA;NA;NA;type;['t', 'a', 'z', 'a'];0.890979700023308;0.954919799929485;1.13094609999098;1.22693599993363;NA;NA;NA;NA;NA;NA;NA;NA;NA;NA;NA;switch;0;None;4.84618E+14
89;89;aguja;;NA;0;0;NA;NA;NA;NA;NA;speak;None;NA;NA;NA;NA;NA;NA;NA;NA;NA;NA;NA;NA;NA;NA;NA;filler;0;None;4.89216E+14
90;90;oreja;oreja;NA;0;1;NA;NA;NA;NA;NA;type;['o', 'r', 'e', 'j', 'a'];0.875607599969953;1.11560110002756;1.4362470000051;1.69227469991893;1.82027459982783;NA;NA;NA;NA;NA;NA;NA;NA;NA;NA;filler;0;None;4.93897E+14
91;91;camisa;camisa;NA;0;1;NA;NA;NA;NA;NA;type;['c', 'a', 'm', 'i', 's', 'a'];0.84062230004929;0.936648600036278;1.41659569996409;1.48060410004109;1.65644220006652;1.83217679988593;NA;NA;NA;NA;NA;NA;NA;NA;NA;nontarget;1;repeat;4.98509E+14
92;92;camisa;;NA;0;0;NA;NA;NA;NA;NA;speak;None;NA;NA;NA;NA;NA;NA;NA;NA;NA;NA;NA;NA;NA;NA;NA;switch;0;None;5.03086E+14
93;93;regalo;;NA;0;0;NA;NA;NA;NA;NA;speak;None;NA;NA;NA;NA;NA;NA;NA;NA;NA;NA;NA;NA;NA;NA;NA;nontarget;0;None;5.0769E+14
94;94;regalo;;NA;0;0;NA;NA;NA;NA;NA;speak;None;NA;NA;NA;NA;NA;NA;NA;NA;NA;NA;NA;NA;NA;NA;NA;repeat;0;None;5.12379E+14
95;95;columna;columna;NA;0;1;NA;NA;NA;NA;NA;type;['c', 'o', 'l', 'u', 'm', 'n', 'a'];0.973282099934295;1.40447259997018;1.58140949998051;1.75740929995663;2.02941820002161;2.15673219994642;2.25272140000015;NA;NA;NA;NA;NA;NA;NA;NA;filler;0;None;5.17032E+14
96;96;conejo;;NA;0;0;NA;NA;NA;NA;NA;speak;None;NA;NA;NA;NA;NA;NA;NA;NA;NA;NA;NA;NA;NA;NA;NA;filler;0;None;5.21776E+14
97;97;bombero;;NA;0;0;NA;NA;NA;NA;NA;speak;None;NA;NA;NA;NA;NA;NA;NA;NA;NA;NA;NA;NA;NA;NA;NA;nontarget;0;None;5.26352E+14
98;98;bombero;bombero;NA;0;1;NA;NA;NA;NA;NA;type;['b', 'o', 'm', 'b', 'e', 'r', 'o'];1.60057650017552;1.71257830015384;1.88861480006017;2.12862320011482;2.20959850004874;2.3686284001451;2.41793700004928;NA;NA;NA;NA;NA;NA;NA;NA;switch;0;None;5.30916E+14
99;99;pulpo;pulpo;NA;0;1;NA;NA;NA;NA;NA;type;['p', 'u', 'l', 'p', 'o'];0.895759999984875;1.15177640016191;1.43956820014864;1.59978450019844;1.77577940002084;NA;NA;NA;NA;NA;NA;NA;NA;NA;NA;nontarget;0;None;5.35493E+13
100;100;pulpo;pulpo;NA;0;1;NA;NA;NA;NA;NA;type;['p', 'u', 'l', 'p', 'o'];0.81149600003846;1.14746550004929;1.40430660010315;1.51629990013316;1.69231349998154;NA;NA;NA;NA;NA;NA;NA;NA;NA;NA;repeat;0;None;5.40153E+14
101;101;iglesia;;NA;0;0;NA;NA;NA;NA;NA;speak;None;NA;NA;NA;NA;NA;NA;NA;NA;NA;NA;NA;NA;NA;NA;NA;filler;0;None;5.44751E+14
102;102;goma;goma;NA;0;1;NA;NA;NA;NA;NA;type;['g', 'o', 'm', 'a'];0.806759699946269;1.14268460008316;1.35005889995955;1.49406550009735;NA;NA;NA;NA;NA;NA;NA;NA;NA;NA;NA;filler;0;None;5.4939E+14
103;103;columna;columna;NA;0;1;NA;NA;NA;NA;NA;type;['c', 'o', 'l', 'u', 'm', 'n', 'a'];0.861341400071979;1.26133590005338;1.42041570018046;1.59640220017172;1.7575859001372;1.86857250006869;1.98053270019591;NA;NA;NA;NA;NA;NA;NA;NA;filler;0;None;5.56968E+14
104;104;mu?eca;;NA;0;0;NA;NA;NA;NA;NA;speak;None;NA;NA;NA;NA;NA;NA;NA;NA;NA;NA;NA;NA;NA;NA;NA;nontarget;1;switch;5.61614E+14
105;105;mu?eca;;NA;0;0;NA;NA;NA;NA;NA;speak;None;NA;NA;NA;NA;NA;NA;NA;NA;NA;NA;NA;NA;NA;NA;NA;repeat;0;None;5.66281E+14
106;106;pierna;pierna;NA;0;1;NA;NA;NA;NA;NA;type;['p', 'i', 'e', 'r', 'n', 'a'];0.931209899950773;1.15503829997033;1.794651000062;1.97068090015091;2.11464420007542;2.25863620010205;NA;NA;NA;NA;NA;NA;NA;NA;NA;filler;0;None;5.70914E+14
107;107;traje;;NA;0;0;NA;NA;NA;NA;NA;speak;None;NA;NA;NA;NA;NA;NA;NA;NA;NA;NA;NA;NA;NA;NA;NA;nontarget;1;switch;5.75672E+14
108;108;traje;;NA;0;0;NA;NA;NA;NA;NA;speak;None;NA;NA;NA;NA;NA;NA;NA;NA;NA;NA;NA;NA;NA;NA;NA;repeat;0;None;5.80311E+14
109;109;tenedor;tenedor;NA;1;0;NA;NA;NA;NA;NA;type;['t', 'e', 'n', 'e', 'd', 'r', 'backspace', 'o', 'r'];0.840908600017428;0.936208799947053;1.06420719996095;1.11224009981379;1.35224579996429;1.7042208998464;2.18425459996797;2.52023649984039;2.64870729995891;NA;NA;NA;NA;NA;NA;filler;0;None;5.8486E+14
110;110;pulpo;;NA;0;0;NA;NA;NA;NA;NA;speak;None;NA;NA;NA;NA;NA;NA;NA;NA;NA;NA;NA;NA;NA;NA;NA;filler;0;None;5.89493E+14
111;111;cazador;;NA;0;0;NA;NA;NA;NA;NA;speak;None;NA;NA;NA;NA;NA;NA;NA;NA;NA;NA;NA;NA;NA;NA;NA;nontarget;1;repeat;5.94132E+14
112;112;cazador;cazador;NA;0;1;NA;NA;NA;NA;NA;type;['c', 'a', 'z', 'a', 'd', 'o', 'r'];0.915768200065941;1.04408290004358;1.21934020007029;1.34815990016796;1.60417070006952;1.73215529997833;1.87616300000809;NA;NA;NA;NA;NA;NA;NA;NA;switch;0;None;5.98737E+14
113;113;taza;taza;NA;0;1;NA;NA;NA;NA;NA;type;['t', 'a', 'z', 'a'];0.815997699974105;0.895996100036427;1.03999629989266;1.12042369996198;NA;NA;NA;NA;NA;NA;NA;NA;NA;NA;NA;filler;1;repeat;6.03349E+14
114;114;fresa;fresa;NA;0;1;NA;NA;NA;NA;NA;type;['f', 'r', 'e', 's', 'a'];1.10130110010505;1.1812986000441;1.35728810005821;1.45328360004351;1.62886020005681;NA;NA;NA;NA;NA;NA;NA;NA;NA;NA;nontarget;1;repeat;6.07912E+14
115;115;fresa;;NA;0;0;NA;NA;NA;NA;NA;speak;None;NA;NA;NA;NA;NA;NA;NA;NA;NA;NA;NA;NA;NA;NA;NA;switch;0;None;6.12482E+14
116;116;puente;;NA;0;0;NA;NA;NA;NA;NA;speak;None;NA;NA;NA;NA;NA;NA;NA;NA;NA;NA;NA;NA;NA;NA;NA;nontarget;0;None;6.17149E+14
117;117;puente;puente;NA;0;1;NA;NA;NA;NA;NA;type;['p', 'u', 'e', 'n', 't', 'e'];0.972104000160471;1.22809630003758;1.49964940012433;1.56368770007975;1.77168540004641;1.83568769996054;NA;NA;NA;NA;NA;NA;NA;NA;NA;switch;0;None;6.21865E+14
118;118;ba?o;;NA;0;0;NA;NA;NA;NA;NA;speak;None;NA;NA;NA;NA;NA;NA;NA;NA;NA;NA;NA;NA;NA;NA;NA;filler;0;None;6.26546E+14
119;119;espalda;espalda;NA;1;0;NA;NA;NA;NA;NA;type;['e', 's', 'a', 'backspace', 'p', 'a', 'l', 'd', 'a'];0.940708299865946;1.13223029999062;1.35589149990119;1.85174529999495;2.09210689994507;2.1720966999419;2.26805020007305;2.36409220006317;2.57209159992635;NA;NA;NA;NA;NA;NA;nontarget;1;switch;6.31193E+13
120;120;espalda;espalda;NA;0;1;NA;NA;NA;NA;NA;type;['e', 's', 'p', 'a', 'l', 'd', 'a'];0.968586599919945;1.14458129997365;1.27258109999821;1.36859049997292;1.46564539987594;1.56083949981257;1.78478539991193;NA;NA;NA;NA;NA;NA;NA;NA;repeat;0;None;6.35804E+14
121;121;bombero;;NA;0;0;NA;NA;NA;NA;NA;speak;None;NA;NA;NA;NA;NA;NA;NA;NA;NA;NA;NA;NA;NA;NA;NA;filler;1;switch;6.40395E+13
122;122;pavo;pavo;NA;1;0;NA;NA;NA;NA;NA;type;['p', 'a', 'o', 'backspace', 'v', 'o'];1.04535660007969;1.18931700009853;1.5413164999336;1.87758699990809;2.00484149996191;2.13279800000601;NA;NA;NA;NA;NA;NA;NA;NA;NA;nontarget;1;switch;6.45056E+14
123;123;pavo;pavo;NA;0;1;NA;NA;NA;NA;NA;type;['p', 'a', 'v', 'o'];0.775881400099024;0.936132800066844;1.28828320000321;1.40027920017019;NA;NA;NA;NA;NA;NA;NA;NA;NA;NA;NA;repeat;0;None;6.49661E+14
124;124;vaca;;NA;0;0;NA;NA;NA;NA;NA;speak;None;NA;NA;NA;NA;NA;NA;NA;NA;NA;NA;NA;NA;NA;NA;NA;filler;0;None;6.54272E+14
125;125;regalo;regalo;NA;0;1;NA;NA;NA;NA;NA;type;['r', 'e', 'g', 'a', 'l', 'o'];0.954595699906349;1.05139879998751;1.25834929989651;1.43444139999337;1.65773339988664;1.78626640001312;NA;NA;NA;NA;NA;NA;NA;NA;NA;filler;0;None;6.58891E+14
126;126;vaso;vaso;NA;0;1;NA;NA;NA;NA;NA;type;['v', 'a', 's', 'o'];0.786412100074813;0.86640220019035;1.01039150008;1.39363350020722;NA;NA;NA;NA;NA;NA;NA;NA;NA;NA;NA;nontarget;0;None;6.63475E+14
127;127;vaso;;NA;0;0;NA;NA;NA;NA;NA;speak;None;NA;NA;NA;NA;NA;NA;NA;NA;NA;NA;NA;NA;NA;NA;NA;switch;0;None;6.68045E+14
128;128;camisa;camisa;NA;0;1;NA;NA;NA;NA;NA;type;['c', 'a', 'm', 'i', 's', 'a'];0.805127300089225;0.917155800154433;1.23715330008417;1.31716990005225;1.39715269999579;1.57280580000952;NA;NA;NA;NA;NA;NA;NA;NA;NA;filler;1;switch;6.72768E+14
129;129;granja;granja;NA;0;1;NA;NA;NA;NA;NA;type;['g', 'r', 'a', 'n', 'j', 'a'];1.06248939991929;1.25451019988395;1.35019999998622;1.67077309987508;2.1023273000028;2.26231339992955;NA;NA;NA;NA;NA;NA;NA;NA;NA;nontarget;0;None;6.77358E+14
130;130;granja;granja;NA;0;1;NA;NA;NA;NA;NA;type;['g', 'r', 'a', 'n', 'j', 'a'];0.850337400101125;1.0256606999319;1.23472520010546;1.44220670009963;1.60219860007055;1.73019740008749;NA;NA;NA;NA;NA;NA;NA;NA;NA;repeat;0;None;6.82019E+14
131;131;mu?eca;;NA;0;0;NA;NA;NA;NA;NA;speak;None;NA;NA;NA;NA;NA;NA;NA;NA;NA;NA;NA;NA;NA;NA;NA;filler;0;None;6.86644E+14
132;132;mano;mano;NA;0;1;NA;NA;NA;NA;NA;type;['m', 'a', 'n', 'o'];0.78517369995825;0.88062830013223;0.976595500018448;1.04115119995549;NA;NA;NA;NA;NA;NA;NA;NA;NA;NA;NA;nontarget;1;switch;6.91284E+14
133;133;mano;mano;NA;0;1;NA;NA;NA;NA;NA;type;['m', 'a', 'n', 'o'];0.705681500025094;0.914110499899834;1.07408529985696;1.21819329983555;NA;NA;NA;NA;NA;NA;NA;NA;NA;NA;NA;repeat;0;None;6.95875E+14
134;134;pintor;pintor;NA;0;1;NA;NA;NA;NA;NA;type;['p', 'i', 'n', 't', 'o', 'r'];1.01265789987519;1.30118439998478;1.52518369979225;1.66914539993741;1.71717699989676;1.87717909994535;NA;NA;NA;NA;NA;NA;NA;NA;NA;nontarget;0;None;7.00688E+14
135;135;pintor;;NA;0;0;NA;NA;NA;NA;NA;speak;None;NA;NA;NA;NA;NA;NA;NA;NA;NA;NA;NA;NA;NA;NA;NA;switch;0;None;7.05271E+14
136;136;traje;;NA;0;0;NA;NA;NA;NA;NA;speak;None;NA;NA;NA;NA;NA;NA;NA;NA;NA;NA;NA;NA;NA;NA;NA;filler;1;repeat;7.09925E+14
137;137;cerdo;;NA;0;0;NA;NA;NA;NA;NA;speak;None;NA;NA;NA;NA;NA;NA;NA;NA;NA;NA;NA;NA;NA;NA;NA;nontarget;1;repeat;7.14516E+14
138;138;cerdo;cerdo;NA;0;1;NA;NA;NA;NA;NA;type;['c', 'e', 'r', 'd', 'o'];0.493337699910626;0.845732199959457;1.03731990000233;1.24601359991357;1.3270050000865;NA;NA;NA;NA;NA;NA;NA;NA;NA;NA;switch;0;None;7.19079E+14
139;139;caracol;caracol;NA;0;1;NA;NA;NA;NA;NA;type;['c', 'a', 'r', 'a', 'c', 'o', 'l'];0.778491799952462;0.890629699919373;0.906617899890989;1.06647010007873;1.08291799994186;1.3705966998823;1.56228259997442;NA;NA;NA;NA;NA;NA;NA;NA;nontarget;1;repeat;7.23642E+14
140;140;caracol;;NA;0;0;NA;NA;NA;NA;NA;speak;None;NA;NA;NA;NA;NA;NA;NA;NA;NA;NA;NA;NA;NA;NA;NA;switch;0;None;7.28386E+14
141;141;cazador;cazador;NA;0;1;NA;NA;NA;NA;NA;type;['c', 'a', 'z', 'a', 'd', 'o', 'r'];0.876665099989623;0.956659900024533;1.11665969993919;1.42038180003874;1.67638169997372;1.82039580005221;1.91635670000687;NA;NA;NA;NA;NA;NA;NA;NA;filler;0;None;7.33032E+14
142;142;fresa;;NA;0;0;NA;NA;NA;NA;NA;speak;None;NA;NA;NA;NA;NA;NA;NA;NA;NA;NA;NA;NA;NA;NA;NA;filler;0;None;7.37714E+14
143;143;pavo;pavo;NA;0;1;NA;NA;NA;NA;NA;type;['p', 'a', 'v', 'o'];0.898559499997646;0.96318110008724;1.20297669991851;1.29865689994767;NA;NA;NA;NA;NA;NA;NA;NA;NA;NA;NA;filler;0;None;7.42338E+13
144;144;cuerda;;NA;0;0;NA;NA;NA;NA;NA;speak;None;NA;NA;NA;NA;NA;NA;NA;NA;NA;NA;NA;NA;NA;NA;NA;nontarget;1;switch;7.46978E+14
145;145;cuerda;;NA;0;0;NA;NA;NA;NA;NA;speak;None;NA;NA;NA;NA;NA;NA;NA;NA;NA;NA;NA;NA;NA;NA;NA;repeat;0;None;7.5159E+13
146;146;puente;puente;NA;0;1;NA;NA;NA;NA;NA;type;['p', 'u', 'e', 'n', 't', 'e'];0.863984300056472;1.15197410015389;1.34433810017072;1.40834690001793;1.61633620015346;1.68029940011911;NA;NA;NA;NA;NA;NA;NA;NA;NA;filler;0;None;7.56292E+14
147;147;falda;;NA;0;0;NA;NA;NA;NA;NA;speak;None;NA;NA;NA;NA;NA;NA;NA;NA;NA;NA;NA;NA;NA;NA;NA;nontarget;1;switch;7.60932E+14
148;148;falda;;NA;0;0;NA;NA;NA;NA;NA;speak;None;NA;NA;NA;NA;NA;NA;NA;NA;NA;NA;NA;NA;NA;NA;NA;repeat;0;None;7.65556E+13
149;149;espalda;espalda;NA;0;1;NA;NA;NA;NA;NA;type;['e', 's', 'p', 'a', 'l', 'd', 'a'];0.937234099954367;1.14542279997841;1.24241809989326;1.35341269988567;1.44934669998474;1.52924499986693;1.73707719985396;NA;NA;NA;NA;NA;NA;NA;NA;filler;0;None;7.70155E+14
150;150;vaso;;NA;0;0;NA;NA;NA;NA;NA;speak;None;NA;NA;NA;NA;NA;NA;NA;NA;NA;NA;NA;NA;NA;NA;NA;filler;0;None;7.74725E+14
151;151;manzana;;NA;0;0;NA;NA;NA;NA;NA;speak;None;NA;NA;NA;NA;NA;NA;NA;NA;NA;NA;NA;NA;NA;NA;NA;nontarget;0;None;7.79421E+14
152;152;manzana;manzana;NA;0;1;NA;NA;NA;NA;NA;type;['m', 'a', 'n', 'z', 'a', 'n', 'a'];1.14935380010866;1.27734209992923;1.37334430008195;1.5007058000192;1.61262420006096;2.02845430001616;2.09348669997416;NA;NA;NA;NA;NA;NA;NA;NA;switch;0;None;7.83976E+14
153;153;escoba;;NA;0;0;NA;NA;NA;NA;NA;speak;None;NA;NA;NA;NA;NA;NA;NA;NA;NA;NA;NA;NA;NA;NA;NA;filler;0;None;7.88553E+14
154;154;manzana;manzana;NA;0;1;NA;NA;NA;NA;NA;type;['m', 'a', 'n', 'z', 'a', 'n', 'a'];1.00804450013675;1.15203980007209;1.21604650001973;1.32803290011361;1.40773009997793;1.8554520001635;1.93545240000822;NA;NA;NA;NA;NA;NA;NA;NA;filler;0;None;8.04917E+14
155;155;goma;goma;NA;0;1;NA;NA;NA;NA;NA;type;['g', 'o', 'm', 'a'];0.891177700133994;1.00257469993085;1.22656619991176;1.37056430010125;NA;NA;NA;NA;NA;NA;NA;NA;NA;NA;NA;nontarget;1;repeat;8.09466E+14
156;156;goma;;NA;0;0;NA;NA;NA;NA;NA;speak;None;NA;NA;NA;NA;NA;NA;NA;NA;NA;NA;NA;NA;NA;NA;NA;switch;0;None;8.14092E+14
157;157;granja;;NA;0;0;NA;NA;NA;NA;NA;speak;None;NA;NA;NA;NA;NA;NA;NA;NA;NA;NA;NA;NA;NA;NA;NA;filler;0;None;8.18794E+14
158;158;aguja;;NA;0;0;NA;NA;NA;NA;NA;speak;None;NA;NA;NA;NA;NA;NA;NA;NA;NA;NA;NA;NA;NA;NA;NA;nontarget;1;repeat;8.23363E+14
159;159;aguja;aguja;NA;0;1;NA;NA;NA;NA;NA;type;['a', 'g', 'u', 'j', 'a'];0.79228140017949;0.968252700055018;1.01627270015888;1.24027090007439;1.35228520003147;NA;NA;NA;NA;NA;NA;NA;NA;NA;NA;switch;0;None;8.28045E+13
160;160;cadena;cadena;NA;0;1;NA;NA;NA;NA;NA;type;['c', 'a', 'd', 'e', 'n', 'a'];0.937309599947184;1.04933529999107;1.38533049984835;1.46530309994705;1.54532659985125;1.75333119998686;NA;NA;NA;NA;NA;NA;NA;NA;NA;filler;0;None;8.32636E+14
161;161;iglesia;iglesia;NA;0;1;NA;NA;NA;NA;NA;type;['i', 'g', 'l', 'e', 's', 'i', 'a'];1.4967870998662;1.67184700001962;1.86376739991829;1.97574079991318;2.20046439999714;2.28043059981428;2.42357529979199;NA;NA;NA;NA;NA;NA;NA;NA;nontarget;0;None;8.37213E+14
162;162;iglesia;;NA;0;0;NA;NA;NA;NA;NA;speak;None;NA;NA;NA;NA;NA;NA;NA;NA;NA;NA;NA;NA;NA;NA;NA;switch;0;None;8.4181E+14
163;163;pintor;pintor;NA;0;1;NA;NA;NA;NA;NA;type;['p', 'i', 'n', 't', 'o', 'r'];0.923503400059417;1.16348919994198;1.38748800009489;1.65945959999226;1.80348300002515;1.91465199994855;NA;NA;NA;NA;NA;NA;NA;NA;NA;filler;0;None;8.46506E+13
164;164;conejo;;NA;0;0;NA;NA;NA;NA;NA;speak;None;NA;NA;NA;NA;NA;NA;NA;NA;NA;NA;NA;NA;NA;NA;NA;nontarget;1;switch;8.51069E+14
165;165;conejo;;NA;0;0;NA;NA;NA;NA;NA;speak;None;NA;NA;NA;NA;NA;NA;NA;NA;NA;NA;NA;NA;NA;NA;NA;repeat;0;None;8.55659E+14
166;166;cerdo;;NA;0;0;NA;NA;NA;NA;NA;speak;None;NA;NA;NA;NA;NA;NA;NA;NA;NA;NA;NA;NA;NA;NA;NA;filler;0;None;8.60341E+14
167;167;caracol;caracol;NA;0;1;NA;NA;NA;NA;NA;type;['c', 'a', 'r', 'a', 'c', 'o', 'l'];0.928974899929017;1.04098999989219;1.1369612000417;1.26561639993452;1.3456162000075;1.72952519985847;1.87352619995363;NA;NA;NA;NA;NA;NA;NA;NA;filler;0;None;8.64932E+14
168;168;guante;;NA;0;0;NA;NA;NA;NA;NA;speak;None;NA;NA;NA;NA;NA;NA;NA;NA;NA;NA;NA;NA;NA;NA;NA;nontarget;1;switch;8.69522E+14
169;169;guante;;NA;0;0;NA;NA;NA;NA;NA;speak;None;NA;NA;NA;NA;NA;NA;NA;NA;NA;NA;NA;NA;NA;NA;NA;repeat;0;None;8.7412E+13
170;170;cartero;;NA;0;0;NA;NA;NA;NA;NA;speak;None;NA;NA;NA;NA;NA;NA;NA;NA;NA;NA;NA;NA;NA;NA;NA;nontarget;0;None;8.78807E+14
171;171;cartero;cartero;NA;0;1;NA;NA;NA;NA;NA;type;['c', 'a', 'r', 't', 'e', 'r', 'o'];0.714473000029102;0.778508599847555;0.890297099947929;1.00236329995096;1.11435589985922;1.27439229981974;1.37038959981874;NA;NA;NA;NA;NA;NA;NA;NA;switch;0;None;8.83434E+14
172;172;cuerda;;NA;0;0;NA;NA;NA;NA;NA;speak;None;NA;NA;NA;NA;NA;NA;NA;NA;NA;NA;NA;NA;NA;NA;NA;filler;0;None;8.88094E+14
173;173;tronco;tronco;NA;0;1;NA;NA;NA;NA;NA;type;['t', 'r', 'o', 'n', 'c', 'o'];0.909554400015622;1.03760610008612;1.30980219994672;1.45379230007529;1.67792210006155;1.77338530006818;NA;NA;NA;NA;NA;NA;NA;NA;NA;filler;0;None;8.92727E+14
174;174;oreja;oreja;NA;0;1;NA;NA;NA;NA;NA;type;['o', 'r', 'e', 'j', 'a'];1.09281899989583;1.25287480000407;1.42893329984508;1.50833450001664;1.63612379995175;NA;NA;NA;NA;NA;NA;NA;NA;NA;NA;nontarget;1;repeat;8.97296E+14
175;175;oreja;oreja;NA;0;1;NA;NA;NA;NA;NA;type;['o', 'r', 'e', 'j', 'a'];0.706980400020257;0.866635499987751;1.01063330005854;1.15507390000857;1.3146371000912;NA;NA;NA;NA;NA;NA;NA;NA;NA;NA;repeat;0;None;9.01874E+14
176;176;falda;;NA;0;0;NA;NA;NA;NA;NA;speak;None;NA;NA;NA;NA;NA;NA;NA;NA;NA;NA;NA;NA;NA;NA;NA;filler;0;None;9.06451E+14
177;177;miel;miel;NA;0;1;NA;NA;NA;NA;NA;type;['m', 'i', 'e', 'l'];1.00529330014251;1.10129070002586;1.24567680014297;1.35774020012468;NA;NA;NA;NA;NA;NA;NA;NA;NA;NA;NA;nontarget;1;switch;9.11111E+14
178;178;miel;miel;NA;0;1;NA;NA;NA;NA;NA;type;['m', 'i', 'e', 'l'];0.630812099901959;0.806807100074366;1.14260139991529;1.23859809990972;NA;NA;NA;NA;NA;NA;NA;NA;NA;NA;NA;repeat;0;None;9.15758E+14
179;179;mano;mano;NA;0;1;NA;NA;NA;NA;NA;type;['m', 'a', 'n', 'o'];0.724661299958825;0.78866000007838;0.932656800141558;1.06065750005655;NA;NA;NA;NA;NA;NA;NA;NA;NA;NA;NA;filler;1;repeat;9.20432E+14
180;180;goma;;NA;0;0;NA;NA;NA;NA;NA;speak;None;NA;NA;NA;NA;NA;NA;NA;NA;NA;NA;NA;NA;NA;NA;NA;filler;0;None;9.2503E+14
181;181;pierna;perina;NA;1;0;NA;NA;NA;NA;NA;type;['b', 'backspace', 'p', 'e', 'r', 'i', 'n', 'a'];1.31795800011605;1.91080090007745;2.27859260002151;2.5025961000938;2.66191070014611;2.74250590009615;2.87050199997611;2.93450139998458;NA;NA;NA;NA;NA;NA;NA;nontarget;1;switch;9.29662E+14
182;182;pierna;pierna;NA;0;1;NA;NA;NA;NA;NA;type;['p', 'i', 'e', 'r', 'n', 'a'];0.846481299959123;1.05444390000775;1.18209819984622;1.34206609986722;1.43806519987993;1.59810930001549;NA;NA;NA;NA;NA;NA;NA;NA;NA;repeat;0;None;9.34246E+14
183;183;pulpo;pulpo;NA;0;1;NA;NA;NA;NA;NA;type;['p', 'u', 'l', 'p', 'o'];0.771411099936813;1.04339049989358;1.26770680001937;1.44337489991449;1.58767560007982;NA;NA;NA;NA;NA;NA;NA;NA;NA;NA;nontarget;1;repeat;9.38865E+14
184;184;pulpo;;NA;0;0;NA;NA;NA;NA;NA;speak;None;NA;NA;NA;NA;NA;NA;NA;NA;NA;NA;NA;NA;NA;NA;NA;switch;0;None;9.43421E+14
185;185;aguja;aguja;NA;0;1;NA;NA;NA;NA;NA;type;['a', 'g', 'u', 'j', 'a'];0.614016799954697;0.88604209991172;0.966003800043836;1.15835839998908;1.25368479988538;NA;NA;NA;NA;NA;NA;NA;NA;NA;NA;filler;0;None;9.48047E+14
186;186;taza;;NA;0;0;NA;NA;NA;NA;NA;speak;None;NA;NA;NA;NA;NA;NA;NA;NA;NA;NA;NA;NA;NA;NA;NA;nontarget;1;switch;9.52721E+14
187;187;taza;;NA;0;0;NA;NA;NA;NA;NA;speak;None;NA;NA;NA;NA;NA;NA;NA;NA;NA;NA;NA;NA;NA;NA;NA;repeat;0;None;9.57298E+14
188;188;ba?o;;NA;0;0;NA;NA;NA;NA;NA;speak;None;NA;NA;NA;NA;NA;NA;NA;NA;NA;NA;NA;NA;NA;NA;NA;nontarget;0;None;9.6184E+14
189;189;ba?o;ba?o;NA;0;1;NA;NA;NA;NA;NA;type;['b', 'a', '?', 'o'];0.685858399840072;0.717851100023836;1.13383349985816;1.30918239988387;NA;NA;NA;NA;NA;NA;NA;NA;NA;NA;NA;switch;0;None;9.66535E+14
190;190;iglesia;;NA;0;0;NA;NA;NA;NA;NA;speak;None;NA;NA;NA;NA;NA;NA;NA;NA;NA;NA;NA;NA;NA;NA;NA;filler;0;None;9.71119E+14
191;191;bombero;bombero;NA;0;1;NA;NA;NA;NA;NA;type;['b', 'o', 'm', 'b', 'e', 'r', 'o'];0.768505200045183;1.05620289989747;1.24878389993683;1.4728304001037;1.61644769995473;1.79245629999787;1.85644589993171;NA;NA;NA;NA;NA;NA;NA;NA;nontarget;1;switch;9.75828E+14
192;192;bombero;;NA;0;0;NA;NA;NA;NA;NA;speak;None;NA;NA;NA;NA;NA;NA;NA;NA;NA;NA;NA;NA;NA;NA;NA;switch;0;None;9.80426E+13
193;193;guante;guante;NA;0;1;NA;NA;NA;NA;NA;type;['g', 'u', 'a', 'n', 't', 'e'];0.750691999914125;0.829987799981609;1.00679180002771;1.0868005999364;1.27871829993092;1.37464729999192;NA;NA;NA;NA;NA;NA;NA;NA;NA;filler;0;None;9.84982E+14
194;194;conejo;;NA;0;0;NA;NA;NA;NA;NA;speak;None;NA;NA;NA;NA;NA;NA;NA;NA;NA;NA;NA;NA;NA;NA;NA;filler;0;None;9.8958E+14
195;195;vaca;;NA;0;0;NA;NA;NA;NA;NA;speak;None;NA;NA;NA;NA;NA;NA;NA;NA;NA;NA;NA;NA;NA;NA;NA;nontarget;1;repeat;9.94246E+14
196;196;vaca;;NA;0;0;NA;NA;NA;NA;NA;speak;None;NA;NA;NA;NA;NA;NA;NA;NA;NA;NA;NA;NA;NA;NA;NA;repeat;0;None;9.98886E+13
197;197;cartero;ccartero;NA;1;0;NA;NA;NA;NA;NA;type;['b', 'backspace', 'c', 'c', 'a', 'r', 't', 'e', 'r', 'o'];0.802031199913472;1.40899010002613;1.90568329999223;2.09764709998854;2.27383029996417;2.35366959986277;2.48166799987666;2.51366779999807;2.65768419997767;2.7379268000368;NA;NA;NA;NA;NA;filler;0;None;1.00365E+14
198;198;oreja;;NA;0;0;NA;NA;NA;NA;NA;speak;None;NA;NA;NA;NA;NA;NA;NA;NA;NA;NA;NA;NA;NA;NA;NA;filler;1;switch;1.00826E+14
199;199;regalo;;NA;0;0;NA;NA;NA;NA;NA;speak;None;NA;NA;NA;NA;NA;NA;NA;NA;NA;NA;NA;NA;NA;NA;NA;nontarget;1;repeat;1.01294E+14
200;200;regalo;regalo;NA;0;1;NA;NA;NA;NA;NA;type;['r', 'e', 'g', 'a', 'l', 'o'];0.997000799980015;1.09299849998206;1.1889969999902;1.31699109985493;1.54099550005049;1.66899619996548;NA;NA;NA;NA;NA;NA;NA;NA;NA;switch;0;None;1.01752E+14
201;201;camisa;camisa;NA;0;1;NA;NA;NA;NA;NA;type;['c', 'a', 'm', 'i', 's', 'a'];0.726458800025284;0.806381700094789;1.07850549998693;1.11046260013245;1.22256720019504;1.3825021001976;NA;NA;NA;NA;NA;NA;NA;NA;NA;nontarget;0;None;1.02217E+13
202;202;camisa;camisa;NA;0;1;NA;NA;NA;NA;NA;type;['c', 'a', 'm', 'i', 's', 'a'];0.756279400084168;0.837302200030535;1.14031639997847;1.18830889998935;1.29956579999998;1.45952150016092;NA;NA;NA;NA;NA;NA;NA;NA;NA;repeat;0;None;10268485049
203;203;espejo;;NA;0;0;NA;NA;NA;NA;NA;speak;None;NA;NA;NA;NA;NA;NA;NA;NA;NA;NA;NA;NA;NA;NA;NA;filler;0;None;1.03154E+14
204;204;miel;miel;NA;0;1;NA;NA;NA;NA;NA;type;['m', 'i', 'e', 'l'];0.7441823000554;0.840172399999574;0.99943029996939;1.09564900002442;NA;NA;NA;NA;NA;NA;NA;NA;NA;NA;NA;filler;0;None;1.03609E+14
205;205;tronco;;NA;0;0;NA;NA;NA;NA;NA;speak;None;NA;NA;NA;NA;NA;NA;NA;NA;NA;NA;NA;NA;NA;NA;NA;filler;0;None;1.04744E+14
206;206;espejo;espejo;NA;0;1;NA;NA;NA;NA;NA;type;['e', 's', 'p', 'e', 'j', 'o'];1.01701400009915;1.24101390014403;1.52836880018003;1.68840000010096;1.78436380019411;1.88036409998313;NA;NA;NA;NA;NA;NA;NA;NA;NA;filler;0;None;1.05211E+14
207;207;regalo;;NA;0;0;NA;NA;NA;NA;NA;speak;None;NA;NA;NA;NA;NA;NA;NA;NA;NA;NA;NA;NA;NA;NA;NA;filler;0;None;1.05672E+14
208;208;vaso;;NA;0;0;NA;NA;NA;NA;NA;speak;None;NA;NA;NA;NA;NA;NA;NA;NA;NA;NA;NA;NA;NA;NA;NA;nontarget;1;repeat;1.06144E+14
209;209;vaso;;NA;0;0;NA;NA;NA;NA;NA;speak;None;NA;NA;NA;NA;NA;NA;NA;NA;NA;NA;NA;NA;NA;NA;NA;repeat;0;None;10660550237
210;210;taza;taza;NA;0;1;NA;NA;NA;NA;NA;type;['t', 'a', 'z', 'a'];0.903414999833331;1.01541059999727;1.19136919989251;1.27195739978924;NA;NA;NA;NA;NA;NA;NA;NA;NA;NA;NA;filler;0;None;1.07065E+14
211;211;cazador;;NA;0;0;NA;NA;NA;NA;NA;speak;None;NA;NA;NA;NA;NA;NA;NA;NA;NA;NA;NA;NA;NA;NA;NA;nontarget;1;switch;1.07524E+14
212;212;cazador;;NA;0;0;NA;NA;NA;NA;NA;speak;None;NA;NA;NA;NA;NA;NA;NA;NA;NA;NA;NA;NA;NA;NA;NA;repeat;0;None;1.0799E+14
213;213;ba?o;ba?o;NA;0;1;NA;NA;NA;NA;NA;type;['b', 'a', '?', 'o'];0.970355600118637;1.13035020022653;1.41818170016631;1.59418420004658;NA;NA;NA;NA;NA;NA;NA;NA;NA;NA;NA;filler;0;None;1.08447E+14
214;214;espalda;;NA;0;0;NA;NA;NA;NA;NA;speak;None;NA;NA;NA;NA;NA;NA;NA;NA;NA;NA;NA;NA;NA;NA;NA;nontarget;0;None;1.08909E+14
215;215;espalda;espalda;NA;0;1;NA;NA;NA;NA;NA;type;['e', 's', 'p', 'a', 'l', 'd', 'a'];0.510130599839613;0.670125099830329;0.798726300010458;0.926337099866942;0.974222499877214;1.15026359981857;1.35826230002567;NA;NA;NA;NA;NA;NA;NA;NA;switch;0;None;1.09367E+14
216;216;camisa;camisa;NA;0;1;NA;NA;NA;NA;NA;type;['c', 'a', 'm', 'i', 's', 'a'];0.848022200167179;0.92739209998399;1.21548230014741;1.26344300014898;1.91982610011473;2.06342210015282;NA;NA;NA;NA;NA;NA;NA;NA;NA;filler;0;None;1.09826E+14
217;217;puente;puente;NA;0;1;NA;NA;NA;NA;NA;type;['p', 'u', 'e', 'n', 't', 'e'];0.84918210003525;1.13615420018323;1.31264140014537;1.37663360009901;1.58463580021635;1.68063930002972;NA;NA;NA;NA;NA;NA;NA;NA;NA;nontarget;1;repeat;1.1029E+14
218;218;puente;;NA;0;0;NA;NA;NA;NA;NA;speak;None;NA;NA;NA;NA;NA;NA;NA;NA;NA;NA;NA;NA;NA;NA;NA;switch;0;None;1.10757E+14
219;219;mu?eca;;NA;0;0;NA;NA;NA;NA;NA;speak;None;NA;NA;NA;NA;NA;NA;NA;NA;NA;NA;NA;NA;NA;NA;NA;nontarget;1;repeat;1.11228E+14
220;220;mu?eca;mu?eca;NA;0;1;NA;NA;NA;NA;NA;type;['m', 'u', '?', 'e', 'c', 'a'];0.477133300155401;0.733133099973202;1.08511320012622;1.16512800008059;1.42135310010053;1.53294910001568;NA;NA;NA;NA;NA;NA;NA;NA;NA;switch;0;None;1.11689E+14
221;221;vaca;;NA;0;0;NA;NA;NA;NA;NA;speak;None;NA;NA;NA;NA;NA;NA;NA;NA;NA;NA;NA;NA;NA;NA;NA;filler;1;switch;1.12162E+14
222;222;pulpo;;NA;0;0;NA;NA;NA;NA;NA;speak;None;NA;NA;NA;NA;NA;NA;NA;NA;NA;NA;NA;NA;NA;NA;NA;filler;0;None;1.12617E+14
223;223;fresa;fressa;NA;0;0;NA;NA;NA;NA;NA;type;['f', 'r', 'e', 's', 's', 'a'];0.979790899902582;1.37878439994529;1.61885129986331;1.71474969992414;1.89084859983996;1.90687059983611;NA;NA;NA;NA;NA;NA;NA;NA;NA;nontarget;1;switch;1.13074E+14
224;224;fresa;fresa;NA;0;1;NA;NA;NA;NA;NA;type;['f', 'r', 'e', 's', 'a'];0.814731099875644;0.942722499836236;1.11913499981165;1.18415939994156;1.35911339987069;NA;NA;NA;NA;NA;NA;NA;NA;NA;NA;repeat;0;None;1.13529E+14
225;225;pierna;;NA;0;0;NA;NA;NA;NA;NA;speak;None;NA;NA;NA;NA;NA;NA;NA;NA;NA;NA;NA;NA;NA;NA;NA;filler;0;None;1.13986E+14
226;226;bombero;;NA;0;0;NA;NA;NA;NA;NA;speak;None;NA;NA;NA;NA;NA;NA;NA;NA;NA;NA;NA;NA;NA;NA;NA;filler;0;None;11445097087
227;227;traje;traje;NA;0;1;NA;NA;NA;NA;NA;type;['t', 'r', 'a', 'j', 'e'];0.903979599941522;1.06390139996074;1.12889580009505;1.35189869999886;1.43217829987407;NA;NA;NA;NA;NA;NA;NA;NA;NA;NA;nontarget;1;switch;1.1491E+14
228;228;traje;traje;NA;0;1;NA;NA;NA;NA;NA;type;['t', 'r', 'a', 'j', 'e'];0.816011999966577;0.943956000031903;0.992999299895018;1.29569579986855;1.35970170004293;NA;NA;NA;NA;NA;NA;NA;NA;NA;NA;repeat;0;None;1.15368E+14
229;229;pavo;pavo;NA;0;1;NA;NA;NA;NA;NA;type;['p', 'a', 'v', 'o'];0.862340799998492;0.942333000013605;1.1983290000353;1.39010289986618;NA;NA;NA;NA;NA;NA;NA;NA;NA;NA;NA;nontarget;1;repeat;1.15831E+14
230;230;pavo;;NA;0;0;NA;NA;NA;NA;NA;speak;None;NA;NA;NA;NA;NA;NA;NA;NA;NA;NA;NA;NA;NA;NA;NA;switch;0;None;1.16297E+14
231;231;vaso;;NA;0;0;NA;NA;NA;NA;NA;speak;None;NA;NA;NA;NA;NA;NA;NA;NA;NA;NA;NA;NA;NA;NA;NA;filler;0;None;11676654381
232;232;traje;traje;NA;0;1;NA;NA;NA;NA;NA;type;['t', 'r', 'a', 'j', 'e'];0.704426900018007;0.831792500102893;0.879790300037712;1.13578850007616;1.2168163000606;NA;NA;NA;NA;NA;NA;NA;NA;NA;NA;filler;0;None;1.17239E+13
233;233;cerdo;cerdo;NA;0;1;NA;NA;NA;NA;NA;type;['c', 'e', 'r', 'd', 'o'];0.724010099889711;0.788993899943307;0.979987099999562;1.12391359987669;1.20391729986295;NA;NA;NA;NA;NA;NA;NA;NA;NA;NA;nontarget;0;None;1.17694E+14
234;234;cerdo;cerdo;NA;0;1;NA;NA;NA;NA;NA;type;['c', 'e', 'r', 'd', 'o'];0.647335200104862;0.727655100170523;0.887657700106502;1.04765500011854;1.14365560002625;NA;NA;NA;NA;NA;NA;NA;NA;NA;NA;repeat;0;None;1.1816E+14
235;235;cazador;;NA;0;0;NA;NA;NA;NA;NA;speak;None;NA;NA;NA;NA;NA;NA;NA;NA;NA;NA;NA;NA;NA;NA;NA;filler;0;None;1.18627E+14
236;236;manzana;manzana;NA;0;1;NA;NA;NA;NA;NA;type;['m', 'a', 'n', 'z', 'a', 'n', 'a'];0.861225199885666;0.941026600077748;1.03700040001422;1.14900230010971;1.30900450004265;1.40483039990067;1.53269489994273;NA;NA;NA;NA;NA;NA;NA;NA;nontarget;1;switch;1.19097E+14
237;237;manzana;mazana;NA;0;0;NA;NA;NA;NA;NA;type;['m', 'a', 'z', 'a', 'n', 'a'];0.743461600039154;0.838917300105095;1.06303910003044;1.25504780001938;1.35174710000865;1.44774740003049;NA;NA;NA;NA;NA;NA;NA;NA;NA;repeat;0;None;1.19556E+14
238;238;cuerda;cuerda;NA;0;1;NA;NA;NA;NA;NA;type;['c', 'u', 'e', 'r', 'd', 'a'];0.713452500058338;0.82542570005171;0.969496200094;1.11350130010396;1.28950070007704;1.3704524000641;NA;NA;NA;NA;NA;NA;NA;NA;NA;nontarget;0;None;1.20011E+14
239;239;cuerda;;NA;0;0;NA;NA;NA;NA;NA;speak;None;NA;NA;NA;NA;NA;NA;NA;NA;NA;NA;NA;NA;NA;NA;NA;switch;0;None;12047181082
240;240;espalda;;NA;0;0;NA;NA;NA;NA;NA;speak;None;NA;NA;NA;NA;NA;NA;NA;NA;NA;NA;NA;NA;NA;NA;NA;filler;1;repeat;1.20933E+14
241;241;granja;;NA;0;0;NA;NA;NA;NA;NA;speak;None;NA;NA;NA;NA;NA;NA;NA;NA;NA;NA;NA;NA;NA;NA;NA;nontarget;1;repeat;1.21396E+14
242;242;granja;granja;NA;0;1;NA;NA;NA;NA;NA;type;['g', 'r', 'a', 'n', 'j', 'a'];0.794712899951264;0.986666799988598;1.09870790014975;1.25911139999516;1.61130119999871;1.77113470016047;NA;NA;NA;NA;NA;NA;NA;NA;NA;switch;0;None;1.21855E+14
243;243;mu?eca;mu?eca;NA;0;1;NA;NA;NA;NA;NA;type;['m', 'u', '?', 'e', 'c', 'a'];0.852582799969241;0.996572700096294;1.2845352999866;1.36406900011934;1.57220449997112;1.6372128999792;NA;NA;NA;NA;NA;NA;NA;NA;NA;filler;1;repeat;1.22315E+14
244;244;falda;falda;NA;0;1;NA;NA;NA;NA;NA;type;['f', 'a', 'l', 'd', 'a'];0.942243800032884;1.02328539988957;1.31038310006261;1.55072949989699;1.64674589992501;NA;NA;NA;NA;NA;NA;NA;NA;NA;NA;nontarget;0;None;1.22775E+14
245;245;falda;;NA;0;0;NA;NA;NA;NA;NA;speak;None;NA;NA;NA;NA;NA;NA;NA;NA;NA;NA;NA;NA;NA;NA;NA;switch;0;None;1.23233E+14
246;246;caracol;;NA;0;0;NA;NA;NA;NA;NA;speak;None;NA;NA;NA;NA;NA;NA;NA;NA;NA;NA;NA;NA;NA;NA;NA;nontarget;1;switch;1.23694E+14
247;247;caracol;;NA;0;0;NA;NA;NA;NA;NA;speak;None;NA;NA;NA;NA;NA;NA;NA;NA;NA;NA;NA;NA;NA;NA;NA;repeat;0;None;1.24153E+14
248;248;fresa;fresa;NA;0;1;NA;NA;NA;NA;NA;type;['f', 'r', 'e', 's', 'a'];0.817004499956965;1.00794350006618;1.16795919998549;1.24794359994121;1.42411469994113;NA;NA;NA;NA;NA;NA;NA;NA;NA;NA;filler;0;None;12460844848
249;249;pintor;;NA;0;0;NA;NA;NA;NA;NA;speak;None;NA;NA;NA;NA;NA;NA;NA;NA;NA;NA;NA;NA;NA;NA;NA;nontarget;1;switch;1.25071E+14
250;250;pintor;;NA;0;0;NA;NA;NA;NA;NA;speak;None;NA;NA;NA;NA;NA;NA;NA;NA;NA;NA;NA;NA;NA;NA;NA;repeat;0;None;1.25539E+14
251;251;puente;puente;NA;0;1;NA;NA;NA;NA;NA;type;['p', 'u', 'e', 'n', 't', 'e'];0.922619800083339;1.14637039997615;1.25851870002225;1.33846820006147;1.49784830003045;1.60984189994633;NA;NA;NA;NA;NA;NA;NA;NA;NA;filler;0;None;1.26012E+14
252;252;pavo;;NA;1;0;NA;NA;NA;NA;NA;speak;['p', 'backspace'];0.751731400145218;1.77586250007153;NA;NA;NA;NA;NA;NA;NA;NA;NA;NA;NA;NA;NA;filler;0;None;1.26469E+14
253;253;mano;;NA;0;0;NA;NA;NA;NA;NA;speak;None;NA;NA;NA;NA;NA;NA;NA;NA;NA;NA;NA;NA;NA;NA;NA;nontarget;1;repeat;1.26925E+14
254;254;mano;mano;NA;0;1;NA;NA;NA;NA;NA;type;['m', 'a', 'n', 'o'];0.904877300141379;0.968872600002214;1.06491459999233;1.14490720001049;NA;NA;NA;NA;NA;NA;NA;NA;NA;NA;NA;switch;0;None;1.27387E+14
255;255;cerdo;cerdo;NA;0;1;NA;NA;NA;NA;NA;type;['c', 'e', 'r', 'd', 'o'];0.765741399955004;0.909729399951175;1.06975540006533;1.21374840009958;1.29375190008432;NA;NA;NA;NA;NA;NA;NA;NA;NA;NA;filler;0;None;1.27858E+14
256;256;aguja;agujha;NA;0;0;NA;NA;NA;NA;NA;type;['a', 'g', 'u', 'j', 'h', 'a'];0.727351500187069;1.16009790007956;1.20650670002215;1.41482420009561;1.43077050009742;1.52676480007358;NA;NA;NA;NA;NA;NA;NA;NA;NA;nontarget;1;repeat;1.30051E+14
257;257;aguja;;NA;0;0;NA;NA;NA;NA;NA;speak;None;NA;NA;NA;NA;NA;NA;NA;NA;NA;NA;NA;NA;NA;NA;NA;switch;0;None;1.30519E+14
258;258;manzana;;NA;0;0;NA;NA;NA;NA;NA;speak;None;NA;NA;NA;NA;NA;NA;NA;NA;NA;NA;NA;NA;NA;NA;NA;filler;0;None;1.30986E+14
259;259;conejo;;NA;0;0;NA;NA;NA;NA;NA;speak;None;NA;NA;NA;NA;NA;NA;NA;NA;NA;NA;NA;NA;NA;NA;NA;nontarget;1;repeat;1.31453E+14
260;260;conejo;conejo;NA;0;1;NA;NA;NA;NA;NA;type;['c', 'o', 'n', 'e', 'j', 'o'];0.843097700038925;0.970996499992907;1.17902699997649;1.27503350004554;1.46703690011054;1.54703480005264;NA;NA;NA;NA;NA;NA;NA;NA;NA;switch;0;None;1.31908E+14
261;261;miel;miel;NA;0;1;NA;NA;NA;NA;NA;type;['m', 'i', 'e', 'l'];0.733669999986887;0.893666899995878;1.05366460001096;1.14970359997824;NA;NA;NA;NA;NA;NA;NA;NA;NA;NA;NA;nontarget;1;repeat;1.32373E+14
262;262;miel;;NA;0;0;NA;NA;NA;NA;NA;speak;None;NA;NA;NA;NA;NA;NA;NA;NA;NA;NA;NA;NA;NA;NA;NA;switch;0;None;1.3283E+14
263;263;falda;falda;NA;0;1;NA;NA;NA;NA;NA;type;['f', 'a', 'l', 'd', 'a'];0.915275899926201;1.01065539987758;1.31456109997816;1.42658499977551;1.66719879978336;NA;NA;NA;NA;NA;NA;NA;NA;NA;NA;filler;0;None;1.33293E+14
264;264;goma;;NA;0;0;NA;NA;NA;NA;NA;speak;None;NA;NA;NA;NA;NA;NA;NA;NA;NA;NA;NA;NA;NA;NA;NA;nontarget;1;switch;1.33757E+14
265;265;goma;;NA;0;0;NA;NA;NA;NA;NA;speak;None;NA;NA;NA;NA;NA;NA;NA;NA;NA;NA;NA;NA;NA;NA;NA;repeat;0;None;1.34213E+14
266;266;caracol;carcaol;NA;0;0;NA;NA;NA;NA;NA;type;['c', 'a', 'r', 'c', 'a', 'o', 'l'];0.813015599967912;0.925018799956888;1.00497859995812;1.11697979993187;1.26098929997534;1.80610949988477;1.94904859992675;NA;NA;NA;NA;NA;NA;NA;NA;filler;0;None;1.34681E+14
267;267;iglesia;;NA;0;0;NA;NA;NA;NA;NA;speak;None;NA;NA;NA;NA;NA;NA;NA;NA;NA;NA;NA;NA;NA;NA;NA;nontarget;1;switch;1.35156E+14
268;268;iglesia;;NA;0;0;NA;NA;NA;NA;NA;speak;None;NA;NA;NA;NA;NA;NA;NA;NA;NA;NA;NA;NA;NA;NA;NA;repeat;0;None;1.35626E+14
269;269;oreja;;NA;0;0;NA;NA;NA;NA;NA;speak;None;NA;NA;NA;NA;NA;NA;NA;NA;NA;NA;NA;NA;NA;NA;NA;nontarget;0;None;1.36085E+14
270;270;oreja;oreja;NA;0;1;NA;NA;NA;NA;NA;type;['o', 'r', 'e', 'j', 'a'];0.891589300008491;1.05184830003418;1.24385460000485;1.3238435999956;1.50028170016594;NA;NA;NA;NA;NA;NA;NA;NA;NA;NA;switch;0;None;1.36545E+14
271;271;cuerda;;NA;0;0;NA;NA;NA;NA;NA;speak;None;NA;NA;NA;NA;NA;NA;NA;NA;NA;NA;NA;NA;NA;NA;NA;filler;0;None;1.37014E+14
272;272;granja;granja;NA;0;1;NA;NA;NA;NA;NA;type;['g', 'r', 'a', 'n', 'j', 'a'];0.930092300055549;1.15405660006218;1.3146190000698;1.55441530002281;1.66606519999914;1.7940624000039;NA;NA;NA;NA;NA;NA;NA;NA;NA;filler;1;switch;1.37482E+14
273;273;cartero;cartero;NA;0;1;NA;NA;NA;NA;NA;type;['c', 'a', 'r', 't', 'e', 'r', 'o'];0.827321999939159;0.923309299862012;1.00330500002019;1.14651830005459;1.22687530005351;1.38688579993322;1.46687139989808;NA;NA;NA;NA;NA;NA;NA;NA;nontarget;0;None;1.37956E+14
274;274;cartero;cartero;NA;0;1;NA;NA;NA;NA;NA;type;['c', 'a', 'r', 't', 'e', 'r', 'o'];0.653992000035942;0.74997889995575;0.829979500034824;0.973976799985394;1.10203339997679;1.30982699990273;1.42226239992306;NA;NA;NA;NA;NA;NA;NA;NA;repeat;0;None;1.38417E+14
275;275;mano;;NA;0;0;NA;NA;NA;NA;NA;speak;None;NA;NA;NA;NA;NA;NA;NA;NA;NA;NA;NA;NA;NA;NA;NA;filler;1;switch;1.38883E+14
276;276;guante;gyante;NA;0;0;NA;NA;NA;NA;NA;type;['g', 'y', 'a', 'n', 't', 'e'];0.840476599987596;0.952479499857873;1.16016669990495;1.22415759996511;1.43199279997498;1.4968318999745;NA;NA;NA;NA;NA;NA;NA;NA;NA;nontarget;1;switch;1.39345E+14
277;277;guante;guante;NA;0;1;NA;NA;NA;NA;NA;type;['g', 'u', 'a', 'n', 't', 'e'];0.654706300003454;0.750552499899641;0.878546699881554;1.03851879993454;1.27851169998758;1.34250689996406;NA;NA;NA;NA;NA;NA;NA;NA;NA;repeat;0;None;1.39802E+14
278;278;pintor;;NA;0;0;NA;NA;NA;NA;NA;speak;None;NA;NA;NA;NA;NA;NA;NA;NA;NA;NA;NA;NA;NA;NA;NA;filler;0;None;1.4027E+14
279;279;taza;taza;NA;0;1;NA;NA;NA;NA;NA;type;['t', 'a', 'z', 'a'];0.834812700049952;0.882733899867162;1.1216346998699;1.20163799985312;NA;NA;NA;NA;NA;NA;NA;NA;NA;NA;NA;nontarget;0;None;1.40727E+14
280;280;taza;taza;NA;0;1;NA;NA;NA;NA;NA;type;['t', 'a', 'z', 'a'];0.6579923001118;0.737956100143492;0.913960800040513;0.961984600173309;NA;NA;NA;NA;NA;NA;NA;NA;NA;NA;NA;repeat;0;None;1.41191E+14
281;281;aguja;;NA;0;0;NA;NA;NA;NA;NA;speak;None;NA;NA;NA;NA;NA;NA;NA;NA;NA;NA;NA;NA;NA;NA;NA;filler;0;None;1.41652E+14
282;282;regalo;regalo;NA;0;1;NA;NA;NA;NA;NA;type;['r', 'e', 'g', 'a', 'l', 'o'];0.93550239992328;1.0314390999265;1.14344289992005;1.31944280001335;1.49528659996577;1.62327519990504;NA;NA;NA;NA;NA;NA;NA;NA;NA;nontarget;1;switch;14212610229
283;283;regalo;;NA;0;0;NA;NA;NA;NA;NA;speak;None;NA;NA;NA;NA;NA;NA;NA;NA;NA;NA;NA;NA;NA;NA;NA;switch;0;None;1.42581E+14
284;284;ba?o;;NA;0;0;NA;NA;NA;NA;NA;speak;None;NA;NA;NA;NA;NA;NA;NA;NA;NA;NA;NA;NA;NA;NA;NA;nontarget;1;repeat;1.43055E+14
285;285;ba?o;;NA;0;0;NA;NA;NA;NA;NA;speak;None;NA;NA;NA;NA;NA;NA;NA;NA;NA;NA;NA;NA;NA;NA;NA;repeat;0;None;1.4352E+14
286;286;conejo;conejo;NA;0;1;NA;NA;NA;NA;NA;type;['c', 'o', 'n', 'e', 'j', 'o'];1.04859240003861;1.4166063000448;1.624546200037;1.81649499991909;1.96042669983581;2.07280549989082;NA;NA;NA;NA;NA;NA;NA;NA;NA;filler;0;None;14398676312
287;287;miel;;NA;0;0;NA;NA;NA;NA;NA;speak;None;NA;NA;NA;NA;NA;NA;NA;NA;NA;NA;NA;NA;NA;NA;NA;filler;0;None;1.44455E+14
288;288;camisa;;NA;0;0;NA;NA;NA;NA;NA;speak;None;NA;NA;NA;NA;NA;NA;NA;NA;NA;NA;NA;NA;NA;NA;NA;nontarget;1;repeat;1.44915E+14
289;289;camisa;camisa;NA;0;1;NA;NA;NA;NA;NA;type;['c', 'a', 'm', 'i', 's', 'a'];0.777599000139162;0.889584500109777;1.17761220014654;1.27357660001144;1.36961940000765;1.56232300004922;NA;NA;NA;NA;NA;NA;NA;NA;NA;switch;0;None;1.45379E+14
290;290;vaca;vaca;NA;0;1;NA;NA;NA;NA;NA;type;['v', 'a', 'c', 'a'];0.789232699899003;0.870037699816748;0.950035499874502;1.03002999979071;NA;NA;NA;NA;NA;NA;NA;NA;NA;NA;NA;nontarget;0;None;1.45845E+14
291;291;vaca;;NA;0;0;NA;NA;NA;NA;NA;speak;None;NA;NA;NA;NA;NA;NA;NA;NA;NA;NA;NA;NA;NA;NA;NA;switch;0;None;1.4631E+14
292;292;goma;goma;NA;0;1;NA;NA;NA;NA;NA;type;['g', 'o', 'm', 'a'];0.779451099922881;1.21044560009614;1.35440600011498;1.45137590006925;NA;NA;NA;NA;NA;NA;NA;NA;NA;NA;NA;filler;1;switch;1.46775E+14
293;293;pulpo;;NA;0;0;NA;NA;NA;NA;NA;speak;None;NA;NA;NA;NA;NA;NA;NA;NA;NA;NA;NA;NA;NA;NA;NA;nontarget;1;switch;1.47242E+13
294;294;pulpo;;NA;0;0;NA;NA;NA;NA;NA;speak;None;NA;NA;NA;NA;NA;NA;NA;NA;NA;NA;NA;NA;NA;NA;NA;repeat;0;None;1.47701E+14
295;295;iglesia;ihlesia;NA;0;0;NA;NA;NA;NA;NA;type;['i', 'g', 'h', 'l', 'e', 's', 'i', 'a'];1.03033860004507;1.28629830013961;1.28729220014066;1.73429669998586;1.91029300005175;2.3736208002083;2.469612600049;2.61362950014882;NA;NA;NA;NA;NA;NA;NA;filler;0;None;1.48163E+14
296;296;guante;;NA;0;0;NA;NA;NA;NA;NA;speak;None;NA;NA;NA;NA;NA;NA;NA;NA;NA;NA;NA;NA;NA;NA;NA;filler;0;None;1.48626E+14
297;297;pierna;;NA;0;0;NA;NA;NA;NA;NA;speak;None;NA;NA;NA;NA;NA;NA;NA;NA;NA;NA;NA;NA;NA;NA;NA;nontarget;1;repeat;1.49088E+14
298;298;pierna;pierna;NA;0;1;NA;NA;NA;NA;NA;type;['p', 'i', 'e', 'r', 'n', 'a'];1.04354480002075;1.28350439993665;1.39549879985861;1.57150459988043;1.66855319985189;1.81150599988177;NA;NA;NA;NA;NA;NA;NA;NA;NA;switch;0;None;1.49547E+14
299;299;tenedor;;NA;0;0;NA;NA;NA;NA;NA;speak;None;NA;NA;NA;NA;NA;NA;NA;NA;NA;NA;NA;NA;NA;NA;NA;filler;0;None;1.50019E+14
300;300;oreja;oreja;NA;0;1;NA;NA;NA;NA;NA;type;['o', 'r', 'e', 'j', 'a'];1.02801010012627;1.22001230018213;1.49126230017282;1.73126740008593;1.85926390020177;NA;NA;NA;NA;NA;NA;NA;NA;NA;NA;filler;1;switch;1.50485E+14
301;301;columna;;NA;0;0;NA;NA;NA;NA;NA;speak;None;NA;NA;NA;NA;NA;NA;NA;NA;NA;NA;NA;NA;NA;NA;NA;filler;0;None;1.50947E+14
302;302;cartero;cartero;NA;0;1;NA;NA;NA;NA;NA;type;['c', 'a', 'r', 't', 'e', 'r', 'o'];0.763734099920839;0.875728499842808;0.939724300056696;1.09935220004991;1.19730910006911;1.33927530003712;1.43527289992198;NA;NA;NA;NA;NA;NA;NA;NA;filler;1;switch;1.51412E+14
303;303;bombero;bombero;NA;0;1;NA;NA;NA;NA;NA;type;['b', 'o', 'm', 'b', 'e', 'r', 'o'];0.873291899915785;1.20928529999219;1.43328580004163;1.80158190010116;1.91358259995468;2.05758480005898;2.16959520010278;NA;NA;NA;NA;NA;NA;NA;NA;nontarget;1;repeat;1.51879E+14
304;304;bombero;bombero;NA;0;1;NA;NA;NA;NA;NA;type;['b', 'o', 'm', 'b', 'e', 'r', 'o'];0.704376900102943;1.00838060001843;1.20037190010771;1.44047530018725;1.5367680999916;1.6967764000874;1.79277590010315;NA;NA;NA;NA;NA;NA;NA;NA;repeat;0;None;1.52343E+14
305;305;cadena;;NA;0;0;NA;NA;NA;NA;NA;speak;None;NA;NA;NA;NA;NA;NA;NA;NA;NA;NA;NA;NA;NA;NA;NA;filler;0;None;1.52814E+13
306;306;escoba;escoba;NA;0;1;NA;NA;NA;NA;NA;type;['e', 's', 'c', 'o', 'b', 'a'];0.993739100173116;1.20176060008816;1.42582090012729;1.50573940016329;1.71366560016759;1.80966660007834;NA;NA;NA;NA;NA;NA;NA;NA;NA;filler;0;None;15328659182
307;307;pierna;pierna;NA;0;1;NA;NA;NA;NA;NA;type;['p', 'i', 'e', 'r', 'n', 'a'];0.876765700057149;1.10076290019788;1.29277380020358;1.46885880012996;1.54886350012384;1.74064050009474;NA;NA;NA;NA;NA;NA;NA;NA;NA;filler;0;None;1.54263E+14
308;308;taza;;NA;0;0;NA;NA;NA;NA;NA;speak;None;NA;NA;NA;NA;NA;NA;NA;NA;NA;NA;NA;NA;NA;NA;NA;filler;0;None;1.54729E+14
309;309;pavo;;NA;0;0;NA;NA;NA;NA;NA;speak;None;NA;NA;NA;NA;NA;NA;NA;NA;NA;NA;NA;NA;NA;NA;NA;nontarget;1;repeat;1.55194E+14
310;310;pavo;;NA;0;0;NA;NA;NA;NA;NA;speak;None;NA;NA;NA;NA;NA;NA;NA;NA;NA;NA;NA;NA;NA;NA;NA;repeat;0;None;1.55656E+14
311;311;vaca;vaca;NA;0;1;NA;NA;NA;NA;NA;type;['v', 'a', 'c', 'a'];0.709398099919781;0.790353699820116;0.869255399797112;0.965277999872342;NA;NA;NA;NA;NA;NA;NA;NA;NA;NA;NA;filler;1;repeat;1.56118E+14
312;312;espalda;;NA;0;0;NA;NA;NA;NA;NA;speak;None;NA;NA;NA;NA;NA;NA;NA;NA;NA;NA;NA;NA;NA;NA;NA;nontarget;1;switch;15658147318
313;313;espalda;;NA;0;0;NA;NA;NA;NA;NA;speak;None;NA;NA;NA;NA;NA;NA;NA;NA;NA;NA;NA;NA;NA;NA;NA;repeat;0;None;1.5705E+14
314;314;pulpo;pulo;NA;1;0;NA;NA;NA;NA;NA;type;['p', 'u', 'i', 'backspace', 'u', 'l', 'o'];0.674389400053769;0.977562499931082;0.978611799888313;1.84155749995261;2.35434109997004;2.62551939999685;2.8977639998775;NA;NA;NA;NA;NA;NA;NA;NA;filler;0;None;1.57517E+14
315;315;vaso;;NA;0;0;NA;NA;NA;NA;NA;speak;None;NA;NA;NA;NA;NA;NA;NA;NA;NA;NA;NA;NA;NA;NA;NA;nontarget;1;switch;15797886645
316;316;vaso;vaso;NA;0;1;NA;NA;NA;NA;NA;type;['v', 'a', 's', 'o'];0.708600400015712;0.804591999854892;0.980454999953508;1.18833109992556;NA;NA;NA;NA;NA;NA;NA;NA;NA;NA;NA;switch;0;None;1.58451E+14
317;317;regalo;regalo;NA;0;1;NA;NA;NA;NA;NA;type;['r', 'e', 'g', 'a', 'l', 'o'];0.783715500030667;0.927711700089276;1.0237833999563;1.19971009995788;1.35971270012669;1.47168219997548;NA;NA;NA;NA;NA;NA;NA;NA;NA;filler;1;repeat;1.58922E+14
318;318;traje;traje;NA;0;1;NA;NA;NA;NA;NA;type;['t', 'r', 'a', 'j', 'e'];0.891834900015965;1.01979689998552;1.05217460007407;1.30817779991776;1.35617009992711;NA;NA;NA;NA;NA;NA;NA;NA;NA;NA;nontarget;1;repeat;1.59383E+13
319;319;traje;;NA;0;0;NA;NA;NA;NA;NA;speak;None;NA;NA;NA;NA;NA;NA;NA;NA;NA;NA;NA;NA;NA;NA;NA;switch;0;None;1.59843E+14
320;320;fresa;;NA;0;0;NA;NA;NA;NA;NA;speak;None;NA;NA;NA;NA;NA;NA;NA;NA;NA;NA;NA;NA;NA;NA;NA;nontarget;1;repeat;1.60313E+14
321;321;fresa;fresa;NA;0;1;NA;NA;NA;NA;NA;type;['f', 'r', 'e', 's', 'a'];0.688872199971229;0.816315199946985;1.00831459998153;1.1042720999103;1.29629399999976;NA;NA;NA;NA;NA;NA;NA;NA;NA;NA;switch;0;None;1.60783E+14
322;322;bombero;bombero;NA;0;1;NA;NA;NA;NA;NA;type;['b', 'o', 'm', 'b', 'e', 'r', 'o'];0.858425999991596;1.19441289990209;1.37071920000017;1.59461409994401;1.6905491000507;1.83451960003003;1.91454269993119;NA;NA;NA;NA;NA;NA;NA;NA;filler;0;None;1.61236E+14
323;323;camisa;;NA;0;0;NA;NA;NA;NA;NA;speak;None;NA;NA;NA;NA;NA;NA;NA;NA;NA;NA;NA;NA;NA;NA;NA;filler;0;None;1.61701E+14
324;324;mu?eca;mu?eca;NA;0;1;NA;NA;NA;NA;NA;type;['m', 'u', '?', 'e', 'c', 'a'];0.808156199986115;0.983902799896896;1.2879421999678;1.4159409001004;1.63990080007352;1.71990950009786;NA;NA;NA;NA;NA;NA;NA;NA;NA;nontarget;0;None;1.62163E+14
325;325;mu?eca;mu?eca;NA;0;1;NA;NA;NA;NA;NA;type;['m', 'u', '?', 'e', 'c', 'a'];0.939399800030515;1.09939320012927;1.40341980010271;1.46739120013081;1.67539700004272;1.81941900006495;NA;NA;NA;NA;NA;NA;NA;NA;NA;repeat;0;None;1.62623E+14
326;326;ba?o;;NA;0;0;NA;NA;NA;NA;NA;speak;None;NA;NA;NA;NA;NA;NA;NA;NA;NA;NA;NA;NA;NA;NA;NA;filler;1;switch;1.6309E+14
327;327;puente;puente;NA;0;1;NA;NA;NA;NA;NA;type;['p', 'u', 'e', 'n', 't', 'e'];0.966128299944103;1.22209109994583;1.47899780003354;1.52633020002395;1.73399899993092;1.81396550009958;NA;NA;NA;NA;NA;NA;NA;NA;NA;nontarget;1;switch;1.63547E+14
328;328;puente;puente;NA;0;1;NA;NA;NA;NA;NA;type;['p', 'u', 'e', 'n', 't', 'e'];0.793748400174081;1.08116460009478;1.25771230016835;1.32170560001396;1.52934240014292;1.59329079999588;NA;NA;NA;NA;NA;NA;NA;NA;NA;repeat;0;None;1.64007E+14
329;329;cazador;cazador;NA;0;1;NA;NA;NA;NA;NA;type;['c', 'a', 'z', 'a', 'd', 'o', 'r'];0.737733599962667;0.801731299841776;1.00973099982366;1.16974859987386;1.32974660000764;1.45774519979022;1.58573729987256;NA;NA;NA;NA;NA;NA;NA;NA;nontarget;1;repeat;1.64482E+14
330;330;cazador;;NA;0;0;NA;NA;NA;NA;NA;speak;None;NA;NA;NA;NA;NA;NA;NA;NA;NA;NA;NA;NA;NA;NA;NA;switch;0;None;1.64938E+14
331;331;pavo;pavo;NA;0;1;NA;NA;NA;NA;NA;type;['p', 'a', 'v', 'o'];0.916257300181314;0.964284700108692;1.18828750005923;1.39628330012783;NA;NA;NA;NA;NA;NA;NA;NA;NA;NA;NA;filler;0;None;1.654E+14
332;332;falda;falda;NA;0;1;NA;NA;NA;NA;NA;type;['f', 'a', 'l', 'd', 'a'];0.930371099850163;0.994345800019801;1.33037209999748;1.61851719999686;1.69948299997486;NA;NA;NA;NA;NA;NA;NA;NA;NA;NA;nontarget;1;repeat;1.65863E+14
333;333;falda;falda;NA;0;1;NA;NA;NA;NA;NA;type;['f', 'a', 'l', 'd', 'a'];0.756150000030175;0.836171299917623;1.18822270003147;1.49215040006675;1.540147599997;NA;NA;NA;NA;NA;NA;NA;NA;NA;NA;repeat;0;None;1.66322E+14
334;334;puente;;NA;0;0;NA;NA;NA;NA;NA;speak;None;NA;NA;NA;NA;NA;NA;NA;NA;NA;NA;NA;NA;NA;NA;NA;filler;1;switch;1.66792E+14
335;335;cuerda;cuerda;NA;0;1;NA;NA;NA;NA;NA;type;['c', 'u', 'e', 'r', 'd', 'a'];0.899250500136986;1.07549880002625;1.18769269995391;1.34768090001307;1.45967240002938;1.55568240000866;NA;NA;NA;NA;NA;NA;NA;NA;NA;nontarget;1;switch;1.67254E+14
336;336;cuerda;cuerda;NA;0;1;NA;NA;NA;NA;NA;type;['c', 'u', 'e', 'r', 'd', 'a'];0.648547600023448;0.808714100159705;0.9046974000521;1.04803710011765;1.16024180012755;1.19223370007239;NA;NA;NA;NA;NA;NA;NA;NA;NA;repeat;0;None;1.67721E+14
337;337;espalda;espalda;NA;0;1;NA;NA;NA;NA;NA;type;['e', 's', 'p', 'a', 'l', 'd', 'a'];0.709577000001445;0.885954299941659;0.982516100164503;1.07754039997235;1.14161520008929;1.25361220003106;1.46141430013813;NA;NA;NA;NA;NA;NA;NA;NA;filler;0;None;1.68177E+14
338;338;tenedor;;NA;0;0;NA;NA;NA;NA;NA;speak;None;NA;NA;NA;NA;NA;NA;NA;NA;NA;NA;NA;NA;NA;NA;NA;filler;0;None;1.68632E+14
339;339;vaso;vaso;NA;0;1;NA;NA;NA;NA;NA;type;['v', 'a', 's', 'o'];0.643340500071645;0.707346300128847;0.899333300068974;1.07534340000711;NA;NA;NA;NA;NA;NA;NA;NA;NA;NA;NA;filler;1;switch;1.69093E+14
340;340;manzana;manzana;NA;0;1;NA;NA;NA;NA;NA;type;['m', 'a', 'n', 'z', 'a', 'n', 'a'];0.745428200112656;0.793427500175312;0.921093400102109;1.01770399999805;1.14673390006647;1.24172480008565;1.3536929001566;NA;NA;NA;NA;NA;NA;NA;NA;nontarget;1;repeat;1.6955E+14
341;341;manzana;;NA;0;0;NA;NA;NA;NA;NA;speak;None;NA;NA;NA;NA;NA;NA;NA;NA;NA;NA;NA;NA;NA;NA;NA;switch;0;None;1.70003E+14
342;342;traje;;NA;0;0;NA;NA;NA;NA;NA;speak;None;NA;NA;NA;NA;NA;NA;NA;NA;NA;NA;NA;NA;NA;NA;NA;filler;0;None;1.70466E+14
343;343;caracol;;NA;0;0;NA;NA;NA;NA;NA;speak;None;NA;NA;NA;NA;NA;NA;NA;NA;NA;NA;NA;NA;NA;NA;NA;nontarget;1;repeat;1.70925E+14
344;344;caracol;caracol;NA;0;1;NA;NA;NA;NA;NA;type;['c', 'a', 'r', 'a', 'c', 'o', 'l'];0.845443000085652;0.926502400077879;1.006465600105;1.11750190006569;1.16530909994617;1.43774159997702;1.56542199989781;NA;NA;NA;NA;NA;NA;NA;NA;switch;0;None;1.7138E+14
345;345;fresa;feesa;NA;0;0;NA;NA;NA;NA;NA;type;['f', 'e', 'e', 's', 'a'];0.764055399922654;0.907738500041887;1.05170319997706;1.13170729996637;1.37177730002441;NA;NA;NA;NA;NA;NA;NA;NA;NA;NA;filler;0;None;1.71854E+13
346;346;cerdo;cerdo;NA;0;1;NA;NA;NA;NA;NA;type;['c', 'e', 'r', 'd', 'o'];0.677625899901614;0.821615600027144;1.01360329985619;1.17295060004108;1.22095149988309;NA;NA;NA;NA;NA;NA;NA;NA;NA;NA;nontarget;1;repeat;1.72318E+14
347;347;cerdo;;NA;0;0;NA;NA;NA;NA;NA;speak;None;NA;NA;NA;NA;NA;NA;NA;NA;NA;NA;NA;NA;NA;NA;NA;switch;0;None;1.72783E+13
348;348;mano;;NA;0;0;NA;NA;NA;NA;NA;speak;None;NA;NA;NA;NA;NA;NA;NA;NA;NA;NA;NA;NA;NA;NA;NA;nontarget;0;None;1.7325E+14
349;349;mano;;NA;0;0;NA;NA;NA;NA;NA;speak;None;NA;NA;NA;NA;NA;NA;NA;NA;NA;NA;NA;NA;NA;NA;NA;repeat;0;None;1.73714E+14
350;350;mu?eca;mu?eca;NA;0;1;NA;NA;NA;NA;NA;type;['m', 'u', '?', 'e', 'c', 'a'];0.799522600136697;0.959961900021881;1.3279734000098;1.43995950021781;1.66407340019941;1.77554030017927;NA;NA;NA;NA;NA;NA;NA;NA;NA;filler;0;None;1.7418E+14
351;351;granja;;NA;0;0;NA;NA;NA;NA;NA;speak;None;NA;NA;NA;NA;NA;NA;NA;NA;NA;NA;NA;NA;NA;NA;NA;nontarget;1;switch;1.74639E+14
352;352;granja;;NA;0;0;NA;NA;NA;NA;NA;speak;None;NA;NA;NA;NA;NA;NA;NA;NA;NA;NA;NA;NA;NA;NA;NA;repeat;0;None;1.75103E+14
353;353;tronco;troinco;NA;0;0;NA;NA;NA;NA;NA;type;['t', 'r', 'o', 'i', 'n', 'c', 'o'];0.916229200083762;1.10862850002013;1.25261920015328;1.26861530006863;1.42845969996415;1.572466700105;1.71628700010478;NA;NA;NA;NA;NA;NA;NA;NA;filler;0;None;1.75563E+14
354;354;cazador;;NA;0;0;NA;NA;NA;NA;NA;speak;None;NA;NA;NA;NA;NA;NA;NA;NA;NA;NA;NA;NA;NA;NA;NA;filler;0;None;1.76023E+14
355;355;pintor;;NA;0;0;NA;NA;NA;NA;NA;speak;None;NA;NA;NA;NA;NA;NA;NA;NA;NA;NA;NA;NA;NA;NA;NA;nontarget;1;repeat;1.76488E+13
356;356;pintor;pintor;NA;0;1;NA;NA;NA;NA;NA;type;['p', 'i', 'n', 't', 'o', 'r'];1.01708379993215;1.27306929999031;1.46509109996259;1.62504999991506;1.68907179986127;1.86487299995497;NA;NA;NA;NA;NA;NA;NA;NA;NA;switch;0;None;1.76951E+14
357;357;columna;;NA;0;0;NA;NA;NA;NA;NA;speak;None;NA;NA;NA;NA;NA;NA;NA;NA;NA;NA;NA;NA;NA;NA;NA;filler;0;None;1.77408E+14
358;358;oreja;oreja;NA;0;1;NA;NA;NA;NA;NA;type;['o', 'r', 'e', 'j', 'a'];0.869192099897191;0.981225399998948;1.12536979978904;1.22116989991628;1.34917189995758;NA;NA;NA;NA;NA;NA;NA;NA;NA;NA;nontarget;0;None;1.7912E+14
359;359;oreja;;NA;0;0;NA;NA;NA;NA;NA;speak;None;NA;NA;NA;NA;NA;NA;NA;NA;NA;NA;NA;NA;NA;NA;NA;switch;0;None;1.79589E+14
360;360;falda;;NA;0;0;NA;NA;NA;NA;NA;speak;None;NA;NA;NA;NA;NA;NA;NA;NA;NA;NA;NA;NA;NA;NA;NA;filler;0;None;1.80057E+14
361;361;guante;;NA;0;0;NA;NA;NA;NA;NA;speak;None;NA;NA;NA;NA;NA;NA;NA;NA;NA;NA;NA;NA;NA;NA;NA;nontarget;1;repeat;1.80522E+14
362;362;guante;guante;NA;0;1;NA;NA;NA;NA;NA;type;['g', 'u', 'a', 'n', 't', 'e'];0.692434099968523;0.740421300055459;0.900417200056836;1.01241500000469;1.22042250004597;1.28438910003752;NA;NA;NA;NA;NA;NA;NA;NA;NA;switch;0;None;1.80984E+14
363;363;cuerda;cuerda;NA;0;1;NA;NA;NA;NA;NA;type;['c', 'u', 'e', 'r', 'd', 'a'];0.788223000010476;0.852216799976304;1.0122062000446;1.12427360005677;1.22021970013157;1.33220609999262;NA;NA;NA;NA;NA;NA;NA;NA;NA;filler;1;repeat;1.81442E+14
364;364;conejo;conejo;NA;0;1;NA;NA;NA;NA;NA;type;['c', 'o', 'n', 'e', 'j', 'o'];0.728478400036693;0.888769800076261;1.04980579996482;1.17780139995739;1.30479079997167;1.38479640008882;NA;NA;NA;NA;NA;NA;NA;NA;NA;nontarget;1;repeat;1.81899E+14
365;365;conejo;;NA;0;0;NA;NA;NA;NA;NA;speak;None;NA;NA;NA;NA;NA;NA;NA;NA;NA;NA;NA;NA;NA;NA;NA;switch;0;None;1.82358E+14
366;366;manzana;manzana;NA;0;1;NA;NA;NA;NA;NA;type;['m', 'a', 'n', 'z', 'a', 'n', 'a'];0.829513400094584;0.941469799960032;1.00547570013441;1.13347649993375;1.21347670000978;1.29350170004182;1.40605040010996;NA;NA;NA;NA;NA;NA;NA;NA;filler;0;None;1.82818E+14
367;367;cartero;;NA;0;0;NA;NA;NA;NA;NA;speak;None;NA;NA;NA;NA;NA;NA;NA;NA;NA;NA;NA;NA;NA;NA;NA;nontarget;1;switch;1.83283E+14
368;368;cartero;;NA;0;0;NA;NA;NA;NA;NA;speak;None;NA;NA;NA;NA;NA;NA;NA;NA;NA;NA;NA;NA;NA;NA;NA;repeat;0;None;1.83752E+14
369;369;caracol;;NA;0;0;NA;NA;NA;NA;NA;speak;None;NA;NA;NA;NA;NA;NA;NA;NA;NA;NA;NA;NA;NA;NA;NA;filler;0;None;1.84214E+14
370;370;cerdo;cerdo;NA;0;1;NA;NA;NA;NA;NA;type;['c', 'e', 'r', 'd', 'o'];0.757955000037327;1.19041879987344;1.35087239998393;1.51002339995466;1.71801359998062;NA;NA;NA;NA;NA;NA;NA;NA;NA;NA;filler;1;switch;1.84673E+14
371;371;miel;;NA;0;0;NA;NA;NA;NA;NA;speak;None;NA;NA;NA;NA;NA;NA;NA;NA;NA;NA;NA;NA;NA;NA;NA;nontarget;1;switch;1.8513E+14
372;372;miel;;NA;0;0;NA;NA;NA;NA;NA;speak;None;NA;NA;NA;NA;NA;NA;NA;NA;NA;NA;NA;NA;NA;NA;NA;repeat;0;None;1.85587E+14
373;373;iglesia;;NA;0;0;NA;NA;NA;NA;NA;speak;None;NA;NA;NA;NA;NA;NA;NA;NA;NA;NA;NA;NA;NA;NA;NA;nontarget;1;repeat;1.86044E+14
374;374;iglesia;iglesia;NA;0;1;NA;NA;NA;NA;NA;type;['i', 'g', 'k', 'l', 'e', 's', 'i', 'a'];0.665492499945685;0.905486400006339;1.04951309994794;1.05051540001296;1.27351810014807;1.46551150013693;1.5935376000125;1.94613729999401;NA;NA;NA;NA;NA;NA;NA;switch;0;None;1.86508E+14
375;375;granja;;NA;0;0;NA;NA;NA;NA;NA;speak;None;NA;NA;NA;NA;NA;NA;NA;NA;NA;NA;NA;NA;NA;NA;NA;filler;0;None;18696168211
376;376;mano;mano;NA;0;1;NA;NA;NA;NA;NA;type;['m', 'a', 'n', 'o'];0.754138899967074;0.83413269999437;0.946118999971077;1.02650590008125;NA;NA;NA;NA;NA;NA;NA;NA;NA;NA;NA;filler;0;None;1.87426E+14
377;377;goma;goma;NA;0;1;NA;NA;NA;NA;NA;type;['g', 'o', 'm', 'a'];0.907427700003609;0.987434200011194;1.16323609999381;1.29123329999857;NA;NA;NA;NA;NA;NA;NA;NA;NA;NA;NA;nontarget;0;None;1.8789E+13
378;378;goma;goma;NA;0;1;NA;NA;NA;NA;NA;type;['g', 'o', 'm', 'a'];0.819420000072569;0.867381899850443;1.04398639989085;1.17144150007516;NA;NA;NA;NA;NA;NA;NA;NA;NA;NA;NA;repeat;0;None;1.88349E+14
379;379;pintor;;NA;0;0;NA;NA;NA;NA;NA;speak;None;NA;NA;NA;NA;NA;NA;NA;NA;NA;NA;NA;NA;NA;NA;NA;filler;0;None;1.88813E+14
380;380;aguja;aguja;NA;0;1;NA;NA;NA;NA;NA;type;['a', 'g', 'u', 'j', 'a'];0.692651599878445;0.900639199884608;0.996715700021014;1.17271979991347;1.2687089999672;NA;NA;NA;NA;NA;NA;NA;NA;NA;NA;nontarget;1;switch;1.89277E+14
381;381;aguja;aguja;NA;0;1;NA;NA;NA;NA;NA;type;['a', 'g', 'u', 'j', 'a'];0.505689200013876;0.681543699931353;0.777508899802342;0.953574099810794;1.04958399990574;NA;NA;NA;NA;NA;NA;NA;NA;NA;NA;repeat;0;None;1.89743E+14
382;382;guante;guante;NA;0;1;NA;NA;NA;NA;NA;type;['g', 'u', 'a', 'n', 't', 'e'];0.765047300141305;0.893068100092933;1.13302429998294;1.24411309999414;1.48407010012306;1.54906910005957;NA;NA;NA;NA;NA;NA;NA;NA;NA;filler;1;repeat;1.90204E+14
383;383;espejo;;NA;0;0;NA;NA;NA;NA;NA;speak;None;NA;NA;NA;NA;NA;NA;NA;NA;NA;NA;NA;NA;NA;NA;NA;filler;0;None;1.90665E+14
384;384;goma;;NA;0;0;NA;NA;NA;NA;NA;speak;None;NA;NA;NA;NA;NA;NA;NA;NA;NA;NA;NA;NA;NA;NA;NA;filler;1;repeat;1.91128E+14
385;385;regalo;regalo;NA;0;1;NA;NA;NA;NA;NA;type;['r', 'e', 'g', 'a', 'l', 'o'];0.997105600079522;1.09308329992928;1.20508570014499;1.39708500006236;1.58906830009073;1.70102909998968;NA;NA;NA;NA;NA;NA;NA;NA;NA;nontarget;0;None;1.91595E+14
386;386;regalo;regalo;NA;0;1;NA;NA;NA;NA;NA;type;['r', 'e', 'g', 'a', 'l', 'o'];0.652758799958974;0.716694900067523;0.844691899837926;0.988657600013539;1.14973840001039;1.26144040003419;NA;NA;NA;NA;NA;NA;NA;NA;NA;repeat;0;None;1.92053E+14
387;387;pierna;pierna;NA;0;1;NA;NA;NA;NA;NA;type;['p', 'i', 'e', 'r', 'n', 'a'];0.800795400049537;1.07328799995594;1.21727439993992;1.40916500007734;1.4732071000617;1.72928820014931;NA;NA;NA;NA;NA;NA;NA;NA;NA;nontarget;1;repeat;1.92514E+14
388;388;pierna;;NA;0;0;NA;NA;NA;NA;NA;speak;None;NA;NA;NA;NA;NA;NA;NA;NA;NA;NA;NA;NA;NA;NA;NA;switch;0;None;1.9299E+14
389;389;conejo;conejo;NA;0;1;NA;NA;NA;NA;NA;type;['c', 'o', 'n', 'e', 'j', 'o'];0.750070800073445;0.830173800000921;1.00620230007917;1.10253200004809;1.24609909998253;1.32711780001409;NA;NA;NA;NA;NA;NA;NA;NA;NA;filler;0;None;1.93445E+14
390;390;camisa;;NA;0;0;NA;NA;NA;NA;NA;speak;None;NA;NA;NA;NA;NA;NA;NA;NA;NA;NA;NA;NA;NA;NA;NA;nontarget;1;switch;1.93913E+14
391;391;camisa;;NA;0;0;NA;NA;NA;NA;NA;speak;None;NA;NA;NA;NA;NA;NA;NA;NA;NA;NA;NA;NA;NA;NA;NA;repeat;0;None;1.94379E+14
392;392;vaca;;NA;0;0;NA;NA;NA;NA;NA;speak;None;NA;NA;NA;NA;NA;NA;NA;NA;NA;NA;NA;NA;NA;NA;NA;nontarget;0;None;1.94839E+14
393;393;vaca;vaca;NA;0;1;NA;NA;NA;NA;NA;type;['v', 'a', 'c', 'a'];0.607157200109214;0.687122399918735;0.752145299920812;0.863141299923882;NA;NA;NA;NA;NA;NA;NA;NA;NA;NA;NA;switch;0;None;1.95295E+14
394;394;cartero;;NA;0;0;NA;NA;NA;NA;NA;speak;None;NA;NA;NA;NA;NA;NA;NA;NA;NA;NA;NA;NA;NA;NA;NA;filler;0;None;1.95749E+14
395;395;taza;taza;NA;0;1;NA;NA;NA;NA;NA;type;['t', 'a', 'z', 'a'];0.726482399972156;0.790553899947554;0.918475199956447;0.998503600014374;NA;NA;NA;NA;NA;NA;NA;NA;NA;NA;NA;nontarget;1;switch;1.96206E+14
396;396;taza;;NA;0;0;NA;NA;NA;NA;NA;speak;None;NA;NA;NA;NA;NA;NA;NA;NA;NA;NA;NA;NA;NA;NA;NA;switch;0;None;1.96672E+14
397;397;cadena;cadena;NA;0;1;NA;NA;NA;NA;NA;type;['c', 'a', 'd', 'e', 'n', 'a'];0.843853200087324;1.1318586000707;1.59568860009313;1.69168150005862;1.81959970016032;1.98058070009574;NA;NA;NA;NA;NA;NA;NA;NA;NA;filler;0;None;1.97137E+14
398;398;miel;;NA;0;0;NA;NA;NA;NA;NA;speak;None;NA;NA;NA;NA;NA;NA;NA;NA;NA;NA;NA;NA;NA;NA;NA;filler;0;None;1.97601E+14
399;399;bombero;;NA;0;0;NA;NA;NA;NA;NA;speak;None;NA;NA;NA;NA;NA;NA;NA;NA;NA;NA;NA;NA;NA;NA;NA;nontarget;1;repeat;1.98075E+14
400;400;bombero;;NA;0;0;NA;NA;NA;NA;NA;speak;None;NA;NA;NA;NA;NA;NA;NA;NA;NA;NA;NA;NA;NA;NA;NA;repeat;0;None;1.98536E+14
401;401;iglesia;iglesia;NA;0;1;NA;NA;NA;NA;NA;type;['i', 'g', 'l', 'e', 's', 'i', 'a'];0.828568800119683;1.08429679996334;1.1802583001554;1.34029279998504;1.61191230011173;1.69191060005687;1.80390950012952;NA;NA;NA;NA;NA;NA;NA;NA;filler;1;switch;1.99002E+14
402;402;oreja;;NA;0;0;NA;NA;NA;NA;NA;speak;None;NA;NA;NA;NA;NA;NA;NA;NA;NA;NA;NA;NA;NA;NA;NA;filler;0;None;1.99463E+14
403;403;pulpo;;NA;0;0;NA;NA;NA;NA;NA;speak;None;NA;NA;NA;NA;NA;NA;NA;NA;NA;NA;NA;NA;NA;NA;NA;nontarget;1;repeat;1.99942E+14
404;404;pulpo;pulpo;NA;0;1;NA;NA;NA;NA;NA;type;['p', 'u', 'l', 'p', 'o'];0.854964300058782;1.11098759993911;1.33449340006337;1.51049669994973;1.68655650014989;NA;NA;NA;NA;NA;NA;NA;NA;NA;NA;switch;0;None;2.004E+14
405;405;escoba;;NA;0;0;NA;NA;NA;NA;NA;speak;None;NA;NA;NA;NA;NA;NA;NA;NA;NA;NA;NA;NA;NA;NA;NA;filler;0;None;2.00862E+14
406;406;aguja;aguja;NA;0;1;NA;NA;NA;NA;NA;type;['a', 'g', 'u', 'j', 'a'];0.983273799996823;1.31923279981129;1.49525549984537;1.63966949982569;1.7836203998886;NA;NA;NA;NA;NA;NA;NA;NA;NA;NA;filler;0;None;2.01328E+14
407;407;ba?o;ba?o;NA;0;1;NA;NA;NA;NA;NA;type;['b', 'a', '?', 'o'];0.723226199857891;0.835212199948728;1.10740359988995;1.31539110001177;NA;NA;NA;NA;NA;NA;NA;NA;NA;NA;NA;nontarget;1;repeat;2.01794E+14
408;408;ba?o;ba?o;NA;0;1;NA;NA;NA;NA;NA;type;['b', 'a', '?', 'o'];0.685173999983817;0.781202899990603;1.03750900016166;1.24515910004266;NA;NA;NA;NA;NA;NA;NA;NA;NA;NA;NA;repeat;0;None;2.02253E+14
