"","Trial_no","CorrectAns","SubjResponse","Transcription","Notes","Backspace","Item_correct","Modality_Correct","Exclude","Experiment_part","RepSwitch","Error_Corrected","Hesitation","RespModal","RT","Duration","KeyResp_keys","key1","key2","key3","key4","key5","key6","key7","key8","key9","key10","key11","key12","key13","key14","key15","baseline","baseline_condition"
"1",1,"espejo","espejio","[type]","",0,"0",1,"1","First","filler",NA,0,"type",1.0333323,0.7516351,"['e', 's', 'p', 'e', 'j', 'i', 'o']",1.0333323,1.2091375,1.3531809,1.4331943,1.6085264,1.7684132,1.7849674,NA,NA,NA,NA,NA,NA,NA,NA,0,"None"
"2",2,"cadena","cadena","cadena","mic sound /?/",0,"1",1,"0","First","filler",NA,0,"speak",0.708848,0.395152,"None",NA,NA,NA,NA,NA,NA,NA,NA,NA,NA,NA,NA,NA,NA,NA,0,"None"
"3",3,"puente","puente","puente","articulation sound",0,"1",1,"0","First","nontarget",NA,0,"speak",0.736,0.396277,"None",NA,NA,NA,NA,NA,NA,NA,NA,NA,NA,NA,NA,NA,NA,NA,1,"repeat"
"4",4,"puente","puente","puente","",0,"1",1,"0","First","repeat",NA,0,"speak",0.788899,0.388637,"None",NA,NA,NA,NA,NA,NA,NA,NA,NA,NA,NA,NA,NA,NA,NA,0,"None"
"5",5,"vaca","vaca","[type]","",0,"1",1,"0","First","filler",NA,0,"type",0.9202477,0.2888971,"['v', 'a', 'c', 'a']",0.9202477,1.0491492,1.1291399,1.2091448,NA,NA,NA,NA,NA,NA,NA,NA,NA,NA,NA,0,"None"
"6",6,"fresa","fresa","fresa","",0,"1",1,"0","First","nontarget",NA,0,"speak",0.805323,0.450336,"None",NA,NA,NA,NA,NA,NA,NA,NA,NA,NA,NA,NA,NA,NA,NA,1,"switch"
"7",7,"fresa","fresa","fresa","",0,"1",1,"0","First","repeat",NA,0,"speak",0.482035,0.441506,"None",NA,NA,NA,NA,NA,NA,NA,NA,NA,NA,NA,NA,NA,NA,NA,0,"None"
"8",8,"ba?o","na?o","[type]","",1,"0",1,"1","First","filler",NA,0,"type",0.9440352,1.6324953,"['n', 'a', 'backspace', 'a', '?', 'o']",0.9440352,1.0400621,1.3917702,1.8721299,2.3844834,2.5765305,NA,NA,NA,NA,NA,NA,NA,NA,NA,1,"switch"
"9",9,"traje","traje","traje","tongue",0,"1",1,"0","First","nontarget",NA,0,"speak",0.909959,0.371922,"None",NA,NA,NA,NA,NA,NA,NA,NA,NA,NA,NA,NA,NA,NA,NA,0,"None"
"10",10,"traje","traje","[type]","",0,"1",1,"0","First","switch",NA,0,"type",0.6547774,0.5919883,"['t', 'r', 'a', 'j', 'e']",0.6547774,0.798741,0.8947347,1.1826573,1.2467657,NA,NA,NA,NA,NA,NA,NA,NA,NA,NA,0,"None"
"11",11,"camisa","camisa","camisa","",0,"1",1,"0","First","filler",NA,0,"speak",0.647497,0.442231,"None",NA,NA,NA,NA,NA,NA,NA,NA,NA,NA,NA,NA,NA,NA,NA,0,"None"
"12",12,"mu?eca","u?eac","[type]","",0,"0",1,"1","First","nontarget",NA,0,"type",1.2477331,1.3596853,"['u', '?', 'e', 'a', 'c']",1.2477331,1.9354316,2.3193883,2.5914249,2.6074184,NA,NA,NA,NA,NA,NA,NA,NA,NA,NA,1,"switch"
"13",13,"mu?eca","mu?eca","mu?eca","",0,"1",1,"1","First","switch",NA,0,"speak",0.872,0.468905,"None",NA,NA,NA,NA,NA,NA,NA,NA,NA,NA,NA,NA,NA,NA,NA,0,"None"
"14",14,"pierna","pierna","uhmm...pierna","uhmm...pierna",0,"1",1,"0","First","filler",NA,1,"speak",1.76255,0.375266,"None",NA,NA,NA,NA,NA,NA,NA,NA,NA,NA,NA,NA,NA,NA,NA,0,"None"
"15",15,"pavo","pavo","pavo","",0,"1",1,"0","First","nontarget",NA,0,"speak",0.672,0.28,"None",NA,NA,NA,NA,NA,NA,NA,NA,NA,NA,NA,NA,NA,NA,NA,0,"None"
"16",16,"pavo","pavo","[type]","",0,"1",1,"0","First","switch",NA,0,"type",0.9925778,0.4641802,"['p', 'a', 'v', 'o']",0.9925778,1.0725373,1.2167502,1.456758,NA,NA,NA,NA,NA,NA,NA,NA,NA,NA,NA,0,"None"
"17",17,"cazador","cazado","[type]","deep breath",0,"0",1,"1","First","nontarget",NA,0,"type",1.9980499,0.9283355,"['c', 'a', 'z', 'a', 'd', 'o']",1.9980499,2.1258769,2.3983744,2.5273663,2.8303723,2.9263854,NA,NA,NA,NA,NA,NA,NA,NA,NA,1,"switch"
"18",18,"cazador","cazador","[type]","",0,"1",1,"1","First","repeat",NA,0,"type",1.118882,0.8481599,"['c', 'a', 'z', 'a', 'd', 'o', 'r']",1.118882,1.1988775,1.3588678,1.4549136,1.7912867,1.8551171,1.9670419,NA,NA,NA,NA,NA,NA,NA,NA,0,"None"
"19",19,"taza","taza","taza","mic sound /?/",0,"1",1,"0","First","filler",NA,0,"speak",0.813603,0.335045,"None",NA,NA,NA,NA,NA,NA,NA,NA,NA,NA,NA,NA,NA,NA,NA,0,"None"
"20",20,"bombero","bombero","[type]","",0,"1",1,"0","First","filler",NA,0,"type",1.2088214,1.1200026,"['b', 'o', 'm', 'b', 'e', 'r', 'o']",1.2088214,1.5280241,1.7040516,1.9928061,2.0738309,2.2328375,2.328824,NA,NA,NA,NA,NA,NA,NA,NA,0,"None"
"21",21,"vaso","vaso","[type]","",0,"1",1,"0","First","nontarget",NA,0,"type",1.4952016,0.3680545,"['v', 'a', 's', 'o']",1.4952016,1.5591572,1.7191552,1.8632561,NA,NA,NA,NA,NA,NA,NA,NA,NA,NA,NA,1,"repeat"
"22",22,"vaso","vaso","[type]","",0,"1",1,"0","First","repeat",NA,0,"type",0.8840755,0.3857071,"['v', 'a', 's', 'o']",0.8840755,0.9960735,1.1554048,1.2697826,NA,NA,NA,NA,NA,NA,NA,NA,NA,NA,NA,0,"None"
"23",23,"regalo","regalo","regalo","tongue",0,"1",1,"0","First","filler",NA,0,"speak",0.624807,0.483733,"None",NA,NA,NA,NA,NA,NA,NA,NA,NA,NA,NA,NA,NA,NA,NA,1,"switch"
"24",24,"pulpo","pulpo","[type]","",0,"1",1,"0","First","filler",NA,0,"type",0.9474951,0.8796015,"['p', 'u', 'l', 'p', 'o']",0.9474951,1.218828,1.5554825,1.6830941,1.8270966,NA,NA,NA,NA,NA,NA,NA,NA,NA,NA,1,"switch"
"25",25,"espalda","espalda","[type]","",0,"1",1,"0","First","nontarget",NA,0,"type",1.2649396,0.6879927,"['e', 's', 'p', 'a', 'l', 'd', 'a']",1.2649396,1.3769229,1.4728976,1.55292,1.6489058,1.7769332,1.9529323,NA,NA,NA,NA,NA,NA,NA,NA,1,"repeat"
"26",26,"espalda","espalda","espalda","",0,"1",1,"0","First","switch",NA,0,"speak",0.663671,0.531665,"None",NA,NA,NA,NA,NA,NA,NA,NA,NA,NA,NA,NA,NA,NA,NA,0,"None"
"27",27,"puente","puente","puente","",0,"1",1,"0","First","filler",NA,0,"speak",0.915882,0.368452,"None",NA,NA,NA,NA,NA,NA,NA,NA,NA,NA,NA,NA,NA,NA,NA,0,"None"
"28",28,"pintor","pintor","[type]","",0,"1",1,"0","First","nontarget",NA,0,"type",0.6300091,0.8007012,"['p', 'i', 'n', 't', 'o', 'r']",0.6300091,0.9338562,1.0616989,1.2536923,1.3336633,1.4307103,NA,NA,NA,NA,NA,NA,NA,NA,NA,1,"switch"
"29",29,"pintor","pintor","[type]","",0,"1",1,"0","First","repeat",NA,0,"type",1.0031407,0.687623,"['p', 'i', 'n', 't', 'o', 'r']",1.0031407,1.2107572,1.3707555,1.4827454,1.5947583,1.6907637,NA,NA,NA,NA,NA,NA,NA,NA,NA,0,"None"
"30",30,"fresa","fresa","fresa","",0,"1",1,"0","First","filler",NA,0,"speak",0.497171,0.436432,"None",NA,NA,NA,NA,NA,NA,NA,NA,NA,NA,NA,NA,NA,NA,NA,0,"None"
"31",31,"caracol","caracol","[type]","",0,"1",1,"0","First","nontarget",NA,0,"type",0.7967137,0.7677779,"['c', 'a', 'r', 'a', 'c', 'o', 'l']",0.7967137,0.9247448,0.9887008,1.1166963,1.1487029,1.4365596,1.5644916,NA,NA,NA,NA,NA,NA,NA,NA,1,"switch"
"32",32,"caracol","carcaol","[type]","",0,"0",1,"1","First","repeat",NA,0,"type",0.7341714,0.8481614,"['c', 'a', 'r', 'c', 'a', 'o', 'l']",0.7341714,0.8621134,0.8781545,1.054151,1.0702179,1.4383445,1.5823328,NA,NA,NA,NA,NA,NA,NA,NA,0,"None"
"33",33,"mu?eca","mu?eca","mu?eca","",0,"1",1,"0","First","filler",NA,0,"speak",0.855071,0.54247,"None",NA,NA,NA,NA,NA,NA,NA,NA,NA,NA,NA,NA,NA,NA,NA,0,"None"
"34",34,"mano","mano","[type]","",0,"1",1,"0","First","nontarget",NA,0,"type",0.9403638,0.2252059,"['m', 'a', 'n', 'o']",0.9403638,1.0041972,1.1161594,1.1655697,NA,NA,NA,NA,NA,NA,NA,NA,NA,NA,NA,0,"None"
"35",35,"mano","mano","mano","",0,"1",1,"0","First","switch",NA,0,"speak",0.659085,0.383625,"None",NA,NA,NA,NA,NA,NA,NA,NA,NA,NA,NA,NA,NA,NA,NA,0,"None"
"36",36,"cuerda","cuerda","cuerda","",0,"1",1,"0","First","nontarget",NA,0,"speak",0.793,0.414386,"None",NA,NA,NA,NA,NA,NA,NA,NA,NA,NA,NA,NA,NA,NA,NA,1,"repeat"
"37",37,"cuerda","cuerda","[type]","",0,"1",1,"0","First","switch",NA,0,"type",0.9357841,0.5592765,"['c', 'u', 'e', 'r', 'd', 'a']",0.9357841,1.0797815,1.1757777,1.3033487,1.4315078,1.4950606,NA,NA,NA,NA,NA,NA,NA,NA,NA,0,"None"
"38",38,"traje","trajhe","[type]","",0,"0",1,"1","First","filler",NA,0,"type",1.1164369,0.5599805,"['t', 'r', 'a', 'j', 'h', 'e']",1.1164369,1.2604318,1.3244672,1.5644732,1.5964621,1.6764174,NA,NA,NA,NA,NA,NA,NA,NA,NA,0,"None"
"39",39,"granja","granja","[type]","tongue",0,"1",1,"0","First","nontarget",NA,0,"type",1.0228647,0.9273657,"['g', 'r', 'a', 'n', 'j', 'a']",1.0228647,1.2148455,1.3108753,1.758879,1.8862641,1.9502304,NA,NA,NA,NA,NA,NA,NA,NA,NA,1,"repeat"
"40",40,"granja","granja","granja","",0,"1",1,"0","First","switch",NA,0,"speak",0.74314,0.435686,"None",NA,NA,NA,NA,NA,NA,NA,NA,NA,NA,NA,NA,NA,NA,NA,0,"None"
"41",41,"vaso","vaso","[type]","",0,"1",1,"0","First","filler",NA,0,"type",0.6953067,0.8153821,"['v', 'a', 's', 'o']",0.6953067,0.7913047,1.3826629,1.5106888,NA,NA,NA,NA,NA,NA,NA,NA,NA,NA,NA,0,"None"
"42",42,"pavo","pavo","pavo","",0,"1",1,"0","First","filler",NA,0,"speak",0.833986,0.328675,"None",NA,NA,NA,NA,NA,NA,NA,NA,NA,NA,NA,NA,NA,NA,NA,1,"switch"
"43",43,"manzana","manzana","manzana","",0,"1",1,"0","First","nontarget",NA,0,"speak",1.033881,0.591119,"None",NA,NA,NA,NA,NA,NA,NA,NA,NA,NA,NA,NA,NA,NA,NA,1,"repeat"
"44",44,"manzana","manzana","manzana","",0,"1",1,"0","First","repeat",NA,0,"speak",0.551232,0.536268,"None",NA,NA,NA,NA,NA,NA,NA,NA,NA,NA,NA,NA,NA,NA,NA,0,"None"
"45",45,"cazador","cazador","[type]","",0,"1",1,"0","First","filler",NA,0,"type",0.9949602,0.8646824,"['c', 'a', 'z', 'a', 'd', 'o', 'r']",0.9949602,1.0749533,1.2513096,1.3633056,1.6036114,1.7476322,1.8596426,NA,NA,NA,NA,NA,NA,NA,NA,0,"None"
"46",46,"cerdo","cerdo","cerdo","mic sound /?/, tongue",0,"1",1,"0","First","nontarget",NA,0,"speak",0.802775,0.450973,"None",NA,NA,NA,NA,NA,NA,NA,NA,NA,NA,NA,NA,NA,NA,NA,1,"switch"
"47",47,"cerdo","cerdo","cerdo","",0,"1",1,"0","First","repeat",NA,0,"speak",0.429057,0.544909,"None",NA,NA,NA,NA,NA,NA,NA,NA,NA,NA,NA,NA,NA,NA,NA,0,"None"
"48",48,"escoba","escoba","[/e/, type]","started speaking, then typed",0,"1",0,"0","First","filler",NA,0,"type",0.9905938,0.8001021,"['e', 's', 'c', 'o', 'b', 'a']",0.9905938,1.1986534,1.4229843,1.534974,1.710721,1.7906959,NA,NA,NA,NA,NA,NA,NA,NA,NA,0,"None"
"49",49,"espalda","espalda","espalda","breath before speaking",0,"1",1,"0","First","filler",NA,0,"speak",1.100848,0.512926,"None",NA,NA,NA,NA,NA,NA,NA,NA,NA,NA,NA,NA,NA,NA,NA,0,"None"
"50",50,"falda","falda","falda","",0,"1",1,"0","First","nontarget",NA,0,"speak",0.610694,0.469227,"None",NA,NA,NA,NA,NA,NA,NA,NA,NA,NA,NA,NA,NA,NA,NA,1,"repeat"
"51",51,"falda","falda","[type]","",0,"1",1,"0","First","switch",NA,0,"type",0.9250573,0.6558296,"['f', 'a', 'l', 'd', 'a']",0.9250573,1.005464,1.3248466,1.3888513,1.5808869,NA,NA,NA,NA,NA,NA,NA,NA,NA,NA,0,"None"
"52",52,"guante","guante","[type]","",0,"1",1,"0","First","nontarget",NA,0,"type",0.9231686,0.5599386,"['g', 'u', 'a', 'n', 't', 'e']",0.9231686,1.0191625,1.1796848,1.2436947,1.435181,1.4831072,NA,NA,NA,NA,NA,NA,NA,NA,NA,0,"None"
"53",53,"guante","guante","guante","tongue",0,"1",1,"0","First","switch",NA,0,"speak",0.48487,0.440216,"None",NA,NA,NA,NA,NA,NA,NA,NA,NA,NA,NA,NA,NA,NA,NA,0,"None"
"54",54,"tronco","tronco","tronco","",0,"1",1,"0","First","filler",NA,0,"speak",0.889,0.395073,"None",NA,NA,NA,NA,NA,NA,NA,NA,NA,NA,NA,NA,NA,NA,NA,0,"None"
"55",55,"miel","miel","miel","",0,"1",1,"0","First","nontarget",NA,0,"speak",0.892587,0.384728,"None",NA,NA,NA,NA,NA,NA,NA,NA,NA,NA,NA,NA,NA,NA,NA,1,"repeat"
"56",56,"miel","miel","[type]","",0,"1",1,"0","First","switch",NA,0,"type",0.6381902,0.4159862,"['m', 'i', 'e', 'l']",0.6381902,0.7981402,0.8941691,1.0541764,NA,NA,NA,NA,NA,NA,NA,NA,NA,NA,NA,0,"None"
"57",57,"pintor","pintor","[type]","",0,"1",1,"0","First","filler",NA,0,"type",0.7968469,0.7679406,"['p', 'i', 'n', 't', 'o', 'r']",0.7968469,1.1006206,1.2286589,1.3403316,1.436737,1.5647875,NA,NA,NA,NA,NA,NA,NA,NA,NA,1,"repeat"
"58",58,"cartero","cartero","[type]","",0,"1",1,"0","First","nontarget",NA,0,"type",0.9267497,0.6411578,"['c', 'a', 'r', 't', 'e', 'r', 'o']",0.9267497,1.0237532,1.119507,1.2315381,1.3435357,1.4715239,1.5679075,NA,NA,NA,NA,NA,NA,NA,NA,1,"repeat"
"59",59,"cartero","cartero","cartero","",0,"1",1,"0","First","switch",NA,0,"speak",0.80114,0.507142,"None",NA,NA,NA,NA,NA,NA,NA,NA,NA,NA,NA,NA,NA,NA,NA,0,"None"
"60",60,"caracol","caracol","caracol","tongue",0,"1",1,"0","First","filler",NA,0,"speak",0.665,0.513938,"None",NA,NA,NA,NA,NA,NA,NA,NA,NA,NA,NA,NA,NA,NA,NA,0,"None"
"61",61,"cuerda","vuerda","[type] ","",0,"0",1,"1","First","filler",NA,0,"type",0.6076158,1.3923252,"['v', 'u', 'e', 'r', 'd', 'a']",0.6076158,1.2159584,1.4249144,1.5839521,1.7919152,1.999941,NA,NA,NA,NA,NA,NA,NA,NA,NA,0,"None"
"62",62,"aguja","aguja","aguja","tongue",0,"1",1,"0","First","nontarget",NA,0,"speak",1.376,0.472,"None",NA,NA,NA,NA,NA,NA,NA,NA,NA,NA,NA,NA,NA,NA,NA,1,"switch"
"63",63,"aguja","aguja","aguja","",0,"1",1,"0","First","repeat",NA,0,"speak",0.752,0.536,"None",NA,NA,NA,NA,NA,NA,NA,NA,NA,NA,NA,NA,NA,NA,NA,0,"None"
"64",64,"granja","granja","[type]","",0,"1",1,"0","First","filler",NA,0,"type",0.8687232,0.7521118,"['g', 'r', 'a', 'n', 'j', 'a']",0.8687232,1.0287296,1.1257793,1.3488392,1.5248414,1.620835,NA,NA,NA,NA,NA,NA,NA,NA,NA,0,"None"
"65",65,"manzana","manzana","manzana","articulation sound",0,"1",1,"0","First","filler",NA,0,"speak",0.594538,0.522261,"None",NA,NA,NA,NA,NA,NA,NA,NA,NA,NA,NA,NA,NA,NA,NA,1,"switch"
"66",66,"oreja","oreja","oreja","tongue, sounds like orieja",0,"1",1,"0","First","nontarget",NA,0,"speak",0.561663,0.472218,"None",NA,NA,NA,NA,NA,NA,NA,NA,NA,NA,NA,NA,NA,NA,NA,1,"repeat"
"67",67,"oreja","oreja","oreja","tongue, sounds like orieja",0,"1",1,"0","First","repeat",NA,0,"speak",0.623798,0.504202,"None",NA,NA,NA,NA,NA,NA,NA,NA,NA,NA,NA,NA,NA,NA,NA,0,"None"
"68",68,"tenedor","tenedoir","[type]","",0,"0",1,"1","First","filler",NA,0,"type",0.7694308,0.6720158,"['t', 'e', 'n', 'e', 'd', 'o', 'i', 'r']",0.7694308,0.8654443,0.9934626,1.0575266,1.2344447,1.3454215,1.3614113,1.4414466,NA,NA,NA,NA,NA,NA,NA,0,"None"
"69",69,"goma","goma","goma","",0,"1",1,"0","First","nontarget",NA,0,"speak",0.762623,0.408746,"None",NA,NA,NA,NA,NA,NA,NA,NA,NA,NA,NA,NA,NA,NA,NA,0,"None"
"70",70,"goma","goma","[type]","",0,"1",1,"0","First","switch",NA,0,"type",1.0818323,0.3038143,"['g', 'o', 'm', 'a']",1.0818323,1.1621528,1.3056502,1.3856466,NA,NA,NA,NA,NA,NA,NA,NA,NA,NA,NA,0,"None"
"71",71,"mano","mano","mano","breath before word production",0,"1",1,"0","First","filler",NA,0,"speak",0.53481,0.396319,"None",NA,NA,NA,NA,NA,NA,NA,NA,NA,NA,NA,NA,NA,NA,NA,0,"None"
"72",72,"conejo","conejo","[type]","",0,"1",1,"0","First","nontarget",NA,0,"type",0.7900424,0.991295,"['c', 'o', 'n', 'e', 'j', 'o']",0.7900424,0.902065,1.1740252,1.318023,1.7343864,1.7813374,NA,NA,NA,NA,NA,NA,NA,NA,NA,1,"switch"
"73",73,"conejo","conejo","[type]","breath at the end",0,"1",1,"0","First","repeat",NA,0,"type",1.1297968,0.6400077,"['c', 'o', 'n', 'e', 'j', 'o']",1.1297968,1.2268232,1.4178161,1.5308219,1.6897904,1.7698045,NA,NA,NA,NA,NA,NA,NA,NA,NA,0,"None"
"74",74,"cerdo","cerdo","cerdo","",0,"1",1,"0","First","filler",NA,0,"speak",0.653342,0.476402,"None",NA,NA,NA,NA,NA,NA,NA,NA,NA,NA,NA,NA,NA,NA,NA,0,"None"
"75",75,"falda","falda","[type]","",0,"1",1,"0","First","filler",NA,0,"type",1.1545317,0.7523188,"['f', 'a', 'l', 'd', 'a']",1.1545317,1.2826941,1.5388514,1.6348492,1.9068505,NA,NA,NA,NA,NA,NA,NA,NA,NA,NA,1,"switch"
"76",76,"iglesia","iglesia","[type]","",0,"1",1,"0","First","nontarget",NA,0,"type",1.3280896,0.9756619,"['i', 'g', 'l', 'e', 's', 'i', 'a']",1.3280896,1.6800658,1.7922833,1.9197686,2.127755,2.2077599,2.3037515,NA,NA,NA,NA,NA,NA,NA,NA,1,"repeat"
"77",77,"iglesia","iglesia","[type]","",0,"1",1,"0","First","repeat",NA,0,"type",1.2946048,0.8805901,"['i', 'g', 'l', 'e', 's', 'i', 'a']",1.2946048,1.4545975,1.6466272,1.7586996,1.9830725,2.0632605,2.1751949,NA,NA,NA,NA,NA,NA,NA,NA,0,"None"
"78",78,"guante","guante","guante","tongue",0,"1",1,"0","First","filler",NA,0,"speak",0.945314,0.37199,"None",NA,NA,NA,NA,NA,NA,NA,NA,NA,NA,NA,NA,NA,NA,NA,0,"None"
"79",79,"vaca","vaca","[type]","",0,"1",1,"0","First","nontarget",NA,0,"type",0.829262,0.1919746,"['v', 'a', 'c', 'a']",0.829262,0.8772565,0.9422388,1.0212366,NA,NA,NA,NA,NA,NA,NA,NA,NA,NA,NA,1,"switch"
"80",80,"vaca","vaca","[type]","",0,"1",1,"0","First","repeat",NA,0,"type",0.840716,0.2399849,"['v', 'a', 'c', 'a']",0.840716,0.9047074,0.9847011,1.0807009,NA,NA,NA,NA,NA,NA,NA,NA,NA,NA,NA,0,"None"
"81",81,"ba?o","ba?o","[type]","",0,"1",1,"0","First","nontarget",NA,0,"type",0.8741457,0.7042258,"['b', 'a', '?', 'o']",0.8741457,0.9395353,1.3537702,1.5783715,NA,NA,NA,NA,NA,NA,NA,NA,NA,NA,NA,0,"None"
"82",82,"ba?o","ba?o","ba?o","",0,"1",1,"0","First","switch",NA,0,"speak",0.685399,0.377493,"None",NA,NA,NA,NA,NA,NA,NA,NA,NA,NA,NA,NA,NA,NA,NA,0,"None"
"83",83,"cartero","cartero","cartero","",0,"1",1,"0","First","filler",NA,0,"speak",1.096,0.457759,"None",NA,NA,NA,NA,NA,NA,NA,NA,NA,NA,NA,NA,NA,NA,NA,1,"repeat"
"84",84,"miel","miel","[type]","",0,"1",1,"0","First","filler",NA,0,"type",1.0371596,0.4319956,"['m', 'i', 'e', 'l']",1.0371596,1.1171613,1.341157,1.4691552,NA,NA,NA,NA,NA,NA,NA,NA,NA,NA,NA,0,"None"
"85",85,"pierna","pierna","pierna","",0,"1",1,"0","First","nontarget",NA,0,"speak",1.112,0.347142,"None",NA,NA,NA,NA,NA,NA,NA,NA,NA,NA,NA,NA,NA,NA,NA,1,"switch"
"86",86,"pierna","pierna","pierna","tongue",0,"1",1,"0","First","repeat",NA,0,"speak",0.704,0.370447,"None",NA,NA,NA,NA,NA,NA,NA,NA,NA,NA,NA,NA,NA,NA,NA,0,"None"
"87",87,"taza","taza","taza","",0,"1",1,"0","First","nontarget",NA,0,"speak",0.938672,0.36458,"None",NA,NA,NA,NA,NA,NA,NA,NA,NA,NA,NA,NA,NA,NA,NA,1,"repeat"
"88",88,"taza","taza","[type]","",0,"1",1,"0","First","switch",NA,0,"type",0.8909797,0.3359563,"['t', 'a', 'z', 'a']",0.8909797,0.9549198,1.1309461,1.226936,NA,NA,NA,NA,NA,NA,NA,NA,NA,NA,NA,0,"None"
"89",89,"aguja","aguja","aguja","",0,"1",1,"0","First","filler",NA,0,"speak",0.774429,0.539831,"None",NA,NA,NA,NA,NA,NA,NA,NA,NA,NA,NA,NA,NA,NA,NA,0,"None"
"90",90,"oreja","oreja","[type]","",0,"1",1,"0","First","filler",NA,0,"type",0.8756076,0.944667,"['o', 'r', 'e', 'j', 'a']",0.8756076,1.1156011,1.436247,1.6922747,1.8202746,NA,NA,NA,NA,NA,NA,NA,NA,NA,NA,0,"None"
"91",91,"camisa","camisa","[type]","",0,"1",1,"0","First","nontarget",NA,0,"type",0.8406223,0.9915545,"['c', 'a', 'm', 'i', 's', 'a']",0.8406223,0.9366486,1.4165957,1.4806041,1.6564422,1.8321768,NA,NA,NA,NA,NA,NA,NA,NA,NA,1,"repeat"
"92",92,"camisa","camisa","camisa","tongue",0,"1",1,"0","First","switch",NA,0,"speak",0.697,0.470585,"None",NA,NA,NA,NA,NA,NA,NA,NA,NA,NA,NA,NA,NA,NA,NA,0,"None"
"93",93,"regalo","regalo","regalo","tongue",0,"1",1,"0","First","nontarget",NA,0,"speak",0.648374,0.521946,"None",NA,NA,NA,NA,NA,NA,NA,NA,NA,NA,NA,NA,NA,NA,NA,0,"None"
"94",94,"regalo","regalo","regalo","",0,"1",1,"0","First","repeat",NA,0,"speak",0.553,0.508402,"None",NA,NA,NA,NA,NA,NA,NA,NA,NA,NA,NA,NA,NA,NA,NA,0,"None"
"95",95,"columna","columna","[type]","",0,"1",1,"0","First","filler",NA,0,"type",0.9732821,1.2794393,"['c', 'o', 'l', 'u', 'm', 'n', 'a']",0.9732821,1.4044726,1.5814095,1.7574093,2.0294182,2.1567322,2.2527214,NA,NA,NA,NA,NA,NA,NA,NA,0,"None"
"96",96,"conejo","conejo","conejo","",0,"1",1,"0","First","filler",NA,0,"speak",0.801,0.470017,"None",NA,NA,NA,NA,NA,NA,NA,NA,NA,NA,NA,NA,NA,NA,NA,0,"None"
"97",97,"bombero","bombero","bombero","",0,"1",1,"0","First","nontarget",NA,0,"speak",0.584989,0.549646,"None",NA,NA,NA,NA,NA,NA,NA,NA,NA,NA,NA,NA,NA,NA,NA,0,"None"
"98",98,"bombero","bombero","[type]","",0,"1",1,"0","First","switch",NA,0,"type",1.6005765,0.8173605,"['b', 'o', 'm', 'b', 'e', 'r', 'o']",1.6005765,1.7125783,1.8886148,2.1286232,2.2095985,2.3686284,2.417937,NA,NA,NA,NA,NA,NA,NA,NA,0,"None"
"99",99,"pulpo","pulpo","[type]","",0,"1",1,"0","First","nontarget",NA,0,"type",0.89576,0.8800194,"['p', 'u', 'l', 'p', 'o']",0.89576,1.1517764,1.4395682,1.5997845,1.7757794,NA,NA,NA,NA,NA,NA,NA,NA,NA,NA,0,"None"
"100",100,"pulpo","pulpo","[type]","",0,"1",1,"0","First","repeat",NA,0,"type",0.811496,0.8808175,"['p', 'u', 'l', 'p', 'o']",0.811496,1.1474655,1.4043066,1.5162999,1.6923135,NA,NA,NA,NA,NA,NA,NA,NA,NA,NA,0,"None"
"101",101,"iglesia","iglesia","iglesia","",0,"1",1,"0","First","filler",NA,0,"speak",1.016222,0.696272,"None",NA,NA,NA,NA,NA,NA,NA,NA,NA,NA,NA,NA,NA,NA,NA,0,"None"
"102",102,"goma","goma","[type]","",0,"1",1,"0","First","filler",NA,0,"type",0.8067597,0.6873058,"['g', 'o', 'm', 'a']",0.8067597,1.1426846,1.3500589,1.4940655,NA,NA,NA,NA,NA,NA,NA,NA,NA,NA,NA,0,"None"
"103",103,"columna","columna","[type]","",0,"1",1,"0","First","filler",NA,0,"type",0.8613414,1.1191913,"['c', 'o', 'l', 'u', 'm', 'n', 'a']",0.8613414,1.2613359,1.4204157,1.5964022,1.7575859,1.8685725,1.9805327,NA,NA,NA,NA,NA,NA,NA,NA,0,"None"
"104",104,"mu?eca","muneco","muneco","",0,"0",1,"1","First","nontarget",NA,0,"speak",0.565823,0.63633,"None",NA,NA,NA,NA,NA,NA,NA,NA,NA,NA,NA,NA,NA,NA,NA,1,"switch"
"105",105,"mu?eca","mu?eca","mu?eca","",0,"1",1,"1","First","repeat",NA,0,"speak",0.77278,0.531155,"None",NA,NA,NA,NA,NA,NA,NA,NA,NA,NA,NA,NA,NA,NA,NA,0,"None"
"106",106,"pierna","pierna","[type]","",0,"1",1,"0","First","filler",NA,0,"type",0.9312099,1.3274263,"['p', 'i', 'e', 'r', 'n', 'a']",0.9312099,1.1550383,1.794651,1.9706809,2.1146442,2.2586362,NA,NA,NA,NA,NA,NA,NA,NA,NA,0,"None"
"107",107,"traje","camisa traje","camisa traje","",0,"0",1,"1","First","nontarget",NA,0,"speak",1.768,0.352,"None",NA,NA,NA,NA,NA,NA,NA,NA,NA,NA,NA,NA,NA,NA,NA,1,"switch"
"108",108,"traje","traje","traje","",0,"1",1,"1","First","repeat",NA,0,"speak",0.704,0.352,"None",NA,NA,NA,NA,NA,NA,NA,NA,NA,NA,NA,NA,NA,NA,NA,0,"None"
"109",109,"tenedor","tenedor","[type]","",1,"0",1,"1","First","filler",NA,0,"type",0.8409086,1.8077987,"['t', 'e', 'n', 'e', 'd', 'r', 'backspace', 'o', 'r']",0.8409086,0.9362088,1.0642072,1.1122401,1.3522458,1.7042209,2.1842546,2.5202365,2.6487073,NA,NA,NA,NA,NA,NA,0,"None"
"110",110,"pulpo","pulpo","pulpo","",0,"1",1,"0","First","filler",NA,0,"speak",1.144,0.368,"None",NA,NA,NA,NA,NA,NA,NA,NA,NA,NA,NA,NA,NA,NA,NA,0,"None"
"111",111,"cazador","cazador","cazador","mic tap, weird spectrogram",0,"1",1,"0","First","nontarget",NA,0,"speak",0.689237,0.506729,"None",NA,NA,NA,NA,NA,NA,NA,NA,NA,NA,NA,NA,NA,NA,NA,1,"repeat"
"112",112,"cazador","cazador","[type]","",0,"1",1,"0","First","switch",NA,0,"type",0.9157682,0.9603948,"['c', 'a', 'z', 'a', 'd', 'o', 'r']",0.9157682,1.0440829,1.2193402,1.3481599,1.6041707,1.7321553,1.876163,NA,NA,NA,NA,NA,NA,NA,NA,0,"None"
"113",113,"taza","taza","[type]","",0,"1",1,"0","First","filler",NA,0,"type",0.8159977,0.304426,"['t', 'a', 'z', 'a']",0.8159977,0.8959961,1.0399963,1.1204237,NA,NA,NA,NA,NA,NA,NA,NA,NA,NA,NA,1,"repeat"
"114",114,"fresa","fresa","[type]","",0,"1",1,"0","First","nontarget",NA,0,"type",1.1013011,0.5275591,"['f', 'r', 'e', 's', 'a']",1.1013011,1.1812986,1.3572881,1.4532836,1.6288602,NA,NA,NA,NA,NA,NA,NA,NA,NA,NA,1,"repeat"
"115",115,"fresa","fresa","fresa","",0,"1",1,"0","First","switch",NA,0,"speak",0.732857,0.384716,"None",NA,NA,NA,NA,NA,NA,NA,NA,NA,NA,NA,NA,NA,NA,NA,0,"None"
"116",116,"puente","puente","puente","",0,"1",1,"0","First","nontarget",NA,0,"speak",1.217,0.408,"None",NA,NA,NA,NA,NA,NA,NA,NA,NA,NA,NA,NA,NA,NA,NA,0,"None"
"117",117,"puente","puente","[type]","",0,"1",1,"0","First","switch",NA,0,"type",0.972104,0.8635837,"['p', 'u', 'e', 'n', 't', 'e']",0.972104,1.2280963,1.4996494,1.5636877,1.7716854,1.8356877,NA,NA,NA,NA,NA,NA,NA,NA,NA,0,"None"
"118",118,"ba?o","ba?o","ba?o","",0,"1",1,"0","First","filler",NA,0,"speak",0.779753,0.396247,"None",NA,NA,NA,NA,NA,NA,NA,NA,NA,NA,NA,NA,NA,NA,NA,0,"None"
"119",119,"espalda","espalda","[type]","",1,"0",1,"1","First","nontarget",NA,0,"type",0.9407083,1.6313833,"['e', 's', 'a', 'backspace', 'p', 'a', 'l', 'd', 'a']",0.9407083,1.1322303,1.3558915,1.8517453,2.0921069,2.1720967,2.2680502,2.3640922,2.5720916,NA,NA,NA,NA,NA,NA,1,"switch"
"120",120,"espalda","espalda","[type]","",0,"1",1,"1","First","repeat",NA,0,"type",0.9685866,0.8161988,"['e', 's', 'p', 'a', 'l', 'd', 'a']",0.9685866,1.1445813,1.2725811,1.3685905,1.4656454,1.5608395,1.7847854,NA,NA,NA,NA,NA,NA,NA,NA,0,"None"
"121",121,"bombero","bombero","bombero","",0,"1",1,"0","First","filler",NA,0,"speak",0.601601,0.459497,"None",NA,NA,NA,NA,NA,NA,NA,NA,NA,NA,NA,NA,NA,NA,NA,1,"switch"
"122",122,"pavo","pavo","[type]","",1,"0",1,"1","First","nontarget",NA,0,"type",1.0453566,1.0874414,"['p', 'a', 'o', 'backspace', 'v', 'o']",1.0453566,1.189317,1.5413165,1.877587,2.0048415,2.132798,NA,NA,NA,NA,NA,NA,NA,NA,NA,1,"switch"
"123",123,"pavo","pavo","[type]","",0,"1",1,"1","First","repeat",NA,0,"type",0.7758814,0.6243978,"['p', 'a', 'v', 'o']",0.7758814,0.9361328,1.2882832,1.4002792,NA,NA,NA,NA,NA,NA,NA,NA,NA,NA,NA,0,"None"
"124",124,"vaca","vaca","vaca","",0,"1",1,"0","First","filler",NA,0,"speak",0.858579,0.361037,"None",NA,NA,NA,NA,NA,NA,NA,NA,NA,NA,NA,NA,NA,NA,NA,0,"None"
"125",125,"regalo","regalo","[type]","breath as if to speak, didn't speak",0,"1",1,"0","First","filler",NA,0,"type",0.9545957,0.8316707,"['r', 'e', 'g', 'a', 'l', 'o']",0.9545957,1.0513988,1.2583493,1.4344414,1.6577334,1.7862664,NA,NA,NA,NA,NA,NA,NA,NA,NA,0,"None"
"126",126,"vaso","vaso","[type]","",0,"1",1,"0","First","nontarget",NA,0,"type",0.7864121,0.6072214,"['v', 'a', 's', 'o']",0.7864121,0.8664022,1.0103915,1.3936335,NA,NA,NA,NA,NA,NA,NA,NA,NA,NA,NA,0,"None"
"127",127,"vaso","vaso","vaso","",0,"1",1,"0","First","switch",NA,0,"speak",0.737886,0.368784,"None",NA,NA,NA,NA,NA,NA,NA,NA,NA,NA,NA,NA,NA,NA,NA,0,"None"
"128",128,"camisa","camisa","[type]","",0,"1",1,"0","First","filler",NA,0,"type",0.8051273,0.7676785,"['c', 'a', 'm', 'i', 's', 'a']",0.8051273,0.9171558,1.2371533,1.3171699,1.3971527,1.5728058,NA,NA,NA,NA,NA,NA,NA,NA,NA,1,"switch"
"129",129,"granja","granja","[type]","tongue sound, as if ready to speak, didn't",0,"1",1,"0","First","nontarget",NA,0,"type",1.0624894,1.199824,"['g', 'r', 'a', 'n', 'j', 'a']",1.0624894,1.2545102,1.3502,1.6707731,2.1023273,2.2623134,NA,NA,NA,NA,NA,NA,NA,NA,NA,0,"None"
"130",130,"granja","granja","[type]","",0,"1",1,"0","First","repeat",NA,0,"type",0.8503374,0.87986,"['g', 'r', 'a', 'n', 'j', 'a']",0.8503374,1.0256607,1.2347252,1.4422067,1.6021986,1.7301974,NA,NA,NA,NA,NA,NA,NA,NA,NA,0,"None"
"131",131,"mu?eca","mu?eca","mu?eca","",0,"1",1,"0","First","filler",NA,0,"speak",0.616042,0.46292,"None",NA,NA,NA,NA,NA,NA,NA,NA,NA,NA,NA,NA,NA,NA,NA,0,"None"
"132",132,"mano","mano","[type]","",0,"1",1,"0","First","nontarget",NA,0,"type",0.7851737,0.2559775,"['m', 'a', 'n', 'o']",0.7851737,0.8806283,0.9765955,1.0411512,NA,NA,NA,NA,NA,NA,NA,NA,NA,NA,NA,1,"switch"
"133",133,"mano","mano","[type]","",0,"1",1,"0","First","repeat",NA,0,"type",0.7056815,0.5125118,"['m', 'a', 'n', 'o']",0.7056815,0.9141105,1.0740853,1.2181933,NA,NA,NA,NA,NA,NA,NA,NA,NA,NA,NA,0,"None"
"134",134,"pintor","pintor","[type]","",0,"1",1,"0","First","nontarget",NA,0,"type",1.0126579,0.8645212,"['p', 'i', 'n', 't', 'o', 'r']",1.0126579,1.3011844,1.5251837,1.6691454,1.717177,1.8771791,NA,NA,NA,NA,NA,NA,NA,NA,NA,0,"None"
"135",135,"pintor","pintor","pintor","",0,"1",1,"0","First","switch",NA,0,"speak",0.64,0.45972,"None",NA,NA,NA,NA,NA,NA,NA,NA,NA,NA,NA,NA,NA,NA,NA,0,"None"
"136",136,"traje","traje","traje","",0,"1",1,"0","First","filler",NA,0,"speak",0.8,0.390842,"None",NA,NA,NA,NA,NA,NA,NA,NA,NA,NA,NA,NA,NA,NA,NA,1,"repeat"
"137",137,"cerdo","cerdo","cerdo","close to mic, beginning sounds weird",0,"1",1,"0","Second","nontarget",NA,0,"speak",0.701476,0.3824,"None",NA,NA,NA,NA,NA,NA,NA,NA,NA,NA,NA,NA,NA,NA,NA,1,"repeat"
"138",138,"cerdo","cerdo","[type]","mic sound at the end",0,"1",1,"0","Second","switch",NA,0,"type",0.4933377,0.8336673,"['c', 'e', 'r', 'd', 'o']",0.4933377,0.8457322,1.0373199,1.2460136,1.327005,NA,NA,NA,NA,NA,NA,NA,NA,NA,NA,0,"None"
"139",139,"caracol","caracol","[type]","",0,"1",1,"0","Second","nontarget",NA,0,"type",0.7784918,0.7837908,"['c', 'a', 'r', 'a', 'c', 'o', 'l']",0.7784918,0.8906297,0.9066179,1.0664701,1.082918,1.3705967,1.5622826,NA,NA,NA,NA,NA,NA,NA,NA,1,"repeat"
"140",140,"caracol","caracol","caracol","",0,"1",1,"0","Second","switch",NA,0,"speak",0.656,0.502905,"None",NA,NA,NA,NA,NA,NA,NA,NA,NA,NA,NA,NA,NA,NA,NA,0,"None"
"141",141,"cazador","cazador","[type]","",0,"1",1,"0","Second","filler",NA,0,"type",0.8766651,1.0396916,"['c', 'a', 'z', 'a', 'd', 'o', 'r']",0.8766651,0.9566599,1.1166597,1.4203818,1.6763817,1.8203958,1.9163567,NA,NA,NA,NA,NA,NA,NA,NA,0,"None"
"142",142,"fresa","fresa ","fresa ","",0,"0",1,"1","Second","filler",NA,0,"speak",0.574951,0.455096,"None",NA,NA,NA,NA,NA,NA,NA,NA,NA,NA,NA,NA,NA,NA,NA,0,"None"
"143",143,"pavo","pavo","[type]","",0,"1",1,"0","Second","filler",NA,0,"type",0.8985595,0.4000974,"['p', 'a', 'v', 'o']",0.8985595,0.9631811,1.2029767,1.2986569,NA,NA,NA,NA,NA,NA,NA,NA,NA,NA,NA,0,"None"
"144",144,"cuerda","cuerda","cuerda","",0,"1",1,"0","Second","nontarget",NA,0,"speak",0.676155,0.331845,"None",NA,NA,NA,NA,NA,NA,NA,NA,NA,NA,NA,NA,NA,NA,NA,1,"switch"
"145",145,"cuerda","cuerda ","cuerda ","",0,"0",1,"1","Second","repeat",NA,0,"speak",0.602387,0.401038,"None",NA,NA,NA,NA,NA,NA,NA,NA,NA,NA,NA,NA,NA,NA,NA,0,"None"
"146",146,"puente","puente","[type]","some sound in the beginning, not talking",0,"1",1,"0","Second","filler",NA,0,"type",0.8639843,0.8163151,"['p', 'u', 'e', 'n', 't', 'e']",0.8639843,1.1519741,1.3443381,1.4083469,1.6163362,1.6802994,NA,NA,NA,NA,NA,NA,NA,NA,NA,0,"None"
"147",147,"falda","falda","falda","",0,"1",1,"0","Second","nontarget",NA,0,"speak",0.783922,0.414358,"None",NA,NA,NA,NA,NA,NA,NA,NA,NA,NA,NA,NA,NA,NA,NA,1,"switch"
"148",148,"falda","falda","falda","",0,"1",1,"0","Second","repeat",NA,0,"speak",0.55032,0.441418,"None",NA,NA,NA,NA,NA,NA,NA,NA,NA,NA,NA,NA,NA,NA,NA,0,"None"
"149",149,"espalda","espalda","[type]","",0,"1",1,"0","Second","filler",NA,0,"type",0.9372341,0.7998431,"['e', 's', 'p', 'a', 'l', 'd', 'a']",0.9372341,1.1454228,1.2424181,1.3534127,1.4493467,1.529245,1.7370772,NA,NA,NA,NA,NA,NA,NA,NA,0,"None"
"150",150,"vaso","vaso","vaso","",0,"1",1,"0","Second","filler",NA,0,"speak",0.790744,0.366388,"None",NA,NA,NA,NA,NA,NA,NA,NA,NA,NA,NA,NA,NA,NA,NA,0,"None"
"151",151,"manzana","manzana","manzana","mic too close to mouth, affects /?/",0,"1",1,"0","Second","nontarget",NA,0,"speak",0.61607,0.494454,"None",NA,NA,NA,NA,NA,NA,NA,NA,NA,NA,NA,NA,NA,NA,NA,0,"None"
"152",152,"manzana","manzana","[type]","",0,"1",1,"0","Second","switch",NA,0,"type",1.1493538,0.9441329,"['m', 'a', 'n', 'z', 'a', 'n', 'a']",1.1493538,1.2773421,1.3733443,1.5007058,1.6126242,2.0284543,2.0934867,NA,NA,NA,NA,NA,NA,NA,NA,0,"None"
"153",153,"escoba","escoba","escoba","",0,"1",1,"0","Second","filler",NA,0,"speak",0.890271,0.488418,"None",NA,NA,NA,NA,NA,NA,NA,NA,NA,NA,NA,NA,NA,NA,NA,0,"None"
"154",154,"manzana","manzana","[type]","",0,"1",1,"0","Second","filler",NA,0,"type",1.0080445,0.9274079,"['m', 'a', 'n', 'z', 'a', 'n', 'a']",1.0080445,1.1520398,1.2160465,1.3280329,1.4077301,1.855452,1.9354524,NA,NA,NA,NA,NA,NA,NA,NA,0,"None"
"155",155,"goma","goma","[type]","",0,"1",1,"0","Second","nontarget",NA,0,"type",0.8911777,0.4793866,"['g', 'o', 'm', 'a']",0.8911777,1.0025747,1.2265662,1.3705643,NA,NA,NA,NA,NA,NA,NA,NA,NA,NA,NA,1,"repeat"
"156",156,"goma","goma","goma","",0,"1",1,"0","Second","switch",NA,0,"speak",0.701746,0.36753,"None",NA,NA,NA,NA,NA,NA,NA,NA,NA,NA,NA,NA,NA,NA,NA,0,"None"
"157",157,"granja","granja","granja","tongue",0,"1",1,"0","Second","filler",NA,0,"speak",0.617,0.48,"None",NA,NA,NA,NA,NA,NA,NA,NA,NA,NA,NA,NA,NA,NA,NA,0,"None"
"158",158,"aguja","aguja","aguja","",0,"1",1,"0","Second","nontarget",NA,0,"speak",0.587968,0.524032,"None",NA,NA,NA,NA,NA,NA,NA,NA,NA,NA,NA,NA,NA,NA,NA,1,"repeat"
"159",159,"aguja","aguja","[type]","",0,"1",1,"0","Second","switch",NA,0,"type",0.7922814,0.5600038,"['a', 'g', 'u', 'j', 'a']",0.7922814,0.9682527,1.0162727,1.2402709,1.3522852,NA,NA,NA,NA,NA,NA,NA,NA,NA,NA,0,"None"
"160",160,"cadena","cadena","[type]","",0,"1",1,"0","Second","filler",NA,0,"type",0.9373096,0.8160216,"['c', 'a', 'd', 'e', 'n', 'a']",0.9373096,1.0493353,1.3853305,1.4653031,1.5453266,1.7533312,NA,NA,NA,NA,NA,NA,NA,NA,NA,0,"None"
"161",161,"iglesia","iglesia","[type]","",0,"1",1,"0","Second","nontarget",NA,0,"type",1.4967871,0.9267882,"['i', 'g', 'l', 'e', 's', 'i', 'a']",1.4967871,1.671847,1.8637674,1.9757408,2.2004644,2.2804306,2.4235753,NA,NA,NA,NA,NA,NA,NA,NA,0,"None"
"162",162,"iglesia","iglesia","iglesia","",0,"1",1,"0","Second","switch",NA,0,"speak",0.668108,0.563716,"None",NA,NA,NA,NA,NA,NA,NA,NA,NA,NA,NA,NA,NA,NA,NA,0,"None"
"163",163,"pintor","pintor","[type]","",0,"1",1,"0","Second","filler",NA,0,"type",0.9235034,0.9911486,"['p', 'i', 'n', 't', 'o', 'r']",0.9235034,1.1634892,1.387488,1.6594596,1.803483,1.914652,NA,NA,NA,NA,NA,NA,NA,NA,NA,0,"None"
"164",164,"conejo","conejo","conejo","tongue",0,"1",1,"0","Second","nontarget",NA,0,"speak",0.63691,0.440846,"None",NA,NA,NA,NA,NA,NA,NA,NA,NA,NA,NA,NA,NA,NA,NA,1,"switch"
"165",165,"conejo","conejo","conejo","",0,"1",1,"0","Second","repeat",NA,0,"speak",0.539099,0.426966,"None",NA,NA,NA,NA,NA,NA,NA,NA,NA,NA,NA,NA,NA,NA,NA,0,"None"
"166",166,"cerdo","cerdo","cerdo","",0,"1",1,"0","Second","filler",NA,0,"speak",0.528206,0.462639,"None",NA,NA,NA,NA,NA,NA,NA,NA,NA,NA,NA,NA,NA,NA,NA,0,"None"
"167",167,"caracol","caracol","[type]","breath",0,"1",1,"0","Second","filler",NA,0,"type",0.9289749,0.9445513,"['c', 'a', 'r', 'a', 'c', 'o', 'l']",0.9289749,1.04099,1.1369612,1.2656164,1.3456162,1.7295252,1.8735262,NA,NA,NA,NA,NA,NA,NA,NA,0,"None"
"168",168,"guante","guante","guante","",0,"1",1,"0","Second","nontarget",NA,0,"speak",0.68,0.326854,"None",NA,NA,NA,NA,NA,NA,NA,NA,NA,NA,NA,NA,NA,NA,NA,1,"switch"
"169",169,"guante","guante","guante","tongue",0,"1",1,"0","Second","repeat",NA,0,"speak",0.517931,0.306511,"None",NA,NA,NA,NA,NA,NA,NA,NA,NA,NA,NA,NA,NA,NA,NA,0,"None"
"170",170,"cartero","cartero","cartero","tongue",0,"1",1,"0","Second","nontarget",NA,0,"speak",0.848,0.393964,"None",NA,NA,NA,NA,NA,NA,NA,NA,NA,NA,NA,NA,NA,NA,NA,0,"None"
"171",171,"cartero","cartero","[type]","",0,"1",1,"0","Second","switch",NA,0,"type",0.714473,0.6559166,"['c', 'a', 'r', 't', 'e', 'r', 'o']",0.714473,0.7785086,0.8902971,1.0023633,1.1143559,1.2743923,1.3703896,NA,NA,NA,NA,NA,NA,NA,NA,0,"None"
"172",172,"cuerda","cuerda","cuerda","tongue before, hoarse voice, cough after",0,"1",1,"0","Second","filler",NA,0,"speak",0.635664,0.392866,"None",NA,NA,NA,NA,NA,NA,NA,NA,NA,NA,NA,NA,NA,NA,NA,0,"None"
"173",173,"tronco","tronco","[type]","",0,"1",1,"0","Second","filler",NA,0,"type",0.9095544,0.8638309,"['t', 'r', 'o', 'n', 'c', 'o']",0.9095544,1.0376061,1.3098022,1.4537923,1.6779221,1.7733853,NA,NA,NA,NA,NA,NA,NA,NA,NA,0,"None"
"174",174,"oreja","oreja","[type]","tongue, didn't speak",0,"1",1,"0","Second","nontarget",NA,0,"type",1.092819,0.5433048,"['o', 'r', 'e', 'j', 'a']",1.092819,1.2528748,1.4289333,1.5083345,1.6361238,NA,NA,NA,NA,NA,NA,NA,NA,NA,NA,1,"repeat"
"175",175,"oreja","oreja","[type]","",0,"1",1,"0","Second","repeat",NA,0,"type",0.7069804,0.6076567,"['o', 'r', 'e', 'j', 'a']",0.7069804,0.8666355,1.0106333,1.1550739,1.3146371,NA,NA,NA,NA,NA,NA,NA,NA,NA,NA,0,"None"
"176",176,"falda","falda","falda","",0,"1",1,"0","Second","filler",NA,0,"speak",0.494648,0.426477,"None",NA,NA,NA,NA,NA,NA,NA,NA,NA,NA,NA,NA,NA,NA,NA,0,"None"
"177",177,"miel","miel","[type]","",0,"1",1,"0","Second","nontarget",NA,0,"type",1.0052933,0.3524469,"['m', 'i', 'e', 'l']",1.0052933,1.1012907,1.2456768,1.3577402,NA,NA,NA,NA,NA,NA,NA,NA,NA,NA,NA,1,"switch"
"178",178,"miel","miel","[type]","",0,"1",1,"0","Second","repeat",NA,0,"type",0.6308121,0.607786,"['m', 'i', 'e', 'l']",0.6308121,0.8068071,1.1426014,1.2385981,NA,NA,NA,NA,NA,NA,NA,NA,NA,NA,NA,0,"None"
"179",179,"mano","mano","[type]","",0,"1",1,"0","Second","filler",NA,0,"type",0.7246613,0.3359962,"['m', 'a', 'n', 'o']",0.7246613,0.78866,0.9326568,1.0606575,NA,NA,NA,NA,NA,NA,NA,NA,NA,NA,NA,1,"repeat"
"180",180,"goma","goma","goma","tongue",0,"1",1,"0","Second","filler",NA,0,"speak",0.768,0.307062,"None",NA,NA,NA,NA,NA,NA,NA,NA,NA,NA,NA,NA,NA,NA,NA,0,"None"
"181",181,"pierna","perina","[type]","",1,"0",1,"1","Second","nontarget",NA,0,"type",1.317958,1.6165434,"['b', 'backspace', 'p', 'e', 'r', 'i', 'n', 'a']",1.317958,1.9108009,2.2785926,2.5025961,2.6619107,2.7425059,2.870502,2.9345014,NA,NA,NA,NA,NA,NA,NA,1,"switch"
"182",182,"pierna","pierna","[type]","",0,"1",1,"1","Second","repeat",NA,0,"type",0.8464813,0.751628,"['p', 'i', 'e', 'r', 'n', 'a']",0.8464813,1.0544439,1.1820982,1.3420661,1.4380652,1.5981093,NA,NA,NA,NA,NA,NA,NA,NA,NA,0,"None"
"183",183,"pulpo","pulpo","[type]","",0,"1",1,"0","Second","nontarget",NA,0,"type",0.7714111,0.8162645,"['p', 'u', 'l', 'p', 'o']",0.7714111,1.0433905,1.2677068,1.4433749,1.5876756,NA,NA,NA,NA,NA,NA,NA,NA,NA,NA,1,"repeat"
"184",184,"pulpo","pulpo","pulpo","",0,"1",1,"0","Second","switch",NA,0,"speak",0.646705,0.329295,"None",NA,NA,NA,NA,NA,NA,NA,NA,NA,NA,NA,NA,NA,NA,NA,0,"None"
"185",185,"aguja","aguja","[type]","",0,"1",1,"0","Second","filler",NA,0,"type",0.6140168,0.639668,"['a', 'g', 'u', 'j', 'a']",0.6140168,0.8860421,0.9660038,1.1583584,1.2536848,NA,NA,NA,NA,NA,NA,NA,NA,NA,NA,0,"None"
"186",186,"taza","taza","taza","",0,"1",1,"0","Second","nontarget",NA,0,"speak",0.793,0.317824,"None",NA,NA,NA,NA,NA,NA,NA,NA,NA,NA,NA,NA,NA,NA,NA,1,"switch"
"187",187,"taza","taza","taza","mic sound /?/",0,"1",1,"0","Second","repeat",NA,0,"speak",0.656,0.342187,"None",NA,NA,NA,NA,NA,NA,NA,NA,NA,NA,NA,NA,NA,NA,NA,0,"None"
"188",188,"ba?o","ba?o","ba?o","",0,"1",1,"0","Second","nontarget",NA,0,"speak",0.647426,0.332522,"None",NA,NA,NA,NA,NA,NA,NA,NA,NA,NA,NA,NA,NA,NA,NA,0,"None"
"189",189,"ba?o","ba?o","[type]","",0,"1",1,"0","Second","switch",NA,0,"type",0.6858584,0.623324,"['b', 'a', '?', 'o']",0.6858584,0.7178511,1.1338335,1.3091824,NA,NA,NA,NA,NA,NA,NA,NA,NA,NA,NA,0,"None"
"190",190,"iglesia","iglesia","iglesia","tongue",0,"1",1,"0","Second","filler",NA,0,"speak",1.002404,0.535939,"None",NA,NA,NA,NA,NA,NA,NA,NA,NA,NA,NA,NA,NA,NA,NA,0,"None"
"191",191,"bombero","bombero","[type]","",0,"1",1,"0","Second","nontarget",NA,0,"type",0.7685052,1.0879407,"['b', 'o', 'm', 'b', 'e', 'r', 'o']",0.7685052,1.0562029,1.2487839,1.4728304,1.6164477,1.7924563,1.8564459,NA,NA,NA,NA,NA,NA,NA,NA,1,"switch"
"192",192,"bombero","bombero","bombero","",0,"1",1,"0","Second","switch",NA,0,"speak",0.668326,0.427439,"None",NA,NA,NA,NA,NA,NA,NA,NA,NA,NA,NA,NA,NA,NA,NA,0,"None"
"193",193,"guante","guante","[type]","",0,"1",1,"0","Second","filler",NA,0,"type",0.750692,0.6239553,"['g', 'u', 'a', 'n', 't', 'e']",0.750692,0.8299878,1.0067918,1.0868006,1.2787183,1.3746473,NA,NA,NA,NA,NA,NA,NA,NA,NA,0,"None"
"194",194,"conejo","conejo","conejo","tongue",0,"1",1,"0","Second","filler",NA,0,"speak",0.545,0.454867,"None",NA,NA,NA,NA,NA,NA,NA,NA,NA,NA,NA,NA,NA,NA,NA,0,"None"
"195",195,"vaca","vaca","vaca","hoarse voice, clears throat after word production",0,"1",1,"0","Second","nontarget",NA,0,"speak",0.548456,0.368167,"None",NA,NA,NA,NA,NA,NA,NA,NA,NA,NA,NA,NA,NA,NA,NA,1,"repeat"
"196",196,"vaca","vaca","vaca","",0,"1",1,"0","Second","repeat",NA,0,"speak",0.487717,0.377778,"None",NA,NA,NA,NA,NA,NA,NA,NA,NA,NA,NA,NA,NA,NA,NA,0,"None"
"197",197,"cartero","ccartero","[type]","",1,"0",1,"1","Second","filler",NA,0,"type",0.8020312,1.9358956,"['b', 'backspace', 'c', 'c', 'a', 'r', 't', 'e', 'r', 'o']",0.8020312,1.4089901,1.9056833,2.0976471,2.2738303,2.3536696,2.481668,2.5136678,2.6576842,2.7379268,NA,NA,NA,NA,NA,0,"None"
"198",198,"oreja","oreja","oreja","sounds like orieja",0,"1",1,"0","Second","filler",NA,0,"speak",0.801153,0.427753,"None",NA,NA,NA,NA,NA,NA,NA,NA,NA,NA,NA,NA,NA,NA,NA,1,"switch"
"199",199,"regalo","regalo","regalo","",0,"1",1,"0","Second","nontarget",NA,0,"speak",0.532837,0.396163,"None",NA,NA,NA,NA,NA,NA,NA,NA,NA,NA,NA,NA,NA,NA,NA,1,"repeat"
"200",200,"regalo","regalo","[type]","",0,"1",1,"0","Second","switch",NA,0,"type",0.9970008,0.6719954,"['r', 'e', 'g', 'a', 'l', 'o']",0.9970008,1.0929985,1.188997,1.3169911,1.5409955,1.6689962,NA,NA,NA,NA,NA,NA,NA,NA,NA,0,"None"
"201",201,"camisa","camisa","[type]","",0,"1",1,"0","Second","nontarget",NA,0,"type",0.7264588,0.6560433,"['c', 'a', 'm', 'i', 's', 'a']",0.7264588,0.8063817,1.0785055,1.1104626,1.2225672,1.3825021,NA,NA,NA,NA,NA,NA,NA,NA,NA,0,"None"
"202",202,"camisa","camisa","[type]","",0,"1",1,"0","Second","repeat",NA,0,"type",0.7562794,0.7032421,"['c', 'a', 'm', 'i', 's', 'a']",0.7562794,0.8373022,1.1403164,1.1883089,1.2995658,1.4595215,NA,NA,NA,NA,NA,NA,NA,NA,NA,0,"None"
"203",203,"espejo","espejo","espejo","",0,"1",1,"0","Second","filler",NA,0,"speak",0.568289,0.517955,"None",NA,NA,NA,NA,NA,NA,NA,NA,NA,NA,NA,NA,NA,NA,NA,0,"None"
"204",204,"miel","miel","[type]","",0,"1",1,"0","Second","filler",NA,0,"type",0.7441823,0.3514667,"['m', 'i', 'e', 'l']",0.7441823,0.8401724,0.9994303,1.095649,NA,NA,NA,NA,NA,NA,NA,NA,NA,NA,NA,0,"None"
"205",205,"tronco","tronco","tronco","",0,"1",1,"0","Second","filler",NA,0,"speak",0.977,0.382313,"None",NA,NA,NA,NA,NA,NA,NA,NA,NA,NA,NA,NA,NA,NA,NA,0,"None"
"206",206,"espejo","espejo","[/espej...[ui]/ , type]","started speaking, then typed",0,"1",0,"0","Second","filler",NA,0,"type",1.017014,0.8633501,"['e', 's', 'p', 'e', 'j', 'o']",1.017014,1.2410139,1.5283688,1.6884,1.7843638,1.8803641,NA,NA,NA,NA,NA,NA,NA,NA,NA,0,"None"
"207",207,"regalo","regalo","regalo","tongue",0,"1",1,"0","Second","filler",NA,0,"speak",0.770889,0.448415,"None",NA,NA,NA,NA,NA,NA,NA,NA,NA,NA,NA,NA,NA,NA,NA,0,"None"
"208",208,"vaso","vaso","vaso","mic tap end",0,"1",1,"0","Second","nontarget",NA,0,"speak",0.752,0.35843,"None",NA,NA,NA,NA,NA,NA,NA,NA,NA,NA,NA,NA,NA,NA,NA,1,"repeat"
"209",209,"vaso","vaso","vaso","",0,"1",1,"0","Second","repeat",NA,0,"speak",0.508426,0.358838,"None",NA,NA,NA,NA,NA,NA,NA,NA,NA,NA,NA,NA,NA,NA,NA,0,"None"
"210",210,"taza","taza","[type]","",0,"1",1,"0","Second","filler",NA,0,"type",0.903415,0.3685424,"['t', 'a', 'z', 'a']",0.903415,1.0154106,1.1913692,1.2719574,NA,NA,NA,NA,NA,NA,NA,NA,NA,NA,NA,0,"None"
"211",211,"cazador","cazador","cazador","mic sound /?/, was only silent, had make boundaries for the sounding part",0,"1",1,"0","Second","nontarget",NA,0,"speak",0.932387,0.463897,"None",NA,NA,NA,NA,NA,NA,NA,NA,NA,NA,NA,NA,NA,NA,NA,1,"switch"
"212",212,"cazador","cazador","cazador","mic sound /?/",0,"1",1,"0","Second","repeat",NA,0,"speak",0.560892,0.515441,"None",NA,NA,NA,NA,NA,NA,NA,NA,NA,NA,NA,NA,NA,NA,NA,0,"None"
"213",213,"ba?o","ba?o","[type]","",0,"1",1,"0","Second","filler",NA,0,"type",0.9703556,0.6238286,"['b', 'a', '?', 'o']",0.9703556,1.1303502,1.4181817,1.5941842,NA,NA,NA,NA,NA,NA,NA,NA,NA,NA,NA,0,"None"
"214",214,"espalda","espalda","espalda","tongue",0,"1",1,"0","Second","nontarget",NA,0,"speak",1.05544,0.488978,"None",NA,NA,NA,NA,NA,NA,NA,NA,NA,NA,NA,NA,NA,NA,NA,0,"None"
"215",215,"espalda","espalda","[type]","",0,"1",1,"0","Second","switch",NA,0,"type",0.5101306,0.8481317,"['e', 's', 'p', 'a', 'l', 'd', 'a']",0.5101306,0.6701251,0.7987263,0.9263371,0.9742225,1.1502636,1.3582623,NA,NA,NA,NA,NA,NA,NA,NA,0,"None"
"216",216,"camisa","camisa","[type]","",0,"1",1,"0","Second","filler",NA,0,"type",0.8480222,1.2153999,"['c', 'a', 'm', 'i', 's', 'a']",0.8480222,0.9273921,1.2154823,1.263443,1.9198261,2.0634221,NA,NA,NA,NA,NA,NA,NA,NA,NA,0,"None"
"217",217,"puente","puente","[type]","",0,"1",1,"0","Second","nontarget",NA,0,"type",0.8491821,0.8314572,"['p', 'u', 'e', 'n', 't', 'e']",0.8491821,1.1361542,1.3126414,1.3766336,1.5846358,1.6806393,NA,NA,NA,NA,NA,NA,NA,NA,NA,1,"repeat"
"218",218,"puente","puente","puente","",0,"1",1,"0","Second","switch",NA,0,"speak",0.621105,0.362066,"None",NA,NA,NA,NA,NA,NA,NA,NA,NA,NA,NA,NA,NA,NA,NA,0,"None"
"219",219,"mu?eca","mu?eca","mu?eca","sounds like munecoa",0,"1",1,"0","Second","nontarget",NA,0,"speak",0.833,0.516852,"None",NA,NA,NA,NA,NA,NA,NA,NA,NA,NA,NA,NA,NA,NA,NA,1,"repeat"
"220",220,"mu?eca","mu?eca","[type]","",0,"1",1,"0","Second","switch",NA,0,"type",0.4771333,1.0558158,"['m', 'u', '?', 'e', 'c', 'a']",0.4771333,0.7331331,1.0851132,1.165128,1.4213531,1.5329491,NA,NA,NA,NA,NA,NA,NA,NA,NA,0,"None"
"221",221,"vaca","vaca","vaca","",0,"1",1,"0","Second","filler",NA,0,"speak",0.517256,0.373363,"None",NA,NA,NA,NA,NA,NA,NA,NA,NA,NA,NA,NA,NA,NA,NA,1,"switch"
"222",222,"pulpo","pulpo","pulpo","",0,"1",1,"0","Second","filler",NA,0,"speak",0.632,0.399546,"None",NA,NA,NA,NA,NA,NA,NA,NA,NA,NA,NA,NA,NA,NA,NA,0,"None"
"223",223,"fresa","fressa","[type]","",0,"0",1,"1","Second","nontarget",NA,0,"type",0.9797909,0.9270797,"['f', 'r', 'e', 's', 's', 'a']",0.9797909,1.3787844,1.6188513,1.7147497,1.8908486,1.9068706,NA,NA,NA,NA,NA,NA,NA,NA,NA,1,"switch"
"224",224,"fresa","fresa","[type]","",0,"1",1,"1","Second","repeat",NA,0,"type",0.8147311,0.5443823,"['f', 'r', 'e', 's', 'a']",0.8147311,0.9427225,1.119135,1.1841594,1.3591134,NA,NA,NA,NA,NA,NA,NA,NA,NA,NA,0,"None"
"225",225,"pierna","pierna","pierna","",0,"1",1,"0","Second","filler",NA,0,"speak",1.235051,0.328122,"None",NA,NA,NA,NA,NA,NA,NA,NA,NA,NA,NA,NA,NA,NA,NA,0,"None"
"226",226,"bombero","bombero","bombero","",0,"1",1,"0","Second","filler",NA,0,"speak",0.629306,0.394124,"None",NA,NA,NA,NA,NA,NA,NA,NA,NA,NA,NA,NA,NA,NA,NA,0,"None"
"227",227,"traje","traje","[type]","",0,"1",1,"0","Second","nontarget",NA,0,"type",0.9039796,0.5281987,"['t', 'r', 'a', 'j', 'e']",0.9039796,1.0639014,1.1288958,1.3518987,1.4321783,NA,NA,NA,NA,NA,NA,NA,NA,NA,NA,1,"switch"
"228",228,"traje","traje","[type]","",0,"1",1,"0","Second","repeat",NA,0,"type",0.816012,0.5436897,"['t', 'r', 'a', 'j', 'e']",0.816012,0.943956,0.9929993,1.2956958,1.3597017,NA,NA,NA,NA,NA,NA,NA,NA,NA,NA,0,"None"
"229",229,"pavo","pavo","[type]","",0,"1",1,"0","Second","nontarget",NA,0,"type",0.8623408,0.5277621,"['p', 'a', 'v', 'o']",0.8623408,0.942333,1.198329,1.3901029,NA,NA,NA,NA,NA,NA,NA,NA,NA,NA,NA,1,"repeat"
"230",230,"pavo","pavo","pavo","",0,"1",1,"0","Second","switch",NA,0,"speak",0.606328,0.282177,"None",NA,NA,NA,NA,NA,NA,NA,NA,NA,NA,NA,NA,NA,NA,NA,0,"None"
"231",231,"vaso","vaso","vaso","",0,"1",1,"0","Second","filler",NA,0,"speak",0.72526,0.328444,"None",NA,NA,NA,NA,NA,NA,NA,NA,NA,NA,NA,NA,NA,NA,NA,0,"None"
"232",232,"traje","traje","[type]","",0,"1",1,"0","Second","filler",NA,0,"type",0.7044269,0.5123894,"['t', 'r', 'a', 'j', 'e']",0.7044269,0.8317925,0.8797903,1.1357885,1.2168163,NA,NA,NA,NA,NA,NA,NA,NA,NA,NA,0,"None"
"233",233,"cerdo","cerdo","[type]","",0,"1",1,"0","Second","nontarget",NA,0,"type",0.7240101,0.4799072,"['c', 'e', 'r', 'd', 'o']",0.7240101,0.7889939,0.9799871,1.1239136,1.2039173,NA,NA,NA,NA,NA,NA,NA,NA,NA,NA,0,"None"
"234",234,"cerdo","cerdo","[type]","",0,"1",1,"0","Second","repeat",NA,0,"type",0.6473352,0.4963204,"['c', 'e', 'r', 'd', 'o']",0.6473352,0.7276551,0.8876577,1.047655,1.1436556,NA,NA,NA,NA,NA,NA,NA,NA,NA,NA,0,"None"
"235",235,"cazador","cazador","cazador","",0,"1",1,"0","Second","filler",NA,0,"speak",0.641411,0.510754,"None",NA,NA,NA,NA,NA,NA,NA,NA,NA,NA,NA,NA,NA,NA,NA,0,"None"
"236",236,"manzana","manzana","[type]","",0,"1",1,"0","Second","nontarget",NA,0,"type",0.8612252,0.6714697,"['m', 'a', 'n', 'z', 'a', 'n', 'a']",0.8612252,0.9410266,1.0370004,1.1490023,1.3090045,1.4048304,1.5326949,NA,NA,NA,NA,NA,NA,NA,NA,1,"switch"
"237",237,"manzana","mazana","[type]","",0,"0",1,"1","Second","repeat",NA,0,"type",0.7434616,0.7042858,"['m', 'a', 'z', 'a', 'n', 'a']",0.7434616,0.8389173,1.0630391,1.2550478,1.3517471,1.4477474,NA,NA,NA,NA,NA,NA,NA,NA,NA,0,"None"
"238",238,"cuerda","cuerda","[type]","",0,"1",1,"0","Second","nontarget",NA,0,"type",0.7134525,0.6569999,"['c', 'u', 'e', 'r', 'd', 'a']",0.7134525,0.8254257,0.9694962,1.1135013,1.2895007,1.3704524,NA,NA,NA,NA,NA,NA,NA,NA,NA,0,"None"
"239",239,"cuerda","cuerda","cuerda","",0,"1",1,"0","Second","switch",NA,0,"speak",0.629702,0.375174,"None",NA,NA,NA,NA,NA,NA,NA,NA,NA,NA,NA,NA,NA,NA,NA,0,"None"
"240",240,"espalda","espalda","espalda","",0,"1",1,"0","Second","filler",NA,0,"speak",0.556368,0.543735,"None",NA,NA,NA,NA,NA,NA,NA,NA,NA,NA,NA,NA,NA,NA,NA,1,"repeat"
"241",241,"granja","granja","granja","tongue",0,"1",1,"0","Second","nontarget",NA,0,"speak",0.669922,0.415391,"None",NA,NA,NA,NA,NA,NA,NA,NA,NA,NA,NA,NA,NA,NA,NA,1,"repeat"
"242",242,"granja","granja","[type]","",0,"1",1,"0","Second","switch",NA,0,"type",0.7947129,0.9764218,"['g', 'r', 'a', 'n', 'j', 'a']",0.7947129,0.9866668,1.0987079,1.2591114,1.6113012,1.7711347,NA,NA,NA,NA,NA,NA,NA,NA,NA,0,"None"
"243",243,"mu?eca","mu?eca","[type]","",0,"1",1,"0","Second","filler",NA,0,"type",0.8525828,0.7846301,"['m', 'u', '?', 'e', 'c', 'a']",0.8525828,0.9965727,1.2845353,1.364069,1.5722045,1.6372129,NA,NA,NA,NA,NA,NA,NA,NA,NA,1,"repeat"
"244",244,"falda","falda","[type]","",0,"1",1,"0","Second","nontarget",NA,0,"type",0.9422438,0.7045021,"['f', 'a', 'l', 'd', 'a']",0.9422438,1.0232854,1.3103831,1.5507295,1.6467459,NA,NA,NA,NA,NA,NA,NA,NA,NA,NA,0,"None"
"245",245,"falda","falda","falda","",0,"1",1,"0","Second","switch",NA,0,"speak",0.680477,0.398353,"None",NA,NA,NA,NA,NA,NA,NA,NA,NA,NA,NA,NA,NA,NA,NA,0,"None"
"246",246,"caracol","caracol","caracol","tongue",0,"1",1,"0","Second","nontarget",NA,0,"speak",0.616512,0.425553,"None",NA,NA,NA,NA,NA,NA,NA,NA,NA,NA,NA,NA,NA,NA,NA,1,"switch"
"247",247,"caracol","caracol","caracol","",0,"1",1,"0","Second","repeat",NA,0,"speak",0.550868,0.433399,"None",NA,NA,NA,NA,NA,NA,NA,NA,NA,NA,NA,NA,NA,NA,NA,0,"None"
"248",248,"fresa","fresa","[type]","chair sound at the end",0,"1",1,"0","Second","filler",NA,0,"type",0.8170045,0.6071102,"['f', 'r', 'e', 's', 'a']",0.8170045,1.0079435,1.1679592,1.2479436,1.4241147,NA,NA,NA,NA,NA,NA,NA,NA,NA,NA,0,"None"
"249",249,"pintor","pintor","pintor","",0,"1",1,"0","Second","nontarget",NA,0,"speak",0.888,0.398909,"None",NA,NA,NA,NA,NA,NA,NA,NA,NA,NA,NA,NA,NA,NA,NA,1,"switch"
"250",250,"pintor","pintor","pintor","mic sound end of the trial",0,"1",1,"0","Second","repeat",NA,0,"speak",0.528,0.44713,"None",NA,NA,NA,NA,NA,NA,NA,NA,NA,NA,NA,NA,NA,NA,NA,0,"None"
"251",251,"puente","puente","[type]","",0,"1",1,"0","Second","filler",NA,0,"type",0.9226198,0.6872221,"['p', 'u', 'e', 'n', 't', 'e']",0.9226198,1.1463704,1.2585187,1.3384682,1.4978483,1.6098419,NA,NA,NA,NA,NA,NA,NA,NA,NA,0,"None"
"252",252,"pavo","pavo","pavo","",1,"0",1,"1","Second","filler",NA,0,"speak",1.141097,0.333,"['p', 'backspace']",0.7517314,1.7758625,NA,NA,NA,NA,NA,NA,NA,NA,NA,NA,NA,NA,NA,0,"None"
"253",253,"mano","mano","mano","",0,"1",1,"0","Second","nontarget",NA,0,"speak",0.64224,0.371371,"None",NA,NA,NA,NA,NA,NA,NA,NA,NA,NA,NA,NA,NA,NA,NA,1,"repeat"
"254",254,"mano","mano","[type]","",0,"1",1,"0","Second","switch",NA,0,"type",0.9048773,0.2400299,"['m', 'a', 'n', 'o']",0.9048773,0.9688726,1.0649146,1.1449072,NA,NA,NA,NA,NA,NA,NA,NA,NA,NA,NA,0,"None"
"255",255,"cerdo","cerdo","[type]","",0,"1",1,"0","Second","filler",NA,0,"type",0.7657414,0.5280105,"['c', 'e', 'r', 'd', 'o']",0.7657414,0.9097294,1.0697554,1.2137484,1.2937519,NA,NA,NA,NA,NA,NA,NA,NA,NA,NA,0,"None"
"256",256,"aguja","agujha","[type]","",0,"0",1,"1","Second","nontarget",NA,0,"type",0.7273515,0.7994133,"['a', 'g', 'u', 'j', 'h', 'a']",0.7273515,1.1600979,1.2065067,1.4148242,1.4307705,1.5267648,NA,NA,NA,NA,NA,NA,NA,NA,NA,1,"repeat"
"257",257,"aguja","aguja","aguja","breath end of trial",0,"1",1,"1","Second","switch",NA,0,"speak",0.601465,0.495363,"None",NA,NA,NA,NA,NA,NA,NA,NA,NA,NA,NA,NA,NA,NA,NA,0,"None"
"258",258,"manzana","manzana","manzana","",0,"1",1,"0","Second","filler",NA,0,"speak",0.512061,0.448646,"None",NA,NA,NA,NA,NA,NA,NA,NA,NA,NA,NA,NA,NA,NA,NA,0,"None"
"259",259,"conejo","conejo ","conejo ","tongue",0,"0",1,"1","Second","nontarget",NA,0,"speak",0.577078,0.398742,"None",NA,NA,NA,NA,NA,NA,NA,NA,NA,NA,NA,NA,NA,NA,NA,1,"repeat"
"260",260,"conejo","conejo","[type]","",0,"1",1,"1","Second","switch",NA,0,"type",0.8430977,0.7039371,"['c', 'o', 'n', 'e', 'j', 'o']",0.8430977,0.9709965,1.179027,1.2750335,1.4670369,1.5470348,NA,NA,NA,NA,NA,NA,NA,NA,NA,0,"None"
"261",261,"miel","miel","[type]","",0,"1",1,"0","Second","nontarget",NA,0,"type",0.73367,0.4160336,"['m', 'i', 'e', 'l']",0.73367,0.8936669,1.0536646,1.1497036,NA,NA,NA,NA,NA,NA,NA,NA,NA,NA,NA,1,"repeat"
"262",262,"miel","miel","miel","",0,"1",1,"0","Second","switch",NA,0,"speak",0.476892,0.355704,"None",NA,NA,NA,NA,NA,NA,NA,NA,NA,NA,NA,NA,NA,NA,NA,0,"None"
"263",263,"falda","falda","[type]","",0,"1",1,"0","Second","filler",NA,0,"type",0.9152759,0.7519229,"['f', 'a', 'l', 'd', 'a']",0.9152759,1.0106554,1.3145611,1.426585,1.6671988,NA,NA,NA,NA,NA,NA,NA,NA,NA,NA,0,"None"
"264",264,"goma","goma","goma","",0,"1",1,"0","Second","nontarget",NA,0,"speak",0.598342,0.341322,"None",NA,NA,NA,NA,NA,NA,NA,NA,NA,NA,NA,NA,NA,NA,NA,1,"switch"
"265",265,"goma","goma","goma","",0,"1",1,"0","Second","repeat",NA,0,"speak",0.498967,0.363273,"None",NA,NA,NA,NA,NA,NA,NA,NA,NA,NA,NA,NA,NA,NA,NA,0,"None"
"266",266,"caracol","carcaol","[type]","",0,"0",1,"1","Second","filler",NA,0,"type",0.8130156,1.136033,"['c', 'a', 'r', 'c', 'a', 'o', 'l']",0.8130156,0.9250188,1.0049786,1.1169798,1.2609893,1.8061095,1.9490486,NA,NA,NA,NA,NA,NA,NA,NA,0,"None"
"267",267,"iglesia","iglesia","i...iglesia","i...iglesia",0,"1",1,"0","Second","nontarget",NA,1,"speak",1.176675,0.858632,"None",NA,NA,NA,NA,NA,NA,NA,NA,NA,NA,NA,NA,NA,NA,NA,1,"switch"
"268",268,"iglesia","iglesia","iglesia","",0,"1",1,"0","Second","repeat",NA,0,"speak",0.610281,0.438324,"None",NA,NA,NA,NA,NA,NA,NA,NA,NA,NA,NA,NA,NA,NA,NA,0,"None"
"269",269,"oreja","oreja","oreja","tongue",0,"1",1,"0","Second","nontarget",NA,0,"speak",0.594621,0.325379,"None",NA,NA,NA,NA,NA,NA,NA,NA,NA,NA,NA,NA,NA,NA,NA,0,"None"
"270",270,"oreja","oreja","[type ]","",0,"1",1,"0","Second","switch",NA,0,"type",0.8915893,0.6086924,"['o', 'r', 'e', 'j', 'a']",0.8915893,1.0518483,1.2438546,1.3238436,1.5002817,NA,NA,NA,NA,NA,NA,NA,NA,NA,NA,0,"None"
"271",271,"cuerda","cuerda","cuerda","",0,"1",1,"0","Second","filler",NA,0,"speak",0.649,0.366131,"None",NA,NA,NA,NA,NA,NA,NA,NA,NA,NA,NA,NA,NA,NA,NA,0,"None"
"272",272,"granja","granja","[type]","",0,"1",1,"0","Second","filler",NA,0,"type",0.9300923,0.8639701,"['g', 'r', 'a', 'n', 'j', 'a']",0.9300923,1.1540566,1.314619,1.5544153,1.6660652,1.7940624,NA,NA,NA,NA,NA,NA,NA,NA,NA,1,"switch"
"273",273,"cartero","cartero","[type]","",0,"1",1,"0","Third","nontarget",NA,0,"type",0.827322,0.6395494,"['c', 'a', 'r', 't', 'e', 'r', 'o']",0.827322,0.9233093,1.003305,1.1465183,1.2268753,1.3868858,1.4668714,NA,NA,NA,NA,NA,NA,NA,NA,0,"None"
"274",274,"cartero","cartero","[type]","",0,"1",1,"0","Third","repeat",NA,0,"type",0.653992,0.7682704,"['c', 'a', 'r', 't', 'e', 'r', 'o']",0.653992,0.7499789,0.8299795,0.9739768,1.1020334,1.309827,1.4222624,NA,NA,NA,NA,NA,NA,NA,NA,0,"None"
"275",275,"mano","mano","mano","",0,"1",1,"0","Third","filler",NA,0,"speak",0.490979,0.29795,"None",NA,NA,NA,NA,NA,NA,NA,NA,NA,NA,NA,NA,NA,NA,NA,1,"switch"
"276",276,"guante","gyante","[type]","",0,"0",1,"1","Third","nontarget",NA,0,"type",0.8404766,0.6563553,"['g', 'y', 'a', 'n', 't', 'e']",0.8404766,0.9524795,1.1601667,1.2241576,1.4319928,1.4968319,NA,NA,NA,NA,NA,NA,NA,NA,NA,1,"switch"
"277",277,"guante","guante","[type]","",0,"1",1,"1","Third","repeat",NA,0,"type",0.6547063,0.6878006,"['g', 'u', 'a', 'n', 't', 'e']",0.6547063,0.7505525,0.8785467,1.0385188,1.2785117,1.3425069,NA,NA,NA,NA,NA,NA,NA,NA,NA,0,"None"
"278",278,"pintor","pintor","pintor","",0,"1",1,"0","Third","filler",NA,0,"speak",0.568,0.390807,"None",NA,NA,NA,NA,NA,NA,NA,NA,NA,NA,NA,NA,NA,NA,NA,0,"None"
"279",279,"taza","taza","[type]","",0,"1",1,"0","Third","nontarget",NA,0,"type",0.8348127,0.3668253,"['t', 'a', 'z', 'a']",0.8348127,0.8827339,1.1216347,1.201638,NA,NA,NA,NA,NA,NA,NA,NA,NA,NA,NA,0,"None"
"280",280,"taza","taza","[type]","",0,"1",1,"0","Third","repeat",NA,0,"type",0.6579923,0.3039923,"['t', 'a', 'z', 'a']",0.6579923,0.7379561,0.9139608,0.9619846,NA,NA,NA,NA,NA,NA,NA,NA,NA,NA,NA,0,"None"
"281",281,"aguja","aguja","aguja","",0,"1",1,"0","Third","filler",NA,0,"speak",0.592555,0.488296,"None",NA,NA,NA,NA,NA,NA,NA,NA,NA,NA,NA,NA,NA,NA,NA,0,"None"
"282",282,"regalo","regalo","[type]","",0,"1",1,"0","Third","nontarget",NA,0,"type",0.9355024,0.6877728,"['r', 'e', 'g', 'a', 'l', 'o']",0.9355024,1.0314391,1.1434429,1.3194428,1.4952866,1.6232752,NA,NA,NA,NA,NA,NA,NA,NA,NA,1,"switch"
"283",283,"regalo","regalo","regalo","tongue",0,"1",1,"0","Third","switch",NA,0,"speak",0.717177,0.404718,"None",NA,NA,NA,NA,NA,NA,NA,NA,NA,NA,NA,NA,NA,NA,NA,0,"None"
"284",284,"ba?o","ba?o","ba?o","",0,"1",1,"0","Third","nontarget",NA,0,"speak",0.613423,0.336784,"None",NA,NA,NA,NA,NA,NA,NA,NA,NA,NA,NA,NA,NA,NA,NA,1,"repeat"
"285",285,"ba?o","ba?o","ba?o","",0,"1",1,"0","Third","repeat",NA,0,"speak",0.621444,0.315556,"None",NA,NA,NA,NA,NA,NA,NA,NA,NA,NA,NA,NA,NA,NA,NA,0,"None"
"286",286,"conejo","conejo","[/koke:/, type]","whispered sth, then typed",0,"1",0,"0","Third","filler",NA,0,"type",1.0485924,1.0242131,"['c', 'o', 'n', 'e', 'j', 'o']",1.0485924,1.4166063,1.6245462,1.816495,1.9604267,2.0728055,NA,NA,NA,NA,NA,NA,NA,NA,NA,0,"None"
"287",287,"miel","miel","miel","",0,"1",1,"0","Third","filler",NA,0,"speak",0.869269,0.389824,"None",NA,NA,NA,NA,NA,NA,NA,NA,NA,NA,NA,NA,NA,NA,NA,0,"None"
"288",288,"camisa","camisa","camisa","tongue",0,"1",1,"0","Third","nontarget",NA,0,"speak",0.705,0.400946,"None",NA,NA,NA,NA,NA,NA,NA,NA,NA,NA,NA,NA,NA,NA,NA,1,"repeat"
"289",289,"camisa","camisa","[type]","",0,"1",1,"0","Third","switch",NA,0,"type",0.777599,0.784724,"['c', 'a', 'm', 'i', 's', 'a']",0.777599,0.8895845,1.1776122,1.2735766,1.3696194,1.562323,NA,NA,NA,NA,NA,NA,NA,NA,NA,0,"None"
"290",290,"vaca","vaca","[type]","",0,"1",1,"0","Third","nontarget",NA,0,"type",0.7892327,0.2407973,"['v', 'a', 'c', 'a']",0.7892327,0.8700377,0.9500355,1.03003,NA,NA,NA,NA,NA,NA,NA,NA,NA,NA,NA,0,"None"
"291",291,"vaca","vaca","vaca","",0,"1",1,"0","Third","switch",NA,0,"speak",0.55947,0.350315,"None",NA,NA,NA,NA,NA,NA,NA,NA,NA,NA,NA,NA,NA,NA,NA,0,"None"
"292",292,"goma","goma","[type]","",0,"1",1,"0","Third","filler",NA,0,"type",0.7794511,0.6719248,"['g', 'o', 'm', 'a']",0.7794511,1.2104456,1.354406,1.4513759,NA,NA,NA,NA,NA,NA,NA,NA,NA,NA,NA,1,"switch"
"293",293,"pulpo","pulpo","pulpo","",0,"1",1,"0","Third","nontarget",NA,0,"speak",0.649,0.332304,"None",NA,NA,NA,NA,NA,NA,NA,NA,NA,NA,NA,NA,NA,NA,NA,1,"switch"
"294",294,"pulpo","pulpo","pulpo","",0,"1",1,"0","Third","repeat",NA,0,"speak",0.633,0.352872,"None",NA,NA,NA,NA,NA,NA,NA,NA,NA,NA,NA,NA,NA,NA,NA,0,"None"
"295",295,"iglesia","ihlesia","[type]","",0,"0",1,"1","Third","filler",NA,0,"type",1.0303386,1.5832909,"['i', 'g', 'h', 'l', 'e', 's', 'i', 'a']",1.0303386,1.2862983,1.2872922,1.7342967,1.910293,2.3736208,2.4696126,2.6136295,NA,NA,NA,NA,NA,NA,NA,0,"None"
"296",296,"guante","guante","guante","tongue",0,"1",1,"0","Third","filler",NA,0,"speak",0.677486,0.357845,"None",NA,NA,NA,NA,NA,NA,NA,NA,NA,NA,NA,NA,NA,NA,NA,0,"None"
"297",297,"pierna","pierna","pierna","",0,"1",1,"0","Third","nontarget",NA,0,"speak",0.698621,0.314922,"None",NA,NA,NA,NA,NA,NA,NA,NA,NA,NA,NA,NA,NA,NA,NA,1,"repeat"
"298",298,"pierna","pierna","[type]","",0,"1",1,"0","Third","switch",NA,0,"type",1.0435448,0.7679612,"['p', 'i', 'e', 'r', 'n', 'a']",1.0435448,1.2835044,1.3954988,1.5715046,1.6685532,1.811506,NA,NA,NA,NA,NA,NA,NA,NA,NA,0,"None"
"299",299,"tenedor","tenedor","tenedor","",0,"1",1,"0","Third","filler",NA,0,"speak",0.656,0.421353,"None",NA,NA,NA,NA,NA,NA,NA,NA,NA,NA,NA,NA,NA,NA,NA,0,"None"
"300",300,"oreja","oreja","[type]","",0,"1",1,"0","Third","filler",NA,0,"type",1.0280101,0.8312538,"['o', 'r', 'e', 'j', 'a']",1.0280101,1.2200123,1.4912623,1.7312674,1.8592639,NA,NA,NA,NA,NA,NA,NA,NA,NA,NA,1,"switch"
"301",301,"columna","columna","columna","",0,"1",1,"0","Third","filler",NA,0,"speak",0.988387,0.416382,"None",NA,NA,NA,NA,NA,NA,NA,NA,NA,NA,NA,NA,NA,NA,NA,0,"None"
"302",302,"cartero","cartero","[type]","",0,"1",1,"0","Third","filler",NA,0,"type",0.7637341,0.6715388,"['c', 'a', 'r', 't', 'e', 'r', 'o']",0.7637341,0.8757285,0.9397243,1.0993522,1.1973091,1.3392753,1.4352729,NA,NA,NA,NA,NA,NA,NA,NA,1,"switch"
"303",303,"bombero","bombero","[type]","",0,"1",1,"0","Third","nontarget",NA,0,"type",0.8732919,1.2963033,"['b', 'o', 'm', 'b', 'e', 'r', 'o']",0.8732919,1.2092853,1.4332858,1.8015819,1.9135826,2.0575848,2.1695952,NA,NA,NA,NA,NA,NA,NA,NA,1,"repeat"
"304",304,"bombero","bombero","[type]","",0,"1",1,"0","Third","repeat",NA,0,"type",0.7043769,1.088399,"['b', 'o', 'm', 'b', 'e', 'r', 'o']",0.7043769,1.0083806,1.2003719,1.4404753,1.5367681,1.6967764,1.7927759,NA,NA,NA,NA,NA,NA,NA,NA,0,"None"
"305",305,"cadena","cadena","cadena","",0,"1",1,"0","Third","filler",NA,0,"speak",0.793,0.376,"None",NA,NA,NA,NA,NA,NA,NA,NA,NA,NA,NA,NA,NA,NA,NA,0,"None"
"306",306,"escoba","escoba","[/es/, type]","spoke, then typed",0,"1",0,"0","Third","filler",NA,0,"type",0.9937391,0.8159275,"['e', 's', 'c', 'o', 'b', 'a']",0.9937391,1.2017606,1.4258209,1.5057394,1.7136656,1.8096666,NA,NA,NA,NA,NA,NA,NA,NA,NA,0,"None"
"307",307,"pierna","pierna","[type]","",0,"1",1,"0","Third","filler",NA,0,"type",0.8767657,0.8638748,"['p', 'i', 'e', 'r', 'n', 'a']",0.8767657,1.1007629,1.2927738,1.4688588,1.5488635,1.7406405,NA,NA,NA,NA,NA,NA,NA,NA,NA,0,"None"
"308",308,"taza","taza","taza","tongue",0,"1",1,"0","Third","filler",NA,0,"speak",0.641,0.299282,"None",NA,NA,NA,NA,NA,NA,NA,NA,NA,NA,NA,NA,NA,NA,NA,0,"None"
"309",309,"pavo","pavo","pavo","",0,"1",1,"0","Third","nontarget",NA,0,"speak",0.665,0.297003,"None",NA,NA,NA,NA,NA,NA,NA,NA,NA,NA,NA,NA,NA,NA,NA,1,"repeat"
"310",310,"pavo","pavo","pavo","",0,"1",1,"0","Third","repeat",NA,0,"speak",0.712,0.339829,"None",NA,NA,NA,NA,NA,NA,NA,NA,NA,NA,NA,NA,NA,NA,NA,0,"None"
"311",311,"vaca","vaca","[type]","",0,"1",1,"0","Third","filler",NA,0,"type",0.7093981,0.2558799,"['v', 'a', 'c', 'a']",0.7093981,0.7903537,0.8692554,0.965278,NA,NA,NA,NA,NA,NA,NA,NA,NA,NA,NA,1,"repeat"
"312",312,"espalda","espalda","espalda","",0,"1",1,"0","Third","nontarget",NA,0,"speak",0.946009,0.582186,"None",NA,NA,NA,NA,NA,NA,NA,NA,NA,NA,NA,NA,NA,NA,NA,1,"switch"
"313",313,"espalda","espalda","espalda","tongue",0,"1",1,"0","Third","repeat",NA,0,"speak",0.564956,0.49783,"None",NA,NA,NA,NA,NA,NA,NA,NA,NA,NA,NA,NA,NA,NA,NA,0,"None"
"314",314,"pulpo","pulo","[type]","",1,"0",1,"1","Third","filler",NA,0,"type",0.6743894,2.2233746,"['p', 'u', 'i', 'backspace', 'u', 'l', 'o']",0.6743894,0.9775625,0.9786118,1.8415575,2.3543411,2.6255194,2.897764,NA,NA,NA,NA,NA,NA,NA,NA,0,"None"
"315",315,"vaso","vaso","vaso","",0,"1",1,"0","Third","nontarget",NA,0,"speak",0.734652,0.328305,"None",NA,NA,NA,NA,NA,NA,NA,NA,NA,NA,NA,NA,NA,NA,NA,1,"switch"
"316",316,"vaso","vaso","[type]","",0,"1",1,"0","Third","switch",NA,0,"type",0.7086004,0.4797307,"['v', 'a', 's', 'o']",0.7086004,0.804592,0.980455,1.1883311,NA,NA,NA,NA,NA,NA,NA,NA,NA,NA,NA,0,"None"
"317",317,"regalo","regalo","[type]","",0,"1",1,"0","Third","filler",NA,0,"type",0.7837155,0.6879667,"['r', 'e', 'g', 'a', 'l', 'o']",0.7837155,0.9277117,1.0237834,1.1997101,1.3597127,1.4716822,NA,NA,NA,NA,NA,NA,NA,NA,NA,1,"repeat"
"318",318,"traje","traje","[type]","",0,"1",1,"0","Third","nontarget",NA,0,"type",0.8918349,0.4643352,"['t', 'r', 'a', 'j', 'e']",0.8918349,1.0197969,1.0521746,1.3081778,1.3561701,NA,NA,NA,NA,NA,NA,NA,NA,NA,NA,1,"repeat"
"319",319,"traje","traje","traje","",0,"1",1,"0","Third","switch",NA,0,"speak",0.588609,0.397836,"None",NA,NA,NA,NA,NA,NA,NA,NA,NA,NA,NA,NA,NA,NA,NA,0,"None"
"320",320,"fresa","fresa","fresa","",0,"1",1,"0","Third","nontarget",NA,0,"speak",0.68334,0.404936,"None",NA,NA,NA,NA,NA,NA,NA,NA,NA,NA,NA,NA,NA,NA,NA,1,"repeat"
"321",321,"fresa","fresa","[type]","",0,"1",1,"0","Third","switch",NA,0,"type",0.6888722,0.6074218,"['f', 'r', 'e', 's', 'a']",0.6888722,0.8163152,1.0083146,1.1042721,1.296294,NA,NA,NA,NA,NA,NA,NA,NA,NA,NA,0,"None"
"322",322,"bombero","bombero","[type]","",0,"1",1,"0","Third","filler",NA,0,"type",0.858426,1.0561167,"['b', 'o', 'm', 'b', 'e', 'r', 'o']",0.858426,1.1944129,1.3707192,1.5946141,1.6905491,1.8345196,1.9145427,NA,NA,NA,NA,NA,NA,NA,NA,0,"None"
"323",323,"camisa","traje camisa","traje camisa","said traje first, then corrected to camisa",0,"0",1,"1","Third","filler",NA,0,"speak",1.682222,0.369579,"None",NA,NA,NA,NA,NA,NA,NA,NA,NA,NA,NA,NA,NA,NA,NA,0,"None"
"324",324,"mu?eca","mu?eca","[type]","",0,"1",1,"0","Third","nontarget",NA,0,"type",0.8081562,0.9117533,"['m', 'u', '?', 'e', 'c', 'a']",0.8081562,0.9839028,1.2879422,1.4159409,1.6399008,1.7199095,NA,NA,NA,NA,NA,NA,NA,NA,NA,0,"None"
"325",325,"mu?eca","mu?eca","[type]","",0,"1",1,"0","Third","repeat",NA,0,"type",0.9393998,0.8800192,"['m', 'u', '?', 'e', 'c', 'a']",0.9393998,1.0993932,1.4034198,1.4673912,1.675397,1.819419,NA,NA,NA,NA,NA,NA,NA,NA,NA,0,"None"
"326",326,"ba?o","ba?o","ba?o","",0,"1",1,"0","Third","filler",NA,0,"speak",0.735986,0.354154,"None",NA,NA,NA,NA,NA,NA,NA,NA,NA,NA,NA,NA,NA,NA,NA,1,"switch"
"327",327,"puente","puente","[type]","",0,"1",1,"0","Third","nontarget",NA,0,"type",0.9661283,0.8478372,"['p', 'u', 'e', 'n', 't', 'e']",0.9661283,1.2220911,1.4789978,1.5263302,1.733999,1.8139655,NA,NA,NA,NA,NA,NA,NA,NA,NA,1,"switch"
"328",328,"puente","puente","[type]","",0,"1",1,"0","Third","repeat",NA,0,"type",0.7937484,0.7995424,"['p', 'u', 'e', 'n', 't', 'e']",0.7937484,1.0811646,1.2577123,1.3217056,1.5293424,1.5932908,NA,NA,NA,NA,NA,NA,NA,NA,NA,0,"None"
"329",329,"cazador","cazador","[type]","",0,"1",1,"0","Third","nontarget",NA,0,"type",0.7377336,0.8480037,"['c', 'a', 'z', 'a', 'd', 'o', 'r']",0.7377336,0.8017313,1.009731,1.1697486,1.3297466,1.4577452,1.5857373,NA,NA,NA,NA,NA,NA,NA,NA,1,"repeat"
"330",330,"cazador","cazador","cazador","tongue",0,"1",1,"0","Third","switch",NA,0,"speak",0.472837,0.543151,"None",NA,NA,NA,NA,NA,NA,NA,NA,NA,NA,NA,NA,NA,NA,NA,0,"None"
"331",331,"pavo","pavo","[type]","",0,"1",1,"0","Third","filler",NA,0,"type",0.9162573,0.480026,"['p', 'a', 'v', 'o']",0.9162573,0.9642847,1.1882875,1.3962833,NA,NA,NA,NA,NA,NA,NA,NA,NA,NA,NA,0,"None"
"332",332,"falda","falda","[type]","",0,"1",1,"0","Third","nontarget",NA,0,"type",0.9303711,0.7691119,"['f', 'a', 'l', 'd', 'a']",0.9303711,0.9943458,1.3303721,1.6185172,1.699483,NA,NA,NA,NA,NA,NA,NA,NA,NA,NA,1,"repeat"
"333",333,"falda","falda","[type]","",0,"1",1,"0","Third","repeat",NA,0,"type",0.75615,0.7839976,"['f', 'a', 'l', 'd', 'a']",0.75615,0.8361713,1.1882227,1.4921504,1.5401476,NA,NA,NA,NA,NA,NA,NA,NA,NA,NA,0,"None"
"334",334,"puente","puente","puente","",0,"1",1,"0","Third","filler",NA,0,"speak",0.553,0.367358,"None",NA,NA,NA,NA,NA,NA,NA,NA,NA,NA,NA,NA,NA,NA,NA,1,"switch"
"335",335,"cuerda","cuerda","[type]","",0,"1",1,"0","Third","nontarget",NA,0,"type",0.8992505,0.6564319,"['c', 'u', 'e', 'r', 'd', 'a']",0.8992505,1.0754988,1.1876927,1.3476809,1.4596724,1.5556824,NA,NA,NA,NA,NA,NA,NA,NA,NA,1,"switch"
"336",336,"cuerda","cuerda","[type]","",0,"1",1,"0","Third","repeat",NA,0,"type",0.6485476,0.5436861,"['c', 'u', 'e', 'r', 'd', 'a']",0.6485476,0.8087141,0.9046974,1.0480371,1.1602418,1.1922337,NA,NA,NA,NA,NA,NA,NA,NA,NA,0,"None"
"337",337,"espalda","espalda","[type]","",0,"1",1,"0","Third","filler",NA,0,"type",0.709577,0.7518373,"['e', 's', 'p', 'a', 'l', 'd', 'a']",0.709577,0.8859543,0.9825161,1.0775404,1.1416152,1.2536122,1.4614143,NA,NA,NA,NA,NA,NA,NA,NA,0,"None"
"338",338,"tenedor","tenedor","tenedor","cleans throat after word production",0,"1",1,"0","Third","filler",NA,0,"speak",0.744,0.419706,"None",NA,NA,NA,NA,NA,NA,NA,NA,NA,NA,NA,NA,NA,NA,NA,0,"None"
"339",339,"vaso","vaso","[type]","",0,"1",1,"0","Third","filler",NA,0,"type",0.6433405,0.4320029,"['v', 'a', 's', 'o']",0.6433405,0.7073463,0.8993333,1.0753434,NA,NA,NA,NA,NA,NA,NA,NA,NA,NA,NA,1,"switch"
"340",340,"manzana","manzana","[type]","",0,"1",1,"0","Third","nontarget",NA,0,"type",0.7454282,0.6082647,"['m', 'a', 'n', 'z', 'a', 'n', 'a']",0.7454282,0.7934275,0.9210934,1.017704,1.1467339,1.2417248,1.3536929,NA,NA,NA,NA,NA,NA,NA,NA,1,"repeat"
"341",341,"manzana","manzana","manzana","",0,"1",1,"0","Third","switch",NA,0,"speak",0.613347,0.489191,"None",NA,NA,NA,NA,NA,NA,NA,NA,NA,NA,NA,NA,NA,NA,NA,0,"None"
"342",342,"traje","traje","traje","",0,"1",1,"0","Third","filler",NA,0,"speak",0.648,0.37616,"None",NA,NA,NA,NA,NA,NA,NA,NA,NA,NA,NA,NA,NA,NA,NA,0,"None"
"343",343,"caracol","caracol","caracol","",0,"1",1,"0","Third","nontarget",NA,0,"speak",0.521,0.42226,"None",NA,NA,NA,NA,NA,NA,NA,NA,NA,NA,NA,NA,NA,NA,NA,1,"repeat"
"344",344,"caracol","caracol","[type]","",0,"1",1,"0","Third","switch",NA,0,"type",0.845443,0.719979,"['c', 'a', 'r', 'a', 'c', 'o', 'l']",0.845443,0.9265024,1.0064656,1.1175019,1.1653091,1.4377416,1.565422,NA,NA,NA,NA,NA,NA,NA,NA,0,"None"
"345",345,"fresa","feesa","[type]","",0,"0",1,"1","Third","filler",NA,0,"type",0.7640554,0.6077219,"['f', 'e', 'e', 's', 'a']",0.7640554,0.9077385,1.0517032,1.1317073,1.3717773,NA,NA,NA,NA,NA,NA,NA,NA,NA,NA,0,"None"
"346",346,"cerdo","cerdo","cerdo","",0,"1",1,"0","Third","nontarget",NA,0,"type",0.6776259,0.5433256,"['c', 'e', 'r', 'd', 'o']",0.6776259,0.8216156,1.0136033,1.1729506,1.2209515,NA,NA,NA,NA,NA,NA,NA,NA,NA,NA,1,"repeat"
"347",347,"cerdo","cerdo","cerdo","tongue",0,"1",1,"0","Third","switch",NA,0,"speak",0.521481,0.414988,"None",NA,NA,NA,NA,NA,NA,NA,NA,NA,NA,NA,NA,NA,NA,NA,0,"None"
"348",348,"mano","mano","mano","",0,"1",1,"0","Third","nontarget",NA,0,"speak",0.570287,0.329756,"None",NA,NA,NA,NA,NA,NA,NA,NA,NA,NA,NA,NA,NA,NA,NA,0,"None"
"349",349,"mano","mano","mano","",0,"1",1,"0","Third","repeat",NA,0,"speak",0.514967,0.415391,"None",NA,NA,NA,NA,NA,NA,NA,NA,NA,NA,NA,NA,NA,NA,NA,0,"None"
"350",350,"mu?eca","mu?eca","[type]","",0,"1",1,"0","Third","filler",NA,0,"type",0.7995226,0.9760177,"['m', 'u', '?', 'e', 'c', 'a']",0.7995226,0.9599619,1.3279734,1.4399595,1.6640734,1.7755403,NA,NA,NA,NA,NA,NA,NA,NA,NA,0,"None"
"351",351,"granja","granja","granja","",0,"1",1,"0","Third","nontarget",NA,0,"speak",0.593,0.434574,"None",NA,NA,NA,NA,NA,NA,NA,NA,NA,NA,NA,NA,NA,NA,NA,1,"switch"
"352",352,"granja","granja","granja","tongue",0,"1",1,"0","Third","repeat",NA,0,"speak",0.647118,0.399615,"None",NA,NA,NA,NA,NA,NA,NA,NA,NA,NA,NA,NA,NA,NA,NA,0,"None"
"353",353,"tronco","troinco","[type]","",0,"0",1,"1","Third","filler",NA,0,"type",0.9162292,0.8000578,"['t', 'r', 'o', 'i', 'n', 'c', 'o']",0.9162292,1.1086285,1.2526192,1.2686153,1.4284597,1.5724667,1.716287,NA,NA,NA,NA,NA,NA,NA,NA,0,"None"
"354",354,"cazador","cazador","cazador","",0,"1",1,"0","Third","filler",NA,0,"speak",0.675381,0.517218,"None",NA,NA,NA,NA,NA,NA,NA,NA,NA,NA,NA,NA,NA,NA,NA,0,"None"
"355",355,"pintor","pintor","pintor","",0,"1",1,"0","Third","nontarget",NA,0,"speak",0.606697,0.418638,"None",NA,NA,NA,NA,NA,NA,NA,NA,NA,NA,NA,NA,NA,NA,NA,1,"repeat"
"356",356,"pintor","pintor","[type]","",0,"1",1,"0","Third","switch",NA,0,"type",1.0170838,0.8477892,"['p', 'i', 'n', 't', 'o', 'r']",1.0170838,1.2730693,1.4650911,1.62505,1.6890718,1.864873,NA,NA,NA,NA,NA,NA,NA,NA,NA,0,"None"
"357",357,"columna","columna","columna","tongue",0,"1",1,"0","Third","filler",NA,0,"speak",0.72,0.464318,"None",NA,NA,NA,NA,NA,NA,NA,NA,NA,NA,NA,NA,NA,NA,NA,0,"None"
"358",358,"oreja","oreja","[type]","",0,"1",1,"0","Third","nontarget",NA,0,"type",0.8691921,0.4799798,"['o', 'r', 'e', 'j', 'a']",0.8691921,0.9812254,1.1253698,1.2211699,1.3491719,NA,NA,NA,NA,NA,NA,NA,NA,NA,NA,0,"None"
"359",359,"oreja","oreja","oreja","tongue",0,"1",1,"0","Third","switch",NA,0,"speak",0.520133,0.451226,"None",NA,NA,NA,NA,NA,NA,NA,NA,NA,NA,NA,NA,NA,NA,NA,0,"None"
"360",360,"falda","falda","falda","",0,"1",1,"0","Third","filler",NA,0,"speak",0.466886,0.445904,"None",NA,NA,NA,NA,NA,NA,NA,NA,NA,NA,NA,NA,NA,NA,NA,0,"None"
"361",361,"guante","guante","guante","tongue",0,"1",1,"0","Third","nontarget",NA,0,"speak",0.528418,0.438234,"None",NA,NA,NA,NA,NA,NA,NA,NA,NA,NA,NA,NA,NA,NA,NA,1,"repeat"
"362",362,"guante","guante","[type]","",0,"1",1,"0","Third","switch",NA,0,"type",0.6924341,0.591955,"['g', 'u', 'a', 'n', 't', 'e']",0.6924341,0.7404213,0.9004172,1.012415,1.2204225,1.2843891,NA,NA,NA,NA,NA,NA,NA,NA,NA,0,"None"
"363",363,"cuerda","cuerda","[type]","",0,"1",1,"0","Third","filler",NA,0,"type",0.788223,0.5439831,"['c', 'u', 'e', 'r', 'd', 'a']",0.788223,0.8522168,1.0122062,1.1242736,1.2202197,1.3322061,NA,NA,NA,NA,NA,NA,NA,NA,NA,1,"repeat"
"364",364,"conejo","conejo","[type]","",0,"1",1,"0","Third","nontarget",NA,0,"type",0.7284784,0.656318,"['c', 'o', 'n', 'e', 'j', 'o']",0.7284784,0.8887698,1.0498058,1.1778014,1.3047908,1.3847964,NA,NA,NA,NA,NA,NA,NA,NA,NA,1,"repeat"
"365",365,"conejo","conejo","conejo","articulation sound",0,"1",1,"0","Third","switch",NA,0,"speak",0.531329,0.477186,"None",NA,NA,NA,NA,NA,NA,NA,NA,NA,NA,NA,NA,NA,NA,NA,0,"None"
"366",366,"manzana","manzana","[type]","",0,"1",1,"0","Third","filler",NA,0,"type",0.8295134,0.576537,"['m', 'a', 'n', 'z', 'a', 'n', 'a']",0.8295134,0.9414698,1.0054757,1.1334765,1.2134767,1.2935017,1.4060504,NA,NA,NA,NA,NA,NA,NA,NA,0,"None"
"367",367,"cartero","cartero","cartero","tongue",0,"1",1,"0","Third","nontarget",NA,0,"speak",0.616,0.408,"None",NA,NA,NA,NA,NA,NA,NA,NA,NA,NA,NA,NA,NA,NA,NA,1,"switch"
"368",368,"cartero","cartero","cartero","tongue",0,"1",1,"0","Third","repeat",NA,0,"speak",0.521,0.432784,"None",NA,NA,NA,NA,NA,NA,NA,NA,NA,NA,NA,NA,NA,NA,NA,0,"None"
"369",369,"caracol","caracol","caracol","tongue",0,"1",1,"0","Third","filler",NA,0,"speak",0.576,0.457994,"None",NA,NA,NA,NA,NA,NA,NA,NA,NA,NA,NA,NA,NA,NA,NA,0,"None"
"370",370,"cerdo","cerdo","[type]","",0,"1",1,"0","Third","filler",NA,0,"type",0.757955,0.9600586,"['c', 'e', 'r', 'd', 'o']",0.757955,1.1904188,1.3508724,1.5100234,1.7180136,NA,NA,NA,NA,NA,NA,NA,NA,NA,NA,1,"switch"
"371",371,"miel","miel","miel","",0,"1",1,"0","Third","nontarget",NA,0,"speak",0.547779,0.418696,"None",NA,NA,NA,NA,NA,NA,NA,NA,NA,NA,NA,NA,NA,NA,NA,1,"switch"
"372",372,"miel","miel","miel","",0,"1",1,"0","Third","repeat",NA,0,"speak",0.570003,0.355469,"None",NA,NA,NA,NA,NA,NA,NA,NA,NA,NA,NA,NA,NA,NA,NA,0,"None"
"373",373,"iglesia","iglesia","iglesia","",0,"1",1,"0","Third","nontarget",NA,0,"speak",0.792759,0.620793,"None",NA,NA,NA,NA,NA,NA,NA,NA,NA,NA,NA,NA,NA,NA,NA,1,"repeat"
"374",374,"iglesia","iglesia","[type]","",0,"1",1,"0","Third","switch",NA,0,"type",0.6654925,1.2806448,"['i', 'g', 'k', 'l', 'e', 's', 'i', 'a']",0.6654925,0.9054864,1.0495131,1.0505154,1.2735181,1.4655115,1.5935376,1.9461373,NA,NA,NA,NA,NA,NA,NA,0,"None"
"375",375,"granja","granja","granja","",0,"1",1,"0","Third","filler",NA,0,"speak",0.569596,0.421878,"None",NA,NA,NA,NA,NA,NA,NA,NA,NA,NA,NA,NA,NA,NA,NA,0,"None"
"376",376,"mano","mano","[type]","",0,"1",1,"0","Third","filler",NA,0,"type",0.7541389,0.272367,"['m', 'a', 'n', 'o']",0.7541389,0.8341327,0.946119,1.0265059,NA,NA,NA,NA,NA,NA,NA,NA,NA,NA,NA,0,"None"
"377",377,"goma","goma","[type]","",0,"1",1,"0","Third","nontarget",NA,0,"type",0.9074277,0.3838056,"['g', 'o', 'm', 'a']",0.9074277,0.9874342,1.1632361,1.2912333,NA,NA,NA,NA,NA,NA,NA,NA,NA,NA,NA,0,"None"
"378",378,"goma","goma","[type]","",0,"1",1,"0","Third","repeat",NA,0,"type",0.81942,0.3520215,"['g', 'o', 'm', 'a']",0.81942,0.8673819,1.0439864,1.1714415,NA,NA,NA,NA,NA,NA,NA,NA,NA,NA,NA,0,"None"
"379",379,"pintor","pintor","pintor","",0,"1",1,"0","Third","filler",NA,0,"speak",0.5561,0.409838,"None",NA,NA,NA,NA,NA,NA,NA,NA,NA,NA,NA,NA,NA,NA,NA,0,"None"
"380",380,"aguja","aguja","[type]","",0,"1",1,"0","Third","nontarget",NA,0,"type",0.6926516,0.5760574,"['a', 'g', 'u', 'j', 'a']",0.6926516,0.9006392,0.9967157,1.1727198,1.268709,NA,NA,NA,NA,NA,NA,NA,NA,NA,NA,1,"switch"
"381",381,"aguja","aguja","[type]","",0,"1",1,"0","Third","repeat",NA,0,"type",0.5056892,0.5438948,"['a', 'g', 'u', 'j', 'a']",0.5056892,0.6815437,0.7775089,0.9535741,1.049584,NA,NA,NA,NA,NA,NA,NA,NA,NA,NA,0,"None"
"382",382,"guante","guante","[type]","",0,"1",1,"0","Third","filler",NA,0,"type",0.7650473,0.7840218,"['g', 'u', 'a', 'n', 't', 'e']",0.7650473,0.8930681,1.1330243,1.2441131,1.4840701,1.5490691,NA,NA,NA,NA,NA,NA,NA,NA,NA,1,"repeat"
"383",383,"espejo","espejo","espejo","",0,"1",1,"0","Third","filler",NA,0,"speak",0.565748,0.570303,"None",NA,NA,NA,NA,NA,NA,NA,NA,NA,NA,NA,NA,NA,NA,NA,0,"None"
"384",384,"goma","goma","goma","",0,"1",1,"0","Third","filler",NA,0,"speak",0.827116,0.325354,"None",NA,NA,NA,NA,NA,NA,NA,NA,NA,NA,NA,NA,NA,NA,NA,1,"repeat"
"385",385,"regalo","regalo","[type]","breath as if to speak, didn't",0,"1",1,"0","Third","nontarget",NA,0,"type",0.9971056,0.7039235,"['r', 'e', 'g', 'a', 'l', 'o']",0.9971056,1.0930833,1.2050857,1.397085,1.5890683,1.7010291,NA,NA,NA,NA,NA,NA,NA,NA,NA,0,"None"
"386",386,"regalo","regalo","[type]","",0,"1",1,"0","Third","repeat",NA,0,"type",0.6527588,0.6086816,"['r', 'e', 'g', 'a', 'l', 'o']",0.6527588,0.7166949,0.8446919,0.9886576,1.1497384,1.2614404,NA,NA,NA,NA,NA,NA,NA,NA,NA,0,"None"
"387",387,"pierna","pierna","[type]","",0,"1",1,"0","Third","nontarget",NA,0,"type",0.8007954,0.9284928,"['p', 'i', 'e', 'r', 'n', 'a']",0.8007954,1.073288,1.2172744,1.409165,1.4732071,1.7292882,NA,NA,NA,NA,NA,NA,NA,NA,NA,1,"repeat"
"388",388,"pierna","pierna","pierna","",0,"1",1,"0","Third","switch",NA,0,"speak",0.480336,0.38729,"None",NA,NA,NA,NA,NA,NA,NA,NA,NA,NA,NA,NA,NA,NA,NA,0,"None"
"389",389,"conejo","conejo","[type]","",0,"1",1,"0","Third","filler",NA,0,"type",0.7500708,0.577047,"['c', 'o', 'n', 'e', 'j', 'o']",0.7500708,0.8301738,1.0062023,1.102532,1.2460991,1.3271178,NA,NA,NA,NA,NA,NA,NA,NA,NA,0,"None"
"390",390,"camisa","camisa","camisa","tongue",0,"1",1,"0","Third","nontarget",NA,0,"speak",0.68,0.440621,"None",NA,NA,NA,NA,NA,NA,NA,NA,NA,NA,NA,NA,NA,NA,NA,1,"switch"
"391",391,"camisa","camisa","camisa","tongue",0,"1",1,"0","Third","repeat",NA,0,"speak",0.488,0.448158,"None",NA,NA,NA,NA,NA,NA,NA,NA,NA,NA,NA,NA,NA,NA,NA,0,"None"
"392",392,"vaca","vaca","vaca","",0,"1",1,"0","Third","nontarget",NA,0,"speak",0.587196,0.342676,"None",NA,NA,NA,NA,NA,NA,NA,NA,NA,NA,NA,NA,NA,NA,NA,0,"None"
"393",393,"vaca","vaca","[type]","",0,"1",1,"0","Third","switch",NA,0,"type",0.6071572,0.2559841,"['v', 'a', 'c', 'a']",0.6071572,0.6871224,0.7521453,0.8631413,NA,NA,NA,NA,NA,NA,NA,NA,NA,NA,NA,0,"None"
"394",394,"cartero","cartero","cartero","tongue",0,"1",1,"0","Third","filler",NA,0,"speak",0.536,0.411473,"None",NA,NA,NA,NA,NA,NA,NA,NA,NA,NA,NA,NA,NA,NA,NA,0,"None"
"395",395,"taza","taza","[type]","",0,"1",1,"0","Third","nontarget",NA,0,"type",0.7264824,0.2720212,"['t', 'a', 'z', 'a']",0.7264824,0.7905539,0.9184752,0.9985036,NA,NA,NA,NA,NA,NA,NA,NA,NA,NA,NA,1,"switch"
"396",396,"taza","taza","taza","",0,"1",1,"0","Third","switch",NA,0,"speak",0.587782,0.342667,"None",NA,NA,NA,NA,NA,NA,NA,NA,NA,NA,NA,NA,NA,NA,NA,0,"None"
"397",397,"cadena","cadena","[type]","",0,"1",1,"0","Third","filler",NA,0,"type",0.8438532,1.1367275,"['c', 'a', 'd', 'e', 'n', 'a']",0.8438532,1.1318586,1.5956886,1.6916815,1.8195997,1.9805807,NA,NA,NA,NA,NA,NA,NA,NA,NA,0,"None"
"398",398,"miel","miel","miel","",0,"1",1,"0","Third","filler",NA,0,"speak",0.561252,0.369878,"None",NA,NA,NA,NA,NA,NA,NA,NA,NA,NA,NA,NA,NA,NA,NA,0,"None"
"399",399,"bombero","bombero","bombero","",0,"1",1,"0","Third","nontarget",NA,0,"speak",0.606231,0.432695,"None",NA,NA,NA,NA,NA,NA,NA,NA,NA,NA,NA,NA,NA,NA,NA,1,"repeat"
"400",400,"bombero","bombero","bombero","",0,"1",1,"0","Third","repeat",NA,0,"speak",0.558868,0.406333,"None",NA,NA,NA,NA,NA,NA,NA,NA,NA,NA,NA,NA,NA,NA,NA,0,"None"
"401",401,"iglesia","iglesia","[type]","",0,"1",1,"0","Third","filler",NA,0,"type",0.8285688,0.9753407,"['i', 'g', 'l', 'e', 's', 'i', 'a']",0.8285688,1.0842968,1.1802583,1.3402928,1.6119123,1.6919106,1.8039095,NA,NA,NA,NA,NA,NA,NA,NA,1,"switch"
"402",402,"oreja","oreja","oreja","tongue",0,"1",1,"0","Third","filler",NA,0,"speak",0.567021,0.365568,"None",NA,NA,NA,NA,NA,NA,NA,NA,NA,NA,NA,NA,NA,NA,NA,0,"None"
"403",403,"pulpo","pulpo","pulpo","",0,"1",1,"0","Third","nontarget",NA,0,"speak",0.594479,0.37327,"None",NA,NA,NA,NA,NA,NA,NA,NA,NA,NA,NA,NA,NA,NA,NA,1,"repeat"
"404",404,"pulpo","pulpo","[type]","",0,"1",1,"0","Third","switch",NA,0,"type",0.8549643,0.8315922,"['p', 'u', 'l', 'p', 'o']",0.8549643,1.1109876,1.3344934,1.5104967,1.6865565,NA,NA,NA,NA,NA,NA,NA,NA,NA,NA,0,"None"
"405",405,"escoba","escoba","escoba","/ts/ before word production",0,"1",1,"0","Third","filler",NA,0,"speak",0.570152,0.414113,"None",NA,NA,NA,NA,NA,NA,NA,NA,NA,NA,NA,NA,NA,NA,NA,0,"None"
"406",406,"aguja","aguja","[type]","",0,"1",1,"0","Third","filler",NA,0,"type",0.9832738,0.8003466,"['a', 'g', 'u', 'j', 'a']",0.9832738,1.3192328,1.4952555,1.6396695,1.7836204,NA,NA,NA,NA,NA,NA,NA,NA,NA,NA,0,"None"
"407",407,"ba?o","ba?o","[type]","",0,"1",1,"0","Third","nontarget",NA,0,"type",0.7232262,0.5921649,"['b', 'a', '?', 'o']",0.7232262,0.8352122,1.1074036,1.3153911,NA,NA,NA,NA,NA,NA,NA,NA,NA,NA,NA,1,"repeat"
"408",408,"ba?o","ba?o","[type]","",0,"1",1,"0","Third","repeat",NA,0,"type",0.685174,0.5599851,"['b', 'a', '?', 'o']",0.685174,0.7812029,1.037509,1.2451591,NA,NA,NA,NA,NA,NA,NA,NA,NA,NA,NA,0,"None"
