image;correctAns;respModal;frameColor;repSwitch;sequence;target;set;block;list;exp_version;stimulus;baseline;baseline_condition;trial_no;psychopy_trial;Column1;trialsREPSWITCH.thisRepN;trialsREPSWITCH.thisTrialN;trialsREPSWITCH.thisN;trialsREPSWITCH.thisIndex;textWelcome.started;textboxInstrMain1.started;textboxInstrMain1_2.started;textboxInstrMain1_3.started;keyInstrMain.started;keyInstrMain.keys;keyInstrMain.rt;textboxInstrMain2.started;textboxInstrMain2_2.started;textboxInstrMain2_3.started;textboxInstrMain2_4.started;textboxInstrMain2_5.started;textboxInstrMain2_6.started;textboxInstrMain2_7.started;textboxInstrMain2_8.started;textboxInstrMain2_9.started;textboxInstrMain2_10.started;textboxInstrMain2_11.started;textboxInstrMain2_12.started;keyInstrMain2.started;keyInstrMain2.keys;keyInstrMain2.rt;fixationITI.started;fixationITI.stopped;polygonColour.started;polygonWhite.started;imageObject.started;polygonType.started;textInput.started;keyResp.started;micRespv1l4.started;keyResp.keys;keyResp.corr;keyResp.rt;subjResponse;micRespv1l4.clip;textBlankLoop.started;textBlankLoop.stopped;keyPause.keys;polygonColour.stopped;polygonWhite.stopped;imageObject.stopped;polygonType.stopped;textInput.stopped;keyResp.stopped;textboxPause.started;keyPause.started;keyPause.rt;textboxGoodbye.started;textboxGoodbye.stopped;participant;session;date;expName;psychopyVersion;frameRate;Column2
;;;;;;;;;;;;;;;;;;;;;8.804558800067753;11.298677700106055;11.298677700106055;11.298677700106055;11.298677700106055;space;13.341738099697977;;;;;;;;;;;;;;;;;;;;;;;;;;;;;;;;;;;;;;;;;;;;390104;001;2023-12-13_14h44.55.977;REPSWITCH1_version1_list4;2022.2.4;144.02809067471338;
;;;;;;;;;;;;;;;;;;;;;;;;;;;;24.65462819999084;24.65462819999084;24.65462819999084;24.65462819999084;24.65462819999084;24.65462819999084;24.65462819999084;24.65462819999084;24.65462819999084;24.65462819999084;24.65462819999084;24.65462819999084;24.65462819999084;space;3.80243210028857;;;;;;;;;;;;;;;;;;;;;;;;;;;;;390104;001;2023-12-13_14h44.55.977;REPSWITCH1_version1_list4;2022.2.4;144.02809067471338;
REPSWITCH1/PICTURE_8.png;pierna;type;darkblue;filler;1;F;1;4;4;1;Stim3_Set4;0;None;1;0;1;0;0;0;0;;;;;;;;;;;;;;;;;;;;;;;28.550951400306076;29.62066590040922;29.62066590040922;29.62066590040922;29.62066590040922;29.62066590040922;29.62066590040922;29.62066590040922;29.62066590040922;['p', 'i', 'e', 'r', 'n', 'a'];0;[0.9705564002506435, 1.0578847001306713, 1.1748995003290474, 1.2364894999191165, 1.3242017002776265, 1.4330716002732515];pierna;C:\2023\REPSWITCH21092023\REPSWITCH_excgange\REPSWITCH_excgange\data/390104_REPSWITCH1_version1_list4_2023-12-13_14h44.55.977_micRespv1l4_recorded\recording_micRespv1l4_2023-12-13_14h45.21.665.wav;32.6417616000399;33.14181510033086;None;;;;;;;;;;;;390104;001;2023-12-13_14h44.55.977;REPSWITCH1_version1_list4;2022.2.4;144.02809067471338;
REPSWITCH1/PICTURE_498.png;taza;speak;gold;filler;2;F;1;4;4;1;Stim4_Set4;0;None;2;1;2;0;1;1;1;;;;;;;;;;;;;;;;;;;;;;;33.14181510033086;34.25308750011027;34.25308750011027;34.25308750011027;34.25308750011027;34.25308750011027;34.25308750011027;34.25308750011027;34.25308750011027;None;0;;;C:\2023\REPSWITCH21092023\REPSWITCH_excgange\REPSWITCH_excgange\data/390104_REPSWITCH1_version1_list4_2023-12-13_14h44.55.977_micRespv1l4_recorded\recording_micRespv1l4_2023-12-13_14h45.26.302.wav;37.27433740021661;37.77440740028396;None;37.27433740021661;37.27433740021661;37.27433740021661;37.27433740021661;37.27433740021661;37.27433740021661;;;;;;390104;001;2023-12-13_14h44.55.977;REPSWITCH1_version1_list4;2022.2.4;144.02809067471338;
REPSWITCH1/PICTURE_19.png;pavo;speak;gold;nontarget;2;NT;1;4;4;1;Stim5_Set1;1;repeat;3;2;3;0;2;2;2;;;;;;;;;;;;;;;;;;;;;;;37.77440740028396;38.809259000234306;38.809259000234306;38.809259000234306;38.809259000234306;38.809259000234306;38.809259000234306;38.809259000234306;38.809259000234306;None;0;;;C:\2023\REPSWITCH21092023\REPSWITCH_excgange\REPSWITCH_excgange\data/390104_REPSWITCH1_version1_list4_2023-12-13_14h44.55.977_micRespv1l4_recorded\recording_micRespv1l4_2023-12-13_14h45.30.859.wav;41.83743690000847;;None;41.83743690000847;41.83743690000847;41.83743690000847;41.83743690000847;41.83743690000847;41.83743690000847;;;;;;390104;001;2023-12-13_14h44.55.977;REPSWITCH1_version1_list4;2022.2.4;144.02809067471338;
REPSWITCH1/PICTURE_19.png;pavo;speak;gold;repeat;2;T;1;4;4;1;Stim5_Set1;0;None;4;3;4;0;3;3;3;;;;;;;;;;;;;;;;;;;;;;;42.33750000037253;43.427979100029916;43.427979100029916;43.427979100029916;43.427979100029916;43.427979100029916;43.427979100029916;43.427979100029916;43.427979100029916;None;0;;;C:\2023\REPSWITCH21092023\REPSWITCH_excgange\REPSWITCH_excgange\data/390104_REPSWITCH1_version1_list4_2023-12-13_14h44.55.977_micRespv1l4_recorded\recording_micRespv1l4_2023-12-13_14h45.35.477.wav;46.45609670039266;;None;46.45609670039266;46.45609670039266;46.45609670039266;46.45609670039266;46.45609670039266;46.45609670039266;;;;;;390104;001;2023-12-13_14h44.55.977;REPSWITCH1_version1_list4;2022.2.4;144.02809067471338;
REPSWITCH1/PICTURE_319.png;vaca;type;darkblue;filler;1;F;1;4;4;1;Stim1_Set4;1;repeat;5;4;5;0;4;4;4;;;;;;;;;;;;;;;;;;;;;;;46.95616800012067;48.060550400055945;48.060550400055945;48.060550400055945;48.060550400055945;48.060550400055945;48.060550400055945;48.060550400055945;48.060550400055945;['v', 'a', 'c', 'a'];0;[0.9617336997762322, 1.0045889997854829, 1.2786292997188866, 1.5581406001001596];vaca;C:\2023\REPSWITCH21092023\REPSWITCH_excgange\REPSWITCH_excgange\data/390104_REPSWITCH1_version1_list4_2023-12-13_14h44.55.977_micRespv1l4_recorded\recording_micRespv1l4_2023-12-13_14h45.40.109.wav;51.08166360016912;51.58174390019849;None;51.08166360016912;51.08166360016912;51.08166360016912;51.08166360016912;51.08166360016912;51.08166360016912;;;;;;390104;001;2023-12-13_14h44.55.977;REPSWITCH1_version1_list4;2022.2.4;144.02809067471338;
REPSWITCH1/PICTURE_169.png;espalda;speak;gold;nontarget;2;NT;1;4;4;1;Stim8_Set1;1;switch;6;5;6;0;5;5;5;;;;;;;;;;;;;;;;;;;;;;;51.58174390019849;52.67220290005207;52.67220290005207;52.67220290005207;52.67220290005207;52.67220290005207;52.67220290005207;52.67220290005207;52.67220290005207;None;0;;;C:\2023\REPSWITCH21092023\REPSWITCH_excgange\REPSWITCH_excgange\data/390104_REPSWITCH1_version1_list4_2023-12-13_14h44.55.977_micRespv1l4_recorded\recording_micRespv1l4_2023-12-13_14h45.44.721.wav;55.700344200246036;;None;55.700344200246036;55.700344200246036;55.700344200246036;55.700344200246036;55.700344200246036;55.700344200246036;;;;;;390104;001;2023-12-13_14h44.55.977;REPSWITCH1_version1_list4;2022.2.4;144.02809067471338;
REPSWITCH1/PICTURE_169.png;espalda;speak;gold;repeat;2;T;1;4;4;1;Stim8_Set1;0;None;7;6;7;0;6;6;6;;;;;;;;;;;;;;;;;;;;;;;56.20042630005628;57.30472670029849;57.30472670029849;57.30472670029849;57.30472670029849;57.30472670029849;57.30472670029849;57.30472670029849;57.30472670029849;None;0;;;C:\2023\REPSWITCH21092023\REPSWITCH_excgange\REPSWITCH_excgange\data/390104_REPSWITCH1_version1_list4_2023-12-13_14h44.55.977_micRespv1l4_recorded\recording_micRespv1l4_2023-12-13_14h45.49.354.wav;60.32595650013536;60.82606890005991;None;60.32595650013536;60.32595650013536;60.32595650013536;60.32595650013536;60.32595650013536;60.32595650013536;;;;;;390104;001;2023-12-13_14h44.55.977;REPSWITCH1_version1_list4;2022.2.4;144.02809067471338;
REPSWITCH1/PICTURE_728.png;pulpo;type;darkblue;filler;1;F;1;4;4;1;Stim8_Set4;0;None;8;7;8;0;7;7;7;;;;;;;;;;;;;;;;;;;;;;;60.82606890005991;61.84005440026522;61.84005440026522;61.84005440026522;61.84005440026522;61.84005440026522;61.84005440026522;61.84005440026522;61.84005440026522;['p', 'u', 'l', 'p', 'o'];0;[0.8184535000473261, 0.9131135996431112, 1.1666713999584317, 1.3630689997226, 1.4332164996303618];pulpo;C:\2023\REPSWITCH21092023\REPSWITCH_excgange\REPSWITCH_excgange\data/390104_REPSWITCH1_version1_list4_2023-12-13_14h44.55.977_micRespv1l4_recorded\recording_micRespv1l4_2023-12-13_14h45.53.888.wav;64.86128730000928;65.36135350028053;None;64.86128730000928;64.86128730000928;64.86128730000928;64.86128730000928;64.86128730000928;64.86128730000928;;;;;;390104;001;2023-12-13_14h44.55.977;REPSWITCH1_version1_list4;2022.2.4;144.02809067471338;
REPSWITCH1/PICTURE_142.png;vaso;speak;gold;nontarget;2;NT;1;4;4;1;Stim7_Set1;1;switch;9;8;9;0;8;8;8;;;;;;;;;;;;;;;;;;;;;;;65.36135350028053;66.39621270028874;66.39621270028874;66.39621270028874;66.39621270028874;66.39621270028874;66.39621270028874;66.39621270028874;66.39621270028874;None;0;;;C:\2023\REPSWITCH21092023\REPSWITCH_excgange\REPSWITCH_excgange\data/390104_REPSWITCH1_version1_list4_2023-12-13_14h44.55.977_micRespv1l4_recorded\recording_micRespv1l4_2023-12-13_14h45.58.446.wav;69.42439729999751;;None;69.42439729999751;69.42439729999751;69.42439729999751;69.42439729999751;69.42439729999751;69.42439729999751;;;;;;390104;001;2023-12-13_14h44.55.977;REPSWITCH1_version1_list4;2022.2.4;144.02809067471338;
REPSWITCH1/PICTURE_142.png;vaso;type;darkblue;switch;1;T;1;4;4;1;Stim7_Set1;0;None;10;9;10;0;9;9;9;;;;;;;;;;;;;;;;;;;;;;;69.92445120029151;71.02874330012128;71.02874330012128;71.02874330012128;71.02874330012128;71.02874330012128;71.02874330012128;71.02874330012128;71.02874330012128;['v', 'a', 's', 'o'];0;[0.6818099999800324, 0.7944299001246691, 0.8952436000108719, 1.0619513001292944];vaso;C:\2023\REPSWITCH21092023\REPSWITCH_excgange\REPSWITCH_excgange\data/390104_REPSWITCH1_version1_list4_2023-12-13_14h44.55.977_micRespv1l4_recorded\recording_micRespv1l4_2023-12-13_14h46.03.078.wav;74.04998910007998;74.55005590012297;None;74.04998910007998;74.04998910007998;74.04998910007998;74.04998910007998;74.04998910007998;74.04998910007998;;;;;;390104;001;2023-12-13_14h44.55.977;REPSWITCH1_version1_list4;2022.2.4;144.02809067471338;
REPSWITCH1/PICTURE_338.png;regalo;type;darkblue;filler;1;F;1;4;4;1;Stim6_Set4;1;repeat;11;10;11;0;10;10;10;;;;;;;;;;;;;;;;;;;;;;;74.55005590012297;75.70990560017526;75.70990560017526;75.70990560017526;75.70990560017526;75.70990560017526;75.70990560017526;75.70990560017526;75.70990560017526;['r', 'e', 'g', 'a', 'o', 'backspace', 'l', 'o'];0;[0.6624440001323819, 0.7613297998905182, 0.9032188998535275, 0.9530889997258782, 1.1976107996888459, 1.6874025999568403, 1.9106568996794522, 2.0531115997582674];regalo;C:\2023\REPSWITCH21092023\REPSWITCH_excgange\REPSWITCH_excgange\data/390104_REPSWITCH1_version1_list4_2023-12-13_14h44.55.977_micRespv1l4_recorded\recording_micRespv1l4_2023-12-13_14h46.07.759.wav;78.73112920019776;79.23123400006443;None;78.73112920019776;78.73112920019776;78.73112920019776;78.73112920019776;78.73112920019776;78.73112920019776;;;;;;390104;001;2023-12-13_14h44.55.977;REPSWITCH1_version1_list4;2022.2.4;144.02809067471338;
REPSWITCH1/PICTURE_135.png;traje;type;darkblue;nontarget;1;NT;1;4;4;1;Stim3_Set1;1;repeat;12;11;12;0;11;11;11;;;;;;;;;;;;;;;;;;;;;;;79.23123400006443;80.29384880000725;80.29384880000725;80.29384880000725;80.29384880000725;80.29384880000725;80.29384880000725;80.29384880000725;80.29384880000725;['t', 'r', 'a', 'e', 'backspace', 'j', 'e'];0;[0.661975999828428, 0.8639647997915745, 0.8898403998464346, 1.0889170998707414, 1.6831859997473657, 1.9146965998224914, 2.02284299954772];traje;C:\2023\REPSWITCH21092023\REPSWITCH_excgange\REPSWITCH_excgange\data/390104_REPSWITCH1_version1_list4_2023-12-13_14h44.55.977_micRespv1l4_recorded\recording_micRespv1l4_2023-12-13_14h46.12.343.wav;83.3150720000267;83.81514200009406;None;83.3150720000267;83.3150720000267;83.3150720000267;83.3150720000267;83.3150720000267;83.3150720000267;;;;;;390104;001;2023-12-13_14h44.55.977;REPSWITCH1_version1_list4;2022.2.4;144.02809067471338;
REPSWITCH1/PICTURE_135.png;traje;speak;gold;switch;2;T;1;4;4;1;Stim3_Set1;0;None;13;12;13;0;12;12;12;;;;;;;;;;;;;;;;;;;;;;;83.81514200009406;84.87777330027893;84.87777330027893;84.87777330027893;84.87777330027893;84.87777330027893;84.87777330027893;84.87777330027893;84.87777330027893;None;0;;;C:\2023\REPSWITCH21092023\REPSWITCH_excgange\REPSWITCH_excgange\data/390104_REPSWITCH1_version1_list4_2023-12-13_14h44.55.977_micRespv1l4_recorded\recording_micRespv1l4_2023-12-13_14h46.16.927.wav;87.89905930031091;88.39909300021827;None;87.89905930031091;87.89905930031091;87.89905930031091;87.89905930031091;87.89905930031091;87.89905930031091;;;;;;390104;001;2023-12-13_14h44.55.977;REPSWITCH1_version1_list4;2022.2.4;144.02809067471338;
REPSWITCH1/PICTURE_381.png;fresa;speak;gold;nontarget;2;NT;1;4;4;1;Stim2_Set1;1;repeat;14;13;14;0;13;13;13;;;;;;;;;;;;;;;;;;;;;;;88.39909300021827;89.51035340037197;89.51035340037197;89.51035340037197;89.51035340037197;89.51035340037197;89.51035340037197;89.51035340037197;89.51035340037197;None;0;;;C:\2023\REPSWITCH21092023\REPSWITCH_excgange\REPSWITCH_excgange\data/390104_REPSWITCH1_version1_list4_2023-12-13_14h44.55.977_micRespv1l4_recorded\recording_micRespv1l4_2023-12-13_14h46.21.560.wav;92.53853330016136;;None;92.53853330016136;92.53853330016136;92.53853330016136;92.53853330016136;92.53853330016136;92.53853330016136;;;;;;390104;001;2023-12-13_14h44.55.977;REPSWITCH1_version1_list4;2022.2.4;144.02809067471338;
REPSWITCH1/PICTURE_381.png;fresa;type;darkblue;switch;1;T;1;4;4;1;Stim2_Set1;0;None;15;14;15;0;14;14;14;;;;;;;;;;;;;;;;;;;;;;;93.03858900023624;94.11520810006186;94.11520810006186;94.11520810006186;94.11520810006186;94.11520810006186;94.11520810006186;94.11520810006186;94.11520810006186;['f', 'r', 'e', 's', 'a'];0;[0.6194402994588017, 0.8249409995041788, 0.8996476996690035, 0.9857470998540521, 1.0454850997775793];fresa;C:\2023\REPSWITCH21092023\REPSWITCH_excgange\REPSWITCH_excgange\data/390104_REPSWITCH1_version1_list4_2023-12-13_14h44.55.977_micRespv1l4_recorded\recording_micRespv1l4_2023-12-13_14h46.26.164.wav;97.13635020004585;97.63647920032963;None;97.13635020004585;97.13635020004585;97.13635020004585;97.13635020004585;97.13635020004585;97.13635020004585;;;;;;390104;001;2023-12-13_14h44.55.977;REPSWITCH1_version1_list4;2022.2.4;144.02809067471338;
REPSWITCH1/PICTURE_48.png;bombero;type;darkblue;filler;1;F;1;4;4;1;Stim7_Set4;0;None;16;15;16;0;15;15;15;;;;;;;;;;;;;;;;;;;;;;;97.63647920032963;98.6782358000055;98.6782358000055;98.6782358000055;98.6782358000055;98.6782358000055;98.6782358000055;98.6782358000055;98.6782358000055;['b', 'o', 'm', 'b', 'e', 'r', 'o'];0;[0.7954025999642909, 0.9026283998973668, 1.000410699751228, 1.1372756999917328, 1.3648179997690022, 1.397768700029701, 1.4874521000310779];bombero;C:\2023\REPSWITCH21092023\REPSWITCH_excgange\REPSWITCH_excgange\data/390104_REPSWITCH1_version1_list4_2023-12-13_14h44.55.977_micRespv1l4_recorded\recording_micRespv1l4_2023-12-13_14h46.30.727.wav;101.69944400014356;102.19957699999213;None;101.69944400014356;101.69944400014356;101.69944400014356;101.69944400014356;101.69944400014356;101.69944400014356;;;;;;390104;001;2023-12-13_14h44.55.977;REPSWITCH1_version1_list4;2022.2.4;144.02809067471338;
REPSWITCH1/PICTURE_687.png;camisa;speak;gold;filler;2;F;1;4;4;1;Stim5_Set4;0;None;17;16;17;0;16;16;16;;;;;;;;;;;;;;;;;;;;;;;102.19957699999213;103.25527130020782;103.25527130020782;103.25527130020782;103.25527130020782;103.25527130020782;103.25527130020782;103.25527130020782;103.25527130020782;None;0;;;C:\2023\REPSWITCH21092023\REPSWITCH_excgange\REPSWITCH_excgange\data/390104_REPSWITCH1_version1_list4_2023-12-13_14h44.55.977_micRespv1l4_recorded\recording_micRespv1l4_2023-12-13_14h46.35.304.wav;106.28337220009416;;None;106.28337220009416;106.28337220009416;106.28337220009416;106.28337220009416;106.28337220009416;106.28337220009416;;;;;;390104;001;2023-12-13_14h44.55.977;REPSWITCH1_version1_list4;2022.2.4;144.02809067471338;
REPSWITCH1/PICTURE_128.png;muñeca;type;darkblue;nontarget;1;NT;1;4;4;1;Stim4_Set1;0;None;18;17;18;0;17;17;17;;;;;;;;;;;;;;;;;;;;;;;106.78344160038978;107.86693650018424;107.86693650018424;107.86693650018424;107.86693650018424;107.86693650018424;107.86693650018424;107.86693650018424;107.86693650018424;['m', 'u', 'ñ', 'e', 'c', 'a'];0;[0.6930768000893295, 0.8727671001106501, 1.0482077999040484, 1.2624830999411643, 1.4484190000221133, 1.4876429997384548];muñeca;C:\2023\REPSWITCH21092023\REPSWITCH_excgange\REPSWITCH_excgange\data/390104_REPSWITCH1_version1_list4_2023-12-13_14h44.55.977_micRespv1l4_recorded\recording_micRespv1l4_2023-12-13_14h46.39.915.wav;110.88815090013668;111.38823130028322;None;110.88815090013668;110.88815090013668;110.88815090013668;110.88815090013668;110.88815090013668;110.88815090013668;;;;;;390104;001;2023-12-13_14h44.55.977;REPSWITCH1_version1_list4;2022.2.4;144.02809067471338;
REPSWITCH1/PICTURE_128.png;muñeca;type;darkblue;repeat;1;T;1;4;4;1;Stim4_Set1;0;None;19;18;19;0;18;18;18;;;;;;;;;;;;;;;;;;;;;;;111.38823130028322;112.44392750039697;112.44392750039697;112.44392750039697;112.44392750039697;112.44392750039697;112.44392750039697;112.44392750039697;112.44392750039697;['m', 'u', 'ñ', 'c', 'backspace', 'e', 'c', 'a'];0;[0.8131508999504149, 1.0046760998666286, 1.1966535998508334, 1.5225593000650406, 1.894741399679333, 1.987920300103724, 2.145387999713421, 2.201202199794352];muñeca;C:\2023\REPSWITCH21092023\REPSWITCH_excgange\REPSWITCH_excgange\data/390104_REPSWITCH1_version1_list4_2023-12-13_14h44.55.977_micRespv1l4_recorded\recording_micRespv1l4_2023-12-13_14h46.44.494.wav;115.47208550013602;;None;115.47208550013602;115.47208550013602;115.47208550013602;115.47208550013602;115.47208550013602;115.47208550013602;;;;;;390104;001;2023-12-13_14h44.55.977;REPSWITCH1_version1_list4;2022.2.4;144.02809067471338;
REPSWITCH1/PICTURE_719.png;baño;speak;gold;filler;2;F;1;4;4;1;Stim2_Set4;1;switch;20;19;20;0;19;19;19;;;;;;;;;;;;;;;;;;;;;;;115.97216180013493;117.06262690015137;117.06262690015137;117.06262690015137;117.06262690015137;117.06262690015137;117.06262690015137;117.06262690015137;117.06262690015137;None;0;;;C:\2023\REPSWITCH21092023\REPSWITCH_excgange\REPSWITCH_excgange\data/390104_REPSWITCH1_version1_list4_2023-12-13_14h44.55.977_micRespv1l4_recorded\recording_micRespv1l4_2023-12-13_14h46.49.112.wav;120.09071950009093;;None;120.09071950009093;120.09071950009093;120.09071950009093;120.09071950009093;120.09071950009093;120.09071950009093;;;;;;390104;001;2023-12-13_14h44.55.977;REPSWITCH1_version1_list4;2022.2.4;144.02809067471338;
REPSWITCH1/PICTURE_178.png;puente;type;darkblue;nontarget;1;NT;1;4;4;1;Stim1_Set1;1;switch;21;20;21;0;20;20;20;;;;;;;;;;;;;;;;;;;;;;;120.59077990008518;121.68821700010449;121.68821700010449;121.68821700010449;121.68821700010449;121.68821700010449;121.68821700010449;121.68821700010449;121.68821700010449;['p', 'u', 'e', 'n', 't', 'a', 'backspace', 'e'];0;[1.0213918001390994, 1.1057933000847697, 1.2520416998304427, 1.3377434997819364, 1.4627366000786424, 1.5185577999800444, 2.031832200009376, 2.0946959001012146];puente;C:\2023\REPSWITCH21092023\REPSWITCH_excgange\REPSWITCH_excgange\data/390104_REPSWITCH1_version1_list4_2023-12-13_14h44.55.977_micRespv1l4_recorded\recording_micRespv1l4_2023-12-13_14h46.53.736.wav;124.7094056000933;125.20952909998596;None;124.7094056000933;124.7094056000933;124.7094056000933;124.7094056000933;124.7094056000933;124.7094056000933;;;;;;390104;001;2023-12-13_14h44.55.977;REPSWITCH1_version1_list4;2022.2.4;144.02809067471338;
REPSWITCH1/PICTURE_178.png;puente;type;darkblue;repeat;1;T;1;4;4;1;Stim1_Set1;0;None;22;21;22;0;21;21;21;;;;;;;;;;;;;;;;;;;;;;;125.20952909998596;126.35547289997339;126.35547289997339;126.35547289997339;126.35547289997339;126.35547289997339;126.35547289997339;126.35547289997339;126.35547289997339;['p', 'u', 'e', 'n', 't', 'e'];0;[0.7495390996336937, 0.873135999776423, 1.089401999488473, 1.1761051998473704, 1.3057378996163607, 1.3429458998143673];puente;C:\2023\REPSWITCH21092023\REPSWITCH_excgange\REPSWITCH_excgange\data/390104_REPSWITCH1_version1_list4_2023-12-13_14h44.55.977_micRespv1l4_recorded\recording_micRespv1l4_2023-12-13_14h46.58.405.wav;129.37664340017363;129.87670860020444;None;129.37664340017363;129.37664340017363;129.37664340017363;129.37664340017363;129.37664340017363;129.37664340017363;;;;;;390104;001;2023-12-13_14h44.55.977;REPSWITCH1_version1_list4;2022.2.4;144.02809067471338;
REPSWITCH1/PICTURE_16.png;cazador;type;darkblue;nontarget;1;NT;1;4;4;1;Stim6_Set1;1;repeat;23;22;23;0;22;22;22;;;;;;;;;;;;;;;;;;;;;;;129.87670860020444;131.0157924001105;131.0157924001105;131.0157924001105;131.0157924001105;131.0157924001105;131.0157924001105;131.0157924001105;131.0157924001105;['c', 'a', 'z', 'a', 'd', 'o', 'r'];0;[0.9281849996186793, 1.0088765998370945, 1.2311627995222807, 1.392993999645114, 1.5176832997240126, 1.6671473998576403, 1.7588466997258365];cazador;C:\2023\REPSWITCH21092023\REPSWITCH_excgange\REPSWITCH_excgange\data/390104_REPSWITCH1_version1_list4_2023-12-13_14h44.55.977_micRespv1l4_recorded\recording_micRespv1l4_2023-12-13_14h47.03.065.wav;134.0370183000341;134.5370634002611;None;134.0370183000341;134.0370183000341;134.0370183000341;134.0370183000341;134.0370183000341;134.0370183000341;;;;;;390104;001;2023-12-13_14h44.55.977;REPSWITCH1_version1_list4;2022.2.4;144.02809067471338;
REPSWITCH1/PICTURE_16.png;cazador;speak;gold;switch;2;T;1;4;4;1;Stim6_Set1;0;None;24;23;24;0;23;23;23;;;;;;;;;;;;;;;;;;;;;;;134.5370634002611;135.68998870020732;135.68998870020732;135.68998870020732;135.68998870020732;135.68998870020732;135.68998870020732;135.68998870020732;135.68998870020732;None;0;;;C:\2023\REPSWITCH21092023\REPSWITCH_excgange\REPSWITCH_excgange\data/390104_REPSWITCH1_version1_list4_2023-12-13_14h44.55.977_micRespv1l4_recorded\recording_micRespv1l4_2023-12-13_14h47.07.740.wav;138.7182310000062;;None;138.7182310000062;138.7182310000062;138.7182310000062;138.7182310000062;138.7182310000062;138.7182310000062;;;;;;390104;001;2023-12-13_14h44.55.977;REPSWITCH1_version1_list4;2022.2.4;144.02809067471338;
REPSWITCH1/PICTURE_19.png;pavo;type;darkblue;filler;1;F;2;4;4;1;Stim5_Set1;0;None;25;24;25;0;24;24;24;;;;;;;;;;;;;;;;;;;;;;;139.2182473000139;140.3920654002577;140.3920654002577;140.3920654002577;140.3920654002577;140.3920654002577;140.3920654002577;140.3920654002577;140.3920654002577;['p', 'a', 'v', 'o'];0;[0.6723211002536118, 0.7581127001903951, 0.8726127999834716, 0.9686719002202153];pavo;C:\2023\REPSWITCH21092023\REPSWITCH_excgange\REPSWITCH_excgange\data/390104_REPSWITCH1_version1_list4_2023-12-13_14h44.55.977_micRespv1l4_recorded\recording_micRespv1l4_2023-12-13_14h47.12.441.wav;143.41322030033916;143.91329690022394;None;143.41322030033916;143.41322030033916;143.41322030033916;143.41322030033916;143.41322030033916;143.41322030033916;;;;;;390104;001;2023-12-13_14h44.55.977;REPSWITCH1_version1_list4;2022.2.4;144.02809067471338;
REPSWITCH1/PICTURE_199.png;falda;type;darkblue;nontarget;1;NT;2;4;4;1;Stim8_Set2;1;repeat;26;25;26;0;25;25;25;;;;;;;;;;;;;;;;;;;;;;;143.91329690022394;145.09407040011138;145.09407040011138;145.09407040011138;145.09407040011138;145.09407040011138;145.09407040011138;145.09407040011138;145.09407040011138;['f', 'a', 'l', 'd', 'a'];0;[0.8054019003175199, 0.8913074000738561, 0.9978650002740324, 1.118564700242132, 1.1494157002307475];falda;C:\2023\REPSWITCH21092023\REPSWITCH_excgange\REPSWITCH_excgange\data/390104_REPSWITCH1_version1_list4_2023-12-13_14h44.55.977_micRespv1l4_recorded\recording_micRespv1l4_2023-12-13_14h47.17.143.wav;148.11523590004072;148.61533540021628;None;148.11523590004072;148.11523590004072;148.11523590004072;148.11523590004072;148.11523590004072;148.11523590004072;;;;;;390104;001;2023-12-13_14h44.55.977;REPSWITCH1_version1_list4;2022.2.4;144.02809067471338;
REPSWITCH1/PICTURE_199.png;falda;type;darkblue;repeat;1;T;2;4;4;1;Stim8_Set2;0;None;27;26;27;0;26;26;26;;;;;;;;;;;;;;;;;;;;;;;148.61533540021628;149.66411290038377;149.66411290038377;149.66411290038377;149.66411290038377;149.66411290038377;149.66411290038377;149.66411290038377;149.66411290038377;['f', 'a', 'l', 'd', 'a'];0;[0.5509200999513268, 0.6426082001999021, 0.7753265998326242, 0.9024682999588549, 0.9792066998779774];falda;C:\2023\REPSWITCH21092023\REPSWITCH_excgange\REPSWITCH_excgange\data/390104_REPSWITCH1_version1_list4_2023-12-13_14h44.55.977_micRespv1l4_recorded\recording_micRespv1l4_2023-12-13_14h47.21.713.wav;152.68529439996928;153.1854238002561;None;152.68529439996928;152.68529439996928;152.68529439996928;152.68529439996928;152.68529439996928;152.68529439996928;;;;;;390104;001;2023-12-13_14h44.55.977;REPSWITCH1_version1_list4;2022.2.4;144.02809067471338;
REPSWITCH1/PICTURE_178.png;puente;speak;gold;filler;2;F;2;4;4;1;Stim1_Set1;1;switch;28;27;28;0;27;27;27;;;;;;;;;;;;;;;;;;;;;;;153.1854238002561;154.31057310011238;154.31057310011238;154.31057310011238;154.31057310011238;154.31057310011238;154.31057310011238;154.31057310011238;154.31057310011238;None;0;;;C:\2023\REPSWITCH21092023\REPSWITCH_excgange\REPSWITCH_excgange\data/390104_REPSWITCH1_version1_list4_2023-12-13_14h44.55.977_micRespv1l4_recorded\recording_micRespv1l4_2023-12-13_14h47.26.360.wav;157.33865600032732;;None;157.33865600032732;157.33865600032732;157.33865600032732;157.33865600032732;157.33865600032732;157.33865600032732;;;;;;390104;001;2023-12-13_14h44.55.977;REPSWITCH1_version1_list4;2022.2.4;144.02809067471338;
REPSWITCH1/PICTURE_517.png;cuerda;type;darkblue;nontarget;1;NT;2;4;4;1;Stim4_Set2;1;switch;29;28;29;0;28;28;28;;;;;;;;;;;;;;;;;;;;;;;157.8387067001313;158.8735919003375;158.8735919003375;158.8735919003375;158.8735919003375;158.8735919003375;158.8735919003375;158.8735919003375;158.8735919003375;['c', 'u', 'e', 'r', 'd', 'a'];0;[0.6872081998735666, 0.7988404999487102, 0.9203229998238385, 0.9880229998379946, 1.151486000046134, 1.2563767996616662];cuerda;C:\2023\REPSWITCH21092023\REPSWITCH_excgange\REPSWITCH_excgange\data/390104_REPSWITCH1_version1_list4_2023-12-13_14h44.55.977_micRespv1l4_recorded\recording_micRespv1l4_2023-12-13_14h47.30.922.wav;161.89488549996167;162.39488540031016;None;161.89488549996167;161.89488549996167;161.89488549996167;161.89488549996167;161.89488549996167;161.89488549996167;;;;;;390104;001;2023-12-13_14h44.55.977;REPSWITCH1_version1_list4;2022.2.4;144.02809067471338;
REPSWITCH1/PICTURE_517.png;cuerda;type;darkblue;repeat;1;T;2;4;4;1;Stim4_Set2;0;None;30;29;30;0;29;29;29;;;;;;;;;;;;;;;;;;;;;;;162.39488540031016;163.47835840005428;163.47835840005428;163.47835840005428;163.47835840005428;163.47835840005428;163.47835840005428;163.47835840005428;163.47835840005428;['c', 'u', 'e', 'r', 'd', 'a'];0;[0.49063329957425594, 0.606921499595046, 0.7425538999959826, 0.7864580997265875, 0.9648134997114539, 1.0332847000099719];cuerda;C:\2023\REPSWITCH21092023\REPSWITCH_excgange\REPSWITCH_excgange\data/390104_REPSWITCH1_version1_list4_2023-12-13_14h44.55.977_micRespv1l4_recorded\recording_micRespv1l4_2023-12-13_14h47.35.528.wav;166.4995804000646;166.99971570027992;None;166.4995804000646;166.4995804000646;166.4995804000646;166.4995804000646;166.4995804000646;166.4995804000646;;;;;;390104;001;2023-12-13_14h44.55.977;REPSWITCH1_version1_list4;2022.2.4;144.02809067471338;
REPSWITCH1/PICTURE_169.png;espalda;type;darkblue;filler;1;F;2;4;4;1;Stim8_Set1;0;None;31;30;31;0;30;30;30;;;;;;;;;;;;;;;;;;;;;;;166.99971570027992;168.10402430035174;168.10402430035174;168.10402430035174;168.10402430035174;168.10402430035174;168.10402430035174;168.10402430035174;168.10402430035174;['e', 's', 'p', 'a', 'l', 'd', 'a'];0;[0.6695971000008285, 0.7562981001101434, 0.8539756997488439, 1.000448300037533, 1.092856700066477, 1.2025485001504421, 1.271524699870497];espalda;C:\2023\REPSWITCH21092023\REPSWITCH_excgange\REPSWITCH_excgange\data/390104_REPSWITCH1_version1_list4_2023-12-13_14h44.55.977_micRespv1l4_recorded\recording_micRespv1l4_2023-12-13_14h47.40.153.wav;171.13215300021693;;None;171.13215300021693;171.13215300021693;171.13215300021693;171.13215300021693;171.13215300021693;171.13215300021693;;;;;;390104;001;2023-12-13_14h44.55.977;REPSWITCH1_version1_list4;2022.2.4;144.02809067471338;
REPSWITCH1/PICTURE_673.png;tenedor;speak;gold;filler;2;F;2;4;4;1;Extra5;0;None;32;31;32;0;31;31;31;;;;;;;;;;;;;;;;;;;;;;;171.63221890013665;172.68792319996282;172.68792319996282;172.68792319996282;172.68792319996282;172.68792319996282;172.68792319996282;172.68792319996282;172.68792319996282;None;0;;;C:\2023\REPSWITCH21092023\REPSWITCH_excgange\REPSWITCH_excgange\data/390104_REPSWITCH1_version1_list4_2023-12-13_14h44.55.977_micRespv1l4_recorded\recording_micRespv1l4_2023-12-13_14h47.44.736.wav;175.70913990028203;176.2092039003037;None;175.70913990028203;175.70913990028203;175.70913990028203;175.70913990028203;175.70913990028203;175.70913990028203;;;;;;390104;001;2023-12-13_14h44.55.977;REPSWITCH1_version1_list4;2022.2.4;144.02809067471338;
REPSWITCH1/PICTURE_142.png;vaso;type;darkblue;filler;1;F;2;4;4;1;Stim7_Set1;1;switch;33;32;33;0;32;32;32;;;;;;;;;;;;;;;;;;;;;;;176.2092039003037;177.36219860007986;177.36219860007986;177.36219860007986;177.36219860007986;177.36219860007986;177.36219860007986;177.36219860007986;177.36219860007986;['v', 'a', 's', 'o'];0;[0.6135906996205449, 0.7102629998698831, 0.7925823996774852, 0.9022651999257505];vaso;C:\2023\REPSWITCH21092023\REPSWITCH_excgange\REPSWITCH_excgange\data/390104_REPSWITCH1_version1_list4_2023-12-13_14h44.55.977_micRespv1l4_recorded\recording_micRespv1l4_2023-12-13_14h47.49.411.wav;180.39030700037256;;None;180.39030700037256;180.39030700037256;180.39030700037256;180.39030700037256;180.39030700037256;180.39030700037256;;;;;;390104;001;2023-12-13_14h44.55.977;REPSWITCH1_version1_list4;2022.2.4;144.02809067471338;
REPSWITCH1/PICTURE_552.png;manzana;type;darkblue;nontarget;1;NT;2;4;4;1;Stim6_Set2;1;repeat;34;33;34;0;33;33;33;;;;;;;;;;;;;;;;;;;;;;;180.89036000007764;181.98078870028257;181.98078870028257;181.98078870028257;181.98078870028257;181.98078870028257;181.98078870028257;181.98078870028257;181.98078870028257;['m', 'a', 'n', 'z', 'a', 'n', 'a'];0;[0.8868331997655332, 1.0762367998249829, 1.1688845995813608, 1.3776804995723069, 1.665098499506712, 1.851641499903053, 1.9154234998859465];manzana;C:\2023\REPSWITCH21092023\REPSWITCH_excgange\REPSWITCH_excgange\data/390104_REPSWITCH1_version1_list4_2023-12-13_14h44.55.977_micRespv1l4_recorded\recording_micRespv1l4_2023-12-13_14h47.54.031.wav;185.00893510039896;185.5090365000069;None;185.00893510039896;185.00893510039896;185.00893510039896;185.00893510039896;185.00893510039896;185.00893510039896;;;;;;390104;001;2023-12-13_14h44.55.977;REPSWITCH1_version1_list4;2022.2.4;144.02809067471338;
REPSWITCH1/PICTURE_552.png;manzana;speak;gold;switch;1;T;2;4;4;1;Stim6_Set2;0;None;35;34;35;0;34;34;34;;;;;;;;;;;;;;;;;;;;;;;185.5090365000069;186.58556050015613;186.58556050015613;186.58556050015613;186.58556050015613;186.58556050015613;186.58556050015613;186.58556050015613;186.58556050015613;None;0;;;C:\2023\REPSWITCH21092023\REPSWITCH_excgange\REPSWITCH_excgange\data/390104_REPSWITCH1_version1_list4_2023-12-13_14h44.55.977_micRespv1l4_recorded\recording_micRespv1l4_2023-12-13_14h47.58.635.wav;189.61370690027252;190.1137769999914;None;189.61370690027252;189.61370690027252;189.61370690027252;189.61370690027252;189.61370690027252;189.61370690027252;;;;;;390104;001;2023-12-13_14h44.55.977;REPSWITCH1_version1_list4;2022.2.4;144.02809067471338;
REPSWITCH1/PICTURE_135.png;traje;speak;gold;filler;2;F;2;4;4;1;Stim3_Set1;0;None;36;35;36;0;35;35;35;;;;;;;;;;;;;;;;;;;;;;;190.1137769999914;191.20420909998938;191.20420909998938;191.20420909998938;191.20420909998938;191.20420909998938;191.20420909998938;191.20420909998938;191.20420909998938;None;0;;;C:\2023\REPSWITCH21092023\REPSWITCH_excgange\REPSWITCH_excgange\data/390104_REPSWITCH1_version1_list4_2023-12-13_14h44.55.977_micRespv1l4_recorded\recording_micRespv1l4_2023-12-13_14h48.03.253.wav;194.2254643002525;194.7255162000656;None;194.2254643002525;194.2254643002525;194.2254643002525;194.2254643002525;194.2254643002525;194.2254643002525;;;;;;390104;001;2023-12-13_14h44.55.977;REPSWITCH1_version1_list4;2022.2.4;144.02809067471338;
REPSWITCH1/PICTURE_152.png;caracol;speak;gold;nontarget;2;NT;2;4;4;1;Stim2_Set2;1;repeat;37;36;37;0;36;36;36;;;;;;;;;;;;;;;;;;;;;;;194.7255162000656;195.809003200382;195.809003200382;195.809003200382;195.809003200382;195.809003200382;195.809003200382;195.809003200382;195.809003200382;None;0;;;C:\2023\REPSWITCH21092023\REPSWITCH_excgange\REPSWITCH_excgange\data/390104_REPSWITCH1_version1_list4_2023-12-13_14h44.55.977_micRespv1l4_recorded\recording_micRespv1l4_2023-12-13_14h48.07.858.wav;198.83019620040432;199.3302766000852;None;198.83019620040432;198.83019620040432;198.83019620040432;198.83019620040432;198.83019620040432;198.83019620040432;;;;;;390104;001;2023-12-13_14h44.55.977;REPSWITCH1_version1_list4;2022.2.4;144.02809067471338;
REPSWITCH1/PICTURE_152.png;caracol;type;darkblue;switch;1;T;2;4;4;1;Stim2_Set2;0;None;38;37;38;0;37;37;37;;;;;;;;;;;;;;;;;;;;;;;199.3302766000852;200.48323650006205;200.48323650006205;200.48323650006205;200.48323650006205;200.48323650006205;200.48323650006205;200.48323650006205;200.48323650006205;['c', 'a', 'r', 'a', 'c', 'o', 'l'];0;[0.6453571999445558, 0.7539367000572383, 0.8887871000915766, 0.9698497001081705, 1.1663045999594033, 1.231088399887085, 1.4015413001179695];caracol;C:\2023\REPSWITCH21092023\REPSWITCH_excgange\REPSWITCH_excgange\data/390104_REPSWITCH1_version1_list4_2023-12-13_14h44.55.977_micRespv1l4_recorded\recording_micRespv1l4_2023-12-13_14h48.12.533.wav;203.50441320007667;204.0045182001777;None;203.50441320007667;203.50441320007667;203.50441320007667;203.50441320007667;203.50441320007667;203.50441320007667;;;;;;390104;001;2023-12-13_14h44.55.977;REPSWITCH1_version1_list4;2022.2.4;144.02809067471338;
REPSWITCH1/PICTURE_381.png;fresa;type;darkblue;filler;1;F;2;4;4;1;Stim2_Set1;0;None;39;38;39;0;38;38;38;;;;;;;;;;;;;;;;;;;;;;;204.0045182001777;205.15048830024898;205.15048830024898;205.15048830024898;205.15048830024898;205.15048830024898;205.15048830024898;205.15048830024898;205.15048830024898;['f', 'r', 'e', 's', 'a'];0;[0.5765559002757072, 0.7782318000681698, 0.8530174000188708, 0.9331744001246989, 0.9976898999884725];fresa;C:\2023\REPSWITCH21092023\REPSWITCH_excgange\REPSWITCH_excgange\data/390104_REPSWITCH1_version1_list4_2023-12-13_14h44.55.977_micRespv1l4_recorded\recording_micRespv1l4_2023-12-13_14h48.17.200.wav;208.17173580033705;208.67176550021395;None;208.17173580033705;208.17173580033705;208.17173580033705;208.17173580033705;208.17173580033705;208.17173580033705;;;;;;390104;001;2023-12-13_14h44.55.977;REPSWITCH1_version1_list4;2022.2.4;144.02809067471338;
REPSWITCH1/PICTURE_446.png;cerdo;type;darkblue;nontarget;1;NT;2;4;4;1;Stim7_Set2;1;repeat;40;39;40;0;39;39;39;;;;;;;;;;;;;;;;;;;;;;;208.67176550021395;209.83861290011555;209.83861290011555;209.83861290011555;209.83861290011555;209.83861290011555;209.83861290011555;209.83861290011555;209.83861290011555;['c', 'e', 'r', 'd', 'o'];0;[0.8820004998706281, 1.0574423000216484, 1.1232082000933588, 1.2818558001890779, 1.380868799984455];cerdo;C:\2023\REPSWITCH21092023\REPSWITCH_excgange\REPSWITCH_excgange\data/390104_REPSWITCH1_version1_list4_2023-12-13_14h44.55.977_micRespv1l4_recorded\recording_micRespv1l4_2023-12-13_14h48.21.888.wav;212.8667560000904;;None;212.8667560000904;212.8667560000904;212.8667560000904;212.8667560000904;212.8667560000904;212.8667560000904;;;;;;390104;001;2023-12-13_14h44.55.977;REPSWITCH1_version1_list4;2022.2.4;144.02809067471338;
REPSWITCH1/PICTURE_446.png;cerdo;speak;gold;switch;2;T;2;4;4;1;Stim7_Set2;0;None;41;40;41;0;40;40;40;;;;;;;;;;;;;;;;;;;;;;;213.36682970030233;214.47812860039994;214.47812860039994;214.47812860039994;214.47812860039994;214.47812860039994;214.47812860039994;214.47812860039994;214.47812860039994;None;0;;;C:\2023\REPSWITCH21092023\REPSWITCH_excgange\REPSWITCH_excgange\data/390104_REPSWITCH1_version1_list4_2023-12-13_14h44.55.977_micRespv1l4_recorded\recording_micRespv1l4_2023-12-13_14h48.26.528.wav;217.5063309003599;;None;217.5063309003599;217.5063309003599;217.5063309003599;217.5063309003599;217.5063309003599;217.5063309003599;;;;;;390104;001;2023-12-13_14h44.55.977;REPSWITCH1_version1_list4;2022.2.4;144.02809067471338;
REPSWITCH1/PICTURE_264.png;mano;speak;gold;nontarget;2;NT;2;4;4;1;Stim3_Set2;0;None;42;41;42;0;41;41;41;;;;;;;;;;;;;;;;;;;;;;;218.00634600035846;219.19408030016348;219.19408030016348;219.19408030016348;219.19408030016348;219.19408030016348;219.19408030016348;219.19408030016348;219.19408030016348;None;0;;;C:\2023\REPSWITCH21092023\REPSWITCH_excgange\REPSWITCH_excgange\data/390104_REPSWITCH1_version1_list4_2023-12-13_14h44.55.977_micRespv1l4_recorded\recording_micRespv1l4_2023-12-13_14h48.31.243.wav;222.21523710014299;222.7152865002863;None;222.21523710014299;222.21523710014299;222.21523710014299;222.21523710014299;222.21523710014299;222.21523710014299;;;;;;390104;001;2023-12-13_14h44.55.977;REPSWITCH1_version1_list4;2022.2.4;144.02809067471338;
REPSWITCH1/PICTURE_264.png;mano;speak;gold;repeat;2;T;2;4;4;1;Stim3_Set2;0;None;43;42;43;0;42;42;42;;;;;;;;;;;;;;;;;;;;;;;222.7152865002863;223.79181209998205;223.79181209998205;223.79181209998205;223.79181209998205;223.79181209998205;223.79181209998205;223.79181209998205;223.79181209998205;None;0;;;C:\2023\REPSWITCH21092023\REPSWITCH_excgange\REPSWITCH_excgange\data/390104_REPSWITCH1_version1_list4_2023-12-13_14h44.55.977_micRespv1l4_recorded\recording_micRespv1l4_2023-12-13_14h48.35.840.wav;226.8130242000334;227.3131107003428;None;226.8130242000334;226.8130242000334;226.8130242000334;226.8130242000334;226.8130242000334;226.8130242000334;;;;;;390104;001;2023-12-13_14h44.55.977;REPSWITCH1_version1_list4;2022.2.4;144.02809067471338;
REPSWITCH1/PICTURE_128.png;muñeca;type;darkblue;filler;1;F;2;4;4;1;Stim4_Set1;0;None;44;43;44;0;43;43;43;;;;;;;;;;;;;;;;;;;;;;;227.3131107003428;228.46608870010823;228.46608870010823;228.46608870010823;228.46608870010823;228.46608870010823;228.46608870010823;228.46608870010823;228.46608870010823;['m', 'u', 'ñ', 'e', 'c', 'a'];0;[0.6830778997391462, 0.8753938996233046, 1.2887386996299028, 1.4323223996907473, 1.6462431997060776, 1.6871066996827722];muñeca;C:\2023\REPSWITCH21092023\REPSWITCH_excgange\REPSWITCH_excgange\data/390104_REPSWITCH1_version1_list4_2023-12-13_14h44.55.977_micRespv1l4_recorded\recording_micRespv1l4_2023-12-13_14h48.40.514.wav;231.4942225003615;;None;231.4942225003615;231.4942225003615;231.4942225003615;231.4942225003615;231.4942225003615;231.4942225003615;;;;;;390104;001;2023-12-13_14h44.55.977;REPSWITCH1_version1_list4;2022.2.4;144.02809067471338;
REPSWITCH1/PICTURE_30.png;granja;speak;gold;nontarget;2;NT;2;4;4;1;Stim5_Set2;1;switch;45;44;45;0;44;44;44;;;;;;;;;;;;;;;;;;;;;;;231.99429510021582;233.1194222001359;233.1194222001359;233.1194222001359;233.1194222001359;233.1194222001359;233.1194222001359;233.1194222001359;233.1194222001359;None;0;;;C:\2023\REPSWITCH21092023\REPSWITCH_excgange\REPSWITCH_excgange\data/390104_REPSWITCH1_version1_list4_2023-12-13_14h44.55.977_micRespv1l4_recorded\recording_micRespv1l4_2023-12-13_14h48.45.170.wav;236.14766700007021;236.64766140002757;None;236.14766700007021;236.14766700007021;236.14766700007021;236.14766700007021;236.14766700007021;236.14766700007021;;;;;;390104;001;2023-12-13_14h44.55.977;REPSWITCH1_version1_list4;2022.2.4;144.02809067471338;
REPSWITCH1/PICTURE_30.png;granja;speak;gold;repeat;2;T;2;4;4;1;Stim5_Set2;0;None;46;45;46;0;45;45;45;;;;;;;;;;;;;;;;;;;;;;;236.64766140002757;237.75895610032603;237.75895610032603;237.75895610032603;237.75895610032603;237.75895610032603;237.75895610032603;237.75895610032603;237.75895610032603;None;0;;;C:\2023\REPSWITCH21092023\REPSWITCH_excgange\REPSWITCH_excgange\data/390104_REPSWITCH1_version1_list4_2023-12-13_14h44.55.977_micRespv1l4_recorded\recording_micRespv1l4_2023-12-13_14h48.49.809.wav;240.78711860021576;;None;240.78711860021576;240.78711860021576;240.78711860021576;240.78711860021576;240.78711860021576;240.78711860021576;;;;;;390104;001;2023-12-13_14h44.55.977;REPSWITCH1_version1_list4;2022.2.4;144.02809067471338;
REPSWITCH1/PICTURE_646.png;tronco;type;darkblue;filler;1;F;2;4;4;1;Extra4;0;None;47;46;47;0;46;46;46;;;;;;;;;;;;;;;;;;;;;;;241.28717990033329;242.41236630035564;242.41236630035564;242.41236630035564;242.41236630035564;242.41236630035564;242.41236630035564;242.41236630035564;242.41236630035564;['t', 'r', 'o', 'n', 'c', 'o'];0;[0.6661245999857783, 0.8587736999616027, 0.954418099950999, 1.0231877001933753, 1.1129260999150574, 1.2444815998896956];tronco;C:\2023\REPSWITCH21092023\REPSWITCH_excgange\REPSWITCH_excgange\data/390104_REPSWITCH1_version1_list4_2023-12-13_14h44.55.977_micRespv1l4_recorded\recording_micRespv1l4_2023-12-13_14h48.54.461.wav;245.4335680003278;245.93361530033872;None;245.4335680003278;245.4335680003278;245.4335680003278;245.4335680003278;245.4335680003278;245.4335680003278;;;;;;390104;001;2023-12-13_14h44.55.977;REPSWITCH1_version1_list4;2022.2.4;144.02809067471338;
REPSWITCH1/PICTURE_16.png;cazador;speak;gold;filler;2;F;2;4;4;1;Stim6_Set1;0;None;48;47;48;0;47;47;47;;;;;;;;;;;;;;;;;;;;;;;245.93361530033872;247.01708060037345;247.01708060037345;247.01708060037345;247.01708060037345;247.01708060037345;247.01708060037345;247.01708060037345;247.01708060037345;None;0;;;C:\2023\REPSWITCH21092023\REPSWITCH_excgange\REPSWITCH_excgange\data/390104_REPSWITCH1_version1_list4_2023-12-13_14h44.55.977_micRespv1l4_recorded\recording_micRespv1l4_2023-12-13_14h48.59.066.wav;250.03839830029756;250.53837990015745;None;250.03839830029756;250.03839830029756;250.03839830029756;250.03839830029756;250.03839830029756;250.03839830029756;;;;;;390104;001;2023-12-13_14h44.55.977;REPSWITCH1_version1_list4;2022.2.4;144.02809067471338;
REPSWITCH1/PICTURE_175.png;pintor;speak;gold;nontarget;2;NT;2;4;4;1;Stim1_Set2;1;repeat;49;48;49;0;48;48;48;;;;;;;;;;;;;;;;;;;;;;;250.53837990015745;251.67048720037565;251.67048720037565;251.67048720037565;251.67048720037565;251.67048720037565;251.67048720037565;251.67048720037565;251.67048720037565;None;0;;;C:\2023\REPSWITCH21092023\REPSWITCH_excgange\REPSWITCH_excgange\data/390104_REPSWITCH1_version1_list4_2023-12-13_14h44.55.977_micRespv1l4_recorded\recording_micRespv1l4_2023-12-13_14h49.03.719.wav;254.69167970027775;255.19182220008224;None;254.69167970027775;254.69167970027775;254.69167970027775;254.69167970027775;254.69167970027775;254.69167970027775;;;;;;390104;001;2023-12-13_14h44.55.977;REPSWITCH1_version1_list4;2022.2.4;144.02809067471338;
REPSWITCH1/PICTURE_175.png;pintor;type;darkblue;switch;1;T;2;4;4;1;Stim1_Set2;0;None;50;49;50;0;49;49;49;;;;;;;;;;;;;;;;;;;;;;;255.19182220008224;256.282268000301;256.282268000301;256.282268000301;256.282268000301;256.282268000301;256.282268000301;256.282268000301;256.282268000301;['p', 'i', 'n', 't', 'o', 'r'];0;[0.6842125002294779, 0.8183512999676168, 0.9747699000872672, 1.200365100055933, 1.3478427999652922, 1.4285606001503766];pintor;C:\2023\REPSWITCH21092023\REPSWITCH_excgange\REPSWITCH_excgange\data/390104_REPSWITCH1_version1_list4_2023-12-13_14h44.55.977_micRespv1l4_recorded\recording_micRespv1l4_2023-12-13_14h49.08.331.wav;259.3034491003491;259.8035003002733;None;259.3034491003491;259.3034491003491;259.3034491003491;259.3034491003491;259.3034491003491;259.3034491003491;;;;;;390104;001;2023-12-13_14h44.55.977;REPSWITCH1_version1_list4;2022.2.4;144.02809067471338;
REPSWITCH1/PICTURE_663.png;columna;speak;gold;filler;2;F;4;4;4;1;Extra6;0;None;51;50;51;0;50;50;50;;;;;;;;;;;;;;;;;;;;;;;259.8035003002733;260.9008721001446;260.9008721001446;260.9008721001446;260.9008721001446;260.9008721001446;260.9008721001446;260.9008721001446;260.9008721001446;None;0;;;C:\2023\REPSWITCH21092023\REPSWITCH_excgange\REPSWITCH_excgange\data/390104_REPSWITCH1_version1_list4_2023-12-13_14h44.55.977_micRespv1l4_recorded\recording_micRespv1l4_2023-12-13_14h49.12.950.wav;263.9291084003635;;space;263.9291084003635;263.9291084003635;263.9291084003635;263.9291084003635;263.9291084003635;263.9291084003635;264.4291082001291;264.4291082001291;8.283594499807805;;;390104;001;2023-12-13_14h44.55.977;REPSWITCH1_version1_list4;2022.2.4;144.02809067471338;
REPSWITCH1/PICTURE_35.png;oreja;type;darkblue;nontarget;1;NT;3;4;4;1;Stim5_Set3;0;None;52;51;52;0;51;51;51;;;;;;;;;;;;;;;;;;;;;;;272.7219165000133;273.812295100186;273.812295100186;273.812295100186;273.812295100186;273.812295100186;273.812295100186;273.812295100186;273.812295100186;['o', 'r', 'e', 'j', 'a'];0;[0.9297372996807098, 1.023749299813062, 1.0987793998792768, 1.1415699999779463, 1.2644073995761573];oreja;C:\2023\REPSWITCH21092023\REPSWITCH_excgange\REPSWITCH_excgange\data/390104_REPSWITCH1_version1_list4_2023-12-13_14h44.55.977_micRespv1l4_recorded\recording_micRespv1l4_2023-12-13_14h49.25.862.wav;276.8404618999921;;None;276.8404618999921;276.8404618999921;276.8404618999921;276.8404618999921;276.8404618999921;276.8404618999921;;;;;;390104;001;2023-12-13_14h44.55.977;REPSWITCH1_version1_list4;2022.2.4;144.02809067471338;
REPSWITCH1/PICTURE_35.png;oreja;speak;gold;switch;2;T;3;4;4;1;Stim5_Set3;0;None;53;52;53;0;52;52;52;;;;;;;;;;;;;;;;;;;;;;;277.34058650024235;278.4726011999883;278.4726011999883;278.4726011999883;278.4726011999883;278.4726011999883;278.4726011999883;278.4726011999883;278.4726011999883;None;0;;;C:\2023\REPSWITCH21092023\REPSWITCH_excgange\REPSWITCH_excgange\data/390104_REPSWITCH1_version1_list4_2023-12-13_14h44.55.977_micRespv1l4_recorded\recording_micRespv1l4_2023-12-13_14h49.30.521.wav;281.4938072003424;281.99390560016036;None;281.4938072003424;281.4938072003424;281.4938072003424;281.4938072003424;281.4938072003424;281.4938072003424;;;;;;390104;001;2023-12-13_14h44.55.977;REPSWITCH1_version1_list4;2022.2.4;144.02809067471338;
REPSWITCH1/PICTURE_199.png;falda;speak;gold;filler;2;F;3;4;4;1;Stim8_Set2;0;None;54;53;54;0;53;53;53;;;;;;;;;;;;;;;;;;;;;;;281.99390560016036;283.0773978000507;283.0773978000507;283.0773978000507;283.0773978000507;283.0773978000507;283.0773978000507;283.0773978000507;283.0773978000507;None;0;;;C:\2023\REPSWITCH21092023\REPSWITCH_excgange\REPSWITCH_excgange\data/390104_REPSWITCH1_version1_list4_2023-12-13_14h44.55.977_micRespv1l4_recorded\recording_micRespv1l4_2023-12-13_14h49.35.127.wav;286.10555850015953;;None;286.10555850015953;286.10555850015953;286.10555850015953;286.10555850015953;286.10555850015953;286.10555850015953;;;;;;390104;001;2023-12-13_14h44.55.977;REPSWITCH1_version1_list4;2022.2.4;144.02809067471338;
REPSWITCH1/PICTURE_576.png;guante;speak;gold;nontarget;2;NT;3;4;4;1;Stim1_Set3;1;repeat;55;54;55;0;54;54;54;;;;;;;;;;;;;;;;;;;;;;;286.60558299999684;287.772425299976;287.772425299976;287.772425299976;287.772425299976;287.772425299976;287.772425299976;287.772425299976;287.772425299976;None;0;;;C:\2023\REPSWITCH21092023\REPSWITCH_excgange\REPSWITCH_excgange\data/390104_REPSWITCH1_version1_list4_2023-12-13_14h44.55.977_micRespv1l4_recorded\recording_micRespv1l4_2023-12-13_14h49.39.822.wav;290.8005904001184;;None;290.8005904001184;290.8005904001184;290.8005904001184;290.8005904001184;290.8005904001184;290.8005904001184;;;;;;390104;001;2023-12-13_14h44.55.977;REPSWITCH1_version1_list4;2022.2.4;144.02809067471338;
REPSWITCH1/PICTURE_576.png;guante;type;darkblue;switch;1;T;3;4;4;1;Stim1_Set3;0;None;56;55;56;0;55;55;55;;;;;;;;;;;;;;;;;;;;;;;291.3007306000218;292.3633253001608;292.3633253001608;292.3633253001608;292.3633253001608;292.3633253001608;292.3633253001608;292.3633253001608;292.3633253001608;['g', 'u', 'a', 'n', 't', 'e'];0;[0.6773506999015808, 0.7988934000022709, 1.1061260998249054, 1.2867709998972714, 1.3724654000252485, 1.4562523998320103];guante;C:\2023\REPSWITCH21092023\REPSWITCH_excgange\REPSWITCH_excgange\data/390104_REPSWITCH1_version1_list4_2023-12-13_14h44.55.977_micRespv1l4_recorded\recording_micRespv1l4_2023-12-13_14h49.44.412.wav;295.384553800337;295.8845940004103;None;295.384553800337;295.384553800337;295.384553800337;295.384553800337;295.384553800337;295.384553800337;;;;;;390104;001;2023-12-13_14h44.55.977;REPSWITCH1_version1_list4;2022.2.4;144.02809067471338;
REPSWITCH1/PICTURE_517.png;cuerda;type;darkblue;filler;1;F;3;4;4;1;Stim4_Set2;1;repeat;57;56;57;0;56;56;56;;;;;;;;;;;;;;;;;;;;;;;295.8845940004103;296.9680886999704;296.9680886999704;296.9680886999704;296.9680886999704;296.9680886999704;296.9680886999704;296.9680886999704;296.9680886999704;['c', 'u', 'e', 'r', 'd', 'a'];0;[0.8387754000723362, 0.9623603001236916, 1.0573696000501513, 1.1156611000187695, 1.287401800043881, 1.3412204002961516];cuerda;C:\2023\REPSWITCH21092023\REPSWITCH_excgange\REPSWITCH_excgange\data/390104_REPSWITCH1_version1_list4_2023-12-13_14h44.55.977_micRespv1l4_recorded\recording_micRespv1l4_2023-12-13_14h49.49.018.wav;299.99626930011436;;None;299.99626930011436;299.99626930011436;299.99626930011436;299.99626930011436;299.99626930011436;299.99626930011436;;;;;;390104;001;2023-12-13_14h44.55.977;REPSWITCH1_version1_list4;2022.2.4;144.02809067471338;
REPSWITCH1/PICTURE_271.png;conejo;type;darkblue;nontarget;1;NT;3;4;4;1;Stim7_Set3;1;repeat;58;57;58;0;57;57;57;;;;;;;;;;;;;;;;;;;;;;;300.49639610014856;301.5590145001188;301.5590145001188;301.5590145001188;301.5590145001188;301.5590145001188;301.5590145001188;301.5590145001188;301.5590145001188;['c', 'o', 'n', 'e', 'j', 'o'];0;[0.8040565997362137, 0.9176422995515168, 0.9716782998293638, 1.1328001995570958, 1.2345707998611033, 1.3272028998471797];conejo;C:\2023\REPSWITCH21092023\REPSWITCH_excgange\REPSWITCH_excgange\data/390104_REPSWITCH1_version1_list4_2023-12-13_14h44.55.977_micRespv1l4_recorded\recording_micRespv1l4_2023-12-13_14h49.53.608.wav;304.580196400173;305.08026800025254;None;304.580196400173;304.580196400173;304.580196400173;304.580196400173;304.580196400173;304.580196400173;;;;;;390104;001;2023-12-13_14h44.55.977;REPSWITCH1_version1_list4;2022.2.4;144.02809067471338;
REPSWITCH1/PICTURE_271.png;conejo;speak;gold;switch;2;T;3;4;4;1;Stim7_Set3;0;None;59;58;59;0;58;58;58;;;;;;;;;;;;;;;;;;;;;;;305.08026800025254;306.108250700403;306.108250700403;306.108250700403;306.108250700403;306.108250700403;306.108250700403;306.108250700403;306.108250700403;None;0;;;C:\2023\REPSWITCH21092023\REPSWITCH_excgange\REPSWITCH_excgange\data/390104_REPSWITCH1_version1_list4_2023-12-13_14h44.55.977_micRespv1l4_recorded\recording_micRespv1l4_2023-12-13_14h49.58.157.wav;309.12938510021195;309.6294721001759;None;309.12938510021195;309.12938510021195;309.12938510021195;309.12938510021195;309.12938510021195;309.12938510021195;;;;;;390104;001;2023-12-13_14h44.55.977;REPSWITCH1_version1_list4;2022.2.4;144.02809067471338;
REPSWITCH1/PICTURE_552.png;manzana;type;darkblue;filler;1;F;3;4;4;1;Stim6_Set2;0;None;60;59;60;0;59;59;59;;;;;;;;;;;;;;;;;;;;;;;309.6294721001759;310.69904120033607;310.69904120033607;310.69904120033607;310.69904120033607;310.69904120033607;310.69904120033607;310.69904120033607;310.69904120033607;['m', 'a', 'n', 'z', 'a', 'n', 'a'];0;[0.7884076000191271, 0.955789600033313, 1.1056870999746025, 1.6627344000153244, 1.838568199891597, 1.9581677997484803, 2.0398828997276723];manzana;C:\2023\REPSWITCH21092023\REPSWITCH_excgange\REPSWITCH_excgange\data/390104_REPSWITCH1_version1_list4_2023-12-13_14h44.55.977_micRespv1l4_recorded\recording_micRespv1l4_2023-12-13_14h50.02.749.wav;313.7272340003401;;None;313.7272340003401;313.7272340003401;313.7272340003401;313.7272340003401;313.7272340003401;313.7272340003401;;;;;;390104;001;2023-12-13_14h44.55.977;REPSWITCH1_version1_list4;2022.2.4;144.02809067471338;
REPSWITCH1/PICTURE_242.png;cartero;speak;gold;nontarget;2;NT;3;4;4;1;Stim3_Set3;1;switch;61;60;61;0;60;60;60;;;;;;;;;;;;;;;;;;;;;;;314.22732050018385;315.2830249001272;315.2830249001272;315.2830249001272;315.2830249001272;315.2830249001272;315.2830249001272;315.2830249001272;315.2830249001272;None;0;;;C:\2023\REPSWITCH21092023\REPSWITCH_excgange\REPSWITCH_excgange\data/390104_REPSWITCH1_version1_list4_2023-12-13_14h44.55.977_micRespv1l4_recorded\recording_micRespv1l4_2023-12-13_14h50.07.332.wav;318.30422609997913;318.80428880034015;None;318.30422609997913;318.30422609997913;318.30422609997913;318.30422609997913;318.30422609997913;318.30422609997913;;;;;;390104;001;2023-12-13_14h44.55.977;REPSWITCH1_version1_list4;2022.2.4;144.02809067471338;
REPSWITCH1/PICTURE_242.png;cartero;speak;gold;repeat;2;T;3;4;4;1;Stim3_Set3;0;None;62;61;62;0;61;61;61;;;;;;;;;;;;;;;;;;;;;;;318.80428880034015;319.853083900176;319.853083900176;319.853083900176;319.853083900176;319.853083900176;319.853083900176;319.853083900176;319.853083900176;None;0;;;C:\2023\REPSWITCH21092023\REPSWITCH_excgange\REPSWITCH_excgange\data/390104_REPSWITCH1_version1_list4_2023-12-13_14h44.55.977_micRespv1l4_recorded\recording_micRespv1l4_2023-12-13_14h50.11.902.wav;322.8812121003866;;None;322.8812121003866;322.8812121003866;322.8812121003866;322.8812121003866;322.8812121003866;322.8812121003866;;;;;;390104;001;2023-12-13_14h44.55.977;REPSWITCH1_version1_list4;2022.2.4;144.02809067471338;
REPSWITCH1/PICTURE_152.png;caracol;speak;gold;filler;2;F;3;4;4;1;Stim2_Set2;0;None;63;62;63;0;62;62;62;;;;;;;;;;;;;;;;;;;;;;;323.3812800999731;324.5411480003968;324.5411480003968;324.5411480003968;324.5411480003968;324.5411480003968;324.5411480003968;324.5411480003968;324.5411480003968;None;0;;;C:\2023\REPSWITCH21092023\REPSWITCH_excgange\REPSWITCH_excgange\data/390104_REPSWITCH1_version1_list4_2023-12-13_14h44.55.977_micRespv1l4_recorded\recording_micRespv1l4_2023-12-13_14h50.16.590.wav;327.56932510016486;;None;327.56932510016486;327.56932510016486;327.56932510016486;327.56932510016486;327.56932510016486;327.56932510016486;;;;;;390104;001;2023-12-13_14h44.55.977;REPSWITCH1_version1_list4;2022.2.4;144.02809067471338;
REPSWITCH1/PICTURE_446.png;cerdo;type;darkblue;filler;1;F;3;4;4;1;Stim7_Set2;1;switch;64;63;64;0;63;63;63;;;;;;;;;;;;;;;;;;;;;;;328.0693964003585;329.2015470000915;329.2015470000915;329.2015470000915;329.2015470000915;329.2015470000915;329.2015470000915;329.2015470000915;329.2015470000915;['c', 'e', 'r', 'd', 'o'];0;[0.6514419997110963, 0.8457493996247649, 0.9165331996046007, 1.0594106996431947, 1.1431276998482645];cerdo;C:\2023\REPSWITCH21092023\REPSWITCH_excgange\REPSWITCH_excgange\data/390104_REPSWITCH1_version1_list4_2023-12-13_14h44.55.977_micRespv1l4_recorded\recording_micRespv1l4_2023-12-13_14h50.21.251.wav;332.2226966000162;332.72275780001655;None;332.2226966000162;332.2226966000162;332.2226966000162;332.2226966000162;332.2226966000162;332.2226966000162;;;;;;390104;001;2023-12-13_14h44.55.977;REPSWITCH1_version1_list4;2022.2.4;144.02809067471338;
REPSWITCH1/PICTURE_610.png;miel;speak;gold;nontarget;2;NT;3;4;4;1;Stim2_Set3;1;switch;65;64;65;0;64;64;64;;;;;;;;;;;;;;;;;;;;;;;332.72275780001655;333.83409750042483;333.83409750042483;333.83409750042483;333.83409750042483;333.83409750042483;333.83409750042483;333.83409750042483;333.83409750042483;None;0;;;C:\2023\REPSWITCH21092023\REPSWITCH_excgange\REPSWITCH_excgange\data/390104_REPSWITCH1_version1_list4_2023-12-13_14h44.55.977_micRespv1l4_recorded\recording_micRespv1l4_2023-12-13_14h50.25.884.wav;336.8621782003902;;None;336.8621782003902;336.8621782003902;336.8621782003902;336.8621782003902;336.8621782003902;336.8621782003902;;;;;;390104;001;2023-12-13_14h44.55.977;REPSWITCH1_version1_list4;2022.2.4;144.02809067471338;
REPSWITCH1/PICTURE_610.png;miel;speak;gold;repeat;2;T;3;4;4;1;Stim2_Set3;0;None;66;65;66;0;65;65;65;;;;;;;;;;;;;;;;;;;;;;;337.3622755999677;338.51523829996586;338.51523829996586;338.51523829996586;338.51523829996586;338.51523829996586;338.51523829996586;338.51523829996586;338.51523829996586;None;0;;;C:\2023\REPSWITCH21092023\REPSWITCH_excgange\REPSWITCH_excgange\data/390104_REPSWITCH1_version1_list4_2023-12-13_14h44.55.977_micRespv1l4_recorded\recording_micRespv1l4_2023-12-13_14h50.30.564.wav;341.5364957000129;342.0365796000697;None;341.5364957000129;341.5364957000129;341.5364957000129;341.5364957000129;341.5364957000129;341.5364957000129;;;;;;390104;001;2023-12-13_14h44.55.977;REPSWITCH1_version1_list4;2022.2.4;144.02809067471338;
REPSWITCH1/PICTURE_320.png;iglesia;speak;gold;nontarget;2;NT;3;4;4;1;Stim8_Set3;1;repeat;67;66;67;0;66;66;66;;;;;;;;;;;;;;;;;;;;;;;342.0365796000697;343.1269082003273;343.1269082003273;343.1269082003273;343.1269082003273;343.1269082003273;343.1269082003273;343.1269082003273;343.1269082003273;None;0;;;C:\2023\REPSWITCH21092023\REPSWITCH_excgange\REPSWITCH_excgange\data/390104_REPSWITCH1_version1_list4_2023-12-13_14h44.55.977_micRespv1l4_recorded\recording_micRespv1l4_2023-12-13_14h50.35.176.wav;346.14816030021757;346.6482166000642;None;346.14816030021757;346.14816030021757;346.14816030021757;346.14816030021757;346.14816030021757;346.14816030021757;;;;;;390104;001;2023-12-13_14h44.55.977;REPSWITCH1_version1_list4;2022.2.4;144.02809067471338;
REPSWITCH1/PICTURE_320.png;iglesia;type;darkblue;switch;1;T;3;4;4;1;Stim8_Set3;0;None;68;67;68;0;67;67;67;;;;;;;;;;;;;;;;;;;;;;;346.6482166000642;347.7595584001392;347.7595584001392;347.7595584001392;347.7595584001392;347.7595584001392;347.7595584001392;347.7595584001392;347.7595584001392;['i', 'g', 'l', 'e', 's', 'i', 'a'];0;[0.608034800272435, 0.7246229001320899, 0.857184300199151, 0.9717926001176238, 1.1087332000024617, 1.252170099876821, 1.3877194998785853];iglesia;C:\2023\REPSWITCH21092023\REPSWITCH_excgange\REPSWITCH_excgange\data/390104_REPSWITCH1_version1_list4_2023-12-13_14h44.55.977_micRespv1l4_recorded\recording_micRespv1l4_2023-12-13_14h50.39.809.wav;350.7876307000406;;None;350.7876307000406;350.7876307000406;350.7876307000406;350.7876307000406;350.7876307000406;350.7876307000406;;;;;;390104;001;2023-12-13_14h44.55.977;REPSWITCH1_version1_list4;2022.2.4;144.02809067471338;
REPSWITCH1/PICTURE_30.png;granja;speak;gold;filler;2;F;3;4;4;1;Stim5_Set2;0;None;69;68;69;0;68;68;68;;;;;;;;;;;;;;;;;;;;;;;351.28767910040915;352.41982370009646;352.41982370009646;352.41982370009646;352.41982370009646;352.41982370009646;352.41982370009646;352.41982370009646;352.41982370009646;None;0;;;C:\2023\REPSWITCH21092023\REPSWITCH_excgange\REPSWITCH_excgange\data/390104_REPSWITCH1_version1_list4_2023-12-13_14h44.55.977_micRespv1l4_recorded\recording_micRespv1l4_2023-12-13_14h50.44.469.wav;355.44797229999676;;None;355.44797229999676;355.44797229999676;355.44797229999676;355.44797229999676;355.44797229999676;355.44797229999676;;;;;;390104;001;2023-12-13_14h44.55.977;REPSWITCH1_version1_list4;2022.2.4;144.02809067471338;
REPSWITCH1/PICTURE_264.png;mano;type;darkblue;filler;1;F;3;4;4;1;Stim3_Set2;0;None;70;69;70;0;69;69;69;;;;;;;;;;;;;;;;;;;;;;;355.94804739998654;357.0106956004165;357.0106956004165;357.0106956004165;357.0106956004165;357.0106956004165;357.0106956004165;357.0106956004165;357.0106956004165;['m', 'a', 'n', 'o'];0;[0.8495655995793641, 0.919340199790895, 1.1428574998863041, 1.2205880996771157];mano;C:\2023\REPSWITCH21092023\REPSWITCH_excgange\REPSWITCH_excgange\data/390104_REPSWITCH1_version1_list4_2023-12-13_14h44.55.977_micRespv1l4_recorded\recording_micRespv1l4_2023-12-13_14h50.49.060.wav;360.0319261001423;360.53205920010805;None;360.0319261001423;360.0319261001423;360.0319261001423;360.0319261001423;360.0319261001423;360.0319261001423;;;;;;390104;001;2023-12-13_14h44.55.977;REPSWITCH1_version1_list4;2022.2.4;144.02809067471338;
REPSWITCH1/PICTURE_464.png;goma;type;darkblue;nontarget;1;NT;3;4;4;1;Stim6_Set3;0;None;71;70;71;0;70;70;70;;;;;;;;;;;;;;;;;;;;;;;360.53205920010805;361.62242110027;361.62242110027;361.62242110027;361.62242110027;361.62242110027;361.62242110027;361.62242110027;361.62242110027;['g', 'o', 'm', 'a'];0;[0.6636886997148395, 0.7573232995346189, 0.8480189996771514, 0.9508275995030999];goma;C:\2023\REPSWITCH21092023\REPSWITCH_excgange\REPSWITCH_excgange\data/390104_REPSWITCH1_version1_list4_2023-12-13_14h44.55.977_micRespv1l4_recorded\recording_micRespv1l4_2023-12-13_14h50.53.671.wav;364.64365110034123;365.14368050033227;None;364.64365110034123;364.64365110034123;364.64365110034123;364.64365110034123;364.64365110034123;364.64365110034123;;;;;;390104;001;2023-12-13_14h44.55.977;REPSWITCH1_version1_list4;2022.2.4;144.02809067471338;
REPSWITCH1/PICTURE_464.png;goma;type;darkblue;repeat;1;T;3;4;4;1;Stim6_Set3;0;None;72;71;72;0;71;71;71;;;;;;;;;;;;;;;;;;;;;;;365.14368050033227;366.2410869002342;366.2410869002342;366.2410869002342;366.2410869002342;366.2410869002342;366.2410869002342;366.2410869002342;366.2410869002342;['g', 'o', 'm', 'a'];0;[0.6953217997215688, 0.8081781999208033, 0.8759105997160077, 0.9955533999018371];goma;C:\2023\REPSWITCH21092023\REPSWITCH_excgange\REPSWITCH_excgange\data/390104_REPSWITCH1_version1_list4_2023-12-13_14h44.55.977_micRespv1l4_recorded\recording_micRespv1l4_2023-12-13_14h50.58.290.wav;369.269236500375;;None;369.269236500375;369.269236500375;369.269236500375;369.269236500375;369.269236500375;369.269236500375;;;;;;390104;001;2023-12-13_14h44.55.977;REPSWITCH1_version1_list4;2022.2.4;144.02809067471338;
REPSWITCH1/PICTURE_175.png;pintor;speak;gold;filler;2;F;3;4;4;1;Stim1_Set2;0;None;73;72;73;0;72;72;72;;;;;;;;;;;;;;;;;;;;;;;369.76931150024757;370.85975710023195;370.85975710023195;370.85975710023195;370.85975710023195;370.85975710023195;370.85975710023195;370.85975710023195;370.85975710023195;None;0;;;C:\2023\REPSWITCH21092023\REPSWITCH_excgange\REPSWITCH_excgange\data/390104_REPSWITCH1_version1_list4_2023-12-13_14h44.55.977_micRespv1l4_recorded\recording_micRespv1l4_2023-12-13_14h51.02.909.wav;373.887911000289;;None;373.887911000289;373.887911000289;373.887911000289;373.887911000289;373.887911000289;373.887911000289;;;;;;390104;001;2023-12-13_14h44.55.977;REPSWITCH1_version1_list4;2022.2.4;144.02809067471338;
REPSWITCH1/PICTURE_235.png;aguja;type;darkblue;nontarget;1;NT;3;4;4;1;Stim4_Set3;1;switch;74;73;74;0;73;73;73;;;;;;;;;;;;;;;;;;;;;;;374.3880466003902;375.4714310001582;375.4714310001582;375.4714310001582;375.4714310001582;375.4714310001582;375.4714310001582;375.4714310001582;375.4714310001582;['a', 'g', 'u', 'j', 'a'];0;[0.7691621999256313, 0.9667721996083856, 1.1312284995801747, 1.3471727995201945, 1.40991639951244];aguja;C:\2023\REPSWITCH21092023\REPSWITCH_excgange\REPSWITCH_excgange\data/390104_REPSWITCH1_version1_list4_2023-12-13_14h44.55.977_micRespv1l4_recorded\recording_micRespv1l4_2023-12-13_14h51.07.521.wav;378.4926507002674;378.99270380008966;None;378.4926507002674;378.4926507002674;378.4926507002674;378.4926507002674;378.4926507002674;378.4926507002674;;;;;;390104;001;2023-12-13_14h44.55.977;REPSWITCH1_version1_list4;2022.2.4;144.02809067471338;
REPSWITCH1/PICTURE_235.png;aguja;type;darkblue;repeat;1;T;3;4;4;1;Stim4_Set3;0;None;75;74;75;0;74;74;74;;;;;;;;;;;;;;;;;;;;;;;378.99270380008966;380.1804220001213;380.1804220001213;380.1804220001213;380.1804220001213;380.1804220001213;380.1804220001213;380.1804220001213;380.1804220001213;['a', 'g', 'u', 'j', 'a'];0;[0.5121860997751355, 0.7117806999012828, 0.8113942998461425, 1.0107252998277545, 1.066529099829495];aguja;C:\2023\REPSWITCH21092023\REPSWITCH_excgange\REPSWITCH_excgange\data/390104_REPSWITCH1_version1_list4_2023-12-13_14h44.55.977_micRespv1l4_recorded\recording_micRespv1l4_2023-12-13_14h51.12.230.wav;383.2015898004174;383.70165299996734;None;383.2015898004174;383.2015898004174;383.2015898004174;383.2015898004174;383.2015898004174;383.2015898004174;;;;;;390104;001;2023-12-13_14h44.55.977;REPSWITCH1_version1_list4;2022.2.4;144.02809067471338;
REPSWITCH1/PICTURE_576.png;guante;type;darkblue;filler;1;F;4;4;4;1;Stim1_Set3;1;repeat;76;75;76;0;75;75;75;;;;;;;;;;;;;;;;;;;;;;;383.70165299996734;384.78522650012746;384.78522650012746;384.78522650012746;384.78522650012746;384.78522650012746;384.78522650012746;384.78522650012746;384.78522650012746;['g', 'u', 'a', 'n', 't', 'e'];0;[0.7294930997304618, 0.8351634996943176, 0.9308116999454796, 1.0414701998233795, 1.124745599925518, 1.17159410007298];guante;C:\2023\REPSWITCH21092023\REPSWITCH_excgange\REPSWITCH_excgange\data/390104_REPSWITCH1_version1_list4_2023-12-13_14h44.55.977_micRespv1l4_recorded\recording_micRespv1l4_2023-12-13_14h51.16.834.wav;387.80640100035816;388.30645170016214;None;387.80640100035816;387.80640100035816;387.80640100035816;387.80640100035816;387.80640100035816;387.80640100035816;;;;;;390104;001;2023-12-13_14h44.55.977;REPSWITCH1_version1_list4;2022.2.4;144.02809067471338;
REPSWITCH1/PICTURE_340.png;espejo;speak;gold;filler;2;F;4;4;4;1;Extra1;0;None;77;76;77;0;76;76;76;;;;;;;;;;;;;;;;;;;;;;;388.30645170016214;389.4107696004212;389.4107696004212;389.4107696004212;389.4107696004212;389.4107696004212;389.4107696004212;389.4107696004212;389.4107696004212;None;0;;;C:\2023\REPSWITCH21092023\REPSWITCH_excgange\REPSWITCH_excgange\data/390104_REPSWITCH1_version1_list4_2023-12-13_14h44.55.977_micRespv1l4_recorded\recording_micRespv1l4_2023-12-13_14h51.21.459.wav;392.439018800389;;None;392.439018800389;392.439018800389;392.439018800389;392.439018800389;392.439018800389;392.439018800389;;;;;;390104;001;2023-12-13_14h44.55.977;REPSWITCH1_version1_list4;2022.2.4;144.02809067471338;
REPSWITCH1/PICTURE_464.png;goma;speak;gold;filler;2;F;4;4;4;1;Stim6_Set3;1;repeat;78;77;78;0;77;77;77;;;;;;;;;;;;;;;;;;;;;;;392.93901720037684;393.98776060016826;393.98776060016826;393.98776060016826;393.98776060016826;393.98776060016826;393.98776060016826;393.98776060016826;393.98776060016826;None;0;;;C:\2023\REPSWITCH21092023\REPSWITCH_excgange\REPSWITCH_excgange\data/390104_REPSWITCH1_version1_list4_2023-12-13_14h44.55.977_micRespv1l4_recorded\recording_micRespv1l4_2023-12-13_14h51.26.036.wav;397.00899300025776;397.5090610999614;None;397.00899300025776;397.00899300025776;397.00899300025776;397.00899300025776;397.00899300025776;397.00899300025776;;;;;;390104;001;2023-12-13_14h44.55.977;REPSWITCH1_version1_list4;2022.2.4;144.02809067471338;
REPSWITCH1/PICTURE_338.png;regalo;type;darkblue;nontarget;1;NT;4;4;4;1;Stim6_Set4;0;None;79;78;79;0;78;78;78;;;;;;;;;;;;;;;;;;;;;;;397.5090610999614;398.5300359004177;398.5300359004177;398.5300359004177;398.5300359004177;398.5300359004177;398.5300359004177;398.5300359004177;398.5300359004177;['r', 'e', 'g', 'a', 'l', 'o'];0;[0.6720419996418059, 0.7537712994962931, 0.9221988995559514, 0.9999268995597959, 1.1341165998019278, 1.290542499627918];regalo;C:\2023\REPSWITCH21092023\REPSWITCH_excgange\REPSWITCH_excgange\data/390104_REPSWITCH1_version1_list4_2023-12-13_14h44.55.977_micRespv1l4_recorded\recording_micRespv1l4_2023-12-13_14h51.30.579.wav;401.55129270022735;402.05132400011644;None;401.55129270022735;401.55129270022735;401.55129270022735;401.55129270022735;401.55129270022735;401.55129270022735;;;;;;390104;001;2023-12-13_14h44.55.977;REPSWITCH1_version1_list4;2022.2.4;144.02809067471338;
REPSWITCH1/PICTURE_338.png;regalo;type;darkblue;repeat;1;T;4;4;4;1;Stim6_Set4;0;None;80;79;80;0;79;79;79;;;;;;;;;;;;;;;;;;;;;;;402.05132400011644;403.1903810002841;403.1903810002841;403.1903810002841;403.1903810002841;403.1903810002841;403.1903810002841;403.1903810002841;403.1903810002841;['r', 'e', 'g', 'a', 'l', 'o'];0;[0.6980257998220623, 0.800628500059247, 0.922203800175339, 1.0139005999080837, 1.1334367999807, 1.2988689001649618];regalo;C:\2023\REPSWITCH21092023\REPSWITCH_excgange\REPSWITCH_excgange\data/390104_REPSWITCH1_version1_list4_2023-12-13_14h44.55.977_micRespv1l4_recorded\recording_micRespv1l4_2023-12-13_14h51.35.240.wav;406.21857989998534;;None;406.21857989998534;406.21857989998534;406.21857989998534;406.21857989998534;406.21857989998534;406.21857989998534;;;;;;390104;001;2023-12-13_14h44.55.977;REPSWITCH1_version1_list4;2022.2.4;144.02809067471338;
REPSWITCH1/PICTURE_8.png;pierna;type;darkblue;nontarget;1;NT;4;4;4;1;Stim3_Set4;1;repeat;81;80;81;0;80;80;80;;;;;;;;;;;;;;;;;;;;;;;406.71857660030946;407.73263860028237;407.73263860028237;407.73263860028237;407.73263860028237;407.73263860028237;407.73263860028237;407.73263860028237;407.73263860028237;['p', 'i', 'e', 'r', 'n', 'a'];0;[0.7900776998139918, 0.9405517997220159, 1.00839600013569, 1.0607340997084975, 1.1635537999682128, 1.2494427999481559];pierna;C:\2023\REPSWITCH21092023\REPSWITCH_excgange\REPSWITCH_excgange\data/390104_REPSWITCH1_version1_list4_2023-12-13_14h44.55.977_micRespv1l4_recorded\recording_micRespv1l4_2023-12-13_14h51.39.781.wav;410.7538569001481;411.25390330003574;None;410.7538569001481;410.7538569001481;410.7538569001481;410.7538569001481;410.7538569001481;410.7538569001481;;;;;;390104;001;2023-12-13_14h44.55.977;REPSWITCH1_version1_list4;2022.2.4;144.02809067471338;
REPSWITCH1/PICTURE_8.png;pierna;speak;gold;switch;2;T;4;4;4;1;Stim3_Set4;0;None;82;81;82;0;81;81;81;;;;;;;;;;;;;;;;;;;;;;;411.25390330003574;412.34432170027867;412.34432170027867;412.34432170027867;412.34432170027867;412.34432170027867;412.34432170027867;412.34432170027867;412.34432170027867;None;0;;;C:\2023\REPSWITCH21092023\REPSWITCH_excgange\REPSWITCH_excgange\data/390104_REPSWITCH1_version1_list4_2023-12-13_14h44.55.977_micRespv1l4_recorded\recording_micRespv1l4_2023-12-13_14h51.44.393.wav;415.36554840020835;415.865610900335;None;415.36554840020835;415.36554840020835;415.36554840020835;415.36554840020835;415.36554840020835;415.36554840020835;;;;;;390104;001;2023-12-13_14h44.55.977;REPSWITCH1_version1_list4;2022.2.4;144.02809067471338;
REPSWITCH1/PICTURE_271.png;conejo;type;darkblue;filler;1;F;4;4;4;1;Stim7_Set3;0;None;83;82;83;0;82;82;82;;;;;;;;;;;;;;;;;;;;;;;415.865610900335;416.97687650006264;416.97687650006264;416.97687650006264;416.97687650006264;416.97687650006264;416.97687650006264;416.97687650006264;416.97687650006264;['c', 'o', 'n', 'e', 'j', 'o'];0;[0.6957049001939595, 0.7883888999931514, 0.8880663001909852, 0.9608984999358654, 1.0998566001653671, 1.172642500139773];conejo;C:\2023\REPSWITCH21092023\REPSWITCH_excgange\REPSWITCH_excgange\data/390104_REPSWITCH1_version1_list4_2023-12-13_14h44.55.977_micRespv1l4_recorded\recording_micRespv1l4_2023-12-13_14h51.49.026.wav;420.00505180004984;;None;420.00505180004984;420.00505180004984;420.00505180004984;420.00505180004984;420.00505180004984;420.00505180004984;;;;;;390104;001;2023-12-13_14h44.55.977;REPSWITCH1_version1_list4;2022.2.4;144.02809067471338;
REPSWITCH1/PICTURE_687.png;camisa;speak;gold;nontarget;2;NT;4;4;4;1;Stim5_Set4;1;switch;84;83;84;0;83;83;83;;;;;;;;;;;;;;;;;;;;;;;420.50513670034707;421.58171230042353;421.58171230042353;421.58171230042353;421.58171230042353;421.58171230042353;421.58171230042353;421.58171230042353;421.58171230042353;None;0;;;C:\2023\REPSWITCH21092023\REPSWITCH_excgange\REPSWITCH_excgange\data/390104_REPSWITCH1_version1_list4_2023-12-13_14h44.55.977_micRespv1l4_recorded\recording_micRespv1l4_2023-12-13_14h51.53.630.wav;424.6028955001384;425.1029592002742;None;424.6028955001384;424.6028955001384;424.6028955001384;424.6028955001384;424.6028955001384;424.6028955001384;;;;;;390104;001;2023-12-13_14h44.55.977;REPSWITCH1_version1_list4;2022.2.4;144.02809067471338;
REPSWITCH1/PICTURE_687.png;camisa;speak;gold;repeat;2;T;4;4;4;1;Stim5_Set4;0;None;85;84;85;0;84;84;84;;;;;;;;;;;;;;;;;;;;;;;425.1029592002742;426.21427870029584;426.21427870029584;426.21427870029584;426.21427870029584;426.21427870029584;426.21427870029584;426.21427870029584;426.21427870029584;None;0;;;C:\2023\REPSWITCH21092023\REPSWITCH_excgange\REPSWITCH_excgange\data/390104_REPSWITCH1_version1_list4_2023-12-13_14h44.55.977_micRespv1l4_recorded\recording_micRespv1l4_2023-12-13_14h51.58.264.wav;429.2423914000392;;None;429.2423914000392;429.2423914000392;429.2423914000392;429.2423914000392;429.2423914000392;429.2423914000392;;;;;;390104;001;2023-12-13_14h44.55.977;REPSWITCH1_version1_list4;2022.2.4;144.02809067471338;
REPSWITCH1/PICTURE_319.png;vaca;speak;gold;nontarget;2;NT;4;4;4;1;Stim1_Set4;0;None;86;85;86;0;85;85;85;;;;;;;;;;;;;;;;;;;;;;;429.74243890028447;430.839812300168;430.839812300168;430.839812300168;430.839812300168;430.839812300168;430.839812300168;430.839812300168;430.839812300168;None;0;;;C:\2023\REPSWITCH21092023\REPSWITCH_excgange\REPSWITCH_excgange\data/390104_REPSWITCH1_version1_list4_2023-12-13_14h44.55.977_micRespv1l4_recorded\recording_micRespv1l4_2023-12-13_14h52.02.888.wav;433.86102800024673;434.3610860002227;None;433.86102800024673;433.86102800024673;433.86102800024673;433.86102800024673;433.86102800024673;433.86102800024673;;;;;;390104;001;2023-12-13_14h44.55.977;REPSWITCH1_version1_list4;2022.2.4;144.02809067471338;
REPSWITCH1/PICTURE_319.png;vaca;type;darkblue;switch;1;T;4;4;4;1;Stim1_Set4;0;None;87;86;87;0;86;86;86;;;;;;;;;;;;;;;;;;;;;;;434.3610860002227;435.44462190009654;435.44462190009654;435.44462190009654;435.44462190009654;435.44462190009654;435.44462190009654;435.44462190009654;435.44462190009654;['v', 'a', 'c', 'a'];0;[0.5619041002355516, 0.6555909002199769, 0.8489442002028227, 0.8988079000264406];vaca;C:\2023\REPSWITCH21092023\REPSWITCH_excgange\REPSWITCH_excgange\data/390104_REPSWITCH1_version1_list4_2023-12-13_14h44.55.977_micRespv1l4_recorded\recording_micRespv1l4_2023-12-13_14h52.07.494.wav;438.4657803000882;438.9659522003494;None;438.4657803000882;438.4657803000882;438.4657803000882;438.4657803000882;438.4657803000882;438.4657803000882;;;;;;390104;001;2023-12-13_14h44.55.977;REPSWITCH1_version1_list4;2022.2.4;144.02809067471338;
REPSWITCH1/PICTURE_242.png;cartero;speak;gold;filler;2;F;4;4;4;1;Stim3_Set3;0;None;88;87;88;0;87;87;87;;;;;;;;;;;;;;;;;;;;;;;438.9659522003494;440.00771130016074;440.00771130016074;440.00771130016074;440.00771130016074;440.00771130016074;440.00771130016074;440.00771130016074;440.00771130016074;None;0;;;C:\2023\REPSWITCH21092023\REPSWITCH_excgange\REPSWITCH_excgange\data/390104_REPSWITCH1_version1_list4_2023-12-13_14h44.55.977_micRespv1l4_recorded\recording_micRespv1l4_2023-12-13_14h52.12.057.wav;443.0289262002334;443.5289899003692;None;443.0289262002334;443.0289262002334;443.0289262002334;443.0289262002334;443.0289262002334;443.0289262002334;;;;;;390104;001;2023-12-13_14h44.55.977;REPSWITCH1_version1_list4;2022.2.4;144.02809067471338;
REPSWITCH1/PICTURE_498.png;taza;type;darkblue;nontarget;1;NT;4;4;4;1;Stim4_Set4;1;switch;89;88;89;0;88;88;88;;;;;;;;;;;;;;;;;;;;;;;443.5289899003692;444.5846664002165;444.5846664002165;444.5846664002165;444.5846664002165;444.5846664002165;444.5846664002165;444.5846664002165;444.5846664002165;['t', 'a', 'z', 'a'];0;[0.9308637995272875, 1.0196695998311043, 1.216902599669993, 1.3739884998649359];taza;C:\2023\REPSWITCH21092023\REPSWITCH_excgange\REPSWITCH_excgange\data/390104_REPSWITCH1_version1_list4_2023-12-13_14h44.55.977_micRespv1l4_recorded\recording_micRespv1l4_2023-12-13_14h52.16.634.wav;447.61291410028934;;None;447.61291410028934;447.61291410028934;447.61291410028934;447.61291410028934;447.61291410028934;447.61291410028934;;;;;;390104;001;2023-12-13_14h44.55.977;REPSWITCH1_version1_list4;2022.2.4;144.02809067471338;
REPSWITCH1/PICTURE_498.png;taza;speak;gold;switch;2;T;4;4;4;1;Stim4_Set4;0;None;90;89;90;0;89;89;89;;;;;;;;;;;;;;;;;;;;;;;448.1129189999774;449.2033711001277;449.2033711001277;449.2033711001277;449.2033711001277;449.2033711001277;449.2033711001277;449.2033711001277;449.2033711001277;None;0;;;C:\2023\REPSWITCH21092023\REPSWITCH_excgange\REPSWITCH_excgange\data/390104_REPSWITCH1_version1_list4_2023-12-13_14h44.55.977_micRespv1l4_recorded\recording_micRespv1l4_2023-12-13_14h52.21.252.wav;452.2245479002595;452.72461190028116;None;452.2245479002595;452.2245479002595;452.2245479002595;452.2245479002595;452.2245479002595;452.2245479002595;;;;;;390104;001;2023-12-13_14h44.55.977;REPSWITCH1_version1_list4;2022.2.4;144.02809067471338;
REPSWITCH1/PICTURE_391.png;cadena;type;darkblue;filler;1;F;4;4;4;1;Extra2;0;None;91;90;91;0;90;90;90;;;;;;;;;;;;;;;;;;;;;;;452.72461190028116;453.73864240013063;453.73864240013063;453.73864240013063;453.73864240013063;453.73864240013063;453.73864240013063;453.73864240013063;453.73864240013063;['c', 'a', 'd', 'e', 'n', 'a'];0;[0.62789799971506, 1.1663824999704957, 1.3128541000187397, 1.4514256999827921, 1.532152199652046, 1.61687729973346];cadena;C:\2023\REPSWITCH21092023\REPSWITCH_excgange\REPSWITCH_excgange\data/390104_REPSWITCH1_version1_list4_2023-12-13_14h44.55.977_micRespv1l4_recorded\recording_micRespv1l4_2023-12-13_14h52.25.788.wav;456.7669112002477;;None;456.7669112002477;456.7669112002477;456.7669112002477;456.7669112002477;456.7669112002477;456.7669112002477;;;;;;390104;001;2023-12-13_14h44.55.977;REPSWITCH1_version1_list4;2022.2.4;144.02809067471338;
REPSWITCH1/PICTURE_610.png;miel;speak;gold;filler;2;F;4;4;4;1;Stim2_Set3;0;None;92;91;92;0;91;91;91;;;;;;;;;;;;;;;;;;;;;;;457.26690350007266;458.3017619000748;458.3017619000748;458.3017619000748;458.3017619000748;458.3017619000748;458.3017619000748;458.3017619000748;458.3017619000748;None;0;;;C:\2023\REPSWITCH21092023\REPSWITCH_excgange\REPSWITCH_excgange\data/390104_REPSWITCH1_version1_list4_2023-12-13_14h44.55.977_micRespv1l4_recorded\recording_micRespv1l4_2023-12-13_14h52.30.351.wav;461.3229922000319;461.8230513003655;None;461.3229922000319;461.3229922000319;461.3229922000319;461.3229922000319;461.3229922000319;461.3229922000319;;;;;;390104;001;2023-12-13_14h44.55.977;REPSWITCH1_version1_list4;2022.2.4;144.02809067471338;
REPSWITCH1/PICTURE_48.png;bombero;speak;gold;nontarget;2;NT;4;4;4;1;Stim7_Set4;1;repeat;93;92;93;0;92;92;92;;;;;;;;;;;;;;;;;;;;;;;461.8230513003655;462.87179360026494;462.87179360026494;462.87179360026494;462.87179360026494;462.87179360026494;462.87179360026494;462.87179360026494;462.87179360026494;None;0;;;C:\2023\REPSWITCH21092023\REPSWITCH_excgange\REPSWITCH_excgange\data/390104_REPSWITCH1_version1_list4_2023-12-13_14h44.55.977_micRespv1l4_recorded\recording_micRespv1l4_2023-12-13_14h52.34.922.wav;465.8999617001973;;None;465.8999617001973;465.8999617001973;465.8999617001973;465.8999617001973;465.8999617001973;465.8999617001973;;;;;;390104;001;2023-12-13_14h44.55.977;REPSWITCH1_version1_list4;2022.2.4;144.02809067471338;
REPSWITCH1/PICTURE_48.png;bombero;speak;gold;repeat;2;T;4;4;4;1;Stim7_Set4;0;None;94;93;94;0;93;93;93;;;;;;;;;;;;;;;;;;;;;;;466.4000381999649;467.4765922999941;467.4765922999941;467.4765922999941;467.4765922999941;467.4765922999941;467.4765922999941;467.4765922999941;467.4765922999941;None;0;;;C:\2023\REPSWITCH21092023\REPSWITCH_excgange\REPSWITCH_excgange\data/390104_REPSWITCH1_version1_list4_2023-12-13_14h44.55.977_micRespv1l4_recorded\recording_micRespv1l4_2023-12-13_14h52.39.525.wav;470.49778400035575;470.9978534001857;None;470.49778400035575;470.49778400035575;470.49778400035575;470.49778400035575;470.49778400035575;470.49778400035575;;;;;;390104;001;2023-12-13_14h44.55.977;REPSWITCH1_version1_list4;2022.2.4;144.02809067471338;
REPSWITCH1/PICTURE_320.png;iglesia;type;darkblue;filler;1;F;4;4;4;1;Stim8_Set3;1;switch;95;94;95;0;94;94;94;;;;;;;;;;;;;;;;;;;;;;;470.9978534001857;472.02583920024335;472.02583920024335;472.02583920024335;472.02583920024335;472.02583920024335;472.02583920024335;472.02583920024335;472.02583920024335;['i', 'g', 'l', 'e', 's', 'i', 'a'];0;[0.697106699924916, 0.8615089994855225, 0.9835225995630026, 1.0792106995359063, 1.2780502997338772, 1.3926788996905088, 1.4912996995262802];iglesia;C:\2023\REPSWITCH21092023\REPSWITCH_excgange\REPSWITCH_excgange\data/390104_REPSWITCH1_version1_list4_2023-12-13_14h44.55.977_micRespv1l4_recorded\recording_micRespv1l4_2023-12-13_14h52.44.075.wav;475.047010499984;475.54707230022177;None;475.047010499984;475.047010499984;475.047010499984;475.047010499984;475.047010499984;475.047010499984;;;;;;390104;001;2023-12-13_14h44.55.977;REPSWITCH1_version1_list4;2022.2.4;144.02809067471338;
REPSWITCH1/PICTURE_35.png;oreja;speak;gold;filler;2;F;4;4;4;1;Stim5_Set3;0;None;96;95;96;0;95;95;95;;;;;;;;;;;;;;;;;;;;;;;475.54707230022177;476.64446860039607;476.64446860039607;476.64446860039607;476.64446860039607;476.64446860039607;476.64446860039607;476.64446860039607;476.64446860039607;None;0;;;C:\2023\REPSWITCH21092023\REPSWITCH_excgange\REPSWITCH_excgange\data/390104_REPSWITCH1_version1_list4_2023-12-13_14h44.55.977_micRespv1l4_recorded\recording_micRespv1l4_2023-12-13_14h52.48.693.wav;479.66567510040477;480.1657008002512;None;479.66567510040477;479.66567510040477;479.66567510040477;479.66567510040477;479.66567510040477;479.66567510040477;;;;;;390104;001;2023-12-13_14h44.55.977;REPSWITCH1_version1_list4;2022.2.4;144.02809067471338;
REPSWITCH1/PICTURE_728.png;pulpo;speak;gold;nontarget;2;NT;4;4;4;1;Stim8_Set4;1;repeat;97;96;97;0;96;96;96;;;;;;;;;;;;;;;;;;;;;;;480.1657008002512;481.2839953000657;481.2839953000657;481.2839953000657;481.2839953000657;481.2839953000657;481.2839953000657;481.2839953000657;481.2839953000657;None;0;;;C:\2023\REPSWITCH21092023\REPSWITCH_excgange\REPSWITCH_excgange\data/390104_REPSWITCH1_version1_list4_2023-12-13_14h44.55.977_micRespv1l4_recorded\recording_micRespv1l4_2023-12-13_14h52.53.334.wav;484.3120744000189;;None;484.3120744000189;484.3120744000189;484.3120744000189;484.3120744000189;484.3120744000189;484.3120744000189;;;;;;390104;001;2023-12-13_14h44.55.977;REPSWITCH1_version1_list4;2022.2.4;144.02809067471338;
REPSWITCH1/PICTURE_728.png;pulpo;type;darkblue;switch;1;T;4;4;4;1;Stim8_Set4;0;None;98;97;98;0;97;97;97;;;;;;;;;;;;;;;;;;;;;;;484.8121760003269;485.9234534003772;485.9234534003772;485.9234534003772;485.9234534003772;485.9234534003772;485.9234534003772;485.9234534003772;485.9234534003772;['p', 'u', 'l', 'p', 'o'];0;[0.7495078998617828, 0.8082449003122747, 0.9861922999843955, 1.177802899852395, 1.2493131998926401];pulpo;C:\2023\REPSWITCH21092023\REPSWITCH_excgange\REPSWITCH_excgange\data/390104_REPSWITCH1_version1_list4_2023-12-13_14h44.55.977_micRespv1l4_recorded\recording_micRespv1l4_2023-12-13_14h52.57.973.wav;488.9446458001621;489.4447773001157;None;488.9446458001621;488.9446458001621;488.9446458001621;488.9446458001621;488.9446458001621;488.9446458001621;;;;;;390104;001;2023-12-13_14h44.55.977;REPSWITCH1_version1_list4;2022.2.4;144.02809067471338;
REPSWITCH1/PICTURE_590.png;escoba;speak;gold;filler;2;F;4;4;4;1;Extra3;0;None;99;98;99;0;98;98;98;;;;;;;;;;;;;;;;;;;;;;;489.4447773001157;490.52822219999507;490.52822219999507;490.52822219999507;490.52822219999507;490.52822219999507;490.52822219999507;490.52822219999507;490.52822219999507;None;0;;;C:\2023\REPSWITCH21092023\REPSWITCH_excgange\REPSWITCH_excgange\data/390104_REPSWITCH1_version1_list4_2023-12-13_14h44.55.977_micRespv1l4_recorded\recording_micRespv1l4_2023-12-13_14h53.02.578.wav;493.5563903003931;494.05651760008186;None;493.5563903003931;493.5563903003931;493.5563903003931;493.5563903003931;493.5563903003931;493.5563903003931;;;;;;390104;001;2023-12-13_14h44.55.977;REPSWITCH1_version1_list4;2022.2.4;144.02809067471338;
REPSWITCH1/PICTURE_235.png;aguja;type;darkblue;filler;1;F;4;4;4;1;Stim4_Set3;0;None;100;99;100;0;99;99;99;;;;;;;;;;;;;;;;;;;;;;;494.05651760008186;495.16770380036905;495.16770380036905;495.16770380036905;495.16770380036905;495.16770380036905;495.16770380036905;495.16770380036905;495.16770380036905;['a', 'g', 'u', 'j', 'a'];0;[0.6027437001466751, 0.9267115001566708, 1.108085900079459, 1.5934552000835538, 1.6911980998702347];aguja;C:\2023\REPSWITCH21092023\REPSWITCH_excgange\REPSWITCH_excgange\data/390104_REPSWITCH1_version1_list4_2023-12-13_14h44.55.977_micRespv1l4_recorded\recording_micRespv1l4_2023-12-13_14h53.07.217.wav;498.19595200009644;;None;498.19595200009644;498.19595200009644;498.19595200009644;498.19595200009644;498.19595200009644;498.19595200009644;;;;;;390104;001;2023-12-13_14h44.55.977;REPSWITCH1_version1_list4;2022.2.4;144.02809067471338;
REPSWITCH1/PICTURE_719.png;baño;type;darkblue;nontarget;1;NT;4;4;4;1;Stim2_Set4;1;repeat;101;100;101;0;100;100;100;;;;;;;;;;;;;;;;;;;;;;;498.69592930004;499.9113703002222;499.9113703002222;499.9113703002222;499.9113703002222;499.9113703002222;499.9113703002222;499.9113703002222;499.9113703002222;['b', 'a', 'ñ', 'o'];0;[0.6591999996453524, 0.7990687997080386, 0.9603950995951891, 1.0331681999377906];baño;C:\2023\REPSWITCH21092023\REPSWITCH_excgange\REPSWITCH_excgange\data/390104_REPSWITCH1_version1_list4_2023-12-13_14h44.55.977_micRespv1l4_recorded\recording_micRespv1l4_2023-12-13_14h53.11.961.wav;502.93953470001;;None;502.93953470001;502.93953470001;502.93953470001;502.93953470001;502.93953470001;502.93953470001;;;;;;390104;001;2023-12-13_14h44.55.977;REPSWITCH1_version1_list4;2022.2.4;144.02809067471338;
REPSWITCH1/PICTURE_719.png;baño;type;darkblue;repeat;1;T;4;4;4;1;Stim2_Set4;0;None;102;101;102;0;101;101;101;;;;;;;;;;;;;;;;;;;;;;;503.43959850026295;504.47455650009215;504.47455650009215;504.47455650009215;504.47455650009215;504.47455650009215;504.47455650009215;504.47455650009215;504.47455650009215;['b', 'a', 'ñ', 'o'];0;[0.6065658996812999, 0.6966686998493969, 0.8580920998938382, 0.9479390997439623];baño;C:\2023\REPSWITCH21092023\REPSWITCH_excgange\REPSWITCH_excgange\data/390104_REPSWITCH1_version1_list4_2023-12-13_14h44.55.977_micRespv1l4_recorded\recording_micRespv1l4_2023-12-13_14h53.16.524.wav;507.50263370014727;;space;507.50263370014727;507.50263370014727;507.50263370014727;507.50263370014727;507.50263370014727;507.50263370014727;508.00269830040634;508.00269830040634;6.2173913000151515;;;390104;001;2023-12-13_14h44.55.977;REPSWITCH1_version1_list4;2022.2.4;144.02809067471338;
REPSWITCH1/PICTURE_646.png;tronco;speak;gold;filler;2;F;1;3;4;1;Extra4;0;None;103;102;1;0;102;102;102;;;;;;;;;;;;;;;;;;;;;;;514.2326818001457;515.2397771002725;515.2397771002725;515.2397771002725;515.2397771002725;515.2397771002725;515.2397771002725;515.2397771002725;515.2397771002725;None;0;;;C:\2023\REPSWITCH21092023\REPSWITCH_excgange\REPSWITCH_excgange\data/390104_REPSWITCH1_version1_list4_2023-12-13_14h44.55.977_micRespv1l4_recorded\recording_micRespv1l4_2023-12-13_14h53.27.289.wav;518.2610397003591;518.7610636004247;None;518.2610397003591;518.2610397003591;518.2610397003591;518.2610397003591;518.2610397003591;518.2610397003591;;;;;;390104;001;2023-12-13_14h44.55.977;REPSWITCH1_version1_list4;2022.2.4;144.02809067471338;
REPSWITCH1/PICTURE_340.png;espejo;type;darkblue;filler;1;F;1;3;4;1;Extra1;0;None;104;103;2;0;103;103;103;;;;;;;;;;;;;;;;;;;;;;;518.7610636004247;519.8376549002714;519.8376549002714;519.8376549002714;519.8376549002714;519.8376549002714;519.8376549002714;519.8376549002714;519.8376549002714;['e', 's', 'p', 'e', 'j', 'o'];0;[0.7977497996762395, 0.8655057996511459, 0.9817570997402072, 1.1003742995671928, 1.2040948998183012, 1.2504892996512353];espejo;C:\2023\REPSWITCH21092023\REPSWITCH_excgange\REPSWITCH_excgange\data/390104_REPSWITCH1_version1_list4_2023-12-13_14h44.55.977_micRespv1l4_recorded\recording_micRespv1l4_2023-12-13_14h53.31.886.wav;522.8588468004018;523.3588865003549;None;522.8588468004018;522.8588468004018;522.8588468004018;522.8588468004018;522.8588468004018;522.8588468004018;;;;;;390104;001;2023-12-13_14h44.55.977;REPSWITCH1_version1_list4;2022.2.4;144.02809067471338;
REPSWITCH1/PICTURE_338.png;regalo;speak;gold;filler;2;F;1;3;4;1;Stim6_Set4;0;None;105;104;3;0;104;104;104;;;;;;;;;;;;;;;;;;;;;;;523.3588865003549;524.4354682001285;524.4354682001285;524.4354682001285;524.4354682001285;524.4354682001285;524.4354682001285;524.4354682001285;524.4354682001285;None;0;;;C:\2023\REPSWITCH21092023\REPSWITCH_excgange\REPSWITCH_excgange\data/390104_REPSWITCH1_version1_list4_2023-12-13_14h44.55.977_micRespv1l4_recorded\recording_micRespv1l4_2023-12-13_14h53.36.484.wav;527.4566461001523;527.9567878004164;None;527.4566461001523;527.4566461001523;527.4566461001523;527.4566461001523;527.4566461001523;527.4566461001523;;;;;;390104;001;2023-12-13_14h44.55.977;REPSWITCH1_version1_list4;2022.2.4;144.02809067471338;
REPSWITCH1/PICTURE_142.png;vaso;speak;gold;nontarget;2;NT;1;3;4;1;Stim7_Set1;1;repeat;106;105;4;0;105;105;105;;;;;;;;;;;;;;;;;;;;;;;527.9567878004164;529.1096708001569;529.1096708001569;529.1096708001569;529.1096708001569;529.1096708001569;529.1096708001569;529.1096708001569;529.1096708001569;None;0;;;C:\2023\REPSWITCH21092023\REPSWITCH_excgange\REPSWITCH_excgange\data/390104_REPSWITCH1_version1_list4_2023-12-13_14h44.55.977_micRespv1l4_recorded\recording_micRespv1l4_2023-12-13_14h53.41.158.wav;532.1308715003543;532.6309685003944;None;532.1308715003543;532.1308715003543;532.1308715003543;532.1308715003543;532.1308715003543;532.1308715003543;;;;;;390104;001;2023-12-13_14h44.55.977;REPSWITCH1_version1_list4;2022.2.4;144.02809067471338;
REPSWITCH1/PICTURE_142.png;vaso;speak;gold;repeat;2;T;1;3;4;1;Stim7_Set1;0;None;107;106;5;0;106;106;106;;;;;;;;;;;;;;;;;;;;;;;532.6309685003944;533.7144137001596;533.7144137001596;533.7144137001596;533.7144137001596;533.7144137001596;533.7144137001596;533.7144137001596;533.7144137001596;None;0;;;C:\2023\REPSWITCH21092023\REPSWITCH_excgange\REPSWITCH_excgange\data/390104_REPSWITCH1_version1_list4_2023-12-13_14h44.55.977_micRespv1l4_recorded\recording_micRespv1l4_2023-12-13_14h53.45.764.wav;536.7425778000616;;None;536.7425778000616;536.7425778000616;536.7425778000616;536.7425778000616;536.7425778000616;536.7425778000616;;;;;;390104;001;2023-12-13_14h44.55.977;REPSWITCH1_version1_list4;2022.2.4;144.02809067471338;
REPSWITCH1/PICTURE_498.png;taza;type;darkblue;filler;1;F;1;3;4;1;Stim4_Set4;0;None;108;107;6;0;107;107;107;;;;;;;;;;;;;;;;;;;;;;;537.2426476003602;538.4303443003446;538.4303443003446;538.4303443003446;538.4303443003446;538.4303443003446;538.4303443003446;538.4303443003446;538.4303443003446;['t', 'a', 'z', 'a'];0;[0.6966941002756357, 0.7774137002415955, 0.9897159999236465, 1.1471855998970568];taza;C:\2023\REPSWITCH21092023\REPSWITCH_excgange\REPSWITCH_excgange\data/390104_REPSWITCH1_version1_list4_2023-12-13_14h44.55.977_micRespv1l4_recorded\recording_micRespv1l4_2023-12-13_14h53.50.480.wav;541.4585011000745;;None;541.4585011000745;541.4585011000745;541.4585011000745;541.4585011000745;541.4585011000745;541.4585011000745;;;;;;390104;001;2023-12-13_14h44.55.977;REPSWITCH1_version1_list4;2022.2.4;144.02809067471338;
REPSWITCH1/PICTURE_16.png;cazador;speak;gold;nontarget;2;NT;1;3;4;1;Stim6_Set1;1;switch;109;108;7;0;108;108;108;;;;;;;;;;;;;;;;;;;;;;;541.9585401001386;543.0073876003735;543.0073876003735;543.0073876003735;543.0073876003735;543.0073876003735;543.0073876003735;543.0073876003735;543.0073876003735;None;0;;;C:\2023\REPSWITCH21092023\REPSWITCH_excgange\REPSWITCH_excgange\data/390104_REPSWITCH1_version1_list4_2023-12-13_14h44.55.977_micRespv1l4_recorded\recording_micRespv1l4_2023-12-13_14h53.55.057.wav;546.0355422003195;;None;546.0355422003195;546.0355422003195;546.0355422003195;546.0355422003195;546.0355422003195;546.0355422003195;;;;;;390104;001;2023-12-13_14h44.55.977;REPSWITCH1_version1_list4;2022.2.4;144.02809067471338;
REPSWITCH1/PICTURE_16.png;cazador;speak;gold;repeat;2;T;1;3;4;1;Stim6_Set1;0;None;110;109;8;0;109;109;109;;;;;;;;;;;;;;;;;;;;;;;546.5356064001098;547.6260014004074;547.6260014004074;547.6260014004074;547.6260014004074;547.6260014004074;547.6260014004074;547.6260014004074;547.6260014004074;None;0;;;C:\2023\REPSWITCH21092023\REPSWITCH_excgange\REPSWITCH_excgange\data/390104_REPSWITCH1_version1_list4_2023-12-13_14h44.55.977_micRespv1l4_recorded\recording_micRespv1l4_2023-12-13_14h53.59.675.wav;550.6472702003084;551.1472774003632;None;550.6472702003084;550.6472702003084;550.6472702003084;550.6472702003084;550.6472702003084;550.6472702003084;;;;;;390104;001;2023-12-13_14h44.55.977;REPSWITCH1_version1_list4;2022.2.4;144.02809067471338;
REPSWITCH1/PICTURE_719.png;baño;type;darkblue;filler;1;F;1;3;4;1;Stim2_Set4;0;None;111;110;9;0;110;110;110;;;;;;;;;;;;;;;;;;;;;;;551.1472774003632;552.3002220001072;552.3002220001072;552.3002220001072;552.3002220001072;552.3002220001072;552.3002220001072;552.3002220001072;552.3002220001072;['b', 'a', 'ñ', 'o'];0;[0.7166770999319851, 0.7993972999975085, 0.9269659002311528, 1.0455729002133012];baño;C:\2023\REPSWITCH21092023\REPSWITCH_excgange\REPSWITCH_excgange\data/390104_REPSWITCH1_version1_list4_2023-12-13_14h44.55.977_micRespv1l4_recorded\recording_micRespv1l4_2023-12-13_14h54.04.350.wav;555.3213977999985;555.8214715002105;None;555.3213977999985;555.3213977999985;555.3213977999985;555.3213977999985;555.3213977999985;555.3213977999985;;;;;;390104;001;2023-12-13_14h44.55.977;REPSWITCH1_version1_list4;2022.2.4;144.02809067471338;
REPSWITCH1/PICTURE_169.png;espalda;speak;gold;nontarget;2;NT;1;3;4;1;Stim8_Set1;0;None;112;111;10;0;111;111;111;;;;;;;;;;;;;;;;;;;;;;;555.8214715002105;556.8424892001785;556.8424892001785;556.8424892001785;556.8424892001785;556.8424892001785;556.8424892001785;556.8424892001785;556.8424892001785;None;0;;;C:\2023\REPSWITCH21092023\REPSWITCH_excgange\REPSWITCH_excgange\data/390104_REPSWITCH1_version1_list4_2023-12-13_14h44.55.977_micRespv1l4_recorded\recording_micRespv1l4_2023-12-13_14h54.08.891.wav;559.8636777000502;560.3637680001557;None;559.8636777000502;559.8636777000502;559.8636777000502;559.8636777000502;559.8636777000502;559.8636777000502;;;;;;390104;001;2023-12-13_14h44.55.977;REPSWITCH1_version1_list4;2022.2.4;144.02809067471338;
REPSWITCH1/PICTURE_169.png;espalda;type;darkblue;switch;1;T;1;3;4;1;Stim8_Set1;0;None;113;112;11;0;112;112;112;;;;;;;;;;;;;;;;;;;;;;;560.3637680001557;561.4263913002796;561.4263913002796;561.4263913002796;561.4263913002796;561.4263913002796;561.4263913002796;561.4263913002796;561.4263913002796;['e', 's', 'p', 'a', 'l', 'd', 'a'];0;[0.6336948997341096, 0.7313659000210464, 0.8829354997724295, 1.0265774000436068, 1.137182999867946, 1.230802800040692, 1.2915643998421729];espalda;C:\2023\REPSWITCH21092023\REPSWITCH_excgange\REPSWITCH_excgange\data/390104_REPSWITCH1_version1_list4_2023-12-13_14h44.55.977_micRespv1l4_recorded\recording_micRespv1l4_2023-12-13_14h54.13.475.wav;564.4476054999977;564.947733100038;None;564.4476054999977;564.4476054999977;564.4476054999977;564.4476054999977;564.4476054999977;564.4476054999977;;;;;;390104;001;2023-12-13_14h44.55.977;REPSWITCH1_version1_list4;2022.2.4;144.02809067471338;
REPSWITCH1/PICTURE_687.png;camisa;type;darkblue;filler;1;F;1;3;4;1;Stim5_Set4;0;None;114;113;12;0;113;113;113;;;;;;;;;;;;;;;;;;;;;;;564.947733100038;566.0589435002767;566.0589435002767;566.0589435002767;566.0589435002767;566.0589435002767;566.0589435002767;566.0589435002767;566.0589435002767;['c', 'a', 'm', 'i', 's', 'a'];0;[0.6864018999040127, 0.7813663999550045, 0.9039218001998961, 0.9747182000428438, 1.0823543998412788, 1.1524463002569973];camisa;C:\2023\REPSWITCH21092023\REPSWITCH_excgange\REPSWITCH_excgange\data/390104_REPSWITCH1_version1_list4_2023-12-13_14h44.55.977_micRespv1l4_recorded\recording_micRespv1l4_2023-12-13_14h54.18.108.wav;569.0801690001972;569.5802465002052;None;569.0801690001972;569.0801690001972;569.0801690001972;569.0801690001972;569.0801690001972;569.0801690001972;;;;;;390104;001;2023-12-13_14h44.55.977;REPSWITCH1_version1_list4;2022.2.4;144.02809067471338;
REPSWITCH1/PICTURE_178.png;puente;type;darkblue;nontarget;1;NT;1;3;4;1;Stim1_Set1;1;repeat;115;114;13;0;114;114;114;;;;;;;;;;;;;;;;;;;;;;;569.5802465002052;570.6846128003672;570.6846128003672;570.6846128003672;570.6846128003672;570.6846128003672;570.6846128003672;570.6846128003672;570.6846128003672;['p', 'u', 'e', 'n', 't', 'e'];0;[0.6721618995070457, 0.7508886996656656, 0.9302854998968542, 1.0302799995988607, 1.1375379995442927, 1.4974831999279559];puente;C:\2023\REPSWITCH21092023\REPSWITCH_excgange\REPSWITCH_excgange\data/390104_REPSWITCH1_version1_list4_2023-12-13_14h44.55.977_micRespv1l4_recorded\recording_micRespv1l4_2023-12-13_14h54.22.734.wav;573.7127395002171;;None;573.7127395002171;573.7127395002171;573.7127395002171;573.7127395002171;573.7127395002171;573.7127395002171;;;;;;390104;001;2023-12-13_14h44.55.977;REPSWITCH1_version1_list4;2022.2.4;144.02809067471338;
REPSWITCH1/PICTURE_178.png;puente;speak;gold;switch;2;T;1;3;4;1;Stim1_Set1;0;None;116;115;14;0;115;115;115;;;;;;;;;;;;;;;;;;;;;;;574.2127975001931;575.2615303001367;575.2615303001367;575.2615303001367;575.2615303001367;575.2615303001367;575.2615303001367;575.2615303001367;575.2615303001367;None;0;;;C:\2023\REPSWITCH21092023\REPSWITCH_excgange\REPSWITCH_excgange\data/390104_REPSWITCH1_version1_list4_2023-12-13_14h44.55.977_micRespv1l4_recorded\recording_micRespv1l4_2023-12-13_14h54.27.310.wav;578.2827427000739;578.782841200009;None;578.2827427000739;578.2827427000739;578.2827427000739;578.2827427000739;578.2827427000739;578.2827427000739;;;;;;390104;001;2023-12-13_14h44.55.977;REPSWITCH1_version1_list4;2022.2.4;144.02809067471338;
REPSWITCH1/PICTURE_128.png;muñeca;speak;gold;nontarget;2;NT;1;3;4;1;Stim4_Set1;1;repeat;117;116;15;0;116;116;116;;;;;;;;;;;;;;;;;;;;;;;578.782841200009;579.9357696999796;579.9357696999796;579.9357696999796;579.9357696999796;579.9357696999796;579.9357696999796;579.9357696999796;579.9357696999796;None;0;;;C:\2023\REPSWITCH21092023\REPSWITCH_excgange\REPSWITCH_excgange\data/390104_REPSWITCH1_version1_list4_2023-12-13_14h44.55.977_micRespv1l4_recorded\recording_micRespv1l4_2023-12-13_14h54.31.985.wav;582.9570333003066;583.457156599965;None;582.9570333003066;582.9570333003066;582.9570333003066;582.9570333003066;582.9570333003066;582.9570333003066;;;;;;390104;001;2023-12-13_14h44.55.977;REPSWITCH1_version1_list4;2022.2.4;144.02809067471338;
REPSWITCH1/PICTURE_128.png;muñeca;type;darkblue;switch;1;T;1;3;4;1;Stim4_Set1;0;None;118;117;16;0;117;117;117;;;;;;;;;;;;;;;;;;;;;;;583.457156599965;584.616956199985;584.616956199985;584.616956199985;584.616956199985;584.616956199985;584.616956199985;584.616956199985;584.616956199985;['m', 'u', 'ñ', 'e', 'c', 'a'];0;[0.6820049998350441, 0.886136899702251, 1.1632051998749375, 1.252945899963379, 1.4622343997471035, 1.518106000032276];muñeca;C:\2023\REPSWITCH21092023\REPSWITCH_excgange\REPSWITCH_excgange\data/390104_REPSWITCH1_version1_list4_2023-12-13_14h44.55.977_micRespv1l4_recorded\recording_micRespv1l4_2023-12-13_14h54.36.666.wav;587.6381781999953;588.1382226999849;None;587.6381781999953;587.6381781999953;587.6381781999953;587.6381781999953;587.6381781999953;587.6381781999953;;;;;;390104;001;2023-12-13_14h44.55.977;REPSWITCH1_version1_list4;2022.2.4;144.02809067471338;
REPSWITCH1/PICTURE_319.png;vaca;speak;gold;filler;2;F;1;3;4;1;Stim1_Set4;1;switch;119;118;17;0;118;118;118;;;;;;;;;;;;;;;;;;;;;;;588.1382226999849;589.1869939002208;589.1869939002208;589.1869939002208;589.1869939002208;589.1869939002208;589.1869939002208;589.1869939002208;589.1869939002208;None;0;;;C:\2023\REPSWITCH21092023\REPSWITCH_excgange\REPSWITCH_excgange\data/390104_REPSWITCH1_version1_list4_2023-12-13_14h44.55.977_micRespv1l4_recorded\recording_micRespv1l4_2023-12-13_14h54.41.236.wav;592.2081812000833;592.7082776003517;None;592.2081812000833;592.2081812000833;592.2081812000833;592.2081812000833;592.2081812000833;592.2081812000833;;;;;;390104;001;2023-12-13_14h44.55.977;REPSWITCH1_version1_list4;2022.2.4;144.02809067471338;
REPSWITCH1/PICTURE_728.png;pulpo;speak;gold;filler;2;F;1;3;4;1;Stim8_Set4;0;None;120;119;18;0;119;119;119;;;;;;;;;;;;;;;;;;;;;;;592.7082776003517;593.7432167003863;593.7432167003863;593.7432167003863;593.7432167003863;593.7432167003863;593.7432167003863;593.7432167003863;593.7432167003863;None;0;;;C:\2023\REPSWITCH21092023\REPSWITCH_excgange\REPSWITCH_excgange\data/390104_REPSWITCH1_version1_list4_2023-12-13_14h44.55.977_micRespv1l4_recorded\recording_micRespv1l4_2023-12-13_14h54.45.792.wav;596.7643958004192;597.2644254001789;None;596.7643958004192;596.7643958004192;596.7643958004192;596.7643958004192;596.7643958004192;596.7643958004192;;;;;;390104;001;2023-12-13_14h44.55.977;REPSWITCH1_version1_list4;2022.2.4;144.02809067471338;
REPSWITCH1/PICTURE_381.png;fresa;type;darkblue;nontarget;1;NT;1;3;4;1;Stim2_Set1;1;switch;121;120;19;0;120;120;120;;;;;;;;;;;;;;;;;;;;;;;597.2644254001789;598.4243038003333;598.4243038003333;598.4243038003333;598.4243038003333;598.4243038003333;598.4243038003333;598.4243038003333;598.4243038003333;['f', 'r', 'e', 's', 'a'];0;[0.7150473999790847, 0.9081113999709487, 0.9948318996466696, 1.0526274996809661, 1.132327999919653];fresa;C:\2023\REPSWITCH21092023\REPSWITCH_excgange\REPSWITCH_excgange\data/390104_REPSWITCH1_version1_list4_2023-12-13_14h44.55.977_micRespv1l4_recorded\recording_micRespv1l4_2023-12-13_14h54.50.473.wav;601.4455199004151;601.9455888001248;None;601.4455199004151;601.4455199004151;601.4455199004151;601.4455199004151;601.4455199004151;601.4455199004151;;;;;;390104;001;2023-12-13_14h44.55.977;REPSWITCH1_version1_list4;2022.2.4;144.02809067471338;
