image;correctAns;respModal;frameColor;repSwitch;sequence;target;set;block;list;exp_version;stimulus;baseline;baseline_condition;trial_no;psychopy_trial;Column1;trialsREPSWITCH.thisRepN;trialsREPSWITCH.thisTrialN;trialsREPSWITCH.thisN;trialsREPSWITCH.thisIndex;textWelcome.started;textboxInstrMain1.started;textboxInstrMain1_2.started;textboxInstrMain1_3.started;keyInstrMain.started;keyInstrMain.keys;keyInstrMain.rt;textboxInstrMain2.started;textboxInstrMain2_2.started;textboxInstrMain2_3.started;textboxInstrMain2_4.started;textboxInstrMain2_5.started;textboxInstrMain2_6.started;textboxInstrMain2_7.started;textboxInstrMain2_8.started;textboxInstrMain2_9.started;textboxInstrMain2_10.started;textboxInstrMain2_11.started;textboxInstrMain2_12.started;keyInstrMain2.started;keyInstrMain2.keys;keyInstrMain2.rt;fixationITI.started;fixationITI.stopped;polygonColour.started;polygonWhite.started;imageObject.started;polygonType.started;textInput.started;keyResp.started;micRespv2l1.started;keyResp.keys;keyResp.corr;keyResp.rt;subjResponse;micRespv2l1.clip;textBlankLoop.started;textBlankLoop.stopped;keyPause.keys;polygonColour.stopped;polygonWhite.stopped;imageObject.stopped;polygonType.stopped;textInput.stopped;keyResp.stopped;textboxPause.started;keyPause.started;keyPause.rt;textboxGoodbye.started;textboxGoodbye.stopped;participant;session;date;expName;psychopyVersion;frameRate;Column2
;;;;;;;;;;;;;;;;;;;;;10.3376243;12.8362627;12.8362627;12.8362627;12.8362627;space;12.8086342;;;;;;;;;;;;;;;;;;;;;;;;;;;;;;;;;;;;;;;;;;;;02.02.01;1;2023-11-10_15h41.55.444;REPSWITCH1_version2_list1;2022.2.4;144.0025806;
;;;;;;;;;;;;;;;;;;;;;;;;;;;;25.6643308;25.6643308;25.6643308;25.6643308;25.6643308;25.6643308;25.6643308;25.6643308;25.6643308;25.6643308;25.6643308;25.6643308;25.6643308;space;0.0153658;;;;;;;;;;;;;;;;;;;;;;;;;;;;;02.02.01;1;2023-11-10_15h41.55.444;REPSWITCH1_version2_list1;2022.2.4;144.0025806;
REPSWITCH1/PICTURE_340.png;espejo;type;gold;filler;1;F;1;1;1;2;Extra1;0;None;1;0;1;0;0;0;0;;;;;;;;;;;;;;;;;;;;;;;25.7754189;26.845076;26.845076;26.845076;26.845076;26.845076;26.845076;26.845076;26.845076;['e', 's', 'p', 'e', 'j', 'o'];0;[1.175958499952685, 1.4175215999712236, 1.658853699977044, 1.787695899954997, 2.0969793999684043, 2.326984099985566];espejo;C:\2023\REPSWITCH21092023\REPSWITCH_excgange\REPSWITCH_excgange\data/02.02.01_REPSWITCH1_version2_list1_2023-11-10_15h41.55.444_micRespv2l1_recorded\recording_micRespv2l1_2023-11-10_15h42.16.712.wav;29.866283;30.366402;None;;;;;;;;;;;;02.02.01;1;2023-11-10_15h41.55.444;REPSWITCH1_version2_list1;2022.2.4;144.0025806;
REPSWITCH1/PICTURE_391.png;cadena;speak;darkblue;filler;2;F;1;1;1;2;Extra2;0;None;2;1;2;0;1;1;1;;;;;;;;;;;;;;;;;;;;;;;30.366402;31.4289548;31.4289548;31.4289548;31.4289548;31.4289548;31.4289548;31.4289548;31.4289548;None;0;;;C:\2023\REPSWITCH21092023\REPSWITCH_excgange\REPSWITCH_excgange\data/02.02.01_REPSWITCH1_version2_list1_2023-11-10_15h41.55.444_micRespv2l1_recorded\recording_micRespv2l1_2023-11-10_15h42.21.300.wav;34.4571552;34.9572815;None;34.4571552;34.4571552;34.4571552;34.4571552;34.4571552;34.4571552;;;;;;02.02.01;1;2023-11-10_15h41.55.444;REPSWITCH1_version2_list1;2022.2.4;144.0025806;
REPSWITCH1/PICTURE_178.png;puente;speak;darkblue;nontarget;2;NT;1;1;1;2;Stim1_Set1;1;repeat;3;2;3;0;2;2;2;;;;;;;;;;;;;;;;;;;;;;;34.9572815;35.999042;35.999042;35.999042;35.999042;35.999042;35.999042;35.999042;35.999042;None;0;;;C:\2023\REPSWITCH21092023\REPSWITCH_excgange\REPSWITCH_excgange\data/02.02.01_REPSWITCH1_version2_list1_2023-11-10_15h41.55.444_micRespv2l1_recorded\recording_micRespv2l1_2023-11-10_15h42.25.868.wav;39.0272435;;None;39.0272435;39.0272435;39.0272435;39.0272435;39.0272435;39.0272435;;;;;;02.02.01;1;2023-11-10_15h41.55.444;REPSWITCH1_version2_list1;2022.2.4;144.0025806;
REPSWITCH1/PICTURE_178.png;puente;speak;darkblue;repeat;2;T;1;1;1;2;Stim1_Set1;0;None;4;3;4;0;3;3;3;;;;;;;;;;;;;;;;;;;;;;;39.5272576;40.6524199;40.6524199;40.6524199;40.6524199;40.6524199;40.6524199;40.6524199;40.6524199;None;0;;;C:\2023\REPSWITCH21092023\REPSWITCH_excgange\REPSWITCH_excgange\data/02.02.01_REPSWITCH1_version2_list1_2023-11-10_15h41.55.444_micRespv2l1_recorded\recording_micRespv2l1_2023-11-10_15h42.30.522.wav;43.6805557;44.180644;None;43.6805557;43.6805557;43.6805557;43.6805557;43.6805557;43.6805557;;;;;;02.02.01;1;2023-11-10_15h41.55.444;REPSWITCH1_version2_list1;2022.2.4;144.0025806;
REPSWITCH1/PICTURE_319.png;vaca;type;gold;filler;1;F;1;1;1;2;Stim1_Set4;0;None;5;4;5;0;4;4;4;;;;;;;;;;;;;;;;;;;;;;;44.180644;45.2363195;45.2363195;45.2363195;45.2363195;45.2363195;45.2363195;45.2363195;45.2363195;['v', 'a', 'c', 'a'];0;[1.1340914000174962, 1.3473652999964543, 1.578925000037998, 1.7449228000477888];vaca;C:\2023\REPSWITCH21092023\REPSWITCH_excgange\REPSWITCH_excgange\data/02.02.01_REPSWITCH1_version2_list1_2023-11-10_15h41.55.444_micRespv2l1_recorded\recording_micRespv2l1_2023-11-10_15h42.35.106.wav;48.2575305;48.757612;None;48.2575305;48.2575305;48.2575305;48.2575305;48.2575305;48.2575305;;;;;;02.02.01;1;2023-11-10_15h41.55.444;REPSWITCH1_version2_list1;2022.2.4;144.0025806;
REPSWITCH1/PICTURE_381.png;fresa;speak;darkblue;nontarget;2;NT;1;1;1;2;Stim2_Set1;1;switch;6;5;6;0;5;5;5;;;;;;;;;;;;;;;;;;;;;;;48.757612;49.8342076;49.8342076;49.8342076;49.8342076;49.8342076;49.8342076;49.8342076;49.8342076;None;0;;;C:\2023\REPSWITCH21092023\REPSWITCH_excgange\REPSWITCH_excgange\data/02.02.01_REPSWITCH1_version2_list1_2023-11-10_15h41.55.444_micRespv2l1_recorded\recording_micRespv2l1_2023-11-10_15h42.39.704.wav;52.8553614;53.3554268;None;52.8553614;52.8553614;52.8553614;52.8553614;52.8553614;52.8553614;;;;;;02.02.01;1;2023-11-10_15h41.55.444;REPSWITCH1_version2_list1;2022.2.4;144.0025806;
REPSWITCH1/PICTURE_381.png;fresa;speak;darkblue;repeat;2;T;1;1;1;2;Stim2_Set1;0;None;7;6;7;0;6;6;6;;;;;;;;;;;;;;;;;;;;;;;53.3554268;54.5848458;54.5848458;54.5848458;54.5848458;54.5848458;54.5848458;54.5848458;54.5848458;None;0;;;C:\2023\REPSWITCH21092023\REPSWITCH_excgange\REPSWITCH_excgange\data/02.02.01_REPSWITCH1_version2_list1_2023-11-10_15h41.55.444_micRespv2l1_recorded\recording_micRespv2l1_2023-11-10_15h42.44.454.wav;57.6060738;58.1060725;None;57.6060738;57.6060738;57.6060738;57.6060738;57.6060738;57.6060738;;;;;;02.02.01;1;2023-11-10_15h41.55.444;REPSWITCH1_version2_list1;2022.2.4;144.0025806;
REPSWITCH1/PICTURE_719.png;baño;type;gold;filler;1;F;1;1;1;2;Stim2_Set4;1;switch;8;7;8;0;7;7;7;;;;;;;;;;;;;;;;;;;;;;;58.1060725;59.1965095;59.1965095;59.1965095;59.1965095;59.1965095;59.1965095;59.1965095;59.1965095;['b', 'a', 'ñ', 'o'];0;[1.0924952999921516, 1.278869499976281, 1.6865098000271246, 1.9094106000266038];baño;C:\2023\REPSWITCH21092023\REPSWITCH_excgange\REPSWITCH_excgange\data/02.02.01_REPSWITCH1_version2_list1_2023-11-10_15h41.55.444_micRespv2l1_recorded\recording_micRespv2l1_2023-11-10_15h42.49.066.wav;62.2177982;62.717772;None;62.2177982;62.2177982;62.2177982;62.2177982;62.2177982;62.2177982;;;;;;02.02.01;1;2023-11-10_15h41.55.444;REPSWITCH1_version2_list1;2022.2.4;144.0025806;
REPSWITCH1/PICTURE_135.png;traje;speak;darkblue;nontarget;2;NT;1;1;1;2;Stim3_Set1;0;None;9;8;9;0;8;8;8;;;;;;;;;;;;;;;;;;;;;;;62.717772;63.8499117;63.8499117;63.8499117;63.8499117;63.8499117;63.8499117;63.8499117;63.8499117;None;0;;;C:\2023\REPSWITCH21092023\REPSWITCH_excgange\REPSWITCH_excgange\data/02.02.01_REPSWITCH1_version2_list1_2023-11-10_15h41.55.444_micRespv2l1_recorded\recording_micRespv2l1_2023-11-10_15h42.53.720.wav;66.878079;;None;66.878079;66.878079;66.878079;66.878079;66.878079;66.878079;;;;;;02.02.01;1;2023-11-10_15h41.55.444;REPSWITCH1_version2_list1;2022.2.4;144.0025806;
REPSWITCH1/PICTURE_135.png;traje;type;gold;switch;1;T;1;1;1;2;Stim3_Set1;0;None;10;9;10;0;9;9;9;;;;;;;;;;;;;;;;;;;;;;;67.3781223;68.4963336;68.4963336;68.4963336;68.4963336;68.4963336;68.4963336;68.4963336;68.4963336;['t', 'r', 'a', 'j', 'e'];0;[1.0325067000230774, 1.2537669999874197, 1.429063000017777, 1.7692509000189602, 1.970903699984774];traje;C:\2023\REPSWITCH21092023\REPSWITCH_excgange\REPSWITCH_excgange\data/02.02.01_REPSWITCH1_version2_list1_2023-11-10_15h41.55.444_micRespv2l1_recorded\recording_micRespv2l1_2023-11-10_15h42.58.366.wav;71.5175156;72.0176135;None;71.5175156;71.5175156;71.5175156;71.5175156;71.5175156;71.5175156;;;;;;02.02.01;1;2023-11-10_15h41.55.444;REPSWITCH1_version2_list1;2022.2.4;144.0025806;
REPSWITCH1/PICTURE_687.png;camisa;speak;darkblue;filler;2;F;1;1;1;2;Stim5_Set4;0;None;11;10;11;0;10;10;10;;;;;;;;;;;;;;;;;;;;;;;72.0176135;73.1566479;73.1566479;73.1566479;73.1566479;73.1566479;73.1566479;73.1566479;73.1566479;None;0;;;C:\2023\REPSWITCH21092023\REPSWITCH_excgange\REPSWITCH_excgange\data/02.02.01_REPSWITCH1_version2_list1_2023-11-10_15h41.55.444_micRespv2l1_recorded\recording_micRespv2l1_2023-11-10_15h43.03.028.wav;76.1848312;;None;76.1848312;76.1848312;76.1848312;76.1848312;76.1848312;76.1848312;;;;;;02.02.01;1;2023-11-10_15h41.55.444;REPSWITCH1_version2_list1;2022.2.4;144.0025806;
REPSWITCH1/PICTURE_128.png;muñeca;type;gold;nontarget;1;NT;1;1;1;2;Stim4_Set1;1;switch;12;11;12;0;11;11;11;;;;;;;;;;;;;;;;;;;;;;;76.6849507;77.9003143;77.9003143;77.9003143;77.9003143;77.9003143;77.9003143;77.9003143;77.9003143;['m', 'u', 'ñ', 'e', 'c', 'a'];0;[1.3044340999913402, 1.5258615000057034, 1.9332502000033855, 2.0917071999865584, 2.4722861000336707, 2.607809300010558];muñeca;C:\2023\REPSWITCH21092023\REPSWITCH_excgange\REPSWITCH_excgange\data/02.02.01_REPSWITCH1_version2_list1_2023-11-10_15h41.55.444_micRespv2l1_recorded\recording_micRespv2l1_2023-11-10_15h43.07.770.wav;80.9215336;81.421681;None;80.9215336;80.9215336;80.9215336;80.9215336;80.9215336;80.9215336;;;;;;02.02.01;1;2023-11-10_15h41.55.444;REPSWITCH1_version2_list1;2022.2.4;144.0025806;
REPSWITCH1/PICTURE_128.png;muñeca;speak;darkblue;switch;2;T;1;1;1;2;Stim4_Set1;0;None;13;12;13;0;12;12;12;;;;;;;;;;;;;;;;;;;;;;;81.421681;82.5190001;82.5190001;82.5190001;82.5190001;82.5190001;82.5190001;82.5190001;82.5190001;None;0;;;C:\2023\REPSWITCH21092023\REPSWITCH_excgange\REPSWITCH_excgange\data/02.02.01_REPSWITCH1_version2_list1_2023-11-10_15h41.55.444_micRespv2l1_recorded\recording_micRespv2l1_2023-11-10_15h43.12.388.wav;85.5402272;86.0402816;None;85.5402272;85.5402272;85.5402272;85.5402272;85.5402272;85.5402272;;;;;;02.02.01;1;2023-11-10_15h41.55.444;REPSWITCH1_version2_list1;2022.2.4;144.0025806;
REPSWITCH1/PICTURE_8.png;pierna;speak;darkblue;filler;2;F;1;1;1;2;Stim3_Set4;0;None;14;13;14;0;13;13;13;;;;;;;;;;;;;;;;;;;;;;;86.0402816;87.1238069;87.1238069;87.1238069;87.1238069;87.1238069;87.1238069;87.1238069;87.1238069;None;0;;;C:\2023\REPSWITCH21092023\REPSWITCH_excgange\REPSWITCH_excgange\data/02.02.01_REPSWITCH1_version2_list1_2023-11-10_15h41.55.444_micRespv2l1_recorded\recording_micRespv2l1_2023-11-10_15h43.16.993.wav;90.1519198;;None;90.1519198;90.1519198;90.1519198;90.1519198;90.1519198;90.1519198;;;;;;02.02.01;1;2023-11-10_15h41.55.444;REPSWITCH1_version2_list1;2022.2.4;144.0025806;
REPSWITCH1/PICTURE_19.png;pavo;speak;darkblue;nontarget;2;NT;1;1;1;2;Stim5_Set1;0;None;15;14;15;0;14;14;14;;;;;;;;;;;;;;;;;;;;;;;90.6519955;91.7840815;91.7840815;91.7840815;91.7840815;91.7840815;91.7840815;91.7840815;91.7840815;None;0;;;C:\2023\REPSWITCH21092023\REPSWITCH_excgange\REPSWITCH_excgange\data/02.02.01_REPSWITCH1_version2_list1_2023-11-10_15h41.55.444_micRespv2l1_recorded\recording_micRespv2l1_2023-11-10_15h43.21.654.wav;94.8053009;95.3054351;None;94.8053009;94.8053009;94.8053009;94.8053009;94.8053009;94.8053009;;;;;;02.02.01;1;2023-11-10_15h41.55.444;REPSWITCH1_version2_list1;2022.2.4;144.0025806;
REPSWITCH1/PICTURE_19.png;pavo;type;gold;switch;1;T;1;1;1;2;Stim5_Set1;0;None;16;15;16;0;15;15;15;;;;;;;;;;;;;;;;;;;;;;;95.3054351;96.3472404;96.3472404;96.3472404;96.3472404;96.3472404;96.3472404;96.3472404;96.3472404;['p', 'a', 'v', 'o'];0;[1.3202079000184312, 1.4421067999792285, 1.7815029000048526, 1.93895139999222];pavo;C:\2023\REPSWITCH21092023\REPSWITCH_excgange\REPSWITCH_excgange\data/02.02.01_REPSWITCH1_version2_list1_2023-11-10_15h41.55.444_micRespv2l1_recorded\recording_micRespv2l1_2023-11-10_15h43.26.217.wav;99.3753583;;None;99.3753583;99.3753583;99.3753583;99.3753583;99.3753583;99.3753583;;;;;;02.02.01;1;2023-11-10_15h41.55.444;REPSWITCH1_version2_list1;2022.2.4;144.0025806;
REPSWITCH1/PICTURE_16.png;cazador;type;gold;nontarget;1;NT;1;1;1;2;Stim6_Set1;1;switch;17;16;17;0;16;16;16;;;;;;;;;;;;;;;;;;;;;;;99.8753991;100.9311437;100.9311437;100.9311437;100.9311437;100.9311437;100.9311437;100.9311437;100.9311437;['c', 'a', 'z', 'a', 'd', 'o', 'r'];0;[1.0515481000184081, 1.204283899976872, 1.6651182000059634, 1.9320708999875933, 2.2559818000299856, 2.4403386000194587, 2.617769500007853];cazador;C:\2023\REPSWITCH21092023\REPSWITCH_excgange\REPSWITCH_excgange\data/02.02.01_REPSWITCH1_version2_list1_2023-11-10_15h41.55.444_micRespv2l1_recorded\recording_micRespv2l1_2023-11-10_15h43.30.801.wav;103.9523269;104.4523778;None;103.9523269;103.9523269;103.9523269;103.9523269;103.9523269;103.9523269;;;;;;02.02.01;1;2023-11-10_15h41.55.444;REPSWITCH1_version2_list1;2022.2.4;144.0025806;
REPSWITCH1/PICTURE_16.png;cazador;type;gold;repeat;1;T;1;1;1;2;Stim6_Set1;0;None;18;17;18;0;17;17;17;;;;;;;;;;;;;;;;;;;;;;;104.4523778;105.5359071;105.5359071;105.5359071;105.5359071;105.5359071;105.5359071;105.5359071;105.5359071;['c', 'a', 'z', 'a', 'd', 'o', 'r'];0;[0.9800879000104032, 1.092704100010451, 1.6651037000119686, 1.8016341000329703, 2.121823100023903, 2.2991930000134744, 2.4816237000050023];cazador;C:\2023\REPSWITCH21092023\REPSWITCH_excgange\REPSWITCH_excgange\data/02.02.01_REPSWITCH1_version2_list1_2023-11-10_15h41.55.444_micRespv2l1_recorded\recording_micRespv2l1_2023-11-10_15h43.35.406.wav;108.5640628;;None;108.5640628;108.5640628;108.5640628;108.5640628;108.5640628;108.5640628;;;;;;02.02.01;1;2023-11-10_15h41.55.444;REPSWITCH1_version2_list1;2022.2.4;144.0025806;
REPSWITCH1/PICTURE_498.png;taza;speak;darkblue;filler;2;F;1;1;1;2;Stim4_Set4;0;None;19;18;19;0;18;18;18;;;;;;;;;;;;;;;;;;;;;;;109.0641345;110.2240124;110.2240124;110.2240124;110.2240124;110.2240124;110.2240124;110.2240124;110.2240124;None;0;;;C:\2023\REPSWITCH21092023\REPSWITCH_excgange\REPSWITCH_excgange\data/02.02.01_REPSWITCH1_version2_list1_2023-11-10_15h41.55.444_micRespv2l1_recorded\recording_micRespv2l1_2023-11-10_15h43.40.095.wav;113.2521561;113.7522319;None;113.2521561;113.2521561;113.2521561;113.2521561;113.2521561;113.2521561;;;;;;02.02.01;1;2023-11-10_15h41.55.444;REPSWITCH1_version2_list1;2022.2.4;144.0025806;
REPSWITCH1/PICTURE_48.png;bombero;type;gold;filler;1;F;1;1;1;2;Stim7_Set4;0;None;20;19;20;0;19;19;19;;;;;;;;;;;;;;;;;;;;;;;113.7522319;114.828782;114.828782;114.828782;114.828782;114.828782;114.828782;114.828782;114.828782;['b', 'o', 'm', 'b', 'e', 'r', 'o'];0;[1.238722299982328, 1.3673486999468878, 1.615712099999655, 1.768222299986519, 2.00546769995708, 2.29665389994625, 2.4604860999970697];bombero;C:\2023\REPSWITCH21092023\REPSWITCH_excgange\REPSWITCH_excgange\data/02.02.01_REPSWITCH1_version2_list1_2023-11-10_15h41.55.444_micRespv2l1_recorded\recording_micRespv2l1_2023-11-10_15h43.44.698.wav;117.8500174;118.3500819;None;117.8500174;117.8500174;117.8500174;117.8500174;117.8500174;117.8500174;;;;;;02.02.01;1;2023-11-10_15h41.55.444;REPSWITCH1_version2_list1;2022.2.4;144.0025806;
REPSWITCH1/PICTURE_142.png;vaso;type;gold;nontarget;1;NT;1;1;1;2;Stim7_Set1;1;repeat;21;20;21;0;20;20;20;;;;;;;;;;;;;;;;;;;;;;;118.3500819;119.4961054;119.4961054;119.4961054;119.4961054;119.4961054;119.4961054;119.4961054;119.4961054;['v', 'a', 's', 'o'];0;[1.4640132000204176, 1.5368067999952473, 1.7842692999984138, 1.9590582000091672];vaso;C:\2023\REPSWITCH21092023\REPSWITCH_excgange\REPSWITCH_excgange\data/02.02.01_REPSWITCH1_version2_list1_2023-11-10_15h41.55.444_micRespv2l1_recorded\recording_micRespv2l1_2023-11-10_15h43.49.366.wav;122.5242975;;None;122.5242975;122.5242975;122.5242975;122.5242975;122.5242975;122.5242975;;;;;;02.02.01;1;2023-11-10_15h41.55.444;REPSWITCH1_version2_list1;2022.2.4;144.0025806;
REPSWITCH1/PICTURE_142.png;vaso;type;gold;repeat;1;T;1;1;1;2;Stim7_Set1;0;None;22;21;22;0;21;21;21;;;;;;;;;;;;;;;;;;;;;;;123.024283;124.1008294;124.1008294;124.1008294;124.1008294;124.1008294;124.1008294;124.1008294;124.1008294;['v', 'a', 's', 'o'];0;[0.9946514000184834, 1.0823874000343494, 1.307597600040026, 1.5069745000218973];vaso;C:\2023\REPSWITCH21092023\REPSWITCH_excgange\REPSWITCH_excgange\data/02.02.01_REPSWITCH1_version2_list1_2023-11-10_15h41.55.444_micRespv2l1_recorded\recording_micRespv2l1_2023-11-10_15h43.53.970.wav;127.1220486;127.6220759;None;127.1220486;127.1220486;127.1220486;127.1220486;127.1220486;127.1220486;;;;;;02.02.01;1;2023-11-10_15h41.55.444;REPSWITCH1_version2_list1;2022.2.4;144.0025806;
REPSWITCH1/PICTURE_338.png;regalo;speak;darkblue;filler;2;F;1;1;1;2;Stim6_Set4;1;switch;23;22;23;0;22;22;22;;;;;;;;;;;;;;;;;;;;;;;127.6220759;128.6569927;128.6569927;128.6569927;128.6569927;128.6569927;128.6569927;128.6569927;128.6569927;None;0;;;C:\2023\REPSWITCH21092023\REPSWITCH_excgange\REPSWITCH_excgange\data/02.02.01_REPSWITCH1_version2_list1_2023-11-10_15h41.55.444_micRespv2l1_recorded\recording_micRespv2l1_2023-11-10_15h43.58.527.wav;131.6851554;;None;131.6851554;131.6851554;131.6851554;131.6851554;131.6851554;131.6851554;;;;;;02.02.01;1;2023-11-10_15h41.55.444;REPSWITCH1_version2_list1;2022.2.4;144.0025806;
REPSWITCH1/PICTURE_728.png;pulpo;type;gold;filler;1;F;1;1;1;2;Stim8_Set4;1;switch;24;23;24;0;23;23;23;;;;;;;;;;;;;;;;;;;;;;;132.1852111;133.254784;133.254784;133.254784;133.254784;133.254784;133.254784;133.254784;133.254784;['p', 'u', 'l', 'p', 'o'];0;[1.4232424999936484, 1.7318396999617107, 2.0278893999638967, 2.295654299960006, 2.6063362999702804];pulpo;C:\2023\REPSWITCH21092023\REPSWITCH_excgange\REPSWITCH_excgange\data/02.02.01_REPSWITCH1_version2_list1_2023-11-10_15h41.55.444_micRespv2l1_recorded\recording_micRespv2l1_2023-11-10_15h44.03.125.wav;136.2760242;136.7760904;None;136.2760242;136.2760242;136.2760242;136.2760242;136.2760242;136.2760242;;;;;;02.02.01;1;2023-11-10_15h41.55.444;REPSWITCH1_version2_list1;2022.2.4;144.0025806;
REPSWITCH1/PICTURE_169.png;espalda;type;gold;nontarget;1;NT;1;1;1;2;Stim8_Set1;1;repeat;25;24;25;0;24;24;24;;;;;;;;;;;;;;;;;;;;;;;136.7760904;137.8109614;137.8109614;137.8109614;137.8109614;137.8109614;137.8109614;137.8109614;137.8109614;['e', 's', 'p', 'a', 'l', 'd', 'a'];0;[1.1914302000077441, 1.423713099968154, 1.6469054999761283, 1.7505707999807782, 1.9412757999962196, 2.1651734999613836, 2.279806899954565];espalda;C:\2023\REPSWITCH21092023\REPSWITCH_excgange\REPSWITCH_excgange\data/02.02.01_REPSWITCH1_version2_list1_2023-11-10_15h41.55.444_micRespv2l1_recorded\recording_micRespv2l1_2023-11-10_15h44.07.680.wav;140.8322495;141.3322607;None;140.8322495;140.8322495;140.8322495;140.8322495;140.8322495;140.8322495;;;;;;02.02.01;1;2023-11-10_15h41.55.444;REPSWITCH1_version2_list1;2022.2.4;144.0025806;
REPSWITCH1/PICTURE_169.png;espalda;speak;darkblue;switch;2;T;1;1;1;2;Stim8_Set1;0;None;26;25;26;0;25;25;25;;;;;;;;;;;;;;;;;;;;;;;141.3322607;142.3879956;142.3879956;142.3879956;142.3879956;142.3879956;142.3879956;142.3879956;142.3879956;None;0;;;C:\2023\REPSWITCH21092023\REPSWITCH_excgange\REPSWITCH_excgange\data/02.02.01_REPSWITCH1_version2_list1_2023-11-10_15h41.55.444_micRespv2l1_recorded\recording_micRespv2l1_2023-11-10_15h44.12.257.wav;145.4091654;145.9092322;None;145.4091654;145.4091654;145.4091654;145.4091654;145.4091654;145.4091654;;;;;;02.02.01;1;2023-11-10_15h41.55.444;REPSWITCH1_version2_list1;2022.2.4;144.0025806;
REPSWITCH1/PICTURE_178.png;puente;speak;darkblue;filler;2;F;2;1;1;2;Stim1_Set1;0;None;27;26;27;0;26;26;26;;;;;;;;;;;;;;;;;;;;;;;145.9092322;147.0274205;147.0274205;147.0274205;147.0274205;147.0274205;147.0274205;147.0274205;147.0274205;None;0;;;C:\2023\REPSWITCH21092023\REPSWITCH_excgange\REPSWITCH_excgange\data/02.02.01_REPSWITCH1_version2_list1_2023-11-10_15h41.55.444_micRespv2l1_recorded\recording_micRespv2l1_2023-11-10_15h44.16.897.wav;150.0486846;150.5487215;None;150.0486846;150.0486846;150.0486846;150.0486846;150.0486846;150.0486846;;;;;;02.02.01;1;2023-11-10_15h41.55.444;REPSWITCH1_version2_list1;2022.2.4;144.0025806;
REPSWITCH1/PICTURE_175.png;pintor;type;gold;nontarget;1;NT;2;1;1;2;Stim1_Set2;1;switch;28;27;28;0;27;27;27;;;;;;;;;;;;;;;;;;;;;;;150.5487215;151.6461513;151.6461513;151.6461513;151.6461513;151.6461513;151.6461513;151.6461513;151.6461513;['p', 'i', 'n', 't', 'o', 'r'];0;[1.483890000032261, 1.7231037000310607, 1.9592751000309363, 2.124970000004396, 2.357932200015057, 2.571534899994731];pintor;C:\2023\REPSWITCH21092023\REPSWITCH_excgange\REPSWITCH_excgange\data/02.02.01_REPSWITCH1_version2_list1_2023-11-10_15h41.55.444_micRespv2l1_recorded\recording_micRespv2l1_2023-11-10_15h44.21.516.wav;154.6672937;155.1674208;None;154.6672937;154.6672937;154.6672937;154.6672937;154.6672937;154.6672937;;;;;;02.02.01;1;2023-11-10_15h41.55.444;REPSWITCH1_version2_list1;2022.2.4;144.0025806;
REPSWITCH1/PICTURE_175.png;pintor;type;gold;repeat;1;T;2;1;1;2;Stim1_Set2;0;None;29;28;29;0;28;28;28;;;;;;;;;;;;;;;;;;;;;;;155.1674208;156.3342576;156.3342576;156.3342576;156.3342576;156.3342576;156.3342576;156.3342576;156.3342576;['p', 'i', 'n', 't', 'o', 'r'];0;[1.0381535000051372, 1.30121380003402, 1.5397040999960154, 1.8878735000034794, 2.0749473000178114, 2.200400600035209];pintor;C:\2023\REPSWITCH21092023\REPSWITCH_excgange\REPSWITCH_excgange\data/02.02.01_REPSWITCH1_version2_list1_2023-11-10_15h41.55.444_micRespv2l1_recorded\recording_micRespv2l1_2023-11-10_15h44.26.204.wav;159.3554126;159.8555471;None;159.3554126;159.3554126;159.3554126;159.3554126;159.3554126;159.3554126;;;;;;02.02.01;1;2023-11-10_15h41.55.444;REPSWITCH1_version2_list1;2022.2.4;144.0025806;
REPSWITCH1/PICTURE_381.png;fresa;speak;darkblue;filler;2;F;2;1;1;2;Stim2_Set1;0;None;30;29;30;0;29;29;29;;;;;;;;;;;;;;;;;;;;;;;159.8555471;160.9181768;160.9181768;160.9181768;160.9181768;160.9181768;160.9181768;160.9181768;160.9181768;None;0;;;C:\2023\REPSWITCH21092023\REPSWITCH_excgange\REPSWITCH_excgange\data/02.02.01_REPSWITCH1_version2_list1_2023-11-10_15h41.55.444_micRespv2l1_recorded\recording_micRespv2l1_2023-11-10_15h44.30.788.wav;163.9393413;164.4394073;None;163.9393413;163.9393413;163.9393413;163.9393413;163.9393413;163.9393413;;;;;;02.02.01;1;2023-11-10_15h41.55.444;REPSWITCH1_version2_list1;2022.2.4;144.0025806;
REPSWITCH1/PICTURE_152.png;caracol;type;gold;nontarget;1;NT;2;1;1;2;Stim2_Set2;1;switch;31;30;31;0;30;30;30;;;;;;;;;;;;;;;;;;;;;;;164.4394073;165.4534571;165.4534571;165.4534571;165.4534571;165.4534571;165.4534571;165.4534571;165.4534571;['c', 'a', 'r', 'a', 'c', 'o', 'l'];0;[1.1593524999916553, 1.2319402000284754, 1.5040685000130907, 1.623668499989435, 1.9259448000229895, 2.6761063000303693, 2.8554630000144243];caracol;C:\2023\REPSWITCH21092023\REPSWITCH_excgange\REPSWITCH_excgange\data/02.02.01_REPSWITCH1_version2_list1_2023-11-10_15h41.55.444_micRespv2l1_recorded\recording_micRespv2l1_2023-11-10_15h44.35.323.wav;168.4746841;168.9747465;None;168.4746841;168.4746841;168.4746841;168.4746841;168.4746841;168.4746841;;;;;;02.02.01;1;2023-11-10_15h41.55.444;REPSWITCH1_version2_list1;2022.2.4;144.0025806;
REPSWITCH1/PICTURE_152.png;caracol;type;gold;repeat;1;T;2;1;1;2;Stim2_Set2;0;None;32;31;32;0;31;31;31;;;;;;;;;;;;;;;;;;;;;;;168.9747465;170.1276912;170.1276912;170.1276912;170.1276912;170.1276912;170.1276912;170.1276912;170.1276912;['c', 'a', 'r', 'a', 'c', 'o', 'l'];0;[0.8909112999681383, 0.9676541999797337, 1.4732065999996848, 1.6452539999736473, 2.235954199975822, 2.370464399980847, 2.544877099979203];caracol;C:\2023\REPSWITCH21092023\REPSWITCH_excgange\REPSWITCH_excgange\data/02.02.01_REPSWITCH1_version2_list1_2023-11-10_15h41.55.444_micRespv2l1_recorded\recording_micRespv2l1_2023-11-10_15h44.39.997.wav;173.1489073;173.6490169;None;173.1489073;173.1489073;173.1489073;173.1489073;173.1489073;173.1489073;;;;;;02.02.01;1;2023-11-10_15h41.55.444;REPSWITCH1_version2_list1;2022.2.4;144.0025806;
REPSWITCH1/PICTURE_128.png;muñeca;speak;darkblue;filler;2;F;2;1;1;2;Stim4_Set1;0;None;33;32;33;0;32;32;32;;;;;;;;;;;;;;;;;;;;;;;173.6490169;174.6907903;174.6907903;174.6907903;174.6907903;174.6907903;174.6907903;174.6907903;174.6907903;None;0;;;C:\2023\REPSWITCH21092023\REPSWITCH_excgange\REPSWITCH_excgange\data/02.02.01_REPSWITCH1_version2_list1_2023-11-10_15h41.55.444_micRespv2l1_recorded\recording_micRespv2l1_2023-11-10_15h44.44.561.wav;177.7189511;;None;177.7189511;177.7189511;177.7189511;177.7189511;177.7189511;177.7189511;;;;;;02.02.01;1;2023-11-10_15h41.55.444;REPSWITCH1_version2_list1;2022.2.4;144.0025806;
REPSWITCH1/PICTURE_264.png;mano;type;gold;nontarget;1;NT;2;1;1;2;Stim3_Set2;0;None;34;33;34;0;33;33;33;;;;;;;;;;;;;;;;;;;;;;;178.219085;179.4205469;179.4205469;179.4205469;179.4205469;179.4205469;179.4205469;179.4205469;179.4205469;['m', 'a', 'n', 'o'];0;[1.3396506999852136, 1.45239930000389, 1.5917984999832697, 1.8230283000157215];mano;C:\2023\REPSWITCH21092023\REPSWITCH_excgange\REPSWITCH_excgange\data/02.02.01_REPSWITCH1_version2_list1_2023-11-10_15h41.55.444_micRespv2l1_recorded\recording_micRespv2l1_2023-11-10_15h44.49.291.wav;182.441799;182.9418517;None;182.441799;182.441799;182.441799;182.441799;182.441799;182.441799;;;;;;02.02.01;1;2023-11-10_15h41.55.444;REPSWITCH1_version2_list1;2022.2.4;144.0025806;
REPSWITCH1/PICTURE_264.png;mano;speak;darkblue;switch;2;T;2;1;1;2;Stim3_Set2;0;None;35;34;35;0;34;34;34;;;;;;;;;;;;;;;;;;;;;;;182.9418517;184.0183917;184.0183917;184.0183917;184.0183917;184.0183917;184.0183917;184.0183917;184.0183917;None;0;;;C:\2023\REPSWITCH21092023\REPSWITCH_excgange\REPSWITCH_excgange\data/02.02.01_REPSWITCH1_version2_list1_2023-11-10_15h41.55.444_micRespv2l1_recorded\recording_micRespv2l1_2023-11-10_15h44.53.889.wav;187.0465792;187.5466075;None;187.0465792;187.0465792;187.0465792;187.0465792;187.0465792;187.0465792;;;;;;02.02.01;1;2023-11-10_15h41.55.444;REPSWITCH1_version2_list1;2022.2.4;144.0025806;
REPSWITCH1/PICTURE_517.png;cuerda;speak;darkblue;nontarget;2;NT;2;1;1;2;Stim4_Set2;1;repeat;36;35;36;0;35;35;35;;;;;;;;;;;;;;;;;;;;;;;187.5466075;188.6231608;188.6231608;188.6231608;188.6231608;188.6231608;188.6231608;188.6231608;188.6231608;None;0;;;C:\2023\REPSWITCH21092023\REPSWITCH_excgange\REPSWITCH_excgange\data/02.02.01_REPSWITCH1_version2_list1_2023-11-10_15h41.55.444_micRespv2l1_recorded\recording_micRespv2l1_2023-11-10_15h44.58.493.wav;191.6444249;192.1444199;None;191.6444249;191.6444249;191.6444249;191.6444249;191.6444249;191.6444249;;;;;;02.02.01;1;2023-11-10_15h41.55.444;REPSWITCH1_version2_list1;2022.2.4;144.0025806;
REPSWITCH1/PICTURE_517.png;cuerda;type;gold;switch;1;T;2;1;1;2;Stim4_Set2;0;None;37;36;37;0;36;36;36;;;;;;;;;;;;;;;;;;;;;;;192.1444199;193.1654321;193.1654321;193.1654321;193.1654321;193.1654321;193.1654321;193.1654321;193.1654321;['c', 'u', 'e', 'r', 'd', 'a'];0;[1.0203337999992073, 1.1799635000061244, 1.3348211999982595, 1.5285481000319123, 1.7431848000269383, 1.8867036000010557];cuerda;C:\2023\REPSWITCH21092023\REPSWITCH_excgange\REPSWITCH_excgange\data/02.02.01_REPSWITCH1_version2_list1_2023-11-10_15h41.55.444_micRespv2l1_recorded\recording_micRespv2l1_2023-11-10_15h45.03.036.wav;196.1935928;;None;196.1935928;196.1935928;196.1935928;196.1935928;196.1935928;196.1935928;;;;;;02.02.01;1;2023-11-10_15h41.55.444;REPSWITCH1_version2_list1;2022.2.4;144.0025806;
REPSWITCH1/PICTURE_135.png;traje;type;gold;filler;1;F;2;1;1;2;Stim3_Set1;0;None;38;37;38;0;37;37;37;;;;;;;;;;;;;;;;;;;;;;;196.6936166;197.7910358;197.7910358;197.7910358;197.7910358;197.7910358;197.7910358;197.7910358;197.7910358;['t', 'r', 'a', 'j', 'e'];0;[1.124839800002519, 1.3112584000336938, 1.441060799988918, 1.746428799990099, 1.875899400038179];traje;C:\2023\REPSWITCH21092023\REPSWITCH_excgange\REPSWITCH_excgange\data/02.02.01_REPSWITCH1_version2_list1_2023-11-10_15h41.55.444_micRespv2l1_recorded\recording_micRespv2l1_2023-11-10_15h45.07.660.wav;200.8123112;201.3122907;None;200.8123112;200.8123112;200.8123112;200.8123112;200.8123112;200.8123112;;;;;;02.02.01;1;2023-11-10_15h41.55.444;REPSWITCH1_version2_list1;2022.2.4;144.0025806;
REPSWITCH1/PICTURE_30.png;granja;type;gold;nontarget;1;NT;2;1;1;2;Stim5_Set2;1;repeat;39;38;39;0;38;38;38;;;;;;;;;;;;;;;;;;;;;;;201.3122907;202.4166392;202.4166392;202.4166392;202.4166392;202.4166392;202.4166392;202.4166392;202.4166392;['g', 'r', 'a', 'n', 'j', 'a'];0;[1.1499793999828398, 1.345317100000102, 1.4828484999598004, 1.8783543999888934, 2.0518072999548167, 2.135931500000879];granja;C:\2023\REPSWITCH21092023\REPSWITCH_excgange\REPSWITCH_excgange\data/02.02.01_REPSWITCH1_version2_list1_2023-11-10_15h41.55.444_micRespv2l1_recorded\recording_micRespv2l1_2023-11-10_15h45.12.286.wav;205.4447963;;None;205.4447963;205.4447963;205.4447963;205.4447963;205.4447963;205.4447963;;;;;;02.02.01;1;2023-11-10_15h41.55.444;REPSWITCH1_version2_list1;2022.2.4;144.0025806;
REPSWITCH1/PICTURE_30.png;granja;speak;darkblue;switch;2;T;2;1;1;2;Stim5_Set2;0;None;40;39;40;0;39;39;39;;;;;;;;;;;;;;;;;;;;;;;205.9448624;207.0699922;207.0699922;207.0699922;207.0699922;207.0699922;207.0699922;207.0699922;207.0699922;None;0;;;C:\2023\REPSWITCH21092023\REPSWITCH_excgange\REPSWITCH_excgange\data/02.02.01_REPSWITCH1_version2_list1_2023-11-10_15h41.55.444_micRespv2l1_recorded\recording_micRespv2l1_2023-11-10_15h45.16.941.wav;210.0981948;;None;210.0981948;210.0981948;210.0981948;210.0981948;210.0981948;210.0981948;;;;;;02.02.01;1;2023-11-10_15h41.55.444;REPSWITCH1_version2_list1;2022.2.4;144.0025806;
REPSWITCH1/PICTURE_142.png;vaso;type;gold;filler;1;F;2;1;1;2;Stim7_Set1;0;None;41;40;41;0;40;40;40;;;;;;;;;;;;;;;;;;;;;;;210.5982468;211.7581054;211.7581054;211.7581054;211.7581054;211.7581054;211.7581054;211.7581054;211.7581054;['v', 'a', 's', 'o'];0;[1.5877112000016496, 1.6743605000083335, 1.908880400005728, 2.0673565000179224];vaso;C:\2023\REPSWITCH21092023\REPSWITCH_excgange\REPSWITCH_excgange\data/02.02.01_REPSWITCH1_version2_list1_2023-11-10_15h41.55.444_micRespv2l1_recorded\recording_micRespv2l1_2023-11-10_15h45.21.628.wav;214.786255;;None;214.786255;214.786255;214.786255;214.786255;214.786255;214.786255;;;;;;02.02.01;1;2023-11-10_15h41.55.444;REPSWITCH1_version2_list1;2022.2.4;144.0025806;
REPSWITCH1/PICTURE_19.png;pavo;speak;darkblue;filler;2;F;2;1;1;2;Stim5_Set1;1;switch;42;41;42;0;41;41;41;;;;;;;;;;;;;;;;;;;;;;;215.2863473;216.3490165;216.3490165;216.3490165;216.3490165;216.3490165;216.3490165;216.3490165;216.3490165;None;0;;;C:\2023\REPSWITCH21092023\REPSWITCH_excgange\REPSWITCH_excgange\data/02.02.01_REPSWITCH1_version2_list1_2023-11-10_15h41.55.444_micRespv2l1_recorded\recording_micRespv2l1_2023-11-10_15h45.26.219.wav;219.3771722;;None;219.3771722;219.3771722;219.3771722;219.3771722;219.3771722;219.3771722;;;;;;02.02.01;1;2023-11-10_15h41.55.444;REPSWITCH1_version2_list1;2022.2.4;144.0025806;
REPSWITCH1/PICTURE_552.png;manzana;speak;darkblue;nontarget;2;NT;2;1;1;2;Stim6_Set2;1;repeat;43;42;43;0;42;42;42;;;;;;;;;;;;;;;;;;;;;;;219.8772383;220.9051712;220.9051712;220.9051712;220.9051712;220.9051712;220.9051712;220.9051712;220.9051712;None;0;;;C:\2023\REPSWITCH21092023\REPSWITCH_excgange\REPSWITCH_excgange\data/02.02.01_REPSWITCH1_version2_list1_2023-11-10_15h41.55.444_micRespv2l1_recorded\recording_micRespv2l1_2023-11-10_15h45.30.775.wav;223.9333036;;None;223.9333036;223.9333036;223.9333036;223.9333036;223.9333036;223.9333036;;;;;;02.02.01;1;2023-11-10_15h41.55.444;REPSWITCH1_version2_list1;2022.2.4;144.0025806;
REPSWITCH1/PICTURE_552.png;manzana;speak;darkblue;repeat;2;T;2;1;1;2;Stim6_Set2;0;None;44;43;44;0;43;43;43;;;;;;;;;;;;;;;;;;;;;;;224.4334465;225.5030405;225.5030405;225.5030405;225.5030405;225.5030405;225.5030405;225.5030405;225.5030405;None;0;;;C:\2023\REPSWITCH21092023\REPSWITCH_excgange\REPSWITCH_excgange\data/02.02.01_REPSWITCH1_version2_list1_2023-11-10_15h41.55.444_micRespv2l1_recorded\recording_micRespv2l1_2023-11-10_15h45.35.373.wav;228.5312052;;None;228.5312052;228.5312052;228.5312052;228.5312052;228.5312052;228.5312052;;;;;;02.02.01;1;2023-11-10_15h41.55.444;REPSWITCH1_version2_list1;2022.2.4;144.0025806;
REPSWITCH1/PICTURE_16.png;cazador;type;gold;filler;1;F;2;1;1;2;Stim6_Set1;0;None;45;44;45;0;44;44;44;;;;;;;;;;;;;;;;;;;;;;;229.0312151;230.177198;230.177198;230.177198;230.177198;230.177198;230.177198;230.177198;230.177198;['c', 'a', 'z', 'a', 'd', 'o', 'r'];0;[1.1533661000430584, 1.2620300000417046, 1.5231502000242472, 1.648769400024321, 1.8932483000098728, 2.1971510000294074, 2.355090500030201];cazador;C:\2023\REPSWITCH21092023\REPSWITCH_excgange\REPSWITCH_excgange\data/02.02.01_REPSWITCH1_version2_list1_2023-11-10_15h41.55.444_micRespv2l1_recorded\recording_micRespv2l1_2023-11-10_15h45.40.048.wav;233.2053489;;None;233.2053489;233.2053489;233.2053489;233.2053489;233.2053489;233.2053489;;;;;;02.02.01;1;2023-11-10_15h41.55.444;REPSWITCH1_version2_list1;2022.2.4;144.0025806;
REPSWITCH1/PICTURE_446.png;cerdo;speak;darkblue;nontarget;2;NT;2;1;1;2;Stim7_Set2;1;switch;46;45;46;0;45;45;45;;;;;;;;;;;;;;;;;;;;;;;233.7054025;234.8792208;234.8792208;234.8792208;234.8792208;234.8792208;234.8792208;234.8792208;234.8792208;None;0;;;C:\2023\REPSWITCH21092023\REPSWITCH_excgange\REPSWITCH_excgange\data/02.02.01_REPSWITCH1_version2_list1_2023-11-10_15h41.55.444_micRespv2l1_recorded\recording_micRespv2l1_2023-11-10_15h45.44.749.wav;237.9073545;;None;237.9073545;237.9073545;237.9073545;237.9073545;237.9073545;237.9073545;;;;;;02.02.01;1;2023-11-10_15h41.55.444;REPSWITCH1_version2_list1;2022.2.4;144.0025806;
REPSWITCH1/PICTURE_446.png;cerdo;speak;darkblue;repeat;2;T;2;1;1;2;Stim7_Set2;0;None;47;46;47;0;46;46;46;;;;;;;;;;;;;;;;;;;;;;;238.4074243;239.4978811;239.4978811;239.4978811;239.4978811;239.4978811;239.4978811;239.4978811;239.4978811;None;0;;;C:\2023\REPSWITCH21092023\REPSWITCH_excgange\REPSWITCH_excgange\data/02.02.01_REPSWITCH1_version2_list1_2023-11-10_15h41.55.444_micRespv2l1_recorded\recording_micRespv2l1_2023-11-10_15h45.49.367.wav;242.5190918;243.0191436;None;242.5190918;242.5190918;242.5190918;242.5190918;242.5190918;242.5190918;;;;;;02.02.01;1;2023-11-10_15h41.55.444;REPSWITCH1_version2_list1;2022.2.4;144.0025806;
REPSWITCH1/PICTURE_590.png;escoba;type;gold;filler;1;F;2;1;1;2;Extra3;0;None;48;47;48;0;47;47;47;;;;;;;;;;;;;;;;;;;;;;;243.0191436;244.0818081;244.0818081;244.0818081;244.0818081;244.0818081;244.0818081;244.0818081;244.0818081;['e', 's', 'c', 'o', 'b', 'a'];0;[0.9598552999668755, 1.19301639997866, 1.4750683999736793, 1.6189211999881081, 1.8840397999738343, 2.0424715999979526];escoba;C:\2023\REPSWITCH21092023\REPSWITCH_excgange\REPSWITCH_excgange\data/02.02.01_REPSWITCH1_version2_list1_2023-11-10_15h41.55.444_micRespv2l1_recorded\recording_micRespv2l1_2023-11-10_15h45.53.951.wav;247.103004;247.6030587;None;247.103004;247.103004;247.103004;247.103004;247.103004;247.103004;;;;;;02.02.01;1;2023-11-10_15h41.55.444;REPSWITCH1_version2_list1;2022.2.4;144.0025806;
REPSWITCH1/PICTURE_169.png;espalda;speak;darkblue;filler;2;F;2;1;1;2;Stim8_Set1;0;None;49;48;49;0;48;48;48;;;;;;;;;;;;;;;;;;;;;;;247.6030587;248.6519055;248.6519055;248.6519055;248.6519055;248.6519055;248.6519055;248.6519055;248.6519055;None;0;;;C:\2023\REPSWITCH21092023\REPSWITCH_excgange\REPSWITCH_excgange\data/02.02.01_REPSWITCH1_version2_list1_2023-11-10_15h41.55.444_micRespv2l1_recorded\recording_micRespv2l1_2023-11-10_15h45.58.522.wav;251.6730345;252.173207;None;251.6730345;251.6730345;251.6730345;251.6730345;251.6730345;251.6730345;;;;;;02.02.01;1;2023-11-10_15h41.55.444;REPSWITCH1_version2_list1;2022.2.4;144.0025806;
REPSWITCH1/PICTURE_199.png;falda;speak;darkblue;nontarget;2;NT;2;1;1;2;Stim8_Set2;1;repeat;50;49;50;0;49;49;49;;;;;;;;;;;;;;;;;;;;;;;252.173207;253.2010782;253.2010782;253.2010782;253.2010782;253.2010782;253.2010782;253.2010782;253.2010782;None;0;;;C:\2023\REPSWITCH21092023\REPSWITCH_excgange\REPSWITCH_excgange\data/02.02.01_REPSWITCH1_version2_list1_2023-11-10_15h41.55.444_micRespv2l1_recorded\recording_micRespv2l1_2023-11-10_15h46.03.071.wav;256.2222551;256.7223199;None;256.2222551;256.2222551;256.2222551;256.2222551;256.2222551;256.2222551;;;;;;02.02.01;1;2023-11-10_15h41.55.444;REPSWITCH1_version2_list1;2022.2.4;144.0025806;
REPSWITCH1/PICTURE_199.png;falda;type;gold;switch;1;T;2;1;1;2;Stim8_Set2;0;None;51;50;51;0;50;50;50;;;;;;;;;;;;;;;;;;;;;;;256.7223199;257.8406271;257.8406271;257.8406271;257.8406271;257.8406271;257.8406271;257.8406271;257.8406271;['f', 'a', 'l', 'd', 'a'];0;[1.0368075000005774, 1.1793266999884509, 1.3965745000168681, 1.5361846000305377, 1.6706742999958806];falda;C:\2023\REPSWITCH21092023\REPSWITCH_excgange\REPSWITCH_excgange\data/02.02.01_REPSWITCH1_version2_list1_2023-11-10_15h41.55.444_micRespv2l1_recorded\recording_micRespv2l1_2023-11-10_15h46.07.710.wav;260.86177;261.3618307;space;260.86177;260.86177;260.86177;260.86177;260.86177;260.86177;261.3618307;261.3618307;8.5612112;;;02.02.01;1;2023-11-10_15h41.55.444;REPSWITCH1_version2_list1;2022.2.4;144.0025806;
REPSWITCH1/PICTURE_576.png;guante;type;gold;nontarget;1;NT;3;1;1;2;Stim1_Set3;0;None;52;51;52;0;51;51;51;;;;;;;;;;;;;;;;;;;;;;;269.9324195;270.9534401;270.9534401;270.9534401;270.9534401;270.9534401;270.9534401;270.9534401;270.9534401;['g', 'u', 'a', 'n', 't', 'e'];0;[1.1724523999728262, 1.358819000015501, 1.4505973000195809, 1.6238548000110313, 1.8481076000025496, 1.9160518000135198];guante;C:\2023\REPSWITCH21092023\REPSWITCH_excgange\REPSWITCH_excgange\data/02.02.01_REPSWITCH1_version2_list1_2023-11-10_15h41.55.444_micRespv2l1_recorded\recording_micRespv2l1_2023-11-10_15h46.20.823.wav;273.981518;;None;273.981518;273.981518;273.981518;273.981518;273.981518;273.981518;;;;;;02.02.01;1;2023-11-10_15h41.55.444;REPSWITCH1_version2_list1;2022.2.4;144.0025806;
REPSWITCH1/PICTURE_576.png;guante;speak;darkblue;switch;2;T;3;1;1;2;Stim1_Set3;0;None;53;52;53;0;52;52;52;;;;;;;;;;;;;;;;;;;;;;;274.4816134;275.5859416;275.5859416;275.5859416;275.5859416;275.5859416;275.5859416;275.5859416;275.5859416;None;0;;;C:\2023\REPSWITCH21092023\REPSWITCH_excgange\REPSWITCH_excgange\data/02.02.01_REPSWITCH1_version2_list1_2023-11-10_15h41.55.444_micRespv2l1_recorded\recording_micRespv2l1_2023-11-10_15h46.25.456.wav;278.6071559;279.1072108;None;278.6071559;278.6071559;278.6071559;278.6071559;278.6071559;278.6071559;;;;;;02.02.01;1;2023-11-10_15h41.55.444;REPSWITCH1_version2_list1;2022.2.4;144.0025806;
REPSWITCH1/PICTURE_646.png;tronco;speak;darkblue;filler;2;F;3;1;1;2;Extra4;0;None;54;53;54;0;53;53;53;;;;;;;;;;;;;;;;;;;;;;;279.1072108;280.239291;280.239291;280.239291;280.239291;280.239291;280.239291;280.239291;280.239291;None;0;;;C:\2023\REPSWITCH21092023\REPSWITCH_excgange\REPSWITCH_excgange\data/02.02.01_REPSWITCH1_version2_list1_2023-11-10_15h41.55.444_micRespv2l1_recorded\recording_micRespv2l1_2023-11-10_15h46.30.110.wav;283.2605617;283.760603;None;283.2605617;283.2605617;283.2605617;283.2605617;283.2605617;283.2605617;;;;;;02.02.01;1;2023-11-10_15h41.55.444;REPSWITCH1_version2_list1;2022.2.4;144.0025806;
REPSWITCH1/PICTURE_610.png;miel;speak;darkblue;nontarget;2;NT;3;1;1;2;Stim2_Set3;1;repeat;55;54;55;0;54;54;54;;;;;;;;;;;;;;;;;;;;;;;283.760603;284.8163255;284.8163255;284.8163255;284.8163255;284.8163255;284.8163255;284.8163255;284.8163255;None;0;;;C:\2023\REPSWITCH21092023\REPSWITCH_excgange\REPSWITCH_excgange\data/02.02.01_REPSWITCH1_version2_list1_2023-11-10_15h41.55.444_micRespv2l1_recorded\recording_micRespv2l1_2023-11-10_15h46.34.686.wav;287.8444482;;None;287.8444482;287.8444482;287.8444482;287.8444482;287.8444482;287.8444482;;;;;;02.02.01;1;2023-11-10_15h41.55.444;REPSWITCH1_version2_list1;2022.2.4;144.0025806;
REPSWITCH1/PICTURE_610.png;miel;type;gold;switch;1;T;3;1;1;2;Stim2_Set3;0;None;56;55;56;0;55;55;55;;;;;;;;;;;;;;;;;;;;;;;288.3445398;289.4141338;289.4141338;289.4141338;289.4141338;289.4141338;289.4141338;289.4141338;289.4141338;['m', 'i', 'e', 'l'];0;[0.9746444000047632, 1.2315597000415437, 1.4030791000113823, 1.5763754000072367];miel;C:\2023\REPSWITCH21092023\REPSWITCH_excgange\REPSWITCH_excgange\data/02.02.01_REPSWITCH1_version2_list1_2023-11-10_15h41.55.444_micRespv2l1_recorded\recording_micRespv2l1_2023-11-10_15h46.39.284.wav;292.435329;292.9353966;None;292.435329;292.435329;292.435329;292.435329;292.435329;292.435329;;;;;;02.02.01;1;2023-11-10_15h41.55.444;REPSWITCH1_version2_list1;2022.2.4;144.0025806;
REPSWITCH1/PICTURE_175.png;pintor;type;gold;filler;1;F;3;1;1;2;Stim1_Set2;1;repeat;57;56;57;0;56;56;56;;;;;;;;;;;;;;;;;;;;;;;292.9353966;293.9633563;293.9633563;293.9633563;293.9633563;293.9633563;293.9633563;293.9633563;293.9633563;['p', 'i', 'n', 't', 'o', 'r'];0;[1.0808335999608971, 1.368219899944961, 1.5705578999477439, 1.7402101999614388, 1.8807245999923907, 2.009658099967055];pintor;C:\2023\REPSWITCH21092023\REPSWITCH_excgange\REPSWITCH_excgange\data/02.02.01_REPSWITCH1_version2_list1_2023-11-10_15h41.55.444_micRespv2l1_recorded\recording_micRespv2l1_2023-11-10_15h46.43.833.wav;296.9845642;297.4846288;None;296.9845642;296.9845642;296.9845642;296.9845642;296.9845642;296.9845642;;;;;;02.02.01;1;2023-11-10_15h41.55.444;REPSWITCH1_version2_list1;2022.2.4;144.0025806;
REPSWITCH1/PICTURE_242.png;cartero;type;gold;nontarget;1;NT;3;1;1;2;Stim3_Set3;1;repeat;58;57;58;0;57;57;57;;;;;;;;;;;;;;;;;;;;;;;297.4846288;298.5681107;298.5681107;298.5681107;298.5681107;298.5681107;298.5681107;298.5681107;298.5681107;['c', 'a', 'r', 't', 'e', 'r', 'o'];0;[1.3835549999494106, 1.5129349999479018, 1.6952224999549799, 1.8706275000004098, 1.9802518999786116, 2.2226607999764383, 2.3797969999723136];cartero;C:\2023\REPSWITCH21092023\REPSWITCH_excgange\REPSWITCH_excgange\data/02.02.01_REPSWITCH1_version2_list1_2023-11-10_15h41.55.444_micRespv2l1_recorded\recording_micRespv2l1_2023-11-10_15h46.48.438.wav;301.5893054;302.0893723;None;301.5893054;301.5893054;301.5893054;301.5893054;301.5893054;301.5893054;;;;;;02.02.01;1;2023-11-10_15h41.55.444;REPSWITCH1_version2_list1;2022.2.4;144.0025806;
REPSWITCH1/PICTURE_242.png;cartero;speak;darkblue;switch;2;T;3;1;1;2;Stim3_Set3;0;None;59;58;59;0;58;58;58;;;;;;;;;;;;;;;;;;;;;;;302.0893723;303.2076063;303.2076063;303.2076063;303.2076063;303.2076063;303.2076063;303.2076063;303.2076063;None;0;;;C:\2023\REPSWITCH21092023\REPSWITCH_excgange\REPSWITCH_excgange\data/02.02.01_REPSWITCH1_version2_list1_2023-11-10_15h41.55.444_micRespv2l1_recorded\recording_micRespv2l1_2023-11-10_15h46.53.078.wav;306.2357705;;None;306.2357705;306.2357705;306.2357705;306.2357705;306.2357705;306.2357705;;;;;;02.02.01;1;2023-11-10_15h41.55.444;REPSWITCH1_version2_list1;2022.2.4;144.0025806;
REPSWITCH1/PICTURE_152.png;caracol;speak;darkblue;filler;2;F;3;1;1;2;Stim2_Set2;0;None;60;59;60;0;59;59;59;;;;;;;;;;;;;;;;;;;;;;;306.7358426;307.8054232;307.8054232;307.8054232;307.8054232;307.8054232;307.8054232;307.8054232;307.8054232;None;0;;;C:\2023\REPSWITCH21092023\REPSWITCH_excgange\REPSWITCH_excgange\data/02.02.01_REPSWITCH1_version2_list1_2023-11-10_15h41.55.444_micRespv2l1_recorded\recording_micRespv2l1_2023-11-10_15h46.57.675.wav;310.8266494;311.3267204;None;310.8266494;310.8266494;310.8266494;310.8266494;310.8266494;310.8266494;;;;;;02.02.01;1;2023-11-10_15h41.55.444;REPSWITCH1_version2_list1;2022.2.4;144.0025806;
REPSWITCH1/PICTURE_517.png;cuerda;type;gold;filler;1;F;3;1;1;2;Stim4_Set2;0;None;61;60;61;0;60;60;60;;;;;;;;;;;;;;;;;;;;;;;311.3267204;312.493607;312.493607;312.493607;312.493607;312.493607;312.493607;312.493607;312.493607;['c', 'u', 'e', 'r', 'd', 'a'];0;[1.1984078999958, 1.4126414000056684, 1.5544391000294127, 1.7069254000089131, 1.8395481000188738, 1.9898333000019193];cuerda;C:\2023\REPSWITCH21092023\REPSWITCH_excgange\REPSWITCH_excgange\data/02.02.01_REPSWITCH1_version2_list1_2023-11-10_15h41.55.444_micRespv2l1_recorded\recording_micRespv2l1_2023-11-10_15h47.02.364.wav;315.5217157;;None;315.5217157;315.5217157;315.5217157;315.5217157;315.5217157;315.5217157;;;;;;02.02.01;1;2023-11-10_15h41.55.444;REPSWITCH1_version2_list1;2022.2.4;144.0025806;
REPSWITCH1/PICTURE_235.png;aguja;speak;darkblue;nontarget;2;NT;3;1;1;2;Stim4_Set3;1;switch;62;61;62;0;61;61;61;;;;;;;;;;;;;;;;;;;;;;;316.021844;317.1469044;317.1469044;317.1469044;317.1469044;317.1469044;317.1469044;317.1469044;317.1469044;None;0;;;C:\2023\REPSWITCH21092023\REPSWITCH_excgange\REPSWITCH_excgange\data/02.02.01_REPSWITCH1_version2_list1_2023-11-10_15h41.55.444_micRespv2l1_recorded\recording_micRespv2l1_2023-11-10_15h47.07.016.wav;320.1681152;320.6681978;None;320.1681152;320.1681152;320.1681152;320.1681152;320.1681152;320.1681152;;;;;;02.02.01;1;2023-11-10_15h41.55.444;REPSWITCH1_version2_list1;2022.2.4;144.0025806;
REPSWITCH1/PICTURE_235.png;aguja;speak;darkblue;repeat;2;T;3;1;1;2;Stim4_Set3;0;None;63;62;63;0;62;62;62;;;;;;;;;;;;;;;;;;;;;;;320.6681978;321.710019;321.710019;321.710019;321.710019;321.710019;321.710019;321.710019;321.710019;None;0;;;C:\2023\REPSWITCH21092023\REPSWITCH_excgange\REPSWITCH_excgange\data/02.02.01_REPSWITCH1_version2_list1_2023-11-10_15h41.55.444_micRespv2l1_recorded\recording_micRespv2l1_2023-11-10_15h47.11.579.wav;324.7312321;325.2313639;None;324.7312321;324.7312321;324.7312321;324.7312321;324.7312321;324.7312321;;;;;;02.02.01;1;2023-11-10_15h41.55.444;REPSWITCH1_version2_list1;2022.2.4;144.0025806;
REPSWITCH1/PICTURE_30.png;granja;type;gold;filler;1;F;3;1;1;2;Stim5_Set2;0;None;64;63;64;0;63;63;63;;;;;;;;;;;;;;;;;;;;;;;325.2313639;326.3287703;326.3287703;326.3287703;326.3287703;326.3287703;326.3287703;326.3287703;326.3287703;['g', 'r', 'a', 'n', 'j', 'a'];0;[1.1656687000067905, 1.3769593999604695, 1.5185354999848641, 1.842458600003738, 2.033170699956827, 2.1703960999730043];granja;C:\2023\REPSWITCH21092023\REPSWITCH_excgange\REPSWITCH_excgange\data/02.02.01_REPSWITCH1_version2_list1_2023-11-10_15h41.55.444_micRespv2l1_recorded\recording_micRespv2l1_2023-11-10_15h47.16.199.wav;329.3568674;;None;329.3568674;329.3568674;329.3568674;329.3568674;329.3568674;329.3568674;;;;;;02.02.01;1;2023-11-10_15h41.55.444;REPSWITCH1_version2_list1;2022.2.4;144.0025806;
REPSWITCH1/PICTURE_552.png;manzana;speak;darkblue;filler;2;F;3;1;1;2;Stim6_Set2;1;switch;65;64;65;0;64;64;64;;;;;;;;;;;;;;;;;;;;;;;329.8568996;330.982084;330.982084;330.982084;330.982084;330.982084;330.982084;330.982084;330.982084;None;0;;;C:\2023\REPSWITCH21092023\REPSWITCH_excgange\REPSWITCH_excgange\data/02.02.01_REPSWITCH1_version2_list1_2023-11-10_15h41.55.444_micRespv2l1_recorded\recording_micRespv2l1_2023-11-10_15h47.20.852.wav;334.0102939;;None;334.0102939;334.0102939;334.0102939;334.0102939;334.0102939;334.0102939;;;;;;02.02.01;1;2023-11-10_15h41.55.444;REPSWITCH1_version2_list1;2022.2.4;144.0025806;
REPSWITCH1/PICTURE_35.png;oreja;speak;darkblue;nontarget;2;NT;3;1;1;2;Stim5_Set3;1;repeat;66;65;66;0;65;65;65;;;;;;;;;;;;;;;;;;;;;;;334.5103589;335.6840917;335.6840917;335.6840917;335.6840917;335.6840917;335.6840917;335.6840917;335.6840917;None;0;;;C:\2023\REPSWITCH21092023\REPSWITCH_excgange\REPSWITCH_excgange\data/02.02.01_REPSWITCH1_version2_list1_2023-11-10_15h41.55.444_micRespv2l1_recorded\recording_micRespv2l1_2023-11-10_15h47.25.554.wav;338.7052826;339.2053468;None;338.7052826;338.7052826;338.7052826;338.7052826;338.7052826;338.7052826;;;;;;02.02.01;1;2023-11-10_15h41.55.444;REPSWITCH1_version2_list1;2022.2.4;144.0025806;
REPSWITCH1/PICTURE_35.png;oreja;speak;darkblue;repeat;2;T;3;1;1;2;Stim5_Set3;0;None;67;66;67;0;66;66;66;;;;;;;;;;;;;;;;;;;;;;;339.2053468;340.2818915;340.2818915;340.2818915;340.2818915;340.2818915;340.2818915;340.2818915;340.2818915;None;0;;;C:\2023\REPSWITCH21092023\REPSWITCH_excgange\REPSWITCH_excgange\data/02.02.01_REPSWITCH1_version2_list1_2023-11-10_15h41.55.444_micRespv2l1_recorded\recording_micRespv2l1_2023-11-10_15h47.30.151.wav;343.3031329;343.8031908;None;343.3031329;343.3031329;343.3031329;343.3031329;343.3031329;343.3031329;;;;;;02.02.01;1;2023-11-10_15h41.55.444;REPSWITCH1_version2_list1;2022.2.4;144.0025806;
REPSWITCH1/PICTURE_673.png;tenedor;type;gold;filler;1;F;3;1;1;2;Extra5;0;None;68;67;68;0;67;67;67;;;;;;;;;;;;;;;;;;;;;;;343.8031908;344.8658424;344.8658424;344.8658424;344.8658424;344.8658424;344.8658424;344.8658424;344.8658424;['t', 'e', 'n', 'e', 'd', 'o', 'r'];0;[0.9921827999642119, 1.134120799950324, 1.313484399986919, 1.408199799945578, 1.6396825999836437, 1.794535499997437, 1.991111799958162];tenedor;C:\2023\REPSWITCH21092023\REPSWITCH_excgange\REPSWITCH_excgange\data/02.02.01_REPSWITCH1_version2_list1_2023-11-10_15h41.55.444_micRespv2l1_recorded\recording_micRespv2l1_2023-11-10_15h47.34.735.wav;347.88714;348.3871969;None;347.88714;347.88714;347.88714;347.88714;347.88714;347.88714;;;;;;02.02.01;1;2023-11-10_15h41.55.444;REPSWITCH1_version2_list1;2022.2.4;144.0025806;
REPSWITCH1/PICTURE_464.png;goma;speak;darkblue;nontarget;2;NT;3;1;1;2;Stim6_Set3;0;None;69;68;69;0;68;68;68;;;;;;;;;;;;;;;;;;;;;;;348.3871969;349.4984018;349.4984018;349.4984018;349.4984018;349.4984018;349.4984018;349.4984018;349.4984018;None;0;;;C:\2023\REPSWITCH21092023\REPSWITCH_excgange\REPSWITCH_excgange\data/02.02.01_REPSWITCH1_version2_list1_2023-11-10_15h41.55.444_micRespv2l1_recorded\recording_micRespv2l1_2023-11-10_15h47.39.368.wav;352.526583;;None;352.526583;352.526583;352.526583;352.526583;352.526583;352.526583;;;;;;02.02.01;1;2023-11-10_15h41.55.444;REPSWITCH1_version2_list1;2022.2.4;144.0025806;
REPSWITCH1/PICTURE_464.png;goma;type;gold;switch;1;T;3;1;1;2;Stim6_Set3;0;None;70;69;70;0;69;69;69;;;;;;;;;;;;;;;;;;;;;;;353.0266287;354.221234;354.221234;354.221234;354.221234;354.221234;354.221234;354.221234;354.221234;['g', 'o', 'm', 'a'];0;[0.826020399981644, 1.0242983999778517, 1.3122598999761976, 1.4448511999798939];goma;C:\2023\REPSWITCH21092023\REPSWITCH_excgange\REPSWITCH_excgange\data/02.02.01_REPSWITCH1_version2_list1_2023-11-10_15h41.55.444_micRespv2l1_recorded\recording_micRespv2l1_2023-11-10_15h47.44.090.wav;357.2424548;357.7425255;None;357.2424548;357.2424548;357.2424548;357.2424548;357.2424548;357.2424548;;;;;;02.02.01;1;2023-11-10_15h41.55.444;REPSWITCH1_version2_list1;2022.2.4;144.0025806;
REPSWITCH1/PICTURE_264.png;mano;speak;darkblue;filler;2;F;3;1;1;2;Stim3_Set2;0;None;71;70;71;0;70;70;70;;;;;;;;;;;;;;;;;;;;;;;357.7425255;358.9023714;358.9023714;358.9023714;358.9023714;358.9023714;358.9023714;358.9023714;358.9023714;None;0;;;C:\2023\REPSWITCH21092023\REPSWITCH_excgange\REPSWITCH_excgange\data/02.02.01_REPSWITCH1_version2_list1_2023-11-10_15h41.55.444_micRespv2l1_recorded\recording_micRespv2l1_2023-11-10_15h47.48.773.wav;361.9305689;;None;361.9305689;361.9305689;361.9305689;361.9305689;361.9305689;361.9305689;;;;;;02.02.01;1;2023-11-10_15h41.55.444;REPSWITCH1_version2_list1;2022.2.4;144.0025806;
REPSWITCH1/PICTURE_271.png;conejo;type;gold;nontarget;1;NT;3;1;1;2;Stim7_Set3;1;switch;72;71;72;0;71;71;71;;;;;;;;;;;;;;;;;;;;;;;362.4306212;363.5350062;363.5350062;363.5350062;363.5350062;363.5350062;363.5350062;363.5350062;363.5350062;['c', 'o', 'n', 'e', 'j', 'o'];0;[1.2017913999734446, 1.3843320999876596, 1.6305221999646164, 1.7873550999793224, 1.9371274000150152, 2.14546440000413];conejo;C:\2023\REPSWITCH21092023\REPSWITCH_excgange\REPSWITCH_excgange\data/02.02.01_REPSWITCH1_version2_list1_2023-11-10_15h41.55.444_micRespv2l1_recorded\recording_micRespv2l1_2023-11-10_15h47.53.405.wav;366.556185;367.0562887;None;366.556185;366.556185;366.556185;366.556185;366.556185;366.556185;;;;;;02.02.01;1;2023-11-10_15h41.55.444;REPSWITCH1_version2_list1;2022.2.4;144.0025806;
REPSWITCH1/PICTURE_271.png;conejo;type;gold;repeat;1;T;3;1;1;2;Stim7_Set3;0;None;73;72;73;0;72;72;72;;;;;;;;;;;;;;;;;;;;;;;367.0562887;368.0702923;368.0702923;368.0702923;368.0702923;368.0702923;368.0702923;368.0702923;368.0702923;['c', 'o', 'n', 'e', 'j', 'o'];0;[0.9033567999722436, 1.0658525999751873, 1.323992699966766, 1.447012199962046, 1.591928799985908, 1.819437799975276];conejo;C:\2023\REPSWITCH21092023\REPSWITCH_excgange\REPSWITCH_excgange\data/02.02.01_REPSWITCH1_version2_list1_2023-11-10_15h41.55.444_micRespv2l1_recorded\recording_micRespv2l1_2023-11-10_15h47.57.940.wav;371.0914678;371.5915568;None;371.0914678;371.0914678;371.0914678;371.0914678;371.0914678;371.0914678;;;;;;02.02.01;1;2023-11-10_15h41.55.444;REPSWITCH1_version2_list1;2022.2.4;144.0025806;
REPSWITCH1/PICTURE_446.png;cerdo;speak;darkblue;filler;2;F;3;1;1;2;Stim7_Set2;0;None;74;73;74;0;73;73;73;;;;;;;;;;;;;;;;;;;;;;;371.5915568;372.6542175;372.6542175;372.6542175;372.6542175;372.6542175;372.6542175;372.6542175;372.6542175;None;0;;;C:\2023\REPSWITCH21092023\REPSWITCH_excgange\REPSWITCH_excgange\data/02.02.01_REPSWITCH1_version2_list1_2023-11-10_15h41.55.444_micRespv2l1_recorded\recording_micRespv2l1_2023-11-10_15h48.02.525.wav;375.6823989;;None;375.6823989;375.6823989;375.6823989;375.6823989;375.6823989;375.6823989;;;;;;02.02.01;1;2023-11-10_15h41.55.444;REPSWITCH1_version2_list1;2022.2.4;144.0025806;
REPSWITCH1/PICTURE_199.png;falda;type;gold;filler;1;F;3;1;1;2;Stim8_Set2;1;switch;75;74;75;0;74;74;74;;;;;;;;;;;;;;;;;;;;;;;376.1824892;377.2520098;377.2520098;377.2520098;377.2520098;377.2520098;377.2520098;377.2520098;377.2520098;['f', 'a', 'l', 'd', 'a'];0;[1.0349767000298016, 1.190486800041981, 1.366701400023885, 1.5052032000385225, 1.6976073000114411];falda;C:\2023\REPSWITCH21092023\REPSWITCH_excgange\REPSWITCH_excgange\data/02.02.01_REPSWITCH1_version2_list1_2023-11-10_15h41.55.444_micRespv2l1_recorded\recording_micRespv2l1_2023-11-10_15h48.07.121.wav;380.2732181;380.7732896;None;380.2732181;380.2732181;380.2732181;380.2732181;380.2732181;380.2732181;;;;;;02.02.01;1;2023-11-10_15h41.55.444;REPSWITCH1_version2_list1;2022.2.4;144.0025806;
REPSWITCH1/PICTURE_320.png;iglesia;type;gold;nontarget;1;NT;3;1;1;2;Stim8_Set3;1;repeat;76;75;76;0;75;75;75;;;;;;;;;;;;;;;;;;;;;;;380.7732896;381.8498956;381.8498956;381.8498956;381.8498956;381.8498956;381.8498956;381.8498956;381.8498956;['i', 'g', 'l', 'e', 's', 'i', 'a'];0;[1.2528721999842674, 1.4895423999987543, 1.6519950999645516, 1.781562699994538, 2.025119799945969, 2.17170399997849, 2.2594089999911375];iglesia;C:\2023\REPSWITCH21092023\REPSWITCH_excgange\REPSWITCH_excgange\data/02.02.01_REPSWITCH1_version2_list1_2023-11-10_15h41.55.444_micRespv2l1_recorded\recording_micRespv2l1_2023-11-10_15h48.11.720.wav;384.8780179;;None;384.8780179;384.8780179;384.8780179;384.8780179;384.8780179;384.8780179;;;;;;02.02.01;1;2023-11-10_15h41.55.444;REPSWITCH1_version2_list1;2022.2.4;144.0025806;
REPSWITCH1/PICTURE_320.png;iglesia;type;gold;repeat;1;T;3;1;1;2;Stim8_Set3;0;None;77;76;77;0;76;76;76;;;;;;;;;;;;;;;;;;;;;;;385.3781535;386.454627;386.454627;386.454627;386.454627;386.454627;386.454627;386.454627;386.454627;['i', 'g', 'l', 'e', 's', 'i', 'a'];0;[0.9392377000185661, 1.4366193999885581, 1.6088553000008687, 1.750068299996201, 2.0598715000087395, 2.323107899981551, 2.4472289999830537];iglesia;C:\2023\REPSWITCH21092023\REPSWITCH_excgange\REPSWITCH_excgange\data/02.02.01_REPSWITCH1_version2_list1_2023-11-10_15h41.55.444_micRespv2l1_recorded\recording_micRespv2l1_2023-11-10_15h48.16.325.wav;389.4759059;389.9759062;None;389.4759059;389.4759059;389.4759059;389.4759059;389.4759059;389.4759059;;;;;;02.02.01;1;2023-11-10_15h41.55.444;REPSWITCH1_version2_list1;2022.2.4;144.0025806;
REPSWITCH1/PICTURE_576.png;guante;speak;darkblue;filler;2;F;4;1;1;2;Stim1_Set3;0;None;78;77;78;0;77;77;77;;;;;;;;;;;;;;;;;;;;;;;389.9759062;391.0038856;391.0038856;391.0038856;391.0038856;391.0038856;391.0038856;391.0038856;391.0038856;None;0;;;C:\2023\REPSWITCH21092023\REPSWITCH_excgange\REPSWITCH_excgange\data/02.02.01_REPSWITCH1_version2_list1_2023-11-10_15h41.55.444_micRespv2l1_recorded\recording_micRespv2l1_2023-11-10_15h48.20.873.wav;394.0250542;394.5251033;None;394.0250542;394.0250542;394.0250542;394.0250542;394.0250542;394.0250542;;;;;;02.02.01;1;2023-11-10_15h41.55.444;REPSWITCH1_version2_list1;2022.2.4;144.0025806;
REPSWITCH1/PICTURE_319.png;vaca;type;gold;nontarget;1;NT;4;1;1;2;Stim1_Set4;1;switch;79;78;79;0;78;78;78;;;;;;;;;;;;;;;;;;;;;;;394.5251033;395.573866;395.573866;395.573866;395.573866;395.573866;395.573866;395.573866;395.573866;['v', 'a', 'c', 'a'];0;[1.0213088999735191, 1.1389749000081792, 1.3611911999760196, 1.5147623000084423];vaca;C:\2023\REPSWITCH21092023\REPSWITCH_excgange\REPSWITCH_excgange\data/02.02.01_REPSWITCH1_version2_list1_2023-11-10_15h41.55.444_micRespv2l1_recorded\recording_micRespv2l1_2023-11-10_15h48.25.443.wav;398.5951705;399.0951405;None;398.5951705;398.5951705;398.5951705;398.5951705;398.5951705;398.5951705;;;;;;02.02.01;1;2023-11-10_15h41.55.444;REPSWITCH1_version2_list1;2022.2.4;144.0025806;
REPSWITCH1/PICTURE_319.png;vaca;type;gold;repeat;1;T;4;1;1;2;Stim1_Set4;0;None;80;79;80;0;79;79;79;;;;;;;;;;;;;;;;;;;;;;;399.0951405;400.1647602;400.1647602;400.1647602;400.1647602;400.1647602;400.1647602;400.1647602;400.1647602;['v', 'a', 'c', 'a'];0;[0.8703884999849834, 1.013323399994988, 1.2555897000129335, 1.4079968000296503];vaca;C:\2023\REPSWITCH21092023\REPSWITCH_excgange\REPSWITCH_excgange\data/02.02.01_REPSWITCH1_version2_list1_2023-11-10_15h41.55.444_micRespv2l1_recorded\recording_micRespv2l1_2023-11-10_15h48.30.035.wav;403.1859516;403.6860424;None;403.1859516;403.1859516;403.1859516;403.1859516;403.1859516;403.1859516;;;;;;02.02.01;1;2023-11-10_15h41.55.444;REPSWITCH1_version2_list1;2022.2.4;144.0025806;
REPSWITCH1/PICTURE_719.png;baño;type;gold;nontarget;1;NT;4;1;1;2;Stim2_Set4;0;None;81;80;81;0;80;80;80;;;;;;;;;;;;;;;;;;;;;;;403.6860424;404.713934;404.713934;404.713934;404.713934;404.713934;404.713934;404.713934;404.713934;['b', 'a', 'ñ', 'o'];0;[1.0725182000314817, 1.1911106000188738, 1.5000754000502639, 2.09712730004685];baño;C:\2023\REPSWITCH21092023\REPSWITCH_excgange\REPSWITCH_excgange\data/02.02.01_REPSWITCH1_version2_list1_2023-11-10_15h41.55.444_micRespv2l1_recorded\recording_micRespv2l1_2023-11-10_15h48.34.584.wav;407.7351505;408.2352189;None;407.7351505;407.7351505;407.7351505;407.7351505;407.7351505;407.7351505;;;;;;02.02.01;1;2023-11-10_15h41.55.444;REPSWITCH1_version2_list1;2022.2.4;144.0025806;
REPSWITCH1/PICTURE_719.png;baño;speak;darkblue;switch;2;T;4;1;1;2;Stim2_Set4;0;None;82;81;82;0;81;81;81;;;;;;;;;;;;;;;;;;;;;;;408.2352189;409.4229255;409.4229255;409.4229255;409.4229255;409.4229255;409.4229255;409.4229255;409.4229255;None;0;;;C:\2023\REPSWITCH21092023\REPSWITCH_excgange\REPSWITCH_excgange\data/02.02.01_REPSWITCH1_version2_list1_2023-11-10_15h41.55.444_micRespv2l1_recorded\recording_micRespv2l1_2023-11-10_15h48.39.293.wav;412.4510727;;None;412.4510727;412.4510727;412.4510727;412.4510727;412.4510727;412.4510727;;;;;;02.02.01;1;2023-11-10_15h41.55.444;REPSWITCH1_version2_list1;2022.2.4;144.0025806;
REPSWITCH1/PICTURE_242.png;cartero;speak;darkblue;filler;2;F;4;1;1;2;Stim3_Set3;1;repeat;83;82;83;0;82;82;82;;;;;;;;;;;;;;;;;;;;;;;412.9511294;413.9999015;413.9999015;413.9999015;413.9999015;413.9999015;413.9999015;413.9999015;413.9999015;None;0;;;C:\2023\REPSWITCH21092023\REPSWITCH_excgange\REPSWITCH_excgange\data/02.02.01_REPSWITCH1_version2_list1_2023-11-10_15h41.55.444_micRespv2l1_recorded\recording_micRespv2l1_2023-11-10_15h48.43.869.wav;417.0211285;417.521175;None;417.0211285;417.0211285;417.0211285;417.0211285;417.0211285;417.0211285;;;;;;02.02.01;1;2023-11-10_15h41.55.444;REPSWITCH1_version2_list1;2022.2.4;144.0025806;
REPSWITCH1/PICTURE_610.png;miel;type;gold;filler;1;F;4;1;1;2;Stim2_Set3;0;None;84;83;84;0;83;83;83;;;;;;;;;;;;;;;;;;;;;;;417.521175;418.5699187;418.5699187;418.5699187;418.5699187;418.5699187;418.5699187;418.5699187;418.5699187;['m', 'i', 'e', 'l'];0;[1.0891747000277974, 1.3344908999861218, 1.517871499992907, 1.6587897000135854];miel;C:\2023\REPSWITCH21092023\REPSWITCH_excgange\REPSWITCH_excgange\data/02.02.01_REPSWITCH1_version2_list1_2023-11-10_15h41.55.444_micRespv2l1_recorded\recording_micRespv2l1_2023-11-10_15h48.48.440.wav;421.5912256;422.0911918;None;421.5912256;421.5912256;421.5912256;421.5912256;421.5912256;421.5912256;;;;;;02.02.01;1;2023-11-10_15h41.55.444;REPSWITCH1_version2_list1;2022.2.4;144.0025806;
REPSWITCH1/PICTURE_8.png;pierna;speak;darkblue;nontarget;2;NT;4;1;1;2;Stim3_Set4;1;switch;85;84;85;0;84;84;84;;;;;;;;;;;;;;;;;;;;;;;422.0911918;423.2442217;423.2442217;423.2442217;423.2442217;423.2442217;423.2442217;423.2442217;423.2442217;None;0;;;C:\2023\REPSWITCH21092023\REPSWITCH_excgange\REPSWITCH_excgange\data/02.02.01_REPSWITCH1_version2_list1_2023-11-10_15h41.55.444_micRespv2l1_recorded\recording_micRespv2l1_2023-11-10_15h48.53.114.wav;426.265351;426.7654587;None;426.265351;426.265351;426.265351;426.265351;426.265351;426.265351;;;;;;02.02.01;1;2023-11-10_15h41.55.444;REPSWITCH1_version2_list1;2022.2.4;144.0025806;
REPSWITCH1/PICTURE_8.png;pierna;speak;darkblue;repeat;2;T;4;1;1;2;Stim3_Set4;0;None;86;85;86;0;85;85;85;;;;;;;;;;;;;;;;;;;;;;;426.7654587;427.8072911;427.8072911;427.8072911;427.8072911;427.8072911;427.8072911;427.8072911;427.8072911;None;0;;;C:\2023\REPSWITCH21092023\REPSWITCH_excgange\REPSWITCH_excgange\data/02.02.01_REPSWITCH1_version2_list1_2023-11-10_15h41.55.444_micRespv2l1_recorded\recording_micRespv2l1_2023-11-10_15h48.57.676.wav;430.828536;431.3285604;None;430.828536;430.828536;430.828536;430.828536;430.828536;430.828536;;;;;;02.02.01;1;2023-11-10_15h41.55.444;REPSWITCH1_version2_list1;2022.2.4;144.0025806;
REPSWITCH1/PICTURE_498.png;taza;speak;darkblue;nontarget;2;NT;4;1;1;2;Stim4_Set4;1;repeat;87;86;87;0;86;86;86;;;;;;;;;;;;;;;;;;;;;;;431.3285604;432.3634382;432.3634382;432.3634382;432.3634382;432.3634382;432.3634382;432.3634382;432.3634382;None;0;;;C:\2023\REPSWITCH21092023\REPSWITCH_excgange\REPSWITCH_excgange\data/02.02.01_REPSWITCH1_version2_list1_2023-11-10_15h41.55.444_micRespv2l1_recorded\recording_micRespv2l1_2023-11-10_15h49.02.233.wav;435.3846423;435.8847028;None;435.3846423;435.3846423;435.3846423;435.3846423;435.3846423;435.3846423;;;;;;02.02.01;1;2023-11-10_15h41.55.444;REPSWITCH1_version2_list1;2022.2.4;144.0025806;
REPSWITCH1/PICTURE_498.png;taza;type;gold;switch;1;T;4;1;1;2;Stim4_Set4;0;None;88;87;88;0;87;87;87;;;;;;;;;;;;;;;;;;;;;;;435.8847028;436.9543761;436.9543761;436.9543761;436.9543761;436.9543761;436.9543761;436.9543761;436.9543761;['t', 'a', 'z', 'a'];0;[1.0106458999798633, 1.1076290999772027, 1.513681299984455, 1.6892281000036746];taza;C:\2023\REPSWITCH21092023\REPSWITCH_excgange\REPSWITCH_excgange\data/02.02.01_REPSWITCH1_version2_list1_2023-11-10_15h41.55.444_micRespv2l1_recorded\recording_micRespv2l1_2023-11-10_15h49.06.823.wav;439.9755199;440.4755693;None;439.9755199;439.9755199;439.9755199;439.9755199;439.9755199;439.9755199;;;;;;02.02.01;1;2023-11-10_15h41.55.444;REPSWITCH1_version2_list1;2022.2.4;144.0025806;
REPSWITCH1/PICTURE_235.png;aguja;speak;darkblue;filler;2;F;4;1;1;2;Stim4_Set3;0;None;89;88;89;0;88;88;88;;;;;;;;;;;;;;;;;;;;;;;440.4755693;441.5312911;441.5312911;441.5312911;441.5312911;441.5312911;441.5312911;441.5312911;441.5312911;None;0;;;C:\2023\REPSWITCH21092023\REPSWITCH_excgange\REPSWITCH_excgange\data/02.02.01_REPSWITCH1_version2_list1_2023-11-10_15h41.55.444_micRespv2l1_recorded\recording_micRespv2l1_2023-11-10_15h49.11.401.wav;444.559445;;None;444.559445;444.559445;444.559445;444.559445;444.559445;444.559445;;;;;;02.02.01;1;2023-11-10_15h41.55.444;REPSWITCH1_version2_list1;2022.2.4;144.0025806;
REPSWITCH1/PICTURE_35.png;oreja;type;gold;filler;1;F;4;1;1;2;Stim5_Set3;0;None;90;89;90;0;89;89;89;;;;;;;;;;;;;;;;;;;;;;;445.0595219;446.1291288;446.1291288;446.1291288;446.1291288;446.1291288;446.1291288;446.1291288;446.1291288;['o', 'r', 'e', 'j', 'a'];0;[1.1877735999878496, 1.611044299963396, 1.7150426000007428, 1.8705116999917664, 1.9821430000010878];oreja;C:\2023\REPSWITCH21092023\REPSWITCH_excgange\REPSWITCH_excgange\data/02.02.01_REPSWITCH1_version2_list1_2023-11-10_15h41.55.444_micRespv2l1_recorded\recording_micRespv2l1_2023-11-10_15h49.15.998.wav;449.150305;449.65037;None;449.150305;449.150305;449.150305;449.150305;449.150305;449.150305;;;;;;02.02.01;1;2023-11-10_15h41.55.444;REPSWITCH1_version2_list1;2022.2.4;144.0025806;
REPSWITCH1/PICTURE_687.png;camisa;type;gold;nontarget;1;NT;4;1;1;2;Stim5_Set4;1;repeat;91;90;91;0;90;90;90;;;;;;;;;;;;;;;;;;;;;;;449.65037;450.7200318;450.7200318;450.7200318;450.7200318;450.7200318;450.7200318;450.7200318;450.7200318;['c', 'a', 'm', 'i', 's', 'a'];0;[0.978613100014627, 1.0670686999801546, 1.303268300020136, 1.5069442000240088, 1.6165779000148177, 1.7531159999780357];camisa;C:\2023\REPSWITCH21092023\REPSWITCH_excgange\REPSWITCH_excgange\data/02.02.01_REPSWITCH1_version2_list1_2023-11-10_15h41.55.444_micRespv2l1_recorded\recording_micRespv2l1_2023-11-10_15h49.20.589.wav;453.7412578;454.2412505;None;453.7412578;453.7412578;453.7412578;453.7412578;453.7412578;453.7412578;;;;;;02.02.01;1;2023-11-10_15h41.55.444;REPSWITCH1_version2_list1;2022.2.4;144.0025806;
REPSWITCH1/PICTURE_687.png;camisa;speak;darkblue;switch;2;T;4;1;1;2;Stim5_Set4;0;None;92;91;92;0;91;91;91;;;;;;;;;;;;;;;;;;;;;;;454.2412505;455.4775748;455.4775748;455.4775748;455.4775748;455.4775748;455.4775748;455.4775748;455.4775748;None;0;;;C:\2023\REPSWITCH21092023\REPSWITCH_excgange\REPSWITCH_excgange\data/02.02.01_REPSWITCH1_version2_list1_2023-11-10_15h41.55.444_micRespv2l1_recorded\recording_micRespv2l1_2023-11-10_15h49.25.347.wav;458.4987444;458.9988464;None;458.4987444;458.4987444;458.4987444;458.4987444;458.4987444;458.4987444;;;;;;02.02.01;1;2023-11-10_15h41.55.444;REPSWITCH1_version2_list1;2022.2.4;144.0025806;
REPSWITCH1/PICTURE_338.png;regalo;speak;darkblue;nontarget;2;NT;4;1;1;2;Stim6_Set4;0;None;93;92;93;0;92;92;92;;;;;;;;;;;;;;;;;;;;;;;458.9988464;460.1795378;460.1795378;460.1795378;460.1795378;460.1795378;460.1795378;460.1795378;460.1795378;None;0;;;C:\2023\REPSWITCH21092023\REPSWITCH_excgange\REPSWITCH_excgange\data/02.02.01_REPSWITCH1_version2_list1_2023-11-10_15h41.55.444_micRespv2l1_recorded\recording_micRespv2l1_2023-11-10_15h49.30.049.wav;463.2008607;463.7008526;None;463.2008607;463.2008607;463.2008607;463.2008607;463.2008607;463.2008607;;;;;;02.02.01;1;2023-11-10_15h41.55.444;REPSWITCH1_version2_list1;2022.2.4;144.0025806;
REPSWITCH1/PICTURE_338.png;regalo;speak;darkblue;repeat;2;T;4;1;1;2;Stim6_Set4;0;None;94;93;94;0;93;93;93;;;;;;;;;;;;;;;;;;;;;;;463.7008526;464.8259953;464.8259953;464.8259953;464.8259953;464.8259953;464.8259953;464.8259953;464.8259953;None;0;;;C:\2023\REPSWITCH21092023\REPSWITCH_excgange\REPSWITCH_excgange\data/02.02.01_REPSWITCH1_version2_list1_2023-11-10_15h41.55.444_micRespv2l1_recorded\recording_micRespv2l1_2023-11-10_15h49.34.696.wav;467.8472431;468.3472719;None;467.8472431;467.8472431;467.8472431;467.8472431;467.8472431;467.8472431;;;;;;02.02.01;1;2023-11-10_15h41.55.444;REPSWITCH1_version2_list1;2022.2.4;144.0025806;
REPSWITCH1/PICTURE_663.png;columna;type;gold;filler;1;F;4;1;1;2;Extra6;0;None;95;94;95;0;94;94;94;;;;;;;;;;;;;;;;;;;;;;;468.3472719;469.5488692;469.5488692;469.5488692;469.5488692;469.5488692;469.5488692;469.5488692;469.5488692;['c', 'o', 'l', 'u', 'm', 'n', 'a'];0;[1.6153916000039317, 1.728999000042677, 1.9312975000357255, 2.145858300034888, 2.3442394000012428, 2.528362500015646, 2.5961617000284605];columna;C:\2023\REPSWITCH21092023\REPSWITCH_excgange\REPSWITCH_excgange\data/02.02.01_REPSWITCH1_version2_list1_2023-11-10_15h41.55.444_micRespv2l1_recorded\recording_micRespv2l1_2023-11-10_15h49.39.418.wav;472.5700967;473.0701123;None;472.5700967;472.5700967;472.5700967;472.5700967;472.5700967;472.5700967;;;;;;02.02.01;1;2023-11-10_15h41.55.444;REPSWITCH1_version2_list1;2022.2.4;144.0025806;
REPSWITCH1/PICTURE_271.png;conejo;speak;darkblue;filler;2;F;4;1;1;2;Stim7_Set3;0;None;96;95;96;0;95;95;95;;;;;;;;;;;;;;;;;;;;;;;473.0701123;474.1189031;474.1189031;474.1189031;474.1189031;474.1189031;474.1189031;474.1189031;474.1189031;None;0;;;C:\2023\REPSWITCH21092023\REPSWITCH_excgange\REPSWITCH_excgange\data/02.02.01_REPSWITCH1_version2_list1_2023-11-10_15h41.55.444_micRespv2l1_recorded\recording_micRespv2l1_2023-11-10_15h49.43.988.wav;477.147054;;None;477.147054;477.147054;477.147054;477.147054;477.147054;477.147054;;;;;;02.02.01;1;2023-11-10_15h41.55.444;REPSWITCH1_version2_list1;2022.2.4;144.0025806;
REPSWITCH1/PICTURE_48.png;bombero;speak;darkblue;nontarget;2;NT;4;1;1;2;Stim7_Set4;0;None;97;96;97;0;96;96;96;;;;;;;;;;;;;;;;;;;;;;;477.6471194;478.7583765;478.7583765;478.7583765;478.7583765;478.7583765;478.7583765;478.7583765;478.7583765;None;0;;;C:\2023\REPSWITCH21092023\REPSWITCH_excgange\REPSWITCH_excgange\data/02.02.01_REPSWITCH1_version2_list1_2023-11-10_15h41.55.444_micRespv2l1_recorded\recording_micRespv2l1_2023-11-10_15h49.48.629.wav;481.7796304;482.2796606;None;481.7796304;481.7796304;481.7796304;481.7796304;481.7796304;481.7796304;;;;;;02.02.01;1;2023-11-10_15h41.55.444;REPSWITCH1_version2_list1;2022.2.4;144.0025806;
REPSWITCH1/PICTURE_48.png;bombero;type;gold;switch;1;T;4;1;1;2;Stim7_Set4;0;None;98;97;98;0;97;97;97;;;;;;;;;;;;;;;;;;;;;;;482.2796606;483.4395424;483.4395424;483.4395424;483.4395424;483.4395424;483.4395424;483.4395424;483.4395424;['c', 'o', 'm', 'c', 'backspace', 'backspace', 'backspace'];0;[1.137697300000582, 1.297629400040023, 1.5395238000201061, 1.7472472000517882, 2.598302800033707, 2.7947027000482194, 2.969133200007491];c;C:\2023\REPSWITCH21092023\REPSWITCH_excgange\REPSWITCH_excgange\data/02.02.01_REPSWITCH1_version2_list1_2023-11-10_15h41.55.444_micRespv2l1_recorded\recording_micRespv2l1_2023-11-10_15h49.53.309.wav;486.4607808;486.9608441;None;486.4607808;486.4607808;486.4607808;486.4607808;486.4607808;486.4607808;;;;;;02.02.01;1;2023-11-10_15h41.55.444;REPSWITCH1_version2_list1;2022.2.4;144.0025806;
REPSWITCH1/PICTURE_728.png;pulpo;type;gold;nontarget;1;NT;4;1;1;2;Stim8_Set4;0;None;99;98;99;0;98;98;98;;;;;;;;;;;;;;;;;;;;;;;486.9608441;487.9818711;487.9818711;487.9818711;487.9818711;487.9818711;487.9818711;487.9818711;487.9818711;['p', 'u', 'l', 'p', 'o'];0;[1.1603441999759525, 1.460592399991583, 1.708737199951429, 1.939990899991244, 2.1094186999835074];pulpo;C:\2023\REPSWITCH21092023\REPSWITCH_excgange\REPSWITCH_excgange\data/02.02.01_REPSWITCH1_version2_list1_2023-11-10_15h41.55.444_micRespv2l1_recorded\recording_micRespv2l1_2023-11-10_15h49.57.851.wav;491.0031139;491.5031026;None;491.0031139;491.0031139;491.0031139;491.0031139;491.0031139;491.0031139;;;;;;02.02.01;1;2023-11-10_15h41.55.444;REPSWITCH1_version2_list1;2022.2.4;144.0025806;
REPSWITCH1/PICTURE_728.png;pulpo;type;gold;repeat;1;T;4;1;1;2;Stim8_Set4;0;None;100;99;100;0;99;99;99;;;;;;;;;;;;;;;;;;;;;;;491.5031026;492.51024;492.51024;492.51024;492.51024;492.51024;492.51024;492.51024;492.51024;['p', 'u', 'l', 'p', 'o'];0;[1.1205927000264637, 1.5205306999851018, 1.7694352000253275, 2.0066385000245646, 2.1973342999699526];pulpo;C:\2023\REPSWITCH21092023\REPSWITCH_excgange\REPSWITCH_excgange\data/02.02.01_REPSWITCH1_version2_list1_2023-11-10_15h41.55.444_micRespv2l1_recorded\recording_micRespv2l1_2023-11-10_15h50.02.380.wav;495.5313837;496.0314629;None;495.5313837;495.5313837;495.5313837;495.5313837;495.5313837;495.5313837;;;;;;02.02.01;1;2023-11-10_15h41.55.444;REPSWITCH1_version2_list1;2022.2.4;144.0025806;
REPSWITCH1/PICTURE_320.png;iglesia;speak;darkblue;filler;1;F;4;1;1;2;Stim8_Set3;0;None;101;100;101;0;100;100;100;;;;;;;;;;;;;;;;;;;;;;;496.0314629;497.1705344;497.1705344;497.1705344;497.1705344;497.1705344;497.1705344;497.1705344;497.1705344;None;0;;;C:\2023\REPSWITCH21092023\REPSWITCH_excgange\REPSWITCH_excgange\data/02.02.01_REPSWITCH1_version2_list1_2023-11-10_15h41.55.444_micRespv2l1_recorded\recording_micRespv2l1_2023-11-10_15h50.07.041.wav;500.1917069;500.6917918;None;500.1917069;500.1917069;500.1917069;500.1917069;500.1917069;500.1917069;;;;;;02.02.01;1;2023-11-10_15h41.55.444;REPSWITCH1_version2_list1;2022.2.4;144.0025806;
REPSWITCH1/PICTURE_464.png;goma;type;gold;filler;1;F;4;1;1;2;Stim6_Set3;0;None;102;101;102;0;101;101;101;;;;;;;;;;;;;;;;;;;;;;;500.6917918;501.7544485;501.7544485;501.7544485;501.7544485;501.7544485;501.7544485;501.7544485;501.7544485;['g', 'o', 'm', 'a'];0;[1.1095139000099152, 1.243061899964232, 1.4628330999985337, 1.5993559999624267];goma;C:\2023\REPSWITCH21092023\REPSWITCH_excgange\REPSWITCH_excgange\data/02.02.01_REPSWITCH1_version2_list1_2023-11-10_15h41.55.444_micRespv2l1_recorded\recording_micRespv2l1_2023-11-10_15h50.11.624.wav;504.7756752;505.2757401;space;504.7756752;504.7756752;504.7756752;504.7756752;504.7756752;504.7756752;505.2757401;505.2757401;14.1934883;;;02.02.01;1;2023-11-10_15h41.55.444;REPSWITCH1_version2_list1;2022.2.4;144.0025806;
REPSWITCH1/PICTURE_663.png;columna;type;gold;filler;1;F;1;2;1;2;Extra6;0;None;103;102;1;0;102;102;102;;;;;;;;;;;;;;;;;;;;;;;519.47899;520.6458062;520.6458062;520.6458062;520.6458062;520.6458062;520.6458062;520.6458062;520.6458062;['c', 'o', 'l', 'u', 'm', 'n', 'a'];0;[1.0498406999977306, 1.1762119000195526, 1.367239699990023, 1.6392902999650687, 1.8399955999921076, 2.029084399982821, 2.135494899994228];columna;C:\2023\REPSWITCH21092023\REPSWITCH_excgange\REPSWITCH_excgange\data/02.02.01_REPSWITCH1_version2_list1_2023-11-10_15h41.55.444_micRespv2l1_recorded\recording_micRespv2l1_2023-11-10_15h50.30.516.wav;523.6739644;;None;523.6739644;523.6739644;523.6739644;523.6739644;523.6739644;523.6739644;;;;;;02.02.01;1;2023-11-10_15h41.55.444;REPSWITCH1_version2_list1;2022.2.4;144.0025806;
REPSWITCH1/PICTURE_128.png;muñeca;speak;darkblue;nontarget;2;NT;1;2;1;2;Stim4_Set1;1;switch;104;103;2;0;103;103;103;;;;;;;;;;;;;;;;;;;;;;;524.1740554;525.2783477;525.2783477;525.2783477;525.2783477;525.2783477;525.2783477;525.2783477;525.2783477;None;0;;;C:\2023\REPSWITCH21092023\REPSWITCH_excgange\REPSWITCH_excgange\data/02.02.01_REPSWITCH1_version2_list1_2023-11-10_15h41.55.444_micRespv2l1_recorded\recording_micRespv2l1_2023-11-10_15h50.35.148.wav;528.2996593;528.7996568;None;528.2996593;528.2996593;528.2996593;528.2996593;528.2996593;528.2996593;;;;;;02.02.01;1;2023-11-10_15h41.55.444;REPSWITCH1_version2_list1;2022.2.4;144.0025806;
REPSWITCH1/PICTURE_128.png;muñeca;speak;darkblue;repeat;2;T;1;2;1;2;Stim4_Set1;0;None;105;104;3;0;104;104;104;;;;;;;;;;;;;;;;;;;;;;;528.7996568;529.8761922;529.8761922;529.8761922;529.8761922;529.8761922;529.8761922;529.8761922;529.8761922;None;0;;;C:\2023\REPSWITCH21092023\REPSWITCH_excgange\REPSWITCH_excgange\data/02.02.01_REPSWITCH1_version2_list1_2023-11-10_15h41.55.444_micRespv2l1_recorded\recording_micRespv2l1_2023-11-10_15h50.39.746.wav;532.8973922;533.397482;None;532.8973922;532.8973922;532.8973922;532.8973922;532.8973922;532.8973922;;;;;;02.02.01;1;2023-11-10_15h41.55.444;REPSWITCH1_version2_list1;2022.2.4;144.0025806;
REPSWITCH1/PICTURE_8.png;pierna;type;gold;filler;1;F;1;2;1;2;Stim3_Set4;0;None;106;105;4;0;105;105;105;;;;;;;;;;;;;;;;;;;;;;;533.397482;534.5504157;534.5504157;534.5504157;534.5504157;534.5504157;534.5504157;534.5504157;534.5504157;['p', 'i', 'e', 'r', 'n', 'a'];0;[1.1059483000426553, 1.3797792000113986, 1.5614751999964938, 1.7537984999944456, 2.0827003000304103, 2.2143057000357658];pierna;C:\2023\REPSWITCH21092023\REPSWITCH_excgange\REPSWITCH_excgange\data/02.02.01_REPSWITCH1_version2_list1_2023-11-10_15h41.55.444_micRespv2l1_recorded\recording_micRespv2l1_2023-11-10_15h50.44.421.wav;537.5716444;538.0717142;None;537.5716444;537.5716444;537.5716444;537.5716444;537.5716444;537.5716444;;;;;;02.02.01;1;2023-11-10_15h41.55.444;REPSWITCH1_version2_list1;2022.2.4;144.0025806;
REPSWITCH1/PICTURE_135.png;traje;speak;darkblue;nontarget;2;NT;1;2;1;2;Stim3_Set1;1;switch;107;106;5;0;106;106;106;;;;;;;;;;;;;;;;;;;;;;;538.0717142;539.1066223;539.1066223;539.1066223;539.1066223;539.1066223;539.1066223;539.1066223;539.1066223;None;0;;;C:\2023\REPSWITCH21092023\REPSWITCH_excgange\REPSWITCH_excgange\data/02.02.01_REPSWITCH1_version2_list1_2023-11-10_15h41.55.444_micRespv2l1_recorded\recording_micRespv2l1_2023-11-10_15h50.48.976.wav;542.1277969;542.6278564;None;542.1277969;542.1277969;542.1277969;542.1277969;542.1277969;542.1277969;;;;;;02.02.01;1;2023-11-10_15h41.55.444;REPSWITCH1_version2_list1;2022.2.4;144.0025806;
REPSWITCH1/PICTURE_135.png;traje;speak;darkblue;repeat;2;T;1;2;1;2;Stim3_Set1;0;None;108;107;6;0;107;107;107;;;;;;;;;;;;;;;;;;;;;;;542.6278564;543.7183291;543.7183291;543.7183291;543.7183291;543.7183291;543.7183291;543.7183291;543.7183291;None;0;;;C:\2023\REPSWITCH21092023\REPSWITCH_excgange\REPSWITCH_excgange\data/02.02.01_REPSWITCH1_version2_list1_2023-11-10_15h41.55.444_micRespv2l1_recorded\recording_micRespv2l1_2023-11-10_15h50.53.587.wav;546.7395;547.2395742;None;546.7395;546.7395;546.7395;546.7395;546.7395;546.7395;;;;;;02.02.01;1;2023-11-10_15h41.55.444;REPSWITCH1_version2_list1;2022.2.4;144.0025806;
REPSWITCH1/PICTURE_673.png;tenedor;type;gold;filler;1;F;1;2;1;2;Extra5;0;None;109;108;7;0;108;108;108;;;;;;;;;;;;;;;;;;;;;;;547.2395742;548.3855361;548.3855361;548.3855361;548.3855361;548.3855361;548.3855361;548.3855361;548.3855361;['t', 'e', 'n', 'e', 'd', 'o', 'r'];0;[1.0391428000293672, 1.162336300010793, 1.3121379000367597, 1.4098036999930628, 1.600168900040444, 1.746728300000541, 1.900824600015767];tenedor;C:\2023\REPSWITCH21092023\REPSWITCH_excgange\REPSWITCH_excgange\data/02.02.01_REPSWITCH1_version2_list1_2023-11-10_15h41.55.444_micRespv2l1_recorded\recording_micRespv2l1_2023-11-10_15h50.58.256.wav;551.4067649;551.9068517;None;551.4067649;551.4067649;551.4067649;551.4067649;551.4067649;551.4067649;;;;;;02.02.01;1;2023-11-10_15h41.55.444;REPSWITCH1_version2_list1;2022.2.4;144.0025806;
REPSWITCH1/PICTURE_728.png;pulpo;speak;darkblue;filler;2;F;1;2;1;2;Stim8_Set4;0;None;110;109;8;0;109;109;109;;;;;;;;;;;;;;;;;;;;;;;551.9068517;553.0597668;553.0597668;553.0597668;553.0597668;553.0597668;553.0597668;553.0597668;553.0597668;None;0;;;C:\2023\REPSWITCH21092023\REPSWITCH_excgange\REPSWITCH_excgange\data/02.02.01_REPSWITCH1_version2_list1_2023-11-10_15h41.55.444_micRespv2l1_recorded\recording_micRespv2l1_2023-11-10_15h51.02.930.wav;556.0879674;;None;556.0879674;556.0879674;556.0879674;556.0879674;556.0879674;556.0879674;;;;;;02.02.01;1;2023-11-10_15h41.55.444;REPSWITCH1_version2_list1;2022.2.4;144.0025806;
REPSWITCH1/PICTURE_16.png;cazador;speak;darkblue;nontarget;2;NT;1;2;1;2;Stim6_Set1;1;repeat;111;110;9;0;110;110;110;;;;;;;;;;;;;;;;;;;;;;;556.5880244;557.734022;557.734022;557.734022;557.734022;557.734022;557.734022;557.734022;557.734022;None;0;;;C:\2023\REPSWITCH21092023\REPSWITCH_excgange\REPSWITCH_excgange\data/02.02.01_REPSWITCH1_version2_list1_2023-11-10_15h41.55.444_micRespv2l1_recorded\recording_micRespv2l1_2023-11-10_15h51.07.603.wav;560.7552146;561.2552748;None;560.7552146;560.7552146;560.7552146;560.7552146;560.7552146;560.7552146;;;;;;02.02.01;1;2023-11-10_15h41.55.444;REPSWITCH1_version2_list1;2022.2.4;144.0025806;
REPSWITCH1/PICTURE_16.png;cazador;type;gold;switch;1;T;1;2;1;2;Stim6_Set1;0;None;112;111;10;0;111;111;111;;;;;;;;;;;;;;;;;;;;;;;561.2552748;562.3804573;562.3804573;562.3804573;562.3804573;562.3804573;562.3804573;562.3804573;562.3804573;['c', 'a', 'z', 'a', 'd', 'o', 'r'];0;[1.3214269999880344, 1.4589360999525525, 1.7848469999735244, 1.9652321999892592, 2.2513233999488875, 2.434672999952454, 2.567503999976907];cazador;C:\2023\REPSWITCH21092023\REPSWITCH_excgange\REPSWITCH_excgange\data/02.02.01_REPSWITCH1_version2_list1_2023-11-10_15h41.55.444_micRespv2l1_recorded\recording_micRespv2l1_2023-11-10_15h51.12.250.wav;565.401683;565.9017375;None;565.401683;565.401683;565.401683;565.401683;565.401683;565.401683;;;;;;02.02.01;1;2023-11-10_15h41.55.444;REPSWITCH1_version2_list1;2022.2.4;144.0025806;
REPSWITCH1/PICTURE_498.png;taza;type;gold;filler;1;F;1;2;1;2;Stim4_Set4;1;repeat;113;112;11;0;112;112;112;;;;;;;;;;;;;;;;;;;;;;;565.9017375;566.9922292;566.9922292;566.9922292;566.9922292;566.9922292;566.9922292;566.9922292;566.9922292;['t', 'a', 'z', 'a'];0;[0.9343389000277966, 1.009489800024312, 1.3552966000279412, 1.6165220999973826];taza;C:\2023\REPSWITCH21092023\REPSWITCH_excgange\REPSWITCH_excgange\data/02.02.01_REPSWITCH1_version2_list1_2023-11-10_15h41.55.444_micRespv2l1_recorded\recording_micRespv2l1_2023-11-10_15h51.16.861.wav;570.0133996;570.5134587;None;570.0133996;570.0133996;570.0133996;570.0133996;570.0133996;570.0133996;;;;;;02.02.01;1;2023-11-10_15h41.55.444;REPSWITCH1_version2_list1;2022.2.4;144.0025806;
REPSWITCH1/PICTURE_381.png;fresa;type;gold;nontarget;1;NT;1;2;1;2;Stim2_Set1;1;repeat;114;113;12;0;113;113;113;;;;;;;;;;;;;;;;;;;;;;;570.5134587;571.5621931;571.5621931;571.5621931;571.5621931;571.5621931;571.5621931;571.5621931;571.5621931;['f', 'r', 'e', 's', 'a'];0;[0.9747534999623895, 1.1490909999702126, 1.3254655000055209, 1.55701659998158, 1.7215001999866217];fresa;C:\2023\REPSWITCH21092023\REPSWITCH_excgange\REPSWITCH_excgange\data/02.02.01_REPSWITCH1_version2_list1_2023-11-10_15h41.55.444_micRespv2l1_recorded\recording_micRespv2l1_2023-11-10_15h51.21.432.wav;574.5834046;575.0835128;None;574.5834046;574.5834046;574.5834046;574.5834046;574.5834046;574.5834046;;;;;;02.02.01;1;2023-11-10_15h41.55.444;REPSWITCH1_version2_list1;2022.2.4;144.0025806;
REPSWITCH1/PICTURE_381.png;fresa;speak;darkblue;switch;2;T;1;2;1;2;Stim2_Set1;0;None;115;114;13;0;114;114;114;;;;;;;;;;;;;;;;;;;;;;;575.0835128;576.3337199;576.3337199;576.3337199;576.3337199;576.3337199;576.3337199;576.3337199;576.3337199;None;0;;;C:\2023\REPSWITCH21092023\REPSWITCH_excgange\REPSWITCH_excgange\data/02.02.01_REPSWITCH1_version2_list1_2023-11-10_15h41.55.444_micRespv2l1_recorded\recording_micRespv2l1_2023-11-10_15h51.26.204.wav;579.36184;;None;579.36184;579.36184;579.36184;579.36184;579.36184;579.36184;;;;;;02.02.01;1;2023-11-10_15h41.55.444;REPSWITCH1_version2_list1;2022.2.4;144.0025806;
REPSWITCH1/PICTURE_178.png;puente;speak;darkblue;nontarget;2;NT;1;2;1;2;Stim1_Set1;0;None;116;115;14;0;115;115;115;;;;;;;;;;;;;;;;;;;;;;;579.8618956;580.93148;580.93148;580.93148;580.93148;580.93148;580.93148;580.93148;580.93148;None;0;;;C:\2023\REPSWITCH21092023\REPSWITCH_excgange\REPSWITCH_excgange\data/02.02.01_REPSWITCH1_version2_list1_2023-11-10_15h41.55.444_micRespv2l1_recorded\recording_micRespv2l1_2023-11-10_15h51.30.802.wav;583.9527447;584.4527889;None;583.9527447;583.9527447;583.9527447;583.9527447;583.9527447;583.9527447;;;;;;02.02.01;1;2023-11-10_15h41.55.444;REPSWITCH1_version2_list1;2022.2.4;144.0025806;
REPSWITCH1/PICTURE_178.png;puente;type;gold;switch;1;T;1;2;1;2;Stim1_Set1;0;None;117;116;15;0;116;116;116;;;;;;;;;;;;;;;;;;;;;;;584.4527889;585.4806984;585.4806984;585.4806984;585.4806984;585.4806984;585.4806984;585.4806984;585.4806984;['p', 'u', 'e', 'n', 't', 'e'];0;[1.111388600023929, 1.3804168000351638, 1.5099013000144623, 1.6354388000327162, 1.8480667000403628, 2.0065241000265814];puente;C:\2023\REPSWITCH21092023\REPSWITCH_excgange\REPSWITCH_excgange\data/02.02.01_REPSWITCH1_version2_list1_2023-11-10_15h41.55.444_micRespv2l1_recorded\recording_micRespv2l1_2023-11-10_15h51.35.350.wav;588.501994;589.0019996;None;588.501994;588.501994;588.501994;588.501994;588.501994;588.501994;;;;;;02.02.01;1;2023-11-10_15h41.55.444;REPSWITCH1_version2_list1;2022.2.4;144.0025806;
REPSWITCH1/PICTURE_719.png;baño;speak;darkblue;filler;2;F;1;2;1;2;Stim2_Set4;0;None;118;117;16;0;117;117;117;;;;;;;;;;;;;;;;;;;;;;;589.0019996;590.0785834;590.0785834;590.0785834;590.0785834;590.0785834;590.0785834;590.0785834;590.0785834;None;0;;;C:\2023\REPSWITCH21092023\REPSWITCH_excgange\REPSWITCH_excgange\data/02.02.01_REPSWITCH1_version2_list1_2023-11-10_15h41.55.444_micRespv2l1_recorded\recording_micRespv2l1_2023-11-10_15h51.39.948.wav;593.0997431;593.5998221;None;593.0997431;593.0997431;593.0997431;593.0997431;593.0997431;593.0997431;;;;;;02.02.01;1;2023-11-10_15h41.55.444;REPSWITCH1_version2_list1;2022.2.4;144.0025806;
REPSWITCH1/PICTURE_169.png;espalda;type;gold;nontarget;1;NT;1;2;1;2;Stim8_Set1;1;switch;119;118;17;0;118;118;118;;;;;;;;;;;;;;;;;;;;;;;593.5998221;594.6693892;594.6693892;594.6693892;594.6693892;594.6693892;594.6693892;594.6693892;594.6693892;['e', 's', 'p', 'a', 'l', 'd', 'a'];0;[0.9011998000205494, 1.0748937000171281, 1.25113250000868, 1.3218975000199862, 1.5051558000268415, 1.6775819000322372, 1.8290690000285394];espalda;C:\2023\REPSWITCH21092023\REPSWITCH_excgange\REPSWITCH_excgange\data/02.02.01_REPSWITCH1_version2_list1_2023-11-10_15h41.55.444_micRespv2l1_recorded\recording_micRespv2l1_2023-11-10_15h51.44.539.wav;597.6906396;598.1906606;None;597.6906396;597.6906396;597.6906396;597.6906396;597.6906396;597.6906396;;;;;;02.02.01;1;2023-11-10_15h41.55.444;REPSWITCH1_version2_list1;2022.2.4;144.0025806;
REPSWITCH1/PICTURE_169.png;espalda;type;gold;repeat;1;T;1;2;1;2;Stim8_Set1;0;None;120;119;18;0;119;119;119;;;;;;;;;;;;;;;;;;;;;;;598.1906606;599.2741764;599.2741764;599.2741764;599.2741764;599.2741764;599.2741764;599.2741764;599.2741764;['e', 's', 'p', 'a', 'l', 'd', 'a'];0;[0.7170595999923535, 0.9489010999677703, 1.1852188999764621, 1.2919491999782622, 1.4682529999990948, 1.6962463000090793, 1.8321751999901608];espalda;C:\2023\REPSWITCH21092023\REPSWITCH_excgange\REPSWITCH_excgange\data/02.02.01_REPSWITCH1_version2_list1_2023-11-10_15h41.55.444_micRespv2l1_recorded\recording_micRespv2l1_2023-11-10_15h51.49.144.wav;602.3023788;;None;602.3023788;602.3023788;602.3023788;602.3023788;602.3023788;602.3023788;;;;;;02.02.01;1;2023-11-10_15h41.55.444;REPSWITCH1_version2_list1;2022.2.4;144.0025806;
REPSWITCH1/PICTURE_48.png;bombero;speak;darkblue;filler;2;F;1;2;1;2;Stim7_Set4;1;switch;121;120;19;0;120;120;120;;;;;;;;;;;;;;;;;;;;;;;602.8024134;603.9554139;603.9554139;603.9554139;603.9554139;603.9554139;603.9554139;603.9554139;603.9554139;None;0;;;C:\2023\REPSWITCH21092023\REPSWITCH_excgange\REPSWITCH_excgange\data/02.02.01_REPSWITCH1_version2_list1_2023-11-10_15h41.55.444_micRespv2l1_recorded\recording_micRespv2l1_2023-11-10_15h51.53.825.wav;606.9765346;607.4766332;None;606.9765346;606.9765346;606.9765346;606.9765346;606.9765346;606.9765346;;;;;;02.02.01;1;2023-11-10_15h41.55.444;REPSWITCH1_version2_list1;2022.2.4;144.0025806;
REPSWITCH1/PICTURE_19.png;pavo;type;gold;nontarget;1;NT;1;2;1;2;Stim5_Set1;1;switch;122;121;20;0;121;121;121;;;;;;;;;;;;;;;;;;;;;;;607.4766332;608.5879518;608.5879518;608.5879518;608.5879518;608.5879518;608.5879518;608.5879518;608.5879518;['p', 'a', 'v', 'o'];0;[0.9761074999696575, 1.0541886999853887, 1.3502296999795362, 1.4718213999876752];pavo;C:\2023\REPSWITCH21092023\REPSWITCH_excgange\REPSWITCH_excgange\data/02.02.01_REPSWITCH1_version2_list1_2023-11-10_15h41.55.444_micRespv2l1_recorded\recording_micRespv2l1_2023-11-10_15h51.58.458.wav;611.6091043;612.1091624;None;611.6091043;611.6091043;611.6091043;611.6091043;611.6091043;611.6091043;;;;;;02.02.01;1;2023-11-10_15h41.55.444;REPSWITCH1_version2_list1;2022.2.4;144.0025806;
REPSWITCH1/PICTURE_19.png;pavo;type;gold;repeat;1;T;1;2;1;2;Stim5_Set1;0;None;123;122;21;0;122;122;122;;;;;;;;;;;;;;;;;;;;;;;612.1091624;613.2830099;613.2830099;613.2830099;613.2830099;613.2830099;613.2830099;613.2830099;613.2830099;['p', 'a', 'v', 'o'];0;[1.0097715000156313, 1.1266868999809958, 1.405081600008998, 1.6273443999816664];pavo;C:\2023\REPSWITCH21092023\REPSWITCH_excgange\REPSWITCH_excgange\data/02.02.01_REPSWITCH1_version2_list1_2023-11-10_15h41.55.444_micRespv2l1_recorded\recording_micRespv2l1_2023-11-10_15h52.03.152.wav;616.3041461;616.8042243;None;616.3041461;616.3041461;616.3041461;616.3041461;616.3041461;616.3041461;;;;;;02.02.01;1;2023-11-10_15h41.55.444;REPSWITCH1_version2_list1;2022.2.4;144.0025806;
REPSWITCH1/PICTURE_319.png;vaca;speak;darkblue;filler;2;F;1;2;1;2;Stim1_Set4;0;None;124;123;22;0;123;123;123;;;;;;;;;;;;;;;;;;;;;;;616.8042243;617.859954;617.859954;617.859954;617.859954;617.859954;617.859954;617.859954;617.859954;None;0;;;C:\2023\REPSWITCH21092023\REPSWITCH_excgange\REPSWITCH_excgange\data/02.02.01_REPSWITCH1_version2_list1_2023-11-10_15h41.55.444_micRespv2l1_recorded\recording_micRespv2l1_2023-11-10_15h52.07.730.wav;620.8811498;621.3812164;None;620.8811498;620.8811498;620.8811498;620.8811498;620.8811498;620.8811498;;;;;;02.02.01;1;2023-11-10_15h41.55.444;REPSWITCH1_version2_list1;2022.2.4;144.0025806;
REPSWITCH1/PICTURE_338.png;regalo;type;gold;filler;1;F;1;2;1;2;Stim6_Set4;0;None;125;124;23;0;124;124;124;;;;;;;;;;;;;;;;;;;;;;;621.3812164;622.4578037;622.4578037;622.4578037;622.4578037;622.4578037;622.4578037;622.4578037;622.4578037;['r', 'e', 'g', 'a', 'l', 'o'];0;[1.0046689999871887, 1.1860074999858625, 1.368775699986145, 1.4753704999457113, 1.677735599980224, 1.8571312999702059];regalo;C:\2023\REPSWITCH21092023\REPSWITCH_excgange\REPSWITCH_excgange\data/02.02.01_REPSWITCH1_version2_list1_2023-11-10_15h41.55.444_micRespv2l1_recorded\recording_micRespv2l1_2023-11-10_15h52.12.328.wav;625.4859248;;None;625.4859248;625.4859248;625.4859248;625.4859248;625.4859248;625.4859248;;;;;;02.02.01;1;2023-11-10_15h41.55.444;REPSWITCH1_version2_list1;2022.2.4;144.0025806;
REPSWITCH1/PICTURE_142.png;vaso;type;gold;nontarget;1;NT;1;2;1;2;Stim7_Set1;0;None;126;125;24;0;125;125;125;;;;;;;;;;;;;;;;;;;;;;;625.9860045;627.1181076;627.1181076;627.1181076;627.1181076;627.1181076;627.1181076;627.1181076;627.1181076;['v', 'a', 's', 'o'];0;[0.9661362000042573, 1.0510961000109091, 1.25333740003407, 1.4340451000025496];vaso;C:\2023\REPSWITCH21092023\REPSWITCH_excgange\REPSWITCH_excgange\data/02.02.01_REPSWITCH1_version2_list1_2023-11-10_15h41.55.444_micRespv2l1_recorded\recording_micRespv2l1_2023-11-10_15h52.16.988.wav;630.1393347;630.6394189;None;630.1393347;630.1393347;630.1393347;630.1393347;630.1393347;630.1393347;;;;;;02.02.01;1;2023-11-10_15h41.55.444;REPSWITCH1_version2_list1;2022.2.4;144.0025806;
REPSWITCH1/PICTURE_142.png;vaso;speak;darkblue;switch;2;T;1;2;1;2;Stim7_Set1;0;None;127;126;25;0;126;126;126;;;;;;;;;;;;;;;;;;;;;;;630.6394189;631.7090174;631.7090174;631.7090174;631.7090174;631.7090174;631.7090174;631.7090174;631.7090174;None;0;;;C:\2023\REPSWITCH21092023\REPSWITCH_excgange\REPSWITCH_excgange\data/02.02.01_REPSWITCH1_version2_list1_2023-11-10_15h41.55.444_micRespv2l1_recorded\recording_micRespv2l1_2023-11-10_15h52.21.579.wav;634.7371287;;None;634.7371287;634.7371287;634.7371287;634.7371287;634.7371287;634.7371287;;;;;;02.02.01;1;2023-11-10_15h41.55.444;REPSWITCH1_version2_list1;2022.2.4;144.0025806;
REPSWITCH1/PICTURE_687.png;camisa;type;gold;filler;1;F;1;2;1;2;Stim5_Set4;1;switch;128;127;26;0;127;127;127;;;;;;;;;;;;;;;;;;;;;;;635.2371944;636.3206798;636.3206798;636.3206798;636.3206798;636.3206798;636.3206798;636.3206798;636.3206798;['c', 'a', 'm', 'i', 's', 'a'];0;[0.9421929000527598, 1.1235789000056684, 1.2481655000010505, 1.4399154999991879, 1.5634674000320956, 1.7013981000054628];camisa;C:\2023\REPSWITCH21092023\REPSWITCH_excgange\REPSWITCH_excgange\data/02.02.01_REPSWITCH1_version2_list1_2023-11-10_15h41.55.444_micRespv2l1_recorded\recording_micRespv2l1_2023-11-10_15h52.26.190.wav;639.341996;639.8419863;None;639.341996;639.341996;639.341996;639.341996;639.341996;639.341996;;;;;;02.02.01;1;2023-11-10_15h41.55.444;REPSWITCH1_version2_list1;2022.2.4;144.0025806;
REPSWITCH1/PICTURE_30.png;granja;type;gold;nontarget;1;NT;2;2;1;2;Stim5_Set2;0;None;129;128;27;0;128;128;128;;;;;;;;;;;;;;;;;;;;;;;639.8419863;640.9532181;640.9532181;640.9532181;640.9532181;640.9532181;640.9532181;640.9532181;640.9532181;['g', 'r', 'a', 'n', 'j', 'a'];0;[1.0699047000380233, 1.2736533000133932, 1.4372549000545405, 1.5747971000382677, 1.756192100001499, 1.848874400020577];granja;C:\2023\REPSWITCH21092023\REPSWITCH_excgange\REPSWITCH_excgange\data/02.02.01_REPSWITCH1_version2_list1_2023-11-10_15h41.55.444_micRespv2l1_recorded\recording_micRespv2l1_2023-11-10_15h52.30.825.wav;643.9814848;;None;643.9814848;643.9814848;643.9814848;643.9814848;643.9814848;643.9814848;;;;;;02.02.01;1;2023-11-10_15h41.55.444;REPSWITCH1_version2_list1;2022.2.4;144.0025806;
REPSWITCH1/PICTURE_30.png;granja;type;gold;repeat;1;T;2;2;1;2;Stim5_Set2;0;None;130;129;28;0;129;129;129;;;;;;;;;;;;;;;;;;;;;;;644.4814865;645.5163262;645.5163262;645.5163262;645.5163262;645.5163262;645.5163262;645.5163262;645.5163262;['g', 'r', 'a', 'n', 'j', 'a'];0;[1.0223009000183083, 1.1975926000159234, 1.333142899966333, 1.5424484999966808, 1.7327975999796763, 1.865362800017465];granja;C:\2023\REPSWITCH21092023\REPSWITCH_excgange\REPSWITCH_excgange\data/02.02.01_REPSWITCH1_version2_list1_2023-11-10_15h41.55.444_micRespv2l1_recorded\recording_micRespv2l1_2023-11-10_15h52.35.387.wav;648.5444907;;None;648.5444907;648.5444907;648.5444907;648.5444907;648.5444907;648.5444907;;;;;;02.02.01;1;2023-11-10_15h41.55.444;REPSWITCH1_version2_list1;2022.2.4;144.0025806;
REPSWITCH1/PICTURE_128.png;muñeca;speak;darkblue;filler;2;F;2;2;1;2;Stim4_Set1;0;None;131;130;29;0;130;130;130;;;;;;;;;;;;;;;;;;;;;;;649.0445832;650.1420117;650.1420117;650.1420117;650.1420117;650.1420117;650.1420117;650.1420117;650.1420117;None;0;;;C:\2023\REPSWITCH21092023\REPSWITCH_excgange\REPSWITCH_excgange\data/02.02.01_REPSWITCH1_version2_list1_2023-11-10_15h41.55.444_micRespv2l1_recorded\recording_micRespv2l1_2023-11-10_15h52.40.012.wav;653.1700977;;None;653.1700977;653.1700977;653.1700977;653.1700977;653.1700977;653.1700977;;;;;;02.02.01;1;2023-11-10_15h41.55.444;REPSWITCH1_version2_list1;2022.2.4;144.0025806;
REPSWITCH1/PICTURE_264.png;mano;type;gold;nontarget;1;NT;2;2;1;2;Stim3_Set2;1;switch;132;131;30;0;131;131;131;;;;;;;;;;;;;;;;;;;;;;;653.6701705;654.7606252;654.7606252;654.7606252;654.7606252;654.7606252;654.7606252;654.7606252;654.7606252;['m', 'a', 'n', 'o'];0;[0.9261946999467909, 1.0481976000010036, 1.145710099954158, 1.3502805999596603];mano;C:\2023\REPSWITCH21092023\REPSWITCH_excgange\REPSWITCH_excgange\data/02.02.01_REPSWITCH1_version2_list1_2023-11-10_15h41.55.444_micRespv2l1_recorded\recording_micRespv2l1_2023-11-10_15h52.44.631.wav;657.7818444;658.2819071;None;657.7818444;657.7818444;657.7818444;657.7818444;657.7818444;657.7818444;;;;;;02.02.01;1;2023-11-10_15h41.55.444;REPSWITCH1_version2_list1;2022.2.4;144.0025806;
REPSWITCH1/PICTURE_264.png;mano;type;gold;repeat;1;T;2;2;1;2;Stim3_Set2;0;None;133;132;31;0;132;132;132;;;;;;;;;;;;;;;;;;;;;;;658.2819071;659.4001426;659.4001426;659.4001426;659.4001426;659.4001426;659.4001426;659.4001426;659.4001426;['m', 'a', 'n', 'o'];0;[0.8225674999994226, 0.9023136000032537, 1.0298662999994121, 1.2441097000264563];mano;C:\2023\REPSWITCH21092023\REPSWITCH_excgange\REPSWITCH_excgange\data/02.02.01_REPSWITCH1_version2_list1_2023-11-10_15h41.55.444_micRespv2l1_recorded\recording_micRespv2l1_2023-11-10_15h52.49.269.wav;662.4214193;662.9214085;None;662.4214193;662.4214193;662.4214193;662.4214193;662.4214193;662.4214193;;;;;;02.02.01;1;2023-11-10_15h41.55.444;REPSWITCH1_version2_list1;2022.2.4;144.0025806;
REPSWITCH1/PICTURE_175.png;pintor;type;gold;nontarget;1;NT;2;2;1;2;Stim1_Set2;0;None;134;133;32;0;133;133;133;;;;;;;;;;;;;;;;;;;;;;;662.9214085;663.977118;663.977118;663.977118;663.977118;663.977118;663.977118;663.977118;663.977118;['p', 'i', 'n', 't', 'o', 'r'];0;[1.03237629996147, 1.2695889999740757, 1.4893835000111721, 1.673328600008972, 1.8148646999616176, 1.9543867000029422];pintor;C:\2023\REPSWITCH21092023\REPSWITCH_excgange\REPSWITCH_excgange\data/02.02.01_REPSWITCH1_version2_list1_2023-11-10_15h41.55.444_micRespv2l1_recorded\recording_micRespv2l1_2023-11-10_15h52.53.846.wav;666.9983377;667.4984593;None;666.9983377;666.9983377;666.9983377;666.9983377;666.9983377;666.9983377;;;;;;02.02.01;1;2023-11-10_15h41.55.444;REPSWITCH1_version2_list1;2022.2.4;144.0025806;
REPSWITCH1/PICTURE_175.png;pintor;speak;darkblue;switch;2;T;2;2;1;2;Stim1_Set2;0;None;135;134;33;0;134;134;134;;;;;;;;;;;;;;;;;;;;;;;667.4984593;668.6096344;668.6096344;668.6096344;668.6096344;668.6096344;668.6096344;668.6096344;668.6096344;None;0;;;C:\2023\REPSWITCH21092023\REPSWITCH_excgange\REPSWITCH_excgange\data/02.02.01_REPSWITCH1_version2_list1_2023-11-10_15h41.55.444_micRespv2l1_recorded\recording_micRespv2l1_2023-11-10_15h52.58.480.wav;671.6378223;672.1379336;None;671.6378223;671.6378223;671.6378223;671.6378223;671.6378223;671.6378223;;;;;;02.02.01;1;2023-11-10_15h41.55.444;REPSWITCH1_version2_list1;2022.2.4;144.0025806;
REPSWITCH1/PICTURE_135.png;traje;speak;darkblue;filler;2;F;2;2;1;2;Stim3_Set1;1;repeat;136;135;34;0;135;135;135;;;;;;;;;;;;;;;;;;;;;;;672.1379336;673.2977777;673.2977777;673.2977777;673.2977777;673.2977777;673.2977777;673.2977777;673.2977777;None;0;;;C:\2023\REPSWITCH21092023\REPSWITCH_excgange\REPSWITCH_excgange\data/02.02.01_REPSWITCH1_version2_list1_2023-11-10_15h41.55.444_micRespv2l1_recorded\recording_micRespv2l1_2023-11-10_15h53.03.168.wav;676.3259438;;None;676.3259438;676.3259438;676.3259438;676.3259438;676.3259438;676.3259438;;;;;;02.02.01;1;2023-11-10_15h41.55.444;REPSWITCH1_version2_list1;2022.2.4;144.0025806;
REPSWITCH1/PICTURE_446.png;cerdo;speak;darkblue;nontarget;2;NT;2;2;1;2;Stim7_Set2;1;repeat;137;136;35;0;136;136;136;;;;;;;;;;;;;;;;;;;;;;;676.8260733;677.8886499;677.8886499;677.8886499;677.8886499;677.8886499;677.8886499;677.8886499;677.8886499;None;0;;;C:\2023\REPSWITCH21092023\REPSWITCH_excgange\REPSWITCH_excgange\data/02.02.01_REPSWITCH1_version2_list1_2023-11-10_15h41.55.444_micRespv2l1_recorded\recording_micRespv2l1_2023-11-10_15h53.07.759.wav;680.9169104;;None;680.9169104;680.9169104;680.9169104;680.9169104;680.9169104;680.9169104;;;;;;02.02.01;1;2023-11-10_15h41.55.444;REPSWITCH1_version2_list1;2022.2.4;144.0025806;
REPSWITCH1/PICTURE_446.png;cerdo;type;gold;switch;1;T;2;2;1;2;Stim7_Set2;0;None;138;137;36;0;137;137;137;;;;;;;;;;;;;;;;;;;;;;;681.4168839;682.5281679;682.5281679;682.5281679;682.5281679;682.5281679;682.5281679;682.5281679;682.5281679;['c', 'e', 'r', 'd', 'o'];0;[1.2527301000081934, 1.4291386000113562, 1.587916699994821, 1.725428199977614, 1.9317457999568433];cerdo;C:\2023\REPSWITCH21092023\REPSWITCH_excgange\REPSWITCH_excgange\data/02.02.01_REPSWITCH1_version2_list1_2023-11-10_15h41.55.444_micRespv2l1_recorded\recording_micRespv2l1_2023-11-10_15h53.12.398.wav;685.5493524;686.0494232;None;685.5493524;685.5493524;685.5493524;685.5493524;685.5493524;685.5493524;;;;;;02.02.01;1;2023-11-10_15h41.55.444;REPSWITCH1_version2_list1;2022.2.4;144.0025806;
REPSWITCH1/PICTURE_152.png;caracol;type;gold;nontarget;1;NT;2;2;1;2;Stim2_Set2;1;repeat;139;138;37;0;138;138;138;;;;;;;;;;;;;;;;;;;;;;;686.0494232;687.1676217;687.1676217;687.1676217;687.1676217;687.1676217;687.1676217;687.1676217;687.1676217;['c', 'a', 'r', 'a', 'c', 'o', 'l'];0;[0.9586346999858506, 1.135080999985803, 1.2895322000258602, 1.4112524000229314, 1.6530444999807514, 1.7547195000224747, 1.930128899984993];caracol;C:\2023\REPSWITCH21092023\REPSWITCH_excgange\REPSWITCH_excgange\data/02.02.01_REPSWITCH1_version2_list1_2023-11-10_15h41.55.444_micRespv2l1_recorded\recording_micRespv2l1_2023-11-10_15h53.17.038.wav;690.1958237;;None;690.1958237;690.1958237;690.1958237;690.1958237;690.1958237;690.1958237;;;;;;02.02.01;1;2023-11-10_15h41.55.444;REPSWITCH1_version2_list1;2022.2.4;144.0025806;
REPSWITCH1/PICTURE_152.png;caracol;speak;darkblue;switch;2;T;2;2;1;2;Stim2_Set2;0;None;140;139;38;0;139;139;139;;;;;;;;;;;;;;;;;;;;;;;690.6958847;691.7307449;691.7307449;691.7307449;691.7307449;691.7307449;691.7307449;691.7307449;691.7307449;None;0;;;C:\2023\REPSWITCH21092023\REPSWITCH_excgange\REPSWITCH_excgange\data/02.02.01_REPSWITCH1_version2_list1_2023-11-10_15h41.55.444_micRespv2l1_recorded\recording_micRespv2l1_2023-11-10_15h53.21.602.wav;694.7589187;;None;694.7589187;694.7589187;694.7589187;694.7589187;694.7589187;694.7589187;;;;;;02.02.01;1;2023-11-10_15h41.55.444;REPSWITCH1_version2_list1;2022.2.4;144.0025806;
REPSWITCH1/PICTURE_16.png;cazador;type;gold;filler;1;F;2;2;1;2;Stim6_Set1;0;None;141;140;39;0;140;140;140;;;;;;;;;;;;;;;;;;;;;;;695.2589768;696.3980877;696.3980877;696.3980877;696.3980877;696.3980877;696.3980877;696.3980877;696.3980877;['c', 'a', 'z', 'a', 'd', 'o', 'r'];0;[1.001365500036627, 1.1771694000344723, 1.496634199982509, 1.6560844000196084, 1.9334543999866582, 2.204975700005889, 2.3360358999925666];cazador;C:\2023\REPSWITCH21092023\REPSWITCH_excgange\REPSWITCH_excgange\data/02.02.01_REPSWITCH1_version2_list1_2023-11-10_15h41.55.444_micRespv2l1_recorded\recording_micRespv2l1_2023-11-10_15h53.26.267.wav;699.4192283;699.9192746;None;699.4192283;699.4192283;699.4192283;699.4192283;699.4192283;699.4192283;;;;;;02.02.01;1;2023-11-10_15h41.55.444;REPSWITCH1_version2_list1;2022.2.4;144.0025806;
