image,correctAns,respModal,frameColor,repSwitch,sequence,target,set,block,list,exp_version,stimulus,baseline,baseline_condition,trial_no,psychopy_trial,Column1,trialsREPSWITCH.thisRepN,trialsREPSWITCH.thisTrialN,trialsREPSWITCH.thisN,trialsREPSWITCH.thisIndex,textWelcome.started,textboxInstrMain1.started,textboxInstrMain1_2.started,textboxInstrMain1_3.started,keyInstrMain.started,keyInstrMain.keys,keyInstrMain.rt,textboxInstrMain2.started,textboxInstrMain2_2.started,textboxInstrMain2_3.started,textboxInstrMain2_4.started,textboxInstrMain2_5.started,textboxInstrMain2_6.started,textboxInstrMain2_7.started,textboxInstrMain2_8.started,textboxInstrMain2_9.started,textboxInstrMain2_10.started,textboxInstrMain2_11.started,textboxInstrMain2_12.started,keyInstrMain2.started,keyInstrMain2.keys,keyInstrMain2.rt,fixationITI.started,fixationITI.stopped,polygonColour.started,polygonWhite.started,imageObject.started,polygonType.started,textInput.started,keyResp.started,micRespv1l1.started,keyResp.keys,keyResp.corr,keyResp.rt,subjResponse,micRespv1l1.clip,textBlankLoop.started,textBlankLoop.stopped,keyPause.keys,polygonColour.stopped,polygonWhite.stopped,imageObject.stopped,polygonType.stopped,textInput.stopped,keyResp.stopped,textboxPause.started,keyPause.started,keyPause.rt,textboxGoodbye.started,participant,session,date,expName,psychopyVersion,frameRate,
,,,,,,,,,,,,,,,,,,,,,10.608184900018387,13.112486899946816,13.112486899946816,13.112486899946816,13.112486899946816,space,8.014784900005907,,,,,,,,,,,,,,,,,,,,,,,,,,,,,,,,,,,,,,,,,,,000101,001,2023-09-28_10h57.15.798,REPSWITCH1_version1_list1,2022.2.4,143.96194811716686,
,,,,,,,,,,,,,,,,,,,,,,,,,,,,21.15452770004049,21.15452770004049,21.15452770004049,21.15452770004049,21.15452770004049,21.15452770004049,21.15452770004049,21.15452770004049,21.15452770004049,21.15452770004049,21.15452770004049,21.15452770004049,21.15452770004049,space,2.2123049000510946,,,,,,,,,,,,,,,,,,,,,,,,,,,,000101,001,2023-09-28_10h57.15.798,REPSWITCH1_version1_list1,2022.2.4,143.96194811716686,
REPSWITCH1/PICTURE_340.png,espejo,type,darkblue,filler,1,F,1,1,1,1,Extra1,0,None,1,0,1,0,0,0,0,,,,,,,,,,,,,,,,,,,,,,,23.47515359998215,24.530576599994674,24.530576599994674,24.530576599994674,24.530576599994674,24.530576599994674,24.530576599994674,24.530576599994674,24.530576599994674,"['e', 's', 'p', 'e', 'j', 'o']",0,"[1.1562614999711514, 1.2998903000261635, 1.4761256999336183, 1.5721226999303326, 1.8596901999553666, 2.0517264999216422]",espejo,C:\2023\REPSWITCH21092023\REPSWITCH_excgange\REPSWITCH_excgange\data/000101_REPSWITCH1_version1_list1_2023-09-28_10h57.15.798_micRespv1l1_recorded\recording_micRespv1l1_2023-09-28_10h57.34.548.wav,27.551532099954784,28.05159189994447,None,,,,,,,,,,,000101,001,2023-09-28_10h57.15.798,REPSWITCH1_version1_list1,2022.2.4,143.96194811716686,
REPSWITCH1/PICTURE_391.png,cadena,speak,gold,filler,2,F,1,1,1,1,Extra2,0,None,2,1,2,0,1,1,1,,,,,,,,,,,,,,,,,,,,,,,28.05159189994447,29.176989999949,29.176989999949,29.176989999949,29.176989999949,29.176989999949,29.176989999949,29.176989999949,29.176989999949,None,0,,,C:\2023\REPSWITCH21092023\REPSWITCH_excgange\REPSWITCH_excgange\data/000101_REPSWITCH1_version1_list1_2023-09-28_10h57.15.798_micRespv1l1_recorded\recording_micRespv1l1_2023-09-28_10h57.39.196.wav,32.20491780003067,,None,,,,,,,,,,,000101,001,2023-09-28_10h57.15.798,REPSWITCH1_version1_list1,2022.2.4,143.96194811716686,
REPSWITCH1/PICTURE_178.png,puente,speak,gold,nontarget,2,NT,1,1,1,1,Stim1_Set1,1,repeat,3,2,3,0,2,2,2,,,,,,,,,,,,,,,,,,,,,,,32.705169899971224,33.79569319996517,33.79569319996517,33.79569319996517,33.79569319996517,33.79569319996517,33.79569319996517,33.79569319996517,33.79569319996517,None,0,,,C:\2023\REPSWITCH21092023\REPSWITCH_excgange\REPSWITCH_excgange\data/000101_REPSWITCH1_version1_list1_2023-09-28_10h57.15.798_micRespv1l1_recorded\recording_micRespv1l1_2023-09-28_10h57.43.824.wav,36.83055419998709,,None,36.83055419998709,36.83055419998709,36.83055419998709,36.83055419998709,36.83055419998709,36.83055419998709,,,,,000101,001,2023-09-28_10h57.15.798,REPSWITCH1_version1_list1,2022.2.4,143.96194811716686,
REPSWITCH1/PICTURE_178.png,puente,speak,gold,repeat,2,T,1,1,1,1,Stim1_Set1,0,None,4,3,4,0,3,3,3,,,,,,,,,,,,,,,,,,,,,,,37.33049379999284,38.490874400013126,38.490874400013126,38.490874400013126,38.490874400013126,38.490874400013126,38.490874400013126,38.490874400013126,38.490874400013126,None,0,,,C:\2023\REPSWITCH21092023\REPSWITCH_excgange\REPSWITCH_excgange\data/000101_REPSWITCH1_version1_list1_2023-09-28_10h57.15.798_micRespv1l1_recorded\recording_micRespv1l1_2023-09-28_10h57.48.517.wav,41.525801399955526,,None,41.525801399955526,41.525801399955526,41.525801399955526,41.525801399955526,41.525801399955526,41.525801399955526,,,,,000101,001,2023-09-28_10h57.15.798,REPSWITCH1_version1_list1,2022.2.4,143.96194811716686,
REPSWITCH1/PICTURE_319.png,vaca,type,darkblue,filler,1,F,1,1,1,1,Stim1_Set4,0,None,5,4,5,0,4,4,4,,,,,,,,,,,,,,,,,,,,,,,42.02585610002279,43.095867199939676,43.095867199939676,43.095867199939676,43.095867199939676,43.095867199939676,43.095867199939676,43.095867199939676,43.095867199939676,"['v', 'a', 'c', 'a']",0,"[1.0228119000094011, 1.150749700027518, 1.4387506000930443, 1.5350596000207588]",vaca,C:\2023\REPSWITCH21092023\REPSWITCH_excgange\REPSWITCH_excgange\data/000101_REPSWITCH1_version1_list1_2023-09-28_10h57.15.798_micRespv1l1_recorded\recording_micRespv1l1_2023-09-28_10h57.53.113.wav,46.116583099938,46.616724199964665,None,,,,,,,,,,,000101,001,2023-09-28_10h57.15.798,REPSWITCH1_version1_list1,2022.2.4,143.96194811716686,
REPSWITCH1/PICTURE_381.png,fresa,speak,gold,nontarget,2,NT,1,1,1,1,Stim2_Set1,1,switch,6,5,6,0,5,5,5,,,,,,,,,,,,,,,,,,,,,,,46.616724199964665,47.80453810002655,47.80453810002655,47.80453810002655,47.80453810002655,47.80453810002655,47.80453810002655,47.80453810002655,47.80453810002655,"['f', 'r']",0,"[1.1624932999256998, 1.3375313999131322]",fr,C:\2023\REPSWITCH21092023\REPSWITCH_excgange\REPSWITCH_excgange\data/000101_REPSWITCH1_version1_list1_2023-09-28_10h57.15.798_micRespv1l1_recorded\recording_micRespv1l1_2023-09-28_10h57.57.820.wav,50.825424000038765,,None,,,,,,,,,,,000101,001,2023-09-28_10h57.15.798,REPSWITCH1_version1_list1,2022.2.4,143.96194811716686,
REPSWITCH1/PICTURE_381.png,fresa,speak,gold,repeat,2,T,1,1,1,1,Stim2_Set1,0,None,7,6,7,0,6,6,6,,,,,,,,,,,,,,,,,,,,,,,51.325636800029315,52.37443229998462,52.37443229998462,52.37443229998462,52.37443229998462,52.37443229998462,52.37443229998462,52.37443229998462,52.37443229998462,None,0,,,C:\2023\REPSWITCH21092023\REPSWITCH_excgange\REPSWITCH_excgange\data/000101_REPSWITCH1_version1_list1_2023-09-28_10h57.15.798_micRespv1l1_recorded\recording_micRespv1l1_2023-09-28_10h58.02.391.wav,55.39546379994135,,None,,,,,,,,,,,000101,001,2023-09-28_10h57.15.798,REPSWITCH1_version1_list1,2022.2.4,143.96194811716686,
REPSWITCH1/PICTURE_719.png,baño,type,darkblue,filler,1,F,1,1,1,1,Stim2_Set4,1,switch,8,7,8,0,7,7,7,,,,,,,,,,,,,,,,,,,,,,,55.89566219993867,56.9443784999894,56.9443784999894,56.9443784999894,56.9443784999894,56.9443784999894,56.9443784999894,56.9443784999894,56.9443784999894,"['b', 'a', 'ñ', 'o']",0,"[1.0619044000050053, 1.1738464999943972, 1.7176913999719545, 1.9256843000184745]",baño,C:\2023\REPSWITCH21092023\REPSWITCH_excgange\REPSWITCH_excgange\data/000101_REPSWITCH1_version1_list1_2023-09-28_10h57.15.798_micRespv1l1_recorded\recording_micRespv1l1_2023-09-28_10h58.06.965.wav,59.972634300007485,,None,,,,,,,,,,,000101,001,2023-09-28_10h57.15.798,REPSWITCH1_version1_list1,2022.2.4,143.96194811716686,
REPSWITCH1/PICTURE_135.png,traje,speak,gold,nontarget,2,NT,1,1,1,1,Stim3_Set1,0,None,9,8,9,0,8,8,8,,,,,,,,,,,,,,,,,,,,,,,60.472698500030674,61.67439669999294,61.67439669999294,61.67439669999294,61.67439669999294,61.67439669999294,61.67439669999294,61.67439669999294,61.67439669999294,None,0,,,C:\2023\REPSWITCH21092023\REPSWITCH_excgange\REPSWITCH_excgange\data/000101_REPSWITCH1_version1_list1_2023-09-28_10h57.15.798_micRespv1l1_recorded\recording_micRespv1l1_2023-09-28_10h58.11.693.wav,64.70240189996548,,None,,,,,,,,,,,000101,001,2023-09-28_10h57.15.798,REPSWITCH1_version1_list1,2022.2.4,143.96194811716686,
REPSWITCH1/PICTURE_135.png,traje,type,darkblue,switch,1,T,1,1,1,1,Stim3_Set1,0,None,10,9,10,0,9,9,9,,,,,,,,,,,,,,,,,,,,,,,65.20249309996143,66.31370639998931,66.31370639998931,66.31370639998931,66.31370639998931,66.31370639998931,66.31370639998931,66.31370639998931,66.31370639998931,"['t', 'r', 'a', 'j', 'e']",0,"[1.0531188999302685, 1.2290729000233114, 1.2930978999938816, 1.6452155000297353, 1.742071499931626]",traje,C:\2023\REPSWITCH21092023\REPSWITCH_excgange\REPSWITCH_excgange\data/000101_REPSWITCH1_version1_list1_2023-09-28_10h57.15.798_micRespv1l1_recorded\recording_micRespv1l1_2023-09-28_10h58.16.330.wav,69.33478529995773,,None,,,,,,,,,,,000101,001,2023-09-28_10h57.15.798,REPSWITCH1_version1_list1,2022.2.4,143.96194811716686,
REPSWITCH1/PICTURE_687.png,camisa,speak,gold,filler,2,F,1,1,1,1,Stim5_Set4,0,None,11,10,11,0,10,10,10,,,,,,,,,,,,,,,,,,,,,,,69.83527459995821,70.93925479997415,70.93925479997415,70.93925479997415,70.93925479997415,70.93925479997415,70.93925479997415,70.93925479997415,70.93925479997415,None,0,,,C:\2023\REPSWITCH21092023\REPSWITCH_excgange\REPSWITCH_excgange\data/000101_REPSWITCH1_version1_list1_2023-09-28_10h57.15.798_micRespv1l1_recorded\recording_micRespv1l1_2023-09-28_10h58.20.969.wav,73.97426869999617,,None,73.97426869999617,73.97426869999617,73.97426869999617,73.97426869999617,73.97426869999617,73.97426869999617,,,,,000101,001,2023-09-28_10h57.15.798,REPSWITCH1_version1_list1,2022.2.4,143.96194811716686,
REPSWITCH1/PICTURE_128.png,muñeca,type,darkblue,nontarget,1,NT,1,1,1,1,Stim4_Set1,1,switch,12,11,12,0,11,11,11,,,,,,,,,,,,,,,,,,,,,,,74.47421899996698,75.55107739998493,75.55107739998493,75.55107739998493,75.55107739998493,75.55107739998493,75.55107739998493,75.55107739998493,75.55107739998493,"['m', 'u', 'ñ', 'e', 'c', 'a']",0,"[1.2712538000196218, 1.5275862000416964, 1.9430790999904275, 2.1836468999972567, 2.551761499955319, 2.679207199951634]",muñeca,C:\2023\REPSWITCH21092023\REPSWITCH_excgange\REPSWITCH_excgange\data/000101_REPSWITCH1_version1_list1_2023-09-28_10h57.15.798_micRespv1l1_recorded\recording_micRespv1l1_2023-09-28_10h58.25.579.wav,78.58599619998131,,None,78.58599619998131,78.58599619998131,78.58599619998131,78.58599619998131,78.58599619998131,78.58599619998131,,,,,000101,001,2023-09-28_10h57.15.798,REPSWITCH1_version1_list1,2022.2.4,143.96194811716686,
REPSWITCH1/PICTURE_128.png,muñeca,speak,gold,switch,2,T,1,1,1,1,Stim4_Set1,0,None,13,12,13,0,12,12,12,,,,,,,,,,,,,,,,,,,,,,,79.08607049996499,80.19744429993443,80.19744429993443,80.19744429993443,80.19744429993443,80.19744429993443,80.19744429993443,80.19744429993443,80.19744429993443,None,0,,,C:\2023\REPSWITCH21092023\REPSWITCH_excgange\REPSWITCH_excgange\data/000101_REPSWITCH1_version1_list1_2023-09-28_10h57.15.798_micRespv1l1_recorded\recording_micRespv1l1_2023-09-28_10h58.30.214.wav,83.21853079996072,,None,,,,,,,,,,,000101,001,2023-09-28_10h57.15.798,REPSWITCH1_version1_list1,2022.2.4,143.96194811716686,
REPSWITCH1/PICTURE_8.png,pierna,speak,gold,filler,2,F,1,1,1,1,Stim3_Set4,0,None,14,13,14,0,13,13,13,,,,,,,,,,,,,,,,,,,,,,,83.7185962999938,84.78844849998131,84.78844849998131,84.78844849998131,84.78844849998131,84.78844849998131,84.78844849998131,84.78844849998131,84.78844849998131,None,0,,,C:\2023\REPSWITCH21092023\REPSWITCH_excgange\REPSWITCH_excgange\data/000101_REPSWITCH1_version1_list1_2023-09-28_10h57.15.798_micRespv1l1_recorded\recording_micRespv1l1_2023-09-28_10h58.34.817.wav,87.82330119994003,,None,87.82330119994003,87.82330119994003,87.82330119994003,87.82330119994003,87.82330119994003,87.82330119994003,,,,,000101,001,2023-09-28_10h57.15.798,REPSWITCH1_version1_list1,2022.2.4,143.96194811716686,
REPSWITCH1/PICTURE_19.png,pavo,speak,gold,nontarget,2,NT,1,1,1,1,Stim5_Set1,0,None,15,14,15,0,14,14,14,,,,,,,,,,,,,,,,,,,,,,,88.32354999997187,89.44179529999383,89.44179529999383,89.44179529999383,89.44179529999383,89.44179529999383,89.44179529999383,89.44179529999383,89.44179529999383,None,0,,,C:\2023\REPSWITCH21092023\REPSWITCH_excgange\REPSWITCH_excgange\data/000101_REPSWITCH1_version1_list1_2023-09-28_10h57.15.798_micRespv1l1_recorded\recording_micRespv1l1_2023-09-28_10h58.39.461.wav,92.46378819993697,92.96315299998969,None,,,,,,,,,,,000101,001,2023-09-28_10h57.15.798,REPSWITCH1_version1_list1,2022.2.4,143.96194811716686,
REPSWITCH1/PICTURE_19.png,pavo,type,darkblue,switch,1,T,1,1,1,1,Stim5_Set1,0,None,16,15,16,0,15,15,15,,,,,,,,,,,,,,,,,,,,,,,92.96315299998969,94.01187359995674,94.01187359995674,94.01187359995674,94.01187359995674,94.01187359995674,94.01187359995674,94.01187359995674,94.01187359995674,"['p', 'a', 'v', 'o']",0,"[1.1791784000815824, 1.8351717999903485, 2.4107786000240594, 2.5387376999715343]",pavo,C:\2023\REPSWITCH21092023\REPSWITCH_excgange\REPSWITCH_excgange\data/000101_REPSWITCH1_version1_list1_2023-09-28_10h57.15.798_micRespv1l1_recorded\recording_micRespv1l1_2023-09-28_10h58.44.038.wav,97.03901339997537,97.53923530003522,None,97.03901339997537,97.03901339997537,97.03901339997537,97.03901339997537,97.03901339997537,97.03901339997537,,,,,000101,001,2023-09-28_10h57.15.798,REPSWITCH1_version1_list1,2022.2.4,143.96194811716686,
REPSWITCH1/PICTURE_16.png,cazador,type,darkblue,nontarget,1,NT,1,1,1,1,Stim6_Set1,1,switch,17,16,17,0,16,16,16,,,,,,,,,,,,,,,,,,,,,,,97.53923530003522,98.61709880002309,98.61709880002309,98.61709880002309,98.61709880002309,98.61709880002309,98.61709880002309,98.61709880002309,98.61709880002309,"['c', 'a', 'z', 'a', 'd', 'o', 'r']",0,"[1.1018073000013828, 1.229812000063248, 1.4370688000926748, 1.6137320999987423, 1.837660500081256, 2.061634200043045, 2.2225141000235453]",cazador,C:\2023\REPSWITCH21092023\REPSWITCH_excgange\REPSWITCH_excgange\data/000101_REPSWITCH1_version1_list1_2023-09-28_10h57.15.798_micRespv1l1_recorded\recording_micRespv1l1_2023-09-28_10h58.48.635.wav,101.63702140003443,102.1378423999995,None,,,,,,,,,,,000101,001,2023-09-28_10h57.15.798,REPSWITCH1_version1_list1,2022.2.4,143.96194811716686,
REPSWITCH1/PICTURE_16.png,cazador,type,darkblue,repeat,1,T,1,1,1,1,Stim6_Set1,0,None,18,17,18,0,17,17,17,,,,,,,,,,,,,,,,,,,,,,,102.1378423999995,103.20051100000273,103.20051100000273,103.20051100000273,103.20051100000273,103.20051100000273,103.20051100000273,103.20051100000273,103.20051100000273,"['c', 'a', 'z', 'a', 'd', 'o', 'r']",0,"[1.3816163999726996, 1.4776187000097707, 1.6696168999187648, 1.8456799000268802, 2.0857946999603882, 2.3101250999607146, 2.502126900013536]",cazador,C:\2023\REPSWITCH21092023\REPSWITCH_excgange\REPSWITCH_excgange\data/000101_REPSWITCH1_version1_list1_2023-09-28_10h57.15.798_micRespv1l1_recorded\recording_micRespv1l1_2023-09-28_10h58.53.218.wav,106.22152859997004,,None,,,,,,,,,,,000101,001,2023-09-28_10h57.15.798,REPSWITCH1_version1_list1,2022.2.4,143.96194811716686,
REPSWITCH1/PICTURE_498.png,taza,speak,gold,filler,2,F,1,1,1,1,Stim4_Set4,0,None,19,18,19,0,18,18,18,,,,,,,,,,,,,,,,,,,,,,,106.72176809993107,107.81259119999595,107.81259119999595,107.81259119999595,107.81259119999595,107.81259119999595,107.81259119999595,107.81259119999595,107.81259119999595,None,0,,,C:\2023\REPSWITCH21092023\REPSWITCH_excgange\REPSWITCH_excgange\data/000101_REPSWITCH1_version1_list1_2023-09-28_10h57.15.798_micRespv1l1_recorded\recording_micRespv1l1_2023-09-28_10h58.57.842.wav,110.8474295999622,111.34729029994924,None,110.8474295999622,110.8474295999622,110.8474295999622,110.8474295999622,110.8474295999622,110.8474295999622,,,,,000101,001,2023-09-28_10h57.15.798,REPSWITCH1_version1_list1,2022.2.4,143.96194811716686,
REPSWITCH1/PICTURE_48.png,bombero,type,darkblue,filler,1,F,1,1,1,1,Stim7_Set4,0,None,20,19,20,0,19,19,19,,,,,,,,,,,,,,,,,,,,,,,111.34729029994924,112.47260700003244,112.47260700003244,112.47260700003244,112.47260700003244,112.47260700003244,112.47260700003244,112.47260700003244,112.47260700003244,"['b', 'o', 'm', 'b', 'e', 'r', 'o']",0,"[1.2939450000412762, 1.4859041000017896, 1.7262316000415012, 2.477342100115493, 2.5895448001101613, 2.749545900034718, 2.9575083000818267]",bombero,C:\2023\REPSWITCH21092023\REPSWITCH_excgange\REPSWITCH_excgange\data/000101_REPSWITCH1_version1_list1_2023-09-28_10h57.15.798_micRespv1l1_recorded\recording_micRespv1l1_2023-09-28_10h59.02.501.wav,115.50774349994026,,None,115.50774349994026,115.50774349994026,115.50774349994026,115.50774349994026,115.50774349994026,115.50774349994026,,,,,000101,001,2023-09-28_10h57.15.798,REPSWITCH1_version1_list1,2022.2.4,143.96194811716686,
REPSWITCH1/PICTURE_142.png,vaso,type,darkblue,nontarget,1,NT,1,1,1,1,Stim7_Set1,1,repeat,21,20,21,0,20,20,20,,,,,,,,,,,,,,,,,,,,,,,116.00761800003238,117.2162542999722,117.2162542999722,117.2162542999722,117.2162542999722,117.2162542999722,117.2162542999722,117.2162542999722,117.2162542999722,"['v', 'a', 's', 'o']",0,"[1.2698062000563368, 1.349768599960953, 1.5257617000024766, 1.7342132000485435]",vaso,C:\2023\REPSWITCH21092023\REPSWITCH_excgange\REPSWITCH_excgange\data/000101_REPSWITCH1_version1_list1_2023-09-28_10h57.15.798_micRespv1l1_recorded\recording_micRespv1l1_2023-09-28_10h59.07.234.wav,120.23678509995807,120.73718379996717,None,,,,,,,,,,,000101,001,2023-09-28_10h57.15.798,REPSWITCH1_version1_list1,2022.2.4,143.96194811716686,
REPSWITCH1/PICTURE_142.png,vaso,type,darkblue,repeat,1,T,1,1,1,1,Stim7_Set1,0,None,22,21,22,0,21,21,21,,,,,,,,,,,,,,,,,,,,,,,120.73718379996717,121.82812199997716,121.82812199997716,121.82812199997716,121.82812199997716,121.82812199997716,121.82812199997716,121.82812199997716,121.82812199997716,"['v', 'a', 's', 'o']",0,"[0.8024194999597967, 0.8824213000480086, 1.0424034999450669, 1.2504260999849066]",vaso,C:\2023\REPSWITCH21092023\REPSWITCH_excgange\REPSWITCH_excgange\data/000101_REPSWITCH1_version1_list1_2023-09-28_10h57.15.798_micRespv1l1_recorded\recording_micRespv1l1_2023-09-28_10h59.11.844.wav,124.84895410004538,,None,,,,,,,,,,,000101,001,2023-09-28_10h57.15.798,REPSWITCH1_version1_list1,2022.2.4,143.96194811716686,
REPSWITCH1/PICTURE_338.png,regalo,speak,gold,filler,2,F,1,1,1,1,Stim6_Set4,1,switch,23,22,23,0,22,22,22,,,,,,,,,,,,,,,,,,,,,,,125.34926709998399,126.42567659995984,126.42567659995984,126.42567659995984,126.42567659995984,126.42567659995984,126.42567659995984,126.42567659995984,126.42567659995984,None,0,,,C:\2023\REPSWITCH21092023\REPSWITCH_excgange\REPSWITCH_excgange\data/000101_REPSWITCH1_version1_list1_2023-09-28_10h57.15.798_micRespv1l1_recorded\recording_micRespv1l1_2023-09-28_10h59.16.438.wav,129.44683259993326,,None,,,,,,,,,,,000101,001,2023-09-28_10h57.15.798,REPSWITCH1_version1_list1,2022.2.4,143.96194811716686,
REPSWITCH1/PICTURE_728.png,pulpo,type,darkblue,filler,1,F,1,1,1,1,Stim8_Set4,1,switch,24,23,24,0,23,23,23,,,,,,,,,,,,,,,,,,,,,,,129.94703179993667,130.98893959994894,130.98893959994894,130.98893959994894,130.98893959994894,130.98893959994894,130.98893959994894,130.98893959994894,130.98893959994894,"['p', 'u', 'l', 'p']",0,"[2.0580738000571728, 2.345039500040002, 2.7451270000310615, 2.9210748000768945]",pulp,C:\2023\REPSWITCH21092023\REPSWITCH_excgange\REPSWITCH_excgange\data/000101_REPSWITCH1_version1_list1_2023-09-28_10h57.15.798_micRespv1l1_recorded\recording_micRespv1l1_2023-09-28_10h59.21.005.wav,134.01012919994537,,None,,,,,,,,,,,000101,001,2023-09-28_10h57.15.798,REPSWITCH1_version1_list1,2022.2.4,143.96194811716686,
REPSWITCH1/PICTURE_169.png,espalda,type,darkblue,nontarget,1,NT,1,1,1,1,Stim8_Set1,1,repeat,25,24,25,0,24,24,24,,,,,,,,,,,,,,,,,,,,,,,134.5102339000441,135.78814800002147,135.78814800002147,135.78814800002147,135.78814800002147,135.78814800002147,135.78814800002147,135.78814800002147,135.78814800002147,"['e', 's', 'p', 'a', 'l', 'd', 'a']",0,"[1.3060849999310449, 1.4822349000023678, 1.6102108999621123, 1.7062111999839544, 1.8980039999587461, 2.1859986999770626, 2.394044299959205]",espalda,C:\2023\REPSWITCH21092023\REPSWITCH_excgange\REPSWITCH_excgange\data/000101_REPSWITCH1_version1_list1_2023-09-28_10h57.15.798_micRespv1l1_recorded\recording_micRespv1l1_2023-09-28_10h59.25.817.wav,138.82299739995506,,None,138.82299739995506,138.82299739995506,138.82299739995506,138.82299739995506,138.82299739995506,138.82299739995506,,,,,000101,001,2023-09-28_10h57.15.798,REPSWITCH1_version1_list1,2022.2.4,143.96194811716686,
REPSWITCH1/PICTURE_169.png,espalda,speak,gold,switch,2,T,1,1,1,1,Stim8_Set1,0,None,26,25,26,0,25,25,25,,,,,,,,,,,,,,,,,,,,,,,139.32335970003624,140.42757820000406,140.42757820000406,140.42757820000406,140.42757820000406,140.42757820000406,140.42757820000406,140.42757820000406,140.42757820000406,None,0,,,C:\2023\REPSWITCH21092023\REPSWITCH_excgange\REPSWITCH_excgange\data/000101_REPSWITCH1_version1_list1_2023-09-28_10h57.15.798_micRespv1l1_recorded\recording_micRespv1l1_2023-09-28_10h59.30.454.wav,143.4549430999905,143.95590780000202,None,143.4549430999905,143.4549430999905,143.4549430999905,143.4549430999905,143.4549430999905,143.4549430999905,,,,,000101,001,2023-09-28_10h57.15.798,REPSWITCH1_version1_list1,2022.2.4,143.96194811716686,
REPSWITCH1/PICTURE_178.png,puente,speak,gold,filler,2,F,2,1,1,1,Stim1_Set1,0,None,27,26,27,0,26,26,26,,,,,,,,,,,,,,,,,,,,,,,143.95590780000202,145.1574832999613,145.1574832999613,145.1574832999613,145.1574832999613,145.1574832999613,145.1574832999613,145.1574832999613,145.1574832999613,None,0,,,C:\2023\REPSWITCH21092023\REPSWITCH_excgange\REPSWITCH_excgange\data/000101_REPSWITCH1_version1_list1_2023-09-28_10h57.15.798_micRespv1l1_recorded\recording_micRespv1l1_2023-09-28_10h59.35.173.wav,148.17838599998504,,None,,,,,,,,,,,000101,001,2023-09-28_10h57.15.798,REPSWITCH1_version1_list1,2022.2.4,143.96194811716686,
REPSWITCH1/PICTURE_175.png,pintor,type,darkblue,nontarget,1,NT,2,1,1,1,Stim1_Set2,1,switch,28,27,28,0,27,27,27,,,,,,,,,,,,,,,,,,,,,,,148.67862659995444,149.8733848000411,149.8733848000411,149.8733848000411,149.8733848000411,149.8733848000411,149.8733848000411,149.8733848000411,149.8733848000411,"['p', 'i', 'n', 'm', 't', 'o', 'r']",0,"[1.2692992000374943, 1.5087501000380144, 1.7168069001054391, 1.7342603000579402, 1.957159300101921, 2.068599999998696, 2.2125978000694886]",pinmtor,C:\2023\REPSWITCH21092023\REPSWITCH_excgange\REPSWITCH_excgange\data/000101_REPSWITCH1_version1_list1_2023-09-28_10h57.15.798_micRespv1l1_recorded\recording_micRespv1l1_2023-09-28_10h59.39.892.wav,152.8944945000112,153.39443410001695,None,,,,,,,,,,,000101,001,2023-09-28_10h57.15.798,REPSWITCH1_version1_list1,2022.2.4,143.96194811716686,
REPSWITCH1/PICTURE_175.png,pintor,type,darkblue,repeat,1,T,2,1,1,1,Stim1_Set2,0,None,29,28,29,0,28,28,28,,,,,,,,,,,,,,,,,,,,,,,153.39443410001695,154.45023860002402,154.45023860002402,154.45023860002402,154.45023860002402,154.45023860002402,154.45023860002402,154.45023860002402,154.45023860002402,"['p', 'i', 'n', 't', 'o', 'r']",0,"[0.7563112999778241, 0.9957538999151438, 1.3000714000081643, 1.492073699948378, 1.62007750000339, 2.3720760999713093]",pintor,C:\2023\REPSWITCH21092023\REPSWITCH_excgange\REPSWITCH_excgange\data/000101_REPSWITCH1_version1_list1_2023-09-28_10h57.15.798_micRespv1l1_recorded\recording_micRespv1l1_2023-09-28_10h59.44.477.wav,157.47759649995714,157.97768679994624,None,157.47759649995714,157.47759649995714,157.47759649995714,157.47759649995714,157.47759649995714,157.47759649995714,,,,,000101,001,2023-09-28_10h57.15.798,REPSWITCH1_version1_list1,2022.2.4,143.96194811716686,
REPSWITCH1/PICTURE_381.png,fresa,speak,gold,filler,2,F,2,1,1,1,Stim2_Set1,0,None,30,29,30,0,29,29,29,,,,,,,,,,,,,,,,,,,,,,,157.97768679994624,159.1245273000095,159.1245273000095,159.1245273000095,159.1245273000095,159.1245273000095,159.1245273000095,159.1245273000095,159.1245273000095,None,0,,,C:\2023\REPSWITCH21092023\REPSWITCH_excgange\REPSWITCH_excgange\data/000101_REPSWITCH1_version1_list1_2023-09-28_10h57.15.798_micRespv1l1_recorded\recording_micRespv1l1_2023-09-28_10h59.49.141.wav,162.14556610002182,,None,,,,,,,,,,,000101,001,2023-09-28_10h57.15.798,REPSWITCH1_version1_list1,2022.2.4,143.96194811716686,
REPSWITCH1/PICTURE_152.png,caracol,type,darkblue,nontarget,1,NT,2,1,1,1,Stim2_Set2,1,switch,31,30,31,0,30,30,30,,,,,,,,,,,,,,,,,,,,,,,162.64573079999536,163.8127194000408,163.8127194000408,163.8127194000408,163.8127194000408,163.8127194000408,163.8127194000408,163.8127194000408,163.8127194000408,"['c', 'a', 'r', 'a', 'c', 'o', 'l']",0,"[1.1854427000507712, 1.2814466001000255, 1.4733624000800774, 1.5533489000517875, 1.793927100021392, 2.0179664000170305, 2.1939490000950173]",caracol,C:\2023\REPSWITCH21092023\REPSWITCH_excgange\REPSWITCH_excgange\data/000101_REPSWITCH1_version1_list1_2023-09-28_10h57.15.798_micRespv1l1_recorded\recording_micRespv1l1_2023-09-28_10h59.53.841.wav,166.84745450003538,,None,166.84745450003538,166.84745450003538,166.84745450003538,166.84745450003538,166.84745450003538,166.84745450003538,,,,,000101,001,2023-09-28_10h57.15.798,REPSWITCH1_version1_list1,2022.2.4,143.96194811716686,
REPSWITCH1/PICTURE_152.png,caracol,type,darkblue,repeat,1,T,2,1,1,1,Stim2_Set2,0,None,32,31,32,0,31,31,31,,,,,,,,,,,,,,,,,,,,,,,167.34761920000892,168.47301179997157,168.47301179997157,168.47301179997157,168.47301179997157,168.47301179997157,168.47301179997157,168.47301179997157,168.47301179997157,"['c', 'a', 'r', 'a', 'c', 'o', 'l']",0,"[1.0371809999924153, 1.1332058999687433, 1.3410483000334352, 1.421061099972576, 1.6770476000383496, 1.933016899973154, 2.0770151000469923]",caracol,C:\2023\REPSWITCH21092023\REPSWITCH_excgange\REPSWITCH_excgange\data/000101_REPSWITCH1_version1_list1_2023-09-28_10h57.15.798_micRespv1l1_recorded\recording_micRespv1l1_2023-09-28_10h59.58.500.wav,171.50794090004638,,None,171.50794090004638,171.50794090004638,171.50794090004638,171.50794090004638,171.50794090004638,171.50794090004638,,,,,000101,001,2023-09-28_10h57.15.798,REPSWITCH1_version1_list1,2022.2.4,143.96194811716686,
REPSWITCH1/PICTURE_128.png,muñeca,speak,gold,filler,2,F,2,1,1,1,Stim4_Set1,0,None,33,32,33,0,32,32,32,,,,,,,,,,,,,,,,,,,,,,,172.00795799994376,173.07784939999692,173.07784939999692,173.07784939999692,173.07784939999692,173.07784939999692,173.07784939999692,173.07784939999692,173.07784939999692,None,0,,,C:\2023\REPSWITCH21092023\REPSWITCH_excgange\REPSWITCH_excgange\data/000101_REPSWITCH1_version1_list1_2023-09-28_10h57.15.798_micRespv1l1_recorded\recording_micRespv1l1_2023-09-28_11h00.03.093.wav,176.09883849998005,,None,,,,,,,,,,,000101,001,2023-09-28_10h57.15.798,REPSWITCH1_version1_list1,2022.2.4,143.96194811716686,
REPSWITCH1/PICTURE_264.png,mano,type,darkblue,nontarget,1,NT,2,1,1,1,Stim3_Set2,0,None,34,33,34,0,33,33,33,,,,,,,,,,,,,,,,,,,,,,,176.5989117999561,177.73066959995776,177.73066959995776,177.73066959995776,177.73066959995776,177.73066959995776,177.73066959995776,177.73066959995776,177.73066959995776,"['m', 'a', 'n', 'o']",0,"[1.0756308999843895, 1.1885769000509754, 1.4113324000500143, 1.6358428000239655]",mano,C:\2023\REPSWITCH21092023\REPSWITCH_excgange\REPSWITCH_excgange\data/000101_REPSWITCH1_version1_list1_2023-09-28_10h57.15.798_micRespv1l1_recorded\recording_micRespv1l1_2023-09-28_11h00.07.750.wav,180.75239309994504,181.2524891999783,None,,,,,,,,,,,000101,001,2023-09-28_10h57.15.798,REPSWITCH1_version1_list1,2022.2.4,143.96194811716686,
REPSWITCH1/PICTURE_264.png,mano,speak,gold,switch,2,T,2,1,1,1,Stim3_Set2,0,None,35,34,35,0,34,34,34,,,,,,,,,,,,,,,,,,,,,,,181.2524891999783,182.3427412000019,182.3427412000019,182.3427412000019,182.3427412000019,182.3427412000019,182.3427412000019,182.3427412000019,182.3427412000019,None,0,,,C:\2023\REPSWITCH21092023\REPSWITCH_excgange\REPSWITCH_excgange\data/000101_REPSWITCH1_version1_list1_2023-09-28_10h57.15.798_micRespv1l1_recorded\recording_micRespv1l1_2023-09-28_11h00.12.359.wav,185.3637783000013,,None,,,,,,,,,,,000101,001,2023-09-28_10h57.15.798,REPSWITCH1_version1_list1,2022.2.4,143.96194811716686,
REPSWITCH1/PICTURE_517.png,cuerda,speak,gold,nontarget,2,NT,2,1,1,1,Stim4_Set2,1,repeat,36,35,36,0,35,35,35,,,,,,,,,,,,,,,,,,,,,,,185.8640299999388,186.9684452000074,186.9684452000074,186.9684452000074,186.9684452000074,186.9684452000074,186.9684452000074,186.9684452000074,186.9684452000074,None,0,,,C:\2023\REPSWITCH21092023\REPSWITCH_excgange\REPSWITCH_excgange\data/000101_REPSWITCH1_version1_list1_2023-09-28_10h57.15.798_micRespv1l1_recorded\recording_micRespv1l1_2023-09-28_11h00.16.987.wav,189.99029680003878,190.48963399999775,None,,,,,,,,,,,000101,001,2023-09-28_10h57.15.798,REPSWITCH1_version1_list1,2022.2.4,143.96194811716686,
REPSWITCH1/PICTURE_517.png,cuerda,type,darkblue,switch,1,T,2,1,1,1,Stim4_Set2,0,None,37,36,37,0,36,36,36,,,,,,,,,,,,,,,,,,,,,,,190.48963399999775,191.6147797999438,191.6147797999438,191.6147797999438,191.6147797999438,191.6147797999438,191.6147797999438,191.6147797999438,191.6147797999438,"['c', 'u', 'e', 'r', 'd', 'a']",0,"[1.0478685999987647, 1.2557778999907896, 1.4155634000198916, 1.5755948000587523, 1.7675950999837369, 1.943607300054282]",cuerda,C:\2023\REPSWITCH21092023\REPSWITCH_excgange\REPSWITCH_excgange\data/000101_REPSWITCH1_version1_list1_2023-09-28_10h57.15.798_micRespv1l1_recorded\recording_micRespv1l1_2023-09-28_11h00.21.641.wav,194.64219369995408,195.14299640001263,None,194.64219369995408,194.64219369995408,194.64219369995408,194.64219369995408,194.64219369995408,194.64219369995408,,,,,000101,001,2023-09-28_10h57.15.798,REPSWITCH1_version1_list1,2022.2.4,143.96194811716686,
REPSWITCH1/PICTURE_135.png,traje,type,darkblue,filler,1,F,2,1,1,1,Stim3_Set1,0,None,38,37,38,0,37,37,37,,,,,,,,,,,,,,,,,,,,,,,195.14299640001263,196.3099958000239,196.3099958000239,196.3099958000239,196.3099958000239,196.3099958000239,196.3099958000239,196.3099958000239,196.3099958000239,"['t', 'r', 'a', 'j', 'e']",0,"[1.1048666998976842, 1.2800491999369115, 1.3280333000002429, 1.6799916999880224, 1.7760016999673098]",traje,C:\2023\REPSWITCH21092023\REPSWITCH_excgange\REPSWITCH_excgange\data/000101_REPSWITCH1_version1_list1_2023-09-28_10h57.15.798_micRespv1l1_recorded\recording_micRespv1l1_2023-09-28_11h00.26.336.wav,199.3371231999481,199.838199299993,None,199.3371231999481,199.3371231999481,199.3371231999481,199.3371231999481,199.3371231999481,199.3371231999481,,,,,000101,001,2023-09-28_10h57.15.798,REPSWITCH1_version1_list1,2022.2.4,143.96194811716686,
REPSWITCH1/PICTURE_30.png,granja,type,darkblue,nontarget,1,NT,2,1,1,1,Stim5_Set2,1,repeat,39,38,39,0,38,38,38,,,,,,,,,,,,,,,,,,,,,,,199.838199299993,200.90757849998772,200.90757849998772,200.90757849998772,200.90757849998772,200.90757849998772,200.90757849998772,200.90757849998772,200.90757849998772,"['g', 'r', 'a', 'n', 'j', 'a']",0,"[1.5628639999777079, 1.771051699994132, 1.8343219999223948, 2.1383459999924526, 2.3303423000033945, 2.378311099950224]",granja,C:\2023\REPSWITCH21092023\REPSWITCH_excgange\REPSWITCH_excgange\data/000101_REPSWITCH1_version1_list1_2023-09-28_10h57.15.798_micRespv1l1_recorded\recording_micRespv1l1_2023-09-28_11h00.30.938.wav,203.94196940003894,204.44193359999917,None,203.94196940003894,203.94196940003894,203.94196940003894,203.94196940003894,203.94196940003894,203.94196940003894,,,,,000101,001,2023-09-28_10h57.15.798,REPSWITCH1_version1_list1,2022.2.4,143.96194811716686,
REPSWITCH1/PICTURE_30.png,granja,speak,gold,switch,2,T,2,1,1,1,Stim5_Set2,0,None,40,39,40,0,39,39,39,,,,,,,,,,,,,,,,,,,,,,,204.44193359999917,205.58092800003942,205.58092800003942,205.58092800003942,205.58092800003942,205.58092800003942,205.58092800003942,205.58092800003942,205.58092800003942,None,0,,,C:\2023\REPSWITCH21092023\REPSWITCH_excgange\REPSWITCH_excgange\data/000101_REPSWITCH1_version1_list1_2023-09-28_10h57.15.798_micRespv1l1_recorded\recording_micRespv1l1_2023-09-28_11h00.35.605.wav,208.6098850000417,,None,208.6098850000417,208.6098850000417,208.6098850000417,208.6098850000417,208.6098850000417,208.6098850000417,,,,,000101,001,2023-09-28_10h57.15.798,REPSWITCH1_version1_list1,2022.2.4,143.96194811716686,
REPSWITCH1/PICTURE_142.png,vaso,type,darkblue,filler,1,F,2,1,1,1,Stim7_Set1,0,None,41,40,41,0,40,40,40,,,,,,,,,,,,,,,,,,,,,,,209.11011220002547,210.22145589999855,210.22145589999855,210.22145589999855,210.22145589999855,210.22145589999855,210.22145589999855,210.22145589999855,210.22145589999855,"['v', 'a', 's', 'o']",0,"[1.064548399997875, 1.1285278999712318, 1.3044909000163898, 1.4645274999784306]",vaso,C:\2023\REPSWITCH21092023\REPSWITCH_excgange\REPSWITCH_excgange\data/000101_REPSWITCH1_version1_list1_2023-09-28_10h57.15.798_micRespv1l1_recorded\recording_micRespv1l1_2023-09-28_11h00.40.237.wav,213.2427246000152,,None,,,,,,,,,,,000101,001,2023-09-28_10h57.15.798,REPSWITCH1_version1_list1,2022.2.4,143.96194811716686,
REPSWITCH1/PICTURE_19.png,pavo,speak,gold,filler,2,F,2,1,1,1,Stim5_Set1,1,switch,42,41,42,0,41,41,41,,,,,,,,,,,,,,,,,,,,,,,213.74249129998498,214.80533550004475,214.80533550004475,214.80533550004475,214.80533550004475,214.80533550004475,214.80533550004475,214.80533550004475,214.80533550004475,None,0,,,C:\2023\REPSWITCH21092023\REPSWITCH_excgange\REPSWITCH_excgange\data/000101_REPSWITCH1_version1_list1_2023-09-28_10h57.15.798_micRespv1l1_recorded\recording_micRespv1l1_2023-09-28_11h00.44.832.wav,217.83207280002534,218.3325959999347,None,217.83207280002534,217.83207280002534,217.83207280002534,217.83207280002534,217.83207280002534,217.83207280002534,,,,,000101,001,2023-09-28_10h57.15.798,REPSWITCH1_version1_list1,2022.2.4,143.96194811716686,
REPSWITCH1/PICTURE_552.png,manzana,speak,gold,nontarget,2,NT,2,1,1,1,Stim6_Set2,1,repeat,43,42,43,0,42,42,42,,,,,,,,,,,,,,,,,,,,,,,218.3325959999347,219.46470509993378,219.46470509993378,219.46470509993378,219.46470509993378,219.46470509993378,219.46470509993378,219.46470509993378,219.46470509993378,None,0,,,C:\2023\REPSWITCH21092023\REPSWITCH_excgange\REPSWITCH_excgange\data/000101_REPSWITCH1_version1_list1_2023-09-28_10h57.15.798_micRespv1l1_recorded\recording_micRespv1l1_2023-09-28_11h00.49.483.wav,222.4867694999557,222.98663229995873,None,,,,,,,,,,,000101,001,2023-09-28_10h57.15.798,REPSWITCH1_version1_list1,2022.2.4,143.96194811716686,
REPSWITCH1/PICTURE_552.png,manzana,speak,gold,repeat,2,T,2,1,1,1,Stim6_Set2,0,None,44,43,44,0,43,43,43,,,,,,,,,,,,,,,,,,,,,,,222.98663229995873,224.1189744999865,224.1189744999865,224.1189744999865,224.1189744999865,224.1189744999865,224.1189744999865,224.1189744999865,224.1189744999865,None,0,,,C:\2023\REPSWITCH21092023\REPSWITCH_excgange\REPSWITCH_excgange\data/000101_REPSWITCH1_version1_list1_2023-09-28_10h57.15.798_micRespv1l1_recorded\recording_micRespv1l1_2023-09-28_11h00.54.145.wav,227.14640109997708,227.64665090001654,None,227.14640109997708,227.14640109997708,227.14640109997708,227.14640109997708,227.14640109997708,227.14640109997708,,,,,000101,001,2023-09-28_10h57.15.798,REPSWITCH1_version1_list1,2022.2.4,143.96194811716686,
REPSWITCH1/PICTURE_16.png,cazador,type,darkblue,filler,1,F,2,1,1,1,Stim6_Set1,0,None,45,44,45,0,44,44,44,,,,,,,,,,,,,,,,,,,,,,,227.64665090001654,228.6882687000325,228.6882687000325,228.6882687000325,228.6882687000325,228.6882687000325,228.6882687000325,228.6882687000325,228.6882687000325,"['c', 'a', 'z', 'a', 'd', 'o', 'r']",0,"[1.510456099989824, 1.5744494999526069, 1.7664492999901995, 1.9744506999850273, 2.614458099938929, 2.678442099946551, 2.8544378000078723]",cazador,C:\2023\REPSWITCH21092023\REPSWITCH_excgange\REPSWITCH_excgange\data/000101_REPSWITCH1_version1_list1_2023-09-28_10h57.15.798_micRespv1l1_recorded\recording_micRespv1l1_2023-09-28_11h00.58.712.wav,231.7170519999927,,None,231.7170519999927,231.7170519999927,231.7170519999927,231.7170519999927,231.7170519999927,231.7170519999927,,,,,000101,001,2023-09-28_10h57.15.798,REPSWITCH1_version1_list1,2022.2.4,143.96194811716686,
REPSWITCH1/PICTURE_446.png,cerdo,speak,gold,nontarget,2,NT,2,1,1,1,Stim7_Set2,1,switch,46,45,46,0,45,45,45,,,,,,,,,,,,,,,,,,,,,,,232.21720690000802,233.34929699997883,233.34929699997883,233.34929699997883,233.34929699997883,233.34929699997883,233.34929699997883,233.34929699997883,233.34929699997883,None,0,,,C:\2023\REPSWITCH21092023\REPSWITCH_excgange\REPSWITCH_excgange\data/000101_REPSWITCH1_version1_list1_2023-09-28_10h57.15.798_micRespv1l1_recorded\recording_micRespv1l1_2023-09-28_11h01.03.369.wav,236.37750529998448,,None,,,,,,,,,,,000101,001,2023-09-28_10h57.15.798,REPSWITCH1_version1_list1,2022.2.4,143.96194811716686,
REPSWITCH1/PICTURE_446.png,cerdo,speak,gold,repeat,2,T,2,1,1,1,Stim7_Set2,0,None,47,46,47,0,46,46,46,,,,,,,,,,,,,,,,,,,,,,,236.87762289994862,238.0375826000236,238.0375826000236,238.0375826000236,238.0375826000236,238.0375826000236,238.0375826000236,238.0375826000236,238.0375826000236,None,0,,,C:\2023\REPSWITCH21092023\REPSWITCH_excgange\REPSWITCH_excgange\data/000101_REPSWITCH1_version1_list1_2023-09-28_10h57.15.798_micRespv1l1_recorded\recording_micRespv1l1_2023-09-28_11h01.08.052.wav,241.05854370002635,,None,,,,,,,,,,,000101,001,2023-09-28_10h57.15.798,REPSWITCH1_version1_list1,2022.2.4,143.96194811716686,
REPSWITCH1/PICTURE_590.png,escoba,type,darkblue,filler,1,F,2,1,1,1,Extra3,0,None,48,47,48,0,47,47,47,,,,,,,,,,,,,,,,,,,,,,,241.55869279999752,242.79583920002915,242.79583920002915,242.79583920002915,242.79583920002915,242.79583920002915,242.79583920002915,242.79583920002915,242.79583920002915,"['e', 's', 'c', 'o', 'b']",0,"[1.386817599995993, 1.5467769999522716, 1.7548054999206215, 1.962811699951999, 2.2505048000020906]",escob,C:\2023\REPSWITCH21092023\REPSWITCH_excgange\REPSWITCH_excgange\data/000101_REPSWITCH1_version1_list1_2023-09-28_10h57.15.798_micRespv1l1_recorded\recording_micRespv1l1_2023-09-28_11h01.12.825.wav,245.8299732999876,,None,245.8299732999876,245.8299732999876,245.8299732999876,245.8299732999876,245.8299732999876,245.8299732999876,,,,,000101,001,2023-09-28_10h57.15.798,REPSWITCH1_version1_list1,2022.2.4,143.96194811716686,
REPSWITCH1/PICTURE_169.png,espalda,speak,gold,filler,2,F,2,1,1,1,Stim8_Set1,0,None,49,48,49,0,48,48,48,,,,,,,,,,,,,,,,,,,,,,,246.33024749998003,247.46931800001767,247.46931800001767,247.46931800001767,247.46931800001767,247.46931800001767,247.46931800001767,247.46931800001767,247.46931800001767,None,0,,,C:\2023\REPSWITCH21092023\REPSWITCH_excgange\REPSWITCH_excgange\data/000101_REPSWITCH1_version1_list1_2023-09-28_10h57.15.798_micRespv1l1_recorded\recording_micRespv1l1_2023-09-28_11h01.17.496.wav,250.50445819995366,,None,250.50445819995366,250.50445819995366,250.50445819995366,250.50445819995366,250.50445819995366,250.50445819995366,,,,,000101,001,2023-09-28_10h57.15.798,REPSWITCH1_version1_list1,2022.2.4,143.96194811716686,
REPSWITCH1/PICTURE_199.png,falda,speak,gold,nontarget,2,NT,2,1,1,1,Stim8_Set2,1,repeat,50,49,50,0,49,49,49,,,,,,,,,,,,,,,,,,,,,,,251.00417139998171,252.11576179997064,252.11576179997064,252.11576179997064,252.11576179997064,252.11576179997064,252.11576179997064,252.11576179997064,252.11576179997064,None,0,,,C:\2023\REPSWITCH21092023\REPSWITCH_excgange\REPSWITCH_excgange\data/000101_REPSWITCH1_version1_list1_2023-09-28_10h57.15.798_micRespv1l1_recorded\recording_micRespv1l1_2023-09-28_11h01.22.135.wav,255.1370539999334,255.63698690000456,None,,,,,,,,,,,000101,001,2023-09-28_10h57.15.798,REPSWITCH1_version1_list1,2022.2.4,143.96194811716686,
REPSWITCH1/PICTURE_199.png,falda,type,darkblue,switch,1,T,2,1,1,1,Stim8_Set2,0,None,51,50,51,0,50,50,50,,,,,,,,,,,,,,,,,,,,,,,255.63698690000456,256.7829530000454,256.7829530000454,256.7829530000454,256.7829530000454,256.7829530000454,256.7829530000454,256.7829530000454,256.7829530000454,"['f', 'a', 'l', 'd', 'a']",0,"[0.9036267000483349, 0.9995974000776187, 1.4637049000011757, 1.671704800100997, 1.8956704000011086]",falda,C:\2023\REPSWITCH21092023\REPSWITCH_excgange\REPSWITCH_excgange\data/000101_REPSWITCH1_version1_list1_2023-09-28_10h57.15.798_micRespv1l1_recorded\recording_micRespv1l1_2023-09-28_11h01.26.810.wav,259.81021869997494,260.3104474999709,space,259.81021869997494,259.81021869997494,259.81021869997494,259.81021869997494,259.81021869997494,259.81021869997494,260.3104474999709,260.3104474999709,3.4078540999908,,000101,001,2023-09-28_10h57.15.798,REPSWITCH1_version1_list1,2022.2.4,143.96194811716686,
REPSWITCH1/PICTURE_576.png,guante,type,darkblue,nontarget,1,NT,3,1,1,1,Stim1_Set3,0,None,52,51,52,0,51,51,51,,,,,,,,,,,,,,,,,,,,,,,263.7283977000043,264.7910223000217,264.7910223000217,264.7910223000217,264.7910223000217,264.7910223000217,264.7910223000217,264.7910223000217,264.7910223000217,"['g', 'u', 'n', 'a', 't', 'e']",0,"[1.4708002000115812, 1.6317009999183938, 1.823700699955225, 1.9357107999967411, 2.143704199930653, 2.2237000999739394]",gunate,C:\2023\REPSWITCH21092023\REPSWITCH_excgange\REPSWITCH_excgange\data/000101_REPSWITCH1_version1_list1_2023-09-28_10h57.15.798_micRespv1l1_recorded\recording_micRespv1l1_2023-09-28_11h01.34.821.wav,267.8260466000065,,None,267.8260466000065,267.8260466000065,267.8260466000065,267.8260466000065,267.8260466000065,267.8260466000065,,,,,000101,001,2023-09-28_10h57.15.798,REPSWITCH1_version1_list1,2022.2.4,143.96194811716686,
REPSWITCH1/PICTURE_576.png,guante,speak,gold,switch,2,T,3,1,1,1,Stim1_Set3,0,None,53,52,53,0,52,52,52,,,,,,,,,,,,,,,,,,,,,,,268.32614040002227,269.44433520000894,269.44433520000894,269.44433520000894,269.44433520000894,269.44433520000894,269.44433520000894,269.44433520000894,269.44433520000894,None,0,,,C:\2023\REPSWITCH21092023\REPSWITCH_excgange\REPSWITCH_excgange\data/000101_REPSWITCH1_version1_list1_2023-09-28_10h57.15.798_micRespv1l1_recorded\recording_micRespv1l1_2023-09-28_11h01.39.461.wav,272.4656452999916,,None,,,,,,,,,,,000101,001,2023-09-28_10h57.15.798,REPSWITCH1_version1_list1,2022.2.4,143.96194811716686,
REPSWITCH1/PICTURE_646.png,tronco,speak,gold,filler,2,F,3,1,1,1,Extra4,0,None,54,53,54,0,53,53,53,,,,,,,,,,,,,,,,,,,,,,,272.9657639999641,274.1464260999346,274.1464260999346,274.1464260999346,274.1464260999346,274.1464260999346,274.1464260999346,274.1464260999346,274.1464260999346,None,0,,,C:\2023\REPSWITCH21092023\REPSWITCH_excgange\REPSWITCH_excgange\data/000101_REPSWITCH1_version1_list1_2023-09-28_10h57.15.798_micRespv1l1_recorded\recording_micRespv1l1_2023-09-28_11h01.44.175.wav,277.18086279998533,,None,277.18086279998533,277.18086279998533,277.18086279998533,277.18086279998533,277.18086279998533,277.18086279998533,,,,,000101,001,2023-09-28_10h57.15.798,REPSWITCH1_version1_list1,2022.2.4,143.96194811716686,
REPSWITCH1/PICTURE_610.png,miel,speak,gold,nontarget,2,NT,3,1,1,1,Stim2_Set3,1,repeat,55,54,55,0,54,54,54,,,,,,,,,,,,,,,,,,,,,,,277.68061409995425,278.77104929997586,278.77104929997586,278.77104929997586,278.77104929997586,278.77104929997586,278.77104929997586,278.77104929997586,278.77104929997586,None,0,,,C:\2023\REPSWITCH21092023\REPSWITCH_excgange\REPSWITCH_excgange\data/000101_REPSWITCH1_version1_list1_2023-09-28_10h57.15.798_micRespv1l1_recorded\recording_micRespv1l1_2023-09-28_11h01.48.794.wav,281.79998010001145,,None,281.79998010001145,281.79998010001145,281.79998010001145,281.79998010001145,281.79998010001145,281.79998010001145,,,,,000101,001,2023-09-28_10h57.15.798,REPSWITCH1_version1_list1,2022.2.4,143.96194811716686,
REPSWITCH1/PICTURE_610.png,miel,type,darkblue,switch,1,T,3,1,1,1,Stim2_Set3,0,None,56,55,56,0,55,55,55,,,,,,,,,,,,,,,,,,,,,,,282.3001915999921,283.4949561000103,283.4949561000103,283.4949561000103,283.4949561000103,283.4949561000103,283.4949561000103,283.4949561000103,283.4949561000103,"['m', 'i', 'e', 'l']",0,"[1.0395256000338122, 1.2475101000163704, 1.3915008000331, 1.4714991999790072]",miel,C:\2023\REPSWITCH21092023\REPSWITCH_excgange\REPSWITCH_excgange\data/000101_REPSWITCH1_version1_list1_2023-09-28_10h57.15.798_micRespv1l1_recorded\recording_micRespv1l1_2023-09-28_11h01.53.510.wav,286.51585750002414,,None,,,,,,,,,,,000101,001,2023-09-28_10h57.15.798,REPSWITCH1_version1_list1,2022.2.4,143.96194811716686,
REPSWITCH1/PICTURE_175.png,pintor,type,darkblue,filler,1,F,3,1,1,1,Stim1_Set2,1,repeat,57,56,57,0,56,56,56,,,,,,,,,,,,,,,,,,,,,,,287.0162468999624,288.12044209998567,288.12044209998567,288.12044209998567,288.12044209998567,288.12044209998567,288.12044209998567,288.12044209998567,288.12044209998567,"['p', 'i', 'n', 't', 'o', 'r']",0,"[1.245445300010033, 1.4534186000237241, 2.270268699969165, 2.494252200005576, 2.5912516999524087, 2.7662500999867916]",pintor,C:\2023\REPSWITCH21092023\REPSWITCH_excgange\REPSWITCH_excgange\data/000101_REPSWITCH1_version1_list1_2023-09-28_10h57.15.798_micRespv1l1_recorded\recording_micRespv1l1_2023-09-28_11h01.58.148.wav,291.15536760003306,,None,291.15536760003306,291.15536760003306,291.15536760003306,291.15536760003306,291.15536760003306,291.15536760003306,,,,,000101,001,2023-09-28_10h57.15.798,REPSWITCH1_version1_list1,2022.2.4,143.96194811716686,
REPSWITCH1/PICTURE_242.png,cartero,type,darkblue,nontarget,1,NT,3,1,1,1,Stim3_Set3,1,repeat,58,57,58,0,57,57,57,,,,,,,,,,,,,,,,,,,,,,,291.65573160001077,292.7045222000452,292.7045222000452,292.7045222000452,292.7045222000452,292.7045222000452,292.7045222000452,292.7045222000452,292.7045222000452,"['c', 'a', 'r', 't', 'e', 'r', 'o']",0,"[1.4775428000139073, 1.605541400029324, 1.7498365000355989, 1.9262677000369877, 2.1655493000289425, 2.405550100025721, 2.533443000051193]",cartero,C:\2023\REPSWITCH21092023\REPSWITCH_excgange\REPSWITCH_excgange\data/000101_REPSWITCH1_version1_list1_2023-09-28_10h57.15.798_micRespv1l1_recorded\recording_micRespv1l1_2023-09-28_11h02.02.721.wav,295.72555309999734,,None,,,,,,,,,,,000101,001,2023-09-28_10h57.15.798,REPSWITCH1_version1_list1,2022.2.4,143.96194811716686,
REPSWITCH1/PICTURE_242.png,cartero,speak,gold,switch,2,T,3,1,1,1,Stim3_Set3,0,None,59,58,59,0,58,58,58,,,,,,,,,,,,,,,,,,,,,,,296.22583579993807,297.3502660000231,297.3502660000231,297.3502660000231,297.3502660000231,297.3502660000231,297.3502660000231,297.3502660000231,297.3502660000231,None,0,,,C:\2023\REPSWITCH21092023\REPSWITCH_excgange\REPSWITCH_excgange\data/000101_REPSWITCH1_version1_list1_2023-09-28_10h57.15.798_micRespv1l1_recorded\recording_micRespv1l1_2023-09-28_11h02.07.378.wav,300.3857234000461,,None,300.3857234000461,300.3857234000461,300.3857234000461,300.3857234000461,300.3857234000461,300.3857234000461,,,,,000101,001,2023-09-28_10h57.15.798,REPSWITCH1_version1_list1,2022.2.4,143.96194811716686,
REPSWITCH1/PICTURE_152.png,caracol,speak,gold,filler,2,F,3,1,1,1,Stim2_Set2,0,None,60,59,60,0,59,59,59,,,,,,,,,,,,,,,,,,,,,,,300.88600369996857,301.96253090002574,301.96253090002574,301.96253090002574,301.96253090002574,301.96253090002574,301.96253090002574,301.96253090002574,301.96253090002574,None,0,,,C:\2023\REPSWITCH21092023\REPSWITCH_excgange\REPSWITCH_excgange\data/000101_REPSWITCH1_version1_list1_2023-09-28_10h57.15.798_micRespv1l1_recorded\recording_micRespv1l1_2023-09-28_11h02.11.979.wav,304.9835441999603,,None,,,,,,,,,,,000101,001,2023-09-28_10h57.15.798,REPSWITCH1_version1_list1,2022.2.4,143.96194811716686,
REPSWITCH1/PICTURE_517.png,cuerda,type,darkblue,filler,1,F,3,1,1,1,Stim4_Set2,0,None,61,60,61,0,60,60,60,,,,,,,,,,,,,,,,,,,,,,,305.4838088999968,306.6507630000124,306.6507630000124,306.6507630000124,306.6507630000124,306.6507630000124,306.6507630000124,306.6507630000124,306.6507630000124,"['c', 'u', 'e', 'r', 'd', 'a']",0,"[1.2598859999561682, 1.739249899983406, 1.899220100021921, 2.123218199936673, 2.299958699964918, 2.5232146999333054]",cuerda,C:\2023\REPSWITCH21092023\REPSWITCH_excgange\REPSWITCH_excgange\data/000101_REPSWITCH1_version1_list1_2023-09-28_10h57.15.798_micRespv1l1_recorded\recording_micRespv1l1_2023-09-28_11h02.16.667.wav,309.6716568999691,,None,,,,,,,,,,,000101,001,2023-09-28_10h57.15.798,REPSWITCH1_version1_list1,2022.2.4,143.96194811716686,
REPSWITCH1/PICTURE_235.png,aguja,speak,gold,nontarget,2,NT,3,1,1,1,Stim4_Set3,1,switch,62,61,62,0,61,61,61,,,,,,,,,,,,,,,,,,,,,,,310.1719036999857,311.2900731000118,311.2900731000118,311.2900731000118,311.2900731000118,311.2900731000118,311.2900731000118,311.2900731000118,311.2900731000118,None,0,,,C:\2023\REPSWITCH21092023\REPSWITCH_excgange\REPSWITCH_excgange\data/000101_REPSWITCH1_version1_list1_2023-09-28_10h57.15.798_micRespv1l1_recorded\recording_micRespv1l1_2023-09-28_11h02.21.306.wav,314.3111565000145,,None,,,,,,,,,,,000101,001,2023-09-28_10h57.15.798,REPSWITCH1_version1_list1,2022.2.4,143.96194811716686,
REPSWITCH1/PICTURE_235.png,aguja,speak,gold,repeat,2,T,3,1,1,1,Stim4_Set3,0,None,63,62,63,0,62,62,62,,,,,,,,,,,,,,,,,,,,,,,314.8114244999597,315.867078899988,315.867078899988,315.867078899988,315.867078899988,315.867078899988,315.867078899988,315.867078899988,315.867078899988,None,0,,,C:\2023\REPSWITCH21092023\REPSWITCH_excgange\REPSWITCH_excgange\data/000101_REPSWITCH1_version1_list1_2023-09-28_10h57.15.798_micRespv1l1_recorded\recording_micRespv1l1_2023-09-28_11h02.25.883.wav,318.88814109994564,,None,,,,,,,,,,,000101,001,2023-09-28_10h57.15.798,REPSWITCH1_version1_list1,2022.2.4,143.96194811716686,
REPSWITCH1/PICTURE_30.png,granja,type,darkblue,filler,1,F,3,1,1,1,Stim5_Set2,0,None,64,63,64,0,63,63,63,,,,,,,,,,,,,,,,,,,,,,,319.3882958999602,320.51356079999823,320.51356079999823,320.51356079999823,320.51356079999823,320.51356079999823,320.51356079999823,320.51356079999823,320.51356079999823,"['g', 'r', 'a', 'n', 'j', 'a']",0,"[1.4768207999877632, 1.6688076000427827, 1.7328100999584422, 2.116822800016962, 2.32480659999419, 2.3568102000281215]",granja,C:\2023\REPSWITCH21092023\REPSWITCH_excgange\REPSWITCH_excgange\data/000101_REPSWITCH1_version1_list1_2023-09-28_10h57.15.798_micRespv1l1_recorded\recording_micRespv1l1_2023-09-28_11h02.30.540.wav,323.54046849999577,324.04099609993864,None,323.54046849999577,323.54046849999577,323.54046849999577,323.54046849999577,323.54046849999577,323.54046849999577,,,,,000101,001,2023-09-28_10h57.15.798,REPSWITCH1_version1_list1,2022.2.4,143.96194811716686,
REPSWITCH1/PICTURE_552.png,manzana,speak,gold,filler,2,F,3,1,1,1,Stim6_Set2,1,switch,65,64,65,0,64,64,64,,,,,,,,,,,,,,,,,,,,,,,324.04099609993864,325.159934299998,325.159934299998,325.159934299998,325.159934299998,325.159934299998,325.159934299998,325.159934299998,325.159934299998,None,0,,,C:\2023\REPSWITCH21092023\REPSWITCH_excgange\REPSWITCH_excgange\data/000101_REPSWITCH1_version1_list1_2023-09-28_10h57.15.798_micRespv1l1_recorded\recording_micRespv1l1_2023-09-28_11h02.35.177.wav,328.18137300002854,,None,,,,,,,,,,,000101,001,2023-09-28_10h57.15.798,REPSWITCH1_version1_list1,2022.2.4,143.96194811716686,
REPSWITCH1/PICTURE_35.png,oreja,speak,gold,nontarget,2,NT,3,1,1,1,Stim5_Set3,1,repeat,66,65,66,0,65,65,65,,,,,,,,,,,,,,,,,,,,,,,328.68133179994766,329.75776139996015,329.75776139996015,329.75776139996015,329.75776139996015,329.75776139996015,329.75776139996015,329.75776139996015,329.75776139996015,None,0,,,C:\2023\REPSWITCH21092023\REPSWITCH_excgange\REPSWITCH_excgange\data/000101_REPSWITCH1_version1_list1_2023-09-28_10h57.15.798_micRespv1l1_recorded\recording_micRespv1l1_2023-09-28_11h02.39.784.wav,332.792730199988,,None,332.792730199988,332.792730199988,332.792730199988,332.792730199988,332.792730199988,332.792730199988,,,,,000101,001,2023-09-28_10h57.15.798,REPSWITCH1_version1_list1,2022.2.4,143.96194811716686,
REPSWITCH1/PICTURE_35.png,oreja,speak,gold,repeat,2,T,3,1,1,1,Stim5_Set3,0,None,67,66,67,0,66,66,66,,,,,,,,,,,,,,,,,,,,,,,333.29281290003564,334.4251047000289,334.4251047000289,334.4251047000289,334.4251047000289,334.4251047000289,334.4251047000289,334.4251047000289,334.4251047000289,None,0,,,C:\2023\REPSWITCH21092023\REPSWITCH_excgange\REPSWITCH_excgange\data/000101_REPSWITCH1_version1_list1_2023-09-28_10h57.15.798_micRespv1l1_recorded\recording_micRespv1l1_2023-09-28_11h02.44.441.wav,337.44625080004334,,None,,,,,,,,,,,000101,001,2023-09-28_10h57.15.798,REPSWITCH1_version1_list1,2022.2.4,143.96194811716686,
REPSWITCH1/PICTURE_673.png,tenedor,type,darkblue,filler,1,F,3,1,1,1,Extra5,0,None,68,67,68,0,67,67,67,,,,,,,,,,,,,,,,,,,,,,,337.9463542000158,338.974313099985,338.974313099985,338.974313099985,338.974313099985,338.974313099985,338.974313099985,338.974313099985,338.974313099985,"['t', 'e', 'n', 'e', 'd', 'o', 'r']",0,"[1.2081318000564352, 1.304135899990797, 1.5759755000472069, 1.6560090000275522, 1.8799999000038952, 2.199532500002533, 2.344852300011553]",tenedor,C:\2023\REPSWITCH21092023\REPSWITCH_excgange\REPSWITCH_excgange\data/000101_REPSWITCH1_version1_list1_2023-09-28_10h57.15.798_micRespv1l1_recorded\recording_micRespv1l1_2023-09-28_11h02.48.993.wav,341.9946674000239,342.49567550001666,None,,,,,,,,,,,000101,001,2023-09-28_10h57.15.798,REPSWITCH1_version1_list1,2022.2.4,143.96194811716686,
REPSWITCH1/PICTURE_464.png,goma,speak,gold,nontarget,2,NT,3,1,1,1,Stim6_Set3,0,None,69,68,69,0,68,68,68,,,,,,,,,,,,,,,,,,,,,,,342.49567550001666,343.57919189997483,343.57919189997483,343.57919189997483,343.57919189997483,343.57919189997483,343.57919189997483,343.57919189997483,343.57919189997483,None,0,,,C:\2023\REPSWITCH21092023\REPSWITCH_excgange\REPSWITCH_excgange\data/000101_REPSWITCH1_version1_list1_2023-09-28_10h57.15.798_micRespv1l1_recorded\recording_micRespv1l1_2023-09-28_11h02.53.596.wav,346.6000574999489,,None,,,,,,,,,,,000101,001,2023-09-28_10h57.15.798,REPSWITCH1_version1_list1,2022.2.4,143.96194811716686,
REPSWITCH1/PICTURE_464.png,goma,type,darkblue,switch,1,T,3,1,1,1,Stim6_Set3,0,None,70,69,70,0,69,69,69,,,,,,,,,,,,,,,,,,,,,,,347.10024669999257,348.1492197000189,348.1492197000189,348.1492197000189,348.1492197000189,348.1492197000189,348.1492197000189,348.1492197000189,348.1492197000189,"['g', 'o', 'm', 'a']",0,"[0.8016194999217987, 0.9456201000139117, 1.1205861999187618, 1.2005915999179706]",goma,C:\2023\REPSWITCH21092023\REPSWITCH_excgange\REPSWITCH_excgange\data/000101_REPSWITCH1_version1_list1_2023-09-28_10h57.15.798_micRespv1l1_recorded\recording_micRespv1l1_2023-09-28_11h02.58.175.wav,351.1840150000062,,None,351.1840150000062,351.1840150000062,351.1840150000062,351.1840150000062,351.1840150000062,351.1840150000062,,,,,000101,001,2023-09-28_10h57.15.798,REPSWITCH1_version1_list1,2022.2.4,143.96194811716686,
REPSWITCH1/PICTURE_264.png,mano,speak,gold,filler,2,F,3,1,1,1,Stim3_Set2,0,None,71,70,71,0,70,70,70,,,,,,,,,,,,,,,,,,,,,,,351.68428669997957,352.851225099992,352.851225099992,352.851225099992,352.851225099992,352.851225099992,352.851225099992,352.851225099992,352.851225099992,None,0,,,C:\2023\REPSWITCH21092023\REPSWITCH_excgange\REPSWITCH_excgange\data/000101_REPSWITCH1_version1_list1_2023-09-28_10h57.15.798_micRespv1l1_recorded\recording_micRespv1l1_2023-09-28_11h03.02.878.wav,355.8860191999702,,None,355.8860191999702,355.8860191999702,355.8860191999702,355.8860191999702,355.8860191999702,355.8860191999702,,,,,000101,001,2023-09-28_10h57.15.798,REPSWITCH1_version1_list1,2022.2.4,143.96194811716686,
REPSWITCH1/PICTURE_271.png,conejo,type,darkblue,nontarget,1,NT,3,1,1,1,Stim7_Set3,1,switch,72,71,72,0,71,71,71,,,,,,,,,,,,,,,,,,,,,,,356.38639779994264,357.54615850001574,357.54615850001574,357.54615850001574,357.54615850001574,357.54615850001574,357.54615850001574,357.54615850001574,357.54615850001574,"['c', 'o', 'n', 'e', 'j', 'o']",0,"[1.0039235999574885, 1.2439889999805018, 1.5013621000107378, 1.628756699967198, 1.9002510999562219, 2.1243259999901056]",conejo,C:\2023\REPSWITCH21092023\REPSWITCH_excgange\REPSWITCH_excgange\data/000101_REPSWITCH1_version1_list1_2023-09-28_10h57.15.798_micRespv1l1_recorded\recording_micRespv1l1_2023-09-28_11h03.07.573.wav,360.57315239997115,361.07358920003753,None,360.57315239997115,360.57315239997115,360.57315239997115,360.57315239997115,360.57315239997115,360.57315239997115,,,,,000101,001,2023-09-28_10h57.15.798,REPSWITCH1_version1_list1,2022.2.4,143.96194811716686,
REPSWITCH1/PICTURE_271.png,conejo,type,darkblue,repeat,1,T,3,1,1,1,Stim7_Set3,0,None,73,72,73,0,72,72,72,,,,,,,,,,,,,,,,,,,,,,,361.07358920003753,362.0944042999763,362.0944042999763,362.0944042999763,362.0944042999763,362.0944042999763,362.0944042999763,362.0944042999763,362.0944042999763,"['c', 'o', 'n', 'e', 'j', 'o']",0,"[0.8396935000782833, 0.9994571000570431, 1.2250071000307798, 1.3520219000056386, 1.6080181000288576, 1.8159877000143752]",conejo,C:\2023\REPSWITCH21092023\REPSWITCH_excgange\REPSWITCH_excgange\data/000101_REPSWITCH1_version1_list1_2023-09-28_10h57.15.798_micRespv1l1_recorded\recording_micRespv1l1_2023-09-28_11h03.12.118.wav,365.1233321999898,,None,365.1233321999898,365.1233321999898,365.1233321999898,365.1233321999898,365.1233321999898,365.1233321999898,,,,,000101,001,2023-09-28_10h57.15.798,REPSWITCH1_version1_list1,2022.2.4,143.96194811716686,
REPSWITCH1/PICTURE_446.png,cerdo,speak,gold,filler,2,F,3,1,1,1,Stim7_Set2,0,None,74,73,74,0,73,73,73,,,,,,,,,,,,,,,,,,,,,,,365.6236598000396,366.78366269997787,366.78366269997787,366.78366269997787,366.78366269997787,366.78366269997787,366.78366269997787,366.78366269997787,366.78366269997787,None,0,,,C:\2023\REPSWITCH21092023\REPSWITCH_excgange\REPSWITCH_excgange\data/000101_REPSWITCH1_version1_list1_2023-09-28_10h57.15.798_micRespv1l1_recorded\recording_micRespv1l1_2023-09-28_11h03.16.800.wav,369.80471970001236,,None,,,,,,,,,,,000101,001,2023-09-28_10h57.15.798,REPSWITCH1_version1_list1,2022.2.4,143.96194811716686,
REPSWITCH1/PICTURE_199.png,falda,type,darkblue,filler,1,F,3,1,1,1,Stim8_Set2,1,switch,75,74,75,0,74,74,74,,,,,,,,,,,,,,,,,,,,,,,370.30474839999806,371.40900660003535,371.40900660003535,371.40900660003535,371.40900660003535,371.40900660003535,371.40900660003535,371.40900660003535,371.40900660003535,"['f', 'a', 'l', 'd', 'a']",0,"[1.5413289999123663, 1.7813619999215007, 1.877363699954003, 2.101373999961652, 2.2936337999999523]",falda,C:\2023\REPSWITCH21092023\REPSWITCH_excgange\REPSWITCH_excgange\data/000101_REPSWITCH1_version1_list1_2023-09-28_10h57.15.798_micRespv1l1_recorded\recording_micRespv1l1_2023-09-28_11h03.21.435.wav,374.4362931000069,374.93649580003694,None,374.4362931000069,374.4362931000069,374.4362931000069,374.4362931000069,374.4362931000069,374.4362931000069,,,,,000101,001,2023-09-28_10h57.15.798,REPSWITCH1_version1_list1,2022.2.4,143.96194811716686,
REPSWITCH1/PICTURE_320.png,iglesia,type,darkblue,nontarget,1,NT,3,1,1,1,Stim8_Set3,1,repeat,76,75,76,0,75,75,75,,,,,,,,,,,,,,,,,,,,,,,374.93649580003694,376.013927699998,376.013927699998,376.013927699998,376.013927699998,376.013927699998,376.013927699998,376.013927699998,376.013927699998,"['i', 'g', 'l', 'e', 's', 'i', 'a']",0,"[1.144038400030695, 1.4802499000215903, 1.8482249999651685, 2.0401685000397265, 2.2001640000380576, 2.296164399944246, 2.424141100025736]",iglesia,C:\2023\REPSWITCH21092023\REPSWITCH_excgange\REPSWITCH_excgange\data/000101_REPSWITCH1_version1_list1_2023-09-28_10h57.15.798_micRespv1l1_recorded\recording_micRespv1l1_2023-09-28_11h03.26.041.wav,379.0490062000463,,None,379.0490062000463,379.0490062000463,379.0490062000463,379.0490062000463,379.0490062000463,379.0490062000463,,,,,000101,001,2023-09-28_10h57.15.798,REPSWITCH1_version1_list1,2022.2.4,143.96194811716686,
REPSWITCH1/PICTURE_320.png,iglesia,type,darkblue,repeat,1,T,3,1,1,1,Stim8_Set3,0,None,77,76,77,0,76,76,76,,,,,,,,,,,,,,,,,,,,,,,379.54900520003866,380.58387740002945,380.58387740002945,380.58387740002945,380.58387740002945,380.58387740002945,380.58387740002945,380.58387740002945,380.58387740002945,"['i', 'g', 'l', 'e', 's', 'i', 'a']",0,"[0.9580249999416992, 1.2460169999394566, 1.3740122999297455, 1.5980438999831676, 1.7900486999424174, 1.8860162999480963, 1.9980539999669418]",iglesia,C:\2023\REPSWITCH21092023\REPSWITCH_excgange\REPSWITCH_excgange\data/000101_REPSWITCH1_version1_list1_2023-09-28_10h57.15.798_micRespv1l1_recorded\recording_micRespv1l1_2023-09-28_11h03.30.600.wav,383.6041827000445,,None,,,,,,,,,,,000101,001,2023-09-28_10h57.15.798,REPSWITCH1_version1_list1,2022.2.4,143.96194811716686,
REPSWITCH1/PICTURE_576.png,guante,speak,gold,filler,2,F,4,1,1,1,Stim1_Set3,0,None,78,77,78,0,77,77,77,,,,,,,,,,,,,,,,,,,,,,,384.10437109996565,385.13911520002875,385.13911520002875,385.13911520002875,385.13911520002875,385.13911520002875,385.13911520002875,385.13911520002875,385.13911520002875,None,0,,,C:\2023\REPSWITCH21092023\REPSWITCH_excgange\REPSWITCH_excgange\data/000101_REPSWITCH1_version1_list1_2023-09-28_10h57.15.798_micRespv1l1_recorded\recording_micRespv1l1_2023-09-28_11h03.35.162.wav,388.16743359994143,,None,388.16743359994143,388.16743359994143,388.16743359994143,388.16743359994143,388.16743359994143,388.16743359994143,,,,,000101,001,2023-09-28_10h57.15.798,REPSWITCH1_version1_list1,2022.2.4,143.96194811716686,
REPSWITCH1/PICTURE_319.png,vaca,type,darkblue,nontarget,1,NT,4,1,1,1,Stim1_Set4,1,switch,79,78,79,0,78,78,78,,,,,,,,,,,,,,,,,,,,,,,388.66882859996986,389.8419979000464,389.8419979000464,389.8419979000464,389.8419979000464,389.8419979000464,389.8419979000464,389.8419979000464,389.8419979000464,"['v', 'a', 'c', 'a']",0,"[0.9959561000578105, 1.1249902000417933, 1.2519476000452414, 1.3481911000562832]",vaca,C:\2023\REPSWITCH21092023\REPSWITCH_excgange\REPSWITCH_excgange\data/000101_REPSWITCH1_version1_list1_2023-09-28_10h57.15.798_micRespv1l1_recorded\recording_micRespv1l1_2023-09-28_11h03.39.869.wav,392.8694247000385,393.37040799995884,None,392.8694247000385,392.8694247000385,392.8694247000385,392.8694247000385,392.8694247000385,392.8694247000385,,,,,000101,001,2023-09-28_10h57.15.798,REPSWITCH1_version1_list1,2022.2.4,143.96194811716686,
REPSWITCH1/PICTURE_319.png,vaca,type,darkblue,repeat,1,T,4,1,1,1,Stim1_Set4,0,None,80,79,80,0,79,79,79,,,,,,,,,,,,,,,,,,,,,,,393.37040799995884,394.5509432000108,394.5509432000108,394.5509432000108,394.5509432000108,394.5509432000108,394.5509432000108,394.5509432000108,394.5509432000108,"['v', 'a', 'c', 'a']",0,"[1.0232266000239179, 1.1032378999516368, 1.2637546999612823, 1.3277455000206828]",vaca,C:\2023\REPSWITCH21092023\REPSWITCH_excgange\REPSWITCH_excgange\data/000101_REPSWITCH1_version1_list1_2023-09-28_10h57.15.798_micRespv1l1_recorded\recording_micRespv1l1_2023-09-28_11h03.44.567.wav,397.5720089999959,,None,,,,,,,,,,,000101,001,2023-09-28_10h57.15.798,REPSWITCH1_version1_list1,2022.2.4,143.96194811716686,
REPSWITCH1/PICTURE_719.png,baño,type,darkblue,nontarget,1,NT,4,1,1,1,Stim2_Set4,0,None,81,80,81,0,80,80,80,,,,,,,,,,,,,,,,,,,,,,,398.07225850003306,399.16270899993833,399.16270899993833,399.16270899993833,399.16270899993833,399.16270899993833,399.16270899993833,399.16270899993833,399.16270899993833,"['b', 'a', 'ñ', 'o']",0,"[1.1313663000473753, 1.2113998000277206, 1.7236211000708863, 1.9155803000321612]",baño,C:\2023\REPSWITCH21092023\REPSWITCH_excgange\REPSWITCH_excgange\data/000101_REPSWITCH1_version1_list1_2023-09-28_10h57.15.798_micRespv1l1_recorded\recording_micRespv1l1_2023-09-28_11h03.49.190.wav,402.1976159999613,,None,402.1976159999613,402.1976159999613,402.1976159999613,402.1976159999613,402.1976159999613,402.1976159999613,,,,,000101,001,2023-09-28_10h57.15.798,REPSWITCH1_version1_list1,2022.2.4,143.96194811716686,
REPSWITCH1/PICTURE_719.png,baño,speak,gold,switch,2,T,4,1,1,1,Stim2_Set4,0,None,82,81,82,0,81,81,81,,,,,,,,,,,,,,,,,,,,,,,402.6978603999596,403.8164334000321,403.8164334000321,403.8164334000321,403.8164334000321,403.8164334000321,403.8164334000321,403.8164334000321,403.8164334000321,None,0,,,C:\2023\REPSWITCH21092023\REPSWITCH_excgange\REPSWITCH_excgange\data/000101_REPSWITCH1_version1_list1_2023-09-28_10h57.15.798_micRespv1l1_recorded\recording_micRespv1l1_2023-09-28_11h03.53.833.wav,406.837080999976,,None,,,,,,,,,,,000101,001,2023-09-28_10h57.15.798,REPSWITCH1_version1_list1,2022.2.4,143.96194811716686,
REPSWITCH1/PICTURE_242.png,cartero,speak,gold,filler,2,F,4,1,1,1,Stim3_Set3,1,repeat,83,82,83,0,82,82,82,,,,,,,,,,,,,,,,,,,,,,,407.33725969993975,408.4347149999812,408.4347149999812,408.4347149999812,408.4347149999812,408.4347149999812,408.4347149999812,408.4347149999812,408.4347149999812,None,0,,,C:\2023\REPSWITCH21092023\REPSWITCH_excgange\REPSWITCH_excgange\data/000101_REPSWITCH1_version1_list1_2023-09-28_10h57.15.798_micRespv1l1_recorded\recording_micRespv1l1_2023-09-28_11h03.58.460.wav,411.46351339994,411.96328629995696,None,411.46351339994,411.46351339994,411.46351339994,411.46351339994,411.46351339994,411.46351339994,,,,,000101,001,2023-09-28_10h57.15.798,REPSWITCH1_version1_list1,2022.2.4,143.96194811716686,
REPSWITCH1/PICTURE_610.png,miel,type,darkblue,filler,1,F,4,1,1,1,Stim2_Set3,0,None,84,83,84,0,83,83,83,,,,,,,,,,,,,,,,,,,,,,,411.96328629995696,413.02574489999097,413.02574489999097,413.02574489999097,413.02574489999097,413.02574489999097,413.02574489999097,413.02574489999097,413.02574489999097,"['m', 'i', 'e', 'l']",0,"[1.1568778000073507, 1.348876600037329, 1.4928435999900103, 1.5881057999795303]",miel,C:\2023\REPSWITCH21092023\REPSWITCH_excgange\REPSWITCH_excgange\data/000101_REPSWITCH1_version1_list1_2023-09-28_10h57.15.798_micRespv1l1_recorded\recording_micRespv1l1_2023-09-28_11h04.03.051.wav,416.0544690999668,416.5537472999422,None,416.0544690999668,416.0544690999668,416.0544690999668,416.0544690999668,416.0544690999668,416.0544690999668,,,,,000101,001,2023-09-28_10h57.15.798,REPSWITCH1_version1_list1,2022.2.4,143.96194811716686,
REPSWITCH1/PICTURE_8.png,pierna,speak,gold,nontarget,2,NT,4,1,1,1,Stim3_Set4,1,switch,85,84,85,0,84,84,84,,,,,,,,,,,,,,,,,,,,,,,416.5537472999422,417.6581564999651,417.6581564999651,417.6581564999651,417.6581564999651,417.6581564999651,417.6581564999651,417.6581564999651,417.6581564999651,None,0,,,C:\2023\REPSWITCH21092023\REPSWITCH_excgange\REPSWITCH_excgange\data/000101_REPSWITCH1_version1_list1_2023-09-28_10h57.15.798_micRespv1l1_recorded\recording_micRespv1l1_2023-09-28_11h04.07.674.wav,420.6791971999919,,None,,,,,,,,,,,000101,001,2023-09-28_10h57.15.798,REPSWITCH1_version1_list1,2022.2.4,143.96194811716686,
REPSWITCH1/PICTURE_8.png,pierna,speak,gold,repeat,2,T,4,1,1,1,Stim3_Set4,0,None,86,85,86,0,85,85,85,,,,,,,,,,,,,,,,,,,,,,,421.1795530000236,422.36012179998215,422.36012179998215,422.36012179998215,422.36012179998215,422.36012179998215,422.36012179998215,422.36012179998215,422.36012179998215,None,0,,,C:\2023\REPSWITCH21092023\REPSWITCH_excgange\REPSWITCH_excgange\data/000101_REPSWITCH1_version1_list1_2023-09-28_10h57.15.798_micRespv1l1_recorded\recording_micRespv1l1_2023-09-28_11h04.12.386.wav,425.38886710000224,425.8882976999739,None,425.38886710000224,425.38886710000224,425.38886710000224,425.38886710000224,425.38886710000224,425.38886710000224,,,,,000101,001,2023-09-28_10h57.15.798,REPSWITCH1_version1_list1,2022.2.4,143.96194811716686,
REPSWITCH1/PICTURE_498.png,taza,speak,gold,nontarget,2,NT,4,1,1,1,Stim4_Set4,1,repeat,87,86,87,0,86,86,86,,,,,,,,,,,,,,,,,,,,,,,425.8882976999739,426.9788350999588,426.9788350999588,426.9788350999588,426.9788350999588,426.9788350999588,426.9788350999588,426.9788350999588,426.9788350999588,None,0,,,C:\2023\REPSWITCH21092023\REPSWITCH_excgange\REPSWITCH_excgange\data/000101_REPSWITCH1_version1_list1_2023-09-28_10h57.15.798_micRespv1l1_recorded\recording_micRespv1l1_2023-09-28_11h04.17.005.wav,430.0063342000358,430.50703850004356,None,430.0063342000358,430.0063342000358,430.0063342000358,430.0063342000358,430.0063342000358,430.0063342000358,,,,,000101,001,2023-09-28_10h57.15.798,REPSWITCH1_version1_list1,2022.2.4,143.96194811716686,
REPSWITCH1/PICTURE_498.png,taza,type,darkblue,switch,1,T,4,1,1,1,Stim4_Set4,0,None,88,87,88,0,87,87,87,,,,,,,,,,,,,,,,,,,,,,,430.50703850004356,431.56971650000196,431.56971650000196,431.56971650000196,431.56971650000196,431.56971650000196,431.56971650000196,431.56971650000196,431.56971650000196,"['t', 'a', 'z', 'a']",0,"[1.2529727999353781, 1.3809351000236347, 1.6209850000450388, 1.7000421000411734]",taza,C:\2023\REPSWITCH21092023\REPSWITCH_excgange\REPSWITCH_excgange\data/000101_REPSWITCH1_version1_list1_2023-09-28_10h57.15.798_micRespv1l1_recorded\recording_micRespv1l1_2023-09-28_11h04.21.586.wav,434.59089120000135,,None,,,,,,,,,,,000101,001,2023-09-28_10h57.15.798,REPSWITCH1_version1_list1,2022.2.4,143.96194811716686,
REPSWITCH1/PICTURE_235.png,aguja,speak,gold,filler,2,F,4,1,1,1,Stim4_Set3,0,None,89,88,89,0,88,88,88,,,,,,,,,,,,,,,,,,,,,,,435.0912666999502,436.34127149998676,436.34127149998676,436.34127149998676,436.34127149998676,436.34127149998676,436.34127149998676,436.34127149998676,436.34127149998676,None,0,,,C:\2023\REPSWITCH21092023\REPSWITCH_excgange\REPSWITCH_excgange\data/000101_REPSWITCH1_version1_list1_2023-09-28_10h57.15.798_micRespv1l1_recorded\recording_micRespv1l1_2023-09-28_11h04.26.358.wav,439.36243009998,,None,,,,,,,,,,,000101,001,2023-09-28_10h57.15.798,REPSWITCH1_version1_list1,2022.2.4,143.96194811716686,
REPSWITCH1/PICTURE_35.png,oreja,type,darkblue,filler,1,F,4,1,1,1,Stim5_Set3,0,None,90,89,90,0,89,89,89,,,,,,,,,,,,,,,,,,,,,,,439.86232379998546,440.95983730000444,440.95983730000444,440.95983730000444,440.95983730000444,440.95983730000444,440.95983730000444,440.95983730000444,440.95983730000444,"['o', 'r', 'e', 'j', 'a']",0,"[1.526711200014688, 1.8466828999808058, 2.00667379994411, 2.150702300015837, 2.2307086000218987]",oreja,C:\2023\REPSWITCH21092023\REPSWITCH_excgange\REPSWITCH_excgange\data/000101_REPSWITCH1_version1_list1_2023-09-28_10h57.15.798_micRespv1l1_recorded\recording_micRespv1l1_2023-09-28_11h04.30.985.wav,443.9882411999861,444.4882077999646,None,443.9882411999861,443.9882411999861,443.9882411999861,443.9882411999861,443.9882411999861,443.9882411999861,,,,,000101,001,2023-09-28_10h57.15.798,REPSWITCH1_version1_list1,2022.2.4,143.96194811716686,
REPSWITCH1/PICTURE_687.png,camisa,type,darkblue,nontarget,1,NT,4,1,1,1,Stim5_Set4,1,repeat,91,90,91,0,90,90,90,,,,,,,,,,,,,,,,,,,,,,,444.4882077999646,445.6061861999333,445.6061861999333,445.6061861999333,445.6061861999333,445.6061861999333,445.6061861999333,445.6061861999333,445.6061861999333,"['c', 'a', 'm', 'i', 's', 'a']",0,"[1.0402456000447273, 1.088239600067027, 1.4878349000355229, 1.6636859000427648, 1.7605452000861987, 1.9203581000911072]",camisa,C:\2023\REPSWITCH21092023\REPSWITCH_excgange\REPSWITCH_excgange\data/000101_REPSWITCH1_version1_list1_2023-09-28_10h57.15.798_micRespv1l1_recorded\recording_micRespv1l1_2023-09-28_11h04.35.623.wav,448.6274084999459,,None,,,,,,,,,,,000101,001,2023-09-28_10h57.15.798,REPSWITCH1_version1_list1,2022.2.4,143.96194811716686,
REPSWITCH1/PICTURE_687.png,camisa,speak,gold,switch,2,T,4,1,1,1,Stim5_Set4,0,None,92,91,92,0,91,91,91,,,,,,,,,,,,,,,,,,,,,,,449.1277575000422,450.26651869993657,450.26651869993657,450.26651869993657,450.26651869993657,450.26651869993657,450.26651869993657,450.26651869993657,450.26651869993657,None,0,,,C:\2023\REPSWITCH21092023\REPSWITCH_excgange\REPSWITCH_excgange\data/000101_REPSWITCH1_version1_list1_2023-09-28_10h57.15.798_micRespv1l1_recorded\recording_micRespv1l1_2023-09-28_11h04.40.283.wav,453.2876083999872,,None,,,,,,,,,,,000101,001,2023-09-28_10h57.15.798,REPSWITCH1_version1_list1,2022.2.4,143.96194811716686,
REPSWITCH1/PICTURE_338.png,regalo,speak,gold,nontarget,2,NT,4,1,1,1,Stim6_Set4,0,None,93,92,93,0,92,92,92,,,,,,,,,,,,,,,,,,,,,,,453.788002199959,454.89214070001617,454.89214070001617,454.89214070001617,454.89214070001617,454.89214070001617,454.89214070001617,454.89214070001617,454.89214070001617,None,0,,,C:\2023\REPSWITCH21092023\REPSWITCH_excgange\REPSWITCH_excgange\data/000101_REPSWITCH1_version1_list1_2023-09-28_10h57.15.798_micRespv1l1_recorded\recording_micRespv1l1_2023-09-28_11h04.44.918.wav,457.9195517000044,458.419642199995,None,457.9195517000044,457.9195517000044,457.9195517000044,457.9195517000044,457.9195517000044,457.9195517000044,,,,,000101,001,2023-09-28_10h57.15.798,REPSWITCH1_version1_list1,2022.2.4,143.96194811716686,
REPSWITCH1/PICTURE_338.png,regalo,speak,gold,repeat,2,T,4,1,1,1,Stim6_Set4,0,None,94,93,94,0,93,93,93,,,,,,,,,,,,,,,,,,,,,,,458.419642199995,459.4682341000298,459.4682341000298,459.4682341000298,459.4682341000298,459.4682341000298,459.4682341000298,459.4682341000298,459.4682341000298,None,0,,,C:\2023\REPSWITCH21092023\REPSWITCH_excgange\REPSWITCH_excgange\data/000101_REPSWITCH1_version1_list1_2023-09-28_10h57.15.798_micRespv1l1_recorded\recording_micRespv1l1_2023-09-28_11h04.49.492.wav,462.4971502999542,,None,462.4971502999542,462.4971502999542,462.4971502999542,462.4971502999542,462.4971502999542,462.4971502999542,,,,,000101,001,2023-09-28_10h57.15.798,REPSWITCH1_version1_list1,2022.2.4,143.96194811716686,
REPSWITCH1/PICTURE_663.png,columna,type,darkblue,filler,1,F,4,1,1,1,Extra6,0,None,95,94,95,0,94,94,94,,,,,,,,,,,,,,,,,,,,,,,462.9975564000197,464.1225714000175,464.1225714000175,464.1225714000175,464.1225714000175,464.1225714000175,464.1225714000175,464.1225714000175,464.1225714000175,"['c', 'o', 'l', 'u', 'm', 'n']",0,"[1.2917243000119925, 1.49962619994767, 1.69146170001477, 1.9311170999426395, 2.187302800011821, 2.427316299988888]",column,C:\2023\REPSWITCH21092023\REPSWITCH_excgange\REPSWITCH_excgange\data/000101_REPSWITCH1_version1_list1_2023-09-28_10h57.15.798_micRespv1l1_recorded\recording_micRespv1l1_2023-09-28_11h04.54.152.wav,467.15755979996175,,None,467.15755979996175,467.15755979996175,467.15755979996175,467.15755979996175,467.15755979996175,467.15755979996175,,,,,000101,001,2023-09-28_10h57.15.798,REPSWITCH1_version1_list1,2022.2.4,143.96194811716686,
REPSWITCH1/PICTURE_271.png,conejo,speak,gold,filler,2,F,4,1,1,1,Stim7_Set3,0,None,96,95,96,0,95,95,95,,,,,,,,,,,,,,,,,,,,,,,467.6577277999604,468.7553062000079,468.7553062000079,468.7553062000079,468.7553062000079,468.7553062000079,468.7553062000079,468.7553062000079,468.7553062000079,None,0,,,C:\2023\REPSWITCH21092023\REPSWITCH_excgange\REPSWITCH_excgange\data/000101_REPSWITCH1_version1_list1_2023-09-28_10h57.15.798_micRespv1l1_recorded\recording_micRespv1l1_2023-09-28_11h04.58.783.wav,471.79021440004,,None,471.79021440004,471.79021440004,471.79021440004,471.79021440004,471.79021440004,471.79021440004,,,,,000101,001,2023-09-28_10h57.15.798,REPSWITCH1_version1_list1,2022.2.4,143.96194811716686,
REPSWITCH1/PICTURE_48.png,bombero,speak,gold,nontarget,2,NT,4,1,1,1,Stim7_Set4,0,None,97,96,97,0,96,96,96,,,,,,,,,,,,,,,,,,,,,,,472.2902746000327,473.39467389998026,473.39467389998026,473.39467389998026,473.39467389998026,473.39467389998026,473.39467389998026,473.39467389998026,473.39467389998026,None,0,,,C:\2023\REPSWITCH21092023\REPSWITCH_excgange\REPSWITCH_excgange\data/000101_REPSWITCH1_version1_list1_2023-09-28_10h57.15.798_micRespv1l1_recorded\recording_micRespv1l1_2023-09-28_11h05.03.410.wav,476.41575179994106,,None,,,,,,,,,,,000101,001,2023-09-28_10h57.15.798,REPSWITCH1_version1_list1,2022.2.4,143.96194811716686,
REPSWITCH1/PICTURE_48.png,bombero,type,darkblue,switch,1,T,4,1,1,1,Stim7_Set4,0,None,98,97,98,0,97,97,97,,,,,,,,,,,,,,,,,,,,,,,476.91616739996243,478.0410195000004,478.0410195000004,478.0410195000004,478.0410195000004,478.0410195000004,478.0410195000004,478.0410195000004,478.0410195000004,"['b', 'o', 'm', 'b', 'e', 'r', 'o']",0,"[1.2446711999364197, 1.4206534000113606, 1.6450513999443501, 1.9490601000143215, 2.1250511000398546, 2.3650551999453455, 2.4930500999325886]",bombero,C:\2023\REPSWITCH21092023\REPSWITCH_excgange\REPSWITCH_excgange\data/000101_REPSWITCH1_version1_list1_2023-09-28_10h57.15.798_micRespv1l1_recorded\recording_micRespv1l1_2023-09-28_11h05.08.057.wav,481.06219249998685,,None,,,,,,,,,,,000101,001,2023-09-28_10h57.15.798,REPSWITCH1_version1_list1,2022.2.4,143.96194811716686,
REPSWITCH1/PICTURE_728.png,pulpo,type,darkblue,nontarget,1,NT,4,1,1,1,Stim8_Set4,0,None,99,98,99,0,98,98,98,,,,,,,,,,,,,,,,,,,,,,,481.5623294999823,482.6457743999781,482.6457743999781,482.6457743999781,482.6457743999781,482.6457743999781,482.6457743999781,482.6457743999781,482.6457743999781,"['p', 'u', 'l', 'p', 'o']",0,"[1.4084064000053331, 1.6963981000008062, 2.0804673000238836, 2.2564052999950945, 2.4163951000664383]",pulpo,C:\2023\REPSWITCH21092023\REPSWITCH_excgange\REPSWITCH_excgange\data/000101_REPSWITCH1_version1_list1_2023-09-28_10h57.15.798_micRespv1l1_recorded\recording_micRespv1l1_2023-09-28_11h05.12.672.wav,485.67319050000515,486.1740511000389,None,485.67319050000515,485.67319050000515,485.67319050000515,485.67319050000515,485.67319050000515,485.67319050000515,,,,,000101,001,2023-09-28_10h57.15.798,REPSWITCH1_version1_list1,2022.2.4,143.96194811716686,
REPSWITCH1/PICTURE_728.png,pulpo,type,darkblue,repeat,1,T,4,1,1,1,Stim8_Set4,0,None,100,99,100,0,99,99,99,,,,,,,,,,,,,,,,,,,,,,,486.1740511000389,487.3547647999367,487.3547647999367,487.3547647999367,487.3547647999367,487.3547647999367,487.3547647999367,487.3547647999367,487.3547647999367,"['p', 'u', 'l', 'p', 'o']",0,"[0.7149045000551268, 0.9869018000317737, 1.3388865999877453, 1.6269673000788316, 1.770926000084728]",pulpo,C:\2023\REPSWITCH21092023\REPSWITCH_excgange\REPSWITCH_excgange\data/000101_REPSWITCH1_version1_list1_2023-09-28_10h57.15.798_micRespv1l1_recorded\recording_micRespv1l1_2023-09-28_11h05.17.381.wav,490.3897552000126,,None,490.3897552000126,490.3897552000126,490.3897552000126,490.3897552000126,490.3897552000126,490.3897552000126,,,,,000101,001,2023-09-28_10h57.15.798,REPSWITCH1_version1_list1,2022.2.4,143.96194811716686,
REPSWITCH1/PICTURE_320.png,iglesia,speak,gold,filler,1,F,4,1,1,1,Stim8_Set3,0,None,101,100,101,0,100,100,100,,,,,,,,,,,,,,,,,,,,,,,490.8899178999709,492.001224800013,492.001224800013,492.001224800013,492.001224800013,492.001224800013,492.001224800013,492.001224800013,492.001224800013,None,0,,,C:\2023\REPSWITCH21092023\REPSWITCH_excgange\REPSWITCH_excgange\data/000101_REPSWITCH1_version1_list1_2023-09-28_10h57.15.798_micRespv1l1_recorded\recording_micRespv1l1_2023-09-28_11h05.22.027.wav,495.0288231000304,495.52994949999265,None,495.0288231000304,495.0288231000304,495.0288231000304,495.0288231000304,495.0288231000304,495.0288231000304,,,,,000101,001,2023-09-28_10h57.15.798,REPSWITCH1_version1_list1,2022.2.4,143.96194811716686,
REPSWITCH1/PICTURE_464.png,goma,type,darkblue,filler,1,F,4,1,1,1,Stim6_Set3,0,None,102,101,102,0,101,101,101,,,,,,,,,,,,,,,,,,,,,,,495.52994949999265,496.6615377999842,496.6615377999842,496.6615377999842,496.6615377999842,496.6615377999842,496.6615377999842,496.6615377999842,496.6615377999842,"['g', 'o', 'm', 's', 'a', 'backspace', 'a']",0,"[1.3288019000319764, 1.4567977000260726, 1.6327917999587953, 1.7287621999857947, 1.7607919999863952, 2.560091400053352, 2.8483758999500424]",gomsa,C:\2023\REPSWITCH21092023\REPSWITCH_excgange\REPSWITCH_excgange\data/000101_REPSWITCH1_version1_list1_2023-09-28_10h57.15.798_micRespv1l1_recorded\recording_micRespv1l1_2023-09-28_11h05.26.677.wav,499.68255899997894,,space,,,,,,,500.1828337999759,500.1828337999759,4.12719039991498,,000101,001,2023-09-28_10h57.15.798,REPSWITCH1_version1_list1,2022.2.4,143.96194811716686,
REPSWITCH1/PICTURE_663.png,columna,type,darkblue,filler,1,F,1,2,1,1,Extra6,0,None,103,102,1,0,102,102,102,,,,,,,,,,,,,,,,,,,,,,,504.3222589000361,505.42661600001156,505.42661600001156,505.42661600001156,505.42661600001156,505.42661600001156,505.42661600001156,505.42661600001156,505.42661600001156,"['c', 'o', 'l', 'u', 'm', 'n', 'a']",0,"[1.268015099922195, 1.6360608999384567, 1.8270702000008896, 2.0519949999870732, 2.2759958999231458, 2.515334099996835, 2.612381699960679]",columna,C:\2023\REPSWITCH21092023\REPSWITCH_excgange\REPSWITCH_excgange\data/000101_REPSWITCH1_version1_list1_2023-09-28_10h57.15.798_micRespv1l1_recorded\recording_micRespv1l1_2023-09-28_11h05.35.452.wav,508.45543810003437,508.95472719997633,None,508.45543810003437,508.45543810003437,508.45543810003437,508.45543810003437,508.45543810003437,508.45543810003437,,,,,000101,001,2023-09-28_10h57.15.798,REPSWITCH1_version1_list1,2022.2.4,143.96194811716686,
REPSWITCH1/PICTURE_128.png,muñeca,speak,gold,nontarget,2,NT,1,2,1,1,Stim4_Set1,1,switch,104,103,2,0,103,103,103,,,,,,,,,,,,,,,,,,,,,,,508.95472719997633,510.01737539994065,510.01737539994065,510.01737539994065,510.01737539994065,510.01737539994065,510.01737539994065,510.01737539994065,510.01737539994065,None,0,,,C:\2023\REPSWITCH21092023\REPSWITCH_excgange\REPSWITCH_excgange\data/000101_REPSWITCH1_version1_list1_2023-09-28_10h57.15.798_micRespv1l1_recorded\recording_micRespv1l1_2023-09-28_11h05.40.033.wav,513.0384667000035,,None,,,,,,,,,,,000101,001,2023-09-28_10h57.15.798,REPSWITCH1_version1_list1,2022.2.4,143.96194811716686,
REPSWITCH1/PICTURE_128.png,muñeca,speak,gold,repeat,2,T,1,2,1,1,Stim4_Set1,0,None,105,104,3,0,104,104,104,,,,,,,,,,,,,,,,,,,,,,,513.538989600027,514.6848775999388,514.6848775999388,514.6848775999388,514.6848775999388,514.6848775999388,514.6848775999388,514.6848775999388,514.6848775999388,None,0,,,C:\2023\REPSWITCH21092023\REPSWITCH_excgange\REPSWITCH_excgange\data/000101_REPSWITCH1_version1_list1_2023-09-28_10h57.15.798_micRespv1l1_recorded\recording_micRespv1l1_2023-09-28_11h05.44.701.wav,517.705747299944,,None,,,,,,,,,,,000101,001,2023-09-28_10h57.15.798,REPSWITCH1_version1_list1,2022.2.4,143.96194811716686,
REPSWITCH1/PICTURE_8.png,pierna,type,darkblue,filler,1,F,1,2,1,1,Stim3_Set4,0,None,106,105,4,0,105,105,105,,,,,,,,,,,,,,,,,,,,,,,518.2059359999839,519.3173777000047,519.3173777000047,519.3173777000047,519.3173777000047,519.3173777000047,519.3173777000047,519.3173777000047,519.3173777000047,"['p', 'i', 'e', 'r', 'n', 'a']",0,"[1.8244083999888971, 2.0485661999555305, 2.2405049999943003, 2.400444500031881, 2.560446299961768, 2.6404142000246793]",pierna,C:\2023\REPSWITCH21092023\REPSWITCH_excgange\REPSWITCH_excgange\data/000101_REPSWITCH1_version1_list1_2023-09-28_10h57.15.798_micRespv1l1_recorded\recording_micRespv1l1_2023-09-28_11h05.49.333.wav,522.3382929000072,,None,,,,,,,,,,,000101,001,2023-09-28_10h57.15.798,REPSWITCH1_version1_list1,2022.2.4,143.96194811716686,
REPSWITCH1/PICTURE_135.png,traje,speak,gold,nontarget,2,NT,1,2,1,1,Stim3_Set1,1,switch,107,106,5,0,106,106,106,,,,,,,,,,,,,,,,,,,,,,,522.8385395000223,523.9151028000051,523.9151028000051,523.9151028000051,523.9151028000051,523.9151028000051,523.9151028000051,523.9151028000051,523.9151028000051,None,0,,,C:\2023\REPSWITCH21092023\REPSWITCH_excgange\REPSWITCH_excgange\data/000101_REPSWITCH1_version1_list1_2023-09-28_10h57.15.798_micRespv1l1_recorded\recording_micRespv1l1_2023-09-28_11h05.53.930.wav,526.9361113000195,,None,,,,,,,,,,,000101,001,2023-09-28_10h57.15.798,REPSWITCH1_version1_list1,2022.2.4,143.96194811716686,
REPSWITCH1/PICTURE_135.png,traje,speak,gold,repeat,2,T,1,2,1,1,Stim3_Set1,0,None,108,107,6,0,107,107,107,,,,,,,,,,,,,,,,,,,,,,,527.4363561000209,528.5060155999381,528.5060155999381,528.5060155999381,528.5060155999381,528.5060155999381,528.5060155999381,528.5060155999381,528.5060155999381,None,0,,,C:\2023\REPSWITCH21092023\REPSWITCH_excgange\REPSWITCH_excgange\data/000101_REPSWITCH1_version1_list1_2023-09-28_10h57.15.798_micRespv1l1_recorded\recording_micRespv1l1_2023-09-28_11h05.58.522.wav,531.5269903000444,,None,,,,,,,,,,,000101,001,2023-09-28_10h57.15.798,REPSWITCH1_version1_list1,2022.2.4,143.96194811716686,
REPSWITCH1/PICTURE_673.png,tenedor,type,darkblue,filler,1,F,1,2,1,1,Extra5,0,None,109,108,7,0,108,108,108,,,,,,,,,,,,,,,,,,,,,,,532.0272372999461,533.1659396999748,533.1659396999748,533.1659396999748,533.1659396999748,533.1659396999748,533.1659396999748,533.1659396999748,533.1659396999748,"['t', 'e', 'n', 'e', 'd', 'o', 'r']",0,"[1.3040584999835119, 1.4000548999756575, 1.5601965000387281, 1.6242006999673322, 1.8800581999821588, 2.184085899963975, 2.2974208999658003]",tenedor,C:\2023\REPSWITCH21092023\REPSWITCH_excgange\REPSWITCH_excgange\data/000101_REPSWITCH1_version1_list1_2023-09-28_10h57.15.798_micRespv1l1_recorded\recording_micRespv1l1_2023-09-28_11h06.03.192.wav,536.1936873999657,536.6946187999565,None,536.1936873999657,536.1936873999657,536.1936873999657,536.1936873999657,536.1936873999657,536.1936873999657,,,,,000101,001,2023-09-28_10h57.15.798,REPSWITCH1_version1_list1,2022.2.4,143.96194811716686,
REPSWITCH1/PICTURE_728.png,pulpo,speak,gold,filler,2,F,1,2,1,1,Stim8_Set4,0,None,110,109,8,0,109,109,109,,,,,,,,,,,,,,,,,,,,,,,536.6946187999565,537.7849254000466,537.7849254000466,537.7849254000466,537.7849254000466,537.7849254000466,537.7849254000466,537.7849254000466,537.7849254000466,None,0,,,C:\2023\REPSWITCH21092023\REPSWITCH_excgange\REPSWITCH_excgange\data/000101_REPSWITCH1_version1_list1_2023-09-28_10h57.15.798_micRespv1l1_recorded\recording_micRespv1l1_2023-09-28_11h06.07.811.wav,540.8200511999894,,None,540.8200511999894,540.8200511999894,540.8200511999894,540.8200511999894,540.8200511999894,540.8200511999894,,,,,000101,001,2023-09-28_10h57.15.798,REPSWITCH1_version1_list1,2022.2.4,143.96194811716686,
REPSWITCH1/PICTURE_16.png,cazador,speak,gold,nontarget,2,NT,1,2,1,1,Stim6_Set1,1,repeat,111,110,9,0,110,110,110,,,,,,,,,,,,,,,,,,,,,,,541.3201129999943,542.4803937999532,542.4803937999532,542.4803937999532,542.4803937999532,542.4803937999532,542.4803937999532,542.4803937999532,542.4803937999532,None,0,,,C:\2023\REPSWITCH21092023\REPSWITCH_excgange\REPSWITCH_excgange\data/000101_REPSWITCH1_version1_list1_2023-09-28_10h57.15.798_micRespv1l1_recorded\recording_micRespv1l1_2023-09-28_11h06.12.497.wav,545.5010363999754,,None,,,,,,,,,,,000101,001,2023-09-28_10h57.15.798,REPSWITCH1_version1_list1,2022.2.4,143.96194811716686,
REPSWITCH1/PICTURE_16.png,cazador,type,darkblue,switch,1,T,1,2,1,1,Stim6_Set1,0,None,112,111,10,0,111,111,111,,,,,,,,,,,,,,,,,,,,,,,546.0012780999532,547.0987937999889,547.0987937999889,547.0987937999889,547.0987937999889,547.0987937999889,547.0987937999889,547.0987937999889,547.0987937999889,"['c', 'a', 'z', 'a', 'd', 'o', 'r']",0,"[1.051289499970153, 1.147234500036575, 1.3232309999875724, 1.499237300013192, 1.7552349000470713, 1.9632335000205785, 2.155229000025429]",cazador,C:\2023\REPSWITCH21092023\REPSWITCH_excgange\REPSWITCH_excgange\data/000101_REPSWITCH1_version1_list1_2023-09-28_10h57.15.798_micRespv1l1_recorded\recording_micRespv1l1_2023-09-28_11h06.17.126.wav,550.13371189998,,None,550.13371189998,550.13371189998,550.13371189998,550.13371189998,550.13371189998,550.13371189998,,,,,000101,001,2023-09-28_10h57.15.798,REPSWITCH1_version1_list1,2022.2.4,143.96194811716686,
REPSWITCH1/PICTURE_498.png,taza,type,darkblue,filler,1,F,1,2,1,1,Stim4_Set4,1,repeat,113,112,11,0,112,112,112,,,,,,,,,,,,,,,,,,,,,,,550.6338229000103,551.7104997000424,551.7104997000424,551.7104997000424,551.7104997000424,551.7104997000424,551.7104997000424,551.7104997000424,551.7104997000424,"['t', 'a', 'z', 'a']",0,"[1.9600495001068339, 2.040043900022283, 2.231432600063272, 2.3753967001102865]",taza,C:\2023\REPSWITCH21092023\REPSWITCH_excgange\REPSWITCH_excgange\data/000101_REPSWITCH1_version1_list1_2023-09-28_10h57.15.798_micRespv1l1_recorded\recording_micRespv1l1_2023-09-28_11h06.21.726.wav,554.7317321000155,,None,,,,,,,,,,,000101,001,2023-09-28_10h57.15.798,REPSWITCH1_version1_list1,2022.2.4,143.96194811716686,
REPSWITCH1/PICTURE_381.png,fresa,type,darkblue,nontarget,1,NT,1,2,1,1,Stim2_Set1,1,repeat,114,113,12,0,113,113,113,,,,,,,,,,,,,,,,,,,,,,,555.2317845999496,556.308196399943,556.308196399943,556.308196399943,556.308196399943,556.308196399943,556.308196399943,556.308196399943,556.308196399943,"['f', 'r', 'e', 's', 'a']",0,"[1.1862682000501081, 1.361691200057976, 1.4586632000282407, 1.6336898000445217, 1.8096822000807151]",fresa,C:\2023\REPSWITCH21092023\REPSWITCH_excgange\REPSWITCH_excgange\data/000101_REPSWITCH1_version1_list1_2023-09-28_10h57.15.798_micRespv1l1_recorded\recording_micRespv1l1_2023-09-28_11h06.26.336.wav,559.3423471000278,559.842715100036,None,559.3423471000278,559.3423471000278,559.3423471000278,559.3423471000278,559.3423471000278,559.3423471000278,,,,,000101,001,2023-09-28_10h57.15.798,REPSWITCH1_version1_list1,2022.2.4,143.96194811716686,
REPSWITCH1/PICTURE_381.png,fresa,speak,gold,switch,2,T,1,2,1,1,Stim2_Set1,0,None,115,114,13,0,114,114,114,,,,,,,,,,,,,,,,,,,,,,,559.842715100036,560.898589199991,560.898589199991,560.898589199991,560.898589199991,560.898589199991,560.898589199991,560.898589199991,560.898589199991,None,0,,,C:\2023\REPSWITCH21092023\REPSWITCH_excgange\REPSWITCH_excgange\data/000101_REPSWITCH1_version1_list1_2023-09-28_10h57.15.798_micRespv1l1_recorded\recording_micRespv1l1_2023-09-28_11h06.30.922.wav,563.9271754999645,,None,563.9271754999645,563.9271754999645,563.9271754999645,563.9271754999645,563.9271754999645,563.9271754999645,,,,,000101,001,2023-09-28_10h57.15.798,REPSWITCH1_version1_list1,2022.2.4,143.96194811716686,
REPSWITCH1/PICTURE_178.png,puente,speak,gold,nontarget,2,NT,1,2,1,1,Stim1_Set1,0,None,116,115,14,0,115,115,115,,,,,,,,,,,,,,,,,,,,,,,564.4272896000184,565.4622037999798,565.4622037999798,565.4622037999798,565.4622037999798,565.4622037999798,565.4622037999798,565.4622037999798,565.4622037999798,None,0,,,C:\2023\REPSWITCH21092023\REPSWITCH_excgange\REPSWITCH_excgange\data/000101_REPSWITCH1_version1_list1_2023-09-28_10h57.15.798_micRespv1l1_recorded\recording_micRespv1l1_2023-09-28_11h06.35.489.wav,568.4896305999719,568.990385800018,None,568.4896305999719,568.4896305999719,568.4896305999719,568.4896305999719,568.4896305999719,568.4896305999719,,,,,000101,001,2023-09-28_10h57.15.798,REPSWITCH1_version1_list1,2022.2.4,143.96194811716686,
REPSWITCH1/PICTURE_178.png,puente,type,darkblue,switch,1,T,1,2,1,1,Stim1_Set1,0,None,117,116,15,0,116,116,116,,,,,,,,,,,,,,,,,,,,,,,568.990385800018,570.185170999961,570.185170999961,570.185170999961,570.185170999961,570.185170999961,570.185170999961,570.185170999961,570.185170999961,"['p', 'u', 'e', 'n', 't', 'e']",0,"[0.7804520999779925, 1.0684148999862373, 1.2608756000408903, 1.4367053000023589, 1.6606735000386834, 1.884665200021118]",puente,C:\2023\REPSWITCH21092023\REPSWITCH_excgange\REPSWITCH_excgange\data/000101_REPSWITCH1_version1_list1_2023-09-28_10h57.15.798_micRespv1l1_recorded\recording_micRespv1l1_2023-09-28_11h06.40.202.wav,573.2060402999632,,None,,,,,,,,,,,000101,001,2023-09-28_10h57.15.798,REPSWITCH1_version1_list1,2022.2.4,143.96194811716686,
REPSWITCH1/PICTURE_719.png,baño,speak,gold,filler,2,F,1,2,1,1,Stim2_Set4,0,None,118,117,16,0,117,117,117,,,,,,,,,,,,,,,,,,,,,,,573.7061960999854,574.8105486000422,574.8105486000422,574.8105486000422,574.8105486000422,574.8105486000422,574.8105486000422,574.8105486000422,574.8105486000422,None,0,,,C:\2023\REPSWITCH21092023\REPSWITCH_excgange\REPSWITCH_excgange\data/000101_REPSWITCH1_version1_list1_2023-09-28_10h57.15.798_micRespv1l1_recorded\recording_micRespv1l1_2023-09-28_11h06.44.827.wav,577.8319215000374,,None,,,,,,,,,,,000101,001,2023-09-28_10h57.15.798,REPSWITCH1_version1_list1,2022.2.4,143.96194811716686,
REPSWITCH1/PICTURE_169.png,espalda,type,darkblue,nontarget,1,NT,1,2,1,1,Stim8_Set1,1,switch,119,118,17,0,118,118,118,,,,,,,,,,,,,,,,,,,,,,,578.3319028000114,579.4570757999318,579.4570757999318,579.4570757999318,579.4570757999318,579.4570757999318,579.4570757999318,579.4570757999318,579.4570757999318,"['e', 's', 'p', 'a', 'l', 'd', 'a']",0,"[1.0928958000149578, 1.2688304000766948, 1.972679500002414, 2.1966461000265554, 2.3086395000573248, 2.5166416000574827, 2.6930142000783235]",espalda,C:\2023\REPSWITCH21092023\REPSWITCH_excgange\REPSWITCH_excgange\data/000101_REPSWITCH1_version1_list1_2023-09-28_10h57.15.798_micRespv1l1_recorded\recording_micRespv1l1_2023-09-28_11h06.49.473.wav,582.4782446000027,,None,,,,,,,,,,,000101,001,2023-09-28_10h57.15.798,REPSWITCH1_version1_list1,2022.2.4,143.96194811716686,
REPSWITCH1/PICTURE_169.png,espalda,type,darkblue,repeat,1,T,1,2,1,1,Stim8_Set1,0,None,120,119,18,0,119,119,119,,,,,,,,,,,,,,,,,,,,,,,582.9784487000434,584.0062541000079,584.0062541000079,584.0062541000079,584.0062541000079,584.0062541000079,584.0062541000079,584.0062541000079,584.0062541000079,"['e', 's', 'p', 'a', 'l', 'd', 'a']",0,"[0.879834600025788, 1.055682500009425, 1.2001257999800146, 1.2961570000043139, 1.408125099958852, 1.7118341999594122, 1.9037798999343067]",espalda,C:\2023\REPSWITCH21092023\REPSWITCH_excgange\REPSWITCH_excgange\data/000101_REPSWITCH1_version1_list1_2023-09-28_10h57.15.798_micRespv1l1_recorded\recording_micRespv1l1_2023-09-28_11h06.54.024.wav,587.0275731999427,,None,,,,,,,,,,,000101,001,2023-09-28_10h57.15.798,REPSWITCH1_version1_list1,2022.2.4,143.96194811716686,
REPSWITCH1/PICTURE_48.png,bombero,speak,gold,filler,2,F,1,2,1,1,Stim7_Set4,1,switch,121,120,19,0,120,120,120,,,,,,,,,,,,,,,,,,,,,,,587.5274386999663,588.6944214999676,588.6944214999676,588.6944214999676,588.6944214999676,588.6944214999676,588.6944214999676,588.6944214999676,588.6944214999676,None,0,,,C:\2023\REPSWITCH21092023\REPSWITCH_excgange\REPSWITCH_excgange\data/000101_REPSWITCH1_version1_list1_2023-09-28_10h57.15.798_micRespv1l1_recorded\recording_micRespv1l1_2023-09-28_11h06.58.711.wav,591.7153700999916,,None,,,,,,,,,,,000101,001,2023-09-28_10h57.15.798,REPSWITCH1_version1_list1,2022.2.4,143.96194811716686,
REPSWITCH1/PICTURE_19.png,pavo,type,darkblue,nontarget,1,NT,1,2,1,1,Stim5_Set1,1,switch,122,121,20,0,121,121,121,,,,,,,,,,,,,,,,,,,,,,,592.2156937000109,593.3547011000337,593.3547011000337,593.3547011000337,593.3547011000337,593.3547011000337,593.3547011000337,593.3547011000337,593.3547011000337,"['p', 'a', 'v', 'o']",0,"[1.3236388999503106, 1.4356455999659374, 1.7709287999896333, 1.8992497998988256]",pavo,C:\2023\REPSWITCH21092023\REPSWITCH_excgange\REPSWITCH_excgange\data/000101_REPSWITCH1_version1_list1_2023-09-28_10h57.15.798_micRespv1l1_recorded\recording_micRespv1l1_2023-09-28_11h07.03.381.wav,596.3820947000058,596.8829344999976,None,596.3820947000058,596.3820947000058,596.3820947000058,596.3820947000058,596.3820947000058,596.3820947000058,,,,,000101,001,2023-09-28_10h57.15.798,REPSWITCH1_version1_list1,2022.2.4,143.96194811716686,
REPSWITCH1/PICTURE_19.png,pavo,type,darkblue,repeat,1,T,1,2,1,1,Stim5_Set1,0,None,123,122,21,0,122,122,122,,,,,,,,,,,,,,,,,,,,,,,596.8829344999976,598.0219473999459,598.0219473999459,598.0219473999459,598.0219473999459,598.0219473999459,598.0219473999459,598.0219473999459,598.0219473999459,"['p', 'a', 'v', 'o']",0,"[1.0076447000028566, 1.0236364000011235, 1.3437339999945834, 1.471725800074637]",pavo,C:\2023\REPSWITCH21092023\REPSWITCH_excgange\REPSWITCH_excgange\data/000101_REPSWITCH1_version1_list1_2023-09-28_10h57.15.798_micRespv1l1_recorded\recording_micRespv1l1_2023-09-28_11h07.08.048.wav,601.0493268000428,601.5494147000136,None,601.0493268000428,601.0493268000428,601.0493268000428,601.0493268000428,601.0493268000428,601.0493268000428,,,,,000101,001,2023-09-28_10h57.15.798,REPSWITCH1_version1_list1,2022.2.4,143.96194811716686,
REPSWITCH1/PICTURE_319.png,vaca,speak,gold,filler,2,F,1,2,1,1,Stim1_Set4,0,None,124,123,22,0,123,123,123,,,,,,,,,,,,,,,,,,,,,,,601.5494147000136,602.6050804000115,602.6050804000115,602.6050804000115,602.6050804000115,602.6050804000115,602.6050804000115,602.6050804000115,602.6050804000115,None,0,,,C:\2023\REPSWITCH21092023\REPSWITCH_excgange\REPSWITCH_excgange\data/000101_REPSWITCH1_version1_list1_2023-09-28_10h57.15.798_micRespv1l1_recorded\recording_micRespv1l1_2023-09-28_11h07.12.628.wav,605.6338836000068,,None,605.6338836000068,605.6338836000068,605.6338836000068,605.6338836000068,605.6338836000068,605.6338836000068,,,,,000101,001,2023-09-28_10h57.15.798,REPSWITCH1_version1_list1,2022.2.4,143.96194811716686,
REPSWITCH1/PICTURE_338.png,regalo,type,darkblue,filler,1,F,1,2,1,1,Stim6_Set4,0,None,125,124,23,0,124,124,124,,,,,,,,,,,,,,,,,,,,,,,606.1342536000302,607.2106893999735,607.2106893999735,607.2106893999735,607.2106893999735,607.2106893999735,607.2106893999735,607.2106893999735,607.2106893999735,"['r', 'e', 'h', 'backspace', 'g']",0,"[1.3073772999923676, 1.4360118999611586, 1.707381800049916, 2.5553827000549063, 2.9234443999594077]",reg,C:\2023\REPSWITCH21092023\REPSWITCH_excgange\REPSWITCH_excgange\data/000101_REPSWITCH1_version1_list1_2023-09-28_10h57.15.798_micRespv1l1_recorded\recording_micRespv1l1_2023-09-28_11h07.17.227.wav,610.2317013000138,,None,,,,,,,,,,,000101,001,2023-09-28_10h57.15.798,REPSWITCH1_version1_list1,2022.2.4,143.96194811716686,
REPSWITCH1/PICTURE_142.png,vaso,type,darkblue,nontarget,1,NT,1,2,1,1,Stim7_Set1,0,None,126,125,24,0,125,125,125,,,,,,,,,,,,,,,,,,,,,,,610.7319639000343,611.8363415999338,611.8363415999338,611.8363415999338,611.8363415999338,611.8363415999338,611.8363415999338,611.8363415999338,611.8363415999338,"['v', 'a', 's', 'o']",0,"[0.8732875999994576, 0.9212740000803024, 1.1296732000773773, 1.3053539000684395]",vaso,C:\2023\REPSWITCH21092023\REPSWITCH_excgange\REPSWITCH_excgange\data/000101_REPSWITCH1_version1_list1_2023-09-28_10h57.15.798_micRespv1l1_recorded\recording_micRespv1l1_2023-09-28_11h07.21.862.wav,614.8648430999601,615.3646674000192,None,614.8648430999601,614.8648430999601,614.8648430999601,614.8648430999601,614.8648430999601,614.8648430999601,,,,,000101,001,2023-09-28_10h57.15.798,REPSWITCH1_version1_list1,2022.2.4,143.96194811716686,
REPSWITCH1/PICTURE_142.png,vaso,speak,gold,switch,2,T,1,2,1,1,Stim7_Set1,0,None,127,126,25,0,126,126,126,,,,,,,,,,,,,,,,,,,,,,,615.3646674000192,616.4478107000468,616.4478107000468,616.4478107000468,616.4478107000468,616.4478107000468,616.4478107000468,616.4478107000468,616.4478107000468,None,0,,,C:\2023\REPSWITCH21092023\REPSWITCH_excgange\REPSWITCH_excgange\data/000101_REPSWITCH1_version1_list1_2023-09-28_10h57.15.798_micRespv1l1_recorded\recording_micRespv1l1_2023-09-28_11h07.26.474.wav,619.4753929999424,619.9762449000264,None,619.4753929999424,619.4753929999424,619.4753929999424,619.4753929999424,619.4753929999424,619.4753929999424,,,,,000101,001,2023-09-28_10h57.15.798,REPSWITCH1_version1_list1,2022.2.4,143.96194811716686,
REPSWITCH1/PICTURE_687.png,camisa,type,darkblue,filler,1,F,1,2,1,1,Stim5_Set4,1,switch,128,127,26,0,127,127,127,,,,,,,,,,,,,,,,,,,,,,,619.9762449000264,621.1083983000135,621.1083983000135,621.1083983000135,621.1083983000135,621.1083983000135,621.1083983000135,621.1083983000135,621.1083983000135,"['c', 'a', 'm', 'i', 's', 'a']",0,"[1.1056678999448195, 1.2016706999856979, 1.6019950999179855, 1.8259619999444112, 1.9540046999463812, 2.1299995000008494]",camisa,C:\2023\REPSWITCH21092023\REPSWITCH_excgange\REPSWITCH_excgange\data/000101_REPSWITCH1_version1_list1_2023-09-28_10h57.15.798_micRespv1l1_recorded\recording_micRespv1l1_2023-09-28_11h07.31.124.wav,624.1296401999425,,None,,,,,,,,,,,000101,001,2023-09-28_10h57.15.798,REPSWITCH1_version1_list1,2022.2.4,143.96194811716686,
REPSWITCH1/PICTURE_30.png,granja,type,darkblue,nontarget,1,NT,2,2,1,1,Stim5_Set2,0,None,129,128,27,0,128,128,128,,,,,,,,,,,,,,,,,,,,,,,624.6297003999352,625.7616615999723,625.7616615999723,625.7616615999723,625.7616615999723,625.7616615999723,625.7616615999723,625.7616615999723,625.7616615999723,"['f', 'r', 'a', 'n', 'j', 'a']",0,"[1.445345600019209, 1.6363429999910295, 1.7323432000121102, 2.0524015999399126, 2.2286456000292674, 2.277008799952455]",franja,C:\2023\REPSWITCH21092023\REPSWITCH_excgange\REPSWITCH_excgange\data/000101_REPSWITCH1_version1_list1_2023-09-28_10h57.15.798_micRespv1l1_recorded\recording_micRespv1l1_2023-09-28_11h07.35.789.wav,628.7960542000365,,None,628.7960542000365,628.7960542000365,628.7960542000365,628.7960542000365,628.7960542000365,628.7960542000365,,,,,000101,001,2023-09-28_10h57.15.798,REPSWITCH1_version1_list1,2022.2.4,143.96194811716686,
REPSWITCH1/PICTURE_30.png,granja,type,darkblue,repeat,1,T,2,2,1,1,Stim5_Set2,0,None,130,129,28,0,129,129,129,,,,,,,,,,,,,,,,,,,,,,,629.2961017999332,630.4567931999918,630.4567931999918,630.4567931999918,630.4567931999918,630.4567931999918,630.4567931999918,630.4567931999918,630.4567931999918,"['g', 'r', 'a', 'n', 'j', 'a']",0,"[0.9574921999592334, 1.1815363999921829, 1.2614766999613494, 1.5974429999478161, 1.7894381999503821, 1.902438599965535]",granja,C:\2023\REPSWITCH21092023\REPSWITCH_excgange\REPSWITCH_excgange\data/000101_REPSWITCH1_version1_list1_2023-09-28_10h57.15.798_micRespv1l1_recorded\recording_micRespv1l1_2023-09-28_11h07.40.474.wav,633.4777645999566,633.978204300045,None,,,,,,,,,,,000101,001,2023-09-28_10h57.15.798,REPSWITCH1_version1_list1,2022.2.4,143.96194811716686,
