image;correctAns;respModal;frameColor;repSwitch;sequence;target;set;block;list;exp_version;stimulus;baseline;baseline_condition;trial_no;psychopy_trial;Column1;trialsREPSWITCH.thisRepN;trialsREPSWITCH.thisTrialN;trialsREPSWITCH.thisN;trialsREPSWITCH.thisIndex;textWelcome.started;textboxInstrMain1.started;textboxInstrMain1_2.started;textboxInstrMain1_3.started;keyInstrMain.started;keyInstrMain.keys;keyInstrMain.rt;textboxInstrMain2.started;textboxInstrMain2_2.started;textboxInstrMain2_3.started;textboxInstrMain2_4.started;textboxInstrMain2_5.started;textboxInstrMain2_6.started;textboxInstrMain2_7.started;textboxInstrMain2_8.started;textboxInstrMain2_9.started;textboxInstrMain2_10.started;textboxInstrMain2_11.started;textboxInstrMain2_12.started;keyInstrMain2.started;keyInstrMain2.keys;keyInstrMain2.rt;fixationITI.started;fixationITI.stopped;polygonColour.started;polygonWhite.started;imageObject.started;polygonType.started;textInput.started;keyResp.started;micRespv2l1.started;keyResp.keys;keyResp.corr;keyResp.rt;subjResponse;micRespv2l1.clip;textBlankLoop.started;keyPause.keys;polygonColour.stopped;polygonWhite.stopped;imageObject.stopped;polygonType.stopped;textInput.stopped;keyResp.stopped;textBlankLoop.stopped;textboxPause.started;keyPause.started;keyPause.rt;textboxGoodbye.started;textboxGoodbye.stopped;participant;session;date;expName;psychopyVersion;frameRate;Column2
;;;;;;;;;;;;;;;;;;;;;69.91214790008962;72.41846820013598;72.41846820013598;72.41846820013598;72.41846820013598;space;2.2266587000340223;;;;;;;;;;;;;;;;;;;;;;;;;;;;;;;;;;;;;;;;;;;;000201;001;2023-10-06_09h41.18.571;REPSWITCH1_version2_list1;2022.2.4;143.9130532565852;
;;;;;;;;;;;;;;;;;;;;;;;;;;;;74.66819100012071;74.66819100012071;74.66819100012071;74.66819100012071;74.66819100012071;74.66819100012071;74.66819100012071;74.66819100012071;74.66819100012071;74.66819100012071;74.66819100012071;74.66819100012071;74.66819100012071;space;4.169235500041395;;;;;;;;;;;;;;;;;;;;;;;;;;;;;000201;001;2023-10-06_09h41.18.571;REPSWITCH1_version2_list1;2022.2.4;143.9130532565852;
REPSWITCH1/PICTURE_340.png;espejo;type;gold;filler;1;F;1;1;1;2;Extra1;0;None;1;0;1;0;0;0;0;;;;;;;;;;;;;;;;;;;;;;;78.9469047000166;80.04454770009033;80.04454770009033;80.04454770009033;80.04454770009033;80.04454770009033;80.04454770009033;80.04454770009033;80.04454770009033;['e', 's', 'p', 'e', 'j', 'i', 'o'];0;[1.033332300139591, 1.20913750003092, 1.353180899983272, 1.433194300159812, 1.608526400057599, 1.7684132000431418, 1.7849674001336098];espejio;C:\2023\REPSWITCH21092023\REPSWITCH_excgange\REPSWITCH_excgange\data/000201_REPSWITCH1_version2_list1_2023-10-06_09h41.18.571_micRespv2l1_recorded\recording_micRespv2l1_2023-10-06_09h41.33.547.wav;83.06576060014777;None;;;;;;;;;;;;;000201;001;2023-10-06_09h41.18.571;REPSWITCH1_version2_list1;2022.2.4;143.9130532565852;
REPSWITCH1/PICTURE_391.png;cadena;speak;darkblue;filler;2;F;1;1;1;2;Extra2;0;None;2;1;2;0;1;1;1;;;;;;;;;;;;;;;;;;;;;;;83.56585300015286;84.71874419995584;84.71874419995584;84.71874419995584;84.71874419995584;84.71874419995584;84.71874419995584;84.71874419995584;84.71874419995584;None;0;;;C:\2023\REPSWITCH21092023\REPSWITCH_excgange\REPSWITCH_excgange\data/000201_REPSWITCH1_version2_list1_2023-10-06_09h41.18.571_micRespv2l1_recorded\recording_micRespv2l1_2023-10-06_09h41.38.224.wav;87.73982960009016;None;;;;;;;;;;;;;000201;001;2023-10-06_09h41.18.571;REPSWITCH1_version2_list1;2022.2.4;143.9130532565852;
REPSWITCH1/PICTURE_178.png;puente;speak;darkblue;nontarget;2;NT;1;1;1;2;Stim1_Set1;1;repeat;3;2;3;0;2;2;2;;;;;;;;;;;;;;;;;;;;;;;88.23995009995997;89.39980600005947;89.39980600005947;89.39980600005947;89.39980600005947;89.39980600005947;89.39980600005947;89.39980600005947;89.39980600005947;None;0;;;C:\2023\REPSWITCH21092023\REPSWITCH_excgange\REPSWITCH_excgange\data/000201_REPSWITCH1_version2_list1_2023-10-06_09h41.18.571_micRespv2l1_recorded\recording_micRespv2l1_2023-10-06_09h41.42.905.wav;92.42087350017391;None;;;;;;;;;;;;;000201;001;2023-10-06_09h41.18.571;REPSWITCH1_version2_list1;2022.2.4;143.9130532565852;
REPSWITCH1/PICTURE_178.png;puente;speak;darkblue;repeat;2;T;1;1;1;2;Stim1_Set1;0;None;4;3;4;0;3;3;3;;;;;;;;;;;;;;;;;;;;;;;92.92140660015866;93.94916550000198;93.94916550000198;93.94916550000198;93.94916550000198;93.94916550000198;93.94916550000198;93.94916550000198;93.94916550000198;None;0;;;C:\2023\REPSWITCH21092023\REPSWITCH_excgange\REPSWITCH_excgange\data/000201_REPSWITCH1_version2_list1_2023-10-06_09h41.18.571_micRespv2l1_recorded\recording_micRespv2l1_2023-10-06_09h41.47.453.wav;96.97026600013487;None;;;;;;;;;;;;;000201;001;2023-10-06_09h41.18.571;REPSWITCH1_version2_list1;2022.2.4;143.9130532565852;
REPSWITCH1/PICTURE_319.png;vaca;type;gold;filler;1;F;1;1;1;2;Stim1_Set4;0;None;5;4;5;0;4;4;4;;;;;;;;;;;;;;;;;;;;;;;97.47036610008217;98.58861500001512;98.58861500001512;98.58861500001512;98.58861500001512;98.58861500001512;98.58861500001512;98.58861500001512;98.58861500001512;['v', 'a', 'c', 'a'];0;[0.9202477000653744, 1.0491492000874132, 1.1291398999746889, 1.2091447999700904];vaca;C:\2023\REPSWITCH21092023\REPSWITCH_excgange\REPSWITCH_excgange\data/000201_REPSWITCH1_version2_list1_2023-10-06_09h41.18.571_micRespv2l1_recorded\recording_micRespv2l1_2023-10-06_09h41.52.102.wav;101.6176456999965;None;101.6176456999965;101.6176456999965;101.6176456999965;101.6176456999965;101.6176456999965;101.6176456999965;102.11701890011318;;;;;;000201;001;2023-10-06_09h41.18.571;REPSWITCH1_version2_list1;2022.2.4;143.9130532565852;
REPSWITCH1/PICTURE_381.png;fresa;speak;darkblue;nontarget;2;NT;1;1;1;2;Stim2_Set1;1;switch;6;5;6;0;5;5;5;;;;;;;;;;;;;;;;;;;;;;;102.11701890011318;103.27665330003947;103.27665330003947;103.27665330003947;103.27665330003947;103.27665330003947;103.27665330003947;103.27665330003947;103.27665330003947;None;0;;;C:\2023\REPSWITCH21092023\REPSWITCH_excgange\REPSWITCH_excgange\data/000201_REPSWITCH1_version2_list1_2023-10-06_09h41.18.571_micRespv2l1_recorded\recording_micRespv2l1_2023-10-06_09h41.56.781.wav;106.29770540003665;None;;;;;;;;;;;;;000201;001;2023-10-06_09h41.18.571;REPSWITCH1_version2_list1;2022.2.4;143.9130532565852;
REPSWITCH1/PICTURE_381.png;fresa;speak;darkblue;repeat;2;T;1;1;1;2;Stim2_Set1;0;None;7;6;7;0;6;6;6;;;;;;;;;;;;;;;;;;;;;;;106.79791620001197;108.00637830002233;108.00637830002233;108.00637830002233;108.00637830002233;108.00637830002233;108.00637830002233;108.00637830002233;108.00637830002233;None;0;;;C:\2023\REPSWITCH21092023\REPSWITCH_excgange\REPSWITCH_excgange\data/000201_REPSWITCH1_version2_list1_2023-10-06_09h41.18.571_micRespv2l1_recorded\recording_micRespv2l1_2023-10-06_09h42.01.520.wav;111.03337209997699;None;111.03337209997699;111.03337209997699;111.03337209997699;111.03337209997699;111.03337209997699;111.03337209997699;111.53375610010698;;;;;;000201;001;2023-10-06_09h41.18.571;REPSWITCH1_version2_list1;2022.2.4;143.9130532565852;
REPSWITCH1/PICTURE_719.png;baño;type;gold;filler;1;F;1;1;1;2;Stim2_Set4;1;switch;8;7;8;0;7;7;7;;;;;;;;;;;;;;;;;;;;;;;111.53375610010698;112.75705010001548;112.75705010001548;112.75705010001548;112.75705010001548;112.75705010001548;112.75705010001548;112.75705010001548;112.75705010001548;['n', 'a', 'backspace', 'a', 'ñ', 'o'];0;[0.9440351999364793, 1.040062100160867, 1.391770200105384, 1.8721299001481384, 2.384483400033787, 2.576530500082299];naño;C:\2023\REPSWITCH21092023\REPSWITCH_excgange\REPSWITCH_excgange\data/000201_REPSWITCH1_version2_list1_2023-10-06_09h41.18.571_micRespv2l1_recorded\recording_micRespv2l1_2023-10-06_09h42.06.262.wav;115.778079100186;None;;;;;;;;;;;;;000201;001;2023-10-06_09h41.18.571;REPSWITCH1_version2_list1;2022.2.4;143.9130532565852;
REPSWITCH1/PICTURE_135.png;traje;speak;darkblue;nontarget;2;NT;1;1;1;2;Stim3_Set1;0;None;9;8;9;0;8;8;8;;;;;;;;;;;;;;;;;;;;;;;116.27823469997384;117.36201190017164;117.36201190017164;117.36201190017164;117.36201190017164;117.36201190017164;117.36201190017164;117.36201190017164;117.36201190017164;None;0;;;C:\2023\REPSWITCH21092023\REPSWITCH_excgange\REPSWITCH_excgange\data/000201_REPSWITCH1_version2_list1_2023-10-06_09h41.18.571_micRespv2l1_recorded\recording_micRespv2l1_2023-10-06_09h42.10.865.wav;120.3829922999721;None;;;;;;;;;;;;;000201;001;2023-10-06_09h41.18.571;REPSWITCH1_version2_list1;2022.2.4;143.9130532565852;
REPSWITCH1/PICTURE_135.png;traje;type;gold;switch;1;T;1;1;1;2;Stim3_Set1;0;None;10;9;10;0;9;9;9;;;;;;;;;;;;;;;;;;;;;;;120.88306250004098;122.07076320005581;122.07076320005581;122.07076320005581;122.07076320005581;122.07076320005581;122.07076320005581;122.07076320005581;122.07076320005581;['t', 'r', 'a', 'j', 'e'];0;[0.654777399962768, 0.7987410000059754, 0.8947346999775618, 1.1826572997961193, 1.246765699936077];traje;C:\2023\REPSWITCH21092023\REPSWITCH_excgange\REPSWITCH_excgange\data/000201_REPSWITCH1_version2_list1_2023-10-06_09h41.18.571_micRespv2l1_recorded\recording_micRespv2l1_2023-10-06_09h42.15.585.wav;125.0979013000615;None;125.0979013000615;125.0979013000615;125.0979013000615;125.0979013000615;125.0979013000615;125.0979013000615;125.59897010005079;;;;;;000201;001;2023-10-06_09h41.18.571;REPSWITCH1_version2_list1;2022.2.4;143.9130532565852;
REPSWITCH1/PICTURE_687.png;camisa;speak;darkblue;filler;2;F;1;1;1;2;Stim5_Set4;0;None;11;10;11;0;10;10;10;;;;;;;;;;;;;;;;;;;;;;;125.59897010005079;126.70325230015442;126.70325230015442;126.70325230015442;126.70325230015442;126.70325230015442;126.70325230015442;126.70325230015442;126.70325230015442;None;0;;;C:\2023\REPSWITCH21092023\REPSWITCH_excgange\REPSWITCH_excgange\data/000201_REPSWITCH1_version2_list1_2023-10-06_09h41.18.571_micRespv2l1_recorded\recording_micRespv2l1_2023-10-06_09h42.20.219.wav;129.73216979997233;None;129.73216979997233;129.73216979997233;129.73216979997233;129.73216979997233;129.73216979997233;129.73216979997233;130.231233100174;;;;;;000201;001;2023-10-06_09h41.18.571;REPSWITCH1_version2_list1;2022.2.4;143.9130532565852;
REPSWITCH1/PICTURE_128.png;muñeca;type;gold;nontarget;1;NT;1;1;1;2;Stim4_Set1;1;switch;12;11;12;0;11;11;11;;;;;;;;;;;;;;;;;;;;;;;130.231233100174;131.34987580007873;131.34987580007873;131.34987580007873;131.34987580007873;131.34987580007873;131.34987580007873;131.34987580007873;131.34987580007873;['u', 'ñ', 'e', 'a', 'c'];0;[1.247733100084588, 1.9354316000826657, 2.319388300180435, 2.5914249001070857, 2.6074184000026435];uñeac;C:\2023\REPSWITCH21092023\REPSWITCH_excgange\REPSWITCH_excgange\data/000201_REPSWITCH1_version2_list1_2023-10-06_09h41.18.571_micRespv2l1_recorded\recording_micRespv2l1_2023-10-06_09h42.24.854.wav;134.37077420018613;None;;;;;;;;;;;;;000201;001;2023-10-06_09h41.18.571;REPSWITCH1_version2_list1;2022.2.4;143.9130532565852;
REPSWITCH1/PICTURE_128.png;muñeca;speak;darkblue;switch;2;T;1;1;1;2;Stim4_Set1;0;None;13;12;13;0;12;12;12;;;;;;;;;;;;;;;;;;;;;;;134.87101710005663;135.97534890007228;135.97534890007228;135.97534890007228;135.97534890007228;135.97534890007228;135.97534890007228;135.97534890007228;135.97534890007228;None;0;;;C:\2023\REPSWITCH21092023\REPSWITCH_excgange\REPSWITCH_excgange\data/000201_REPSWITCH1_version2_list1_2023-10-06_09h41.18.571_micRespv2l1_recorded\recording_micRespv2l1_2023-10-06_09h42.29.480.wav;138.996491700178;None;;;;;;;;;;;;;000201;001;2023-10-06_09h41.18.571;REPSWITCH1_version2_list1;2022.2.4;143.9130532565852;
REPSWITCH1/PICTURE_8.png;pierna;speak;darkblue;filler;2;F;1;1;1;2;Stim3_Set4;0;None;14;13;14;0;13;13;13;;;;;;;;;;;;;;;;;;;;;;;139.49675439996645;140.58005880005658;140.58005880005658;140.58005880005658;140.58005880005658;140.58005880005658;140.58005880005658;140.58005880005658;140.58005880005658;None;0;;;C:\2023\REPSWITCH21092023\REPSWITCH_excgange\REPSWITCH_excgange\data/000201_REPSWITCH1_version2_list1_2023-10-06_09h41.18.571_micRespv2l1_recorded\recording_micRespv2l1_2023-10-06_09h42.34.083.wav;143.60132360015996;None;;;;;;;;;;;;;000201;001;2023-10-06_09h41.18.571;REPSWITCH1_version2_list1;2022.2.4;143.9130532565852;
REPSWITCH1/PICTURE_19.png;pavo;speak;darkblue;nontarget;2;NT;1;1;1;2;Stim5_Set1;0;None;15;14;15;0;14;14;14;;;;;;;;;;;;;;;;;;;;;;;144.10122049995698;145.19873140007257;145.19873140007257;145.19873140007257;145.19873140007257;145.19873140007257;145.19873140007257;145.19873140007257;145.19873140007257;None;0;;;C:\2023\REPSWITCH21092023\REPSWITCH_excgange\REPSWITCH_excgange\data/000201_REPSWITCH1_version2_list1_2023-10-06_09h41.18.571_micRespv2l1_recorded\recording_micRespv2l1_2023-10-06_09h42.38.704.wav;148.21999720018357;None;;;;;;;;;;;;;000201;001;2023-10-06_09h41.18.571;REPSWITCH1_version2_list1;2022.2.4;143.9130532565852;
REPSWITCH1/PICTURE_19.png;pavo;type;gold;switch;1;T;1;1;1;2;Stim5_Set1;0;None;16;15;16;0;15;15;15;;;;;;;;;;;;;;;;;;;;;;;148.71994490013458;149.7967171999626;149.7967171999626;149.7967171999626;149.7967171999626;149.7967171999626;149.7967171999626;149.7967171999626;149.7967171999626;['p', 'a', 'v', 'o'];0;[0.9925778000615537, 1.0725372999440879, 1.216750199906528, 1.4567579999566078];pavo;C:\2023\REPSWITCH21092023\REPSWITCH_excgange\REPSWITCH_excgange\data/000201_REPSWITCH1_version2_list1_2023-10-06_09h41.18.571_micRespv2l1_recorded\recording_micRespv2l1_2023-10-06_09h42.43.312.wav;152.82382349995896;None;152.82382349995896;152.82382349995896;152.82382349995896;152.82382349995896;152.82382349995896;152.82382349995896;153.32402830012143;;;;;;000201;001;2023-10-06_09h41.18.571;REPSWITCH1_version2_list1;2022.2.4;143.9130532565852;
REPSWITCH1/PICTURE_16.png;cazador;type;gold;nontarget;1;NT;1;1;1;2;Stim6_Set1;1;switch;17;16;17;0;16;16;16;;;;;;;;;;;;;;;;;;;;;;;153.32402830012143;154.4072497000452;154.4072497000452;154.4072497000452;154.4072497000452;154.4072497000452;154.4072497000452;154.4072497000452;154.4072497000452;['c', 'a', 'z', 'a', 'd', 'o'];0;[1.9980498999357224, 2.125876900041476, 2.398374400101602, 2.527366300113499, 2.8303722999989986, 2.9263854001183063];cazado;C:\2023\REPSWITCH21092023\REPSWITCH_excgange\REPSWITCH_excgange\data/000201_REPSWITCH1_version2_list1_2023-10-06_09h41.18.571_micRespv2l1_recorded\recording_micRespv2l1_2023-10-06_09h42.47.920.wav;157.44330550008453;None;157.44330550008453;157.44330550008453;157.44330550008453;157.44330550008453;157.44330550008453;157.44330550008453;;;;;;;000201;001;2023-10-06_09h41.18.571;REPSWITCH1_version2_list1;2022.2.4;143.9130532565852;
REPSWITCH1/PICTURE_16.png;cazador;type;gold;repeat;1;T;1;1;1;2;Stim6_Set1;0;None;18;17;18;0;17;17;17;;;;;;;;;;;;;;;;;;;;;;;157.94343670015223;159.1103251001332;159.1103251001332;159.1103251001332;159.1103251001332;159.1103251001332;159.1103251001332;159.1103251001332;159.1103251001332;['c', 'a', 'z', 'a', 'd', 'o', 'r'];0;[1.1188819999806583, 1.1988774999044836, 1.3588677998632193, 1.4549135998822749, 1.7912866999395192, 1.8551170998252928, 1.9670418999157846];cazador;C:\2023\REPSWITCH21092023\REPSWITCH_excgange\REPSWITCH_excgange\data/000201_REPSWITCH1_version2_list1_2023-10-06_09h41.18.571_micRespv2l1_recorded\recording_micRespv2l1_2023-10-06_09h42.52.624.wav;162.13724620011635;None;162.13724620011635;162.13724620011635;162.13724620011635;162.13724620011635;162.13724620011635;162.13724620011635;162.63758770003915;;;;;;000201;001;2023-10-06_09h41.18.571;REPSWITCH1_version2_list1;2022.2.4;143.9130532565852;
REPSWITCH1/PICTURE_498.png;taza;speak;darkblue;filler;2;F;1;1;1;2;Stim4_Set4;0;None;19;18;19;0;18;18;18;;;;;;;;;;;;;;;;;;;;;;;162.63758770003915;163.80427530012093;163.80427530012093;163.80427530012093;163.80427530012093;163.80427530012093;163.80427530012093;163.80427530012093;163.80427530012093;None;0;;;C:\2023\REPSWITCH21092023\REPSWITCH_excgange\REPSWITCH_excgange\data/000201_REPSWITCH1_version2_list1_2023-10-06_09h41.18.571_micRespv2l1_recorded\recording_micRespv2l1_2023-10-06_09h42.57.315.wav;166.8333293001633;None;166.8333293001633;166.8333293001633;166.8333293001633;166.8333293001633;166.8333293001633;166.8333293001633;;;;;;;000201;001;2023-10-06_09h41.18.571;REPSWITCH1_version2_list1;2022.2.4;143.9130532565852;
REPSWITCH1/PICTURE_48.png;bombero;type;gold;filler;1;F;1;1;1;2;Stim7_Set4;0;None;20;19;20;0;19;19;19;;;;;;;;;;;;;;;;;;;;;;;167.3335486999713;168.44483010005206;168.44483010005206;168.44483010005206;168.44483010005206;168.44483010005206;168.44483010005206;168.44483010005206;168.44483010005206;['b', 'o', 'm', 'b', 'e', 'r', 'o'];0;[1.2088213998358697, 1.5280241000000387, 1.7040515998378396, 1.992806099820882, 2.073830899782479, 2.2328374998178333, 2.328823999967426];bombero;C:\2023\REPSWITCH21092023\REPSWITCH_excgange\REPSWITCH_excgange\data/000201_REPSWITCH1_version2_list1_2023-10-06_09h41.18.571_micRespv2l1_recorded\recording_micRespv2l1_2023-10-06_09h43.01.959.wav;171.47354080015793;None;171.47354080015793;171.47354080015793;171.47354080015793;171.47354080015793;171.47354080015793;171.47354080015793;171.97277150000446;;;;;;000201;001;2023-10-06_09h41.18.571;REPSWITCH1_version2_list1;2022.2.4;143.9130532565852;
REPSWITCH1/PICTURE_142.png;vaso;type;gold;nontarget;1;NT;1;1;1;2;Stim7_Set1;1;repeat;21;20;21;0;20;20;20;;;;;;;;;;;;;;;;;;;;;;;171.97277150000446;173.07039790018462;173.07039790018462;173.07039790018462;173.07039790018462;173.07039790018462;173.07039790018462;173.07039790018462;173.07039790018462;['v', 'a', 's', 'o'];0;[1.495201600017026, 1.5591572001576424, 1.7191552000585943, 1.8632561000995338];vaso;C:\2023\REPSWITCH21092023\REPSWITCH_excgange\REPSWITCH_excgange\data/000201_REPSWITCH1_version2_list1_2023-10-06_09h41.18.571_micRespv2l1_recorded\recording_micRespv2l1_2023-10-06_09h43.06.584.wav;176.09724240005016;None;176.09724240005016;176.09724240005016;176.09724240005016;176.09724240005016;176.09724240005016;176.09724240005016;176.5978850000538;;;;;;000201;001;2023-10-06_09h41.18.571;REPSWITCH1_version2_list1;2022.2.4;143.9130532565852;
REPSWITCH1/PICTURE_142.png;vaso;type;gold;repeat;1;T;1;1;1;2;Stim7_Set1;0;None;22;21;22;0;21;21;21;;;;;;;;;;;;;;;;;;;;;;;176.5978850000538;177.63351480010897;177.63351480010897;177.63351480010897;177.63351480010897;177.63351480010897;177.63351480010897;177.63351480010897;177.63351480010897;['v', 'a', 's', 'o'];0;[0.8840754998382181, 0.9960735000204295, 1.1554047998506576, 1.26978259999305];vaso;C:\2023\REPSWITCH21092023\REPSWITCH_excgange\REPSWITCH_excgange\data/000201_REPSWITCH1_version2_list1_2023-10-06_09h41.18.571_micRespv2l1_recorded\recording_micRespv2l1_2023-10-06_09h43.11.138.wav;180.65468999999575;None;;;;;;;;;;;;;000201;001;2023-10-06_09h41.18.571;REPSWITCH1_version2_list1;2022.2.4;143.9130532565852;
REPSWITCH1/PICTURE_338.png;regalo;speak;darkblue;filler;2;F;1;1;1;2;Stim6_Set4;1;switch;23;22;23;0;22;22;22;;;;;;;;;;;;;;;;;;;;;;;181.1548250000924;182.26603180007078;182.26603180007078;182.26603180007078;182.26603180007078;182.26603180007078;182.26603180007078;182.26603180007078;182.26603180007078;None;0;;;C:\2023\REPSWITCH21092023\REPSWITCH_excgange\REPSWITCH_excgange\data/000201_REPSWITCH1_version2_list1_2023-10-06_09h41.18.571_micRespv2l1_recorded\recording_micRespv2l1_2023-10-06_09h43.15.780.wav;185.29332730011083;None;185.29332730011083;185.29332730011083;185.29332730011083;185.29332730011083;185.29332730011083;185.29332730011083;185.79339520004578;;;;;;000201;001;2023-10-06_09h41.18.571;REPSWITCH1_version2_list1;2022.2.4;143.9130532565852;
REPSWITCH1/PICTURE_728.png;pulpo;type;gold;filler;1;F;1;1;1;2;Stim8_Set4;1;switch;24;23;24;0;23;23;23;;;;;;;;;;;;;;;;;;;;;;;185.79339520004578;187.0583346001804;187.0583346001804;187.0583346001804;187.0583346001804;187.0583346001804;187.0583346001804;187.0583346001804;187.0583346001804;['p', 'u', 'l', 'p', 'o'];0;[0.9474951000884175, 1.2188279998954386, 1.5554824999999255, 1.6830941000953317, 1.827096600085497];pulpo;C:\2023\REPSWITCH21092023\REPSWITCH_excgange\REPSWITCH_excgange\data/000201_REPSWITCH1_version2_list1_2023-10-06_09h41.18.571_micRespv2l1_recorded\recording_micRespv2l1_2023-10-06_09h43.20.572.wav;190.08574410015717;None;190.08574410015717;190.08574410015717;190.08574410015717;190.08574410015717;190.08574410015717;190.08574410015717;190.5857158000581;;;;;;000201;001;2023-10-06_09h41.18.571;REPSWITCH1_version2_list1;2022.2.4;143.9130532565852;
REPSWITCH1/PICTURE_169.png;espalda;type;gold;nontarget;1;NT;1;1;1;2;Stim8_Set1;1;repeat;25;24;25;0;24;24;24;;;;;;;;;;;;;;;;;;;;;;;190.5857158000581;191.68411220004782;191.68411220004782;191.68411220004782;191.68411220004782;191.68411220004782;191.68411220004782;191.68411220004782;191.68411220004782;['e', 's', 'p', 'a', 'l', 'd', 'a'];0;[1.2649395999033004, 1.376922900089994, 1.4728975999169052, 1.552919999929145, 1.6489057999569923, 1.7769331999588758, 1.9529323000460863];espalda;C:\2023\REPSWITCH21092023\REPSWITCH_excgange\REPSWITCH_excgange\data/000201_REPSWITCH1_version2_list1_2023-10-06_09h41.18.571_micRespv2l1_recorded\recording_micRespv2l1_2023-10-06_09h43.25.188.wav;194.70502390014008;None;;;;;;;;;;;;;000201;001;2023-10-06_09h41.18.571;REPSWITCH1_version2_list1;2022.2.4;143.9130532565852;
REPSWITCH1/PICTURE_169.png;espalda;speak;darkblue;switch;2;T;1;1;1;2;Stim8_Set1;0;None;26;25;26;0;25;25;25;;;;;;;;;;;;;;;;;;;;;;;195.20527030015364;196.30961560015567;196.30961560015567;196.30961560015567;196.30961560015567;196.30961560015567;196.30961560015567;196.30961560015567;196.30961560015567;None;0;;;C:\2023\REPSWITCH21092023\REPSWITCH_excgange\REPSWITCH_excgange\data/000201_REPSWITCH1_version2_list1_2023-10-06_09h41.18.571_micRespv2l1_recorded\recording_micRespv2l1_2023-10-06_09h43.29.824.wav;199.34451210009865;None;199.34451210009865;199.34451210009865;199.34451210009865;199.34451210009865;199.34451210009865;199.34451210009865;;;;;;;000201;001;2023-10-06_09h41.18.571;REPSWITCH1_version2_list1;2022.2.4;143.9130532565852;
REPSWITCH1/PICTURE_178.png;puente;speak;darkblue;filler;2;F;2;1;1;2;Stim1_Set1;0;None;27;26;27;0;26;26;26;;;;;;;;;;;;;;;;;;;;;;;199.84454760001972;200.89350140001625;200.89350140001625;200.89350140001625;200.89350140001625;200.89350140001625;200.89350140001625;200.89350140001625;200.89350140001625;None;0;;;C:\2023\REPSWITCH21092023\REPSWITCH_excgange\REPSWITCH_excgange\data/000201_REPSWITCH1_version2_list1_2023-10-06_09h41.18.571_micRespv2l1_recorded\recording_micRespv2l1_2023-10-06_09h43.34.398.wav;203.92149840015918;None;;;;;;;;;;;;;000201;001;2023-10-06_09h41.18.571;REPSWITCH1_version2_list1;2022.2.4;143.9130532565852;
REPSWITCH1/PICTURE_175.png;pintor;type;gold;nontarget;1;NT;2;1;1;2;Stim1_Set2;1;switch;28;27;28;0;27;27;27;;;;;;;;;;;;;;;;;;;;;;;204.42157150013372;205.56769070005976;205.56769070005976;205.56769070005976;205.56769070005976;205.56769070005976;205.56769070005976;205.56769070005976;205.56769070005976;['p', 'i', 'n', 't', 'o', 'r'];0;[0.6300090998411179, 0.9338561999611557, 1.0616988998372108, 1.2536922998260707, 1.3336632999125868, 1.430710299871862];pintor;C:\2023\REPSWITCH21092023\REPSWITCH_excgange\REPSWITCH_excgange\data/000201_REPSWITCH1_version2_list1_2023-10-06_09h41.18.571_micRespv2l1_recorded\recording_micRespv2l1_2023-10-06_09h43.39.071.wav;208.58896080008708;None;;;;;;;;;;;;;000201;001;2023-10-06_09h41.18.571;REPSWITCH1_version2_list1;2022.2.4;143.9130532565852;
REPSWITCH1/PICTURE_175.png;pintor;type;gold;repeat;1;T;2;1;1;2;Stim1_Set2;0;None;29;28;29;0;28;28;28;;;;;;;;;;;;;;;;;;;;;;;209.08872170001268;210.18635029997677;210.18635029997677;210.18635029997677;210.18635029997677;210.18635029997677;210.18635029997677;210.18635029997677;210.18635029997677;['p', 'i', 'n', 't', 'o', 'r'];0;[1.0031407000496984, 1.210757200140506, 1.3707555001601577, 1.4827454001642764, 1.5947583001106977, 1.6907637000549585];pintor;C:\2023\REPSWITCH21092023\REPSWITCH_excgange\REPSWITCH_excgange\data/000201_REPSWITCH1_version2_list1_2023-10-06_09h41.18.571_micRespv2l1_recorded\recording_micRespv2l1_2023-10-06_09h43.43.691.wav;213.2075408999808;None;;;;;;;;;;;;;000201;001;2023-10-06_09h41.18.571;REPSWITCH1_version2_list1;2022.2.4;143.9130532565852;
REPSWITCH1/PICTURE_381.png;fresa;speak;darkblue;filler;2;F;2;1;1;2;Stim2_Set1;0;None;30;29;30;0;29;29;29;;;;;;;;;;;;;;;;;;;;;;;213.7073719999753;214.77727399999276;214.77727399999276;214.77727399999276;214.77727399999276;214.77727399999276;214.77727399999276;214.77727399999276;214.77727399999276;None;0;;;C:\2023\REPSWITCH21092023\REPSWITCH_excgange\REPSWITCH_excgange\data/000201_REPSWITCH1_version2_list1_2023-10-06_09h41.18.571_micRespv2l1_recorded\recording_micRespv2l1_2023-10-06_09h43.48.292.wav;217.80602600006387;None;217.80602600006387;217.80602600006387;217.80602600006387;217.80602600006387;217.80602600006387;217.80602600006387;218.3056246000342;;;;;;000201;001;2023-10-06_09h41.18.571;REPSWITCH1_version2_list1;2022.2.4;143.9130532565852;
REPSWITCH1/PICTURE_152.png;caracol;type;gold;nontarget;1;NT;2;1;1;2;Stim2_Set2;1;switch;31;30;31;0;30;30;30;;;;;;;;;;;;;;;;;;;;;;;218.3056246000342;219.41667390009388;219.41667390009388;219.41667390009388;219.41667390009388;219.41667390009388;219.41667390009388;219.41667390009388;219.41667390009388;['c', 'a', 'r', 'a', 'c', 'o', 'l'];0;[0.7967137000523508, 0.9247447999659926, 0.988700799876824, 1.1166962999850512, 1.1487028999254107, 1.4365596000570804, 1.5644916000310332];caracol;C:\2023\REPSWITCH21092023\REPSWITCH_excgange\REPSWITCH_excgange\data/000201_REPSWITCH1_version2_list1_2023-10-06_09h41.18.571_micRespv2l1_recorded\recording_micRespv2l1_2023-10-06_09h43.52.933.wav;222.45126450015232;None;222.45126450015232;222.45126450015232;222.45126450015232;222.45126450015232;222.45126450015232;222.45126450015232;;;;;;;000201;001;2023-10-06_09h41.18.571;REPSWITCH1_version2_list1;2022.2.4;143.9130532565852;
REPSWITCH1/PICTURE_152.png;caracol;type;gold;repeat;1;T;2;1;1;2;Stim2_Set2;0;None;32;31;32;0;31;31;31;;;;;;;;;;;;;;;;;;;;;;;222.95114980009384;224.0068216000218;224.0068216000218;224.0068216000218;224.0068216000218;224.0068216000218;224.0068216000218;224.0068216000218;224.0068216000218;['c', 'a', 'r', 'c', 'a', 'o', 'l'];0;[0.734171399846673, 0.8621133998967707, 0.8781544999219477, 1.0541509999893606, 1.0702178999781609, 1.438344500027597, 1.5823327999096364];carcaol;C:\2023\REPSWITCH21092023\REPSWITCH_excgange\REPSWITCH_excgange\data/000201_REPSWITCH1_version2_list1_2023-10-06_09h41.18.571_micRespv2l1_recorded\recording_micRespv2l1_2023-10-06_09h43.57.519.wav;227.03571219998412;None;227.03571219998412;227.03571219998412;227.03571219998412;227.03571219998412;227.03571219998412;227.03571219998412;;;;;;;000201;001;2023-10-06_09h41.18.571;REPSWITCH1_version2_list1;2022.2.4;143.9130532565852;
REPSWITCH1/PICTURE_128.png;muñeca;speak;darkblue;filler;2;F;2;1;1;2;Stim4_Set1;0;None;33;32;33;0;32;32;32;;;;;;;;;;;;;;;;;;;;;;;227.53586610010825;228.69598840014078;228.69598840014078;228.69598840014078;228.69598840014078;228.69598840014078;228.69598840014078;228.69598840014078;228.69598840014078;None;0;;;C:\2023\REPSWITCH21092023\REPSWITCH_excgange\REPSWITCH_excgange\data/000201_REPSWITCH1_version2_list1_2023-10-06_09h41.18.571_micRespv2l1_recorded\recording_micRespv2l1_2023-10-06_09h44.02.200.wav;231.71678100014105;None;;;;;;;;;;;;;000201;001;2023-10-06_09h41.18.571;REPSWITCH1_version2_list1;2022.2.4;143.9130532565852;
REPSWITCH1/PICTURE_264.png;mano;type;gold;nontarget;1;NT;2;1;1;2;Stim3_Set2;0;None;34;33;34;0;33;33;33;;;;;;;;;;;;;;;;;;;;;;;232.2170290001668;233.2726911001373;233.2726911001373;233.2726911001373;233.2726911001373;233.2726911001373;233.2726911001373;233.2726911001373;233.2726911001373;['m', 'a', 'n', 'o'];0;[0.9403638001531363, 1.0041972000617534, 1.116159399971366, 1.1655697000678629];mano;C:\2023\REPSWITCH21092023\REPSWITCH_excgange\REPSWITCH_excgange\data/000201_REPSWITCH1_version2_list1_2023-10-06_09h41.18.571_micRespv2l1_recorded\recording_micRespv2l1_2023-10-06_09h44.06.778.wav;236.29400740005076;None;;;;;;;;;;;;;000201;001;2023-10-06_09h41.18.571;REPSWITCH1_version2_list1;2022.2.4;143.9130532565852;
REPSWITCH1/PICTURE_264.png;mano;speak;darkblue;switch;2;T;2;1;1;2;Stim3_Set2;0;None;35;34;35;0;34;34;34;;;;;;;;;;;;;;;;;;;;;;;236.79402010003105;237.8636927001644;237.8636927001644;237.8636927001644;237.8636927001644;237.8636927001644;237.8636927001644;237.8636927001644;237.8636927001644;None;0;;;C:\2023\REPSWITCH21092023\REPSWITCH_excgange\REPSWITCH_excgange\data/000201_REPSWITCH1_version2_list1_2023-10-06_09h41.18.571_micRespv2l1_recorded\recording_micRespv2l1_2023-10-06_09h44.11.378.wav;240.8908866001293;None;240.8908866001293;240.8908866001293;240.8908866001293;240.8908866001293;240.8908866001293;240.8908866001293;241.39227479998954;;;;;;000201;001;2023-10-06_09h41.18.571;REPSWITCH1_version2_list1;2022.2.4;143.9130532565852;
REPSWITCH1/PICTURE_517.png;cuerda;speak;darkblue;nontarget;2;NT;2;1;1;2;Stim4_Set2;1;repeat;36;35;36;0;35;35;35;;;;;;;;;;;;;;;;;;;;;;;241.39227479998954;242.42663410003297;242.42663410003297;242.42663410003297;242.42663410003297;242.42663410003297;242.42663410003297;242.42663410003297;242.42663410003297;None;0;;;C:\2023\REPSWITCH21092023\REPSWITCH_excgange\REPSWITCH_excgange\data/000201_REPSWITCH1_version2_list1_2023-10-06_09h41.18.571_micRespv2l1_recorded\recording_micRespv2l1_2023-10-06_09h44.15.941.wav;245.45490800007246;None;245.45490800007246;245.45490800007246;245.45490800007246;245.45490800007246;245.45490800007246;245.45490800007246;245.9551045000553;;;;;;000201;001;2023-10-06_09h41.18.571;REPSWITCH1_version2_list1;2022.2.4;143.9130532565852;
REPSWITCH1/PICTURE_517.png;cuerda;type;gold;switch;1;T;2;1;1;2;Stim4_Set2;0;None;37;36;37;0;36;36;36;;;;;;;;;;;;;;;;;;;;;;;245.9551045000553;246.98974340013228;246.98974340013228;246.98974340013228;246.98974340013228;246.98974340013228;246.98974340013228;246.98974340013228;246.98974340013228;['c', 'u', 'e', 'r', 'd', 'a'];0;[0.9357840998563915, 1.0797814999241382, 1.1757777000311762, 1.303348699817434, 1.431507800007239, 1.495060599874705];cuerda;C:\2023\REPSWITCH21092023\REPSWITCH_excgange\REPSWITCH_excgange\data/000201_REPSWITCH1_version2_list1_2023-10-06_09h41.18.571_micRespv2l1_recorded\recording_micRespv2l1_2023-10-06_09h44.20.494.wav;250.01094870013185;None;;;;;;;;;;;;;000201;001;2023-10-06_09h41.18.571;REPSWITCH1_version2_list1;2022.2.4;143.9130532565852;
REPSWITCH1/PICTURE_135.png;traje;type;gold;filler;1;F;2;1;1;2;Stim3_Set1;0;None;38;37;38;0;37;37;37;;;;;;;;;;;;;;;;;;;;;;;250.51107570016757;251.60844290000387;251.60844290000387;251.60844290000387;251.60844290000387;251.60844290000387;251.60844290000387;251.60844290000387;251.60844290000387;['t', 'r', 'a', 'j', 'h', 'e'];0;[1.1164369001053274, 1.2604318000376225, 1.3244672000873834, 1.5644732001237571, 1.5964621000457555, 1.6764174001291394];trajhe;C:\2023\REPSWITCH21092023\REPSWITCH_excgange\REPSWITCH_excgange\data/000201_REPSWITCH1_version2_list1_2023-10-06_09h41.18.571_micRespv2l1_recorded\recording_micRespv2l1_2023-10-06_09h44.25.122.wav;254.63680019997992;None;254.63680019997992;254.63680019997992;254.63680019997992;254.63680019997992;254.63680019997992;254.63680019997992;255.13668470014818;;;;;;000201;001;2023-10-06_09h41.18.571;REPSWITCH1_version2_list1;2022.2.4;143.9130532565852;
REPSWITCH1/PICTURE_30.png;granja;type;gold;nontarget;1;NT;2;1;1;2;Stim5_Set2;1;repeat;39;38;39;0;38;38;38;;;;;;;;;;;;;;;;;;;;;;;255.13668470014818;256.15073540015146;256.15073540015146;256.15073540015146;256.15073540015146;256.15073540015146;256.15073540015146;256.15073540015146;256.15073540015146;['g', 'r', 'a', 'n', 'j', 'a'];0;[1.0228646998293698, 1.2148454999551177, 1.3108752998523414, 1.7588789998553693, 1.8862640999723226, 1.950230399845168];granja;C:\2023\REPSWITCH21092023\REPSWITCH_excgange\REPSWITCH_excgange\data/000201_REPSWITCH1_version2_list1_2023-10-06_09h41.18.571_micRespv2l1_recorded\recording_micRespv2l1_2023-10-06_09h44.29.666.wav;259.17815700010397;None;259.17815700010397;259.17815700010397;259.17815700010397;259.17815700010397;259.17815700010397;259.17815700010397;259.6779820001684;;;;;;000201;001;2023-10-06_09h41.18.571;REPSWITCH1_version2_list1;2022.2.4;143.9130532565852;
REPSWITCH1/PICTURE_30.png;granja;speak;darkblue;switch;2;T;2;1;1;2;Stim5_Set2;0;None;40;39;40;0;39;39;39;;;;;;;;;;;;;;;;;;;;;;;259.6779820001684;260.7764677000232;260.7764677000232;260.7764677000232;260.7764677000232;260.7764677000232;260.7764677000232;260.7764677000232;260.7764677000232;None;0;;;C:\2023\REPSWITCH21092023\REPSWITCH_excgange\REPSWITCH_excgange\data/000201_REPSWITCH1_version2_list1_2023-10-06_09h41.18.571_micRespv2l1_recorded\recording_micRespv2l1_2023-10-06_09h44.34.281.wav;263.7973490001168;None;;;;;;;;;;;;;000201;001;2023-10-06_09h41.18.571;REPSWITCH1_version2_list1;2022.2.4;143.9130532565852;
REPSWITCH1/PICTURE_142.png;vaso;type;gold;filler;1;F;2;1;1;2;Stim7_Set1;0;None;41;40;41;0;40;40;40;;;;;;;;;;;;;;;;;;;;;;;264.2978476001881;265.37416580016725;265.37416580016725;265.37416580016725;265.37416580016725;265.37416580016725;265.37416580016725;265.37416580016725;265.37416580016725;['v', 'a', 's', 'o'];0;[0.6953066999558359, 0.7913046998437494, 1.3826628997921944, 1.5106887998990715];vaso;C:\2023\REPSWITCH21092023\REPSWITCH_excgange\REPSWITCH_excgange\data/000201_REPSWITCH1_version2_list1_2023-10-06_09h41.18.571_micRespv2l1_recorded\recording_micRespv2l1_2023-10-06_09h44.38.889.wav;268.4013062999584;None;268.4013062999584;268.4013062999584;268.4013062999584;268.4013062999584;268.4013062999584;268.4013062999584;268.90157960006036;;;;;;000201;001;2023-10-06_09h41.18.571;REPSWITCH1_version2_list1;2022.2.4;143.9130532565852;
REPSWITCH1/PICTURE_19.png;pavo;speak;darkblue;filler;2;F;2;1;1;2;Stim5_Set1;1;switch;42;41;42;0;41;41;41;;;;;;;;;;;;;;;;;;;;;;;268.90157960006036;269.98482330003753;269.98482330003753;269.98482330003753;269.98482330003753;269.98482330003753;269.98482330003753;269.98482330003753;269.98482330003753;None;0;;;C:\2023\REPSWITCH21092023\REPSWITCH_excgange\REPSWITCH_excgange\data/000201_REPSWITCH1_version2_list1_2023-10-06_09h41.18.571_micRespv2l1_recorded\recording_micRespv2l1_2023-10-06_09h44.43.496.wav;273.01395280007273;None;273.01395280007273;273.01395280007273;273.01395280007273;273.01395280007273;273.01395280007273;273.01395280007273;;;;;;;000201;001;2023-10-06_09h41.18.571;REPSWITCH1_version2_list1;2022.2.4;143.9130532565852;
REPSWITCH1/PICTURE_552.png;manzana;speak;darkblue;nontarget;2;NT;2;1;1;2;Stim6_Set2;1;repeat;43;42;43;0;42;42;42;;;;;;;;;;;;;;;;;;;;;;;273.51449010008946;274.604772800114;274.604772800114;274.604772800114;274.604772800114;274.604772800114;274.604772800114;274.604772800114;274.604772800114;None;0;;;C:\2023\REPSWITCH21092023\REPSWITCH_excgange\REPSWITCH_excgange\data/000201_REPSWITCH1_version2_list1_2023-10-06_09h41.18.571_micRespv2l1_recorded\recording_micRespv2l1_2023-10-06_09h44.48.119.wav;277.6316649999935;None;277.6316649999935;277.6316649999935;277.6316649999935;277.6316649999935;277.6316649999935;277.6316649999935;278.1319290001411;;;;;;000201;001;2023-10-06_09h41.18.571;REPSWITCH1_version2_list1;2022.2.4;143.9130532565852;
REPSWITCH1/PICTURE_552.png;manzana;speak;darkblue;repeat;2;T;2;1;1;2;Stim6_Set2;0;None;44;43;44;0;43;43;43;;;;;;;;;;;;;;;;;;;;;;;278.1319290001411;279.152786700055;279.152786700055;279.152786700055;279.152786700055;279.152786700055;279.152786700055;279.152786700055;279.152786700055;None;0;;;C:\2023\REPSWITCH21092023\REPSWITCH_excgange\REPSWITCH_excgange\data/000201_REPSWITCH1_version2_list1_2023-10-06_09h41.18.571_micRespv2l1_recorded\recording_micRespv2l1_2023-10-06_09h44.52.664.wav;282.18169250013307;None;282.18169250013307;282.18169250013307;282.18169250013307;282.18169250013307;282.18169250013307;282.18169250013307;;;;;;;000201;001;2023-10-06_09h41.18.571;REPSWITCH1_version2_list1;2022.2.4;143.9130532565852;
REPSWITCH1/PICTURE_16.png;cazador;type;gold;filler;1;F;2;1;1;2;Stim6_Set1;0;None;45;44;45;0;44;44;44;;;;;;;;;;;;;;;;;;;;;;;282.68176090018824;283.84188970015384;283.84188970015384;283.84188970015384;283.84188970015384;283.84188970015384;283.84188970015384;283.84188970015384;283.84188970015384;['c', 'a', 'z', 'a', 'd', 'o', 'r'];0;[0.9949602000415325, 1.074953299947083, 1.2513095999602228, 1.3633056001272053, 1.6036114001180977, 1.7476322001311928, 1.8596425999421626];cazador;C:\2023\REPSWITCH21092023\REPSWITCH_excgange\REPSWITCH_excgange\data/000201_REPSWITCH1_version2_list1_2023-10-06_09h41.18.571_micRespv2l1_recorded\recording_micRespv2l1_2023-10-06_09h44.57.356.wav;286.8692352999933;None;286.8692352999933;286.8692352999933;286.8692352999933;286.8692352999933;286.8692352999933;286.8692352999933;287.36926000006497;;;;;;000201;001;2023-10-06_09h41.18.571;REPSWITCH1_version2_list1;2022.2.4;143.9130532565852;
REPSWITCH1/PICTURE_446.png;cerdo;speak;darkblue;nontarget;2;NT;2;1;1;2;Stim7_Set2;1;switch;46;45;46;0;45;45;45;;;;;;;;;;;;;;;;;;;;;;;287.36926000006497;288.45969990012236;288.45969990012236;288.45969990012236;288.45969990012236;288.45969990012236;288.45969990012236;288.45969990012236;288.45969990012236;None;0;;;C:\2023\REPSWITCH21092023\REPSWITCH_excgange\REPSWITCH_excgange\data/000201_REPSWITCH1_version2_list1_2023-10-06_09h41.18.571_micRespv2l1_recorded\recording_micRespv2l1_2023-10-06_09h45.01.971.wav;291.48845910001546;None;291.48845910001546;291.48845910001546;291.48845910001546;291.48845910001546;291.48845910001546;291.48845910001546;;;;;;;000201;001;2023-10-06_09h41.18.571;REPSWITCH1_version2_list1;2022.2.4;143.9130532565852;
REPSWITCH1/PICTURE_446.png;cerdo;speak;darkblue;repeat;2;T;2;1;1;2;Stim7_Set2;0;None;47;46;47;0;46;46;46;;;;;;;;;;;;;;;;;;;;;;;291.98870670003816;293.0027231001295;293.0027231001295;293.0027231001295;293.0027231001295;293.0027231001295;293.0027231001295;293.0027231001295;293.0027231001295;None;0;;;C:\2023\REPSWITCH21092023\REPSWITCH_excgange\REPSWITCH_excgange\data/000201_REPSWITCH1_version2_list1_2023-10-06_09h41.18.571_micRespv2l1_recorded\recording_micRespv2l1_2023-10-06_09h45.06.517.wav;296.0299572001677;None;296.0299572001677;296.0299572001677;296.0299572001677;296.0299572001677;296.0299572001677;296.0299572001677;296.53017410007305;;;;;;000201;001;2023-10-06_09h41.18.571;REPSWITCH1_version2_list1;2022.2.4;143.9130532565852;
REPSWITCH1/PICTURE_590.png;escoba;type;gold;filler;1;F;2;1;1;2;Extra3;0;None;48;47;48;0;47;47;47;;;;;;;;;;;;;;;;;;;;;;;296.53017410007305;297.6065805000253;297.6065805000253;297.6065805000253;297.6065805000253;297.6065805000253;297.6065805000253;297.6065805000253;297.6065805000253;['e', 's', 'c', 'o', 'b', 'a'];0;[0.9905937998555601, 1.1986533999443054, 1.422984299948439, 1.5349739999510348, 1.7107209998648614, 1.7906958998646587];escoba;C:\2023\REPSWITCH21092023\REPSWITCH_excgange\REPSWITCH_excgange\data/000201_REPSWITCH1_version2_list1_2023-10-06_09h41.18.571_micRespv2l1_recorded\recording_micRespv2l1_2023-10-06_09h45.11.118.wav;300.63549120002426;None;300.63549120002426;300.63549120002426;300.63549120002426;300.63549120002426;300.63549120002426;300.63549120002426;;;;;;;000201;001;2023-10-06_09h41.18.571;REPSWITCH1_version2_list1;2022.2.4;143.9130532565852;
REPSWITCH1/PICTURE_169.png;espalda;speak;darkblue;filler;2;F;2;1;1;2;Stim8_Set1;0;None;49;48;49;0;48;48;48;;;;;;;;;;;;;;;;;;;;;;;301.1358440001495;302.1497840001248;302.1497840001248;302.1497840001248;302.1497840001248;302.1497840001248;302.1497840001248;302.1497840001248;302.1497840001248;None;0;;;C:\2023\REPSWITCH21092023\REPSWITCH_excgange\REPSWITCH_excgange\data/000201_REPSWITCH1_version2_list1_2023-10-06_09h41.18.571_micRespv2l1_recorded\recording_micRespv2l1_2023-10-06_09h45.15.654.wav;305.17103140009567;None;;;;;;;;;;;;;000201;001;2023-10-06_09h41.18.571;REPSWITCH1_version2_list1;2022.2.4;143.9130532565852;
REPSWITCH1/PICTURE_199.png;falda;speak;darkblue;nontarget;2;NT;2;1;1;2;Stim8_Set2;1;repeat;50;49;50;0;49;49;49;;;;;;;;;;;;;;;;;;;;;;;305.67087130015716;306.7684097001329;306.7684097001329;306.7684097001329;306.7684097001329;306.7684097001329;306.7684097001329;306.7684097001329;306.7684097001329;None;0;;;C:\2023\REPSWITCH21092023\REPSWITCH_excgange\REPSWITCH_excgange\data/000201_REPSWITCH1_version2_list1_2023-10-06_09h41.18.571_micRespv2l1_recorded\recording_micRespv2l1_2023-10-06_09h45.20.282.wav;309.79582990007475;None;309.79582990007475;309.79582990007475;309.79582990007475;309.79582990007475;309.79582990007475;309.79582990007475;310.29572020005435;;;;;;000201;001;2023-10-06_09h41.18.571;REPSWITCH1_version2_list1;2022.2.4;143.9130532565852;
REPSWITCH1/PICTURE_199.png;falda;type;gold;switch;1;T;2;1;1;2;Stim8_Set2;0;None;51;50;51;0;50;50;50;;;;;;;;;;;;;;;;;;;;;;;310.29572020005435;311.35183740011416;311.35183740011416;311.35183740011416;311.35183740011416;311.35183740011416;311.35183740011416;311.35183740011416;311.35183740011416;['f', 'a', 'l', 'd', 'a'];0;[0.9250572999008, 1.0054639999289066, 1.3248465999495238, 1.3888512998819351, 1.580886899959296];falda;C:\2023\REPSWITCH21092023\REPSWITCH_excgange\REPSWITCH_excgange\data/000201_REPSWITCH1_version2_list1_2023-10-06_09h41.18.571_micRespv2l1_recorded\recording_micRespv2l1_2023-10-06_09h45.24.863.wav;314.3804507001769;space;314.3804507001769;314.3804507001769;314.3804507001769;314.3804507001769;314.3804507001769;314.3804507001769;;314.88024610001594;314.88024610001594;2.469368200050667;;;000201;001;2023-10-06_09h41.18.571;REPSWITCH1_version2_list1;2022.2.4;143.9130532565852;
REPSWITCH1/PICTURE_576.png;guante;type;gold;nontarget;1;NT;3;1;1;2;Stim1_Set3;0;None;52;51;52;0;51;51;51;;;;;;;;;;;;;;;;;;;;;;;317.36021940014325;318.4575151000172;318.4575151000172;318.4575151000172;318.4575151000172;318.4575151000172;318.4575151000172;318.4575151000172;318.4575151000172;['g', 'u', 'a', 'n', 't', 'e'];0;[0.9231686000712216, 1.019162500044331, 1.1796848000958562, 1.2436947000678629, 1.4351810000371188, 1.4831072001252323];guante;C:\2023\REPSWITCH21092023\REPSWITCH_excgange\REPSWITCH_excgange\data/000201_REPSWITCH1_version2_list1_2023-10-06_09h41.18.571_micRespv2l1_recorded\recording_micRespv2l1_2023-10-06_09h45.31.962.wav;321.478481200058;None;;;;;;;;;;;;;000201;001;2023-10-06_09h41.18.571;REPSWITCH1_version2_list1;2022.2.4;143.9130532565852;
REPSWITCH1/PICTURE_576.png;guante;speak;darkblue;switch;2;T;3;1;1;2;Stim1_Set3;0;None;53;52;53;0;52;52;52;;;;;;;;;;;;;;;;;;;;;;;321.97911700000986;323.02060930011794;323.02060930011794;323.02060930011794;323.02060930011794;323.02060930011794;323.02060930011794;323.02060930011794;323.02060930011794;None;0;;;C:\2023\REPSWITCH21092023\REPSWITCH_excgange\REPSWITCH_excgange\data/000201_REPSWITCH1_version2_list1_2023-10-06_09h41.18.571_micRespv2l1_recorded\recording_micRespv2l1_2023-10-06_09h45.36.534.wav;326.04794270009734;None;326.04794270009734;326.04794270009734;326.04794270009734;326.04794270009734;326.04794270009734;326.04794270009734;326.54869920015335;;;;;;000201;001;2023-10-06_09h41.18.571;REPSWITCH1_version2_list1;2022.2.4;143.9130532565852;
REPSWITCH1/PICTURE_646.png;tronco;speak;darkblue;filler;2;F;3;1;1;2;Extra4;0;None;54;53;54;0;53;53;53;;;;;;;;;;;;;;;;;;;;;;;326.54869920015335;327.71565679996274;327.71565679996274;327.71565679996274;327.71565679996274;327.71565679996274;327.71565679996274;327.71565679996274;327.71565679996274;None;0;;;C:\2023\REPSWITCH21092023\REPSWITCH_excgange\REPSWITCH_excgange\data/000201_REPSWITCH1_version2_list1_2023-10-06_09h41.18.571_micRespv2l1_recorded\recording_micRespv2l1_2023-10-06_09h45.41.230.wav;330.74272370012477;None;330.74272370012477;330.74272370012477;330.74272370012477;330.74272370012477;330.74272370012477;330.74272370012477;331.24303760007024;;;;;;000201;001;2023-10-06_09h41.18.571;REPSWITCH1_version2_list1;2022.2.4;143.9130532565852;
REPSWITCH1/PICTURE_610.png;miel;speak;darkblue;nontarget;2;NT;3;1;1;2;Stim2_Set3;1;repeat;55;54;55;0;54;54;54;;;;;;;;;;;;;;;;;;;;;;;331.24303760007024;332.2777893000748;332.2777893000748;332.2777893000748;332.2777893000748;332.2777893000748;332.2777893000748;332.2777893000748;332.2777893000748;None;0;;;C:\2023\REPSWITCH21092023\REPSWITCH_excgange\REPSWITCH_excgange\data/000201_REPSWITCH1_version2_list1_2023-10-06_09h41.18.571_micRespv2l1_recorded\recording_micRespv2l1_2023-10-06_09h45.45.789.wav;335.30667389999144;None;335.30667389999144;335.30667389999144;335.30667389999144;335.30667389999144;335.30667389999144;335.30667389999144;;;;;;;000201;001;2023-10-06_09h41.18.571;REPSWITCH1_version2_list1;2022.2.4;143.9130532565852;
REPSWITCH1/PICTURE_610.png;miel;type;gold;switch;1;T;3;1;1;2;Stim2_Set3;0;None;56;55;56;0;55;55;55;;;;;;;;;;;;;;;;;;;;;;;335.8069204001222;336.9667483000085;336.9667483000085;336.9667483000085;336.9667483000085;336.9667483000085;336.9667483000085;336.9667483000085;336.9667483000085;['m', 'i', 'e', 'l'];0;[0.638190200086683, 0.7981402000878006, 0.8941691000945866, 1.054176399949938];miel;C:\2023\REPSWITCH21092023\REPSWITCH_excgange\REPSWITCH_excgange\data/000201_REPSWITCH1_version2_list1_2023-10-06_09h41.18.571_micRespv2l1_recorded\recording_micRespv2l1_2023-10-06_09h45.50.471.wav;339.98783930018544;None;;;;;;;;;;;;;000201;001;2023-10-06_09h41.18.571;REPSWITCH1_version2_list1;2022.2.4;143.9130532565852;
REPSWITCH1/PICTURE_175.png;pintor;type;gold;filler;1;F;3;1;1;2;Stim1_Set2;1;repeat;57;56;57;0;56;56;56;;;;;;;;;;;;;;;;;;;;;;;340.4879004000686;341.5923693999648;341.5923693999648;341.5923693999648;341.5923693999648;341.5923693999648;341.5923693999648;341.5923693999648;341.5923693999648;['p', 'i', 'n', 't', 'o', 'r'];0;[0.7968468999024481, 1.1006205999292433, 1.2286588998977095, 1.340331600047648, 1.4367370000109076, 1.5647875000722706];pintor;C:\2023\REPSWITCH21092023\REPSWITCH_excgange\REPSWITCH_excgange\data/000201_REPSWITCH1_version2_list1_2023-10-06_09h41.18.571_micRespv2l1_recorded\recording_micRespv2l1_2023-10-06_09h45.55.107.wav;344.6198319999967;None;344.6198319999967;344.6198319999967;344.6198319999967;344.6198319999967;344.6198319999967;344.6198319999967;345.119708500104;;;;;;000201;001;2023-10-06_09h41.18.571;REPSWITCH1_version2_list1;2022.2.4;143.9130532565852;
REPSWITCH1/PICTURE_242.png;cartero;type;gold;nontarget;1;NT;3;1;1;2;Stim3_Set3;1;repeat;58;57;58;0;57;57;57;;;;;;;;;;;;;;;;;;;;;;;345.119708500104;346.18200740008615;346.18200740008615;346.18200740008615;346.18200740008615;346.18200740008615;346.18200740008615;346.18200740008615;346.18200740008615;['c', 'a', 'r', 't', 'e', 'r', 'o'];0;[0.9267496999818832, 1.0237531999591738, 1.1195069998502731, 1.2315380999352783, 1.3435356998816133, 1.4715238998178393, 1.5679074998479337];cartero;C:\2023\REPSWITCH21092023\REPSWITCH_excgange\REPSWITCH_excgange\data/000201_REPSWITCH1_version2_list1_2023-10-06_09h41.18.571_micRespv2l1_recorded\recording_micRespv2l1_2023-10-06_09h45.59.694.wav;349.2113865001593;None;349.2113865001593;349.2113865001593;349.2113865001593;349.2113865001593;349.2113865001593;349.2113865001593;;;;;;;000201;001;2023-10-06_09h41.18.571;REPSWITCH1_version2_list1;2022.2.4;143.9130532565852;
REPSWITCH1/PICTURE_242.png;cartero;speak;darkblue;switch;2;T;3;1;1;2;Stim3_Set3;0;None;59;58;59;0;58;58;58;;;;;;;;;;;;;;;;;;;;;;;349.7114238999784;350.8228639001027;350.8228639001027;350.8228639001027;350.8228639001027;350.8228639001027;350.8228639001027;350.8228639001027;350.8228639001027;None;0;;;C:\2023\REPSWITCH21092023\REPSWITCH_excgange\REPSWITCH_excgange\data/000201_REPSWITCH1_version2_list1_2023-10-06_09h41.18.571_micRespv2l1_recorded\recording_micRespv2l1_2023-10-06_09h46.04.327.wav;353.8438179001678;None;;;;;;;;;;;;;000201;001;2023-10-06_09h41.18.571;REPSWITCH1_version2_list1;2022.2.4;143.9130532565852;
REPSWITCH1/PICTURE_152.png;caracol;speak;darkblue;filler;2;F;3;1;1;2;Stim2_Set2;0;None;60;59;60;0;59;59;59;;;;;;;;;;;;;;;;;;;;;;;354.34388409997337;355.4622206001077;355.4622206001077;355.4622206001077;355.4622206001077;355.4622206001077;355.4622206001077;355.4622206001077;355.4622206001077;None;0;;;C:\2023\REPSWITCH21092023\REPSWITCH_excgange\REPSWITCH_excgange\data/000201_REPSWITCH1_version2_list1_2023-10-06_09h41.18.571_micRespv2l1_recorded\recording_micRespv2l1_2023-10-06_09h46.08.976.wav;358.489790600026;None;358.489790600026;358.489790600026;358.489790600026;358.489790600026;358.489790600026;358.489790600026;358.9904980000574;;;;;;000201;001;2023-10-06_09h41.18.571;REPSWITCH1_version2_list1;2022.2.4;143.9130532565852;
REPSWITCH1/PICTURE_517.png;cuerda;type;gold;filler;1;F;3;1;1;2;Stim4_Set2;0;None;61;60;61;0;60;60;60;;;;;;;;;;;;;;;;;;;;;;;358.9904980000574;360.05331640015356;360.05331640015356;360.05331640015356;360.05331640015356;360.05331640015356;360.05331640015356;360.05331640015356;360.05331640015356;['v', 'u', 'e', 'r', 'd', 'a'];0;[0.60761579987593, 1.2159583999309689, 1.4249143998604268, 1.5839521000161767, 1.7919151999522, 1.9999410000164062];vuerda;C:\2023\REPSWITCH21092023\REPSWITCH_excgange\REPSWITCH_excgange\data/000201_REPSWITCH1_version2_list1_2023-10-06_09h41.18.571_micRespv2l1_recorded\recording_micRespv2l1_2023-10-06_09h46.13.567.wav;363.08066070009954;None;363.08066070009954;363.08066070009954;363.08066070009954;363.08066070009954;363.08066070009954;363.08066070009954;363.5813682000153;;;;;;000201;001;2023-10-06_09h41.18.571;REPSWITCH1_version2_list1;2022.2.4;143.9130532565852;
REPSWITCH1/PICTURE_235.png;aguja;speak;darkblue;nontarget;2;NT;3;1;1;2;Stim4_Set3;1;switch;62;61;62;0;61;61;61;;;;;;;;;;;;;;;;;;;;;;;363.5813682000153;364.6510430001654;364.6510430001654;364.6510430001654;364.6510430001654;364.6510430001654;364.6510430001654;364.6510430001654;364.6510430001654;None;0;;;C:\2023\REPSWITCH21092023\REPSWITCH_excgange\REPSWITCH_excgange\data/000201_REPSWITCH1_version2_list1_2023-10-06_09h41.18.571_micRespv2l1_recorded\recording_micRespv2l1_2023-10-06_09h46.18.156.wav;367.6721320000943;None;;;;;;;;;;;;;000201;001;2023-10-06_09h41.18.571;REPSWITCH1_version2_list1;2022.2.4;143.9130532565852;
REPSWITCH1/PICTURE_235.png;aguja;speak;darkblue;repeat;2;T;3;1;1;2;Stim4_Set3;0;None;63;62;63;0;62;62;62;;;;;;;;;;;;;;;;;;;;;;;368.1720820001792;369.23490680009127;369.23490680009127;369.23490680009127;369.23490680009127;369.23490680009127;369.23490680009127;369.23490680009127;369.23490680009127;None;0;;;C:\2023\REPSWITCH21092023\REPSWITCH_excgange\REPSWITCH_excgange\data/000201_REPSWITCH1_version2_list1_2023-10-06_09h41.18.571_micRespv2l1_recorded\recording_micRespv2l1_2023-10-06_09h46.22.739.wav;372.25605150009505;None;;;;;;;;;;;;;000201;001;2023-10-06_09h41.18.571;REPSWITCH1_version2_list1;2022.2.4;143.9130532565852;
REPSWITCH1/PICTURE_30.png;granja;type;gold;filler;1;F;3;1;1;2;Stim5_Set2;0;None;64;63;64;0;63;63;63;;;;;;;;;;;;;;;;;;;;;;;372.75618320005015;373.88829939998686;373.88829939998686;373.88829939998686;373.88829939998686;373.88829939998686;373.88829939998686;373.88829939998686;373.88829939998686;['g', 'r', 'a', 'n', 'j', 'a'];0;[0.8687232001684606, 1.0287296001333743, 1.1257792999967933, 1.3488392001017928, 1.524841400096193, 1.6208350001834333];granja;C:\2023\REPSWITCH21092023\REPSWITCH_excgange\REPSWITCH_excgange\data/000201_REPSWITCH1_version2_list1_2023-10-06_09h41.18.571_micRespv2l1_recorded\recording_micRespv2l1_2023-10-06_09h46.27.403.wav;376.9154491999652;None;376.9154491999652;376.9154491999652;376.9154491999652;376.9154491999652;376.9154491999652;376.9154491999652;377.4157245999668;;;;;;000201;001;2023-10-06_09h41.18.571;REPSWITCH1_version2_list1;2022.2.4;143.9130532565852;
REPSWITCH1/PICTURE_552.png;manzana;speak;darkblue;filler;2;F;3;1;1;2;Stim6_Set2;1;switch;65;64;65;0;64;64;64;;;;;;;;;;;;;;;;;;;;;;;377.4157245999668;378.47097990009934;378.47097990009934;378.47097990009934;378.47097990009934;378.47097990009934;378.47097990009934;378.47097990009934;378.47097990009934;None;0;;;C:\2023\REPSWITCH21092023\REPSWITCH_excgange\REPSWITCH_excgange\data/000201_REPSWITCH1_version2_list1_2023-10-06_09h41.18.571_micRespv2l1_recorded\recording_micRespv2l1_2023-10-06_09h46.31.982.wav;381.5003594001755;None;381.5003594001755;381.5003594001755;381.5003594001755;381.5003594001755;381.5003594001755;381.5003594001755;;;;;;;000201;001;2023-10-06_09h41.18.571;REPSWITCH1_version2_list1;2022.2.4;143.9130532565852;
REPSWITCH1/PICTURE_35.png;oreja;speak;darkblue;nontarget;2;NT;3;1;1;2;Stim5_Set3;1;repeat;66;65;66;0;65;65;65;;;;;;;;;;;;;;;;;;;;;;;382.00035460013896;383.1465493000578;383.1465493000578;383.1465493000578;383.1465493000578;383.1465493000578;383.1465493000578;383.1465493000578;383.1465493000578;None;0;;;C:\2023\REPSWITCH21092023\REPSWITCH_excgange\REPSWITCH_excgange\data/000201_REPSWITCH1_version2_list1_2023-10-06_09h41.18.571_micRespv2l1_recorded\recording_micRespv2l1_2023-10-06_09h46.36.661.wav;386.18154610018246;None;386.18154610018246;386.18154610018246;386.18154610018246;386.18154610018246;386.18154610018246;386.18154610018246;;;;;;;000201;001;2023-10-06_09h41.18.571;REPSWITCH1_version2_list1;2022.2.4;143.9130532565852;
REPSWITCH1/PICTURE_35.png;oreja;speak;darkblue;repeat;2;T;3;1;1;2;Stim5_Set3;0;None;67;66;67;0;66;66;66;;;;;;;;;;;;;;;;;;;;;;;386.68143530003726;387.8970137001015;387.8970137001015;387.8970137001015;387.8970137001015;387.8970137001015;387.8970137001015;387.8970137001015;387.8970137001015;None;0;;;C:\2023\REPSWITCH21092023\REPSWITCH_excgange\REPSWITCH_excgange\data/000201_REPSWITCH1_version2_list1_2023-10-06_09h41.18.571_micRespv2l1_recorded\recording_micRespv2l1_2023-10-06_09h46.41.401.wav;390.91809130017646;None;;;;;;;;;;;;;000201;001;2023-10-06_09h41.18.571;REPSWITCH1_version2_list1;2022.2.4;143.9130532565852;
REPSWITCH1/PICTURE_673.png;tenedor;type;gold;filler;1;F;3;1;1;2;Extra5;0;None;68;67;68;0;67;67;67;;;;;;;;;;;;;;;;;;;;;;;391.4183509000577;392.4671227000654;392.4671227000654;392.4671227000654;392.4671227000654;392.4671227000654;392.4671227000654;392.4671227000654;392.4671227000654;['t', 'e', 'n', 'e', 'd', 'o', 'i', 'r'];0;[0.769430800108239, 0.8654442999977618, 0.9934626000467688, 1.0575266000814736, 1.2344446999486536, 1.3454215000383556, 1.361411300022155, 1.4414466000162065];tenedoir;C:\2023\REPSWITCH21092023\REPSWITCH_excgange\REPSWITCH_excgange\data/000201_REPSWITCH1_version2_list1_2023-10-06_09h41.18.571_micRespv2l1_recorded\recording_micRespv2l1_2023-10-06_09h46.45.971.wav;395.48813450010493;None;;;;;;;;;;;;;000201;001;2023-10-06_09h41.18.571;REPSWITCH1_version2_list1;2022.2.4;143.9130532565852;
REPSWITCH1/PICTURE_464.png;goma;speak;darkblue;nontarget;2;NT;3;1;1;2;Stim6_Set3;0;None;69;68;69;0;68;68;68;;;;;;;;;;;;;;;;;;;;;;;395.9883819001261;397.1068447001744;397.1068447001744;397.1068447001744;397.1068447001744;397.1068447001744;397.1068447001744;397.1068447001744;397.1068447001744;None;0;;;C:\2023\REPSWITCH21092023\REPSWITCH_excgange\REPSWITCH_excgange\data/000201_REPSWITCH1_version2_list1_2023-10-06_09h41.18.571_micRespv2l1_recorded\recording_micRespv2l1_2023-10-06_09h46.50.621.wav;400.1417640000582;None;400.1417640000582;400.1417640000582;400.1417640000582;400.1417640000582;400.1417640000582;400.1417640000582;;;;;;;000201;001;2023-10-06_09h41.18.571;REPSWITCH1_version2_list1;2022.2.4;143.9130532565852;
REPSWITCH1/PICTURE_464.png;goma;type;gold;switch;1;T;3;1;1;2;Stim6_Set3;0;None;70;69;70;0;69;69;69;;;;;;;;;;;;;;;;;;;;;;;400.64146240008995;401.73916680016555;401.73916680016555;401.73916680016555;401.73916680016555;401.73916680016555;401.73916680016555;401.73916680016555;401.73916680016555;['g', 'o', 'm', 'a'];0;[1.081832299940288, 1.1621528000105172, 1.3056501999963075, 1.3856465998105705];goma;C:\2023\REPSWITCH21092023\REPSWITCH_excgange\REPSWITCH_excgange\data/000201_REPSWITCH1_version2_list1_2023-10-06_09h41.18.571_micRespv2l1_recorded\recording_micRespv2l1_2023-10-06_09h46.55.243.wav;404.76055929996073;None;;;;;;;;;;;;;000201;001;2023-10-06_09h41.18.571;REPSWITCH1_version2_list1;2022.2.4;143.9130532565852;
REPSWITCH1/PICTURE_264.png;mano;speak;darkblue;filler;2;F;3;1;1;2;Stim3_Set2;0;None;71;70;71;0;70;70;70;;;;;;;;;;;;;;;;;;;;;;;405.2604412001092;406.3296083000023;406.3296083000023;406.3296083000023;406.3296083000023;406.3296083000023;406.3296083000023;406.3296083000023;406.3296083000023;None;0;;;C:\2023\REPSWITCH21092023\REPSWITCH_excgange\REPSWITCH_excgange\data/000201_REPSWITCH1_version2_list1_2023-10-06_09h41.18.571_micRespv2l1_recorded\recording_micRespv2l1_2023-10-06_09h46.59.835.wav;409.35105140018277;None;;;;;;;;;;;;;000201;001;2023-10-06_09h41.18.571;REPSWITCH1_version2_list1;2022.2.4;143.9130532565852;
REPSWITCH1/PICTURE_271.png;conejo;type;gold;nontarget;1;NT;3;1;1;2;Stim7_Set3;1;switch;72;71;72;0;71;71;71;;;;;;;;;;;;;;;;;;;;;;;409.8512101001106;410.87918859999627;410.87918859999627;410.87918859999627;410.87918859999627;410.87918859999627;410.87918859999627;410.87918859999627;410.87918859999627;['c', 'o', 'n', 'e', 'j', 'o'];0;[0.7900423998944461, 0.9020650000311434, 1.1740252000745386, 1.3180229999125004, 1.7343863998539746, 1.7813373999670148];conejo;C:\2023\REPSWITCH21092023\REPSWITCH_excgange\REPSWITCH_excgange\data/000201_REPSWITCH1_version2_list1_2023-10-06_09h41.18.571_micRespv2l1_recorded\recording_micRespv2l1_2023-10-06_09h47.04.394.wav;413.90644549997523;None;413.90644549997523;413.90644549997523;413.90644549997523;413.90644549997523;413.90644549997523;413.90644549997523;414.4066620999947;;;;;;000201;001;2023-10-06_09h41.18.571;REPSWITCH1_version2_list1;2022.2.4;143.9130532565852;
REPSWITCH1/PICTURE_271.png;conejo;type;gold;repeat;1;T;3;1;1;2;Stim7_Set3;0;None;73;72;73;0;72;72;72;;;;;;;;;;;;;;;;;;;;;;;414.4066620999947;415.5467690001242;415.5467690001242;415.5467690001242;415.5467690001242;415.5467690001242;415.5467690001242;415.5467690001242;415.5467690001242;['c', 'o', 'n', 'e', 'j', 'o'];0;[1.1297967999707907, 1.226823200006038, 1.4178160999435931, 1.530821899883449, 1.6897903999779373, 1.7698045000433922];conejo;C:\2023\REPSWITCH21092023\REPSWITCH_excgange\REPSWITCH_excgange\data/000201_REPSWITCH1_version2_list1_2023-10-06_09h41.18.571_micRespv2l1_recorded\recording_micRespv2l1_2023-10-06_09h47.09.052.wav;418.5675290999934;None;;;;;;;;;;;;;000201;001;2023-10-06_09h41.18.571;REPSWITCH1_version2_list1;2022.2.4;143.9130532565852;
REPSWITCH1/PICTURE_446.png;cerdo;speak;darkblue;filler;2;F;3;1;1;2;Stim7_Set2;0;None;74;73;74;0;73;73;73;;;;;;;;;;;;;;;;;;;;;;;419.0676013000775;420.158145399997;420.158145399997;420.158145399997;420.158145399997;420.158145399997;420.158145399997;420.158145399997;420.158145399997;None;0;;;C:\2023\REPSWITCH21092023\REPSWITCH_excgange\REPSWITCH_excgange\data/000201_REPSWITCH1_version2_list1_2023-10-06_09h41.18.571_micRespv2l1_recorded\recording_micRespv2l1_2023-10-06_09h47.13.672.wav;423.18556590005755;None;423.18556590005755;423.18556590005755;423.18556590005755;423.18556590005755;423.18556590005755;423.18556590005755;423.68563419999555;;;;;;000201;001;2023-10-06_09h41.18.571;REPSWITCH1_version2_list1;2022.2.4;143.9130532565852;
REPSWITCH1/PICTURE_199.png;falda;type;gold;filler;1;F;3;1;1;2;Stim8_Set2;1;switch;75;74;75;0;74;74;74;;;;;;;;;;;;;;;;;;;;;;;423.68563419999555;424.7066016001627;424.7066016001627;424.7066016001627;424.7066016001627;424.7066016001627;424.7066016001627;424.7066016001627;424.7066016001627;['f', 'a', 'l', 'd', 'a'];0;[1.1545317000709474, 1.2826940999366343, 1.5388514001388103, 1.6348492000252008, 1.9068505000323057];falda;C:\2023\REPSWITCH21092023\REPSWITCH_excgange\REPSWITCH_excgange\data/000201_REPSWITCH1_version2_list1_2023-10-06_09h41.18.571_micRespv2l1_recorded\recording_micRespv2l1_2023-10-06_09h47.18.219.wav;427.73550399998203;None;427.73550399998203;427.73550399998203;427.73550399998203;427.73550399998203;427.73550399998203;427.73550399998203;;;;;;;000201;001;2023-10-06_09h41.18.571;REPSWITCH1_version2_list1;2022.2.4;143.9130532565852;
REPSWITCH1/PICTURE_320.png;iglesia;type;gold;nontarget;1;NT;3;1;1;2;Stim8_Set3;1;repeat;76;75;76;0;75;75;75;;;;;;;;;;;;;;;;;;;;;;;428.23564320011064;429.3330354001373;429.3330354001373;429.3330354001373;429.3330354001373;429.3330354001373;429.3330354001373;429.3330354001373;429.3330354001373;['i', 'g', 'l', 'e', 's', 'i', 'a'];0;[1.3280895999632776, 1.6800657999701798, 1.792283299844712, 1.9197686000261456, 2.1277550000231713, 2.207759900018573, 2.3037514998577535];iglesia;C:\2023\REPSWITCH21092023\REPSWITCH_excgange\REPSWITCH_excgange\data/000201_REPSWITCH1_version2_list1_2023-10-06_09h41.18.571_micRespv2l1_recorded\recording_micRespv2l1_2023-10-06_09h47.22.847.wav;432.36734550003894;None;432.36734550003894;432.36734550003894;432.36734550003894;432.36734550003894;432.36734550003894;432.36734550003894;;;;;;;000201;001;2023-10-06_09h41.18.571;REPSWITCH1_version2_list1;2022.2.4;143.9130532565852;
REPSWITCH1/PICTURE_320.png;iglesia;type;gold;repeat;1;T;3;1;1;2;Stim8_Set3;0;None;77;76;77;0;76;76;76;;;;;;;;;;;;;;;;;;;;;;;432.8674165001139;433.91010550013743;433.91010550013743;433.91010550013743;433.91010550013743;433.91010550013743;433.91010550013743;433.91010550013743;433.91010550013743;['i', 'g', 'l', 'e', 's', 'i', 'a'];0;[1.2946047999430448, 1.4545974999200553, 1.6466271998360753, 1.758699599886313, 1.9830724999774247, 2.063260499853641, 2.1751949000172317];iglesia;C:\2023\REPSWITCH21092023\REPSWITCH_excgange\REPSWITCH_excgange\data/000201_REPSWITCH1_version2_list1_2023-10-06_09h41.18.571_micRespv2l1_recorded\recording_micRespv2l1_2023-10-06_09h47.27.424.wav;436.9449371001683;None;436.9449371001683;436.9449371001683;436.9449371001683;436.9449371001683;436.9449371001683;436.9449371001683;;;;;;;000201;001;2023-10-06_09h41.18.571;REPSWITCH1_version2_list1;2022.2.4;143.9130532565852;
REPSWITCH1/PICTURE_576.png;guante;speak;darkblue;filler;2;F;4;1;1;2;Stim1_Set3;0;None;78;77;78;0;77;77;77;;;;;;;;;;;;;;;;;;;;;;;437.44516830006614;438.5704354001209;438.5704354001209;438.5704354001209;438.5704354001209;438.5704354001209;438.5704354001209;438.5704354001209;438.5704354001209;None;0;;;C:\2023\REPSWITCH21092023\REPSWITCH_excgange\REPSWITCH_excgange\data/000201_REPSWITCH1_version2_list1_2023-10-06_09h41.18.571_micRespv2l1_recorded\recording_micRespv2l1_2023-10-06_09h47.32.085.wav;441.60525630018674;None;441.60525630018674;441.60525630018674;441.60525630018674;441.60525630018674;441.60525630018674;441.60525630018674;;;;;;;000201;001;2023-10-06_09h41.18.571;REPSWITCH1_version2_list1;2022.2.4;143.9130532565852;
REPSWITCH1/PICTURE_319.png;vaca;type;gold;nontarget;1;NT;4;1;1;2;Stim1_Set4;1;switch;79;78;79;0;78;78;78;;;;;;;;;;;;;;;;;;;;;;;442.1055044999812;443.2236666001845;443.2236666001845;443.2236666001845;443.2236666001845;443.2236666001845;443.2236666001845;443.2236666001845;443.2236666001845;['v', 'a', 'c', 'a'];0;[0.8292620000429451, 0.877256500069052, 0.9422387999948114, 1.0212365998886526];vaca;C:\2023\REPSWITCH21092023\REPSWITCH_excgange\REPSWITCH_excgange\data/000201_REPSWITCH1_version2_list1_2023-10-06_09h41.18.571_micRespv2l1_recorded\recording_micRespv2l1_2023-10-06_09h47.36.738.wav;446.25123709999025;None;446.25123709999025;446.25123709999025;446.25123709999025;446.25123709999025;446.25123709999025;446.25123709999025;446.751938899979;;;;;;000201;001;2023-10-06_09h41.18.571;REPSWITCH1_version2_list1;2022.2.4;143.9130532565852;
REPSWITCH1/PICTURE_319.png;vaca;type;gold;repeat;1;T;4;1;1;2;Stim1_Set4;0;None;80;79;80;0;79;79;79;;;;;;;;;;;;;;;;;;;;;;;446.751938899979;447.88418669998646;447.88418669998646;447.88418669998646;447.88418669998646;447.88418669998646;447.88418669998646;447.88418669998646;447.88418669998646;['v', 'a', 'c', 'a'];0;[0.8407159999478608, 0.9047073998954147, 0.9847011000383645, 1.080700899939984];vaca;C:\2023\REPSWITCH21092023\REPSWITCH_excgange\REPSWITCH_excgange\data/000201_REPSWITCH1_version2_list1_2023-10-06_09h41.18.571_micRespv2l1_recorded\recording_micRespv2l1_2023-10-06_09h47.41.387.wav;450.90528609999456;None;;;;;;;;;;;;;000201;001;2023-10-06_09h41.18.571;REPSWITCH1_version2_list1;2022.2.4;143.9130532565852;
REPSWITCH1/PICTURE_719.png;baño;type;gold;nontarget;1;NT;4;1;1;2;Stim2_Set4;0;None;81;80;81;0;80;80;80;;;;;;;;;;;;;;;;;;;;;;;451.40531870000996;452.47491530003026;452.47491530003026;452.47491530003026;452.47491530003026;452.47491530003026;452.47491530003026;452.47491530003026;452.47491530003026;['b', 'a', 'ñ', 'o'];0;[0.8741457001306117, 0.9395353000145406, 1.3537701999302953, 1.5783715001307428];baño;C:\2023\REPSWITCH21092023\REPSWITCH_excgange\REPSWITCH_excgange\data/000201_REPSWITCH1_version2_list1_2023-10-06_09h41.18.571_micRespv2l1_recorded\recording_micRespv2l1_2023-10-06_09h47.45.979.wav;455.49583730008453;None;;;;;;;;;;;;;000201;001;2023-10-06_09h41.18.571;REPSWITCH1_version2_list1;2022.2.4;143.9130532565852;
REPSWITCH1/PICTURE_719.png;baño;speak;darkblue;switch;2;T;4;1;1;2;Stim2_Set4;0;None;82;81;82;0;81;81;81;;;;;;;;;;;;;;;;;;;;;;;455.9963291999884;457.0588628000114;457.0588628000114;457.0588628000114;457.0588628000114;457.0588628000114;457.0588628000114;457.0588628000114;457.0588628000114;None;0;;;C:\2023\REPSWITCH21092023\REPSWITCH_excgange\REPSWITCH_excgange\data/000201_REPSWITCH1_version2_list1_2023-10-06_09h41.18.571_micRespv2l1_recorded\recording_micRespv2l1_2023-10-06_09h47.50.574.wav;460.09392480016686;None;460.09392480016686;460.09392480016686;460.09392480016686;460.09392480016686;460.09392480016686;460.09392480016686;;;;;;;000201;001;2023-10-06_09h41.18.571;REPSWITCH1_version2_list1;2022.2.4;143.9130532565852;
REPSWITCH1/PICTURE_242.png;cartero;speak;darkblue;filler;2;F;4;1;1;2;Stim3_Set3;1;repeat;83;82;83;0;82;82;82;;;;;;;;;;;;;;;;;;;;;;;460.59414140018634;461.6288397000171;461.6288397000171;461.6288397000171;461.6288397000171;461.6288397000171;461.6288397000171;461.6288397000171;461.6288397000171;None;0;;;C:\2023\REPSWITCH21092023\REPSWITCH_excgange\REPSWITCH_excgange\data/000201_REPSWITCH1_version2_list1_2023-10-06_09h41.18.571_micRespv2l1_recorded\recording_micRespv2l1_2023-10-06_09h47.55.132.wav;464.6500161001459;None;;;;;;;;;;;;;000201;001;2023-10-06_09h41.18.571;REPSWITCH1_version2_list1;2022.2.4;143.9130532565852;
REPSWITCH1/PICTURE_610.png;miel;type;gold;filler;1;F;4;1;1;2;Stim2_Set3;0;None;84;83;84;0;83;83;83;;;;;;;;;;;;;;;;;;;;;;;465.1501240001526;466.29612509999424;466.29612509999424;466.29612509999424;466.29612509999424;466.29612509999424;466.29612509999424;466.29612509999424;466.29612509999424;['m', 'i', 'e', 'l'];0;[1.0371596000622958, 1.117161300033331, 1.3411570000462234, 1.4691552000585943];miel;C:\2023\REPSWITCH21092023\REPSWITCH_excgange\REPSWITCH_excgange\data/000201_REPSWITCH1_version2_list1_2023-10-06_09h41.18.571_micRespv2l1_recorded\recording_micRespv2l1_2023-10-06_09h47.59.800.wav;469.31739010009915;None;;;;;;;;;;;;;000201;001;2023-10-06_09h41.18.571;REPSWITCH1_version2_list1;2022.2.4;143.9130532565852;
REPSWITCH1/PICTURE_8.png;pierna;speak;darkblue;nontarget;2;NT;4;1;1;2;Stim3_Set4;1;switch;85;84;85;0;84;84;84;;;;;;;;;;;;;;;;;;;;;;;469.81745630013756;470.8661158999894;470.8661158999894;470.8661158999894;470.8661158999894;470.8661158999894;470.8661158999894;470.8661158999894;470.8661158999894;None;0;;;C:\2023\REPSWITCH21092023\REPSWITCH_excgange\REPSWITCH_excgange\data/000201_REPSWITCH1_version2_list1_2023-10-06_09h41.18.571_micRespv2l1_recorded\recording_micRespv2l1_2023-10-06_09h48.04.370.wav;473.8872489000205;None;;;;;;;;;;;;;000201;001;2023-10-06_09h41.18.571;REPSWITCH1_version2_list1;2022.2.4;143.9130532565852;
REPSWITCH1/PICTURE_8.png;pierna;speak;darkblue;repeat;2;T;4;1;1;2;Stim3_Set4;0;None;86;85;86;0;85;85;85;;;;;;;;;;;;;;;;;;;;;;;474.3874768000096;475.45010500005446;475.45010500005446;475.45010500005446;475.45010500005446;475.45010500005446;475.45010500005446;475.45010500005446;475.45010500005446;None;0;;;C:\2023\REPSWITCH21092023\REPSWITCH_excgange\REPSWITCH_excgange\data/000201_REPSWITCH1_version2_list1_2023-10-06_09h41.18.571_micRespv2l1_recorded\recording_micRespv2l1_2023-10-06_09h48.08.955.wav;478.4713497001212;None;;;;;;;;;;;;;000201;001;2023-10-06_09h41.18.571;REPSWITCH1_version2_list1;2022.2.4;143.9130532565852;
REPSWITCH1/PICTURE_498.png;taza;speak;darkblue;nontarget;2;NT;4;1;1;2;Stim4_Set4;1;repeat;87;86;87;0;86;86;86;;;;;;;;;;;;;;;;;;;;;;;478.9713312999811;479.98552260012366;479.98552260012366;479.98552260012366;479.98552260012366;479.98552260012366;479.98552260012366;479.98552260012366;479.98552260012366;None;0;;;C:\2023\REPSWITCH21092023\REPSWITCH_excgange\REPSWITCH_excgange\data/000201_REPSWITCH1_version2_list1_2023-10-06_09h41.18.571_micRespv2l1_recorded\recording_micRespv2l1_2023-10-06_09h48.13.490.wav;483.00664420006797;None;;;;;;;;;;;;;000201;001;2023-10-06_09h41.18.571;REPSWITCH1_version2_list1;2022.2.4;143.9130532565852;
REPSWITCH1/PICTURE_498.png;taza;type;gold;switch;1;T;4;1;1;2;Stim4_Set4;0;None;88;87;88;0;87;87;87;;;;;;;;;;;;;;;;;;;;;;;483.50685740006156;484.61799000017345;484.61799000017345;484.61799000017345;484.61799000017345;484.61799000017345;484.61799000017345;484.61799000017345;484.61799000017345;['t', 'a', 'z', 'a'];0;[0.8909797000233084, 0.9549197999294847, 1.1309460999909788, 1.2269359999336302];taza;C:\2023\REPSWITCH21092023\REPSWITCH_excgange\REPSWITCH_excgange\data/000201_REPSWITCH1_version2_list1_2023-10-06_09h41.18.571_micRespv2l1_recorded\recording_micRespv2l1_2023-10-06_09h48.18.132.wav;487.65311440010555;None;487.65311440010555;487.65311440010555;487.65311440010555;487.65311440010555;487.65311440010555;487.65311440010555;;;;;;;000201;001;2023-10-06_09h41.18.571;REPSWITCH1_version2_list1;2022.2.4;143.9130532565852;
REPSWITCH1/PICTURE_235.png;aguja;speak;darkblue;filler;2;F;4;1;1;2;Stim4_Set3;0;None;89;88;89;0;88;88;88;;;;;;;;;;;;;;;;;;;;;;;488.1531239000615;489.21573700010777;489.21573700010777;489.21573700010777;489.21573700010777;489.21573700010777;489.21573700010777;489.21573700010777;489.21573700010777;None;0;;;C:\2023\REPSWITCH21092023\REPSWITCH_excgange\REPSWITCH_excgange\data/000201_REPSWITCH1_version2_list1_2023-10-06_09h41.18.571_micRespv2l1_recorded\recording_micRespv2l1_2023-10-06_09h48.22.720.wav;492.237022300018;None;;;;;;;;;;;;;000201;001;2023-10-06_09h41.18.571;REPSWITCH1_version2_list1;2022.2.4;143.9130532565852;
REPSWITCH1/PICTURE_35.png;oreja;type;gold;filler;1;F;4;1;1;2;Stim5_Set3;0;None;90;89;90;0;89;89;89;;;;;;;;;;;;;;;;;;;;;;;492.73722160002217;493.89701800001785;493.89701800001785;493.89701800001785;493.89701800001785;493.89701800001785;493.89701800001785;493.89701800001785;493.89701800001785;['o', 'r', 'e', 'j', 'a'];0;[0.8756075999699533, 1.1156011000275612, 1.4362470000050962, 1.6922746999189258, 1.820274599827826];oreja;C:\2023\REPSWITCH21092023\REPSWITCH_excgange\REPSWITCH_excgange\data/000201_REPSWITCH1_version2_list1_2023-10-06_09h41.18.571_micRespv2l1_recorded\recording_micRespv2l1_2023-10-06_09h48.27.411.wav;496.93189250002615;None;496.93189250002615;496.93189250002615;496.93189250002615;496.93189250002615;496.93189250002615;496.93189250002615;;;;;;;000201;001;2023-10-06_09h41.18.571;REPSWITCH1_version2_list1;2022.2.4;143.9130532565852;
REPSWITCH1/PICTURE_687.png;camisa;type;gold;nontarget;1;NT;4;1;1;2;Stim5_Set4;1;repeat;91;90;91;0;90;90;90;;;;;;;;;;;;;;;;;;;;;;;497.43187179998495;498.5086513001006;498.5086513001006;498.5086513001006;498.5086513001006;498.5086513001006;498.5086513001006;498.5086513001006;498.5086513001006;['c', 'a', 'm', 'i', 's', 'a'];0;[0.8406223000492901, 0.9366486000362784, 1.4165956999640912, 1.4806041000410914, 1.6564422000665218, 1.8321767998859286];camisa;C:\2023\REPSWITCH21092023\REPSWITCH_excgange\REPSWITCH_excgange\data/000201_REPSWITCH1_version2_list1_2023-10-06_09h41.18.571_micRespv2l1_recorded\recording_micRespv2l1_2023-10-06_09h48.32.013.wav;501.52985120005906;None;;;;;;;;;;;;;000201;001;2023-10-06_09h41.18.571;REPSWITCH1_version2_list1;2022.2.4;143.9130532565852;
REPSWITCH1/PICTURE_687.png;camisa;speak;darkblue;switch;2;T;4;1;1;2;Stim5_Set4;0;None;92;91;92;0;91;91;91;;;;;;;;;;;;;;;;;;;;;;;502.0298081000801;503.08570840000175;503.08570840000175;503.08570840000175;503.08570840000175;503.08570840000175;503.08570840000175;503.08570840000175;503.08570840000175;None;0;;;C:\2023\REPSWITCH21092023\REPSWITCH_excgange\REPSWITCH_excgange\data/000201_REPSWITCH1_version2_list1_2023-10-06_09h41.18.571_micRespv2l1_recorded\recording_micRespv2l1_2023-10-06_09h48.36.600.wav;506.1145729999989;None;506.1145729999989;506.1145729999989;506.1145729999989;506.1145729999989;506.1145729999989;506.1145729999989;506.61369820008986;;;;;;000201;001;2023-10-06_09h41.18.571;REPSWITCH1_version2_list1;2022.2.4;143.9130532565852;
REPSWITCH1/PICTURE_338.png;regalo;speak;darkblue;nontarget;2;NT;4;1;1;2;Stim6_Set4;0;None;93;92;93;0;92;92;92;;;;;;;;;;;;;;;;;;;;;;;506.61369820008986;507.6904764000792;507.6904764000792;507.6904764000792;507.6904764000792;507.6904764000792;507.6904764000792;507.6904764000792;507.6904764000792;None;0;;;C:\2023\REPSWITCH21092023\REPSWITCH_excgange\REPSWITCH_excgange\data/000201_REPSWITCH1_version2_list1_2023-10-06_09h41.18.571_micRespv2l1_recorded\recording_micRespv2l1_2023-10-06_09h48.41.205.wav;510.7178365001455;None;510.7178365001455;510.7178365001455;510.7178365001455;510.7178365001455;510.7178365001455;510.7178365001455;511.2177707001101;;;;;;000201;001;2023-10-06_09h41.18.571;REPSWITCH1_version2_list1;2022.2.4;143.9130532565852;
REPSWITCH1/PICTURE_338.png;regalo;speak;darkblue;repeat;2;T;4;1;1;2;Stim6_Set4;0;None;94;93;94;0;93;93;93;;;;;;;;;;;;;;;;;;;;;;;511.2177707001101;512.3786820000969;512.3786820000969;512.3786820000969;512.3786820000969;512.3786820000969;512.3786820000969;512.3786820000969;512.3786820000969;None;0;;;C:\2023\REPSWITCH21092023\REPSWITCH_excgange\REPSWITCH_excgange\data/000201_REPSWITCH1_version2_list1_2023-10-06_09h41.18.571_micRespv2l1_recorded\recording_micRespv2l1_2023-10-06_09h48.45.893.wav;515.4057763000019;None;515.4057763000019;515.4057763000019;515.4057763000019;515.4057763000019;515.4057763000019;515.4057763000019;515.9065050999634;;;;;;000201;001;2023-10-06_09h41.18.571;REPSWITCH1_version2_list1;2022.2.4;143.9130532565852;
REPSWITCH1/PICTURE_663.png;columna;type;gold;filler;1;F;4;1;1;2;Extra6;0;None;95;94;95;0;94;94;94;;;;;;;;;;;;;;;;;;;;;;;515.9065050999634;517.0319590000436;517.0319590000436;517.0319590000436;517.0319590000436;517.0319590000436;517.0319590000436;517.0319590000436;517.0319590000436;['c', 'o', 'l', 'u', 'm', 'n', 'a'];0;[0.9732820999342948, 1.4044725999701768, 1.5814094999805093, 1.7574092999566346, 2.0294182000216097, 2.1567321999464184, 2.252721400000155];columna;C:\2023\REPSWITCH21092023\REPSWITCH_excgange\REPSWITCH_excgange\data/000201_REPSWITCH1_version2_list1_2023-10-06_09h41.18.571_micRespv2l1_recorded\recording_micRespv2l1_2023-10-06_09h48.50.536.wav;520.053108900087;None;;;;;;;;;;;;;000201;001;2023-10-06_09h41.18.571;REPSWITCH1_version2_list1;2022.2.4;143.9130532565852;
REPSWITCH1/PICTURE_271.png;conejo;speak;darkblue;filler;2;F;4;1;1;2;Stim7_Set3;0;None;96;95;96;0;95;95;95;;;;;;;;;;;;;;;;;;;;;;;520.5532368000131;521.7757711999584;521.7757711999584;521.7757711999584;521.7757711999584;521.7757711999584;521.7757711999584;521.7757711999584;521.7757711999584;None;0;;;C:\2023\REPSWITCH21092023\REPSWITCH_excgange\REPSWITCH_excgange\data/000201_REPSWITCH1_version2_list1_2023-10-06_09h41.18.571_micRespv2l1_recorded\recording_micRespv2l1_2023-10-06_09h48.55.290.wav;524.8030279001687;None;524.8030279001687;524.8030279001687;524.8030279001687;524.8030279001687;524.8030279001687;524.8030279001687;525.3030489999801;;;;;;000201;001;2023-10-06_09h41.18.571;REPSWITCH1_version2_list1;2022.2.4;143.9130532565852;
REPSWITCH1/PICTURE_48.png;bombero;speak;darkblue;nontarget;2;NT;4;1;1;2;Stim7_Set4;0;None;97;96;97;0;96;96;96;;;;;;;;;;;;;;;;;;;;;;;525.3030489999801;526.3517336000223;526.3517336000223;526.3517336000223;526.3517336000223;526.3517336000223;526.3517336000223;526.3517336000223;526.3517336000223;None;0;;;C:\2023\REPSWITCH21092023\REPSWITCH_excgange\REPSWITCH_excgange\data/000201_REPSWITCH1_version2_list1_2023-10-06_09h41.18.571_micRespv2l1_recorded\recording_micRespv2l1_2023-10-06_09h48.59.863.wav;529.380715199979;None;529.380715199979;529.380715199979;529.380715199979;529.380715199979;529.380715199979;529.380715199979;;;;;;;000201;001;2023-10-06_09h41.18.571;REPSWITCH1_version2_list1;2022.2.4;143.9130532565852;
REPSWITCH1/PICTURE_48.png;bombero;type;gold;switch;1;T;4;1;1;2;Stim7_Set4;0;None;98;97;98;0;97;97;97;;;;;;;;;;;;;;;;;;;;;;;529.8810503000859;530.9158509001136;530.9158509001136;530.9158509001136;530.9158509001136;530.9158509001136;530.9158509001136;530.9158509001136;530.9158509001136;['b', 'o', 'm', 'b', 'e', 'r', 'o'];0;[1.6005765001755208, 1.7125783001538366, 1.888614800060168, 2.1286232001148164, 2.2095985000487417, 2.3686284001450986, 2.417937000049278];bombero;C:\2023\REPSWITCH21092023\REPSWITCH_excgange\REPSWITCH_excgange\data/000201_REPSWITCH1_version2_list1_2023-10-06_09h41.18.571_micRespv2l1_recorded\recording_micRespv2l1_2023-10-06_09h49.04.420.wav;533.9367204001173;None;;;;;;;;;;;;;000201;001;2023-10-06_09h41.18.571;REPSWITCH1_version2_list1;2022.2.4;143.9130532565852;
REPSWITCH1/PICTURE_728.png;pulpo;type;gold;nontarget;1;NT;4;1;1;2;Stim8_Set4;0;None;99;98;99;0;98;98;98;;;;;;;;;;;;;;;;;;;;;;;534.4368150001392;535.4928868999705;535.4928868999705;535.4928868999705;535.4928868999705;535.4928868999705;535.4928868999705;535.4928868999705;535.4928868999705;['p', 'u', 'l', 'p', 'o'];0;[0.8957599999848753, 1.151776400161907, 1.439568200148642, 1.5997845001984388, 1.7757794000208378];pulpo;C:\2023\REPSWITCH21092023\REPSWITCH_excgange\REPSWITCH_excgange\data/000201_REPSWITCH1_version2_list1_2023-10-06_09h41.18.571_micRespv2l1_recorded\recording_micRespv2l1_2023-10-06_09h49.08.996.wav;538.5138495999854;None;;;;;;;;;;;;;000201;001;2023-10-06_09h41.18.571;REPSWITCH1_version2_list1;2022.2.4;143.9130532565852;
REPSWITCH1/PICTURE_728.png;pulpo;type;gold;repeat;1;T;4;1;1;2;Stim8_Set4;0;None;100;99;100;0;99;99;99;;;;;;;;;;;;;;;;;;;;;;;539.0140972000081;540.152997400146;540.152997400146;540.152997400146;540.152997400146;540.152997400146;540.152997400146;540.152997400146;540.152997400146;['p', 'u', 'l', 'p', 'o'];0;[0.8114960000384599, 1.147465500049293, 1.4043066001031548, 1.5162999001331627, 1.6923134999815375];pulpo;C:\2023\REPSWITCH21092023\REPSWITCH_excgange\REPSWITCH_excgange\data/000201_REPSWITCH1_version2_list1_2023-10-06_09h41.18.571_micRespv2l1_recorded\recording_micRespv2l1_2023-10-06_09h49.13.657.wav;543.1741820001043;None;;;;;;;;;;;;;000201;001;2023-10-06_09h41.18.571;REPSWITCH1_version2_list1;2022.2.4;143.9130532565852;
REPSWITCH1/PICTURE_320.png;iglesia;speak;darkblue;filler;1;F;4;1;1;2;Stim8_Set3;0;None;101;100;101;0;100;100;100;;;;;;;;;;;;;;;;;;;;;;;543.6740161001217;544.7508054000791;544.7508054000791;544.7508054000791;544.7508054000791;544.7508054000791;544.7508054000791;544.7508054000791;544.7508054000791;None;0;;;C:\2023\REPSWITCH21092023\REPSWITCH_excgange\REPSWITCH_excgange\data/000201_REPSWITCH1_version2_list1_2023-10-06_09h41.18.571_micRespv2l1_recorded\recording_micRespv2l1_2023-10-06_09h49.18.265.wav;547.7859657001682;None;547.7859657001682;547.7859657001682;547.7859657001682;547.7859657001682;547.7859657001682;547.7859657001682;;;;;;;000201;001;2023-10-06_09h41.18.571;REPSWITCH1_version2_list1;2022.2.4;143.9130532565852;
REPSWITCH1/PICTURE_464.png;goma;type;gold;filler;1;F;4;1;1;2;Stim6_Set3;0;None;102;101;102;0;101;101;101;;;;;;;;;;;;;;;;;;;;;;;548.2860264000483;549.3904602001421;549.3904602001421;549.3904602001421;549.3904602001421;549.3904602001421;549.3904602001421;549.3904602001421;549.3904602001421;['g', 'o', 'm', 'a'];0;[0.8067596999462694, 1.1426846000831574, 1.3500588999595493, 1.4940655000973493];goma;C:\2023\REPSWITCH21092023\REPSWITCH_excgange\REPSWITCH_excgange\data/000201_REPSWITCH1_version2_list1_2023-10-06_09h41.18.571_micRespv2l1_recorded\recording_micRespv2l1_2023-10-06_09h49.22.894.wav;552.4115131001454;space;;;;;;;;552.91160150012;552.91160150012;2.901385699864477;;;000201;001;2023-10-06_09h41.18.571;REPSWITCH1_version2_list1;2022.2.4;143.9130532565852;
REPSWITCH1/PICTURE_663.png;columna;type;gold;filler;1;F;1;2;1;2;Extra6;0;None;103;102;1;0;102;102;102;;;;;;;;;;;;;;;;;;;;;;;555.8216348001733;556.9681039000861;556.9681039000861;556.9681039000861;556.9681039000861;556.9681039000861;556.9681039000861;556.9681039000861;556.9681039000861;['c', 'o', 'l', 'u', 'm', 'n', 'a'];0;[0.8613414000719786, 1.261335900053382, 1.420415700180456, 1.596402200171724, 1.757585900137201, 1.8685725000686944, 1.9805327001959085];columna;C:\2023\REPSWITCH21092023\REPSWITCH_excgange\REPSWITCH_excgange\data/000201_REPSWITCH1_version2_list1_2023-10-06_09h41.18.571_micRespv2l1_recorded\recording_micRespv2l1_2023-10-06_09h49.30.482.wav;559.9951200000942;None;559.9951200000942;559.9951200000942;559.9951200000942;559.9951200000942;559.9951200000942;559.9951200000942;560.4959685001522;;;;;;000201;001;2023-10-06_09h41.18.571;REPSWITCH1_version2_list1;2022.2.4;143.9130532565852;
REPSWITCH1/PICTURE_128.png;muñeca;speak;darkblue;nontarget;2;NT;1;2;1;2;Stim4_Set1;1;switch;104;103;2;0;103;103;103;;;;;;;;;;;;;;;;;;;;;;;560.4959685001522;561.6141868999694;561.6141868999694;561.6141868999694;561.6141868999694;561.6141868999694;561.6141868999694;561.6141868999694;561.6141868999694;None;0;;;C:\2023\REPSWITCH21092023\REPSWITCH_excgange\REPSWITCH_excgange\data/000201_REPSWITCH1_version2_list1_2023-10-06_09h41.18.571_micRespv2l1_recorded\recording_micRespv2l1_2023-10-06_09h49.35.119.wav;564.6351968001109;None;;;;;;;;;;;;;000201;001;2023-10-06_09h41.18.571;REPSWITCH1_version2_list1;2022.2.4;143.9130532565852;
REPSWITCH1/PICTURE_128.png;muñeca;speak;darkblue;repeat;2;T;1;2;1;2;Stim4_Set1;0;None;105;104;3;0;104;104;104;;;;;;;;;;;;;;;;;;;;;;;565.1352609000169;566.2813921000343;566.2813921000343;566.2813921000343;566.2813921000343;566.2813921000343;566.2813921000343;566.2813921000343;566.2813921000343;None;0;;;C:\2023\REPSWITCH21092023\REPSWITCH_excgange\REPSWITCH_excgange\data/000201_REPSWITCH1_version2_list1_2023-10-06_09h41.18.571_micRespv2l1_recorded\recording_micRespv2l1_2023-10-06_09h49.39.785.wav;569.3024720000103;None;;;;;;;;;;;;;000201;001;2023-10-06_09h41.18.571;REPSWITCH1_version2_list1;2022.2.4;143.9130532565852;
REPSWITCH1/PICTURE_8.png;pierna;type;gold;filler;1;F;1;2;1;2;Stim3_Set4;0;None;106;105;4;0;105;105;105;;;;;;;;;;;;;;;;;;;;;;;569.8026650000829;570.9139289001469;570.9139289001469;570.9139289001469;570.9139289001469;570.9139289001469;570.9139289001469;570.9139289001469;570.9139289001469;['p', 'i', 'e', 'r', 'n', 'a'];0;[0.9312098999507725, 1.1550382999703288, 1.7946510000620037, 1.97068090015091, 2.1146442000754178, 2.258636200102046];pierna;C:\2023\REPSWITCH21092023\REPSWITCH_excgange\REPSWITCH_excgange\data/000201_REPSWITCH1_version2_list1_2023-10-06_09h41.18.571_micRespv2l1_recorded\recording_micRespv2l1_2023-10-06_09h49.44.419.wav;573.9350281001534;None;;;;;;;;;;;;;000201;001;2023-10-06_09h41.18.571;REPSWITCH1_version2_list1;2022.2.4;143.9130532565852;
REPSWITCH1/PICTURE_135.png;traje;speak;darkblue;nontarget;2;NT;1;2;1;2;Stim3_Set1;1;switch;107;106;5;0;106;106;106;;;;;;;;;;;;;;;;;;;;;;;574.4352692000102;575.6715284001548;575.6715284001548;575.6715284001548;575.6715284001548;575.6715284001548;575.6715284001548;575.6715284001548;575.6715284001548;None;0;;;C:\2023\REPSWITCH21092023\REPSWITCH_excgange\REPSWITCH_excgange\data/000201_REPSWITCH1_version2_list1_2023-10-06_09h41.18.571_micRespv2l1_recorded\recording_micRespv2l1_2023-10-06_09h49.49.176.wav;578.6928360001184;None;;;;;;;;;;;;;000201;001;2023-10-06_09h41.18.571;REPSWITCH1_version2_list1;2022.2.4;143.9130532565852;
REPSWITCH1/PICTURE_135.png;traje;speak;darkblue;repeat;2;T;1;2;1;2;Stim3_Set1;0;None;108;107;6;0;107;107;107;;;;;;;;;;;;;;;;;;;;;;;579.1928602000698;580.3110334000085;580.3110334000085;580.3110334000085;580.3110334000085;580.3110334000085;580.3110334000085;580.3110334000085;580.3110334000085;None;0;;;C:\2023\REPSWITCH21092023\REPSWITCH_excgange\REPSWITCH_excgange\data/000201_REPSWITCH1_version2_list1_2023-10-06_09h41.18.571_micRespv2l1_recorded\recording_micRespv2l1_2023-10-06_09h49.53.816.wav;583.3323721999768;None;;;;;;;;;;;;;000201;001;2023-10-06_09h41.18.571;REPSWITCH1_version2_list1;2022.2.4;143.9130532565852;
REPSWITCH1/PICTURE_673.png;tenedor;type;gold;filler;1;F;1;2;1;2;Extra5;0;None;109;108;7;0;108;108;108;;;;;;;;;;;;;;;;;;;;;;;583.8320253000129;584.8603111000266;584.8603111000266;584.8603111000266;584.8603111000266;584.8603111000266;584.8603111000266;584.8603111000266;584.8603111000266;['t', 'e', 'n', 'e', 'd', 'r', 'backspace', 'o', 'r'];0;[0.8409086000174284, 0.9362087999470532, 1.064207199960947, 1.1122400998137891, 1.3522457999642938, 1.7042208998464048, 2.1842545999679714, 2.5202364998403937, 2.6487072999589145];tenedor;C:\2023\REPSWITCH21092023\REPSWITCH_excgange\REPSWITCH_excgange\data/000201_REPSWITCH1_version2_list1_2023-10-06_09h41.18.571_micRespv2l1_recorded\recording_micRespv2l1_2023-10-06_09h49.58.364.wav;587.8814439000562;None;;;;;;;;;;;;;000201;001;2023-10-06_09h41.18.571;REPSWITCH1_version2_list1;2022.2.4;143.9130532565852;
REPSWITCH1/PICTURE_728.png;pulpo;speak;darkblue;filler;2;F;1;2;1;2;Stim8_Set4;0;None;110;109;8;0;109;109;109;;;;;;;;;;;;;;;;;;;;;;;588.3816607999615;589.4926515000407;589.4926515000407;589.4926515000407;589.4926515000407;589.4926515000407;589.4926515000407;589.4926515000407;589.4926515000407;None;0;;;C:\2023\REPSWITCH21092023\REPSWITCH_excgange\REPSWITCH_excgange\data/000201_REPSWITCH1_version2_list1_2023-10-06_09h41.18.571_micRespv2l1_recorded\recording_micRespv2l1_2023-10-06_09h50.02.997.wav;592.5138073000126;None;;;;;;;;;;;;;000201;001;2023-10-06_09h41.18.571;REPSWITCH1_version2_list1;2022.2.4;143.9130532565852;
REPSWITCH1/PICTURE_16.png;cazador;speak;darkblue;nontarget;2;NT;1;2;1;2;Stim6_Set1;1;repeat;111;110;9;0;110;110;110;;;;;;;;;;;;;;;;;;;;;;;593.01409219997;594.1322502000257;594.1322502000257;594.1322502000257;594.1322502000257;594.1322502000257;594.1322502000257;594.1322502000257;594.1322502000257;None;0;;;C:\2023\REPSWITCH21092023\REPSWITCH_excgange\REPSWITCH_excgange\data/000201_REPSWITCH1_version2_list1_2023-10-06_09h41.18.571_micRespv2l1_recorded\recording_micRespv2l1_2023-10-06_09h50.07.646.wav;597.1672188001685;None;597.1672188001685;597.1672188001685;597.1672188001685;597.1672188001685;597.1672188001685;597.1672188001685;;;;;;;000201;001;2023-10-06_09h41.18.571;REPSWITCH1_version2_list1;2022.2.4;143.9130532565852;
REPSWITCH1/PICTURE_16.png;cazador;type;gold;switch;1;T;1;2;1;2;Stim6_Set1;0;None;112;111;10;0;111;111;111;;;;;;;;;;;;;;;;;;;;;;;597.6676311001647;598.7370780000929;598.7370780000929;598.7370780000929;598.7370780000929;598.7370780000929;598.7370780000929;598.7370780000929;598.7370780000929;['c', 'a', 'z', 'a', 'd', 'o', 'r'];0;[0.9157682000659406, 1.044082900043577, 1.2193402000702918, 1.348159900167957, 1.604170700069517, 1.7321552999783307, 1.8761630000080913];cazador;C:\2023\REPSWITCH21092023\REPSWITCH_excgange\REPSWITCH_excgange\data/000201_REPSWITCH1_version2_list1_2023-10-06_09h41.18.571_micRespv2l1_recorded\recording_micRespv2l1_2023-10-06_09h50.12.252.wav;601.7718721001875;None;601.7718721001875;601.7718721001875;601.7718721001875;601.7718721001875;601.7718721001875;601.7718721001875;;;;;;;000201;001;2023-10-06_09h41.18.571;REPSWITCH1_version2_list1;2022.2.4;143.9130532565852;
REPSWITCH1/PICTURE_498.png;taza;type;gold;filler;1;F;1;2;1;2;Stim4_Set4;1;repeat;113;112;11;0;112;112;112;;;;;;;;;;;;;;;;;;;;;;;602.2722325001378;603.349011000013;603.349011000013;603.349011000013;603.349011000013;603.349011000013;603.349011000013;603.349011000013;603.349011000013;['t', 'a', 'z', 'a'];0;[0.8159976999741048, 0.8959961000364274, 1.039996299892664, 1.1204236999619752];taza;C:\2023\REPSWITCH21092023\REPSWITCH_excgange\REPSWITCH_excgange\data/000201_REPSWITCH1_version2_list1_2023-10-06_09h41.18.571_micRespv2l1_recorded\recording_micRespv2l1_2023-10-06_09h50.16.864.wav;606.3838894001674;None;606.3838894001674;606.3838894001674;606.3838894001674;606.3838894001674;606.3838894001674;606.3838894001674;;;;;;;000201;001;2023-10-06_09h41.18.571;REPSWITCH1_version2_list1;2022.2.4;143.9130532565852;
REPSWITCH1/PICTURE_381.png;fresa;type;gold;nontarget;1;NT;1;2;1;2;Stim2_Set1;1;repeat;114;113;12;0;113;113;113;;;;;;;;;;;;;;;;;;;;;;;606.8837745999917;607.912007200066;607.912007200066;607.912007200066;607.912007200066;607.912007200066;607.912007200066;607.912007200066;607.912007200066;['f', 'r', 'e', 's', 'a'];0;[1.1013011001050472, 1.1812986000441015, 1.3572881000582129, 1.4532836000435054, 1.6288602000568062];fresa;C:\2023\REPSWITCH21092023\REPSWITCH_excgange\REPSWITCH_excgange\data/000201_REPSWITCH1_version2_list1_2023-10-06_09h41.18.571_micRespv2l1_recorded\recording_micRespv2l1_2023-10-06_09h50.21.427.wav;610.9462121000979;None;610.9462121000979;610.9462121000979;610.9462121000979;610.9462121000979;610.9462121000979;610.9462121000979;;;;;;;000201;001;2023-10-06_09h41.18.571;REPSWITCH1_version2_list1;2022.2.4;143.9130532565852;
REPSWITCH1/PICTURE_381.png;fresa;speak;darkblue;switch;2;T;1;2;1;2;Stim2_Set1;0;None;115;114;13;0;114;114;114;;;;;;;;;;;;;;;;;;;;;;;611.4462524000555;612.482050599996;612.482050599996;612.482050599996;612.482050599996;612.482050599996;612.482050599996;612.482050599996;612.482050599996;None;0;;;C:\2023\REPSWITCH21092023\REPSWITCH_excgange\REPSWITCH_excgange\data/000201_REPSWITCH1_version2_list1_2023-10-06_09h41.18.571_micRespv2l1_recorded\recording_micRespv2l1_2023-10-06_09h50.25.997.wav;615.5168284999672;None;615.5168284999672;615.5168284999672;615.5168284999672;615.5168284999672;615.5168284999672;615.5168284999672;;;;;;;000201;001;2023-10-06_09h41.18.571;REPSWITCH1_version2_list1;2022.2.4;143.9130532565852;
REPSWITCH1/PICTURE_178.png;puente;speak;darkblue;nontarget;2;NT;1;2;1;2;Stim1_Set1;0;None;116;115;14;0;115;115;115;;;;;;;;;;;;;;;;;;;;;;;616.0170820001513;617.1491493000649;617.1491493000649;617.1491493000649;617.1491493000649;617.1491493000649;617.1491493000649;617.1491493000649;617.1491493000649;None;0;;;C:\2023\REPSWITCH21092023\REPSWITCH_excgange\REPSWITCH_excgange\data/000201_REPSWITCH1_version2_list1_2023-10-06_09h41.18.571_micRespv2l1_recorded\recording_micRespv2l1_2023-10-06_09h50.30.664.wav;620.1842622000258;None;620.1842622000258;620.1842622000258;620.1842622000258;620.1842622000258;620.1842622000258;620.1842622000258;;;;;;;000201;001;2023-10-06_09h41.18.571;REPSWITCH1_version2_list1;2022.2.4;143.9130532565852;
REPSWITCH1/PICTURE_178.png;puente;type;gold;switch;1;T;1;2;1;2;Stim1_Set1;0;None;117;116;15;0;116;116;116;;;;;;;;;;;;;;;;;;;;;;;620.6843546000309;621.8650644000154;621.8650644000154;621.8650644000154;621.8650644000154;621.8650644000154;621.8650644000154;621.8650644000154;621.8650644000154;['p', 'u', 'e', 'n', 't', 'e'];0;[0.9721040001604706, 1.2280963000375777, 1.4996494001243263, 1.563687700079754, 1.7716854000464082, 1.8356876999605447];puente;C:\2023\REPSWITCH21092023\REPSWITCH_excgange\REPSWITCH_excgange\data/000201_REPSWITCH1_version2_list1_2023-10-06_09h41.18.571_micRespv2l1_recorded\recording_micRespv2l1_2023-10-06_09h50.35.369.wav;624.8861134999897;None;;;;;;;;;;;;;000201;001;2023-10-06_09h41.18.571;REPSWITCH1_version2_list1;2022.2.4;143.9130532565852;
REPSWITCH1/PICTURE_719.png;baño;speak;darkblue;filler;2;F;1;2;1;2;Stim2_Set4;0;None;118;117;16;0;117;117;117;;;;;;;;;;;;;;;;;;;;;;;625.3865901001263;626.5459017001558;626.5459017001558;626.5459017001558;626.5459017001558;626.5459017001558;626.5459017001558;626.5459017001558;626.5459017001558;None;0;;;C:\2023\REPSWITCH21092023\REPSWITCH_excgange\REPSWITCH_excgange\data/000201_REPSWITCH1_version2_list1_2023-10-06_09h41.18.571_micRespv2l1_recorded\recording_micRespv2l1_2023-10-06_09h50.40.051.wav;629.5672856001183;None;;;;;;;;;;;;;000201;001;2023-10-06_09h41.18.571;REPSWITCH1_version2_list1;2022.2.4;143.9130532565852;
REPSWITCH1/PICTURE_169.png;espalda;type;gold;nontarget;1;NT;1;2;1;2;Stim8_Set1;1;switch;119;118;17;0;118;118;118;;;;;;;;;;;;;;;;;;;;;;;630.0675427999813;631.1926335000899;631.1926335000899;631.1926335000899;631.1926335000899;631.1926335000899;631.1926335000899;631.1926335000899;631.1926335000899;['e', 's', 'a', 'backspace', 'p', 'a', 'l', 'd', 'a'];0;[0.9407082998659462, 1.1322302999906242, 1.3558914999011904, 1.8517452999949455, 2.0921068999450654, 2.1720966999419034, 2.2680502000730485, 2.364092200063169, 2.5720915999263525];espalda;C:\2023\REPSWITCH21092023\REPSWITCH_excgange\REPSWITCH_excgange\data/000201_REPSWITCH1_version2_list1_2023-10-06_09h41.18.571_micRespv2l1_recorded\recording_micRespv2l1_2023-10-06_09h50.44.696.wav;634.213866900187;None;;;;;;;;;;;;;000201;001;2023-10-06_09h41.18.571;REPSWITCH1_version2_list1;2022.2.4;143.9130532565852;
REPSWITCH1/PICTURE_169.png;espalda;type;gold;repeat;1;T;1;2;1;2;Stim8_Set1;0;None;120;119;18;0;119;119;119;;;;;;;;;;;;;;;;;;;;;;;634.713787100045;635.8044177000411;635.8044177000411;635.8044177000411;635.8044177000411;635.8044177000411;635.8044177000411;635.8044177000411;635.8044177000411;['e', 's', 'p', 'a', 'l', 'd', 'a'];0;[0.968586599919945, 1.1445812999736518, 1.272581099998206, 1.3685904999729246, 1.465645399875939, 1.5608394998125732, 1.7847853999119252];espalda;C:\2023\REPSWITCH21092023\REPSWITCH_excgange\REPSWITCH_excgange\data/000201_REPSWITCH1_version2_list1_2023-10-06_09h41.18.571_micRespv2l1_recorded\recording_micRespv2l1_2023-10-06_09h50.49.309.wav;638.8255559999961;None;;;;;;;;;;;;;000201;001;2023-10-06_09h41.18.571;REPSWITCH1_version2_list1;2022.2.4;143.9130532565852;
REPSWITCH1/PICTURE_48.png;bombero;speak;darkblue;filler;2;F;1;2;1;2;Stim7_Set4;1;switch;121;120;19;0;120;120;120;;;;;;;;;;;;;;;;;;;;;;;639.3257916001603;640.3952806000598;640.3952806000598;640.3952806000598;640.3952806000598;640.3952806000598;640.3952806000598;640.3952806000598;640.3952806000598;None;0;;;C:\2023\REPSWITCH21092023\REPSWITCH_excgange\REPSWITCH_excgange\data/000201_REPSWITCH1_version2_list1_2023-10-06_09h41.18.571_micRespv2l1_recorded\recording_micRespv2l1_2023-10-06_09h50.53.899.wav;643.4164566001855;None;;;;;;;;;;;;;000201;001;2023-10-06_09h41.18.571;REPSWITCH1_version2_list1;2022.2.4;143.9130532565852;
REPSWITCH1/PICTURE_19.png;pavo;type;gold;nontarget;1;NT;1;2;1;2;Stim5_Set1;1;switch;122;121;20;0;121;121;121;;;;;;;;;;;;;;;;;;;;;;;643.9165593001526;645.0556298999581;645.0556298999581;645.0556298999581;645.0556298999581;645.0556298999581;645.0556298999581;645.0556298999581;645.0556298999581;['p', 'a', 'o', 'backspace', 'v', 'o'];0;[1.0453566000796854, 1.1893170000985265, 1.5413164999336004, 1.8775869999080896, 2.0048414999619126, 2.132798000006005];pavo;C:\2023\REPSWITCH21092023\REPSWITCH_excgange\REPSWITCH_excgange\data/000201_REPSWITCH1_version2_list1_2023-10-06_09h41.18.571_micRespv2l1_recorded\recording_micRespv2l1_2023-10-06_09h50.58.570.wav;648.0829815999605;None;648.0829815999605;648.0829815999605;648.0829815999605;648.0829815999605;648.0829815999605;648.0829815999605;648.5830500000156;;;;;;000201;001;2023-10-06_09h41.18.571;REPSWITCH1_version2_list1;2022.2.4;143.9130532565852;
REPSWITCH1/PICTURE_19.png;pavo;type;gold;repeat;1;T;1;2;1;2;Stim5_Set1;0;None;123;122;21;0;122;122;122;;;;;;;;;;;;;;;;;;;;;;;648.5830500000156;649.6606014000718;649.6606014000718;649.6606014000718;649.6606014000718;649.6606014000718;649.6606014000718;649.6606014000718;649.6606014000718;['p', 'a', 'v', 'o'];0;[0.7758814000990242, 0.9361328000668436, 1.2882832000032067, 1.4002792001701891];pavo;C:\2023\REPSWITCH21092023\REPSWITCH_excgange\REPSWITCH_excgange\data/000201_REPSWITCH1_version2_list1_2023-10-06_09h41.18.571_micRespv2l1_recorded\recording_micRespv2l1_2023-10-06_09h51.03.166.wav;652.6811941000633;None;;;;;;;653.1816652000416;;;;;;000201;001;2023-10-06_09h41.18.571;REPSWITCH1_version2_list1;2022.2.4;143.9130532565852;
REPSWITCH1/PICTURE_319.png;vaca;speak;darkblue;filler;2;F;1;2;1;2;Stim1_Set4;0;None;124;123;22;0;123;123;123;;;;;;;;;;;;;;;;;;;;;;;653.1816652000416;654.272341000149;654.272341000149;654.272341000149;654.272341000149;654.272341000149;654.272341000149;654.272341000149;654.272341000149;None;0;;;C:\2023\REPSWITCH21092023\REPSWITCH_excgange\REPSWITCH_excgange\data/000201_REPSWITCH1_version2_list1_2023-10-06_09h41.18.571_micRespv2l1_recorded\recording_micRespv2l1_2023-10-06_09h51.07.777.wav;657.2931242999621;None;;;;;;;;;;;;;000201;001;2023-10-06_09h41.18.571;REPSWITCH1_version2_list1;2022.2.4;143.9130532565852;
REPSWITCH1/PICTURE_338.png;regalo;type;gold;filler;1;F;1;2;1;2;Stim6_Set4;0;None;125;124;23;0;124;124;124;;;;;;;;;;;;;;;;;;;;;;;657.7933673001826;658.8907635000069;658.8907635000069;658.8907635000069;658.8907635000069;658.8907635000069;658.8907635000069;658.8907635000069;658.8907635000069;['r', 'e', 'g', 'a', 'l', 'o'];0;[0.9545956999063492, 1.0513987999875098, 1.2583492998965085, 1.434441399993375, 1.657733399886638, 1.786266400013119];regalo;C:\2023\REPSWITCH21092023\REPSWITCH_excgange\REPSWITCH_excgange\data/000201_REPSWITCH1_version2_list1_2023-10-06_09h41.18.571_micRespv2l1_recorded\recording_micRespv2l1_2023-10-06_09h51.12.405.wav;661.9181065000594;None;661.9181065000594;661.9181065000594;661.9181065000594;661.9181065000594;661.9181065000594;661.9181065000594;662.4180495999753;;;;;;000201;001;2023-10-06_09h41.18.571;REPSWITCH1_version2_list1;2022.2.4;143.9130532565852;
REPSWITCH1/PICTURE_142.png;vaso;type;gold;nontarget;1;NT;1;2;1;2;Stim7_Set1;0;None;126;125;24;0;125;125;125;;;;;;;;;;;;;;;;;;;;;;;662.4180495999753;663.4746161999647;663.4746161999647;663.4746161999647;663.4746161999647;663.4746161999647;663.4746161999647;663.4746161999647;663.4746161999647;['v', 'a', 's', 'o'];0;[0.7864121000748128, 0.8664022001903504, 1.0103915000800043, 1.3936335002072155];vaso;C:\2023\REPSWITCH21092023\REPSWITCH_excgange\REPSWITCH_excgange\data/000201_REPSWITCH1_version2_list1_2023-10-06_09h41.18.571_micRespv2l1_recorded\recording_micRespv2l1_2023-10-06_09h51.16.979.wav;666.4957087000366;None;;;;;;;;;;;;;000201;001;2023-10-06_09h41.18.571;REPSWITCH1_version2_list1;2022.2.4;143.9130532565852;
REPSWITCH1/PICTURE_142.png;vaso;speak;darkblue;switch;2;T;1;2;1;2;Stim7_Set1;0;None;127;126;25;0;126;126;126;;;;;;;;;;;;;;;;;;;;;;;666.9961089000572;668.0446597000118;668.0446597000118;668.0446597000118;668.0446597000118;668.0446597000118;668.0446597000118;668.0446597000118;668.0446597000118;None;0;;;C:\2023\REPSWITCH21092023\REPSWITCH_excgange\REPSWITCH_excgange\data/000201_REPSWITCH1_version2_list1_2023-10-06_09h41.18.571_micRespv2l1_recorded\recording_micRespv2l1_2023-10-06_09h51.21.559.wav;671.0734099000692;None;671.0734099000692;671.0734099000692;671.0734099000692;671.0734099000692;671.0734099000692;671.0734099000692;671.5726402001455;;;;;;000201;001;2023-10-06_09h41.18.571;REPSWITCH1_version2_list1;2022.2.4;143.9130532565852;
REPSWITCH1/PICTURE_687.png;camisa;type;gold;filler;1;F;1;2;1;2;Stim5_Set4;1;switch;128;127;26;0;127;127;127;;;;;;;;;;;;;;;;;;;;;;;671.5726402001455;672.7675991000142;672.7675991000142;672.7675991000142;672.7675991000142;672.7675991000142;672.7675991000142;672.7675991000142;672.7675991000142;['c', 'a', 'm', 'i', 's', 'a'];0;[0.8051273000892252, 0.9171558001544327, 1.2371533000841737, 1.3171699000522494, 1.397152699995786, 1.5728058000095189];camisa;C:\2023\REPSWITCH21092023\REPSWITCH_excgange\REPSWITCH_excgange\data/000201_REPSWITCH1_version2_list1_2023-10-06_09h41.18.571_micRespv2l1_recorded\recording_micRespv2l1_2023-10-06_09h51.26.282.wav;675.802536000032;None;675.802536000032;675.802536000032;675.802536000032;675.802536000032;675.802536000032;675.802536000032;;;;;;;000201;001;2023-10-06_09h41.18.571;REPSWITCH1_version2_list1;2022.2.4;143.9130532565852;
REPSWITCH1/PICTURE_30.png;granja;type;gold;nontarget;1;NT;2;2;1;2;Stim5_Set2;0;None;129;128;27;0;128;128;128;;;;;;;;;;;;;;;;;;;;;;;676.3027270999737;677.3584024000447;677.3584024000447;677.3584024000447;677.3584024000447;677.3584024000447;677.3584024000447;677.3584024000447;677.3584024000447;['g', 'r', 'a', 'n', 'j', 'a'];0;[1.0624893999192864, 1.2545101998839527, 1.3501999999862164, 1.6707730998750776, 2.1023273000027984, 2.2623133999295533];granja;C:\2023\REPSWITCH21092023\REPSWITCH_excgange\REPSWITCH_excgange\data/000201_REPSWITCH1_version2_list1_2023-10-06_09h41.18.571_micRespv2l1_recorded\recording_micRespv2l1_2023-10-06_09h51.30.874.wav;680.3927770999726;None;680.3927770999726;680.3927770999726;680.3927770999726;680.3927770999726;680.3927770999726;680.3927770999726;;;;;;;000201;001;2023-10-06_09h41.18.571;REPSWITCH1_version2_list1;2022.2.4;143.9130532565852;
