image;correctAns;respModal;frameColor;repSwitch;sequence;target;set;block;list;exp_version;stimulus;baseline;baseline_condition;trial_no;psychopy_trial;Column1;trialsREPSWITCH.thisRepN;trialsREPSWITCH.thisTrialN;trialsREPSWITCH.thisN;trialsREPSWITCH.thisIndex;textWelcome.started;textboxInstrMain1.started;textboxInstrMain1_2.started;textboxInstrMain1_3.started;keyInstrMain.started;keyInstrMain.keys;keyInstrMain.rt;textboxInstrMain2.started;textboxInstrMain2_2.started;textboxInstrMain2_3.started;textboxInstrMain2_4.started;textboxInstrMain2_5.started;textboxInstrMain2_6.started;textboxInstrMain2_7.started;textboxInstrMain2_8.started;textboxInstrMain2_9.started;textboxInstrMain2_10.started;textboxInstrMain2_11.started;textboxInstrMain2_12.started;keyInstrMain2.started;keyInstrMain2.keys;keyInstrMain2.rt;fixationITI.started;fixationITI.stopped;polygonColour.started;polygonWhite.started;imageObject.started;polygonType.started;textInput.started;keyResp.started;micRespv2l2.started;keyResp.keys;keyResp.corr;subjResponse;micRespv2l2.clip;textBlankLoop.started;textBlankLoop.stopped;keyPause.keys;polygonColour.stopped;polygonWhite.stopped;imageObject.stopped;polygonType.stopped;textInput.stopped;keyResp.stopped;keyResp.rt;textboxPause.started;keyPause.started;keyPause.rt;textboxGoodbye.started;textboxGoodbye.stopped;participant;session;date;expName;psychopyVersion;frameRate;Column2
;;;;;;;;;;;;;;;;;;;;;14.5981956;17.0948122;17.0948122;17.0948122;17.0948122;space;6.885268;;;;;;;;;;;;;;;;;;;;;;;;;;;;;;;;;;;;;;;;;;;;200202;1;2023-11-30_15h41.36.748;REPSWITCH1_version2_list2;2022.2.4;143.8824078;
;;;;;;;;;;;;;;;;;;;;;;;;;;;;23.9984967;23.9984967;23.9984967;23.9984967;23.9984967;23.9984967;23.9984967;23.9984967;23.9984967;23.9984967;23.9984967;23.9984967;23.9984967;space;2.9799476;;;;;;;;;;;;;;;;;;;;;;;;;;;;;200202;1;2023-11-30_15h41.36.748;REPSWITCH1_version2_list2;2022.2.4;143.8824078;
REPSWITCH1/PICTURE_646.png;tronco;speak;darkblue;filler;2;F;1;3;2;2;Extra4;0;None;1;0;1;0;0;0;0;;;;;;;;;;;;;;;;;;;;;;;27.0822813;28.2629749;28.2629749;28.2629749;28.2629749;28.2629749;28.2629749;28.2629749;28.2629749;None;0;;C:\2023\REPSWITCH21092023\REPSWITCH_excgange\REPSWITCH_excgange\data/200202_REPSWITCH1_version2_list2_2023-11-30_15h41.36.748_micRespv2l2_recorded\recording_micRespv2l2_2023-11-30_15h41.55.300.wav;31.2841464;31.7842085;None;;;;;;;;;;;;;200202;1;2023-11-30_15h41.36.748;REPSWITCH1_version2_list2;2022.2.4;143.8824078;
REPSWITCH1/PICTURE_340.png;espejo;type;gold;filler;1;F;1;3;2;2;Extra1;0;None;2;1;2;0;1;1;1;;;;;;;;;;;;;;;;;;;;;;;31.7842085;32.8746913;32.8746913;32.8746913;32.8746913;32.8746913;32.8746913;32.8746913;32.8746913;['e', 's', 'p', 'e', 'j', 'o'];0;espejo;C:\2023\REPSWITCH21092023\REPSWITCH_excgange\REPSWITCH_excgange\data/200202_REPSWITCH1_version2_list2_2023-11-30_15h41.36.748_micRespv2l2_recorded\recording_micRespv2l2_2023-11-30_15h41.59.915.wav;35.9028254;;None;35.9028254;35.9028254;35.9028254;35.9028254;35.9028254;35.9028254;[1.0079006999731064, 1.264813199872151, 1.495440199971199, 1.6100230000447482, 1.8578939998988062, 2.096760099986568];;;;;;200202;1;2023-11-30_15h41.36.748;REPSWITCH1_version2_list2;2022.2.4;143.8824078;
REPSWITCH1/PICTURE_338.png;regalo;speak;darkblue;filler;2;F;1;3;2;2;Stim6_Set4;0;None;3;2;3;0;2;2;2;;;;;;;;;;;;;;;;;;;;;;;36.4028968;37.5280339;37.5280339;37.5280339;37.5280339;37.5280339;37.5280339;37.5280339;37.5280339;None;0;;C:\2023\REPSWITCH21092023\REPSWITCH_excgange\REPSWITCH_excgange\data/200202_REPSWITCH1_version2_list2_2023-11-30_15h41.36.748_micRespv2l2_recorded\recording_micRespv2l2_2023-11-30_15h42.04.567.wav;40.5492467;41.0492971;None;40.5492467;40.5492467;40.5492467;40.5492467;40.5492467;40.5492467;;;;;;;200202;1;2023-11-30_15h41.36.748;REPSWITCH1_version2_list2;2022.2.4;143.8824078;
REPSWITCH1/PICTURE_142.png;vaso;speak;darkblue;nontarget;2;NT;1;3;2;2;Stim7_Set1;1;repeat;4;3;4;0;3;3;3;;;;;;;;;;;;;;;;;;;;;;;41.0492971;42.1537133;42.1537133;42.1537133;42.1537133;42.1537133;42.1537133;42.1537133;42.1537133;None;0;;C:\2023\REPSWITCH21092023\REPSWITCH_excgange\REPSWITCH_excgange\data/200202_REPSWITCH1_version2_list2_2023-11-30_15h41.36.748_micRespv2l2_recorded\recording_micRespv2l2_2023-11-30_15h42.09.194.wav;45.1818162;;None;45.1818162;45.1818162;45.1818162;45.1818162;45.1818162;45.1818162;;;;;;;200202;1;2023-11-30_15h41.36.748;REPSWITCH1_version2_list2;2022.2.4;143.8824078;
REPSWITCH1/PICTURE_142.png;vaso;speak;darkblue;repeat;2;T;1;3;2;2;Stim7_Set1;0;None;5;4;5;0;4;4;4;;;;;;;;;;;;;;;;;;;;;;;45.6818824;46.8209276;46.8209276;46.8209276;46.8209276;46.8209276;46.8209276;46.8209276;46.8209276;None;0;;C:\2023\REPSWITCH21092023\REPSWITCH_excgange\REPSWITCH_excgange\data/200202_REPSWITCH1_version2_list2_2023-11-30_15h41.36.748_micRespv2l2_recorded\recording_micRespv2l2_2023-11-30_15h42.13.861.wav;49.8421328;50.3421959;None;49.8421328;49.8421328;49.8421328;49.8421328;49.8421328;49.8421328;;;;;;;200202;1;2023-11-30_15h41.36.748;REPSWITCH1_version2_list2;2022.2.4;143.8824078;
REPSWITCH1/PICTURE_498.png;taza;type;gold;filler;1;F;1;3;2;2;Stim4_Set4;0;None;6;5;6;0;5;5;5;;;;;;;;;;;;;;;;;;;;;;;50.3421959;51.564593;51.564593;51.564593;51.564593;51.564593;51.564593;51.564593;51.564593;['t', 'a', 'z', 'a'];0;taza;C:\2023\REPSWITCH21092023\REPSWITCH_excgange\REPSWITCH_excgange\data/200202_REPSWITCH1_version2_list2_2023-11-30_15h41.36.748_micRespv2l2_recorded\recording_micRespv2l2_2023-11-30_15h42.18.604.wav;54.58584;55.0859655;None;54.58584;54.58584;54.58584;54.58584;54.58584;54.58584;[0.9771968999411911, 1.1336660999804735, 1.3688837999943644, 1.4619173998944461];;;;;;200202;1;2023-11-30_15h41.36.748;REPSWITCH1_version2_list2;2022.2.4;143.8824078;
REPSWITCH1/PICTURE_16.png;cazador;speak;darkblue;nontarget;2;NT;1;3;2;2;Stim6_Set1;1;switch;7;6;7;0;6;6;6;;;;;;;;;;;;;;;;;;;;;;;55.0859655;56.1901895;56.1901895;56.1901895;56.1901895;56.1901895;56.1901895;56.1901895;56.1901895;None;0;;C:\2023\REPSWITCH21092023\REPSWITCH_excgange\REPSWITCH_excgange\data/200202_REPSWITCH1_version2_list2_2023-11-30_15h41.36.748_micRespv2l2_recorded\recording_micRespv2l2_2023-11-30_15h42.23.230.wav;59.2183858;59.7184485;None;59.2183858;59.2183858;59.2183858;59.2183858;59.2183858;59.2183858;;;;;;;200202;1;2023-11-30_15h41.36.748;REPSWITCH1_version2_list2;2022.2.4;143.8824078;
REPSWITCH1/PICTURE_16.png;cazador;speak;darkblue;repeat;2;T;1;3;2;2;Stim6_Set1;0;None;8;7;8;0;7;7;7;;;;;;;;;;;;;;;;;;;;;;;59.7184485;60.7603058;60.7603058;60.7603058;60.7603058;60.7603058;60.7603058;60.7603058;60.7603058;None;0;;C:\2023\REPSWITCH21092023\REPSWITCH_excgange\REPSWITCH_excgange\data/200202_REPSWITCH1_version2_list2_2023-11-30_15h41.36.748_micRespv2l2_recorded\recording_micRespv2l2_2023-11-30_15h42.27.800.wav;63.781444;64.2815401;None;63.781444;63.781444;63.781444;63.781444;63.781444;63.781444;;;;;;;200202;1;2023-11-30_15h41.36.748;REPSWITCH1_version2_list2;2022.2.4;143.8824078;
REPSWITCH1/PICTURE_719.png;baño;type;gold;filler;1;F;1;3;2;2;Stim2_Set4;0;None;9;8;9;0;8;8;8;;;;;;;;;;;;;;;;;;;;;;;64.2815401;65.4969875;65.4969875;65.4969875;65.4969875;65.4969875;65.4969875;65.4969875;65.4969875;['b', 'a', 'ñ', 'o'];0;baño;C:\2023\REPSWITCH21092023\REPSWITCH_excgange\REPSWITCH_excgange\data/200202_REPSWITCH1_version2_list2_2023-11-30_15h41.36.748_micRespv2l2_recorded\recording_micRespv2l2_2023-11-30_15h42.32.537.wav;68.51817;69.0182365;None;68.51817;68.51817;68.51817;68.51817;68.51817;68.51817;[1.3236773000098765, 1.5250513998325914, 2.064500199863687, 2.2703674000222236];;;;;;200202;1;2023-11-30_15h41.36.748;REPSWITCH1_version2_list2;2022.2.4;143.8824078;
REPSWITCH1/PICTURE_169.png;espalda;speak;darkblue;nontarget;2;NT;1;3;2;2;Stim8_Set1;0;None;10;9;10;0;9;9;9;;;;;;;;;;;;;;;;;;;;;;;69.0182365;70.1226419;70.1226419;70.1226419;70.1226419;70.1226419;70.1226419;70.1226419;70.1226419;None;0;;C:\2023\REPSWITCH21092023\REPSWITCH_excgange\REPSWITCH_excgange\data/200202_REPSWITCH1_version2_list2_2023-11-30_15h41.36.748_micRespv2l2_recorded\recording_micRespv2l2_2023-11-30_15h42.37.162.wav;73.1438104;73.6438831;None;73.1438104;73.1438104;73.1438104;73.1438104;73.1438104;73.1438104;;;;;;;200202;1;2023-11-30_15h41.36.748;REPSWITCH1_version2_list2;2022.2.4;143.8824078;
REPSWITCH1/PICTURE_169.png;espalda;type;gold;switch;1;T;1;3;2;2;Stim8_Set1;0;None;11;10;11;0;10;10;10;;;;;;;;;;;;;;;;;;;;;;;73.6438831;74.7134772;74.7134772;74.7134772;74.7134772;74.7134772;74.7134772;74.7134772;74.7134772;['e', 's', 'p', 'a', 'l', 'd', 'a'];0;espalda;C:\2023\REPSWITCH21092023\REPSWITCH_excgange\REPSWITCH_excgange\data/200202_REPSWITCH1_version2_list2_2023-11-30_15h41.36.748_micRespv2l2_recorded\recording_micRespv2l2_2023-11-30_15h42.41.753.wav;77.7346576;78.2348328;None;77.7346576;77.7346576;77.7346576;77.7346576;77.7346576;77.7346576;[0.8614816998597234, 1.0792651998344809, 1.2250869998242706, 1.3706065998412669, 1.5110863000154495, 1.8549562999978662, 1.9450244000181556];;;;;;200202;1;2023-11-30_15h41.36.748;REPSWITCH1_version2_list2;2022.2.4;143.8824078;
REPSWITCH1/PICTURE_687.png;camisa;type;gold;filler;1;F;1;3;2;2;Stim5_Set4;0;None;12;11;12;0;11;11;11;;;;;;;;;;;;;;;;;;;;;;;78.2348328;79.3529858;79.3529858;79.3529858;79.3529858;79.3529858;79.3529858;79.3529858;79.3529858;['c', 'a', 'm', 'i', 's', 'a'];0;camisa;C:\2023\REPSWITCH21092023\REPSWITCH_excgange\REPSWITCH_excgange\data/200202_REPSWITCH1_version2_list2_2023-11-30_15h41.36.748_micRespv2l2_recorded\recording_micRespv2l2_2023-11-30_15h42.46.393.wav;82.3742563;82.8742292;None;82.3742563;82.3742563;82.3742563;82.3742563;82.3742563;82.3742563;[1.1322911998722702, 1.2359704996924847, 1.5848180998582393, 1.8112372998148203, 1.9916663998737931, 2.21340289991349];;;;;;200202;1;2023-11-30_15h41.36.748;REPSWITCH1_version2_list2;2022.2.4;143.8824078;
REPSWITCH1/PICTURE_178.png;puente;type;gold;nontarget;1;NT;1;3;2;2;Stim1_Set1;1;repeat;13;12;13;0;12;12;12;;;;;;;;;;;;;;;;;;;;;;;82.8742292;83.9994429;83.9994429;83.9994429;83.9994429;83.9994429;83.9994429;83.9994429;83.9994429;['p', 'u', 'e', 'n', 't', 'e'];0;puente;C:\2023\REPSWITCH21092023\REPSWITCH_excgange\REPSWITCH_excgange\data/200202_REPSWITCH1_version2_list2_2023-11-30_15h41.36.748_micRespv2l2_recorded\recording_micRespv2l2_2023-11-30_15h42.51.040.wav;87.0275725;;None;87.0275725;87.0275725;87.0275725;87.0275725;87.0275725;87.0275725;[1.36984709976241, 1.7448366999160498, 1.9067290998063982, 2.111032399814576, 2.318336699856445, 2.416539799887687];;;;;;200202;1;2023-11-30_15h41.36.748;REPSWITCH1_version2_list2;2022.2.4;143.8824078;
REPSWITCH1/PICTURE_178.png;puente;speak;darkblue;switch;2;T;1;3;2;2;Stim1_Set1;0;None;14;13;14;0;13;13;13;;;;;;;;;;;;;;;;;;;;;;;87.5276243;88.6389118;88.6389118;88.6389118;88.6389118;88.6389118;88.6389118;88.6389118;88.6389118;None;0;;C:\2023\REPSWITCH21092023\REPSWITCH_excgange\REPSWITCH_excgange\data/200202_REPSWITCH1_version2_list2_2023-11-30_15h41.36.748_micRespv2l2_recorded\recording_micRespv2l2_2023-11-30_15h42.55.678.wav;91.6601066;92.1601631;None;91.6601066;91.6601066;91.6601066;91.6601066;91.6601066;91.6601066;;;;;;;200202;1;2023-11-30_15h41.36.748;REPSWITCH1_version2_list2;2022.2.4;143.8824078;
REPSWITCH1/PICTURE_128.png;muñeca;speak;darkblue;nontarget;2;NT;1;3;2;2;Stim4_Set1;1;repeat;15;14;15;0;14;14;14;;;;;;;;;;;;;;;;;;;;;;;92.1601631;93.3686924;93.3686924;93.3686924;93.3686924;93.3686924;93.3686924;93.3686924;93.3686924;None;0;;C:\2023\REPSWITCH21092023\REPSWITCH_excgange\REPSWITCH_excgange\data/200202_REPSWITCH1_version2_list2_2023-11-30_15h41.36.748_micRespv2l2_recorded\recording_micRespv2l2_2023-11-30_15h43.00.408.wav;96.3898939;96.8900444;None;96.3898939;96.3898939;96.3898939;96.3898939;96.3898939;96.3898939;;;;;;;200202;1;2023-11-30_15h41.36.748;REPSWITCH1_version2_list2;2022.2.4;143.8824078;
REPSWITCH1/PICTURE_128.png;muñeca;type;gold;switch;1;T;1;3;2;2;Stim4_Set1;0;None;16;15;16;0;15;15;15;;;;;;;;;;;;;;;;;;;;;;;96.8900444;98.0220637;98.0220637;98.0220637;98.0220637;98.0220637;98.0220637;98.0220637;98.0220637;['backspace', 'm', 'u', 'ñ', 'e'];0;muñe;C:\2023\REPSWITCH21092023\REPSWITCH_excgange\REPSWITCH_excgange\data/200202_REPSWITCH1_version2_list2_2023-11-30_15h41.36.748_micRespv2l2_recorded\recording_micRespv2l2_2023-11-30_15h43.05.062.wav;101.0433005;101.5433699;None;101.0433005;101.0433005;101.0433005;101.0433005;101.0433005;101.0433005;[1.8587217996828258, 2.2228854997083545, 2.437595099909231, 2.888466299744323, 2.969142999732867];;;;;;200202;1;2023-11-30_15h41.36.748;REPSWITCH1_version2_list2;2022.2.4;143.8824078;
REPSWITCH1/PICTURE_319.png;vaca;speak;darkblue;filler;2;F;1;3;2;2;Stim1_Set4;1;switch;17;16;17;0;16;16;16;;;;;;;;;;;;;;;;;;;;;;;101.5433699;102.578251;102.578251;102.578251;102.578251;102.578251;102.578251;102.578251;102.578251;None;0;;C:\2023\REPSWITCH21092023\REPSWITCH_excgange\REPSWITCH_excgange\data/200202_REPSWITCH1_version2_list2_2023-11-30_15h41.36.748_micRespv2l2_recorded\recording_micRespv2l2_2023-11-30_15h43.09.618.wav;105.5995268;106.0995199;None;105.5995268;105.5995268;105.5995268;105.5995268;105.5995268;105.5995268;;;;;;;200202;1;2023-11-30_15h41.36.748;REPSWITCH1_version2_list2;2022.2.4;143.8824078;
REPSWITCH1/PICTURE_728.png;pulpo;speak;darkblue;filler;2;F;1;3;2;2;Stim8_Set4;0;None;18;17;18;0;17;17;17;;;;;;;;;;;;;;;;;;;;;;;106.0995199;107.2315902;107.2315902;107.2315902;107.2315902;107.2315902;107.2315902;107.2315902;107.2315902;None;0;;C:\2023\REPSWITCH21092023\REPSWITCH_excgange\REPSWITCH_excgange\data/200202_REPSWITCH1_version2_list2_2023-11-30_15h41.36.748_micRespv2l2_recorded\recording_micRespv2l2_2023-11-30_15h43.14.270.wav;110.2528441;110.7529011;None;110.2528441;110.2528441;110.2528441;110.2528441;110.2528441;110.2528441;;;;;;;200202;1;2023-11-30_15h41.36.748;REPSWITCH1_version2_list2;2022.2.4;143.8824078;
REPSWITCH1/PICTURE_381.png;fresa;type;gold;nontarget;1;NT;1;3;2;2;Stim2_Set1;1;switch;19;18;19;0;18;18;18;;;;;;;;;;;;;;;;;;;;;;;110.7529011;111.7947076;111.7947076;111.7947076;111.7947076;111.7947076;111.7947076;111.7947076;111.7947076;['f', 'r', 'e', 's', 'a'];0;fresa;C:\2023\REPSWITCH21092023\REPSWITCH_excgange\REPSWITCH_excgange\data/200202_REPSWITCH1_version2_list2_2023-11-30_15h41.36.748_micRespv2l2_recorded\recording_micRespv2l2_2023-11-30_15h43.18.834.wav;114.8159234;115.3160715;None;114.8159234;114.8159234;114.8159234;114.8159234;114.8159234;114.8159234;[0.9955625999718904, 1.1443819999694824, 1.2570442999713123, 2.378551499918103, 2.6125928999390453];;;;;;200202;1;2023-11-30_15h41.36.748;REPSWITCH1_version2_list2;2022.2.4;143.8824078;
REPSWITCH1/PICTURE_381.png;fresa;type;gold;repeat;1;T;1;3;2;2;Stim2_Set1;0;None;20;19;20;0;19;19;19;;;;;;;;;;;;;;;;;;;;;;;115.3160715;116.3648059;116.3648059;116.3648059;116.3648059;116.3648059;116.3648059;116.3648059;116.3648059;['f', 'r', 'e', 's', 'a'];0;fresa;C:\2023\REPSWITCH21092023\REPSWITCH_excgange\REPSWITCH_excgange\data/200202_REPSWITCH1_version2_list2_2023-11-30_15h41.36.748_micRespv2l2_recorded\recording_micRespv2l2_2023-11-30_15h43.23.405.wav;119.3929924;;None;119.3929924;119.3929924;119.3929924;119.3929924;119.3929924;119.3929924;[1.2343397999648005, 1.3740338999778032, 1.4577566999942064, 1.6754341998603195, 1.9004427997861058];;;;;;200202;1;2023-11-30_15h41.36.748;REPSWITCH1_version2_list2;2022.2.4;143.8824078;
REPSWITCH1/PICTURE_8.png;pierna;speak;darkblue;filler;2;F;1;3;2;2;Stim3_Set4;0;None;21;20;21;0;20;20;20;;;;;;;;;;;;;;;;;;;;;;;119.8929743;121.0042283;121.0042283;121.0042283;121.0042283;121.0042283;121.0042283;121.0042283;121.0042283;None;0;;C:\2023\REPSWITCH21092023\REPSWITCH_excgange\REPSWITCH_excgange\data/200202_REPSWITCH1_version2_list2_2023-11-30_15h41.36.748_micRespv2l2_recorded\recording_micRespv2l2_2023-11-30_15h43.28.044.wav;124.0323759;;None;124.0323759;124.0323759;124.0323759;124.0323759;124.0323759;124.0323759;;;;;;;200202;1;2023-11-30_15h41.36.748;REPSWITCH1_version2_list2;2022.2.4;143.8824078;
REPSWITCH1/PICTURE_48.png;bombero;speak;darkblue;filler;2;F;1;3;2;2;Stim7_Set4;0;None;22;21;22;0;21;21;21;;;;;;;;;;;;;;;;;;;;;;;124.5325542;125.6160163;125.6160163;125.6160163;125.6160163;125.6160163;125.6160163;125.6160163;125.6160163;None;0;;C:\2023\REPSWITCH21092023\REPSWITCH_excgange\REPSWITCH_excgange\data/200202_REPSWITCH1_version2_list2_2023-11-30_15h41.36.748_micRespv2l2_recorded\recording_micRespv2l2_2023-11-30_15h43.32.656.wav;128.6441069;;None;128.6441069;128.6441069;128.6441069;128.6441069;128.6441069;128.6441069;;;;;;;200202;1;2023-11-30_15h41.36.748;REPSWITCH1_version2_list2;2022.2.4;143.8824078;
REPSWITCH1/PICTURE_135.png;traje;type;gold;nontarget;1;NT;1;3;2;2;Stim3_Set1;1;switch;23;22;23;0;22;22;22;;;;;;;;;;;;;;;;;;;;;;;129.1441715;130.2207487;130.2207487;130.2207487;130.2207487;130.2207487;130.2207487;130.2207487;130.2207487;['t', 'r', 'a', 'j', 'e'];0;traje;C:\2023\REPSWITCH21092023\REPSWITCH_excgange\REPSWITCH_excgange\data/200202_REPSWITCH1_version2_list2_2023-11-30_15h41.36.748_micRespv2l2_recorded\recording_micRespv2l2_2023-11-30_15h43.37.261.wav;133.241963;133.7420194;None;133.241963;133.241963;133.241963;133.241963;133.241963;133.241963;[1.5671087999362499, 1.7285718999337405, 1.8920016000047326, 2.165289100026712, 2.2669048998504877];;;;;;200202;1;2023-11-30_15h41.36.748;REPSWITCH1_version2_list2;2022.2.4;143.8824078;
REPSWITCH1/PICTURE_135.png;traje;type;gold;repeat;1;T;1;3;2;2;Stim3_Set1;0;None;24;23;24;0;23;23;23;;;;;;;;;;;;;;;;;;;;;;;133.7420194;134.971355;134.971355;134.971355;134.971355;134.971355;134.971355;134.971355;134.971355;['t', 'r', 'a', 'j', 'e'];0;traje;C:\2023\REPSWITCH21092023\REPSWITCH_excgange\REPSWITCH_excgange\data/200202_REPSWITCH1_version2_list2_2023-11-30_15h41.36.748_micRespv2l2_recorded\recording_micRespv2l2_2023-11-30_15h43.42.012.wav;137.9995187;;None;137.9995187;137.9995187;137.9995187;137.9995187;137.9995187;137.9995187;[0.808413399849087, 0.9392890997696668, 1.0374918999150395, 1.3647429998964071, 1.473366899881512];;;;;;200202;1;2023-11-30_15h41.36.748;REPSWITCH1_version2_list2;2022.2.4;143.8824078;
REPSWITCH1/PICTURE_19.png;pavo;type;gold;nontarget;1;NT;1;3;2;2;Stim5_Set1;1;repeat;25;24;25;0;24;24;24;;;;;;;;;;;;;;;;;;;;;;;138.4996619;139.7011081;139.7011081;139.7011081;139.7011081;139.7011081;139.7011081;139.7011081;139.7011081;['p', 'a', 'v', 'o'];0;pavo;C:\2023\REPSWITCH21092023\REPSWITCH_excgange\REPSWITCH_excgange\data/200202_REPSWITCH1_version2_list2_2023-11-30_15h41.36.748_micRespv2l2_recorded\recording_micRespv2l2_2023-11-30_15h43.46.741.wav;142.729364;;None;142.729364;142.729364;142.729364;142.729364;142.729364;142.729364;[1.129147999919951, 1.3294316998217255, 1.531751699745655, 1.8999677998945117];;;;;;200202;1;2023-11-30_15h41.36.748;REPSWITCH1_version2_list2;2022.2.4;143.8824078;
REPSWITCH1/PICTURE_19.png;pavo;speak;darkblue;switch;2;T;1;3;2;2;Stim5_Set1;0;None;26;25;26;0;25;25;25;;;;;;;;;;;;;;;;;;;;;;;143.2293745;144.3198002;144.3198002;144.3198002;144.3198002;144.3198002;144.3198002;144.3198002;144.3198002;None;0;;C:\2023\REPSWITCH21092023\REPSWITCH_excgange\REPSWITCH_excgange\data/200202_REPSWITCH1_version2_list2_2023-11-30_15h41.36.748_micRespv2l2_recorded\recording_micRespv2l2_2023-11-30_15h43.51.360.wav;147.3409839;147.8410657;None;147.3409839;147.3409839;147.3409839;147.3409839;147.3409839;147.3409839;;;;;;;200202;1;2023-11-30_15h41.36.748;REPSWITCH1_version2_list2;2022.2.4;143.8824078;
REPSWITCH1/PICTURE_142.png;vaso;speak;darkblue;filler;2;F;2;3;2;2;Stim7_Set1;0;None;27;26;27;0;26;26;26;;;;;;;;;;;;;;;;;;;;;;;147.8410657;148.9523534;148.9523534;148.9523534;148.9523534;148.9523534;148.9523534;148.9523534;148.9523534;None;0;;C:\2023\REPSWITCH21092023\REPSWITCH_excgange\REPSWITCH_excgange\data/200202_REPSWITCH1_version2_list2_2023-11-30_15h41.36.748_micRespv2l2_recorded\recording_micRespv2l2_2023-11-30_15h43.55.991.wav;151.9735778;152.4736321;None;151.9735778;151.9735778;151.9735778;151.9735778;151.9735778;151.9735778;;;;;;;200202;1;2023-11-30_15h41.36.748;REPSWITCH1_version2_list2;2022.2.4;143.8824078;
REPSWITCH1/PICTURE_135.png;traje;type;gold;filler;1;F;2;3;2;2;Stim3_Set1;0;None;28;27;28;0;27;27;27;;;;;;;;;;;;;;;;;;;;;;;152.4736321;153.515452;153.515452;153.515452;153.515452;153.515452;153.515452;153.515452;153.515452;['t', 'r', 'a', 'j', 'e'];0;traje;C:\2023\REPSWITCH21092023\REPSWITCH_excgange\REPSWITCH_excgange\data/200202_REPSWITCH1_version2_list2_2023-11-30_15h41.36.748_micRespv2l2_recorded\recording_micRespv2l2_2023-11-30_15h44.00.555.wav;156.5366883;157.036735;None;156.5366883;156.5366883;156.5366883;156.5366883;156.5366883;156.5366883;[0.831149899866432, 0.9768767999485135, 1.0605893000029027, 1.3216559998691082, 1.445072100032121];;;;;;200202;1;2023-11-30_15h41.36.748;REPSWITCH1_version2_list2;2022.2.4;143.8824078;
REPSWITCH1/PICTURE_446.png;cerdo;type;gold;nontarget;1;NT;2;3;2;2;Stim7_Set2;0;None;29;28;29;0;28;28;28;;;;;;;;;;;;;;;;;;;;;;;157.036735;158.1618765;158.1618765;158.1618765;158.1618765;158.1618765;158.1618765;158.1618765;158.1618765;['c', 'e', 'r', 'd', 'o'];0;cerdo;C:\2023\REPSWITCH21092023\REPSWITCH_excgange\REPSWITCH_excgange\data/200202_REPSWITCH1_version2_list2_2023-11-30_15h41.36.748_micRespv2l2_recorded\recording_micRespv2l2_2023-11-30_15h44.05.201.wav;161.1900201;;None;161.1900201;161.1900201;161.1900201;161.1900201;161.1900201;161.1900201;[1.043339799856767, 1.14127629972063, 1.2388622998259962, 1.414909599814564, 1.7138826998416334];;;;;;200202;1;2023-11-30_15h41.36.748;REPSWITCH1_version2_list2;2022.2.4;143.8824078;
REPSWITCH1/PICTURE_446.png;cerdo;type;gold;repeat;1;T;2;3;2;2;Stim7_Set2;0;None;30;29;30;0;29;29;29;;;;;;;;;;;;;;;;;;;;;;;161.6901009;162.7527458;162.7527458;162.7527458;162.7527458;162.7527458;162.7527458;162.7527458;162.7527458;['c', 'e', 'r', 'd', 'o'];0;cerdo;C:\2023\REPSWITCH21092023\REPSWITCH_excgange\REPSWITCH_excgange\data/200202_REPSWITCH1_version2_list2_2023-11-30_15h41.36.748_micRespv2l2_recorded\recording_micRespv2l2_2023-11-30_15h44.09.793.wav;165.7810026;;None;165.7810026;165.7810026;165.7810026;165.7810026;165.7810026;165.7810026;[0.8202040998730808, 0.9119152999483049, 0.9986170998308808, 1.16406699991785, 1.4471285997424275];;;;;;200202;1;2023-11-30_15h41.36.748;REPSWITCH1_version2_list2;2022.2.4;143.8824078;
REPSWITCH1/PICTURE_16.png;cazador;speak;darkblue;filler;2;F;2;3;2;2;Stim6_Set1;0;None;31;30;31;0;30;30;30;;;;;;;;;;;;;;;;;;;;;;;166.2810749;167.3437024;167.3437024;167.3437024;167.3437024;167.3437024;167.3437024;167.3437024;167.3437024;None;0;;C:\2023\REPSWITCH21092023\REPSWITCH_excgange\REPSWITCH_excgange\data/200202_REPSWITCH1_version2_list2_2023-11-30_15h41.36.748_micRespv2l2_recorded\recording_micRespv2l2_2023-11-30_15h44.14.384.wav;170.3718913;;None;170.3718913;170.3718913;170.3718913;170.3718913;170.3718913;170.3718913;;;;;;;200202;1;2023-11-30_15h41.36.748;REPSWITCH1_version2_list2;2022.2.4;143.8824078;
REPSWITCH1/PICTURE_552.png;manzana;type;gold;nontarget;1;NT;2;3;2;2;Stim6_Set2;1;switch;32;31;32;0;31;31;31;;;;;;;;;;;;;;;;;;;;;;;170.8718831;171.9414945;171.9414945;171.9414945;171.9414945;171.9414945;171.9414945;171.9414945;171.9414945;['m', 'a', 'n', 'z', 'a', 'n', 'a'];0;manzana;C:\2023\REPSWITCH21092023\REPSWITCH_excgange\REPSWITCH_excgange\data/200202_REPSWITCH1_version2_list2_2023-11-30_15h41.36.748_micRespv2l2_recorded\recording_micRespv2l2_2023-11-30_15h44.18.981.wav;174.9627881;175.4628302;None;174.9627881;174.9627881;174.9627881;174.9627881;174.9627881;174.9627881;[0.9226919999346137, 1.007380299968645, 1.1275915999431163, 1.3598068999126554, 1.5750855999067426, 1.7062985999509692, 1.770564700011164];;;;;;200202;1;2023-11-30_15h41.36.748;REPSWITCH1_version2_list2;2022.2.4;143.8824078;
REPSWITCH1/PICTURE_552.png;manzana;type;gold;repeat;1;T;2;3;2;2;Stim6_Set2;0;None;33;32;33;0;32;32;32;;;;;;;;;;;;;;;;;;;;;;;175.4628302;176.5601453;176.5601453;176.5601453;176.5601453;176.5601453;176.5601453;176.5601453;176.5601453;['backspace', 'm', 'a', 'n', 'z', 'a', 'n', 'a'];0;manzana;C:\2023\REPSWITCH21092023\REPSWITCH_excgange\REPSWITCH_excgange\data/200202_REPSWITCH1_version2_list2_2023-11-30_15h41.36.748_micRespv2l2_recorded\recording_micRespv2l2_2023-11-30_15h44.23.600.wav;179.5883058;;None;179.5883058;179.5883058;179.5883058;179.5883058;179.5883058;179.5883058;[1.3865103998687118, 1.7276208996772766, 1.7974607998039573, 1.9837579997256398, 2.1820947998203337, 2.381047399714589, 2.519627599744126, 2.7646786998957396];;;;;;200202;1;2023-11-30_15h41.36.748;REPSWITCH1_version2_list2;2022.2.4;143.8824078;
REPSWITCH1/PICTURE_517.png;cuerda;type;gold;nontarget;1;NT;2;3;2;2;Stim4_Set2;0;None;34;33;34;0;33;33;33;;;;;;;;;;;;;;;;;;;;;;;180.0883646;181.2551796;181.2551796;181.2551796;181.2551796;181.2551796;181.2551796;181.2551796;181.2551796;['c', 'u', 'e', 'r', 'd', 'a'];0;cuerda;C:\2023\REPSWITCH21092023\REPSWITCH_excgange\REPSWITCH_excgange\data/200202_REPSWITCH1_version2_list2_2023-11-30_15h41.36.748_micRespv2l2_recorded\recording_micRespv2l2_2023-11-30_15h44.28.296.wav;184.2833935;;None;184.2833935;184.2833935;184.2833935;184.2833935;184.2833935;184.2833935;[1.0422250998672098, 1.3305847998708487, 1.4183025998063385, 1.5691787998657674, 1.7180046997964382, 1.7804086997639388];;;;;;200202;1;2023-11-30_15h41.36.748;REPSWITCH1_version2_list2;2022.2.4;143.8824078;
REPSWITCH1/PICTURE_517.png;cuerda;speak;darkblue;switch;2;T;2;3;2;2;Stim4_Set2;0;None;35;34;35;0;34;34;34;;;;;;;;;;;;;;;;;;;;;;;184.7834276;185.9364537;185.9364537;185.9364537;185.9364537;185.9364537;185.9364537;185.9364537;185.9364537;None;0;;C:\2023\REPSWITCH21092023\REPSWITCH_excgange\REPSWITCH_excgange\data/200202_REPSWITCH1_version2_list2_2023-11-30_15h41.36.748_micRespv2l2_recorded\recording_micRespv2l2_2023-11-30_15h44.32.977.wav;188.957589;189.4576397;None;188.957589;188.957589;188.957589;188.957589;188.957589;188.957589;;;;;;;200202;1;2023-11-30_15h41.36.748;REPSWITCH1_version2_list2;2022.2.4;143.8824078;
REPSWITCH1/PICTURE_169.png;espalda;speak;darkblue;filler;2;F;2;3;2;2;Stim8_Set1;1;repeat;36;35;36;0;35;35;35;;;;;;;;;;;;;;;;;;;;;;;189.4576397;190.4994581;190.4994581;190.4994581;190.4994581;190.4994581;190.4994581;190.4994581;190.4994581;None;0;;C:\2023\REPSWITCH21092023\REPSWITCH_excgange\REPSWITCH_excgange\data/200202_REPSWITCH1_version2_list2_2023-11-30_15h41.36.748_micRespv2l2_recorded\recording_micRespv2l2_2023-11-30_15h44.37.539.wav;193.5206553;194.0207453;None;193.5206553;193.5206553;193.5206553;193.5206553;193.5206553;193.5206553;;;;;;;200202;1;2023-11-30_15h41.36.748;REPSWITCH1_version2_list2;2022.2.4;143.8824078;
REPSWITCH1/PICTURE_30.png;granja;speak;darkblue;nontarget;2;NT;2;3;2;2;Stim5_Set2;1;repeat;37;36;37;0;36;36;36;;;;;;;;;;;;;;;;;;;;;;;194.0207453;195.152809;195.152809;195.152809;195.152809;195.152809;195.152809;195.152809;195.152809;None;0;;C:\2023\REPSWITCH21092023\REPSWITCH_excgange\REPSWITCH_excgange\data/200202_REPSWITCH1_version2_list2_2023-11-30_15h41.36.748_micRespv2l2_recorded\recording_micRespv2l2_2023-11-30_15h44.42.193.wav;198.174034;198.6741087;None;198.174034;198.174034;198.174034;198.174034;198.174034;198.174034;;;;;;;200202;1;2023-11-30_15h41.36.748;REPSWITCH1_version2_list2;2022.2.4;143.8824078;
REPSWITCH1/PICTURE_30.png;granja;type;gold;switch;1;T;2;3;2;2;Stim5_Set2;0;None;38;37;38;0;37;37;37;;;;;;;;;;;;;;;;;;;;;;;198.6741087;199.7437364;199.7437364;199.7437364;199.7437364;199.7437364;199.7437364;199.7437364;199.7437364;['g', 'r', 'a', 'n', 'j', 'a'];0;granja;C:\2023\REPSWITCH21092023\REPSWITCH_excgange\REPSWITCH_excgange\data/200202_REPSWITCH1_version2_list2_2023-11-30_15h41.36.748_micRespv2l2_recorded\recording_micRespv2l2_2023-11-30_15h44.46.783.wav;202.7649191;203.2649779;None;202.7649191;202.7649191;202.7649191;202.7649191;202.7649191;202.7649191;[1.0353659999091178, 1.2199696998577565, 1.3378089999314398, 1.692621799884364, 1.8810644999612123, 1.9827156998217106];;;;;;200202;1;2023-11-30_15h41.36.748;REPSWITCH1_version2_list2;2022.2.4;143.8824078;
REPSWITCH1/PICTURE_128.png;muñeca;type;gold;filler;1;F;2;3;2;2;Stim4_Set1;1;repeat;39;38;39;0;38;38;38;;;;;;;;;;;;;;;;;;;;;;;203.2649779;204.3970951;204.3970951;204.3970951;204.3970951;204.3970951;204.3970951;204.3970951;204.3970951;['m', 'u', 'ñ', 'e', 'c', 's', 'backspace', 'a'];0;muñeca;C:\2023\REPSWITCH21092023\REPSWITCH_excgange\REPSWITCH_excgange\data/200202_REPSWITCH1_version2_list2_2023-11-30_15h41.36.748_micRespv2l2_recorded\recording_micRespv2l2_2023-11-30_15h44.51.436.wav;207.4252733;;None;207.4252733;207.4252733;207.4252733;207.4252733;207.4252733;207.4252733;[0.9550832998938859, 1.1763317997101694, 1.5245828998740762, 1.6591276999097317, 1.9162844996899366, 1.998970199842006, 2.811575799714774, 2.9364765998907387];;;;;;200202;1;2023-11-30_15h41.36.748;REPSWITCH1_version2_list2;2022.2.4;143.8824078;
REPSWITCH1/PICTURE_199.png;falda;type;gold;nontarget;1;NT;2;3;2;2;Stim8_Set2;0;None;40;39;40;0;39;39;39;;;;;;;;;;;;;;;;;;;;;;;207.9253451;209.008851;209.008851;209.008851;209.008851;209.008851;209.008851;209.008851;209.008851;['f', 'a', 'l', 'd', 'a'];0;falda;C:\2023\REPSWITCH21092023\REPSWITCH_excgange\REPSWITCH_excgange\data/200202_REPSWITCH1_version2_list2_2023-11-30_15h41.36.748_micRespv2l2_recorded\recording_micRespv2l2_2023-11-30_15h44.56.049.wav;212.0370479;;None;212.0370479;212.0370479;212.0370479;212.0370479;212.0370479;212.0370479;[0.9272443999070674, 1.028494699858129, 1.296620500041172, 1.6029519999865443, 1.6776898000389338];;;;;;200202;1;2023-11-30_15h41.36.748;REPSWITCH1_version2_list2;2022.2.4;143.8824078;
REPSWITCH1/PICTURE_199.png;falda;speak;darkblue;switch;2;T;2;3;2;2;Stim8_Set2;0;None;41;40;41;0;40;40;40;;;;;;;;;;;;;;;;;;;;;;;212.5370373;213.6761696;213.6761696;213.6761696;213.6761696;213.6761696;213.6761696;213.6761696;213.6761696;None;0;;C:\2023\REPSWITCH21092023\REPSWITCH_excgange\REPSWITCH_excgange\data/200202_REPSWITCH1_version2_list2_2023-11-30_15h41.36.748_micRespv2l2_recorded\recording_micRespv2l2_2023-11-30_15h45.00.715.wav;216.7042679;;None;216.7042679;216.7042679;216.7042679;216.7042679;216.7042679;216.7042679;;;;;;;200202;1;2023-11-30_15h41.36.748;REPSWITCH1_version2_list2;2022.2.4;143.8824078;
REPSWITCH1/PICTURE_152.png;caracol;speak;darkblue;nontarget;2;NT;2;3;2;2;Stim2_Set2;1;switch;42;41;42;0;41;41;41;;;;;;;;;;;;;;;;;;;;;;;217.2043253;218.4475668;218.4475668;218.4475668;218.4475668;218.4475668;218.4475668;218.4475668;218.4475668;None;0;;C:\2023\REPSWITCH21092023\REPSWITCH_excgange\REPSWITCH_excgange\data/200202_REPSWITCH1_version2_list2_2023-11-30_15h41.36.748_micRespv2l2_recorded\recording_micRespv2l2_2023-11-30_15h45.05.488.wav;221.4758004;;None;221.4758004;221.4758004;221.4758004;221.4758004;221.4758004;221.4758004;;;;;;;200202;1;2023-11-30_15h41.36.748;REPSWITCH1_version2_list2;2022.2.4;143.8824078;
REPSWITCH1/PICTURE_152.png;caracol;speak;darkblue;repeat;2;T;2;3;2;2;Stim2_Set2;0;None;43;42;43;0;42;42;42;;;;;;;;;;;;;;;;;;;;;;;221.9758692;223.1356956;223.1356956;223.1356956;223.1356956;223.1356956;223.1356956;223.1356956;223.1356956;None;0;;C:\2023\REPSWITCH21092023\REPSWITCH_excgange\REPSWITCH_excgange\data/200202_REPSWITCH1_version2_list2_2023-11-30_15h41.36.748_micRespv2l2_recorded\recording_micRespv2l2_2023-11-30_15h45.10.175.wav;226.1569198;226.6569669;None;226.1569198;226.1569198;226.1569198;226.1569198;226.1569198;226.1569198;;;;;;;200202;1;2023-11-30_15h41.36.748;REPSWITCH1_version2_list2;2022.2.4;143.8824078;
REPSWITCH1/PICTURE_381.png;fresa;type;gold;filler;1;F;2;3;2;2;Stim2_Set1;0;None;44;43;44;0;43;43;43;;;;;;;;;;;;;;;;;;;;;;;226.6569669;227.726589;227.726589;227.726589;227.726589;227.726589;227.726589;227.726589;227.726589;['f', 'r', 'e', 's', 'a'];0;fresa;C:\2023\REPSWITCH21092023\REPSWITCH_excgange\REPSWITCH_excgange\data/200202_REPSWITCH1_version2_list2_2023-11-30_15h41.36.748_micRespv2l2_recorded\recording_micRespv2l2_2023-11-30_15h45.14.766.wav;230.7477706;231.2478316;None;230.7477706;230.7477706;230.7477706;230.7477706;230.7477706;230.7477706;[1.2895744999404997, 1.4583970999810845, 1.6638974000234157, 1.8717469999101013, 1.988700499990955];;;;;;200202;1;2023-11-30_15h41.36.748;REPSWITCH1_version2_list2;2022.2.4;143.8824078;
REPSWITCH1/PICTURE_175.png;pintor;speak;darkblue;nontarget;2;NT;2;3;2;2;Stim1_Set2;1;switch;45;44;45;0;44;44;44;;;;;;;;;;;;;;;;;;;;;;;231.2478316;232.3174343;232.3174343;232.3174343;232.3174343;232.3174343;232.3174343;232.3174343;232.3174343;None;0;;C:\2023\REPSWITCH21092023\REPSWITCH_excgange\REPSWITCH_excgange\data/200202_REPSWITCH1_version2_list2_2023-11-30_15h41.36.748_micRespv2l2_recorded\recording_micRespv2l2_2023-11-30_15h45.19.357.wav;235.3386221;235.8387123;None;235.3386221;235.3386221;235.3386221;235.3386221;235.3386221;235.3386221;;;;;;;200202;1;2023-11-30_15h41.36.748;REPSWITCH1_version2_list2;2022.2.4;143.8824078;
REPSWITCH1/PICTURE_175.png;pintor;speak;darkblue;repeat;2;T;2;3;2;2;Stim1_Set2;0;None;46;45;46;0;45;45;45;;;;;;;;;;;;;;;;;;;;;;;235.8387123;236.9777682;236.9777682;236.9777682;236.9777682;236.9777682;236.9777682;236.9777682;236.9777682;None;0;;C:\2023\REPSWITCH21092023\REPSWITCH_excgange\REPSWITCH_excgange\data/200202_REPSWITCH1_version2_list2_2023-11-30_15h41.36.748_micRespv2l2_recorded\recording_micRespv2l2_2023-11-30_15h45.24.017.wav;239.9989858;240.4991009;None;239.9989858;239.9989858;239.9989858;239.9989858;239.9989858;239.9989858;;;;;;;200202;1;2023-11-30_15h41.36.748;REPSWITCH1_version2_list2;2022.2.4;143.8824078;
REPSWITCH1/PICTURE_178.png;puente;type;gold;filler;1;F;2;3;2;2;Stim1_Set1;0;None;47;46;47;0;46;46;46;;;;;;;;;;;;;;;;;;;;;;;240.4991009;241.7770188;241.7770188;241.7770188;241.7770188;241.7770188;241.7770188;241.7770188;241.7770188;['p', 'u', 'e', 'n', 't', 'e'];0;puente;C:\2023\REPSWITCH21092023\REPSWITCH_excgange\REPSWITCH_excgange\data/200202_REPSWITCH1_version2_list2_2023-11-30_15h41.36.748_micRespv2l2_recorded\recording_micRespv2l2_2023-11-30_15h45.28.816.wav;244.7982253;245.2983002;None;244.7982253;244.7982253;244.7982253;244.7982253;244.7982253;244.7982253;[0.9432126998435706, 1.3229204998351634, 1.4857029998674989, 1.6710862996987998, 1.8876811997033656, 1.9973023997154087];;;;;;200202;1;2023-11-30_15h41.36.748;REPSWITCH1_version2_list2;2022.2.4;143.8824078;
REPSWITCH1/PICTURE_19.png;pavo;speak;darkblue;filler;2;F;2;3;2;2;Stim5_Set1;0;None;48;47;48;0;47;47;47;;;;;;;;;;;;;;;;;;;;;;;245.2983002;246.4581425;246.4581425;246.4581425;246.4581425;246.4581425;246.4581425;246.4581425;246.4581425;None;0;;C:\2023\REPSWITCH21092023\REPSWITCH_excgange\REPSWITCH_excgange\data/200202_REPSWITCH1_version2_list2_2023-11-30_15h41.36.748_micRespv2l2_recorded\recording_micRespv2l2_2023-11-30_15h45.33.498.wav;249.4863479;;None;249.4863479;249.4863479;249.4863479;249.4863479;249.4863479;249.4863479;;;;;;;200202;1;2023-11-30_15h41.36.748;REPSWITCH1_version2_list2;2022.2.4;143.8824078;
REPSWITCH1/PICTURE_264.png;mano;speak;darkblue;nontarget;2;NT;2;3;2;2;Stim3_Set2;1;repeat;49;48;49;0;48;48;48;;;;;;;;;;;;;;;;;;;;;;;249.9864158;251.0352262;251.0352262;251.0352262;251.0352262;251.0352262;251.0352262;251.0352262;251.0352262;None;0;;C:\2023\REPSWITCH21092023\REPSWITCH_excgange\REPSWITCH_excgange\data/200202_REPSWITCH1_version2_list2_2023-11-30_15h41.36.748_micRespv2l2_recorded\recording_micRespv2l2_2023-11-30_15h45.38.075.wav;254.0563791;254.5564514;None;254.0563791;254.0563791;254.0563791;254.0563791;254.0563791;254.0563791;;;;;;;200202;1;2023-11-30_15h41.36.748;REPSWITCH1_version2_list2;2022.2.4;143.8824078;
REPSWITCH1/PICTURE_264.png;mano;type;gold;switch;1;T;2;3;2;2;Stim3_Set2;0;None;50;49;50;0;49;49;49;;;;;;;;;;;;;;;;;;;;;;;254.5564514;255.6677664;255.6677664;255.6677664;255.6677664;255.6677664;255.6677664;255.6677664;255.6677664;['m', 'a', 'n', 'o'];0;mano;C:\2023\REPSWITCH21092023\REPSWITCH_excgange\REPSWITCH_excgange\data/200202_REPSWITCH1_version2_list2_2023-11-30_15h41.36.748_micRespv2l2_recorded\recording_micRespv2l2_2023-11-30_15h45.42.708.wav;258.6958732;;None;258.6958732;258.6958732;258.6958732;258.6958732;258.6958732;258.6958732;[0.8193689999170601, 0.9073646999895573, 1.0103777998592705, 1.324688599910587];;;;;;200202;1;2023-11-30_15h41.36.748;REPSWITCH1_version2_list2;2022.2.4;143.8824078;
REPSWITCH1/PICTURE_446.png;cerdo;type;gold;filler;1;F;3;3;2;2;Stim7_Set2;0;None;51;50;51;0;50;50;50;;;;;;;;;;;;;;;;;;;;;;;259.195957;260.3350466;260.3350466;260.3350466;260.3350466;260.3350466;260.3350466;260.3350466;260.3350466;['c', 'e', 'r', 'd', 'o'];0;cerdo;C:\2023\REPSWITCH21092023\REPSWITCH_excgange\REPSWITCH_excgange\data/200202_REPSWITCH1_version2_list2_2023-11-30_15h41.36.748_micRespv2l2_recorded\recording_micRespv2l2_2023-11-30_15h45.47.375.wav;263.3561933;263.8562675;space;263.3561933;263.3561933;263.3561933;263.3561933;263.3561933;263.3561933;[0.8877085999120027, 0.9614524997305125, 1.0920278998091817, 1.219595099799335, 1.5109496999066323];263.8562675;263.8562675;18.0410377;;;200202;1;2023-11-30_15h41.36.748;REPSWITCH1_version2_list2;2022.2.4;143.8824078;
REPSWITCH1/PICTURE_235.png;aguja;type;gold;nontarget;1;NT;3;3;2;2;Stim4_Set3;1;repeat;52;51;52;0;51;51;51;;;;;;;;;;;;;;;;;;;;;;;281.9072665;282.9699569;282.9699569;282.9699569;282.9699569;282.9699569;282.9699569;282.9699569;282.9699569;['a', 'g', 'u', 'j', 'a'];0;aguja;C:\2023\REPSWITCH21092023\REPSWITCH_excgange\REPSWITCH_excgange\data/200202_REPSWITCH1_version2_list2_2023-11-30_15h41.36.748_micRespv2l2_recorded\recording_micRespv2l2_2023-11-30_15h46.10.009.wav;285.9911055;286.4911671;None;285.9911055;285.9911055;285.9911055;285.9911055;285.9911055;285.9911055;[1.13268779986538, 1.2546213997993618, 1.490022299811244, 1.9770565999206156, 2.0945756998844445];;;;;;200202;1;2023-11-30_15h41.36.748;REPSWITCH1_version2_list2;2022.2.4;143.8824078;
REPSWITCH1/PICTURE_235.png;aguja;speak;darkblue;switch;2;T;3;3;2;2;Stim4_Set3;0;None;53;52;53;0;52;52;52;;;;;;;;;;;;;;;;;;;;;;;286.4911671;287.6094487;287.6094487;287.6094487;287.6094487;287.6094487;287.6094487;287.6094487;287.6094487;None;0;;C:\2023\REPSWITCH21092023\REPSWITCH_excgange\REPSWITCH_excgange\data/200202_REPSWITCH1_version2_list2_2023-11-30_15h41.36.748_micRespv2l2_recorded\recording_micRespv2l2_2023-11-30_15h46.14.649.wav;290.6305858;291.1307657;None;290.6305858;290.6305858;290.6305858;290.6305858;290.6305858;290.6305858;;;;;;;200202;1;2023-11-30_15h41.36.748;REPSWITCH1_version2_list2;2022.2.4;143.8824078;
REPSWITCH1/PICTURE_552.png;manzana;speak;darkblue;filler;2;F;3;3;2;2;Stim6_Set2;0;None;54;53;54;0;53;53;53;;;;;;;;;;;;;;;;;;;;;;;291.1307657;292.2141496;292.2141496;292.2141496;292.2141496;292.2141496;292.2141496;292.2141496;292.2141496;None;0;;C:\2023\REPSWITCH21092023\REPSWITCH_excgange\REPSWITCH_excgange\data/200202_REPSWITCH1_version2_list2_2023-11-30_15h41.36.748_micRespv2l2_recorded\recording_micRespv2l2_2023-11-30_15h46.19.253.wav;295.2354765;295.7354497;None;295.2354765;295.2354765;295.2354765;295.2354765;295.2354765;295.2354765;;;;;;;200202;1;2023-11-30_15h41.36.748;REPSWITCH1_version2_list2;2022.2.4;143.8824078;
REPSWITCH1/PICTURE_271.png;conejo;speak;darkblue;nontarget;2;NT;3;3;2;2;Stim7_Set3;1;repeat;55;54;55;0;54;54;54;;;;;;;;;;;;;;;;;;;;;;;295.7354497;296.9022845;296.9022845;296.9022845;296.9022845;296.9022845;296.9022845;296.9022845;296.9022845;None;0;;C:\2023\REPSWITCH21092023\REPSWITCH_excgange\REPSWITCH_excgange\data/200202_REPSWITCH1_version2_list2_2023-11-30_15h41.36.748_micRespv2l2_recorded\recording_micRespv2l2_2023-11-30_15h46.23.942.wav;299.9305099;;None;299.9305099;299.9305099;299.9305099;299.9305099;299.9305099;299.9305099;;;;;;;200202;1;2023-11-30_15h41.36.748;REPSWITCH1_version2_list2;2022.2.4;143.8824078;
REPSWITCH1/PICTURE_271.png;conejo;type;gold;switch;1;T;3;3;2;2;Stim7_Set3;0;None;56;55;56;0;55;55;55;;;;;;;;;;;;;;;;;;;;;;;300.4305145;301.5696125;301.5696125;301.5696125;301.5696125;301.5696125;301.5696125;301.5696125;301.5696125;['c', 'o', 'n', 'e', 'j', 'o'];0;conejo;C:\2023\REPSWITCH21092023\REPSWITCH_excgange\REPSWITCH_excgange\data/200202_REPSWITCH1_version2_list2_2023-11-30_15h41.36.748_micRespv2l2_recorded\recording_micRespv2l2_2023-11-30_15h46.28.610.wav;304.5977321;;None;304.5977321;304.5977321;304.5977321;304.5977321;304.5977321;304.5977321;[1.0320486996788532, 1.1745229996740818, 1.400989499874413, 1.517199499765411, 1.700566299725324, 1.923768299864605];;;;;;200202;1;2023-11-30_15h41.36.748;REPSWITCH1_version2_list2;2022.2.4;143.8824078;
REPSWITCH1/PICTURE_610.png;miel;type;gold;nontarget;1;NT;3;3;2;2;Stim2_Set3;1;repeat;57;56;57;0;56;56;56;;;;;;;;;;;;;;;;;;;;;;;305.0978011;306.1118138;306.1118138;306.1118138;306.1118138;306.1118138;306.1118138;306.1118138;306.1118138;['m', 'i', 'e', 'l'];0;miel;C:\2023\REPSWITCH21092023\REPSWITCH_excgange\REPSWITCH_excgange\data/200202_REPSWITCH1_version2_list2_2023-11-30_15h41.36.748_micRespv2l2_recorded\recording_micRespv2l2_2023-11-30_15h46.33.151.wav;309.1399655;;None;309.1399655;309.1399655;309.1399655;309.1399655;309.1399655;309.1399655;[0.8081185999326408, 0.9964865997899324, 1.1071085999719799, 1.2898077999707311];;;;;;200202;1;2023-11-30_15h41.36.748;REPSWITCH1_version2_list2;2022.2.4;143.8824078;
REPSWITCH1/PICTURE_610.png;miel;speak;darkblue;switch;2;T;3;3;2;2;Stim2_Set3;0;None;58;57;58;0;57;57;57;;;;;;;;;;;;;;;;;;;;;;;309.6400319;310.7582906;310.7582906;310.7582906;310.7582906;310.7582906;310.7582906;310.7582906;310.7582906;None;0;;C:\2023\REPSWITCH21092023\REPSWITCH_excgange\REPSWITCH_excgange\data/200202_REPSWITCH1_version2_list2_2023-11-30_15h41.36.748_micRespv2l2_recorded\recording_micRespv2l2_2023-11-30_15h46.37.798.wav;313.7794851;314.2795446;None;313.7794851;313.7794851;313.7794851;313.7794851;313.7794851;313.7794851;;;;;;;200202;1;2023-11-30_15h41.36.748;REPSWITCH1_version2_list2;2022.2.4;143.8824078;
REPSWITCH1/PICTURE_199.png;falda;type;gold;filler;1;F;3;3;2;2;Stim8_Set2;0;None;59;58;59;0;58;58;58;;;;;;;;;;;;;;;;;;;;;;;314.2795446;315.3630545;315.3630545;315.3630545;315.3630545;315.3630545;315.3630545;315.3630545;315.3630545;['f', 'a', 'l', 'd', 'a'];0;falda;C:\2023\REPSWITCH21092023\REPSWITCH_excgange\REPSWITCH_excgange\data/200202_REPSWITCH1_version2_list2_2023-11-30_15h41.36.748_micRespv2l2_recorded\recording_micRespv2l2_2023-11-30_15h46.42.402.wav;318.3911762;;None;318.3911762;318.3911762;318.3911762;318.3911762;318.3911762;318.3911762;[0.9112085998058319, 1.011857699835673, 1.283915199805051, 1.593913999851793, 1.6687273997813463];;;;;;200202;1;2023-11-30_15h41.36.748;REPSWITCH1_version2_list2;2022.2.4;143.8824078;
REPSWITCH1/PICTURE_464.png;goma;speak;darkblue;nontarget;2;NT;3;3;2;2;Stim6_Set3;1;switch;60;59;60;0;59;59;59;;;;;;;;;;;;;;;;;;;;;;;318.8912715;319.9192064;319.9192064;319.9192064;319.9192064;319.9192064;319.9192064;319.9192064;319.9192064;None;0;;C:\2023\REPSWITCH21092023\REPSWITCH_excgange\REPSWITCH_excgange\data/200202_REPSWITCH1_version2_list2_2023-11-30_15h41.36.748_micRespv2l2_recorded\recording_micRespv2l2_2023-11-30_15h46.46.959.wav;322.9403787;323.4404761;None;322.9403787;322.9403787;322.9403787;322.9403787;322.9403787;322.9403787;;;;;;;200202;1;2023-11-30_15h41.36.748;REPSWITCH1_version2_list2;2022.2.4;143.8824078;
REPSWITCH1/PICTURE_464.png;goma;speak;darkblue;repeat;2;T;3;3;2;2;Stim6_Set3;0;None;61;60;61;0;60;60;60;;;;;;;;;;;;;;;;;;;;;;;323.4404761;324.5239347;324.5239347;324.5239347;324.5239347;324.5239347;324.5239347;324.5239347;324.5239347;None;0;;C:\2023\REPSWITCH21092023\REPSWITCH_excgange\REPSWITCH_excgange\data/200202_REPSWITCH1_version2_list2_2023-11-30_15h41.36.748_micRespv2l2_recorded\recording_micRespv2l2_2023-11-30_15h46.51.564.wav;327.5451508;328.0452611;None;327.5451508;327.5451508;327.5451508;327.5451508;327.5451508;327.5451508;;;;;;;200202;1;2023-11-30_15h41.36.748;REPSWITCH1_version2_list2;2022.2.4;143.8824078;
REPSWITCH1/PICTURE_152.png;caracol;type;gold;filler;1;F;3;3;2;2;Stim2_Set2;0;None;62;61;62;0;61;61;61;;;;;;;;;;;;;;;;;;;;;;;328.0452611;329.184264;329.184264;329.184264;329.184264;329.184264;329.184264;329.184264;329.184264;['c', 'r', 'backspace', 'a'];0;ca;C:\2023\REPSWITCH21092023\REPSWITCH_excgange\REPSWITCH_excgange\data/200202_REPSWITCH1_version2_list2_2023-11-30_15h41.36.748_micRespv2l2_recorded\recording_micRespv2l2_2023-11-30_15h46.56.224.wav;332.2055213;332.7055668;None;332.2055213;332.2055213;332.2055213;332.2055213;332.2055213;332.2055213;[1.0213190999347717, 1.215808599954471, 2.582173699978739, 2.814382799901068];;;;;;200202;1;2023-11-30_15h41.36.748;REPSWITCH1_version2_list2;2022.2.4;143.8824078;
REPSWITCH1/PICTURE_320.png;iglesia;speak;darkblue;nontarget;2;NT;3;3;2;2;Stim8_Set3;1;switch;63;62;63;0;62;62;62;;;;;;;;;;;;;;;;;;;;;;;332.7055668;333.7821473;333.7821473;333.7821473;333.7821473;333.7821473;333.7821473;333.7821473;333.7821473;['i'];0;i;C:\2023\REPSWITCH21092023\REPSWITCH_excgange\REPSWITCH_excgange\data/200202_REPSWITCH1_version2_list2_2023-11-30_15h41.36.748_micRespv2l2_recorded\recording_micRespv2l2_2023-11-30_15h47.00.822.wav;336.8103107;;None;336.8103107;336.8103107;336.8103107;336.8103107;336.8103107;336.8103107;[1.243050100049004];;;;;;200202;1;2023-11-30_15h41.36.748;REPSWITCH1_version2_list2;2022.2.4;143.8824078;
REPSWITCH1/PICTURE_320.png;iglesia;speak;darkblue;repeat;2;T;3;3;2;2;Stim8_Set3;0;None;64;63;64;0;63;63;63;;;;;;;;;;;;;;;;;;;;;;;337.3103564;338.4008146;338.4008146;338.4008146;338.4008146;338.4008146;338.4008146;338.4008146;338.4008146;None;0;;C:\2023\REPSWITCH21092023\REPSWITCH_excgange\REPSWITCH_excgange\data/200202_REPSWITCH1_version2_list2_2023-11-30_15h41.36.748_micRespv2l2_recorded\recording_micRespv2l2_2023-11-30_15h47.05.441.wav;341.4289368;;None;341.4289368;341.4289368;341.4289368;341.4289368;341.4289368;341.4289368;;;;;;;200202;1;2023-11-30_15h41.36.748;REPSWITCH1_version2_list2;2022.2.4;143.8824078;
REPSWITCH1/PICTURE_35.png;oreja;speak;darkblue;nontarget;2;NT;3;3;2;2;Stim5_Set3;0;None;65;64;65;0;64;64;64;;;;;;;;;;;;;;;;;;;;;;;341.9289899;342.9916326;342.9916326;342.9916326;342.9916326;342.9916326;342.9916326;342.9916326;342.9916326;None;0;;C:\2023\REPSWITCH21092023\REPSWITCH_excgange\REPSWITCH_excgange\data/200202_REPSWITCH1_version2_list2_2023-11-30_15h41.36.748_micRespv2l2_recorded\recording_micRespv2l2_2023-11-30_15h47.10.031.wav;346.0128455;346.5129137;None;346.0128455;346.0128455;346.0128455;346.0128455;346.0128455;346.0128455;;;;;;;200202;1;2023-11-30_15h41.36.748;REPSWITCH1_version2_list2;2022.2.4;143.8824078;
REPSWITCH1/PICTURE_35.png;oreja;type;gold;switch;1;T;3;3;2;2;Stim5_Set3;0;None;66;65;66;0;65;65;65;;;;;;;;;;;;;;;;;;;;;;;346.5129137;347.5755708;347.5755708;347.5755708;347.5755708;347.5755708;347.5755708;347.5755708;347.5755708;['o', 'r', 'e', 'j', 'a'];0;oreja;C:\2023\REPSWITCH21092023\REPSWITCH_excgange\REPSWITCH_excgange\data/200202_REPSWITCH1_version2_list2_2023-11-30_15h41.36.748_micRespv2l2_recorded\recording_micRespv2l2_2023-11-30_15h47.14.615.wav;350.5967909;351.0968865;None;350.5967909;350.5967909;350.5967909;350.5967909;350.5967909;350.5967909;[0.8738538997713476, 1.2107548997737467, 1.3079787997994572, 1.5282151997089386, 1.66677839984186];;;;;;200202;1;2023-11-30_15h41.36.748;REPSWITCH1_version2_list2;2022.2.4;143.8824078;
REPSWITCH1/PICTURE_517.png;cuerda;speak;darkblue;filler;2;F;3;3;2;2;Stim4_Set2;0;None;67;66;67;0;66;66;66;;;;;;;;;;;;;;;;;;;;;;;351.0968865;352.2568028;352.2568028;352.2568028;352.2568028;352.2568028;352.2568028;352.2568028;352.2568028;None;0;;C:\2023\REPSWITCH21092023\REPSWITCH_excgange\REPSWITCH_excgange\data/200202_REPSWITCH1_version2_list2_2023-11-30_15h41.36.748_micRespv2l2_recorded\recording_micRespv2l2_2023-11-30_15h47.19.296.wav;355.2779577;355.7780094;None;355.2779577;355.2779577;355.2779577;355.2779577;355.2779577;355.2779577;;;;;;;200202;1;2023-11-30_15h41.36.748;REPSWITCH1_version2_list2;2022.2.4;143.8824078;
REPSWITCH1/PICTURE_30.png;granja;type;gold;filler;1;F;3;3;2;2;Stim5_Set2;1;switch;68;67;68;0;67;67;67;;;;;;;;;;;;;;;;;;;;;;;355.7780094;356.8129902;356.8129902;356.8129902;356.8129902;356.8129902;356.8129902;356.8129902;356.8129902;['g', 'r', 'a', 'n', 'j', 'a'];0;granja;C:\2023\REPSWITCH21092023\REPSWITCH_excgange\REPSWITCH_excgange\data/200202_REPSWITCH1_version2_list2_2023-11-30_15h41.36.748_micRespv2l2_recorded\recording_micRespv2l2_2023-11-30_15h47.23.852.wav;359.8341;360.3342715;None;359.8341;359.8341;359.8341;359.8341;359.8341;359.8341;[0.927901899907738, 1.1205141998361796, 1.2451279999222606, 1.597956399898976, 1.7964123997371644, 1.9180843997746706];;;;;;200202;1;2023-11-30_15h41.36.748;REPSWITCH1_version2_list2;2022.2.4;143.8824078;
REPSWITCH1/PICTURE_242.png;cartero;type;gold;nontarget;1;NT;3;3;2;2;Stim3_Set3;0;None;69;68;69;0;68;68;68;;;;;;;;;;;;;;;;;;;;;;;360.3342715;361.4593432;361.4593432;361.4593432;361.4593432;361.4593432;361.4593432;361.4593432;361.4593432;['c', 'a', 'r', 't', 'e', 'r', 'o'];0;cartero;C:\2023\REPSWITCH21092023\REPSWITCH_excgange\REPSWITCH_excgange\data/200202_REPSWITCH1_version2_list2_2023-11-30_15h41.36.748_micRespv2l2_recorded\recording_micRespv2l2_2023-11-30_15h47.28.499.wav;364.4805798;364.9806417;None;364.4805798;364.4805798;364.4805798;364.4805798;364.4805798;364.4805798;[1.1265662999358028, 1.2336045999545604, 1.3530727997422218, 1.5265118998941034, 1.6191803999245167, 1.8265115998219699, 2.0458432999439538];;;;;;200202;1;2023-11-30_15h41.36.748;REPSWITCH1_version2_list2;2022.2.4;143.8824078;
REPSWITCH1/PICTURE_242.png;cartero;type;gold;repeat;1;T;3;3;2;2;Stim3_Set3;0;None;70;69;70;0;69;69;69;;;;;;;;;;;;;;;;;;;;;;;364.9806417;366.0155317;366.0155317;366.0155317;366.0155317;366.0155317;366.0155317;366.0155317;366.0155317;['c', 'a', 'r', 't', 'e', 'r', 'o'];0;cartero;C:\2023\REPSWITCH21092023\REPSWITCH_excgange\REPSWITCH_excgange\data/200202_REPSWITCH1_version2_list2_2023-11-30_15h41.36.748_micRespv2l2_recorded\recording_micRespv2l2_2023-11-30_15h47.33.056.wav;369.0436723;;None;369.0436723;369.0436723;369.0436723;369.0436723;369.0436723;369.0436723;[0.8178950999863446, 0.9265329998452216, 1.045115599874407, 1.2106015000026673, 1.3184131998568773, 1.5226519999559969, 1.7150079000275582];;;;;;200202;1;2023-11-30_15h41.36.748;REPSWITCH1_version2_list2;2022.2.4;143.8824078;
REPSWITCH1/PICTURE_264.png;mano;speak;darkblue;filler;2;F;3;3;2;2;Stim3_Set2;1;switch;71;70;71;0;70;70;70;;;;;;;;;;;;;;;;;;;;;;;369.5438176;370.5925466;370.5925466;370.5925466;370.5925466;370.5925466;370.5925466;370.5925466;370.5925466;None;0;;C:\2023\REPSWITCH21092023\REPSWITCH_excgange\REPSWITCH_excgange\data/200202_REPSWITCH1_version2_list2_2023-11-30_15h41.36.748_micRespv2l2_recorded\recording_micRespv2l2_2023-11-30_15h47.37.633.wav;373.6206632;;None;373.6206632;373.6206632;373.6206632;373.6206632;373.6206632;373.6206632;;;;;;;200202;1;2023-11-30_15h41.36.748;REPSWITCH1_version2_list2;2022.2.4;143.8824078;
REPSWITCH1/PICTURE_576.png;guante;type;gold;nontarget;1;NT;3;3;2;2;Stim1_Set3;1;switch;72;71;72;0;71;71;71;;;;;;;;;;;;;;;;;;;;;;;374.1207262;375.1417105;375.1417105;375.1417105;375.1417105;375.1417105;375.1417105;375.1417105;375.1417105;['g', 'u', 'a', 'n', 't', 'e'];0;guante;C:\2023\REPSWITCH21092023\REPSWITCH_excgange\REPSWITCH_excgange\data/200202_REPSWITCH1_version2_list2_2023-11-30_15h41.36.748_micRespv2l2_recorded\recording_micRespv2l2_2023-11-30_15h47.42.181.wav;378.1629146;378.6629697;None;378.1629146;378.1629146;378.1629146;378.1629146;378.1629146;378.1629146;[0.9829138999339193, 1.1881881998851895, 1.3147839999292046, 1.4652727998327464, 1.7004922998603433, 1.7972329000476748];;;;;;200202;1;2023-11-30_15h41.36.748;REPSWITCH1_version2_list2;2022.2.4;143.8824078;
REPSWITCH1/PICTURE_576.png;guante;type;gold;repeat;1;T;3;3;2;2;Stim1_Set3;0;None;73;72;73;0;72;72;72;;;;;;;;;;;;;;;;;;;;;;;378.6629697;379.7465194;379.7465194;379.7465194;379.7465194;379.7465194;379.7465194;379.7465194;379.7465194;['g', 'u', 'a', 'n', 't', 'e'];0;guante;C:\2023\REPSWITCH21092023\REPSWITCH_excgange\REPSWITCH_excgange\data/200202_REPSWITCH1_version2_list2_2023-11-30_15h41.36.748_micRespv2l2_recorded\recording_micRespv2l2_2023-11-30_15h47.46.786.wav;382.7677295;383.2677669;None;382.7677295;382.7677295;382.7677295;382.7677295;382.7677295;382.7677295;[0.8234701997134835, 1.025853999890387, 1.1623854998033494, 1.3142049997113645, 1.5277961997780949, 1.601551199797541];;;;;;200202;1;2023-11-30_15h41.36.748;REPSWITCH1_version2_list2;2022.2.4;143.8824078;
REPSWITCH1/PICTURE_175.png;pintor;speak;darkblue;filler;2;F;3;3;2;2;Stim1_Set2;0;None;74;73;74;0;73;73;73;;;;;;;;;;;;;;;;;;;;;;;383.2677669;384.3165403;384.3165403;384.3165403;384.3165403;384.3165403;384.3165403;384.3165403;384.3165403;None;0;;C:\2023\REPSWITCH21092023\REPSWITCH_excgange\REPSWITCH_excgange\data/200202_REPSWITCH1_version2_list2_2023-11-30_15h41.36.748_micRespv2l2_recorded\recording_micRespv2l2_2023-11-30_15h47.51.356.wav;387.3377457;387.8378029;None;387.3377457;387.3377457;387.3377457;387.3377457;387.3377457;387.3377457;;;;;;;200202;1;2023-11-30_15h41.36.748;REPSWITCH1_version2_list2;2022.2.4;143.8824078;
REPSWITCH1/PICTURE_498.png;taza;type;gold;nontarget;1;NT;4;3;2;2;Stim4_Set4;0;None;75;74;75;0;74;74;74;;;;;;;;;;;;;;;;;;;;;;;387.8378029;388.8795897;388.8795897;388.8795897;388.8795897;388.8795897;388.8795897;388.8795897;388.8795897;['t', 'a', 'z', 'a'];0;taza;C:\2023\REPSWITCH21092023\REPSWITCH_excgange\REPSWITCH_excgange\data/200202_REPSWITCH1_version2_list2_2023-11-30_15h41.36.748_micRespv2l2_recorded\recording_micRespv2l2_2023-11-30_15h47.55.919.wav;391.9008244;392.4008864;None;391.9008244;391.9008244;391.9008244;391.9008244;391.9008244;391.9008244;[1.0253848999273032, 1.1310665998607874, 1.332082999870181, 1.4290781000163406];;;;;;200202;1;2023-11-30_15h41.36.748;REPSWITCH1_version2_list2;2022.2.4;143.8824078;
REPSWITCH1/PICTURE_498.png;taza;type;gold;repeat;1;T;4;3;2;2;Stim4_Set4;0;None;76;75;76;0;75;75;75;;;;;;;;;;;;;;;;;;;;;;;392.4008864;393.44269;393.44269;393.44269;393.44269;393.44269;393.44269;393.44269;393.44269;['t', 'a', 'z', 'a'];0;taza;C:\2023\REPSWITCH21092023\REPSWITCH_excgange\REPSWITCH_excgange\data/200202_REPSWITCH1_version2_list2_2023-11-30_15h41.36.748_micRespv2l2_recorded\recording_micRespv2l2_2023-11-30_15h48.00.483.wav;396.4639174;396.9639761;None;396.4639174;396.4639174;396.4639174;396.4639174;396.4639174;396.4639174;[0.9662523998413235, 1.0689103999175131, 1.2585591999813914, 1.3641970998141915];;;;;;200202;1;2023-11-30_15h41.36.748;REPSWITCH1_version2_list2;2022.2.4;143.8824078;
REPSWITCH1/PICTURE_235.png;aguja;speak;darkblue;filler;2;F;4;3;2;2;Stim4_Set3;0;None;77;76;77;0;76;76;76;;;;;;;;;;;;;;;;;;;;;;;396.9639761;398.0196769;398.0196769;398.0196769;398.0196769;398.0196769;398.0196769;398.0196769;398.0196769;None;0;;C:\2023\REPSWITCH21092023\REPSWITCH_excgange\REPSWITCH_excgange\data/200202_REPSWITCH1_version2_list2_2023-11-30_15h41.36.748_micRespv2l2_recorded\recording_micRespv2l2_2023-11-30_15h48.05.060.wav;401.0409571;401.5409713;None;401.0409571;401.0409571;401.0409571;401.0409571;401.0409571;401.0409571;;;;;;;200202;1;2023-11-30_15h41.36.748;REPSWITCH1_version2_list2;2022.2.4;143.8824078;
REPSWITCH1/PICTURE_338.png;regalo;type;gold;nontarget;1;NT;4;3;2;2;Stim6_Set4;1;switch;78;77;78;0;77;77;77;;;;;;;;;;;;;;;;;;;;;;;401.5409713;402.7704054;402.7704054;402.7704054;402.7704054;402.7704054;402.7704054;402.7704054;402.7704054;['r', 'e', 'g', 'a', 'l', 'o'];0;regalo;C:\2023\REPSWITCH21092023\REPSWITCH_excgange\REPSWITCH_excgange\data/200202_REPSWITCH1_version2_list2_2023-11-30_15h41.36.748_micRespv2l2_recorded\recording_micRespv2l2_2023-11-30_15h48.09.810.wav;405.791552;406.2916001;None;405.791552;405.791552;405.791552;405.791552;405.791552;405.791552;[0.9052331000566483, 0.977930000051856, 1.094529699999839, 1.2981530998367816, 1.6163480998948216, 1.7877772999927402];;;;;;200202;1;2023-11-30_15h41.36.748;REPSWITCH1_version2_list2;2022.2.4;143.8824078;
REPSWITCH1/PICTURE_338.png;regalo;speak;darkblue;switch;2;T;4;3;2;2;Stim6_Set4;0;None;79;78;79;0;78;78;78;;;;;;;;;;;;;;;;;;;;;;;406.2916001;407.4445522;407.4445522;407.4445522;407.4445522;407.4445522;407.4445522;407.4445522;407.4445522;None;0;;C:\2023\REPSWITCH21092023\REPSWITCH_excgange\REPSWITCH_excgange\data/200202_REPSWITCH1_version2_list2_2023-11-30_15h41.36.748_micRespv2l2_recorded\recording_micRespv2l2_2023-11-30_15h48.14.485.wav;410.4727099;;None;410.4727099;410.4727099;410.4727099;410.4727099;410.4727099;410.4727099;;;;;;;200202;1;2023-11-30_15h41.36.748;REPSWITCH1_version2_list2;2022.2.4;143.8824078;
REPSWITCH1/PICTURE_719.png;baño;speak;darkblue;nontarget;2;NT;4;3;2;2;Stim2_Set4;1;repeat;80;79;80;0;79;79;79;;;;;;;;;;;;;;;;;;;;;;;410.9727672;412.0076224;412.0076224;412.0076224;412.0076224;412.0076224;412.0076224;412.0076224;412.0076224;None;0;;C:\2023\REPSWITCH21092023\REPSWITCH_excgange\REPSWITCH_excgange\data/200202_REPSWITCH1_version2_list2_2023-11-30_15h41.36.748_micRespv2l2_recorded\recording_micRespv2l2_2023-11-30_15h48.19.048.wav;415.0358791;;None;415.0358791;415.0358791;415.0358791;415.0358791;415.0358791;415.0358791;;;;;;;200202;1;2023-11-30_15h41.36.748;REPSWITCH1_version2_list2;2022.2.4;143.8824078;
REPSWITCH1/PICTURE_719.png;baño;speak;darkblue;repeat;2;T;4;3;2;2;Stim2_Set4;0;None;81;80;81;0;80;80;80;;;;;;;;;;;;;;;;;;;;;;;415.5358797;416.5985248;416.5985248;416.5985248;416.5985248;416.5985248;416.5985248;416.5985248;416.5985248;None;0;;C:\2023\REPSWITCH21092023\REPSWITCH_excgange\REPSWITCH_excgange\data/200202_REPSWITCH1_version2_list2_2023-11-30_15h41.36.748_micRespv2l2_recorded\recording_micRespv2l2_2023-11-30_15h48.23.638.wav;419.6197532;420.1197775;None;419.6197532;419.6197532;419.6197532;419.6197532;419.6197532;419.6197532;;;;;;;200202;1;2023-11-30_15h41.36.748;REPSWITCH1_version2_list2;2022.2.4;143.8824078;
REPSWITCH1/PICTURE_271.png;conejo;type;gold;filler;1;F;4;3;2;2;Stim7_Set3;0;None;82;81;82;0;81;81;81;;;;;;;;;;;;;;;;;;;;;;;420.1197775;421.2797466;421.2797466;421.2797466;421.2797466;421.2797466;421.2797466;421.2797466;421.2797466;['c', 'o', 'n', 'e', 'j', 'o'];0;conejo;C:\2023\REPSWITCH21092023\REPSWITCH_excgange\REPSWITCH_excgange\data/200202_REPSWITCH1_version2_list2_2023-11-30_15h41.36.748_micRespv2l2_recorded\recording_micRespv2l2_2023-11-30_15h48.28.320.wav;424.3078425;;None;424.3078425;424.3078425;424.3078425;424.3078425;424.3078425;424.3078425;[0.8931831000372767, 1.0855188998393714, 1.2997995999176055, 1.4184027998708189, 1.5559054999612272, 1.8051835000514984];;;;;;200202;1;2023-11-30_15h41.36.748;REPSWITCH1_version2_list2;2022.2.4;143.8824078;
REPSWITCH1/PICTURE_610.png;miel;speak;darkblue;filler;2;F;4;3;2;2;Stim2_Set3;0;None;83;82;83;0;82;82;82;;;;;;;;;;;;;;;;;;;;;;;424.8079122;425.8636138;425.8636138;425.8636138;425.8636138;425.8636138;425.8636138;425.8636138;425.8636138;None;0;;C:\2023\REPSWITCH21092023\REPSWITCH_excgange\REPSWITCH_excgange\data/200202_REPSWITCH1_version2_list2_2023-11-30_15h41.36.748_micRespv2l2_recorded\recording_micRespv2l2_2023-11-30_15h48.32.904.wav;428.8918803;;None;428.8918803;428.8918803;428.8918803;428.8918803;428.8918803;428.8918803;;;;;;;200202;1;2023-11-30_15h41.36.748;REPSWITCH1_version2_list2;2022.2.4;143.8824078;
REPSWITCH1/PICTURE_687.png;camisa;speak;darkblue;nontarget;2;NT;4;3;2;2;Stim5_Set4;1;repeat;84;83;84;0;83;83;83;;;;;;;;;;;;;;;;;;;;;;;429.3918506;430.48923;430.48923;430.48923;430.48923;430.48923;430.48923;430.48923;430.48923;None;0;;C:\2023\REPSWITCH21092023\REPSWITCH_excgange\REPSWITCH_excgange\data/200202_REPSWITCH1_version2_list2_2023-11-30_15h41.36.748_micRespv2l2_recorded\recording_micRespv2l2_2023-11-30_15h48.37.529.wav;433.5104711;434.0105225;None;433.5104711;433.5104711;433.5104711;433.5104711;433.5104711;433.5104711;;;;;;;200202;1;2023-11-30_15h41.36.748;REPSWITCH1_version2_list2;2022.2.4;143.8824078;
REPSWITCH1/PICTURE_687.png;camisa;type;gold;switch;1;T;4;3;2;2;Stim5_Set4;0;None;85;84;85;0;84;84;84;;;;;;;;;;;;;;;;;;;;;;;434.0105225;435.1009808;435.1009808;435.1009808;435.1009808;435.1009808;435.1009808;435.1009808;435.1009808;['c', 'a', 'm', 'i', 's', 'a'];0;camisa;C:\2023\REPSWITCH21092023\REPSWITCH_excgange\REPSWITCH_excgange\data/200202_REPSWITCH1_version2_list2_2023-11-30_15h41.36.748_micRespv2l2_recorded\recording_micRespv2l2_2023-11-30_15h48.42.140.wav;438.1222424;438.6222348;None;438.1222424;438.1222424;438.1222424;438.1222424;438.1222424;438.1222424;[1.0469265999272466, 1.114726800005883, 1.4864564000163227, 1.6799161999952048, 1.7954484999645501, 2.005159999942407];;;;;;200202;1;2023-11-30_15h41.36.748;REPSWITCH1_version2_list2;2022.2.4;143.8824078;
REPSWITCH1/PICTURE_319.png;vaca;type;gold;nontarget;1;NT;4;3;2;2;Stim1_Set4;0;None;86;85;86;0;85;85;85;;;;;;;;;;;;;;;;;;;;;;;438.6222348;439.7751566;439.7751566;439.7751566;439.7751566;439.7751566;439.7751566;439.7751566;439.7751566;['v', 'a', 'c', 'a'];0;vaca;C:\2023\REPSWITCH21092023\REPSWITCH_excgange\REPSWITCH_excgange\data/200202_REPSWITCH1_version2_list2_2023-11-30_15h41.36.748_micRespv2l2_recorded\recording_micRespv2l2_2023-11-30_15h48.46.814.wav;442.7964028;443.2964493;None;442.7964028;442.7964028;442.7964028;442.7964028;442.7964028;442.7964028;[0.7954577999189496, 0.8751421000342816, 1.0003706000279635, 1.103071300080046];;;;;;200202;1;2023-11-30_15h41.36.748;REPSWITCH1_version2_list2;2022.2.4;143.8824078;
REPSWITCH1/PICTURE_319.png;vaca;speak;darkblue;switch;2;T;4;3;2;2;Stim1_Set4;0;None;87;86;87;0;86;86;86;;;;;;;;;;;;;;;;;;;;;;;443.2964493;444.338278;444.338278;444.338278;444.338278;444.338278;444.338278;444.338278;444.338278;None;0;;C:\2023\REPSWITCH21092023\REPSWITCH_excgange\REPSWITCH_excgange\data/200202_REPSWITCH1_version2_list2_2023-11-30_15h41.36.748_micRespv2l2_recorded\recording_micRespv2l2_2023-11-30_15h48.51.379.wav;447.3664197;;None;447.3664197;447.3664197;447.3664197;447.3664197;447.3664197;447.3664197;;;;;;;200202;1;2023-11-30_15h41.36.748;REPSWITCH1_version2_list2;2022.2.4;143.8824078;
REPSWITCH1/PICTURE_464.png;goma;type;gold;filler;1;F;4;3;2;2;Stim6_Set3;1;switch;88;87;88;0;87;87;87;;;;;;;;;;;;;;;;;;;;;;;447.8664969;448.9638915;448.9638915;448.9638915;448.9638915;448.9638915;448.9638915;448.9638915;448.9638915;['g', 'o', 'm', 'a'];0;goma;C:\2023\REPSWITCH21092023\REPSWITCH_excgange\REPSWITCH_excgange\data/200202_REPSWITCH1_version2_list2_2023-11-30_15h41.36.748_micRespv2l2_recorded\recording_micRespv2l2_2023-11-30_15h48.56.003.wav;451.9850762;452.4851688;None;451.9850762;451.9850762;451.9850762;451.9850762;451.9850762;451.9850762;[0.8762627998366952, 1.1652697997633368, 1.3694255996961147, 1.4601754997856915];;;;;;200202;1;2023-11-30_15h41.36.748;REPSWITCH1_version2_list2;2022.2.4;143.8824078;
REPSWITCH1/PICTURE_728.png;pulpo;speak;darkblue;nontarget;2;NT;4;3;2;2;Stim8_Set4;1;switch;89;88;89;0;88;88;88;;;;;;;;;;;;;;;;;;;;;;;452.4851688;453.6867325;453.6867325;453.6867325;453.6867325;453.6867325;453.6867325;453.6867325;453.6867325;None;0;;C:\2023\REPSWITCH21092023\REPSWITCH_excgange\REPSWITCH_excgange\data/200202_REPSWITCH1_version2_list2_2023-11-30_15h41.36.748_micRespv2l2_recorded\recording_micRespv2l2_2023-11-30_15h49.00.726.wav;456.7079276;457.2079836;None;456.7079276;456.7079276;456.7079276;456.7079276;456.7079276;456.7079276;;;;;;;200202;1;2023-11-30_15h41.36.748;REPSWITCH1_version2_list2;2022.2.4;143.8824078;
REPSWITCH1/PICTURE_728.png;pulpo;speak;darkblue;repeat;2;T;4;3;2;2;Stim8_Set4;0;None;90;89;90;0;89;89;89;;;;;;;;;;;;;;;;;;;;;;;457.2079836;458.3609936;458.3609936;458.3609936;458.3609936;458.3609936;458.3609936;458.3609936;458.3609936;None;0;;C:\2023\REPSWITCH21092023\REPSWITCH_excgange\REPSWITCH_excgange\data/200202_REPSWITCH1_version2_list2_2023-11-30_15h41.36.748_micRespv2l2_recorded\recording_micRespv2l2_2023-11-30_15h49.05.400.wav;461.3821312;461.8822322;None;461.3821312;461.3821312;461.3821312;461.3821312;461.3821312;461.3821312;;;;;;;200202;1;2023-11-30_15h41.36.748;REPSWITCH1_version2_list2;2022.2.4;143.8824078;
REPSWITCH1/PICTURE_320.png;iglesia;type;gold;filler;1;F;4;3;2;2;Stim8_Set3;0;None;91;90;91;0;90;90;90;;;;;;;;;;;;;;;;;;;;;;;461.8822322;463.0352253;463.0352253;463.0352253;463.0352253;463.0352253;463.0352253;463.0352253;463.0352253;['i', 'g', 'l', 'e', 's', 'i', 'a'];0;iglesia;C:\2023\REPSWITCH21092023\REPSWITCH_excgange\REPSWITCH_excgange\data/200202_REPSWITCH1_version2_list2_2023-11-30_15h41.36.748_micRespv2l2_recorded\recording_micRespv2l2_2023-11-30_15h49.10.075.wav;466.0563668;466.5564546;None;466.0563668;466.0563668;466.0563668;466.0563668;466.0563668;466.0563668;[0.8547049998305738, 1.109205299988389, 1.5589213999919593, 1.7062787998002023, 1.939508199924603, 2.1187282998580486, 2.2695432999171317];;;;;;200202;1;2023-11-30_15h41.36.748;REPSWITCH1_version2_list2;2022.2.4;143.8824078;
REPSWITCH1/PICTURE_576.png;guante;speak;darkblue;filler;2;F;4;3;2;2;Stim1_Set3;0;None;92;91;92;0;91;91;91;;;;;;;;;;;;;;;;;;;;;;;466.5564546;467.7302056;467.7302056;467.7302056;467.7302056;467.7302056;467.7302056;467.7302056;467.7302056;None;0;;C:\2023\REPSWITCH21092023\REPSWITCH_excgange\REPSWITCH_excgange\data/200202_REPSWITCH1_version2_list2_2023-11-30_15h41.36.748_micRespv2l2_recorded\recording_micRespv2l2_2023-11-30_15h49.14.770.wav;470.7515313;471.2515383;None;470.7515313;470.7515313;470.7515313;470.7515313;470.7515313;470.7515313;;;;;;;200202;1;2023-11-30_15h41.36.748;REPSWITCH1_version2_list2;2022.2.4;143.8824078;
REPSWITCH1/PICTURE_8.png;pierna;speak;darkblue;nontarget;2;NT;4;3;2;2;Stim3_Set4;1;repeat;93;92;93;0;92;92;92;;;;;;;;;;;;;;;;;;;;;;;471.2515383;472.4530862;472.4530862;472.4530862;472.4530862;472.4530862;472.4530862;472.4530862;472.4530862;None;0;;C:\2023\REPSWITCH21092023\REPSWITCH_excgange\REPSWITCH_excgange\data/200202_REPSWITCH1_version2_list2_2023-11-30_15h41.36.748_micRespv2l2_recorded\recording_micRespv2l2_2023-11-30_15h49.19.493.wav;475.4742665;475.9744355;None;475.4742665;475.4742665;475.4742665;475.4742665;475.4742665;475.4742665;;;;;;;200202;1;2023-11-30_15h41.36.748;REPSWITCH1_version2_list2;2022.2.4;143.8824078;
REPSWITCH1/PICTURE_8.png;pierna;type;gold;switch;1;T;4;3;2;2;Stim3_Set4;0;None;94;93;94;0;93;93;93;;;;;;;;;;;;;;;;;;;;;;;475.9744355;477.0856053;477.0856053;477.0856053;477.0856053;477.0856053;477.0856053;477.0856053;477.0856053;['p', 'i', 'e', 'r', 'n', 'a'];0;pierna;C:\2023\REPSWITCH21092023\REPSWITCH_excgange\REPSWITCH_excgange\data/200202_REPSWITCH1_version2_list2_2023-11-30_15h41.36.748_micRespv2l2_recorded\recording_micRespv2l2_2023-11-30_15h49.24.125.wav;480.1068899;480.606884;None;480.1068899;480.1068899;480.1068899;480.1068899;480.1068899;480.1068899;[1.045285499887541, 1.2619218998588622, 1.4354683998972178, 1.5640386999584734, 1.954205899965018, 2.0359034999273717];;;;;;200202;1;2023-11-30_15h41.36.748;REPSWITCH1_version2_list2;2022.2.4;143.8824078;
REPSWITCH1/PICTURE_673.png;tenedor;speak;darkblue;filler;2;F;4;3;2;2;Extra5;0;None;95;94;95;0;94;94;94;;;;;;;;;;;;;;;;;;;;;;;480.606884;481.6764713;481.6764713;481.6764713;481.6764713;481.6764713;481.6764713;481.6764713;481.6764713;None;0;;C:\2023\REPSWITCH21092023\REPSWITCH_excgange\REPSWITCH_excgange\data/200202_REPSWITCH1_version2_list2_2023-11-30_15h41.36.748_micRespv2l2_recorded\recording_micRespv2l2_2023-11-30_15h49.28.717.wav;484.7047552;;None;484.7047552;484.7047552;484.7047552;484.7047552;484.7047552;484.7047552;;;;;;;200202;1;2023-11-30_15h41.36.748;REPSWITCH1_version2_list2;2022.2.4;143.8824078;
REPSWITCH1/PICTURE_35.png;oreja;type;gold;filler;1;F;4;3;2;2;Stim5_Set3;1;switch;96;95;96;0;95;95;95;;;;;;;;;;;;;;;;;;;;;;;485.2047354;486.2395761;486.2395761;486.2395761;486.2395761;486.2395761;486.2395761;486.2395761;486.2395761;['o', 'r', 'e', 'j', 'a'];0;oreja;C:\2023\REPSWITCH21092023\REPSWITCH_excgange\REPSWITCH_excgange\data/200202_REPSWITCH1_version2_list2_2023-11-30_15h41.36.748_micRespv2l2_recorded\recording_micRespv2l2_2023-11-30_15h49.33.279.wav;489.2608606;489.7608675;None;489.2608606;489.2608606;489.2608606;489.2608606;489.2608606;489.2608606;[1.0416298999916762, 1.4031952999066561, 1.4719997998327017, 1.718776699854061, 1.8448720998130739];;;;;;200202;1;2023-11-30_15h41.36.748;REPSWITCH1_version2_list2;2022.2.4;143.8824078;
REPSWITCH1/PICTURE_663.png;columna;speak;darkblue;filler;2;F;4;3;2;2;Extra6;0;None;97;96;97;0;96;96;96;;;;;;;;;;;;;;;;;;;;;;;489.7608675;490.7818757;490.7818757;490.7818757;490.7818757;490.7818757;490.7818757;490.7818757;490.7818757;None;0;;C:\2023\REPSWITCH21092023\REPSWITCH_excgange\REPSWITCH_excgange\data/200202_REPSWITCH1_version2_list2_2023-11-30_15h41.36.748_micRespv2l2_recorded\recording_micRespv2l2_2023-11-30_15h49.37.821.wav;493.8030621;494.3031265;None;493.8030621;493.8030621;493.8030621;493.8030621;493.8030621;493.8030621;;;;;;;200202;1;2023-11-30_15h41.36.748;REPSWITCH1_version2_list2;2022.2.4;143.8824078;
REPSWITCH1/PICTURE_242.png;cartero;type;gold;filler;1;F;4;3;2;2;Stim3_Set3;1;switch;98;97;98;0;97;97;97;;;;;;;;;;;;;;;;;;;;;;;494.3031265;495.428301;495.428301;495.428301;495.428301;495.428301;495.428301;495.428301;495.428301;['c', 'a', 'r', 't', 'e', 'r', 'o'];0;cartero;C:\2023\REPSWITCH21092023\REPSWITCH_excgange\REPSWITCH_excgange\data/200202_REPSWITCH1_version2_list2_2023-11-30_15h41.36.748_micRespv2l2_recorded\recording_micRespv2l2_2023-11-30_15h49.42.469.wav;498.4564543;;None;498.4564543;498.4564543;498.4564543;498.4564543;498.4564543;498.4564543;[0.9305953998118639, 1.0043287996668369, 1.1309063998050988, 1.2774348997045308, 1.380083799827844, 1.556436199694872, 1.7454171997960657];;;;;;200202;1;2023-11-30_15h41.36.748;REPSWITCH1_version2_list2;2022.2.4;143.8824078;
REPSWITCH1/PICTURE_48.png;bombero;type;gold;nontarget;1;NT;4;3;2;2;Stim7_Set4;1;repeat;99;98;99;0;98;98;98;;;;;;;;;;;;;;;;;;;;;;;498.9565464;500.0261555;500.0261555;500.0261555;500.0261555;500.0261555;500.0261555;500.0261555;500.0261555;['b', 'o', 'm', 'b', 'e', 'r', 'o'];0;bombero;C:\2023\REPSWITCH21092023\REPSWITCH_excgange\REPSWITCH_excgange\data/200202_REPSWITCH1_version2_list2_2023-11-30_15h41.36.748_micRespv2l2_recorded\recording_micRespv2l2_2023-11-30_15h49.47.066.wav;503.0542911;;None;503.0542911;503.0542911;503.0542911;503.0542911;503.0542911;503.0542911;[1.4471487998962402, 1.6227201998699456, 1.816219799919054, 2.069413499906659, 2.157126999925822, 2.3783287999685854, 2.52205349993892];;;;;;200202;1;2023-11-30_15h41.36.748;REPSWITCH1_version2_list2;2022.2.4;143.8824078;
REPSWITCH1/PICTURE_48.png;bombero;type;gold;repeat;1;T;4;3;2;2;Stim7_Set4;0;None;100;99;100;0;99;99;99;;;;;;;;;;;;;;;;;;;;;;;503.5543588;504.6170265;504.6170265;504.6170265;504.6170265;504.6170265;504.6170265;504.6170265;504.6170265;['b', 'o', 'm', 'b', 'e', 'r', 'o'];0;bombero;C:\2023\REPSWITCH21092023\REPSWITCH_excgange\REPSWITCH_excgange\data/200202_REPSWITCH1_version2_list2_2023-11-30_15h41.36.748_micRespv2l2_recorded\recording_micRespv2l2_2023-11-30_15h49.51.658.wav;507.6451648;;None;507.6451648;507.6451648;507.6451648;507.6451648;507.6451648;507.6451648;[1.1052491997834295, 1.2716426998376846, 1.5038960999809206, 1.747935299994424, 1.8528993998188525, 2.080160099780187, 2.2149458997882903];;;;;;200202;1;2023-11-30_15h41.36.748;REPSWITCH1_version2_list2;2022.2.4;143.8824078;
REPSWITCH1/PICTURE_391.png;cadena;speak;darkblue;filler;2;F;4;3;2;2;Extra2;0;None;101;100;101;0;100;100;100;;;;;;;;;;;;;;;;;;;;;;;508.1452464;509.180115;509.180115;509.180115;509.180115;509.180115;509.180115;509.180115;509.180115;None;0;;C:\2023\REPSWITCH21092023\REPSWITCH_excgange\REPSWITCH_excgange\data/200202_REPSWITCH1_version2_list2_2023-11-30_15h41.36.748_micRespv2l2_recorded\recording_micRespv2l2_2023-11-30_15h49.56.221.wav;512.2083504;;None;512.2083504;512.2083504;512.2083504;512.2083504;512.2083504;512.2083504;;;;;;;200202;1;2023-11-30_15h41.36.748;REPSWITCH1_version2_list2;2022.2.4;143.8824078;
REPSWITCH1/PICTURE_590.png;escoba;type;gold;filler;1;F;4;3;2;2;Extra3;0;None;102;101;102;0;101;101;101;;;;;;;;;;;;;;;;;;;;;;;512.7083371;513.8126641;513.8126641;513.8126641;513.8126641;513.8126641;513.8126641;513.8126641;513.8126641;['e', 's', 'c', 'o', 'b', 'a'];0;escoba;C:\2023\REPSWITCH21092023\REPSWITCH_excgange\REPSWITCH_excgange\data/200202_REPSWITCH1_version2_list2_2023-11-30_15h41.36.748_micRespv2l2_recorded\recording_micRespv2l2_2023-11-30_15h50.00.853.wav;516.8408205;;space;516.8408205;516.8408205;516.8408205;516.8408205;516.8408205;516.8408205;[1.083963799988851, 1.2972154999151826, 1.5179858999326825, 1.6973749999888241, 2.0344714999664575, 2.20390890003182];517.3408899;517.3408899;44.7895013;;;200202;1;2023-11-30_15h41.36.748;REPSWITCH1_version2_list2;2022.2.4;143.8824078;
REPSWITCH1/PICTURE_340.png;espejo;type;gold;filler;1;F;1;1;2;2;Extra1;0;None;103;102;1;0;102;102;102;;;;;;;;;;;;;;;;;;;;;;;562.1384254;563.2149816;563.2149816;563.2149816;563.2149816;563.2149816;563.2149816;563.2149816;563.2149816;['e', 's', 'p', 'e', 'j', 'o'];0;espejo;C:\2023\REPSWITCH21092023\REPSWITCH_excgange\REPSWITCH_excgange\data/200202_REPSWITCH1_version2_list2_2023-11-30_15h41.36.748_micRespv2l2_recorded\recording_micRespv2l2_2023-11-30_15h50.50.255.wav;566.2361931;566.7362605;None;566.2361931;566.2361931;566.2361931;566.2361931;566.2361931;566.2361931;[0.9374490999616683, 1.134786499897018, 1.2882737000472844, 1.3929854999296367, 1.5886120998766273, 1.89488760009408];;;;;;200202;1;2023-11-30_15h41.36.748;REPSWITCH1_version2_list2;2022.2.4;143.8824078;
REPSWITCH1/PICTURE_391.png;cadena;speak;darkblue;filler;2;F;1;1;2;2;Extra2;0;None;104;103;2;0;103;103;103;;;;;;;;;;;;;;;;;;;;;;;566.7362605;567.7919262;567.7919262;567.7919262;567.7919262;567.7919262;567.7919262;567.7919262;567.7919262;None;0;;C:\2023\REPSWITCH21092023\REPSWITCH_excgange\REPSWITCH_excgange\data/200202_REPSWITCH1_version2_list2_2023-11-30_15h41.36.748_micRespv2l2_recorded\recording_micRespv2l2_2023-11-30_15h50.54.832.wav;570.8201262;;None;570.8201262;570.8201262;570.8201262;570.8201262;570.8201262;570.8201262;;;;;;;200202;1;2023-11-30_15h41.36.748;REPSWITCH1_version2_list2;2022.2.4;143.8824078;
REPSWITCH1/PICTURE_178.png;puente;speak;darkblue;nontarget;2;NT;1;1;2;2;Stim1_Set1;1;repeat;105;104;3;0;104;104;104;;;;;;;;;;;;;;;;;;;;;;;571.3201923;572.3550344;572.3550344;572.3550344;572.3550344;572.3550344;572.3550344;572.3550344;572.3550344;None;0;;C:\2023\REPSWITCH21092023\REPSWITCH_excgange\REPSWITCH_excgange\data/200202_REPSWITCH1_version2_list2_2023-11-30_15h41.36.748_micRespv2l2_recorded\recording_micRespv2l2_2023-11-30_15h50.59.395.wav;575.3762405;575.876342;None;575.3762405;575.3762405;575.3762405;575.3762405;575.3762405;575.3762405;;;;;;;200202;1;2023-11-30_15h41.36.748;REPSWITCH1_version2_list2;2022.2.4;143.8824078;
REPSWITCH1/PICTURE_178.png;puente;speak;darkblue;repeat;2;T;1;1;2;2;Stim1_Set1;0;None;106;105;4;0;105;105;105;;;;;;;;;;;;;;;;;;;;;;;575.876342;576.9250693;576.9250693;576.9250693;576.9250693;576.9250693;576.9250693;576.9250693;576.9250693;None;0;;C:\2023\REPSWITCH21092023\REPSWITCH_excgange\REPSWITCH_excgange\data/200202_REPSWITCH1_version2_list2_2023-11-30_15h41.36.748_micRespv2l2_recorded\recording_micRespv2l2_2023-11-30_15h51.03.964.wav;579.9463185;580.4463925;None;579.9463185;579.9463185;579.9463185;579.9463185;579.9463185;579.9463185;;;;;;;200202;1;2023-11-30_15h41.36.748;REPSWITCH1_version2_list2;2022.2.4;143.8824078;
REPSWITCH1/PICTURE_319.png;vaca;type;gold;filler;1;F;1;1;2;2;Stim1_Set4;0;None;107;106;5;0;106;106;106;;;;;;;;;;;;;;;;;;;;;;;580.4463925;581.4812376;581.4812376;581.4812376;581.4812376;581.4812376;581.4812376;581.4812376;581.4812376;['v', 'a', 'c', 'a'];0;vaca;C:\2023\REPSWITCH21092023\REPSWITCH_excgange\REPSWITCH_excgange\data/200202_REPSWITCH1_version2_list2_2023-11-30_15h41.36.748_micRespv2l2_recorded\recording_micRespv2l2_2023-11-30_15h51.08.521.wav;584.502497;585.0025421;None;584.502497;584.502497;584.502497;584.502497;584.502497;584.502497;[0.812560599995777, 0.9900062999222428, 1.0899622000288218, 1.2035466998349875];;;;;;200202;1;2023-11-30_15h41.36.748;REPSWITCH1_version2_list2;2022.2.4;143.8824078;
REPSWITCH1/PICTURE_381.png;fresa;speak;darkblue;nontarget;2;NT;1;1;2;2;Stim2_Set1;1;switch;108;107;6;0;107;107;107;;;;;;;;;;;;;;;;;;;;;;;585.0025421;586.1207604;586.1207604;586.1207604;586.1207604;586.1207604;586.1207604;586.1207604;586.1207604;None;0;;C:\2023\REPSWITCH21092023\REPSWITCH_excgange\REPSWITCH_excgange\data/200202_REPSWITCH1_version2_list2_2023-11-30_15h41.36.748_micRespv2l2_recorded\recording_micRespv2l2_2023-11-30_15h51.13.161.wav;589.1488898;;None;589.1488898;589.1488898;589.1488898;589.1488898;589.1488898;589.1488898;;;;;;;200202;1;2023-11-30_15h41.36.748;REPSWITCH1_version2_list2;2022.2.4;143.8824078;
REPSWITCH1/PICTURE_381.png;fresa;speak;darkblue;repeat;2;T;1;1;2;2;Stim2_Set1;0;None;109;108;7;0;108;108;108;;;;;;;;;;;;;;;;;;;;;;;589.6489559;590.7185813;590.7185813;590.7185813;590.7185813;590.7185813;590.7185813;590.7185813;590.7185813;None;0;;C:\2023\REPSWITCH21092023\REPSWITCH_excgange\REPSWITCH_excgange\data/200202_REPSWITCH1_version2_list2_2023-11-30_15h41.36.748_micRespv2l2_recorded\recording_micRespv2l2_2023-11-30_15h51.17.757.wav;593.7397992;594.2398264;None;593.7397992;593.7397992;593.7397992;593.7397992;593.7397992;593.7397992;;;;;;;200202;1;2023-11-30_15h41.36.748;REPSWITCH1_version2_list2;2022.2.4;143.8824078;
REPSWITCH1/PICTURE_719.png;baño;type;gold;filler;1;F;1;1;2;2;Stim2_Set4;1;switch;110;109;8;0;109;109;109;;;;;;;;;;;;;;;;;;;;;;;594.2398264;595.3789594;595.3789594;595.3789594;595.3789594;595.3789594;595.3789594;595.3789594;595.3789594;['b', 'a', 'ñ', 'o'];0;baño;C:\2023\REPSWITCH21092023\REPSWITCH_excgange\REPSWITCH_excgange\data/200202_REPSWITCH1_version2_list2_2023-11-30_15h41.36.748_micRespv2l2_recorded\recording_micRespv2l2_2023-11-30_15h51.22.418.wav;598.4001299;598.9001948;None;598.4001299;598.4001299;598.4001299;598.4001299;598.4001299;598.4001299;[0.8830650998279452, 1.0136243000160903, 1.403288699919358, 1.596898099873215];;;;;;200202;1;2023-11-30_15h41.36.748;REPSWITCH1_version2_list2;2022.2.4;143.8824078;
REPSWITCH1/PICTURE_135.png;traje;speak;darkblue;nontarget;2;NT;1;1;2;2;Stim3_Set1;0;None;111;110;9;0;110;110;110;;;;;;;;;;;;;;;;;;;;;;;598.9001948;599.9767044;599.9767044;599.9767044;599.9767044;599.9767044;599.9767044;599.9767044;599.9767044;None;0;;C:\2023\REPSWITCH21092023\REPSWITCH_excgange\REPSWITCH_excgange\data/200202_REPSWITCH1_version2_list2_2023-11-30_15h41.36.748_micRespv2l2_recorded\recording_micRespv2l2_2023-11-30_15h51.27.016.wav;602.9979607;603.4979796;None;602.9979607;602.9979607;602.9979607;602.9979607;602.9979607;602.9979607;;;;;;;200202;1;2023-11-30_15h41.36.748;REPSWITCH1_version2_list2;2022.2.4;143.8824078;
REPSWITCH1/PICTURE_135.png;traje;type;gold;switch;1;T;1;1;2;2;Stim3_Set1;0;None;112;111;10;0;111;111;111;;;;;;;;;;;;;;;;;;;;;;;603.4979796;604.6439859;604.6439859;604.6439859;604.6439859;604.6439859;604.6439859;604.6439859;604.6439859;['t', 'r', 'a', 'j', 'e'];0;traje;C:\2023\REPSWITCH21092023\REPSWITCH_excgange\REPSWITCH_excgange\data/200202_REPSWITCH1_version2_list2_2023-11-30_15h41.36.748_micRespv2l2_recorded\recording_micRespv2l2_2023-11-30_15h51.31.683.wav;607.6652331;608.1652963;None;607.6652331;607.6652331;607.6652331;607.6652331;607.6652331;607.6652331;[1.0204956997185946, 1.1715270997956395, 1.2662064998876303, 1.6952002998441458, 1.8121253999415785];;;;;;200202;1;2023-11-30_15h41.36.748;REPSWITCH1_version2_list2;2022.2.4;143.8824078;
REPSWITCH1/PICTURE_687.png;camisa;speak;darkblue;filler;2;F;1;1;2;2;Stim5_Set4;0;None;113;112;11;0;112;112;112;;;;;;;;;;;;;;;;;;;;;;;608.1652963;609.3182394;609.3182394;609.3182394;609.3182394;609.3182394;609.3182394;609.3182394;609.3182394;None;0;;C:\2023\REPSWITCH21092023\REPSWITCH_excgange\REPSWITCH_excgange\data/200202_REPSWITCH1_version2_list2_2023-11-30_15h41.36.748_micRespv2l2_recorded\recording_micRespv2l2_2023-11-30_15h51.36.359.wav;612.3464021;;None;612.3464021;612.3464021;612.3464021;612.3464021;612.3464021;612.3464021;;;;;;;200202;1;2023-11-30_15h41.36.748;REPSWITCH1_version2_list2;2022.2.4;143.8824078;
REPSWITCH1/PICTURE_128.png;muñeca;type;gold;nontarget;1;NT;1;1;2;2;Stim4_Set1;1;switch;114;113;12;0;113;113;113;;;;;;;;;;;;;;;;;;;;;;;612.8464652;613.9785687;613.9785687;613.9785687;613.9785687;613.9785687;613.9785687;613.9785687;613.9785687;['m', 'u', 'ñ', 'e', 'c', 'a'];0;muñeca;C:\2023\REPSWITCH21092023\REPSWITCH_excgange\REPSWITCH_excgange\data/200202_REPSWITCH1_version2_list2_2023-11-30_15h41.36.748_micRespv2l2_recorded\recording_micRespv2l2_2023-11-30_15h51.41.019.wav;617.006734;;None;617.006734;617.006734;617.006734;617.006734;617.006734;617.006734;[0.7901239998172969, 0.9915388999506831, 1.370614199899137, 1.488688699901104, 1.7794584999792278, 1.8501458999235183];;;;;;200202;1;2023-11-30_15h41.36.748;REPSWITCH1_version2_list2;2022.2.4;143.8824078;
REPSWITCH1/PICTURE_128.png;muñeca;speak;darkblue;switch;2;T;1;1;2;2;Stim4_Set1;0;None;115;114;13;0;114;114;114;;;;;;;;;;;;;;;;;;;;;;;617.5067891;618.6180415;618.6180415;618.6180415;618.6180415;618.6180415;618.6180415;618.6180415;618.6180415;None;0;;C:\2023\REPSWITCH21092023\REPSWITCH_excgange\REPSWITCH_excgange\data/200202_REPSWITCH1_version2_list2_2023-11-30_15h41.36.748_micRespv2l2_recorded\recording_micRespv2l2_2023-11-30_15h51.45.659.wav;621.6462996;;None;621.6462996;621.6462996;621.6462996;621.6462996;621.6462996;621.6462996;;;;;;;200202;1;2023-11-30_15h41.36.748;REPSWITCH1_version2_list2;2022.2.4;143.8824078;
REPSWITCH1/PICTURE_8.png;pierna;speak;darkblue;filler;2;F;1;1;2;2;Stim3_Set4;0;None;116;115;14;0;115;115;115;;;;;;;;;;;;;;;;;;;;;;;622.1462995;623.2089618;623.2089618;623.2089618;623.2089618;623.2089618;623.2089618;623.2089618;623.2089618;None;0;;C:\2023\REPSWITCH21092023\REPSWITCH_excgange\REPSWITCH_excgange\data/200202_REPSWITCH1_version2_list2_2023-11-30_15h41.36.748_micRespv2l2_recorded\recording_micRespv2l2_2023-11-30_15h51.50.249.wav;626.2301291;626.7302173;None;626.2301291;626.2301291;626.2301291;626.2301291;626.2301291;626.2301291;;;;;;;200202;1;2023-11-30_15h41.36.748;REPSWITCH1_version2_list2;2022.2.4;143.8824078;
REPSWITCH1/PICTURE_19.png;pavo;speak;darkblue;nontarget;2;NT;1;1;2;2;Stim5_Set1;0;None;117;116;15;0;116;116;116;;;;;;;;;;;;;;;;;;;;;;;626.7302173;627.7372881;627.7372881;627.7372881;627.7372881;627.7372881;627.7372881;627.7372881;627.7372881;None;0;;C:\2023\REPSWITCH21092023\REPSWITCH_excgange\REPSWITCH_excgange\data/200202_REPSWITCH1_version2_list2_2023-11-30_15h41.36.748_micRespv2l2_recorded\recording_micRespv2l2_2023-11-30_15h51.54.777.wav;630.7585141;631.2586057;None;630.7585141;630.7585141;630.7585141;630.7585141;630.7585141;630.7585141;;;;;;;200202;1;2023-11-30_15h41.36.748;REPSWITCH1_version2_list2;2022.2.4;143.8824078;
REPSWITCH1/PICTURE_19.png;pavo;type;gold;switch;1;T;1;1;2;2;Stim5_Set1;0;None;118;117;16;0;117;117;117;;;;;;;;;;;;;;;;;;;;;;;631.2586057;632.4184604;632.4184604;632.4184604;632.4184604;632.4184604;632.4184604;632.4184604;632.4184604;['p', 'a', 'v', 'o'];0;pavo;C:\2023\REPSWITCH21092023\REPSWITCH_excgange\REPSWITCH_excgange\data/200202_REPSWITCH1_version2_list2_2023-11-30_15h41.36.748_micRespv2l2_recorded\recording_micRespv2l2_2023-11-30_15h51.59.459.wav;635.4466534;;None;635.4466534;635.4466534;635.4466534;635.4466534;635.4466534;635.4466534;[0.7946734998840839, 1.1109038998838514, 1.2524131999816746, 1.5155233999248594];;;;;;200202;1;2023-11-30_15h41.36.748;REPSWITCH1_version2_list2;2022.2.4;143.8824078;
REPSWITCH1/PICTURE_16.png;cazador;type;gold;nontarget;1;NT;1;1;2;2;Stim6_Set1;1;switch;119;118;17;0;118;118;118;;;;;;;;;;;;;;;;;;;;;;;635.9467186;637.0371992;637.0371992;637.0371992;637.0371992;637.0371992;637.0371992;637.0371992;637.0371992;['c', 'a', 'z'];0;caz;C:\2023\REPSWITCH21092023\REPSWITCH_excgange\REPSWITCH_excgange\data/200202_REPSWITCH1_version2_list2_2023-11-30_15h41.36.748_micRespv2l2_recorded\recording_micRespv2l2_2023-11-30_15h52.04.077.wav;640.0653736;;None;640.0653736;640.0653736;640.0653736;640.0653736;640.0653736;640.0653736;[1.0916549998801202, 1.20824269996956, 1.872846300015226];;;;;;200202;1;2023-11-30_15h41.36.748;REPSWITCH1_version2_list2;2022.2.4;143.8824078;
REPSWITCH1/PICTURE_16.png;cazador;type;gold;repeat;1;T;1;1;2;2;Stim6_Set1;0;None;120;119;18;0;119;119;119;;;;;;;;;;;;;;;;;;;;;;;640.5653772;641.5863334;641.5863334;641.5863334;641.5863334;641.5863334;641.5863334;641.5863334;641.5863334;['c', 'a', 'z', 'a', 'd', 'o', 'r'];0;cazador;C:\2023\REPSWITCH21092023\REPSWITCH_excgange\REPSWITCH_excgange\data/200202_REPSWITCH1_version2_list2_2023-11-30_15h41.36.748_micRespv2l2_recorded\recording_micRespv2l2_2023-11-30_15h52.08.626.wav;644.6076695;645.1076425;None;644.6076695;644.6076695;644.6076695;644.6076695;644.6076695;644.6076695;[1.0322004999034107, 1.1647530999034643, 1.468919500010088, 1.689528799848631, 1.961630899924785, 2.2300340000074357, 2.371537399943918];;;;;;200202;1;2023-11-30_15h41.36.748;REPSWITCH1_version2_list2;2022.2.4;143.8824078;
REPSWITCH1/PICTURE_498.png;taza;speak;darkblue;filler;2;F;1;1;2;2;Stim4_Set4;0;None;121;120;19;0;120;120;120;;;;;;;;;;;;;;;;;;;;;;;645.1076425;646.2605718;646.2605718;646.2605718;646.2605718;646.2605718;646.2605718;646.2605718;646.2605718;None;0;;C:\2023\REPSWITCH21092023\REPSWITCH_excgange\REPSWITCH_excgange\data/200202_REPSWITCH1_version2_list2_2023-11-30_15h41.36.748_micRespv2l2_recorded\recording_micRespv2l2_2023-11-30_15h52.13.300.wav;649.2818572;649.7818292;None;649.2818572;649.2818572;649.2818572;649.2818572;649.2818572;649.2818572;;;;;;;200202;1;2023-11-30_15h41.36.748;REPSWITCH1_version2_list2;2022.2.4;143.8824078;
REPSWITCH1/PICTURE_48.png;bombero;type;gold;filler;1;F;1;1;2;2;Stim7_Set4;0;None;122;121;20;0;121;121;121;;;;;;;;;;;;;;;;;;;;;;;649.7818292;650.8514518;650.8514518;650.8514518;650.8514518;650.8514518;650.8514518;650.8514518;650.8514518;['b', 'o', 'm', 'b', 'e', 'r', 'o'];0;bombero;C:\2023\REPSWITCH21092023\REPSWITCH_excgange\REPSWITCH_excgange\data/200202_REPSWITCH1_version2_list2_2023-11-30_15h41.36.748_micRespv2l2_recorded\recording_micRespv2l2_2023-11-30_15h52.17.891.wav;653.8726408;654.3727486;None;653.8726408;653.8726408;653.8726408;653.8726408;653.8726408;653.8726408;[0.8189584999345243, 1.1328584998846054, 1.3670922999735922, 1.715865100035444, 1.8384513000492007, 2.1096723000518978, 2.2551826999988407];;;;;;200202;1;2023-11-30_15h41.36.748;REPSWITCH1_version2_list2;2022.2.4;143.8824078;
REPSWITCH1/PICTURE_142.png;vaso;type;gold;nontarget;1;NT;1;1;2;2;Stim7_Set1;1;repeat;123;122;21;0;122;122;122;;;;;;;;;;;;;;;;;;;;;;;654.3727486;655.4840761;655.4840761;655.4840761;655.4840761;655.4840761;655.4840761;655.4840761;655.4840761;['v', 'a', 's', 'o'];0;vaso;C:\2023\REPSWITCH21092023\REPSWITCH_excgange\REPSWITCH_excgange\data/200202_REPSWITCH1_version2_list2_2023-11-30_15h41.36.748_micRespv2l2_recorded\recording_micRespv2l2_2023-11-30_15h52.22.524.wav;658.5121709;;None;658.5121709;658.5121709;658.5121709;658.5121709;658.5121709;658.5121709;[0.7687681999523193, 0.8586773998104036, 1.1012755997944623, 1.225821399828419];;;;;;200202;1;2023-11-30_15h41.36.748;REPSWITCH1_version2_list2;2022.2.4;143.8824078;
REPSWITCH1/PICTURE_142.png;vaso;type;gold;repeat;1;T;1;1;2;2;Stim7_Set1;0;None;124;123;22;0;123;123;123;;;;;;;;;;;;;;;;;;;;;;;659.0123203;660.1374701;660.1374701;660.1374701;660.1374701;660.1374701;660.1374701;660.1374701;660.1374701;['v', 'a', 's', 'o'];0;vaso;C:\2023\REPSWITCH21092023\REPSWITCH_excgange\REPSWITCH_excgange\data/200202_REPSWITCH1_version2_list2_2023-11-30_15h41.36.748_micRespv2l2_recorded\recording_micRespv2l2_2023-11-30_15h52.27.177.wav;663.1655659;;None;663.1655659;663.1655659;663.1655659;663.1655659;663.1655659;663.1655659;[0.7675502998754382, 0.8771760000381619, 1.0287440000101924, 1.1532137000467628];;;;;;200202;1;2023-11-30_15h41.36.748;REPSWITCH1_version2_list2;2022.2.4;143.8824078;
REPSWITCH1/PICTURE_338.png;regalo;speak;darkblue;filler;2;F;1;1;2;2;Stim6_Set4;1;switch;125;124;23;0;124;124;124;;;;;;;;;;;;;;;;;;;;;;;663.6656992;664.8532999;664.8532999;664.8532999;664.8532999;664.8532999;664.8532999;664.8532999;664.8532999;None;0;;C:\2023\REPSWITCH21092023\REPSWITCH_excgange\REPSWITCH_excgange\data/200202_REPSWITCH1_version2_list2_2023-11-30_15h41.36.748_micRespv2l2_recorded\recording_micRespv2l2_2023-11-30_15h52.31.893.wav;667.8815387;;None;667.8815387;667.8815387;667.8815387;667.8815387;667.8815387;667.8815387;;;;;;;200202;1;2023-11-30_15h41.36.748;REPSWITCH1_version2_list2;2022.2.4;143.8824078;
REPSWITCH1/PICTURE_728.png;pulpo;type;gold;filler;1;F;1;1;2;2;Stim8_Set4;1;switch;126;125;24;0;125;125;125;;;;;;;;;;;;;;;;;;;;;;;668.3815309;669.4858225;669.4858225;669.4858225;669.4858225;669.4858225;669.4858225;669.4858225;669.4858225;['p', 'u', 'l', 'p', 'o'];0;pulpo;C:\2023\REPSWITCH21092023\REPSWITCH_excgange\REPSWITCH_excgange\data/200202_REPSWITCH1_version2_list2_2023-11-30_15h41.36.748_micRespv2l2_recorded\recording_micRespv2l2_2023-11-30_15h52.36.525.wav;672.5070339;673.0071309;None;672.5070339;672.5070339;672.5070339;672.5070339;672.5070339;672.5070339;[0.9636868999805301, 1.2232498999219388, 1.4515114999376237, 1.6538004998583347, 1.8153031000401825];;;;;;200202;1;2023-11-30_15h41.36.748;REPSWITCH1_version2_list2;2022.2.4;143.8824078;
REPSWITCH1/PICTURE_169.png;espalda;type;gold;nontarget;1;NT;1;1;2;2;Stim8_Set1;1;repeat;127;126;25;0;126;126;126;;;;;;;;;;;;;;;;;;;;;;;673.0071309;674.0489233;674.0489233;674.0489233;674.0489233;674.0489233;674.0489233;674.0489233;674.0489233;['e', 's', 'p', 'a', 'l', 'd', 'a'];0;espalda;C:\2023\REPSWITCH21092023\REPSWITCH_excgange\REPSWITCH_excgange\data/200202_REPSWITCH1_version2_list2_2023-11-30_15h41.36.748_micRespv2l2_recorded\recording_micRespv2l2_2023-11-30_15h52.41.089.wav;677.0701676;677.5702353;None;677.0701676;677.0701676;677.0701676;677.0701676;677.0701676;677.0701676;[0.8460083997342736, 1.0911558999214321, 1.262599199777469, 1.4018651999067515, 1.5374011998064816, 1.810480299871415, 2.1144732998218387];;;;;;200202;1;2023-11-30_15h41.36.748;REPSWITCH1_version2_list2;2022.2.4;143.8824078;
REPSWITCH1/PICTURE_169.png;espalda;speak;darkblue;switch;2;T;1;1;2;2;Stim8_Set1;0;None;128;127;26;0;127;127;127;;;;;;;;;;;;;;;;;;;;;;;677.5702353;678.7370367;678.7370367;678.7370367;678.7370367;678.7370367;678.7370367;678.7370367;678.7370367;None;0;;C:\2023\REPSWITCH21092023\REPSWITCH_excgange\REPSWITCH_excgange\data/200202_REPSWITCH1_version2_list2_2023-11-30_15h41.36.748_micRespv2l2_recorded\recording_micRespv2l2_2023-11-30_15h52.45.777.wav;681.7582557;682.2583479;None;681.7582557;681.7582557;681.7582557;681.7582557;681.7582557;681.7582557;;;;;;;200202;1;2023-11-30_15h41.36.748;REPSWITCH1_version2_list2;2022.2.4;143.8824078;
REPSWITCH1/PICTURE_178.png;puente;speak;darkblue;filler;2;F;2;1;2;2;Stim1_Set1;0;None;129;128;27;0;128;128;128;;;;;;;;;;;;;;;;;;;;;;;682.2583479;683.3557346;683.3557346;683.3557346;683.3557346;683.3557346;683.3557346;683.3557346;683.3557346;None;0;;C:\2023\REPSWITCH21092023\REPSWITCH_excgange\REPSWITCH_excgange\data/200202_REPSWITCH1_version2_list2_2023-11-30_15h41.36.748_micRespv2l2_recorded\recording_micRespv2l2_2023-11-30_15h52.50.395.wav;686.3769047;686.8769828;None;686.3769047;686.3769047;686.3769047;686.3769047;686.3769047;686.3769047;;;;;;;200202;1;2023-11-30_15h41.36.748;REPSWITCH1_version2_list2;2022.2.4;143.8824078;
REPSWITCH1/PICTURE_175.png;pintor;type;gold;nontarget;1;NT;2;1;2;2;Stim1_Set2;1;switch;130;129;28;0;129;129;129;;;;;;;;;;;;;;;;;;;;;;;686.8769828;687.9535604;687.9535604;687.9535604;687.9535604;687.9535604;687.9535604;687.9535604;687.9535604;['p', 'i', 'n', 't', 'o', 'r'];0;pintor;C:\2023\REPSWITCH21092023\REPSWITCH_excgange\REPSWITCH_excgange\data/200202_REPSWITCH1_version2_list2_2023-11-30_15h41.36.748_micRespv2l2_recorded\recording_micRespv2l2_2023-11-30_15h52.54.993.wav;690.9747697;691.4747966;None;690.9747697;690.9747697;690.9747697;690.9747697;690.9747697;690.9747697;[0.9231679998338223, 1.2073930997867137, 1.3984914999455214, 1.5581675998400897, 1.7555392999202013, 2.0147034998517483];;;;;;200202;1;2023-11-30_15h41.36.748;REPSWITCH1_version2_list2;2022.2.4;143.8824078;
REPSWITCH1/PICTURE_175.png;pintor;type;gold;repeat;1;T;2;1;2;2;Stim1_Set2;0;None;131;130;29;0;130;130;130;;;;;;;;;;;;;;;;;;;;;;;691.4747966;692.6138626;692.6138626;692.6138626;692.6138626;692.6138626;692.6138626;692.6138626;692.6138626;['p', 'i', 'n', 't', 'o', 'r'];0;pintor;C:\2023\REPSWITCH21092023\REPSWITCH_excgange\REPSWITCH_excgange\data/200202_REPSWITCH1_version2_list2_2023-11-30_15h41.36.748_micRespv2l2_recorded\recording_micRespv2l2_2023-11-30_15h52.59.654.wav;695.642036;;None;695.642036;695.642036;695.642036;695.642036;695.642036;695.642036;[0.7079807000700384, 0.9703275999054313, 1.176238700048998, 1.3248956000898033, 1.4355232000816613, 1.7883999000769109];;;;;;200202;1;2023-11-30_15h41.36.748;REPSWITCH1_version2_list2;2022.2.4;143.8824078;
REPSWITCH1/PICTURE_381.png;fresa;speak;darkblue;filler;2;F;2;1;2;2;Stim2_Set1;0;None;132;131;30;0;131;131;131;;;;;;;;;;;;;;;;;;;;;;;696.1421836;697.2534401;697.2534401;697.2534401;697.2534401;697.2534401;697.2534401;697.2534401;697.2534401;None;0;;C:\2023\REPSWITCH21092023\REPSWITCH_excgange\REPSWITCH_excgange\data/200202_REPSWITCH1_version2_list2_2023-11-30_15h41.36.748_micRespv2l2_recorded\recording_micRespv2l2_2023-11-30_15h53.04.293.wav;700.2746094;700.7746678;None;700.2746094;700.2746094;700.2746094;700.2746094;700.2746094;700.2746094;;;;;;;200202;1;2023-11-30_15h41.36.748;REPSWITCH1_version2_list2;2022.2.4;143.8824078;
REPSWITCH1/PICTURE_152.png;caracol;type;gold;nontarget;1;NT;2;1;2;2;Stim2_Set2;1;switch;133;132;31;0;132;132;132;;;;;;;;;;;;;;;;;;;;;;;700.7746678;701.9762357;701.9762357;701.9762357;701.9762357;701.9762357;701.9762357;701.9762357;701.9762357;['c', 'a', 'r', 'a', 'c', 'o', 'l'];0;caracol;C:\2023\REPSWITCH21092023\REPSWITCH_excgange\REPSWITCH_excgange\data/200202_REPSWITCH1_version2_list2_2023-11-30_15h41.36.748_micRespv2l2_recorded\recording_micRespv2l2_2023-11-30_15h53.09.017.wav;705.0043647;;None;705.0043647;705.0043647;705.0043647;705.0043647;705.0043647;705.0043647;[0.9119475998450071, 1.0262129998300225, 1.1158835999667645, 1.2396881999447942, 1.3124854997731745, 1.7702242997474968, 1.9918053997680545];;;;;;200202;1;2023-11-30_15h41.36.748;REPSWITCH1_version2_list2;2022.2.4;143.8824078;
REPSWITCH1/PICTURE_152.png;caracol;type;gold;repeat;1;T;2;1;2;2;Stim2_Set2;0;None;134;133;32;0;133;133;133;;;;;;;;;;;;;;;;;;;;;;;705.504449;706.6087676;706.6087676;706.6087676;706.6087676;706.6087676;706.6087676;706.6087676;706.6087676;['c', 'a', 'r', 'a', 'c', 'o', 'l'];0;caracol;C:\2023\REPSWITCH21092023\REPSWITCH_excgange\REPSWITCH_excgange\data/200202_REPSWITCH1_version2_list2_2023-11-30_15h41.36.748_micRespv2l2_recorded\recording_micRespv2l2_2023-11-30_15h53.13.649.wav;709.6369089;;None;709.6369089;709.6369089;709.6369089;709.6369089;709.6369089;709.6369089;[0.771191000007093, 0.8967959999572486, 0.9247691999189556, 1.0960971999447793, 1.218833499820903, 1.5629076999612153, 1.7527300999499857];;;;;;200202;1;2023-11-30_15h41.36.748;REPSWITCH1_version2_list2;2022.2.4;143.8824078;
REPSWITCH1/PICTURE_128.png;muñeca;speak;darkblue;filler;2;F;2;1;2;2;Stim4_Set1;0;None;135;134;33;0;134;134;134;;;;;;;;;;;;;;;;;;;;;;;710.1369935;711.1858239;711.1858239;711.1858239;711.1858239;711.1858239;711.1858239;711.1858239;711.1858239;None;0;;C:\2023\REPSWITCH21092023\REPSWITCH_excgange\REPSWITCH_excgange\data/200202_REPSWITCH1_version2_list2_2023-11-30_15h41.36.748_micRespv2l2_recorded\recording_micRespv2l2_2023-11-30_15h53.18.225.wav;714.2069582;714.7071056;None;714.2069582;714.2069582;714.2069582;714.2069582;714.2069582;714.2069582;;;;;;;200202;1;2023-11-30_15h41.36.748;REPSWITCH1_version2_list2;2022.2.4;143.8824078;
REPSWITCH1/PICTURE_264.png;mano;type;gold;nontarget;1;NT;2;1;2;2;Stim3_Set2;0;None;136;135;34;0;135;135;135;;;;;;;;;;;;;;;;;;;;;;;714.7071056;715.8183454;715.8183454;715.8183454;715.8183454;715.8183454;715.8183454;715.8183454;715.8183454;['m', 'a', 'n', 'o'];0;mano;C:\2023\REPSWITCH21092023\REPSWITCH_excgange\REPSWITCH_excgange\data/200202_REPSWITCH1_version2_list2_2023-11-30_15h41.36.748_micRespv2l2_recorded\recording_micRespv2l2_2023-11-30_15h53.22.858.wav;718.8465008;;None;718.8465008;718.8465008;718.8465008;718.8465008;718.8465008;718.8465008;[0.8033302999101579, 0.958758199820295, 1.0404817999806255, 1.2124010999687016];;;;;;200202;1;2023-11-30_15h41.36.748;REPSWITCH1_version2_list2;2022.2.4;143.8824078;
REPSWITCH1/PICTURE_264.png;mano;speak;darkblue;switch;2;T;2;1;2;2;Stim3_Set2;0;None;137;136;35;0;136;136;136;;;;;;;;;;;;;;;;;;;;;;;719.3465329;720.4925081;720.4925081;720.4925081;720.4925081;720.4925081;720.4925081;720.4925081;720.4925081;None;0;;C:\2023\REPSWITCH21092023\REPSWITCH_excgange\REPSWITCH_excgange\data/200202_REPSWITCH1_version2_list2_2023-11-30_15h41.36.748_micRespv2l2_recorded\recording_micRespv2l2_2023-11-30_15h53.27.532.wav;723.5206977;;None;723.5206977;723.5206977;723.5206977;723.5206977;723.5206977;723.5206977;;;;;;;200202;1;2023-11-30_15h41.36.748;REPSWITCH1_version2_list2;2022.2.4;143.8824078;
REPSWITCH1/PICTURE_517.png;cuerda;speak;darkblue;nontarget;2;NT;2;1;2;2;Stim4_Set2;1;repeat;138;137;36;0;137;137;137;;;;;;;;;;;;;;;;;;;;;;;724.0207568;725.1112004;725.1112004;725.1112004;725.1112004;725.1112004;725.1112004;725.1112004;725.1112004;None;0;;C:\2023\REPSWITCH21092023\REPSWITCH_excgange\REPSWITCH_excgange\data/200202_REPSWITCH1_version2_list2_2023-11-30_15h41.36.748_micRespv2l2_recorded\recording_micRespv2l2_2023-11-30_15h53.32.150.wav;728.1323839;728.6324791;None;728.1323839;728.1323839;728.1323839;728.1323839;728.1323839;728.1323839;;;;;;;200202;1;2023-11-30_15h41.36.748;REPSWITCH1_version2_list2;2022.2.4;143.8824078;
REPSWITCH1/PICTURE_517.png;cuerda;type;gold;switch;1;T;2;1;2;2;Stim4_Set2;0;None;139;138;37;0;138;138;138;;;;;;;;;;;;;;;;;;;;;;;728.6324791;729.6951673;729.6951673;729.6951673;729.6951673;729.6951673;729.6951673;729.6951673;729.6951673;['c', 'u', 'e', 'r', 'd', 'a'];0;cuerda;C:\2023\REPSWITCH21092023\REPSWITCH_excgange\REPSWITCH_excgange\data/200202_REPSWITCH1_version2_list2_2023-11-30_15h41.36.748_micRespv2l2_recorded\recording_micRespv2l2_2023-11-30_15h53.36.734.wav;732.7163291;733.2164099;None;732.7163291;732.7163291;732.7163291;732.7163291;732.7163291;732.7163291;[1.131594100035727, 1.3724449998699129, 1.5140700999181718, 1.6535821999423206, 1.8113553000148386, 1.9837255000602454];;;;;;200202;1;2023-11-30_15h41.36.748;REPSWITCH1_version2_list2;2022.2.4;143.8824078;
REPSWITCH1/PICTURE_135.png;traje;type;gold;filler;1;F;2;1;2;2;Stim3_Set1;0;None;140;139;38;0;139;139;139;;;;;;;;;;;;;;;;;;;;;;;733.2164099;734.341577;734.341577;734.341577;734.341577;734.341577;734.341577;734.341577;734.341577;['t', 'r', 'a', 'j', 'e'];0;traje;C:\2023\REPSWITCH21092023\REPSWITCH_excgange\REPSWITCH_excgange\data/200202_REPSWITCH1_version2_list2_2023-11-30_15h41.36.748_micRespv2l2_recorded\recording_micRespv2l2_2023-11-30_15h53.41.382.wav;737.3697376;;None;737.3697376;737.3697376;737.3697376;737.3697376;737.3697376;737.3697376;[0.8775412000250071, 1.035963699920103, 1.129794699838385, 1.400346599984914, 1.5100189000368118];;;;;;200202;1;2023-11-30_15h41.36.748;REPSWITCH1_version2_list2;2022.2.4;143.8824078;
REPSWITCH1/PICTURE_30.png;granja;type;gold;nontarget;1;NT;2;1;2;2;Stim5_Set2;1;repeat;141;140;39;0;140;140;140;;;;;;;;;;;;;;;;;;;;;;;737.8697791;739.0088644;739.0088644;739.0088644;739.0088644;739.0088644;739.0088644;739.0088644;739.0088644;['g', 'r', 'a', 'n', 'j', 'a'];0;granja;C:\2023\REPSWITCH21092023\REPSWITCH_excgange\REPSWITCH_excgange\data/200202_REPSWITCH1_version2_list2_2023-11-30_15h41.36.748_micRespv2l2_recorded\recording_micRespv2l2_2023-11-30_15h53.46.049.wav;742.0369789;;None;742.0369789;742.0369789;742.0369789;742.0369789;742.0369789;742.0369789;[0.9154364999849349, 1.0828714999370277, 1.2323741000145674, 1.5931587000377476, 1.7974930999334902, 1.8871813998557627];;;;;;200202;1;2023-11-30_15h41.36.748;REPSWITCH1_version2_list2;2022.2.4;143.8824078;
REPSWITCH1/PICTURE_30.png;granja;speak;darkblue;switch;2;T;2;1;2;2;Stim5_Set2;0;None;142;141;40;0;141;141;141;;;;;;;;;;;;;;;;;;;;;;;742.5370842;743.5788614;743.5788614;743.5788614;743.5788614;743.5788614;743.5788614;743.5788614;743.5788614;None;0;;C:\2023\REPSWITCH21092023\REPSWITCH_excgange\REPSWITCH_excgange\data/200202_REPSWITCH1_version2_list2_2023-11-30_15h41.36.748_micRespv2l2_recorded\recording_micRespv2l2_2023-11-30_15h53.50.619.wav;746.6071203;;None;746.6071203;746.6071203;746.6071203;746.6071203;746.6071203;746.6071203;;;;;;;200202;1;2023-11-30_15h41.36.748;REPSWITCH1_version2_list2;2022.2.4;143.8824078;
