image;correctAns;respModal;frameColor;repSwitch;sequence;target;set;block;list;exp_version;stimulus;baseline;baseline_condition;trial_no;psychopy_trial;Column1;trialsREPSWITCH.thisRepN;trialsREPSWITCH.thisTrialN;trialsREPSWITCH.thisN;trialsREPSWITCH.thisIndex;textWelcome.started;textboxInstrMain1.started;textboxInstrMain1_2.started;textboxInstrMain1_3.started;keyInstrMain.started;keyInstrMain.keys;keyInstrMain.rt;textboxInstrMain2.started;textboxInstrMain2_2.started;textboxInstrMain2_3.started;textboxInstrMain2_4.started;textboxInstrMain2_5.started;textboxInstrMain2_6.started;textboxInstrMain2_7.started;textboxInstrMain2_8.started;textboxInstrMain2_9.started;textboxInstrMain2_10.started;textboxInstrMain2_11.started;textboxInstrMain2_12.started;keyInstrMain2.started;keyInstrMain2.keys;keyInstrMain2.rt;fixationITI.started;fixationITI.stopped;polygonColour.started;polygonWhite.started;imageObject.started;polygonType.started;textInput.started;keyResp.started;micRespv2l4.started;polygonColour.stopped;polygonWhite.stopped;imageObject.stopped;polygonType.stopped;textInput.stopped;keyResp.stopped;keyResp.keys;keyResp.corr;keyResp.rt;subjResponse;micRespv2l4.clip;textBlankLoop.started;textBlankLoop.stopped;keyPause.keys;textboxPause.started;keyPause.started;keyPause.rt;textboxGoodbye.started;textboxGoodbye.stopped;participant;session;date;expName;psychopyVersion;frameRate;Column2
;;;;;;;;;;;;;;;;;;;;;9.4173234;11.9103854;11.9103854;11.9103854;11.9103854;space;4.5262303;;;;;;;;;;;;;;;;;;;;;;;;;;;;;;;;;;;;;;;;;;;;320204;1;2023-12-05_16h51.37.528;REPSWITCH1_version2_list4;2022.2.4;143.9439197;
;;;;;;;;;;;;;;;;;;;;;;;;;;;;16.4526518;16.4526518;16.4526518;16.4526518;16.4526518;16.4526518;16.4526518;16.4526518;16.4526518;16.4526518;16.4526518;16.4526518;16.4526518;space;2.0435168;;;;;;;;;;;;;;;;;;;;;;;;;;;;;320204;1;2023-12-05_16h51.37.528;REPSWITCH1_version2_list4;2022.2.4;143.9439197;
REPSWITCH1/PICTURE_8.png;pierna;type;gold;filler;1;F;1;4;4;2;Stim3_Set4;0;None;1;0;1;0;0;0;0;;;;;;;;;;;;;;;;;;;;;;;18.5918458;19.8558618;19.8558618;19.8558618;19.8558618;19.8558618;19.8558618;19.8558618;19.8558618;22.8840966;22.8840966;22.8840966;22.8840966;22.8840966;22.8840966;['p', 'i', 'e', 'r', 'n', 'a'];0;[1.1057341005653143, 1.3123262003064156, 1.3621621001511812, 1.4240026003681123, 1.537413400132209, 1.6170862005092204];pierna;C:\2023\REPSWITCH21092023\REPSWITCH_excgange\REPSWITCH_excgange\data/320204_REPSWITCH1_version2_list4_2023-12-05_16h51.37.528_micRespv2l4_recorded\recording_micRespv2l4_2023-12-05_16h51.52.756.wav;22.8840966;23.3842099;None;;;;;;320204;1;2023-12-05_16h51.37.528;REPSWITCH1_version2_list4;2022.2.4;143.9439197;
REPSWITCH1/PICTURE_498.png;taza;speak;darkblue;filler;2;F;1;4;4;2;Stim4_Set4;0;None;2;1;2;0;1;1;1;;;;;;;;;;;;;;;;;;;;;;;23.3842099;24.446763;24.446763;24.446763;24.446763;24.446763;24.446763;24.446763;24.446763;27.4679747;27.4679747;27.4679747;27.4679747;27.4679747;27.4679747;None;0;;;C:\2023\REPSWITCH21092023\REPSWITCH_excgange\REPSWITCH_excgange\data/320204_REPSWITCH1_version2_list4_2023-12-05_16h51.37.528_micRespv2l4_recorded\recording_micRespv2l4_2023-12-05_16h51.57.345.wav;27.4679747;27.9680611;None;;;;;;320204;1;2023-12-05_16h51.37.528;REPSWITCH1_version2_list4;2022.2.4;143.9439197;
REPSWITCH1/PICTURE_19.png;pavo;speak;darkblue;nontarget;2;NT;1;4;4;2;Stim5_Set1;1;repeat;3;2;3;0;2;2;2;;;;;;;;;;;;;;;;;;;;;;;27.9680611;28.9890936;28.9890936;28.9890936;28.9890936;28.9890936;28.9890936;28.9890936;28.9890936;32.0102346;32.0102346;32.0102346;32.0102346;32.0102346;32.0102346;None;0;;;C:\2023\REPSWITCH21092023\REPSWITCH_excgange\REPSWITCH_excgange\data/320204_REPSWITCH1_version2_list4_2023-12-05_16h51.37.528_micRespv2l4_recorded\recording_micRespv2l4_2023-12-05_16h52.01.886.wav;32.0102346;32.510315;None;;;;;;320204;1;2023-12-05_16h51.37.528;REPSWITCH1_version2_list4;2022.2.4;143.9439197;
REPSWITCH1/PICTURE_19.png;pavo;speak;darkblue;repeat;2;T;1;4;4;2;Stim5_Set1;0;None;4;3;4;0;3;3;3;;;;;;;;;;;;;;;;;;;;;;;32.510315;33.6633334;33.6633334;33.6633334;33.6633334;33.6633334;33.6633334;33.6633334;33.6633334;36.6845499;36.6845499;36.6845499;36.6845499;36.6845499;36.6845499;None;0;;;C:\2023\REPSWITCH21092023\REPSWITCH_excgange\REPSWITCH_excgange\data/320204_REPSWITCH1_version2_list4_2023-12-05_16h51.37.528_micRespv2l4_recorded\recording_micRespv2l4_2023-12-05_16h52.06.560.wav;36.6845499;37.1845691;None;;;;;;320204;1;2023-12-05_16h51.37.528;REPSWITCH1_version2_list4;2022.2.4;143.9439197;
REPSWITCH1/PICTURE_319.png;vaca;type;gold;filler;1;F;1;4;4;2;Stim1_Set4;1;repeat;5;4;5;0;4;4;4;;;;;;;;;;;;;;;;;;;;;;;37.1845691;38.3235891;38.3235891;38.3235891;38.3235891;38.3235891;38.3235891;38.3235891;38.3235891;41.3448302;41.3448302;41.3448302;41.3448302;41.3448302;41.3448302;['v', 'a', 'c', 'a'];0;[1.2743394002318382, 1.333138800226152, 1.507517000194639, 1.5494226003065705];vaca;C:\2023\REPSWITCH21092023\REPSWITCH_excgange\REPSWITCH_excgange\data/320204_REPSWITCH1_version2_list4_2023-12-05_16h51.37.528_micRespv2l4_recorded\recording_micRespv2l4_2023-12-05_16h52.11.221.wav;41.3448302;41.8448986;None;;;;;;320204;1;2023-12-05_16h51.37.528;REPSWITCH1_version2_list4;2022.2.4;143.9439197;
REPSWITCH1/PICTURE_169.png;espalda;speak;darkblue;nontarget;2;NT;1;4;4;2;Stim8_Set1;1;switch;6;5;6;0;5;5;5;;;;;;;;;;;;;;;;;;;;;;;41.8448986;42.9005929;42.9005929;42.9005929;42.9005929;42.9005929;42.9005929;42.9005929;42.9005929;45.9217976;45.9217976;45.9217976;45.9217976;45.9217976;45.9217976;None;0;;;C:\2023\REPSWITCH21092023\REPSWITCH_excgange\REPSWITCH_excgange\data/320204_REPSWITCH1_version2_list4_2023-12-05_16h51.37.528_micRespv2l4_recorded\recording_micRespv2l4_2023-12-05_16h52.15.798.wav;45.9217976;46.4218816;None;;;;;;320204;1;2023-12-05_16h51.37.528;REPSWITCH1_version2_list4;2022.2.4;143.9439197;
REPSWITCH1/PICTURE_169.png;espalda;speak;darkblue;repeat;2;T;1;4;4;2;Stim8_Set1;0;None;7;6;7;0;6;6;6;;;;;;;;;;;;;;;;;;;;;;;46.4218816;47.4984251;47.4984251;47.4984251;47.4984251;47.4984251;47.4984251;47.4984251;47.4984251;50.5197057;50.5197057;50.5197057;50.5197057;50.5197057;50.5197057;None;0;;;C:\2023\REPSWITCH21092023\REPSWITCH_excgange\REPSWITCH_excgange\data/320204_REPSWITCH1_version2_list4_2023-12-05_16h51.37.528_micRespv2l4_recorded\recording_micRespv2l4_2023-12-05_16h52.20.396.wav;50.5197057;51.0197206;None;;;;;;320204;1;2023-12-05_16h51.37.528;REPSWITCH1_version2_list4;2022.2.4;143.9439197;
REPSWITCH1/PICTURE_728.png;pulpo;type;gold;filler;1;F;1;4;4;2;Stim8_Set4;0;None;8;7;8;0;7;7;7;;;;;;;;;;;;;;;;;;;;;;;51.0197206;52.1309658;52.1309658;52.1309658;52.1309658;52.1309658;52.1309658;52.1309658;52.1309658;55.1522006;55.1522006;55.1522006;55.1522006;55.1522006;55.1522006;['p', 'u', 'l', 'p', 'o'];0;[1.347678600344807, 1.6168104000389576, 1.8570682001300156, 2.2636948004364967, 2.4022457003593445];pulpo;C:\2023\REPSWITCH21092023\REPSWITCH_excgange\REPSWITCH_excgange\data/320204_REPSWITCH1_version2_list4_2023-12-05_16h51.37.528_micRespv2l4_recorded\recording_micRespv2l4_2023-12-05_16h52.25.028.wav;55.1522006;55.6522673;None;;;;;;320204;1;2023-12-05_16h51.37.528;REPSWITCH1_version2_list4;2022.2.4;143.9439197;
REPSWITCH1/PICTURE_142.png;vaso;speak;darkblue;nontarget;2;NT;1;4;4;2;Stim7_Set1;1;switch;9;8;9;0;8;8;8;;;;;;;;;;;;;;;;;;;;;;;55.6522673;56.8052728;56.8052728;56.8052728;56.8052728;56.8052728;56.8052728;56.8052728;56.8052728;59.8333447;59.8333447;59.8333447;59.8333447;59.8333447;59.8333447;None;0;;;C:\2023\REPSWITCH21092023\REPSWITCH_excgange\REPSWITCH_excgange\data/320204_REPSWITCH1_version2_list4_2023-12-05_16h51.37.528_micRespv2l4_recorded\recording_micRespv2l4_2023-12-05_16h52.29.703.wav;59.8333447;;None;;;;;;320204;1;2023-12-05_16h51.37.528;REPSWITCH1_version2_list4;2022.2.4;143.9439197;
REPSWITCH1/PICTURE_142.png;vaso;type;gold;switch;1;T;1;4;4;2;Stim7_Set1;0;None;10;9;10;0;9;9;9;;;;;;;;;;;;;;;;;;;;;;;60.3334124;61.4655862;61.4655862;61.4655862;61.4655862;61.4655862;61.4655862;61.4655862;61.4655862;64.4867832;64.4867832;64.4867832;64.4867832;64.4867832;64.4867832;['v', 'a', 's', 'o'];0;[0.9170221001841128, 1.0555631001479924, 1.3706573997624218, 1.4583645998500288];vaso;C:\2023\REPSWITCH21092023\REPSWITCH_excgange\REPSWITCH_excgange\data/320204_REPSWITCH1_version2_list4_2023-12-05_16h51.37.528_micRespv2l4_recorded\recording_micRespv2l4_2023-12-05_16h52.34.363.wav;64.4867832;64.9868991;None;;;;;;320204;1;2023-12-05_16h51.37.528;REPSWITCH1_version2_list4;2022.2.4;143.9439197;
REPSWITCH1/PICTURE_338.png;regalo;type;gold;filler;1;F;1;4;4;2;Stim6_Set4;1;repeat;11;10;11;0;10;10;10;;;;;;;;;;;;;;;;;;;;;;;64.9868991;66.0633416;66.0633416;66.0633416;66.0633416;66.0633416;66.0633416;66.0633416;66.0633416;69.0915046;69.0915046;69.0915046;69.0915046;69.0915046;69.0915046;['r', 'e', 'g', 'a', 'l', 'o'];0;[1.1424273001030087, 1.1812025997787714, 1.4017511997371912, 1.4665282000787556, 1.646249100100249, 1.8425408001057804];regalo;C:\2023\REPSWITCH21092023\REPSWITCH_excgange\REPSWITCH_excgange\data/320204_REPSWITCH1_version2_list4_2023-12-05_16h51.37.528_micRespv2l4_recorded\recording_micRespv2l4_2023-12-05_16h52.38.961.wav;69.0915046;;None;;;;;;320204;1;2023-12-05_16h51.37.528;REPSWITCH1_version2_list4;2022.2.4;143.9439197;
REPSWITCH1/PICTURE_135.png;traje;type;gold;nontarget;1;NT;1;4;4;2;Stim3_Set1;1;repeat;12;11;12;0;11;11;11;;;;;;;;;;;;;;;;;;;;;;;69.591596;70.6195146;70.6195146;70.6195146;70.6195146;70.6195146;70.6195146;70.6195146;70.6195146;73.6477616;73.6477616;73.6477616;73.6477616;73.6477616;73.6477616;['t', 'r', 'a', 'j', 'e'];0;[0.9377502999268472, 0.9874792001210153, 1.1794235999695957, 1.3059849999845028, 1.3933677999302745];traje;C:\2023\REPSWITCH21092023\REPSWITCH_excgange\REPSWITCH_excgange\data/320204_REPSWITCH1_version2_list4_2023-12-05_16h51.37.528_micRespv2l4_recorded\recording_micRespv2l4_2023-12-05_16h52.43.518.wav;73.6477616;;None;;;;;;320204;1;2023-12-05_16h51.37.528;REPSWITCH1_version2_list4;2022.2.4;143.9439197;
REPSWITCH1/PICTURE_135.png;traje;speak;darkblue;switch;2;T;1;4;4;2;Stim3_Set1;0;None;13;12;13;0;12;12;12;;;;;;;;;;;;;;;;;;;;;;;74.1477254;75.2867757;75.2867757;75.2867757;75.2867757;75.2867757;75.2867757;75.2867757;75.2867757;78.3080351;78.3080351;78.3080351;78.3080351;78.3080351;78.3080351;None;0;;;C:\2023\REPSWITCH21092023\REPSWITCH_excgange\REPSWITCH_excgange\data/320204_REPSWITCH1_version2_list4_2023-12-05_16h51.37.528_micRespv2l4_recorded\recording_micRespv2l4_2023-12-05_16h52.48.185.wav;78.3080351;78.8080742;None;;;;;;320204;1;2023-12-05_16h51.37.528;REPSWITCH1_version2_list4;2022.2.4;143.9439197;
REPSWITCH1/PICTURE_381.png;fresa;speak;darkblue;nontarget;2;NT;1;4;4;2;Stim2_Set1;1;repeat;14;13;14;0;13;13;13;;;;;;;;;;;;;;;;;;;;;;;78.8080742;79.9332468;79.9332468;79.9332468;79.9332468;79.9332468;79.9332468;79.9332468;79.9332468;82.9544405;82.9544405;82.9544405;82.9544405;82.9544405;82.9544405;None;0;;;C:\2023\REPSWITCH21092023\REPSWITCH_excgange\REPSWITCH_excgange\data/320204_REPSWITCH1_version2_list4_2023-12-05_16h51.37.528_micRespv2l4_recorded\recording_micRespv2l4_2023-12-05_16h52.52.830.wav;82.9544405;83.454503;None;;;;;;320204;1;2023-12-05_16h51.37.528;REPSWITCH1_version2_list4;2022.2.4;143.9439197;
REPSWITCH1/PICTURE_381.png;fresa;type;gold;switch;1;T;1;4;4;2;Stim2_Set1;0;None;15;14;15;0;14;14;14;;;;;;;;;;;;;;;;;;;;;;;83.454503;84.5380383;84.5380383;84.5380383;84.5380383;84.5380383;84.5380383;84.5380383;84.5380383;87.5662204;87.5662204;87.5662204;87.5662204;87.5662204;87.5662204;['f', 'r', 'e', 's', 'a'];0;[0.9377824999392033, 1.1367222000844777, 1.353548999875784, 1.8413307000882924, 2.0586383999325335];fresa;C:\2023\REPSWITCH21092023\REPSWITCH_excgange\REPSWITCH_excgange\data/320204_REPSWITCH1_version2_list4_2023-12-05_16h51.37.528_micRespv2l4_recorded\recording_micRespv2l4_2023-12-05_16h52.57.435.wav;87.5662204;;None;;;;;;320204;1;2023-12-05_16h51.37.528;REPSWITCH1_version2_list4;2022.2.4;143.9439197;
REPSWITCH1/PICTURE_48.png;bombero;type;gold;filler;1;F;1;4;4;2;Stim7_Set4;0;None;16;15;16;0;15;15;15;;;;;;;;;;;;;;;;;;;;;;;88.0662521;89.1080509;89.1080509;89.1080509;89.1080509;89.1080509;89.1080509;89.1080509;89.1080509;92.1362419;92.1362419;92.1362419;92.1362419;92.1362419;92.1362419;['b', 'o', 'm', 'b', 'e', 'r', 'o'];0;[1.112267100252211, 1.2456509000621736, 1.3852778999134898, 1.5360210998915136, 1.7393407002091408, 1.8041232000105083, 1.9653098001144826];bombero;C:\2023\REPSWITCH21092023\REPSWITCH_excgange\REPSWITCH_excgange\data/320204_REPSWITCH1_version2_list4_2023-12-05_16h51.37.528_micRespv2l4_recorded\recording_micRespv2l4_2023-12-05_16h53.02.006.wav;92.1362419;;None;;;;;;320204;1;2023-12-05_16h51.37.528;REPSWITCH1_version2_list4;2022.2.4;143.9439197;
REPSWITCH1/PICTURE_687.png;camisa;speak;darkblue;filler;2;F;1;4;4;2;Stim5_Set4;0;None;17;16;17;0;16;16;16;;;;;;;;;;;;;;;;;;;;;;;92.6362777;93.7684148;93.7684148;93.7684148;93.7684148;93.7684148;93.7684148;93.7684148;93.7684148;96.7895955;96.7895955;96.7895955;96.7895955;96.7895955;96.7895955;None;0;;;C:\2023\REPSWITCH21092023\REPSWITCH_excgange\REPSWITCH_excgange\data/320204_REPSWITCH1_version2_list4_2023-12-05_16h51.37.528_micRespv2l4_recorded\recording_micRespv2l4_2023-12-05_16h53.06.666.wav;96.7895955;97.289684;None;;;;;;320204;1;2023-12-05_16h51.37.528;REPSWITCH1_version2_list4;2022.2.4;143.9439197;
REPSWITCH1/PICTURE_128.png;muñeca;type;gold;nontarget;1;NT;1;4;4;2;Stim4_Set1;0;None;18;17;18;0;17;17;17;;;;;;;;;;;;;;;;;;;;;;;97.289684;98.3522998;98.3522998;98.3522998;98.3522998;98.3522998;98.3522998;98.3522998;98.3522998;101.3735474;101.3735474;101.3735474;101.3735474;101.3735474;101.3735474;['m', 'u', 'ñ', 'e', 'c', 'a'];0;[0.9878381001763046, 1.160534200258553, 1.5313237002119422, 1.7549885003827512, 1.997168400324881, 2.105780000332743];muñeca;C:\2023\REPSWITCH21092023\REPSWITCH_excgange\REPSWITCH_excgange\data/320204_REPSWITCH1_version2_list4_2023-12-05_16h51.37.528_micRespv2l4_recorded\recording_micRespv2l4_2023-12-05_16h53.11.250.wav;101.3735474;101.8736176;None;;;;;;320204;1;2023-12-05_16h51.37.528;REPSWITCH1_version2_list4;2022.2.4;143.9439197;
REPSWITCH1/PICTURE_128.png;muñeca;type;gold;repeat;1;T;1;4;4;2;Stim4_Set1;0;None;19;18;19;0;18;18;18;;;;;;;;;;;;;;;;;;;;;;;101.8736176;102.9640173;102.9640173;102.9640173;102.9640173;102.9640173;102.9640173;102.9640173;102.9640173;105.9921753;105.9921753;105.9921753;105.9921753;105.9921753;105.9921753;['m', 'u', 'ñ', 'e', 'c', 'a'];0;[1.228942200075835, 1.4143130001612008, 1.6526183001697063, 1.743377699982375, 2.0212197001092136, 2.1328289001248777];muñeca;C:\2023\REPSWITCH21092023\REPSWITCH_excgange\REPSWITCH_excgange\data/320204_REPSWITCH1_version2_list4_2023-12-05_16h51.37.528_micRespv2l4_recorded\recording_micRespv2l4_2023-12-05_16h53.15.862.wav;105.9921753;;None;;;;;;320204;1;2023-12-05_16h51.37.528;REPSWITCH1_version2_list4;2022.2.4;143.9439197;
REPSWITCH1/PICTURE_719.png;baño;speak;darkblue;filler;2;F;1;4;4;2;Stim2_Set4;1;switch;20;19;20;0;19;19;19;;;;;;;;;;;;;;;;;;;;;;;106.4922687;107.5757592;107.5757592;107.5757592;107.5757592;107.5757592;107.5757592;107.5757592;107.5757592;110.6039167;110.6039167;110.6039167;110.6039167;110.6039167;110.6039167;None;0;;;C:\2023\REPSWITCH21092023\REPSWITCH_excgange\REPSWITCH_excgange\data/320204_REPSWITCH1_version2_list4_2023-12-05_16h51.37.528_micRespv2l4_recorded\recording_micRespv2l4_2023-12-05_16h53.20.474.wav;110.6039167;;None;;;;;;320204;1;2023-12-05_16h51.37.528;REPSWITCH1_version2_list4;2022.2.4;143.9439197;
REPSWITCH1/PICTURE_178.png;puente;type;gold;nontarget;1;NT;1;4;4;2;Stim1_Set1;1;switch;21;20;21;0;20;20;20;;;;;;;;;;;;;;;;;;;;;;;111.1039951;112.1249626;112.1249626;112.1249626;112.1249626;112.1249626;112.1249626;112.1249626;112.1249626;115.1461978;115.1461978;115.1461978;115.1461978;115.1461978;115.1461978;['p', 'u', 'e', 'n', 't', 'e'];0;[1.5384468003176153, 1.7636946002021432, 1.8384664999321103, 1.934192500077188, 1.9968334999866784, 2.0555751002393663];puente;C:\2023\REPSWITCH21092023\REPSWITCH_excgange\REPSWITCH_excgange\data/320204_REPSWITCH1_version2_list4_2023-12-05_16h51.37.528_micRespv2l4_recorded\recording_micRespv2l4_2023-12-05_16h53.25.022.wav;115.1461978;115.6462621;None;;;;;;320204;1;2023-12-05_16h51.37.528;REPSWITCH1_version2_list4;2022.2.4;143.9439197;
REPSWITCH1/PICTURE_178.png;puente;type;gold;repeat;1;T;1;4;4;2;Stim1_Set1;0;None;22;21;22;0;21;21;21;;;;;;;;;;;;;;;;;;;;;;;115.6462621;116.6880405;116.6880405;116.6880405;116.6880405;116.6880405;116.6880405;116.6880405;116.6880405;119.7092761;119.7092761;119.7092761;119.7092761;119.7092761;119.7092761;['p', 'u', 'e', 'n', 't', 'e'];0;[0.8915746998973191, 1.10221999976784, 1.1560507998801768, 1.270677600055933, 1.3130919998511672, 1.3669481999240816];puente;C:\2023\REPSWITCH21092023\REPSWITCH_excgange\REPSWITCH_excgange\data/320204_REPSWITCH1_version2_list4_2023-12-05_16h51.37.528_micRespv2l4_recorded\recording_micRespv2l4_2023-12-05_16h53.29.585.wav;119.7092761;120.2093362;None;;;;;;320204;1;2023-12-05_16h51.37.528;REPSWITCH1_version2_list4;2022.2.4;143.9439197;
REPSWITCH1/PICTURE_16.png;cazador;type;gold;nontarget;1;NT;1;4;4;2;Stim6_Set1;1;repeat;23;22;23;0;22;22;22;;;;;;;;;;;;;;;;;;;;;;;120.2093362;121.3275453;121.3275453;121.3275453;121.3275453;121.3275453;121.3275453;121.3275453;121.3275453;124.3557315;124.3557315;124.3557315;124.3557315;124.3557315;124.3557315;['c', 'a', 'z', 'a', 'd', 'o', 'r'];0;[1.3220446002669632, 1.443395800422877, 1.673561000265181, 1.8549829004332423, 1.9920154004357755, 2.2760666999965906, 2.5666289003565907];cazador;C:\2023\REPSWITCH21092023\REPSWITCH_excgange\REPSWITCH_excgange\data/320204_REPSWITCH1_version2_list4_2023-12-05_16h51.37.528_micRespv2l4_recorded\recording_micRespv2l4_2023-12-05_16h53.34.225.wav;124.3557315;;None;;;;;;320204;1;2023-12-05_16h51.37.528;REPSWITCH1_version2_list4;2022.2.4;143.9439197;
REPSWITCH1/PICTURE_16.png;cazador;speak;darkblue;switch;2;T;1;4;4;2;Stim6_Set1;0;None;24;23;24;0;23;23;23;;;;;;;;;;;;;;;;;;;;;;;124.855805;125.9879137;125.9879137;125.9879137;125.9879137;125.9879137;125.9879137;125.9879137;125.9879137;129.009098;129.009098;129.009098;129.009098;129.009098;129.009098;None;0;;;C:\2023\REPSWITCH21092023\REPSWITCH_excgange\REPSWITCH_excgange\data/320204_REPSWITCH1_version2_list4_2023-12-05_16h51.37.528_micRespv2l4_recorded\recording_micRespv2l4_2023-12-05_16h53.38.885.wav;129.009098;129.5091887;None;;;;;;320204;1;2023-12-05_16h51.37.528;REPSWITCH1_version2_list4;2022.2.4;143.9439197;
REPSWITCH1/PICTURE_19.png;pavo;type;gold;filler;1;F;2;4;4;2;Stim5_Set1;0;None;25;24;25;0;24;24;24;;;;;;;;;;;;;;;;;;;;;;;129.5091887;130.5926678;130.5926678;130.5926678;130.5926678;130.5926678;130.5926678;130.5926678;130.5926678;133.6139417;133.6139417;133.6139417;133.6139417;133.6139417;133.6139417;['p', 'a', 'v', 'o'];0;[1.5478856000117958, 1.714251700323075, 2.0952535001561046, 2.1922110999003053];pavo;C:\2023\REPSWITCH21092023\REPSWITCH_excgange\REPSWITCH_excgange\data/320204_REPSWITCH1_version2_list4_2023-12-05_16h51.37.528_micRespv2l4_recorded\recording_micRespv2l4_2023-12-05_16h53.43.491.wav;133.6139417;134.11398;None;;;;;;320204;1;2023-12-05_16h51.37.528;REPSWITCH1_version2_list4;2022.2.4;143.9439197;
REPSWITCH1/PICTURE_199.png;falda;type;gold;nontarget;1;NT;2;4;4;2;Stim8_Set2;1;repeat;26;25;26;0;25;25;25;;;;;;;;;;;;;;;;;;;;;;;134.11398;135.2043726;135.2043726;135.2043726;135.2043726;135.2043726;135.2043726;135.2043726;135.2043726;138.2256165;138.2256165;138.2256165;138.2256165;138.2256165;138.2256165;['f', 'a', 'l', 'd', 'a'];0;[1.0984714003279805, 1.2160750003531575, 1.4612430003471673, 1.654931700322777, 1.736613499931991];falda;C:\2023\REPSWITCH21092023\REPSWITCH_excgange\REPSWITCH_excgange\data/320204_REPSWITCH1_version2_list4_2023-12-05_16h51.37.528_micRespv2l4_recorded\recording_micRespv2l4_2023-12-05_16h53.48.101.wav;138.2256165;138.7256825;None;;;;;;320204;1;2023-12-05_16h51.37.528;REPSWITCH1_version2_list4;2022.2.4;143.9439197;
REPSWITCH1/PICTURE_199.png;falda;type;gold;repeat;1;T;2;4;4;2;Stim8_Set2;0;None;27;26;27;0;26;26;26;;;;;;;;;;;;;;;;;;;;;;;138.7256825;139.9411255;139.9411255;139.9411255;139.9411255;139.9411255;139.9411255;139.9411255;139.9411255;142.9623243;142.9623243;142.9623243;142.9623243;142.9623243;142.9623243;['f', 'a', 'l', 'd', 'a'];0;[0.9355712002143264, 1.006320200394839, 1.1857239003293216, 1.488950100261718, 1.5178485000506043];falda;C:\2023\REPSWITCH21092023\REPSWITCH_excgange\REPSWITCH_excgange\data/320204_REPSWITCH1_version2_list4_2023-12-05_16h51.37.528_micRespv2l4_recorded\recording_micRespv2l4_2023-12-05_16h53.52.839.wav;142.9623243;143.4623981;None;;;;;;320204;1;2023-12-05_16h51.37.528;REPSWITCH1_version2_list4;2022.2.4;143.9439197;
REPSWITCH1/PICTURE_178.png;puente;speak;darkblue;filler;2;F;2;4;4;2;Stim1_Set1;1;switch;28;27;28;0;27;27;27;;;;;;;;;;;;;;;;;;;;;;;143.4623981;144.4903234;144.4903234;144.4903234;144.4903234;144.4903234;144.4903234;144.4903234;144.4903234;147.5115288;147.5115288;147.5115288;147.5115288;147.5115288;147.5115288;None;0;;;C:\2023\REPSWITCH21092023\REPSWITCH_excgange\REPSWITCH_excgange\data/320204_REPSWITCH1_version2_list4_2023-12-05_16h51.37.528_micRespv2l4_recorded\recording_micRespv2l4_2023-12-05_16h53.57.388.wav;147.5115288;148.0116868;None;;;;;;320204;1;2023-12-05_16h51.37.528;REPSWITCH1_version2_list4;2022.2.4;143.9439197;
REPSWITCH1/PICTURE_517.png;cuerda;type;gold;nontarget;1;NT;2;4;4;2;Stim4_Set2;1;switch;29;28;29;0;28;28;28;;;;;;;;;;;;;;;;;;;;;;;148.0116868;149.1506797;149.1506797;149.1506797;149.1506797;149.1506797;149.1506797;149.1506797;149.1506797;152.1718571;152.1718571;152.1718571;152.1718571;152.1718571;152.1718571;['c', 'u', 'e', 'r', 'd', 'a'];0;[0.9103625998832285, 0.9841662999242544, 1.1007110998034477, 1.1526029999367893, 1.3728736001066864, 1.7945424998179078];cuerda;C:\2023\REPSWITCH21092023\REPSWITCH_excgange\REPSWITCH_excgange\data/320204_REPSWITCH1_version2_list4_2023-12-05_16h51.37.528_micRespv2l4_recorded\recording_micRespv2l4_2023-12-05_16h54.02.048.wav;152.1718571;152.6719566;None;;;;;;320204;1;2023-12-05_16h51.37.528;REPSWITCH1_version2_list4;2022.2.4;143.9439197;
REPSWITCH1/PICTURE_517.png;cuerda;type;gold;repeat;1;T;2;4;4;2;Stim4_Set2;0;None;30;29;30;0;29;29;29;;;;;;;;;;;;;;;;;;;;;;;152.6719566;153.8596844;153.8596844;153.8596844;153.8596844;153.8596844;153.8596844;153.8596844;153.8596844;156.8808401;156.8808401;156.8808401;156.8808401;156.8808401;156.8808401;['c', 'u', 'e', 'r', 'd', 'a'];0;[0.827584299724549, 0.9112955997698009, 1.066738700028509, 1.1484996997751296, 1.4215919999405742, 1.5005888999439776];cuerda;C:\2023\REPSWITCH21092023\REPSWITCH_excgange\REPSWITCH_excgange\data/320204_REPSWITCH1_version2_list4_2023-12-05_16h51.37.528_micRespv2l4_recorded\recording_micRespv2l4_2023-12-05_16h54.06.757.wav;156.8808401;157.3809828;None;;;;;;320204;1;2023-12-05_16h51.37.528;REPSWITCH1_version2_list4;2022.2.4;143.9439197;
REPSWITCH1/PICTURE_169.png;espalda;type;gold;filler;1;F;2;4;4;2;Stim8_Set1;0;None;31;30;31;0;30;30;30;;;;;;;;;;;;;;;;;;;;;;;157.3809828;158.4365816;158.4365816;158.4365816;158.4365816;158.4365816;158.4365816;158.4365816;158.4365816;161.4578265;161.4578265;161.4578265;161.4578265;161.4578265;161.4578265;['e', 's', 'p', 'a', 'l', 'd', 'a'];0;[0.7907247999683022, 1.066830599680543, 1.2252980000339448, 1.4441643999889493, 1.6026963000185788, 1.753124199807644, 1.8232199996709824];espalda;C:\2023\REPSWITCH21092023\REPSWITCH_excgange\REPSWITCH_excgange\data/320204_REPSWITCH1_version2_list4_2023-12-05_16h51.37.528_micRespv2l4_recorded\recording_micRespv2l4_2023-12-05_16h54.11.334.wav;161.4578265;161.9578904;None;;;;;;320204;1;2023-12-05_16h51.37.528;REPSWITCH1_version2_list4;2022.2.4;143.9439197;
REPSWITCH1/PICTURE_673.png;tenedor;speak;darkblue;filler;2;F;2;4;4;2;Extra5;0;None;32;31;32;0;31;31;31;;;;;;;;;;;;;;;;;;;;;;;161.9578904;162.9858313;162.9858313;162.9858313;162.9858313;162.9858313;162.9858313;162.9858313;162.9858313;166.0071055;166.0071055;166.0071055;166.0071055;166.0071055;166.0071055;None;0;;;C:\2023\REPSWITCH21092023\REPSWITCH_excgange\REPSWITCH_excgange\data/320204_REPSWITCH1_version2_list4_2023-12-05_16h51.37.528_micRespv2l4_recorded\recording_micRespv2l4_2023-12-05_16h54.15.883.wav;166.0071055;166.5070989;None;;;;;;320204;1;2023-12-05_16h51.37.528;REPSWITCH1_version2_list4;2022.2.4;143.9439197;
REPSWITCH1/PICTURE_142.png;vaso;type;gold;filler;1;F;2;4;4;2;Stim7_Set1;1;switch;33;32;33;0;32;32;32;;;;;;;;;;;;;;;;;;;;;;;166.5070989;167.5419798;167.5419798;167.5419798;167.5419798;167.5419798;167.5419798;167.5419798;167.5419798;170.5632557;170.5632557;170.5632557;170.5632557;170.5632557;170.5632557;['v', 'a', 's', 'o'];0;[0.7331858999095857, 0.8471031999215484, 1.2293253000825644, 1.331059600226581];vaso;C:\2023\REPSWITCH21092023\REPSWITCH_excgange\REPSWITCH_excgange\data/320204_REPSWITCH1_version2_list4_2023-12-05_16h51.37.528_micRespv2l4_recorded\recording_micRespv2l4_2023-12-05_16h54.20.440.wav;170.5632557;171.0632466;None;;;;;;320204;1;2023-12-05_16h51.37.528;REPSWITCH1_version2_list4;2022.2.4;143.9439197;
REPSWITCH1/PICTURE_552.png;manzana;type;gold;nontarget;1;NT;2;4;4;2;Stim6_Set2;1;repeat;34;33;34;0;33;33;33;;;;;;;;;;;;;;;;;;;;;;;171.0632466;172.1606808;172.1606808;172.1606808;172.1606808;172.1606808;172.1606808;172.1606808;172.1606808;175.1888215;175.1888215;175.1888215;175.1888215;175.1888215;175.1888215;['m', 'a', 'n', 'z', 'a', 'n', 'a'];0;[1.0581975001841784, 1.1419069999828935, 1.2655082000419497, 1.5146297002211213, 1.79741600016132, 2.717162000015378, 2.7739598001353443];manzana;C:\2023\REPSWITCH21092023\REPSWITCH_excgange\REPSWITCH_excgange\data/320204_REPSWITCH1_version2_list4_2023-12-05_16h51.37.528_micRespv2l4_recorded\recording_micRespv2l4_2023-12-05_16h54.25.059.wav;175.1888215;;None;;;;;;320204;1;2023-12-05_16h51.37.528;REPSWITCH1_version2_list4;2022.2.4;143.9439197;
REPSWITCH1/PICTURE_552.png;manzana;speak;darkblue;switch;1;T;2;4;4;2;Stim6_Set2;0;None;35;34;35;0;34;34;34;;;;;;;;;;;;;;;;;;;;;;;175.6888603;176.9738227;176.9738227;176.9738227;176.9738227;176.9738227;176.9738227;176.9738227;176.9738227;179.9950163;179.9950163;179.9950163;179.9950163;179.9950163;179.9950163;None;0;;;C:\2023\REPSWITCH21092023\REPSWITCH_excgange\REPSWITCH_excgange\data/320204_REPSWITCH1_version2_list4_2023-12-05_16h51.37.528_micRespv2l4_recorded\recording_micRespv2l4_2023-12-05_16h54.29.871.wav;179.9950163;180.4950582;None;;;;;;320204;1;2023-12-05_16h51.37.528;REPSWITCH1_version2_list4;2022.2.4;143.9439197;
REPSWITCH1/PICTURE_135.png;traje;speak;darkblue;filler;2;F;2;4;4;2;Stim3_Set1;0;None;36;35;36;0;35;35;35;;;;;;;;;;;;;;;;;;;;;;;180.4950582;181.5160115;181.5160115;181.5160115;181.5160115;181.5160115;181.5160115;181.5160115;181.5160115;184.5372605;184.5372605;184.5372605;184.5372605;184.5372605;184.5372605;None;0;;;C:\2023\REPSWITCH21092023\REPSWITCH_excgange\REPSWITCH_excgange\data/320204_REPSWITCH1_version2_list4_2023-12-05_16h51.37.528_micRespv2l4_recorded\recording_micRespv2l4_2023-12-05_16h54.34.413.wav;184.5372605;185.0372942;None;;;;;;320204;1;2023-12-05_16h51.37.528;REPSWITCH1_version2_list4;2022.2.4;143.9439197;
REPSWITCH1/PICTURE_152.png;caracol;speak;darkblue;nontarget;2;NT;2;4;4;2;Stim2_Set2;1;repeat;37;36;37;0;36;36;36;;;;;;;;;;;;;;;;;;;;;;;185.0372942;186.1555044;186.1555044;186.1555044;186.1555044;186.1555044;186.1555044;186.1555044;186.1555044;189.17675;189.17675;189.17675;189.17675;189.17675;189.17675;None;0;;;C:\2023\REPSWITCH21092023\REPSWITCH_excgange\REPSWITCH_excgange\data/320204_REPSWITCH1_version2_list4_2023-12-05_16h51.37.528_micRespv2l4_recorded\recording_micRespv2l4_2023-12-05_16h54.39.052.wav;189.17675;189.6768205;None;;;;;;320204;1;2023-12-05_16h51.37.528;REPSWITCH1_version2_list4;2022.2.4;143.9439197;
REPSWITCH1/PICTURE_152.png;caracol;type;gold;switch;1;T;2;4;4;2;Stim2_Set2;0;None;38;37;38;0;37;37;37;;;;;;;;;;;;;;;;;;;;;;;189.6768205;190.7395096;190.7395096;190.7395096;190.7395096;190.7395096;190.7395096;190.7395096;190.7395096;193.760694;193.760694;193.760694;193.760694;193.760694;193.760694;['c', 'a', 'r', 'a', 'c', 'o', 'l'];0;[0.7482786001637578, 0.8546534003689885, 1.1701683001592755, 1.3243030002340674, 1.631284000352025, 1.7600028002634645, 1.9473723000846803];caracol;C:\2023\REPSWITCH21092023\REPSWITCH_excgange\REPSWITCH_excgange\data/320204_REPSWITCH1_version2_list4_2023-12-05_16h51.37.528_micRespv2l4_recorded\recording_micRespv2l4_2023-12-05_16h54.43.637.wav;193.760694;194.2607549;None;;;;;;320204;1;2023-12-05_16h51.37.528;REPSWITCH1_version2_list4;2022.2.4;143.9439197;
REPSWITCH1/PICTURE_381.png;fresa;type;gold;filler;1;F;2;4;4;2;Stim2_Set1;0;None;39;38;39;0;38;38;38;;;;;;;;;;;;;;;;;;;;;;;194.2607549;195.3650485;195.3650485;195.3650485;195.3650485;195.3650485;195.3650485;195.3650485;195.3650485;198.3932171;198.3932171;198.3932171;198.3932171;198.3932171;198.3932171;['f', 'r', 'e', 's', 'a'];0;[0.8763605998829007, 1.0736321001313627, 1.2600118000991642, 1.4662811998277903, 1.7126499000005424];fresa;C:\2023\REPSWITCH21092023\REPSWITCH_excgange\REPSWITCH_excgange\data/320204_REPSWITCH1_version2_list4_2023-12-05_16h51.37.528_micRespv2l4_recorded\recording_micRespv2l4_2023-12-05_16h54.48.263.wav;198.3932171;;None;;;;;;320204;1;2023-12-05_16h51.37.528;REPSWITCH1_version2_list4;2022.2.4;143.9439197;
REPSWITCH1/PICTURE_446.png;cerdo;type;gold;nontarget;1;NT;2;4;4;2;Stim7_Set2;1;repeat;40;39;40;0;39;39;39;;;;;;;;;;;;;;;;;;;;;;;198.8932772;199.9837742;199.9837742;199.9837742;199.9837742;199.9837742;199.9837742;199.9837742;199.9837742;203.0119111;203.0119111;203.0119111;203.0119111;203.0119111;203.0119111;['c', 'e', 'r', 'd', 'o'];0;[1.7706209002062678, 1.948017300106585, 2.0127993002533913, 2.1823064000345767, 2.26004539988935];cerdo;C:\2023\REPSWITCH21092023\REPSWITCH_excgange\REPSWITCH_excgange\data/320204_REPSWITCH1_version2_list4_2023-12-05_16h51.37.528_micRespv2l4_recorded\recording_micRespv2l4_2023-12-05_16h54.52.882.wav;203.0119111;;None;;;;;;320204;1;2023-12-05_16h51.37.528;REPSWITCH1_version2_list4;2022.2.4;143.9439197;
REPSWITCH1/PICTURE_446.png;cerdo;speak;darkblue;switch;2;T;2;4;4;2;Stim7_Set2;0;None;41;40;41;0;40;40;40;;;;;;;;;;;;;;;;;;;;;;;203.5119708;204.6301873;204.6301873;204.6301873;204.6301873;204.6301873;204.6301873;204.6301873;204.6301873;207.6583254;207.6583254;207.6583254;207.6583254;207.6583254;207.6583254;None;0;;;C:\2023\REPSWITCH21092023\REPSWITCH_excgange\REPSWITCH_excgange\data/320204_REPSWITCH1_version2_list4_2023-12-05_16h51.37.528_micRespv2l4_recorded\recording_micRespv2l4_2023-12-05_16h54.57.528.wav;207.6583254;;None;;;;;;320204;1;2023-12-05_16h51.37.528;REPSWITCH1_version2_list4;2022.2.4;143.9439197;
REPSWITCH1/PICTURE_264.png;mano;speak;darkblue;nontarget;2;NT;2;4;4;2;Stim3_Set2;0;None;42;41;42;0;41;41;41;;;;;;;;;;;;;;;;;;;;;;;208.1583752;209.2002274;209.2002274;209.2002274;209.2002274;209.2002274;209.2002274;209.2002274;209.2002274;212.2283655;212.2283655;212.2283655;212.2283655;212.2283655;212.2283655;None;0;;;C:\2023\REPSWITCH21092023\REPSWITCH_excgange\REPSWITCH_excgange\data/320204_REPSWITCH1_version2_list4_2023-12-05_16h51.37.528_micRespv2l4_recorded\recording_micRespv2l4_2023-12-05_16h55.02.098.wav;212.2283655;;None;;;;;;320204;1;2023-12-05_16h51.37.528;REPSWITCH1_version2_list4;2022.2.4;143.9439197;
REPSWITCH1/PICTURE_264.png;mano;speak;darkblue;repeat;2;T;2;4;4;2;Stim3_Set2;0;None;43;42;43;0;42;42;42;;;;;;;;;;;;;;;;;;;;;;;212.7284331;213.8188898;213.8188898;213.8188898;213.8188898;213.8188898;213.8188898;213.8188898;213.8188898;216.8401049;216.8401049;216.8401049;216.8401049;216.8401049;216.8401049;None;0;;;C:\2023\REPSWITCH21092023\REPSWITCH_excgange\REPSWITCH_excgange\data/320204_REPSWITCH1_version2_list4_2023-12-05_16h51.37.528_micRespv2l4_recorded\recording_micRespv2l4_2023-12-05_16h55.06.716.wav;216.8401049;217.3401661;None;;;;;;320204;1;2023-12-05_16h51.37.528;REPSWITCH1_version2_list4;2022.2.4;143.9439197;
REPSWITCH1/PICTURE_128.png;muñeca;type;gold;filler;1;F;2;4;4;2;Stim4_Set1;0;None;44;43;44;0;43;43;43;;;;;;;;;;;;;;;;;;;;;;;217.3401661;218.3750433;218.3750433;218.3750433;218.3750433;218.3750433;218.3750433;218.3750433;218.3750433;221.3962401;221.3962401;221.3962401;221.3962401;221.3962401;221.3962401;['m', 'u', 'ñ', 'e', 'c', 'a'];0;[0.9193561002612114, 1.0997498002834618, 1.3332747002132237, 1.4877567002549767, 1.8143740999512374, 2.0105596003122628];muñeca;C:\2023\REPSWITCH21092023\REPSWITCH_excgange\REPSWITCH_excgange\data/320204_REPSWITCH1_version2_list4_2023-12-05_16h51.37.528_micRespv2l4_recorded\recording_micRespv2l4_2023-12-05_16h55.11.273.wav;221.3962401;221.8963238;None;;;;;;320204;1;2023-12-05_16h51.37.528;REPSWITCH1_version2_list4;2022.2.4;143.9439197;
REPSWITCH1/PICTURE_30.png;granja;speak;darkblue;nontarget;2;NT;2;4;4;2;Stim5_Set2;1;switch;45;44;45;0;44;44;44;;;;;;;;;;;;;;;;;;;;;;;221.8963238;222.9936672;222.9936672;222.9936672;222.9936672;222.9936672;222.9936672;222.9936672;222.9936672;226.0218777;226.0218777;226.0218777;226.0218777;226.0218777;226.0218777;None;0;;;C:\2023\REPSWITCH21092023\REPSWITCH_excgange\REPSWITCH_excgange\data/320204_REPSWITCH1_version2_list4_2023-12-05_16h51.37.528_micRespv2l4_recorded\recording_micRespv2l4_2023-12-05_16h55.15.892.wav;226.0218777;226.5219436;None;;;;;;320204;1;2023-12-05_16h51.37.528;REPSWITCH1_version2_list4;2022.2.4;143.9439197;
REPSWITCH1/PICTURE_30.png;granja;speak;darkblue;repeat;2;T;2;4;4;2;Stim5_Set2;0;None;46;45;46;0;45;45;45;;;;;;;;;;;;;;;;;;;;;;;226.5219436;227.6957172;227.6957172;227.6957172;227.6957172;227.6957172;227.6957172;227.6957172;227.6957172;230.7169407;230.7169407;230.7169407;230.7169407;230.7169407;230.7169407;None;0;;;C:\2023\REPSWITCH21092023\REPSWITCH_excgange\REPSWITCH_excgange\data/320204_REPSWITCH1_version2_list4_2023-12-05_16h51.37.528_micRespv2l4_recorded\recording_micRespv2l4_2023-12-05_16h55.20.593.wav;230.7169407;231.217007;None;;;;;;320204;1;2023-12-05_16h51.37.528;REPSWITCH1_version2_list4;2022.2.4;143.9439197;
REPSWITCH1/PICTURE_646.png;tronco;type;gold;filler;1;F;2;4;4;2;Extra4;0;None;47;46;47;0;46;46;46;;;;;;;;;;;;;;;;;;;;;;;231.217007;232.2658113;232.2658113;232.2658113;232.2658113;232.2658113;232.2658113;232.2658113;232.2658113;235.2939523;235.2939523;235.2939523;235.2939523;235.2939523;235.2939523;['t', 'r', 'o', 'n', 'c', 'o'];0;[1.0112088001333177, 1.0560098998248577, 1.2268559001386166, 1.3839227999560535, 1.5613108999095857, 1.6712414999492466];tronco;C:\2023\REPSWITCH21092023\REPSWITCH_excgange\REPSWITCH_excgange\data/320204_REPSWITCH1_version2_list4_2023-12-05_16h51.37.528_micRespv2l4_recorded\recording_micRespv2l4_2023-12-05_16h55.25.164.wav;235.2939523;;None;;;;;;320204;1;2023-12-05_16h51.37.528;REPSWITCH1_version2_list4;2022.2.4;143.9439197;
REPSWITCH1/PICTURE_16.png;cazador;speak;darkblue;filler;2;F;2;4;4;2;Stim6_Set1;0;None;48;47;48;0;47;47;47;;;;;;;;;;;;;;;;;;;;;;;235.7939853;236.8705315;236.8705315;236.8705315;236.8705315;236.8705315;236.8705315;236.8705315;236.8705315;239.8986944;239.8986944;239.8986944;239.8986944;239.8986944;239.8986944;None;0;;;C:\2023\REPSWITCH21092023\REPSWITCH_excgange\REPSWITCH_excgange\data/320204_REPSWITCH1_version2_list4_2023-12-05_16h51.37.528_micRespv2l4_recorded\recording_micRespv2l4_2023-12-05_16h55.29.768.wav;239.8986944;;None;;;;;;320204;1;2023-12-05_16h51.37.528;REPSWITCH1_version2_list4;2022.2.4;143.9439197;
REPSWITCH1/PICTURE_175.png;pintor;speak;darkblue;nontarget;2;NT;2;4;4;2;Stim1_Set2;1;repeat;49;48;49;0;48;48;48;;;;;;;;;;;;;;;;;;;;;;;240.3987649;241.454459;241.454459;241.454459;241.454459;241.454459;241.454459;241.454459;241.454459;244.4756556;244.4756556;244.4756556;244.4756556;244.4756556;244.4756556;None;0;;;C:\2023\REPSWITCH21092023\REPSWITCH_excgange\REPSWITCH_excgange\data/320204_REPSWITCH1_version2_list4_2023-12-05_16h51.37.528_micRespv2l4_recorded\recording_micRespv2l4_2023-12-05_16h55.34.352.wav;244.4756556;244.9757569;None;;;;;;320204;1;2023-12-05_16h51.37.528;REPSWITCH1_version2_list4;2022.2.4;143.9439197;
REPSWITCH1/PICTURE_175.png;pintor;type;gold;switch;1;T;2;4;4;2;Stim1_Set2;0;None;50;49;50;0;49;49;49;;;;;;;;;;;;;;;;;;;;;;;244.9757569;246.1079073;246.1079073;246.1079073;246.1079073;246.1079073;246.1079073;246.1079073;246.1079073;249.1360096;249.1360096;249.1360096;249.1360096;249.1360096;249.1360096;['p', 'i', 'n', 't', 'o', 'r'];0;[0.9299991996958852, 1.1584707000292838, 1.2332271998748183, 1.3607938000932336, 1.454444999806583, 1.5392052000388503];pintor;C:\2023\REPSWITCH21092023\REPSWITCH_excgange\REPSWITCH_excgange\data/320204_REPSWITCH1_version2_list4_2023-12-05_16h51.37.528_micRespv2l4_recorded\recording_micRespv2l4_2023-12-05_16h55.39.006.wav;249.1360096;;None;;;;;;320204;1;2023-12-05_16h51.37.528;REPSWITCH1_version2_list4;2022.2.4;143.9439197;
REPSWITCH1/PICTURE_663.png;columna;speak;darkblue;filler;2;F;4;4;4;2;Extra6;0;None;51;50;51;0;50;50;50;;;;;;;;;;;;;;;;;;;;;;;249.6360897;250.7196259;250.7196259;250.7196259;250.7196259;250.7196259;250.7196259;250.7196259;250.7196259;253.7408001;253.7408001;253.7408001;253.7408001;253.7408001;253.7408001;None;0;;;C:\2023\REPSWITCH21092023\REPSWITCH_excgange\REPSWITCH_excgange\data/320204_REPSWITCH1_version2_list4_2023-12-05_16h51.37.528_micRespv2l4_recorded\recording_micRespv2l4_2023-12-05_16h55.43.617.wav;253.7408001;254.2409366;space;254.2409366;254.2409366;1.307352;;;320204;1;2023-12-05_16h51.37.528;REPSWITCH1_version2_list4;2022.2.4;143.9439197;
REPSWITCH1/PICTURE_35.png;oreja;type;gold;nontarget;1;NT;3;4;4;2;Stim5_Set3;0;None;52;51;52;0;51;51;51;;;;;;;;;;;;;;;;;;;;;;;255.5604427;256.6648628;256.6648628;256.6648628;256.6648628;256.6648628;256.6648628;256.6648628;256.6648628;259.686025;259.686025;259.686025;259.686025;259.686025;259.686025;['o', 'r', 'e', 'j', 'a'];0;[1.2418996002525091, 1.3827041001059115, 1.4395681000314653, 1.5930610001087189, 1.6847588000819087];oreja;C:\2023\REPSWITCH21092023\REPSWITCH_excgange\REPSWITCH_excgange\data/320204_REPSWITCH1_version2_list4_2023-12-05_16h51.37.528_micRespv2l4_recorded\recording_micRespv2l4_2023-12-05_16h55.49.562.wav;259.686025;260.1860911;None;;;;;;320204;1;2023-12-05_16h51.37.528;REPSWITCH1_version2_list4;2022.2.4;143.9439197;
REPSWITCH1/PICTURE_35.png;oreja;speak;darkblue;switch;2;T;3;4;4;2;Stim5_Set3;0;None;53;52;53;0;52;52;52;;;;;;;;;;;;;;;;;;;;;;;260.1860911;261.3251144;261.3251144;261.3251144;261.3251144;261.3251144;261.3251144;261.3251144;261.3251144;264.3533195;264.3533195;264.3533195;264.3533195;264.3533195;264.3533195;None;0;;;C:\2023\REPSWITCH21092023\REPSWITCH_excgange\REPSWITCH_excgange\data/320204_REPSWITCH1_version2_list4_2023-12-05_16h51.37.528_micRespv2l4_recorded\recording_micRespv2l4_2023-12-05_16h55.54.223.wav;264.3533195;;None;;;;;;320204;1;2023-12-05_16h51.37.528;REPSWITCH1_version2_list4;2022.2.4;143.9439197;
REPSWITCH1/PICTURE_199.png;falda;speak;darkblue;filler;2;F;3;4;4;2;Stim8_Set2;0;None;54;53;54;0;53;53;53;;;;;;;;;;;;;;;;;;;;;;;264.8533437;265.9230319;265.9230319;265.9230319;265.9230319;265.9230319;265.9230319;265.9230319;265.9230319;268.9441685;268.9441685;268.9441685;268.9441685;268.9441685;268.9441685;None;0;;;C:\2023\REPSWITCH21092023\REPSWITCH_excgange\REPSWITCH_excgange\data/320204_REPSWITCH1_version2_list4_2023-12-05_16h51.37.528_micRespv2l4_recorded\recording_micRespv2l4_2023-12-05_16h55.58.820.wav;268.9441685;269.4442223;None;;;;;;320204;1;2023-12-05_16h51.37.528;REPSWITCH1_version2_list4;2022.2.4;143.9439197;
REPSWITCH1/PICTURE_576.png;guante;speak;darkblue;nontarget;2;NT;3;4;4;2;Stim1_Set3;1;repeat;55;54;55;0;54;54;54;;;;;;;;;;;;;;;;;;;;;;;269.4442223;270.4999349;270.4999349;270.4999349;270.4999349;270.4999349;270.4999349;270.4999349;270.4999349;273.5211866;273.5211866;273.5211866;273.5211866;273.5211866;273.5211866;None;0;;;C:\2023\REPSWITCH21092023\REPSWITCH_excgange\REPSWITCH_excgange\data/320204_REPSWITCH1_version2_list4_2023-12-05_16h51.37.528_micRespv2l4_recorded\recording_micRespv2l4_2023-12-05_16h56.03.397.wav;273.5211866;274.0212895;None;;;;;;320204;1;2023-12-05_16h51.37.528;REPSWITCH1_version2_list4;2022.2.4;143.9439197;
REPSWITCH1/PICTURE_576.png;guante;type;gold;switch;1;T;3;4;4;2;Stim1_Set3;0;None;56;55;56;0;55;55;55;;;;;;;;;;;;;;;;;;;;;;;274.0212895;275.132571;275.132571;275.132571;275.132571;275.132571;275.132571;275.132571;275.132571;278.1607469;278.1607469;278.1607469;278.1607469;278.1607469;278.1607469;['g', 'u', 'a', 'n', 't', 'e'];0;[1.0394282001070678, 1.1195948999375105, 1.2320958999916911, 1.3002293999306858, 1.4361670999787748, 1.5750067997723818];guante;C:\2023\REPSWITCH21092023\REPSWITCH_excgange\REPSWITCH_excgange\data/320204_REPSWITCH1_version2_list4_2023-12-05_16h51.37.528_micRespv2l4_recorded\recording_micRespv2l4_2023-12-05_16h56.08.030.wav;278.1607469;;None;;;;;;320204;1;2023-12-05_16h51.37.528;REPSWITCH1_version2_list4;2022.2.4;143.9439197;
REPSWITCH1/PICTURE_517.png;cuerda;type;gold;filler;1;F;3;4;4;2;Stim4_Set2;1;repeat;57;56;57;0;56;56;56;;;;;;;;;;;;;;;;;;;;;;;278.6607448;279.8276196;279.8276196;279.8276196;279.8276196;279.8276196;279.8276196;279.8276196;279.8276196;282.8487504;282.8487504;282.8487504;282.8487504;282.8487504;282.8487504;['c', 'u', 'e', 'r', 'd', 'a'];0;[0.8160613002255559, 0.9137221002019942, 1.0207293001003563, 1.0924917003139853, 1.282849000301212, 1.3350213002413511];cuerda;C:\2023\REPSWITCH21092023\REPSWITCH_excgange\REPSWITCH_excgange\data/320204_REPSWITCH1_version2_list4_2023-12-05_16h51.37.528_micRespv2l4_recorded\recording_micRespv2l4_2023-12-05_16h56.12.726.wav;282.8487504;283.3488806;None;;;;;;320204;1;2023-12-05_16h51.37.528;REPSWITCH1_version2_list4;2022.2.4;143.9439197;
REPSWITCH1/PICTURE_271.png;conejo;type;gold;nontarget;1;NT;3;4;4;2;Stim7_Set3;1;repeat;58;57;58;0;57;57;57;;;;;;;;;;;;;;;;;;;;;;;283.3488806;284.4462189;284.4462189;284.4462189;284.4462189;284.4462189;284.4462189;284.4462189;284.4462189;287.467422;287.467422;287.467422;287.467422;287.467422;287.467422;['c', 'o', 'n', 'e', 'j', 'o'];0;[0.9302678001113236, 1.048297300003469, 1.166936400346458, 1.2924416000023484, 1.3813444003462791, 1.518891400191933];conejo;C:\2023\REPSWITCH21092023\REPSWITCH_excgange\REPSWITCH_excgange\data/320204_REPSWITCH1_version2_list4_2023-12-05_16h51.37.528_micRespv2l4_recorded\recording_micRespv2l4_2023-12-05_16h56.17.344.wav;287.467422;287.9675942;None;;;;;;320204;1;2023-12-05_16h51.37.528;REPSWITCH1_version2_list4;2022.2.4;143.9439197;
REPSWITCH1/PICTURE_271.png;conejo;speak;darkblue;switch;2;T;3;4;4;2;Stim7_Set3;0;None;59;58;59;0;58;58;58;;;;;;;;;;;;;;;;;;;;;;;287.9675942;289.0440335;289.0440335;289.0440335;289.0440335;289.0440335;289.0440335;289.0440335;289.0440335;292.0722786;292.0722786;292.0722786;292.0722786;292.0722786;292.0722786;None;0;;;C:\2023\REPSWITCH21092023\REPSWITCH_excgange\REPSWITCH_excgange\data/320204_REPSWITCH1_version2_list4_2023-12-05_16h51.37.528_micRespv2l4_recorded\recording_micRespv2l4_2023-12-05_16h56.21.942.wav;292.0722786;;None;;;;;;320204;1;2023-12-05_16h51.37.528;REPSWITCH1_version2_list4;2022.2.4;143.9439197;
REPSWITCH1/PICTURE_552.png;manzana;type;gold;filler;1;F;3;4;4;2;Stim6_Set2;0;None;60;59;60;0;59;59;59;;;;;;;;;;;;;;;;;;;;;;;292.5722664;293.5933232;293.5933232;293.5933232;293.5933232;293.5933232;293.5933232;293.5933232;293.5933232;296.6144978;296.6144978;296.6144978;296.6144978;296.6144978;296.6144978;['m', 'a', 'n', 'z', 'a', 'n', 'a'];0;[0.885443199891597, 0.9671716000884771, 1.0797938001342118, 1.3015116001479328, 1.768728599883616, 1.8986243000254035, 2.2974884998984635];manzana;C:\2023\REPSWITCH21092023\REPSWITCH_excgange\REPSWITCH_excgange\data/320204_REPSWITCH1_version2_list4_2023-12-05_16h51.37.528_micRespv2l4_recorded\recording_micRespv2l4_2023-12-05_16h56.26.491.wav;296.6144978;297.1145586;None;;;;;;320204;1;2023-12-05_16h51.37.528;REPSWITCH1_version2_list4;2022.2.4;143.9439197;
REPSWITCH1/PICTURE_242.png;cartero;speak;darkblue;nontarget;2;NT;3;4;4;2;Stim3_Set3;1;switch;61;60;61;0;60;60;60;;;;;;;;;;;;;;;;;;;;;;;297.1145586;298.204974;298.204974;298.204974;298.204974;298.204974;298.204974;298.204974;298.204974;301.2331816;301.2331816;301.2331816;301.2331816;301.2331816;301.2331816;None;0;;;C:\2023\REPSWITCH21092023\REPSWITCH_excgange\REPSWITCH_excgange\data/320204_REPSWITCH1_version2_list4_2023-12-05_16h51.37.528_micRespv2l4_recorded\recording_micRespv2l4_2023-12-05_16h56.31.103.wav;301.2331816;;None;;;;;;320204;1;2023-12-05_16h51.37.528;REPSWITCH1_version2_list4;2022.2.4;143.9439197;
REPSWITCH1/PICTURE_242.png;cartero;speak;darkblue;repeat;2;T;3;4;4;2;Stim3_Set3;0;None;62;61;62;0;61;61;61;;;;;;;;;;;;;;;;;;;;;;;301.7332097;302.7680624;302.7680624;302.7680624;302.7680624;302.7680624;302.7680624;302.7680624;302.7680624;305.7962286;305.7962286;305.7962286;305.7962286;305.7962286;305.7962286;None;0;;;C:\2023\REPSWITCH21092023\REPSWITCH_excgange\REPSWITCH_excgange\data/320204_REPSWITCH1_version2_list4_2023-12-05_16h51.37.528_micRespv2l4_recorded\recording_micRespv2l4_2023-12-05_16h56.35.666.wav;305.7962286;;None;;;;;;320204;1;2023-12-05_16h51.37.528;REPSWITCH1_version2_list4;2022.2.4;143.9439197;
REPSWITCH1/PICTURE_152.png;caracol;speak;darkblue;filler;2;F;3;4;4;2;Stim2_Set2;0;None;63;62;63;0;62;62;62;;;;;;;;;;;;;;;;;;;;;;;306.2962947;307.3589775;307.3589775;307.3589775;307.3589775;307.3589775;307.3589775;307.3589775;307.3589775;310.3801881;310.3801881;310.3801881;310.3801881;310.3801881;310.3801881;None;0;;;C:\2023\REPSWITCH21092023\REPSWITCH_excgange\REPSWITCH_excgange\data/320204_REPSWITCH1_version2_list4_2023-12-05_16h51.37.528_micRespv2l4_recorded\recording_micRespv2l4_2023-12-05_16h56.40.256.wav;310.3801881;310.8802313;None;;;;;;320204;1;2023-12-05_16h51.37.528;REPSWITCH1_version2_list4;2022.2.4;143.9439197;
REPSWITCH1/PICTURE_446.png;cerdo;type;gold;filler;1;F;3;4;4;2;Stim7_Set2;1;switch;64;63;64;0;63;63;63;;;;;;;;;;;;;;;;;;;;;;;310.8802313;311.9428795;311.9428795;311.9428795;311.9428795;311.9428795;311.9428795;311.9428795;311.9428795;314.9710828;314.9710828;314.9710828;314.9710828;314.9710828;314.9710828;['c', 'e', 'r', 'd', 'o'];0;[0.7831529001705348, 1.0176722002215683, 1.0758529002778232, 1.2764398003928363, 1.5126029001548886];cerdo;C:\2023\REPSWITCH21092023\REPSWITCH_excgange\REPSWITCH_excgange\data/320204_REPSWITCH1_version2_list4_2023-12-05_16h51.37.528_micRespv2l4_recorded\recording_micRespv2l4_2023-12-05_16h56.44.841.wav;314.9710828;;None;;;;;;320204;1;2023-12-05_16h51.37.528;REPSWITCH1_version2_list4;2022.2.4;143.9439197;
REPSWITCH1/PICTURE_610.png;miel;speak;darkblue;nontarget;2;NT;3;4;4;2;Stim2_Set3;1;switch;65;64;65;0;64;64;64;;;;;;;;;;;;;;;;;;;;;;;315.4711394;316.5962674;316.5962674;316.5962674;316.5962674;316.5962674;316.5962674;316.5962674;316.5962674;319.6244565;319.6244565;319.6244565;319.6244565;319.6244565;319.6244565;None;0;;;C:\2023\REPSWITCH21092023\REPSWITCH_excgange\REPSWITCH_excgange\data/320204_REPSWITCH1_version2_list4_2023-12-05_16h51.37.528_micRespv2l4_recorded\recording_micRespv2l4_2023-12-05_16h56.49.494.wav;319.6244565;;None;;;;;;320204;1;2023-12-05_16h51.37.528;REPSWITCH1_version2_list4;2022.2.4;143.9439197;
REPSWITCH1/PICTURE_610.png;miel;speak;darkblue;repeat;2;T;3;4;4;2;Stim2_Set3;0;None;66;65;66;0;65;65;65;;;;;;;;;;;;;;;;;;;;;;;320.1245104;321.1871753;321.1871753;321.1871753;321.1871753;321.1871753;321.1871753;321.1871753;321.1871753;324.2083617;324.2083617;324.2083617;324.2083617;324.2083617;324.2083617;None;0;;;C:\2023\REPSWITCH21092023\REPSWITCH_excgange\REPSWITCH_excgange\data/320204_REPSWITCH1_version2_list4_2023-12-05_16h51.37.528_micRespv2l4_recorded\recording_micRespv2l4_2023-12-05_16h56.54.084.wav;324.2083617;324.7084553;None;;;;;;320204;1;2023-12-05_16h51.37.528;REPSWITCH1_version2_list4;2022.2.4;143.9439197;
REPSWITCH1/PICTURE_320.png;iglesia;speak;darkblue;nontarget;2;NT;3;4;4;2;Stim8_Set3;1;repeat;67;66;67;0;66;66;66;;;;;;;;;;;;;;;;;;;;;;;324.7084553;325.8613784;325.8613784;325.8613784;325.8613784;325.8613784;325.8613784;325.8613784;325.8613784;328.8825897;328.8825897;328.8825897;328.8825897;328.8825897;328.8825897;None;0;;;C:\2023\REPSWITCH21092023\REPSWITCH_excgange\REPSWITCH_excgange\data/320204_REPSWITCH1_version2_list4_2023-12-05_16h51.37.528_micRespv2l4_recorded\recording_micRespv2l4_2023-12-05_16h56.58.759.wav;328.8825897;329.3826699;None;;;;;;320204;1;2023-12-05_16h51.37.528;REPSWITCH1_version2_list4;2022.2.4;143.9439197;
REPSWITCH1/PICTURE_320.png;iglesia;type;gold;switch;1;T;3;4;4;2;Stim8_Set3;0;None;68;67;68;0;67;67;67;;;;;;;;;;;;;;;;;;;;;;;329.3826699;330.486986;330.486986;330.486986;330.486986;330.486986;330.486986;330.486986;330.486986;333.5082091;333.5082091;333.5082091;333.5082091;333.5082091;333.5082091;['i', 'g', 'l', 'e', 'a', 's', 'backspace', 'backspace', 's', 'i', 'a'];0;[0.8909738999791443, 1.0393642000854015, 1.1440477999858558, 1.27959130005911, 1.583545799832791, 2.0702655999921262, 2.3712144000455737, 2.502128600142896, 2.605125400237739, 2.7486212998628616, 2.840321300085634];iglesia;C:\2023\REPSWITCH21092023\REPSWITCH_excgange\REPSWITCH_excgange\data/320204_REPSWITCH1_version2_list4_2023-12-05_16h51.37.528_micRespv2l4_recorded\recording_micRespv2l4_2023-12-05_16h57.03.385.wav;333.5082091;334.0083462;None;;;;;;320204;1;2023-12-05_16h51.37.528;REPSWITCH1_version2_list4;2022.2.4;143.9439197;
REPSWITCH1/PICTURE_30.png;granja;speak;darkblue;filler;2;F;3;4;4;2;Stim5_Set2;0;None;69;68;69;0;68;68;68;;;;;;;;;;;;;;;;;;;;;;;334.0083462;335.098736;335.098736;335.098736;335.098736;335.098736;335.098736;335.098736;335.098736;338.1269287;338.1269287;338.1269287;338.1269287;338.1269287;338.1269287;None;0;;;C:\2023\REPSWITCH21092023\REPSWITCH_excgange\REPSWITCH_excgange\data/320204_REPSWITCH1_version2_list4_2023-12-05_16h51.37.528_micRespv2l4_recorded\recording_micRespv2l4_2023-12-05_16h57.07.997.wav;338.1269287;;None;;;;;;320204;1;2023-12-05_16h51.37.528;REPSWITCH1_version2_list4;2022.2.4;143.9439197;
REPSWITCH1/PICTURE_264.png;mano;type;gold;filler;1;F;3;4;4;2;Stim3_Set2;0;None;70;69;70;0;69;69;69;;;;;;;;;;;;;;;;;;;;;;;338.6269617;339.6548721;339.6548721;339.6548721;339.6548721;339.6548721;339.6548721;339.6548721;339.6548721;342.6831262;342.6831262;342.6831262;342.6831262;342.6831262;342.6831262;['m', 'a', 'n', 'o'];0;[0.9239019001834095, 1.0026652999222279, 1.1464515002444386, 1.2023399001918733];mano;C:\2023\REPSWITCH21092023\REPSWITCH_excgange\REPSWITCH_excgange\data/320204_REPSWITCH1_version2_list4_2023-12-05_16h51.37.528_micRespv2l4_recorded\recording_micRespv2l4_2023-12-05_16h57.12.553.wav;342.6831262;;None;;;;;;320204;1;2023-12-05_16h51.37.528;REPSWITCH1_version2_list4;2022.2.4;143.9439197;
REPSWITCH1/PICTURE_464.png;goma;type;gold;nontarget;1;NT;3;4;4;2;Stim6_Set3;0;None;71;70;71;0;70;70;70;;;;;;;;;;;;;;;;;;;;;;;343.1830791;344.2319151;344.2319151;344.2319151;344.2319151;344.2319151;344.2319151;344.2319151;344.2319151;347.253061;347.253061;347.253061;347.253061;347.253061;347.253061;['g', 'o', 'm', 'a'];0;[0.9506347998976707, 1.0223956000991166, 1.10640860022977, 1.2240448002703488];goma;C:\2023\REPSWITCH21092023\REPSWITCH_excgange\REPSWITCH_excgange\data/320204_REPSWITCH1_version2_list4_2023-12-05_16h51.37.528_micRespv2l4_recorded\recording_micRespv2l4_2023-12-05_16h57.17.130.wav;347.253061;347.7532057;None;;;;;;320204;1;2023-12-05_16h51.37.528;REPSWITCH1_version2_list4;2022.2.4;143.9439197;
REPSWITCH1/PICTURE_464.png;goma;type;gold;repeat;1;T;3;4;4;2;Stim6_Set3;0;None;72;71;72;0;71;71;71;;;;;;;;;;;;;;;;;;;;;;;347.7532057;348.8852495;348.8852495;348.8852495;348.8852495;348.8852495;348.8852495;348.8852495;348.8852495;351.9064601;351.9064601;351.9064601;351.9064601;351.9064601;351.9064601;['g', 'o', 'm', 'a'];0;[1.037271700333804, 1.0930779003538191, 1.1867653001099825, 1.3640373004600406];goma;C:\2023\REPSWITCH21092023\REPSWITCH_excgange\REPSWITCH_excgange\data/320204_REPSWITCH1_version2_list4_2023-12-05_16h51.37.528_micRespv2l4_recorded\recording_micRespv2l4_2023-12-05_16h57.21.783.wav;351.9064601;352.4065559;None;;;;;;320204;1;2023-12-05_16h51.37.528;REPSWITCH1_version2_list4;2022.2.4;143.9439197;
REPSWITCH1/PICTURE_175.png;pintor;speak;darkblue;filler;2;F;3;4;4;2;Stim1_Set2;0;None;73;72;73;0;72;72;72;;;;;;;;;;;;;;;;;;;;;;;352.4065559;353.5733443;353.5733443;353.5733443;353.5733443;353.5733443;353.5733443;353.5733443;353.5733443;356.5945663;356.5945663;356.5945663;356.5945663;356.5945663;356.5945663;None;0;;;C:\2023\REPSWITCH21092023\REPSWITCH_excgange\REPSWITCH_excgange\data/320204_REPSWITCH1_version2_list4_2023-12-05_16h51.37.528_micRespv2l4_recorded\recording_micRespv2l4_2023-12-05_16h57.26.471.wav;356.5945663;357.0946668;None;;;;;;320204;1;2023-12-05_16h51.37.528;REPSWITCH1_version2_list4;2022.2.4;143.9439197;
REPSWITCH1/PICTURE_235.png;aguja;type;gold;nontarget;1;NT;3;4;4;2;Stim4_Set3;1;switch;74;73;74;0;73;73;73;;;;;;;;;;;;;;;;;;;;;;;357.0946668;358.1642326;358.1642326;358.1642326;358.1642326;358.1642326;358.1642326;358.1642326;358.1642326;361.1855079;361.1855079;361.1855079;361.1855079;361.1855079;361.1855079;['a', 'g', 'u', 'j', 'a'];0;[1.2712463000789285, 1.4716065004467964, 1.5961859002709389, 1.7549306000582874, 1.8407256002537906];aguja;C:\2023\REPSWITCH21092023\REPSWITCH_excgange\REPSWITCH_excgange\data/320204_REPSWITCH1_version2_list4_2023-12-05_16h51.37.528_micRespv2l4_recorded\recording_micRespv2l4_2023-12-05_16h57.31.061.wav;361.1855079;361.6855466;None;;;;;;320204;1;2023-12-05_16h51.37.528;REPSWITCH1_version2_list4;2022.2.4;143.9439197;
REPSWITCH1/PICTURE_235.png;aguja;type;gold;repeat;1;T;3;4;4;2;Stim4_Set3;0;None;75;74;75;0;74;74;74;;;;;;;;;;;;;;;;;;;;;;;361.6855466;362.7482501;362.7482501;362.7482501;362.7482501;362.7482501;362.7482501;362.7482501;362.7482501;365.7763434;365.7763434;365.7763434;365.7763434;365.7763434;365.7763434;['a', 'g', 'u', 'j', 'a'];0;[1.051273699849844, 1.333094600122422, 1.4427596000023186, 1.5812472999095917, 1.7059562001377344];aguja;C:\2023\REPSWITCH21092023\REPSWITCH_excgange\REPSWITCH_excgange\data/320204_REPSWITCH1_version2_list4_2023-12-05_16h51.37.528_micRespv2l4_recorded\recording_micRespv2l4_2023-12-05_16h57.35.646.wav;365.7763434;;None;;;;;;320204;1;2023-12-05_16h51.37.528;REPSWITCH1_version2_list4;2022.2.4;143.9439197;
REPSWITCH1/PICTURE_576.png;guante;type;gold;filler;1;F;4;4;4;2;Stim1_Set3;1;repeat;76;75;76;0;75;75;75;;;;;;;;;;;;;;;;;;;;;;;366.2764131;367.290515;367.290515;367.290515;367.290515;367.290515;367.290515;367.290515;367.290515;370.3186196;370.3186196;370.3186196;370.3186196;370.3186196;370.3186196;['g', 'u', 'a', 'n', 't', 'e'];0;[0.8637562999501824, 0.9355524000711739, 1.0312051000073552, 1.1059097996912897, 1.228830199688673, 1.6663369997404516];guante;C:\2023\REPSWITCH21092023\REPSWITCH_excgange\REPSWITCH_excgange\data/320204_REPSWITCH1_version2_list4_2023-12-05_16h51.37.528_micRespv2l4_recorded\recording_micRespv2l4_2023-12-05_16h57.40.188.wav;370.3186196;;None;;;;;;320204;1;2023-12-05_16h51.37.528;REPSWITCH1_version2_list4;2022.2.4;143.9439197;
REPSWITCH1/PICTURE_340.png;espejo;speak;darkblue;filler;2;F;4;4;4;2;Extra1;0;None;77;76;77;0;76;76;76;;;;;;;;;;;;;;;;;;;;;;;370.8186948;371.9508825;371.9508825;371.9508825;371.9508825;371.9508825;371.9508825;371.9508825;371.9508825;374.9789703;374.9789703;374.9789703;374.9789703;374.9789703;374.9789703;None;0;;;C:\2023\REPSWITCH21092023\REPSWITCH_excgange\REPSWITCH_excgange\data/320204_REPSWITCH1_version2_list4_2023-12-05_16h51.37.528_micRespv2l4_recorded\recording_micRespv2l4_2023-12-05_16h57.44.848.wav;374.9789703;;None;;;;;;320204;1;2023-12-05_16h51.37.528;REPSWITCH1_version2_list4;2022.2.4;143.9439197;
REPSWITCH1/PICTURE_464.png;goma;speak;darkblue;filler;2;F;4;4;4;2;Stim6_Set3;1;repeat;78;77;78;0;77;77;77;;;;;;;;;;;;;;;;;;;;;;;375.4789971;376.541656;376.541656;376.541656;376.541656;376.541656;376.541656;376.541656;376.541656;379.5698496;379.5698496;379.5698496;379.5698496;379.5698496;379.5698496;None;0;;;C:\2023\REPSWITCH21092023\REPSWITCH_excgange\REPSWITCH_excgange\data/320204_REPSWITCH1_version2_list4_2023-12-05_16h51.37.528_micRespv2l4_recorded\recording_micRespv2l4_2023-12-05_16h57.49.439.wav;379.5698496;;None;;;;;;320204;1;2023-12-05_16h51.37.528;REPSWITCH1_version2_list4;2022.2.4;143.9439197;
REPSWITCH1/PICTURE_338.png;regalo;type;gold;nontarget;1;NT;4;4;4;2;Stim6_Set4;0;None;79;78;79;0;78;78;78;;;;;;;;;;;;;;;;;;;;;;;380.0699082;381.1186752;381.1186752;381.1186752;381.1186752;381.1186752;381.1186752;381.1186752;381.1186752;384.1469064;384.1469064;384.1469064;384.1469064;384.1469064;384.1469064;['r', 'e', 'g', 'a', 'l', 'o'];0;[0.8537455000914633, 0.9095199001021683, 1.1178592997603118, 1.3323996998369694, 1.5198407997377217, 1.7061109999194741];regalo;C:\2023\REPSWITCH21092023\REPSWITCH_excgange\REPSWITCH_excgange\data/320204_REPSWITCH1_version2_list4_2023-12-05_16h51.37.528_micRespv2l4_recorded\recording_micRespv2l4_2023-12-05_16h57.54.016.wav;384.1469064;;None;;;;;;320204;1;2023-12-05_16h51.37.528;REPSWITCH1_version2_list4;2022.2.4;143.9439197;
REPSWITCH1/PICTURE_338.png;regalo;type;gold;repeat;1;T;4;4;4;2;Stim6_Set4;0;None;80;79;80;0;79;79;79;;;;;;;;;;;;;;;;;;;;;;;384.6468979;385.7164697;385.7164697;385.7164697;385.7164697;385.7164697;385.7164697;385.7164697;385.7164697;388.7446286;388.7446286;388.7446286;388.7446286;388.7446286;388.7446286;['r', 'e', 'g', 'a', 'l', 'o'];0;[0.8081564004532993, 0.8569914004765451, 1.085211900062859, 1.2387066003866494, 1.4310241001658142, 1.6417233003303409];regalo;C:\2023\REPSWITCH21092023\REPSWITCH_excgange\REPSWITCH_excgange\data/320204_REPSWITCH1_version2_list4_2023-12-05_16h51.37.528_micRespv2l4_recorded\recording_micRespv2l4_2023-12-05_16h57.58.615.wav;388.7446286;389.2447121;None;;;;;;320204;1;2023-12-05_16h51.37.528;REPSWITCH1_version2_list4;2022.2.4;143.9439197;
REPSWITCH1/PICTURE_8.png;pierna;type;gold;nontarget;1;NT;4;4;4;2;Stim3_Set4;1;repeat;81;80;81;0;80;80;80;;;;;;;;;;;;;;;;;;;;;;;389.2447121;390.3351558;390.3351558;390.3351558;390.3351558;390.3351558;390.3351558;390.3351558;390.3351558;393.3563846;393.3563846;393.3563846;393.3563846;393.3563846;393.3563846;['p', 'i', 'e', 'r', 'n', 'a'];0;[0.9071284998208284, 1.065976600162685, 1.1097723999992013, 1.1748250001110137, 1.28949850006029, 1.3750049998052418];pierna;C:\2023\REPSWITCH21092023\REPSWITCH_excgange\REPSWITCH_excgange\data/320204_REPSWITCH1_version2_list4_2023-12-05_16h51.37.528_micRespv2l4_recorded\recording_micRespv2l4_2023-12-05_16h58.03.233.wav;393.3563846;393.8564451;None;;;;;;320204;1;2023-12-05_16h51.37.528;REPSWITCH1_version2_list4;2022.2.4;143.9439197;
REPSWITCH1/PICTURE_8.png;pierna;speak;darkblue;switch;2;T;4;4;4;2;Stim3_Set4;0;None;82;81;82;0;81;81;81;;;;;;;;;;;;;;;;;;;;;;;393.8564451;394.9468516;394.9468516;394.9468516;394.9468516;394.9468516;394.9468516;394.9468516;394.9468516;397.9750429;397.9750429;397.9750429;397.9750429;397.9750429;397.9750429;None;0;;;C:\2023\REPSWITCH21092023\REPSWITCH_excgange\REPSWITCH_excgange\data/320204_REPSWITCH1_version2_list4_2023-12-05_16h51.37.528_micRespv2l4_recorded\recording_micRespv2l4_2023-12-05_16h58.07.845.wav;397.9750429;;None;;;;;;320204;1;2023-12-05_16h51.37.528;REPSWITCH1_version2_list4;2022.2.4;143.9439197;
REPSWITCH1/PICTURE_271.png;conejo;type;gold;filler;1;F;4;4;4;2;Stim7_Set3;0;None;83;82;83;0;82;82;82;;;;;;;;;;;;;;;;;;;;;;;398.4751076;399.6002379;399.6002379;399.6002379;399.6002379;399.6002379;399.6002379;399.6002379;399.6002379;402.6284359;402.6284359;402.6284359;402.6284359;402.6284359;402.6284359;['c', 'o', 'n', 'e', 'j', 'o'];0;[0.9766983003355563, 1.1411393005400896, 1.3245218005031347, 1.4273792002350092, 1.616034300532192, 1.6578279002569616];conejo;C:\2023\REPSWITCH21092023\REPSWITCH_excgange\REPSWITCH_excgange\data/320204_REPSWITCH1_version2_list4_2023-12-05_16h51.37.528_micRespv2l4_recorded\recording_micRespv2l4_2023-12-05_16h58.12.498.wav;402.6284359;;None;;;;;;320204;1;2023-12-05_16h51.37.528;REPSWITCH1_version2_list4;2022.2.4;143.9439197;
REPSWITCH1/PICTURE_687.png;camisa;speak;darkblue;nontarget;2;NT;4;4;4;2;Stim5_Set4;1;switch;84;83;84;0;83;83;83;;;;;;;;;;;;;;;;;;;;;;;403.1285055;404.2675574;404.2675574;404.2675574;404.2675574;404.2675574;404.2675574;404.2675574;404.2675574;407.2887334;407.2887334;407.2887334;407.2887334;407.2887334;407.2887334;None;0;;;C:\2023\REPSWITCH21092023\REPSWITCH_excgange\REPSWITCH_excgange\data/320204_REPSWITCH1_version2_list4_2023-12-05_16h51.37.528_micRespv2l4_recorded\recording_micRespv2l4_2023-12-05_16h58.17.165.wav;407.2887334;407.7888381;None;;;;;;320204;1;2023-12-05_16h51.37.528;REPSWITCH1_version2_list4;2022.2.4;143.9439197;
REPSWITCH1/PICTURE_687.png;camisa;speak;darkblue;repeat;2;T;4;4;4;2;Stim5_Set4;0;None;85;84;85;0;84;84;84;;;;;;;;;;;;;;;;;;;;;;;407.7888381;408.8375676;408.8375676;408.8375676;408.8375676;408.8375676;408.8375676;408.8375676;408.8375676;411.8657584;411.8657584;411.8657584;411.8657584;411.8657584;411.8657584;None;0;;;C:\2023\REPSWITCH21092023\REPSWITCH_excgange\REPSWITCH_excgange\data/320204_REPSWITCH1_version2_list4_2023-12-05_16h51.37.528_micRespv2l4_recorded\recording_micRespv2l4_2023-12-05_16h58.21.735.wav;411.8657584;;None;;;;;;320204;1;2023-12-05_16h51.37.528;REPSWITCH1_version2_list4;2022.2.4;143.9439197;
REPSWITCH1/PICTURE_319.png;vaca;speak;darkblue;nontarget;2;NT;4;4;4;2;Stim1_Set4;0;None;86;85;86;0;85;85;85;;;;;;;;;;;;;;;;;;;;;;;412.3658113;413.5187548;413.5187548;413.5187548;413.5187548;413.5187548;413.5187548;413.5187548;413.5187548;416.546965;416.546965;416.546965;416.546965;416.546965;416.546965;None;0;;;C:\2023\REPSWITCH21092023\REPSWITCH_excgange\REPSWITCH_excgange\data/320204_REPSWITCH1_version2_list4_2023-12-05_16h51.37.528_micRespv2l4_recorded\recording_micRespv2l4_2023-12-05_16h58.26.416.wav;416.546965;;None;;;;;;320204;1;2023-12-05_16h51.37.528;REPSWITCH1_version2_list4;2022.2.4;143.9439197;
REPSWITCH1/PICTURE_319.png;vaca;type;gold;switch;1;T;4;4;4;2;Stim1_Set4;0;None;87;86;87;0;86;86;86;;;;;;;;;;;;;;;;;;;;;;;417.0469961;418.0749932;418.0749932;418.0749932;418.0749932;418.0749932;418.0749932;418.0749932;418.0749932;421.1030777;421.1030777;421.1030777;421.1030777;421.1030777;421.1030777;['v', 'a', 'c', 'a'];0;[0.835927200037986, 0.9465538999065757, 1.295646300073713, 1.375414100009948];vaca;C:\2023\REPSWITCH21092023\REPSWITCH_excgange\REPSWITCH_excgange\data/320204_REPSWITCH1_version2_list4_2023-12-05_16h51.37.528_micRespv2l4_recorded\recording_micRespv2l4_2023-12-05_16h58.30.972.wav;421.1030777;;None;;;;;;320204;1;2023-12-05_16h51.37.528;REPSWITCH1_version2_list4;2022.2.4;143.9439197;
REPSWITCH1/PICTURE_242.png;cartero;speak;darkblue;filler;2;F;4;4;4;2;Stim3_Set3;0;None;88;87;88;0;87;87;87;;;;;;;;;;;;;;;;;;;;;;;421.6031307;422.7074398;422.7074398;422.7074398;422.7074398;422.7074398;422.7074398;422.7074398;422.7074398;425.7356492;425.7356492;425.7356492;425.7356492;425.7356492;425.7356492;None;0;;;C:\2023\REPSWITCH21092023\REPSWITCH_excgange\REPSWITCH_excgange\data/320204_REPSWITCH1_version2_list4_2023-12-05_16h51.37.528_micRespv2l4_recorded\recording_micRespv2l4_2023-12-05_16h58.35.605.wav;425.7356492;;None;;;;;;320204;1;2023-12-05_16h51.37.528;REPSWITCH1_version2_list4;2022.2.4;143.9439197;
REPSWITCH1/PICTURE_498.png;taza;type;gold;nontarget;1;NT;4;4;4;2;Stim4_Set4;1;switch;89;88;89;0;88;88;88;;;;;;;;;;;;;;;;;;;;;;;426.2357033;427.2844524;427.2844524;427.2844524;427.2844524;427.2844524;427.2844524;427.2844524;427.2844524;430.3126273;430.3126273;430.3126273;430.3126273;430.3126273;430.3126273;['t', 'a', 'z', 'a'];0;[0.9023997001349926, 1.0661658998578787, 1.6441684998571873, 1.8889486002735794];taza;C:\2023\REPSWITCH21092023\REPSWITCH_excgange\REPSWITCH_excgange\data/320204_REPSWITCH1_version2_list4_2023-12-05_16h51.37.528_micRespv2l4_recorded\recording_micRespv2l4_2023-12-05_16h58.40.182.wav;430.3126273;;None;;;;;;320204;1;2023-12-05_16h51.37.528;REPSWITCH1_version2_list4;2022.2.4;143.9439197;
REPSWITCH1/PICTURE_498.png;taza;speak;darkblue;switch;2;T;4;4;4;2;Stim4_Set4;0;None;90;89;90;0;89;89;89;;;;;;;;;;;;;;;;;;;;;;;430.8126933;431.8337232;431.8337232;431.8337232;431.8337232;431.8337232;431.8337232;431.8337232;431.8337232;434.8618985;434.8618985;434.8618985;434.8618985;434.8618985;434.8618985;None;0;;;C:\2023\REPSWITCH21092023\REPSWITCH_excgange\REPSWITCH_excgange\data/320204_REPSWITCH1_version2_list4_2023-12-05_16h51.37.528_micRespv2l4_recorded\recording_micRespv2l4_2023-12-05_16h58.44.732.wav;434.8618985;;None;;;;;;320204;1;2023-12-05_16h51.37.528;REPSWITCH1_version2_list4;2022.2.4;143.9439197;
REPSWITCH1/PICTURE_391.png;cadena;type;gold;filler;1;F;4;4;4;2;Extra2;0;None;91;90;91;0;90;90;90;;;;;;;;;;;;;;;;;;;;;;;435.3619057;436.4314781;436.4314781;436.4314781;436.4314781;436.4314781;436.4314781;436.4314781;436.4314781;439.4527438;439.4527438;439.4527438;439.4527438;439.4527438;439.4527438;['c', 'a', 'd', 'n', 'a'];0;[2.1236731000244617, 2.1536576999351382, 2.38679839996621, 2.578508799895644, 2.691136199980974];cadna;C:\2023\REPSWITCH21092023\REPSWITCH_excgange\REPSWITCH_excgange\data/320204_REPSWITCH1_version2_list4_2023-12-05_16h51.37.528_micRespv2l4_recorded\recording_micRespv2l4_2023-12-05_16h58.49.329.wav;439.4527438;439.9527847;None;;;;;;320204;1;2023-12-05_16h51.37.528;REPSWITCH1_version2_list4;2022.2.4;143.9439197;
REPSWITCH1/PICTURE_610.png;miel;speak;darkblue;filler;2;F;4;4;4;2;Stim2_Set3;0;None;92;91;92;0;91;91;91;;;;;;;;;;;;;;;;;;;;;;;439.9527847;441.0710292;441.0710292;441.0710292;441.0710292;441.0710292;441.0710292;441.0710292;441.0710292;444.0991257;444.0991257;444.0991257;444.0991257;444.0991257;444.0991257;None;0;;;C:\2023\REPSWITCH21092023\REPSWITCH_excgange\REPSWITCH_excgange\data/320204_REPSWITCH1_version2_list4_2023-12-05_16h51.37.528_micRespv2l4_recorded\recording_micRespv2l4_2023-12-05_16h58.53.968.wav;444.0991257;;None;;;;;;320204;1;2023-12-05_16h51.37.528;REPSWITCH1_version2_list4;2022.2.4;143.9439197;
REPSWITCH1/PICTURE_48.png;bombero;speak;darkblue;nontarget;2;NT;4;4;4;2;Stim7_Set4;1;repeat;93;92;93;0;92;92;92;;;;;;;;;;;;;;;;;;;;;;;444.5992305;445.6896843;445.6896843;445.6896843;445.6896843;445.6896843;445.6896843;445.6896843;445.6896843;448.7108943;448.7108943;448.7108943;448.7108943;448.7108943;448.7108943;None;0;;;C:\2023\REPSWITCH21092023\REPSWITCH_excgange\REPSWITCH_excgange\data/320204_REPSWITCH1_version2_list4_2023-12-05_16h51.37.528_micRespv2l4_recorded\recording_micRespv2l4_2023-12-05_16h58.58.586.wav;448.7108943;449.2109502;None;;;;;;320204;1;2023-12-05_16h51.37.528;REPSWITCH1_version2_list4;2022.2.4;143.9439197;
REPSWITCH1/PICTURE_48.png;bombero;speak;darkblue;repeat;2;T;4;4;4;2;Stim7_Set4;0;None;94;93;94;0;93;93;93;;;;;;;;;;;;;;;;;;;;;;;449.2109502;450.3153312;450.3153312;450.3153312;450.3153312;450.3153312;450.3153312;450.3153312;450.3153312;453.3364691;453.3364691;453.3364691;453.3364691;453.3364691;453.3364691;None;0;;;C:\2023\REPSWITCH21092023\REPSWITCH_excgange\REPSWITCH_excgange\data/320204_REPSWITCH1_version2_list4_2023-12-05_16h51.37.528_micRespv2l4_recorded\recording_micRespv2l4_2023-12-05_16h59.03.213.wav;453.3364691;453.8365598;None;;;;;;320204;1;2023-12-05_16h51.37.528;REPSWITCH1_version2_list4;2022.2.4;143.9439197;
REPSWITCH1/PICTURE_320.png;iglesia;type;gold;filler;1;F;4;4;4;2;Stim8_Set3;1;switch;95;94;95;0;94;94;94;;;;;;;;;;;;;;;;;;;;;;;453.8365598;454.954744;454.954744;454.954744;454.954744;454.954744;454.954744;454.954744;454.954744;457.9760031;457.9760031;457.9760031;457.9760031;457.9760031;457.9760031;['i', 'g', 'l', 'e', 'a', 'backspace', 's', 'i', 'a'];0;[0.8347506001591682, 0.9862528000958264, 1.085992000065744, 1.208539899904281, 1.5165560999885201, 1.828286400064826, 1.95495710009709, 2.0655240998603404, 2.1861189999617636];iglesia;C:\2023\REPSWITCH21092023\REPSWITCH_excgange\REPSWITCH_excgange\data/320204_REPSWITCH1_version2_list4_2023-12-05_16h51.37.528_micRespv2l4_recorded\recording_micRespv2l4_2023-12-05_16h59.07.852.wav;457.9760031;458.4760407;None;;;;;;320204;1;2023-12-05_16h51.37.528;REPSWITCH1_version2_list4;2022.2.4;143.9439197;
REPSWITCH1/PICTURE_35.png;oreja;speak;darkblue;filler;2;F;4;4;4;2;Stim5_Set3;0;None;96;95;96;0;95;95;95;;;;;;;;;;;;;;;;;;;;;;;458.4760407;459.5178826;459.5178826;459.5178826;459.5178826;459.5178826;459.5178826;459.5178826;459.5178826;462.5460389;462.5460389;462.5460389;462.5460389;462.5460389;462.5460389;None;0;;;C:\2023\REPSWITCH21092023\REPSWITCH_excgange\REPSWITCH_excgange\data/320204_REPSWITCH1_version2_list4_2023-12-05_16h51.37.528_micRespv2l4_recorded\recording_micRespv2l4_2023-12-05_16h59.12.416.wav;462.5460389;;None;;;;;;320204;1;2023-12-05_16h51.37.528;REPSWITCH1_version2_list4;2022.2.4;143.9439197;
REPSWITCH1/PICTURE_728.png;pulpo;speak;darkblue;nontarget;2;NT;4;4;4;2;Stim8_Set4;1;repeat;97;96;97;0;96;96;96;;;;;;;;;;;;;;;;;;;;;;;463.0460816;464.1712676;464.1712676;464.1712676;464.1712676;464.1712676;464.1712676;464.1712676;464.1712676;467.1924854;467.1924854;467.1924854;467.1924854;467.1924854;467.1924854;None;0;;;C:\2023\REPSWITCH21092023\REPSWITCH_excgange\REPSWITCH_excgange\data/320204_REPSWITCH1_version2_list4_2023-12-05_16h51.37.528_micRespv2l4_recorded\recording_micRespv2l4_2023-12-05_16h59.17.068.wav;467.1924854;467.6925468;None;;;;;;320204;1;2023-12-05_16h51.37.528;REPSWITCH1_version2_list4;2022.2.4;143.9439197;
REPSWITCH1/PICTURE_728.png;pulpo;type;gold;switch;1;T;4;4;4;2;Stim8_Set4;0;None;98;97;98;0;97;97;97;;;;;;;;;;;;;;;;;;;;;;;467.6925468;468.7690701;468.7690701;468.7690701;468.7690701;468.7690701;468.7690701;468.7690701;468.7690701;471.7902893;471.7902893;471.7902893;471.7902893;471.7902893;471.7902893;['p', 'u', 'l', 'p', 'o'];0;[1.0055022998712957, 1.2329623000696301, 1.437281799968332, 1.714216100051999, 1.9275551000609994];pulpo;C:\2023\REPSWITCH21092023\REPSWITCH_excgange\REPSWITCH_excgange\data/320204_REPSWITCH1_version2_list4_2023-12-05_16h51.37.528_micRespv2l4_recorded\recording_micRespv2l4_2023-12-05_16h59.21.667.wav;471.7902893;472.2903499;None;;;;;;320204;1;2023-12-05_16h51.37.528;REPSWITCH1_version2_list4;2022.2.4;143.9439197;
REPSWITCH1/PICTURE_590.png;escoba;speak;darkblue;filler;2;F;4;4;4;2;Extra3;0;None;99;98;99;0;98;98;98;;;;;;;;;;;;;;;;;;;;;;;472.2903499;473.3738842;473.3738842;473.3738842;473.3738842;473.3738842;473.3738842;473.3738842;473.3738842;476.4020322;476.4020322;476.4020322;476.4020322;476.4020322;476.4020322;None;0;;;C:\2023\REPSWITCH21092023\REPSWITCH_excgange\REPSWITCH_excgange\data/320204_REPSWITCH1_version2_list4_2023-12-05_16h51.37.528_micRespv2l4_recorded\recording_micRespv2l4_2023-12-05_16h59.26.272.wav;476.4020322;;None;;;;;;320204;1;2023-12-05_16h51.37.528;REPSWITCH1_version2_list4;2022.2.4;143.9439197;
REPSWITCH1/PICTURE_235.png;aguja;type;gold;filler;1;F;4;4;4;2;Stim4_Set3;0;None;100;99;100;0;99;99;99;;;;;;;;;;;;;;;;;;;;;;;476.9020927;477.9925077;477.9925077;477.9925077;477.9925077;477.9925077;477.9925077;477.9925077;477.9925077;481.0137087;481.0137087;481.0137087;481.0137087;481.0137087;481.0137087;['a', 'g', 'u', 'j', 'a'];0;[1.0353640001267195, 1.2745296000503004, 1.3975110999308527, 1.5768106998875737, 1.7064175996929407];aguja;C:\2023\REPSWITCH21092023\REPSWITCH_excgange\REPSWITCH_excgange\data/320204_REPSWITCH1_version2_list4_2023-12-05_16h51.37.528_micRespv2l4_recorded\recording_micRespv2l4_2023-12-05_16h59.30.889.wav;481.0137087;481.5138189;None;;;;;;320204;1;2023-12-05_16h51.37.528;REPSWITCH1_version2_list4;2022.2.4;143.9439197;
REPSWITCH1/PICTURE_719.png;baño;type;gold;nontarget;1;NT;4;4;4;2;Stim2_Set4;1;repeat;101;100;101;0;100;100;100;;;;;;;;;;;;;;;;;;;;;;;481.5138189;482.5695144;482.5695144;482.5695144;482.5695144;482.5695144;482.5695144;482.5695144;482.5695144;485.5976794;485.5976794;485.5976794;485.5976794;485.5976794;485.5976794;['b', 'a', 'ñ', 'o'];0;[0.937898600474, 1.0973935001529753, 1.2788447001948953, 1.3687166003510356];baño;C:\2023\REPSWITCH21092023\REPSWITCH_excgange\REPSWITCH_excgange\data/320204_REPSWITCH1_version2_list4_2023-12-05_16h51.37.528_micRespv2l4_recorded\recording_micRespv2l4_2023-12-05_16h59.35.468.wav;485.5976794;486.0977526;None;;;;;;320204;1;2023-12-05_16h51.37.528;REPSWITCH1_version2_list4;2022.2.4;143.9439197;
REPSWITCH1/PICTURE_719.png;baño;type;gold;repeat;1;T;4;4;4;2;Stim2_Set4;0;None;102;101;102;0;101;101;101;;;;;;;;;;;;;;;;;;;;;;;486.0977526;487.1326675;487.1326675;487.1326675;487.1326675;487.1326675;487.1326675;487.1326675;487.1326675;490.1607877;490.1607877;490.1607877;490.1607877;490.1607877;490.1607877;['b', 'a', 'ñ', 'o'];0;[0.9728513997979462, 1.0838496000505984, 1.2482678997330368, 1.7049738997593522];baño;C:\2023\REPSWITCH21092023\REPSWITCH_excgange\REPSWITCH_excgange\data/320204_REPSWITCH1_version2_list4_2023-12-05_16h51.37.528_micRespv2l4_recorded\recording_micRespv2l4_2023-12-05_16h59.40.030.wav;490.1607877;490.6608607;space;490.6608607;490.6608607;1.0497274;;;320204;1;2023-12-05_16h51.37.528;REPSWITCH1_version2_list4;2022.2.4;143.9439197;
REPSWITCH1/PICTURE_646.png;tronco;speak;darkblue;filler;2;F;1;3;4;2;Extra4;0;None;103;102;1;0;102;102;102;;;;;;;;;;;;;;;;;;;;;;;491.7234916;492.8069542;492.8069542;492.8069542;492.8069542;492.8069542;492.8069542;492.8069542;492.8069542;495.8351194;495.8351194;495.8351194;495.8351194;495.8351194;495.8351194;None;0;;;C:\2023\REPSWITCH21092023\REPSWITCH_excgange\REPSWITCH_excgange\data/320204_REPSWITCH1_version2_list4_2023-12-05_16h51.37.528_micRespv2l4_recorded\recording_micRespv2l4_2023-12-05_16h59.45.705.wav;495.8351194;;None;;;;;;320204;1;2023-12-05_16h51.37.528;REPSWITCH1_version2_list4;2022.2.4;143.9439197;
REPSWITCH1/PICTURE_340.png;espejo;type;gold;filler;1;F;1;3;4;2;Extra1;0;None;104;103;2;0;103;103;103;;;;;;;;;;;;;;;;;;;;;;;496.3351794;497.3840152;497.3840152;497.3840152;497.3840152;497.3840152;497.3840152;497.3840152;497.3840152;500.4121172;500.4121172;500.4121172;500.4121172;500.4121172;500.4121172;['e', 's', 'p', 'e', 'j', 'o'];0;[0.8960680002346635, 0.9718483998440206, 1.26375039992854, 1.4632288999855518, 1.6241321000270545, 1.7038952000439167];espejo;C:\2023\REPSWITCH21092023\REPSWITCH_excgange\REPSWITCH_excgange\data/320204_REPSWITCH1_version2_list4_2023-12-05_16h51.37.528_micRespv2l4_recorded\recording_micRespv2l4_2023-12-05_16h59.50.281.wav;500.4121172;500.9121739;None;;;;;;320204;1;2023-12-05_16h51.37.528;REPSWITCH1_version2_list4;2022.2.4;143.9439197;
REPSWITCH1/PICTURE_338.png;regalo;speak;darkblue;filler;2;F;1;3;4;2;Stim6_Set4;0;None;105;104;3;0;104;104;104;;;;;;;;;;;;;;;;;;;;;;;500.9121739;501.9331721;501.9331721;501.9331721;501.9331721;501.9331721;501.9331721;501.9331721;501.9331721;504.9613207;504.9613207;504.9613207;504.9613207;504.9613207;504.9613207;None;0;;;C:\2023\REPSWITCH21092023\REPSWITCH_excgange\REPSWITCH_excgange\data/320204_REPSWITCH1_version2_list4_2023-12-05_16h51.37.528_micRespv2l4_recorded\recording_micRespv2l4_2023-12-05_16h59.54.831.wav;504.9613207;505.4613962;None;;;;;;320204;1;2023-12-05_16h51.37.528;REPSWITCH1_version2_list4;2022.2.4;143.9439197;
REPSWITCH1/PICTURE_142.png;vaso;speak;darkblue;nontarget;2;NT;1;3;4;2;Stim7_Set1;1;repeat;106;105;4;0;105;105;105;;;;;;;;;;;;;;;;;;;;;;;505.4613962;506.6282131;506.6282131;506.6282131;506.6282131;506.6282131;506.6282131;506.6282131;506.6282131;509.6494653;509.6494653;509.6494653;509.6494653;509.6494653;509.6494653;None;0;;;C:\2023\REPSWITCH21092023\REPSWITCH_excgange\REPSWITCH_excgange\data/320204_REPSWITCH1_version2_list4_2023-12-05_16h51.37.528_micRespv2l4_recorded\recording_micRespv2l4_2023-12-05_16h59.59.525.wav;509.6494653;510.1495017;None;;;;;;320204;1;2023-12-05_16h51.37.528;REPSWITCH1_version2_list4;2022.2.4;143.9439197;
REPSWITCH1/PICTURE_142.png;vaso;speak;darkblue;repeat;2;T;1;3;4;2;Stim7_Set1;0;None;107;106;5;0;106;106;106;;;;;;;;;;;;;;;;;;;;;;;510.1495017;511.2052086;511.2052086;511.2052086;511.2052086;511.2052086;511.2052086;511.2052086;511.2052086;514.2264482;514.2264482;514.2264482;514.2264482;514.2264482;514.2264482;None;0;;;C:\2023\REPSWITCH21092023\REPSWITCH_excgange\REPSWITCH_excgange\data/320204_REPSWITCH1_version2_list4_2023-12-05_16h51.37.528_micRespv2l4_recorded\recording_micRespv2l4_2023-12-05_17h00.04.102.wav;514.2264482;514.7265893;None;;;;;;320204;1;2023-12-05_16h51.37.528;REPSWITCH1_version2_list4;2022.2.4;143.9439197;
REPSWITCH1/PICTURE_498.png;taza;type;gold;filler;1;F;1;3;4;2;Stim4_Set4;0;None;108;107;6;0;107;107;107;;;;;;;;;;;;;;;;;;;;;;;514.7265893;515.809975;515.809975;515.809975;515.809975;515.809975;515.809975;515.809975;515.809975;518.8312566;518.8312566;518.8312566;518.8312566;518.8312566;518.8312566;['t', 'a', 'z', 'a'];0;[0.8429124997928739, 0.9306104001589119, 1.2348621999844909, 1.4961723000742495];taza;C:\2023\REPSWITCH21092023\REPSWITCH_excgange\REPSWITCH_excgange\data/320204_REPSWITCH1_version2_list4_2023-12-05_16h51.37.528_micRespv2l4_recorded\recording_micRespv2l4_2023-12-05_17h00.08.707.wav;518.8312566;519.331248;None;;;;;;320204;1;2023-12-05_16h51.37.528;REPSWITCH1_version2_list4;2022.2.4;143.9439197;
REPSWITCH1/PICTURE_16.png;cazador;speak;darkblue;nontarget;2;NT;1;3;4;2;Stim6_Set1;1;switch;109;108;7;0;108;108;108;;;;;;;;;;;;;;;;;;;;;;;519.331248;520.345311;520.345311;520.345311;520.345311;520.345311;520.345311;520.345311;520.345311;523.3735494;523.3735494;523.3735494;523.3735494;523.3735494;523.3735494;None;0;;;C:\2023\REPSWITCH21092023\REPSWITCH_excgange\REPSWITCH_excgange\data/320204_REPSWITCH1_version2_list4_2023-12-05_16h51.37.528_micRespv2l4_recorded\recording_micRespv2l4_2023-12-05_17h00.13.243.wav;523.3735494;;None;;;;;;320204;1;2023-12-05_16h51.37.528;REPSWITCH1_version2_list4;2022.2.4;143.9439197;
REPSWITCH1/PICTURE_16.png;cazador;speak;darkblue;repeat;2;T;1;3;4;2;Stim6_Set1;0;None;110;109;8;0;109;109;109;;;;;;;;;;;;;;;;;;;;;;;523.8735497;524.9709964;524.9709964;524.9709964;524.9709964;524.9709964;524.9709964;524.9709964;524.9709964;527.992153;527.992153;527.992153;527.992153;527.992153;527.992153;None;0;;;C:\2023\REPSWITCH21092023\REPSWITCH_excgange\REPSWITCH_excgange\data/320204_REPSWITCH1_version2_list4_2023-12-05_16h51.37.528_micRespv2l4_recorded\recording_micRespv2l4_2023-12-05_17h00.17.868.wav;527.992153;528.49219;None;;;;;;320204;1;2023-12-05_16h51.37.528;REPSWITCH1_version2_list4;2022.2.4;143.9439197;
REPSWITCH1/PICTURE_719.png;baño;type;gold;filler;1;F;1;3;4;2;Stim2_Set4;0;None;111;110;9;0;110;110;110;;;;;;;;;;;;;;;;;;;;;;;528.49219;529.6590195;529.6590195;529.6590195;529.6590195;529.6590195;529.6590195;529.6590195;529.6590195;532.6802286;532.6802286;532.6802286;532.6802286;532.6802286;532.6802286;['b', 'a', 'ñ', 'o'];0;[0.8521524001844227, 0.9897440001368523, 1.1691564000211656, 1.629874600097537];baño;C:\2023\REPSWITCH21092023\REPSWITCH_excgange\REPSWITCH_excgange\data/320204_REPSWITCH1_version2_list4_2023-12-05_16h51.37.528_micRespv2l4_recorded\recording_micRespv2l4_2023-12-05_17h00.22.556.wav;532.6802286;533.1803849;None;;;;;;320204;1;2023-12-05_16h51.37.528;REPSWITCH1_version2_list4;2022.2.4;143.9439197;
REPSWITCH1/PICTURE_169.png;espalda;speak;darkblue;nontarget;2;NT;1;3;4;2;Stim8_Set1;0;None;112;111;10;0;111;111;111;;;;;;;;;;;;;;;;;;;;;;;533.1803849;534.3472161;534.3472161;534.3472161;534.3472161;534.3472161;534.3472161;534.3472161;534.3472161;537.3684336;537.3684336;537.3684336;537.3684336;537.3684336;537.3684336;None;0;;;C:\2023\REPSWITCH21092023\REPSWITCH_excgange\REPSWITCH_excgange\data/320204_REPSWITCH1_version2_list4_2023-12-05_16h51.37.528_micRespv2l4_recorded\recording_micRespv2l4_2023-12-05_17h00.27.244.wav;537.3684336;537.8684463;None;;;;;;320204;1;2023-12-05_16h51.37.528;REPSWITCH1_version2_list4;2022.2.4;143.9439197;
REPSWITCH1/PICTURE_169.png;espalda;type;gold;switch;1;T;1;3;4;2;Stim8_Set1;0;None;113;112;11;0;112;112;112;;;;;;;;;;;;;;;;;;;;;;;537.8684463;538.9311185;538.9311185;538.9311185;538.9311185;538.9311185;538.9311185;538.9311185;538.9311185;541.9523016;541.9523016;541.9523016;541.9523016;541.9523016;541.9523016;['e', 's', 'p', 'a', 'l', 'd', 'a'];0;[0.906321500428021, 1.1355497003532946, 1.2872595004737377, 1.434769400395453, 1.545592600479722, 1.7120353002101183, 1.7987774005159736];espalda;C:\2023\REPSWITCH21092023\REPSWITCH_excgange\REPSWITCH_excgange\data/320204_REPSWITCH1_version2_list4_2023-12-05_16h51.37.528_micRespv2l4_recorded\recording_micRespv2l4_2023-12-05_17h00.31.829.wav;541.9523016;542.4523695;None;;;;;;320204;1;2023-12-05_16h51.37.528;REPSWITCH1_version2_list4;2022.2.4;143.9439197;
REPSWITCH1/PICTURE_687.png;camisa;type;gold;filler;1;F;1;3;4;2;Stim5_Set4;0;None;114;113;12;0;113;113;113;;;;;;;;;;;;;;;;;;;;;;;542.4523695;543.5566791;543.5566791;543.5566791;543.5566791;543.5566791;543.5566791;543.5566791;543.5566791;546.577932;546.577932;546.577932;546.577932;546.577932;546.577932;['c', 'a', 'm', 'i', 's', 'a'];0;[0.9661252000369132, 1.0737847001291811, 1.24126400006935, 1.331954900175333, 1.4983641998842359, 1.7797758001834154];camisa;C:\2023\REPSWITCH21092023\REPSWITCH_excgange\REPSWITCH_excgange\data/320204_REPSWITCH1_version2_list4_2023-12-05_16h51.37.528_micRespv2l4_recorded\recording_micRespv2l4_2023-12-05_17h00.36.454.wav;546.577932;547.0779599;None;;;;;;320204;1;2023-12-05_16h51.37.528;REPSWITCH1_version2_list4;2022.2.4;143.9439197;
REPSWITCH1/PICTURE_178.png;puente;type;gold;nontarget;1;NT;1;3;4;2;Stim1_Set1;1;repeat;115;114;13;0;114;114;114;;;;;;;;;;;;;;;;;;;;;;;547.0779599;548.1614597;548.1614597;548.1614597;548.1614597;548.1614597;548.1614597;548.1614597;548.1614597;551.1826991;551.1826991;551.1826991;551.1826991;551.1826991;551.1826991;['p', 'u', 'n', 'backspace', 'e', 'n', 't', 'e'];0;[0.9300806000828743, 1.2001785999163985, 1.3845617999322712, 1.7311789002269506, 1.8208788000047207, 1.9006020999513566, 1.9946328001096845, 2.040515400003642];puente;C:\2023\REPSWITCH21092023\REPSWITCH_excgange\REPSWITCH_excgange\data/320204_REPSWITCH1_version2_list4_2023-12-05_16h51.37.528_micRespv2l4_recorded\recording_micRespv2l4_2023-12-05_17h00.41.058.wav;551.1826991;551.6827591;None;;;;;;320204;1;2023-12-05_16h51.37.528;REPSWITCH1_version2_list4;2022.2.4;143.9439197;
REPSWITCH1/PICTURE_178.png;puente;speak;darkblue;switch;2;T;1;3;4;2;Stim1_Set1;0;None;116;115;14;0;115;115;115;;;;;;;;;;;;;;;;;;;;;;;551.6827591;552.8704783;552.8704783;552.8704783;552.8704783;552.8704783;552.8704783;552.8704783;552.8704783;555.8916305;555.8916305;555.8916305;555.8916305;555.8916305;555.8916305;None;0;;;C:\2023\REPSWITCH21092023\REPSWITCH_excgange\REPSWITCH_excgange\data/320204_REPSWITCH1_version2_list4_2023-12-05_16h51.37.528_micRespv2l4_recorded\recording_micRespv2l4_2023-12-05_17h00.45.768.wav;555.8916305;556.3917929;None;;;;;;320204;1;2023-12-05_16h51.37.528;REPSWITCH1_version2_list4;2022.2.4;143.9439197;
REPSWITCH1/PICTURE_128.png;muñeca;speak;darkblue;nontarget;2;NT;1;3;4;2;Stim4_Set1;1;repeat;117;116;15;0;116;116;116;;;;;;;;;;;;;;;;;;;;;;;556.3917929;557.5376921;557.5376921;557.5376921;557.5376921;557.5376921;557.5376921;557.5376921;557.5376921;560.5589431;560.5589431;560.5589431;560.5589431;560.5589431;560.5589431;None;0;;;C:\2023\REPSWITCH21092023\REPSWITCH_excgange\REPSWITCH_excgange\data/320204_REPSWITCH1_version2_list4_2023-12-05_16h51.37.528_micRespv2l4_recorded\recording_micRespv2l4_2023-12-05_17h00.50.435.wav;560.5589431;561.059065;None;;;;;;320204;1;2023-12-05_16h51.37.528;REPSWITCH1_version2_list4;2022.2.4;143.9439197;
REPSWITCH1/PICTURE_128.png;muñeca;type;gold;switch;1;T;1;3;4;2;Stim4_Set1;0;None;118;117;16;0;117;117;117;;;;;;;;;;;;;;;;;;;;;;;561.059065;562.1008514;562.1008514;562.1008514;562.1008514;562.1008514;562.1008514;562.1008514;562.1008514;565.1220357;565.1220357;565.1220357;565.1220357;565.1220357;565.1220357;['m', 'u', 'ñ', 'e', 'c', 'a'];0;[0.7437728000804782, 0.9182344004511833, 1.1344524002633989, 1.256527400109917, 1.493742000311613, 1.599731100257486];muñeca;C:\2023\REPSWITCH21092023\REPSWITCH_excgange\REPSWITCH_excgange\data/320204_REPSWITCH1_version2_list4_2023-12-05_16h51.37.528_micRespv2l4_recorded\recording_micRespv2l4_2023-12-05_17h00.54.998.wav;565.1220357;565.6221574;None;;;;;;320204;1;2023-12-05_16h51.37.528;REPSWITCH1_version2_list4;2022.2.4;143.9439197;
REPSWITCH1/PICTURE_319.png;vaca;speak;darkblue;filler;2;F;1;3;4;2;Stim1_Set4;1;switch;119;118;17;0;118;118;118;;;;;;;;;;;;;;;;;;;;;;;565.6221574;566.740286;566.740286;566.740286;566.740286;566.740286;566.740286;566.740286;566.740286;569.7684768;569.7684768;569.7684768;569.7684768;569.7684768;569.7684768;None;0;;;C:\2023\REPSWITCH21092023\REPSWITCH_excgange\REPSWITCH_excgange\data/320204_REPSWITCH1_version2_list4_2023-12-05_16h51.37.528_micRespv2l4_recorded\recording_micRespv2l4_2023-12-05_17h00.59.638.wav;569.7684768;;None;;;;;;320204;1;2023-12-05_16h51.37.528;REPSWITCH1_version2_list4;2022.2.4;143.9439197;
REPSWITCH1/PICTURE_728.png;pulpo;speak;darkblue;filler;2;F;1;3;4;2;Stim8_Set4;0;None;120;119;18;0;119;119;119;;;;;;;;;;;;;;;;;;;;;;;570.2686145;571.4354132;571.4354132;571.4354132;571.4354132;571.4354132;571.4354132;571.4354132;571.4354132;574.4565975;574.4565975;574.4565975;574.4565975;574.4565975;574.4565975;None;0;;;C:\2023\REPSWITCH21092023\REPSWITCH_excgange\REPSWITCH_excgange\data/320204_REPSWITCH1_version2_list4_2023-12-05_16h51.37.528_micRespv2l4_recorded\recording_micRespv2l4_2023-12-05_17h01.04.332.wav;574.4565975;574.9567341;None;;;;;;320204;1;2023-12-05_16h51.37.528;REPSWITCH1_version2_list4;2022.2.4;143.9439197;
REPSWITCH1/PICTURE_381.png;fresa;type;gold;nontarget;1;NT;1;3;4;2;Stim2_Set1;1;switch;121;120;19;0;120;120;120;;;;;;;;;;;;;;;;;;;;;;;574.9567341;576.0192951;576.0192951;576.0192951;576.0192951;576.0192951;576.0192951;576.0192951;576.0192951;579.0405268;579.0405268;579.0405268;579.0405268;579.0405268;579.0405268;['f', 'r', 'e', 's', 'a'];0;[0.7869795998558402, 1.0332297999411821, 1.1029619998298585, 1.4019963000901043, 2.0298669999465346];fresa;C:\2023\REPSWITCH21092023\REPSWITCH_excgange\REPSWITCH_excgange\data/320204_REPSWITCH1_version2_list4_2023-12-05_16h51.37.528_micRespv2l4_recorded\recording_micRespv2l4_2023-12-05_17h01.08.917.wav;579.0405268;579.5406003;None;;;;;;320204;1;2023-12-05_16h51.37.528;REPSWITCH1_version2_list4;2022.2.4;143.9439197;
REPSWITCH1/PICTURE_381.png;fresa;type;gold;repeat;1;T;1;3;4;2;Stim2_Set1;0;None;122;121;20;0;121;121;121;;;;;;;;;;;;;;;;;;;;;;;579.5406003;580.6032296;580.6032296;580.6032296;580.6032296;580.6032296;580.6032296;580.6032296;580.6032296;583.6313909;583.6313909;583.6313909;583.6313909;583.6313909;583.6313909;['f', 'r', 'e', 's', 'a'];0;[0.8834882001392543, 1.1081257001496851, 1.1519418000243604, 1.3582882001064718, 1.5705854003317654];fresa;C:\2023\REPSWITCH21092023\REPSWITCH_excgange\REPSWITCH_excgange\data/320204_REPSWITCH1_version2_list4_2023-12-05_16h51.37.528_micRespv2l4_recorded\recording_micRespv2l4_2023-12-05_17h01.13.502.wav;583.6313909;;None;;;;;;320204;1;2023-12-05_16h51.37.528;REPSWITCH1_version2_list4;2022.2.4;143.9439197;
REPSWITCH1/PICTURE_8.png;pierna;speak;darkblue;filler;2;F;1;3;4;2;Stim3_Set4;0;None;123;122;21;0;122;122;122;;;;;;;;;;;;;;;;;;;;;;;584.1314829;585.2913611;585.2913611;585.2913611;585.2913611;585.2913611;585.2913611;585.2913611;585.2913611;588.3125877;588.3125877;588.3125877;588.3125877;588.3125877;588.3125877;None;0;;;C:\2023\REPSWITCH21092023\REPSWITCH_excgange\REPSWITCH_excgange\data/320204_REPSWITCH1_version2_list4_2023-12-05_16h51.37.528_micRespv2l4_recorded\recording_micRespv2l4_2023-12-05_17h01.18.188.wav;588.3125877;588.8126525;None;;;;;;320204;1;2023-12-05_16h51.37.528;REPSWITCH1_version2_list4;2022.2.4;143.9439197;
REPSWITCH1/PICTURE_48.png;bombero;speak;darkblue;filler;2;F;1;3;4;2;Stim7_Set4;0;None;124;123;22;0;123;123;123;;;;;;;;;;;;;;;;;;;;;;;588.8126525;589.9100869;589.9100869;589.9100869;589.9100869;589.9100869;589.9100869;589.9100869;589.9100869;592.9382312;592.9382312;592.9382312;592.9382312;592.9382312;592.9382312;None;0;;;C:\2023\REPSWITCH21092023\REPSWITCH_excgange\REPSWITCH_excgange\data/320204_REPSWITCH1_version2_list4_2023-12-05_16h51.37.528_micRespv2l4_recorded\recording_micRespv2l4_2023-12-05_17h01.22.807.wav;592.9382312;;None;;;;;;320204;1;2023-12-05_16h51.37.528;REPSWITCH1_version2_list4;2022.2.4;143.9439197;
REPSWITCH1/PICTURE_135.png;traje;type;gold;nontarget;1;NT;1;3;4;2;Stim3_Set1;1;switch;125;124;23;0;124;124;124;;;;;;;;;;;;;;;;;;;;;;;593.4382238;594.4939699;594.4939699;594.4939699;594.4939699;594.4939699;594.4939699;594.4939699;594.4939699;597.5221306;597.5221306;597.5221306;597.5221306;597.5221306;597.5221306;['t', 'r', 'a', 'j', 'e'];0;[0.8978268997743726, 0.923719699960202, 1.182952200062573, 1.332442100159824, 1.3902173000387847];traje;C:\2023\REPSWITCH21092023\REPSWITCH_excgange\REPSWITCH_excgange\data/320204_REPSWITCH1_version2_list4_2023-12-05_16h51.37.528_micRespv2l4_recorded\recording_micRespv2l4_2023-12-05_17h01.27.392.wav;597.5221306;;None;;;;;;320204;1;2023-12-05_16h51.37.528;REPSWITCH1_version2_list4;2022.2.4;143.9439197;
REPSWITCH1/PICTURE_135.png;traje;type;gold;repeat;1;T;1;3;4;2;Stim3_Set1;0;None;126;125;24;0;125;125;125;;;;;;;;;;;;;;;;;;;;;;;598.0221702;599.0987445;599.0987445;599.0987445;599.0987445;599.0987445;599.0987445;599.0987445;599.0987445;602.1269851;602.1269851;602.1269851;602.1269851;602.1269851;602.1269851;['t', 'r', 'a', 'j', 'e'];0;[0.8231800999492407, 0.8555149999447167, 1.0550603000447154, 1.1905967998318374, 1.2394308000802994];traje;C:\2023\REPSWITCH21092023\REPSWITCH_excgange\REPSWITCH_excgange\data/320204_REPSWITCH1_version2_list4_2023-12-05_16h51.37.528_micRespv2l4_recorded\recording_micRespv2l4_2023-12-05_17h01.31.997.wav;602.1269851;;None;;;;;;320204;1;2023-12-05_16h51.37.528;REPSWITCH1_version2_list4;2022.2.4;143.9439197;
REPSWITCH1/PICTURE_19.png;pavo;type;gold;nontarget;1;NT;1;3;4;2;Stim5_Set1;1;repeat;127;126;25;0;126;126;126;;;;;;;;;;;;;;;;;;;;;;;602.627005;603.7451866;603.7451866;603.7451866;603.7451866;603.7451866;603.7451866;603.7451866;603.7451866;606.7733469;606.7733469;606.7733469;606.7733469;606.7733469;606.7733469;['p', 'a', 'v', 'o'];0;[1.082922000437975, 1.175135100260377, 1.4176695002242923, 1.7784555004909635];pavo;C:\2023\REPSWITCH21092023\REPSWITCH_excgange\REPSWITCH_excgange\data/320204_REPSWITCH1_version2_list4_2023-12-05_16h51.37.528_micRespv2l4_recorded\recording_micRespv2l4_2023-12-05_17h01.36.643.wav;606.7733469;;None;;;;;;320204;1;2023-12-05_16h51.37.528;REPSWITCH1_version2_list4;2022.2.4;143.9439197;
REPSWITCH1/PICTURE_19.png;pavo;speak;darkblue;switch;2;T;1;3;4;2;Stim5_Set1;0;None;128;127;26;0;127;127;127;;;;;;;;;;;;;;;;;;;;;;;607.2734151;608.3430591;608.3430591;608.3430591;608.3430591;608.3430591;608.3430591;608.3430591;608.3430591;611.3642043;611.3642043;611.3642043;611.3642043;611.3642043;611.3642043;None;0;;;C:\2023\REPSWITCH21092023\REPSWITCH_excgange\REPSWITCH_excgange\data/320204_REPSWITCH1_version2_list4_2023-12-05_16h51.37.528_micRespv2l4_recorded\recording_micRespv2l4_2023-12-05_17h01.41.241.wav;611.3642043;611.8642731;None;;;;;;320204;1;2023-12-05_16h51.37.528;REPSWITCH1_version2_list4;2022.2.4;143.9439197;
REPSWITCH1/PICTURE_142.png;vaso;speak;darkblue;filler;2;F;2;3;4;2;Stim7_Set1;0;None;129;128;27;0;128;128;128;;;;;;;;;;;;;;;;;;;;;;;611.8642731;613.0311198;613.0311198;613.0311198;613.0311198;613.0311198;613.0311198;613.0311198;613.0311198;616.0523476;616.0523476;616.0523476;616.0523476;616.0523476;616.0523476;None;0;;;C:\2023\REPSWITCH21092023\REPSWITCH_excgange\REPSWITCH_excgange\data/320204_REPSWITCH1_version2_list4_2023-12-05_16h51.37.528_micRespv2l4_recorded\recording_micRespv2l4_2023-12-05_17h01.45.928.wav;616.0523476;616.5524161;None;;;;;;320204;1;2023-12-05_16h51.37.528;REPSWITCH1_version2_list4;2022.2.4;143.9439197;
REPSWITCH1/PICTURE_135.png;traje;type;gold;filler;1;F;2;3;4;2;Stim3_Set1;0;None;130;129;28;0;129;129;129;;;;;;;;;;;;;;;;;;;;;;;616.5524161;617.6011846;617.6011846;617.6011846;617.6011846;617.6011846;617.6011846;617.6011846;617.6011846;620.6223949;620.6223949;620.6223949;620.6223949;620.6223949;620.6223949;['t', 'r', 'a', 'j', 'e'];0;[0.7697842004708946, 0.8099200003780425, 0.9884183001704514, 1.0890851002186537, 1.1797715001739562];traje;C:\2023\REPSWITCH21092023\REPSWITCH_excgange\REPSWITCH_excgange\data/320204_REPSWITCH1_version2_list4_2023-12-05_16h51.37.528_micRespv2l4_recorded\recording_micRespv2l4_2023-12-05_17h01.50.498.wav;620.6223949;621.1224454;None;;;;;;320204;1;2023-12-05_16h51.37.528;REPSWITCH1_version2_list4;2022.2.4;143.9439197;
REPSWITCH1/PICTURE_446.png;cerdo;type;gold;nontarget;1;NT;2;3;4;2;Stim7_Set2;0;None;131;130;29;0;130;130;130;;;;;;;;;;;;;;;;;;;;;;;621.1224454;622.1573784;622.1573784;622.1573784;622.1573784;622.1573784;622.1573784;622.1573784;622.1573784;625.1854908;625.1854908;625.1854908;625.1854908;625.1854908;625.1854908;['c', 'e', 'r', 'd', 'o'];0;[1.2386112003587186, 1.3892658003605902, 1.4381666001863778, 1.6178741003386676, 1.7023786003701389];cerdo;C:\2023\REPSWITCH21092023\REPSWITCH_excgange\REPSWITCH_excgange\data/320204_REPSWITCH1_version2_list4_2023-12-05_16h51.37.528_micRespv2l4_recorded\recording_micRespv2l4_2023-12-05_17h01.55.055.wav;625.1854908;;None;;;;;;320204;1;2023-12-05_16h51.37.528;REPSWITCH1_version2_list4;2022.2.4;143.9439197;
REPSWITCH1/PICTURE_446.png;cerdo;type;gold;repeat;1;T;2;3;4;2;Stim7_Set2;0;None;132;131;30;0;131;131;131;;;;;;;;;;;;;;;;;;;;;;;625.6855587;626.7552138;626.7552138;626.7552138;626.7552138;626.7552138;626.7552138;626.7552138;626.7552138;629.7763819;629.7763819;629.7763819;629.7763819;629.7763819;629.7763819;['c', 'e', 'r', 'd', 'o'];0;[0.9923414001241326, 1.1732347998768091, 1.231056199874729, 1.4134776000864804, 2.1243247999809682];cerdo;C:\2023\REPSWITCH21092023\REPSWITCH_excgange\REPSWITCH_excgange\data/320204_REPSWITCH1_version2_list4_2023-12-05_16h51.37.528_micRespv2l4_recorded\recording_micRespv2l4_2023-12-05_17h01.59.653.wav;629.7763819;630.2764372;None;;;;;;320204;1;2023-12-05_16h51.37.528;REPSWITCH1_version2_list4;2022.2.4;143.9439197;
REPSWITCH1/PICTURE_16.png;cazador;speak;darkblue;filler;2;F;2;3;4;2;Stim6_Set1;0;None;133;132;31;0;132;132;132;;;;;;;;;;;;;;;;;;;;;;;630.2764372;631.3738034;631.3738034;631.3738034;631.3738034;631.3738034;631.3738034;631.3738034;631.3738034;634.4019558;634.4019558;634.4019558;634.4019558;634.4019558;634.4019558;None;0;;;C:\2023\REPSWITCH21092023\REPSWITCH_excgange\REPSWITCH_excgange\data/320204_REPSWITCH1_version2_list4_2023-12-05_16h51.37.528_micRespv2l4_recorded\recording_micRespv2l4_2023-12-05_17h02.04.272.wav;634.4019558;;None;;;;;;320204;1;2023-12-05_16h51.37.528;REPSWITCH1_version2_list4;2022.2.4;143.9439197;
REPSWITCH1/PICTURE_552.png;manzana;type;gold;nontarget;1;NT;2;3;4;2;Stim6_Set2;1;switch;134;133;32;0;133;133;133;;;;;;;;;;;;;;;;;;;;;;;634.9020428;635.9716649;635.9716649;635.9716649;635.9716649;635.9716649;635.9716649;635.9716649;635.9716649;638.9998098;638.9998098;638.9998098;638.9998098;638.9998098;638.9998098;['m', 'a', 'n', 'z', 'a', 'n', 'a'];0;[0.8297317000105977, 1.0761967999860644, 1.1758336001075804, 1.5155452000908554, 1.7751695001497865, 1.8637846000492573, 2.0055105998180807];manzana;C:\2023\REPSWITCH21092023\REPSWITCH_excgange\REPSWITCH_excgange\data/320204_REPSWITCH1_version2_list4_2023-12-05_16h51.37.528_micRespv2l4_recorded\recording_micRespv2l4_2023-12-05_17h02.08.870.wav;638.9998098;;None;;;;;;320204;1;2023-12-05_16h51.37.528;REPSWITCH1_version2_list4;2022.2.4;143.9439197;
REPSWITCH1/PICTURE_552.png;manzana;type;gold;repeat;1;T;2;3;4;2;Stim6_Set2;0;None;135;134;33;0;134;134;134;;;;;;;;;;;;;;;;;;;;;;;639.4998767;640.5903141;640.5903141;640.5903141;640.5903141;640.5903141;640.5903141;640.5903141;640.5903141;643.6184774;643.6184774;643.6184774;643.6184774;643.6184774;643.6184774;['m', 'a', 'n', 'z', 'n', 'a', 'backspace', 'backspace', 'a', 'n', 'a'];0;[0.7631820002570748, 0.8588485000655055, 0.967493100091815, 1.090141599997878, 1.3808895000256598, 1.4639118001796305, 1.732009300030768, 1.8678530999459326, 1.9067234001122415, 2.0432775001972914, 2.2655155998654664];manzana;C:\2023\REPSWITCH21092023\REPSWITCH_excgange\REPSWITCH_excgange\data/320204_REPSWITCH1_version2_list4_2023-12-05_16h51.37.528_micRespv2l4_recorded\recording_micRespv2l4_2023-12-05_17h02.13.489.wav;643.6184774;;None;;;;;;320204;1;2023-12-05_16h51.37.528;REPSWITCH1_version2_list4;2022.2.4;143.9439197;
REPSWITCH1/PICTURE_517.png;cuerda;type;gold;nontarget;1;NT;2;3;4;2;Stim4_Set2;0;None;136;135;34;0;135;135;135;;;;;;;;;;;;;;;;;;;;;;;644.1185398;645.3061759;645.3061759;645.3061759;645.3061759;645.3061759;645.3061759;645.3061759;645.3061759;648.3274059;648.3274059;648.3274059;648.3274059;648.3274059;648.3274059;['c', 'u', 'e', 'r', 'd', 'a'];0;[0.7837553001008928, 0.8574861004017293, 0.9282499002292752, 0.9969864003360271, 1.1683322004973888, 1.2460362003184855];cuerda;C:\2023\REPSWITCH21092023\REPSWITCH_excgange\REPSWITCH_excgange\data/320204_REPSWITCH1_version2_list4_2023-12-05_16h51.37.528_micRespv2l4_recorded\recording_micRespv2l4_2023-12-05_17h02.18.204.wav;648.3274059;648.8274952;None;;;;;;320204;1;2023-12-05_16h51.37.528;REPSWITCH1_version2_list4;2022.2.4;143.9439197;
REPSWITCH1/PICTURE_517.png;cuerda;speak;darkblue;switch;2;T;2;3;4;2;Stim4_Set2;0;None;137;136;35;0;136;136;136;;;;;;;;;;;;;;;;;;;;;;;648.8274952;649.9040097;649.9040097;649.9040097;649.9040097;649.9040097;649.9040097;649.9040097;649.9040097;652.9321723;652.9321723;652.9321723;652.9321723;652.9321723;652.9321723;None;0;;;C:\2023\REPSWITCH21092023\REPSWITCH_excgange\REPSWITCH_excgange\data/320204_REPSWITCH1_version2_list4_2023-12-05_16h51.37.528_micRespv2l4_recorded\recording_micRespv2l4_2023-12-05_17h02.22.802.wav;652.9321723;;None;;;;;;320204;1;2023-12-05_16h51.37.528;REPSWITCH1_version2_list4;2022.2.4;143.9439197;
REPSWITCH1/PICTURE_169.png;espalda;speak;darkblue;filler;2;F;2;3;4;2;Stim8_Set1;1;repeat;138;137;36;0;137;137;137;;;;;;;;;;;;;;;;;;;;;;;653.4322394;654.4671394;654.4671394;654.4671394;654.4671394;654.4671394;654.4671394;654.4671394;654.4671394;657.4883221;657.4883221;657.4883221;657.4883221;657.4883221;657.4883221;None;0;;;C:\2023\REPSWITCH21092023\REPSWITCH_excgange\REPSWITCH_excgange\data/320204_REPSWITCH1_version2_list4_2023-12-05_16h51.37.528_micRespv2l4_recorded\recording_micRespv2l4_2023-12-05_17h02.27.365.wav;657.4883221;657.9884244;None;;;;;;320204;1;2023-12-05_16h51.37.528;REPSWITCH1_version2_list4;2022.2.4;143.9439197;
REPSWITCH1/PICTURE_30.png;granja;speak;darkblue;nontarget;2;NT;2;3;4;2;Stim5_Set2;1;repeat;139;138;37;0;138;138;138;;;;;;;;;;;;;;;;;;;;;;;657.9884244;659.1622049;659.1622049;659.1622049;659.1622049;659.1622049;659.1622049;659.1622049;659.1622049;662.1903367;662.1903367;662.1903367;662.1903367;662.1903367;662.1903367;None;0;;;C:\2023\REPSWITCH21092023\REPSWITCH_excgange\REPSWITCH_excgange\data/320204_REPSWITCH1_version2_list4_2023-12-05_16h51.37.528_micRespv2l4_recorded\recording_micRespv2l4_2023-12-05_17h02.32.060.wav;662.1903367;;None;;;;;;320204;1;2023-12-05_16h51.37.528;REPSWITCH1_version2_list4;2022.2.4;143.9439197;
REPSWITCH1/PICTURE_30.png;granja;type;gold;switch;1;T;2;3;4;2;Stim5_Set2;0;None;140;139;38;0;139;139;139;;;;;;;;;;;;;;;;;;;;;;;662.6904261;663.7391804;663.7391804;663.7391804;663.7391804;663.7391804;663.7391804;663.7391804;663.7391804;666.7673747;666.7673747;666.7673747;666.7673747;666.7673747;666.7673747;['g', 'r', 'a', 'n', 'j', 'a'];0;[1.0205935002304614, 1.0823761001229286, 1.3641762002371252, 1.4657831001095474, 1.6574215004220605, 1.7252038000151515];granja;C:\2023\REPSWITCH21092023\REPSWITCH_excgange\REPSWITCH_excgange\data/320204_REPSWITCH1_version2_list4_2023-12-05_16h51.37.528_micRespv2l4_recorded\recording_micRespv2l4_2023-12-05_17h02.36.637.wav;666.7673747;;None;;;;;;320204;1;2023-12-05_16h51.37.528;REPSWITCH1_version2_list4;2022.2.4;143.9439197;
REPSWITCH1/PICTURE_128.png;muñeca;type;gold;filler;1;F;2;3;4;2;Stim4_Set1;1;repeat;141;140;39;0;140;140;140;;;;;;;;;;;;;;;;;;;;;;;667.2674958;668.3578665;668.3578665;668.3578665;668.3578665;668.3578665;668.3578665;668.3578665;668.3578665;671.3790517;671.3790517;671.3790517;671.3790517;671.3790517;671.3790517;['m', 'u', 'ñ', 'e', 'c', 'a'];0;[0.7563849999569356, 0.9136779000982642, 1.1644060001708567, 1.1903085000813007, 1.6325048999860883, 1.773067899979651];muñeca;C:\2023\REPSWITCH21092023\REPSWITCH_excgange\REPSWITCH_excgange\data/320204_REPSWITCH1_version2_list4_2023-12-05_16h51.37.528_micRespv2l4_recorded\recording_micRespv2l4_2023-12-05_17h02.41.255.wav;671.3790517;671.879112;None;;;;;;320204;1;2023-12-05_16h51.37.528;REPSWITCH1_version2_list4;2022.2.4;143.9439197;
