image;correctAns;respModal;frameColor;repSwitch;sequence;target;set;block;list;exp_version;stimulus;baseline;baseline_condition;trial_no;psychopy_trial;Column1;trialsREPSWITCH.thisRepN;trialsREPSWITCH.thisTrialN;trialsREPSWITCH.thisN;trialsREPSWITCH.thisIndex;textWelcome.started;textboxInstrMain1.started;textboxInstrMain1_2.started;textboxInstrMain1_3.started;keyInstrMain.started;keyInstrMain.keys;keyInstrMain.rt;textboxInstrMain2.started;textboxInstrMain2_2.started;textboxInstrMain2_3.started;textboxInstrMain2_4.started;textboxInstrMain2_5.started;textboxInstrMain2_6.started;textboxInstrMain2_7.started;textboxInstrMain2_8.started;textboxInstrMain2_9.started;textboxInstrMain2_10.started;textboxInstrMain2_11.started;textboxInstrMain2_12.started;keyInstrMain2.started;keyInstrMain2.keys;keyInstrMain2.rt;fixationITI.started;fixationITI.stopped;polygonColour.started;polygonWhite.started;imageObject.started;polygonType.started;textInput.started;keyResp.started;micRespv2l4.started;polygonColour.stopped;polygonWhite.stopped;imageObject.stopped;polygonType.stopped;textInput.stopped;keyResp.stopped;keyResp.keys;keyResp.corr;keyResp.rt;subjResponse;micRespv2l4.clip;textBlankLoop.started;textBlankLoop.stopped;keyPause.keys;textboxPause.started;keyPause.started;keyPause.rt;textboxGoodbye.started;textboxGoodbye.stopped;participant;session;date;expName;psychopyVersion;frameRate;Column2
;;;;;;;;;;;;;;;;;;;;;9.417323400266469;11.910385400056839;11.910385400056839;11.910385400056839;11.910385400056839;space;4.526230300310999;;;;;;;;;;;;;;;;;;;;;;;;;;;;;;;;;;;;;;;;;;;;320204;001;2023-12-05_16h51.37.528;REPSWITCH1_version2_list4;2022.2.4;143.94391969215405;
;;;;;;;;;;;;;;;;;;;;;;;;;;;;16.452651800122112;16.452651800122112;16.452651800122112;16.452651800122112;16.452651800122112;16.452651800122112;16.452651800122112;16.452651800122112;16.452651800122112;16.452651800122112;16.452651800122112;16.452651800122112;16.452651800122112;space;2.04351680027321;;;;;;;;;;;;;;;;;;;;;;;;;;;;;320204;001;2023-12-05_16h51.37.528;REPSWITCH1_version2_list4;2022.2.4;143.94391969215405;
REPSWITCH1/PICTURE_8.png;pierna;type;gold;filler;1;F;1;4;4;2;Stim3_Set4;0;None;1;0;1;0;0;0;0;;;;;;;;;;;;;;;;;;;;;;;18.591845800168812;19.855861800257117;19.855861800257117;19.855861800257117;19.855861800257117;19.855861800257117;19.855861800257117;19.855861800257117;19.855861800257117;22.8840966001153;22.8840966001153;22.8840966001153;22.8840966001153;22.8840966001153;22.8840966001153;['p', 'i', 'e', 'r', 'n', 'a'];0;[1.1057341005653143, 1.3123262003064156, 1.3621621001511812, 1.4240026003681123, 1.537413400132209, 1.6170862005092204];pierna;C:\2023\REPSWITCH21092023\REPSWITCH_excgange\REPSWITCH_excgange\data/320204_REPSWITCH1_version2_list4_2023-12-05_16h51.37.528_micRespv2l4_recorded\recording_micRespv2l4_2023-12-05_16h51.52.756.wav;22.8840966001153;23.384209900163114;None;;;;;;320204;001;2023-12-05_16h51.37.528;REPSWITCH1_version2_list4;2022.2.4;143.94391969215405;
REPSWITCH1/PICTURE_498.png;taza;speak;darkblue;filler;2;F;1;4;4;2;Stim4_Set4;0;None;2;1;2;0;1;1;1;;;;;;;;;;;;;;;;;;;;;;;23.384209900163114;24.446762999985367;24.446762999985367;24.446762999985367;24.446762999985367;24.446762999985367;24.446762999985367;24.446762999985367;24.446762999985367;27.467974700033665;27.467974700033665;27.467974700033665;27.467974700033665;27.467974700033665;27.467974700033665;None;0;;;C:\2023\REPSWITCH21092023\REPSWITCH_excgange\REPSWITCH_excgange\data/320204_REPSWITCH1_version2_list4_2023-12-05_16h51.37.528_micRespv2l4_recorded\recording_micRespv2l4_2023-12-05_16h51.57.345.wav;27.467974700033665;27.968061100225896;None;;;;;;320204;001;2023-12-05_16h51.37.528;REPSWITCH1_version2_list4;2022.2.4;143.94391969215405;
REPSWITCH1/PICTURE_19.png;pavo;speak;darkblue;nontarget;2;NT;1;4;4;2;Stim5_Set1;1;repeat;3;2;3;0;2;2;2;;;;;;;;;;;;;;;;;;;;;;;27.968061100225896;28.98909360030666;28.98909360030666;28.98909360030666;28.98909360030666;28.98909360030666;28.98909360030666;28.98909360030666;28.98909360030666;32.01023459993303;32.01023459993303;32.01023459993303;32.01023459993303;32.01023459993303;32.01023459993303;None;0;;;C:\2023\REPSWITCH21092023\REPSWITCH_excgange\REPSWITCH_excgange\data/320204_REPSWITCH1_version2_list4_2023-12-05_16h51.37.528_micRespv2l4_recorded\recording_micRespv2l4_2023-12-05_16h52.01.886.wav;32.01023459993303;32.51031500007957;None;;;;;;320204;001;2023-12-05_16h51.37.528;REPSWITCH1_version2_list4;2022.2.4;143.94391969215405;
REPSWITCH1/PICTURE_19.png;pavo;speak;darkblue;repeat;2;T;1;4;4;2;Stim5_Set1;0;None;4;3;4;0;3;3;3;;;;;;;;;;;;;;;;;;;;;;;32.51031500007957;33.663333400152624;33.663333400152624;33.663333400152624;33.663333400152624;33.663333400152624;33.663333400152624;33.663333400152624;33.663333400152624;36.68454990023747;36.68454990023747;36.68454990023747;36.68454990023747;36.68454990023747;36.68454990023747;None;0;;;C:\2023\REPSWITCH21092023\REPSWITCH_excgange\REPSWITCH_excgange\data/320204_REPSWITCH1_version2_list4_2023-12-05_16h51.37.528_micRespv2l4_recorded\recording_micRespv2l4_2023-12-05_16h52.06.560.wav;36.68454990023747;37.18456909991801;None;;;;;;320204;001;2023-12-05_16h51.37.528;REPSWITCH1_version2_list4;2022.2.4;143.94391969215405;
REPSWITCH1/PICTURE_319.png;vaca;type;gold;filler;1;F;1;4;4;2;Stim1_Set4;1;repeat;5;4;5;0;4;4;4;;;;;;;;;;;;;;;;;;;;;;;37.18456909991801;38.32358910003677;38.32358910003677;38.32358910003677;38.32358910003677;38.32358910003677;38.32358910003677;38.32358910003677;38.32358910003677;41.3448302000761;41.3448302000761;41.3448302000761;41.3448302000761;41.3448302000761;41.3448302000761;['v', 'a', 'c', 'a'];0;[1.2743394002318382, 1.333138800226152, 1.507517000194639, 1.5494226003065705];vaca;C:\2023\REPSWITCH21092023\REPSWITCH_excgange\REPSWITCH_excgange\data/320204_REPSWITCH1_version2_list4_2023-12-05_16h51.37.528_micRespv2l4_recorded\recording_micRespv2l4_2023-12-05_16h52.11.221.wav;41.3448302000761;41.84489860013127;None;;;;;;320204;001;2023-12-05_16h51.37.528;REPSWITCH1_version2_list4;2022.2.4;143.94391969215405;
REPSWITCH1/PICTURE_169.png;espalda;speak;darkblue;nontarget;2;NT;1;4;4;2;Stim8_Set1;1;switch;6;5;6;0;5;5;5;;;;;;;;;;;;;;;;;;;;;;;41.84489860013127;42.900592900346965;42.900592900346965;42.900592900346965;42.900592900346965;42.900592900346965;42.900592900346965;42.900592900346965;42.900592900346965;45.92179760010913;45.92179760010913;45.92179760010913;45.92179760010913;45.92179760010913;45.92179760010913;None;0;;;C:\2023\REPSWITCH21092023\REPSWITCH_excgange\REPSWITCH_excgange\data/320204_REPSWITCH1_version2_list4_2023-12-05_16h51.37.528_micRespv2l4_recorded\recording_micRespv2l4_2023-12-05_16h52.15.798.wav;45.92179760010913;46.421881600283086;None;;;;;;320204;001;2023-12-05_16h51.37.528;REPSWITCH1_version2_list4;2022.2.4;143.94391969215405;
REPSWITCH1/PICTURE_169.png;espalda;speak;darkblue;repeat;2;T;1;4;4;2;Stim8_Set1;0;None;7;6;7;0;6;6;6;;;;;;;;;;;;;;;;;;;;;;;46.421881600283086;47.49842509999871;47.49842509999871;47.49842509999871;47.49842509999871;47.49842509999871;47.49842509999871;47.49842509999871;47.49842509999871;50.5197057002224;50.5197057002224;50.5197057002224;50.5197057002224;50.5197057002224;50.5197057002224;None;0;;;C:\2023\REPSWITCH21092023\REPSWITCH_excgange\REPSWITCH_excgange\data/320204_REPSWITCH1_version2_list4_2023-12-05_16h51.37.528_micRespv2l4_recorded\recording_micRespv2l4_2023-12-05_16h52.20.396.wav;50.5197057002224;51.01972059998661;None;;;;;;320204;001;2023-12-05_16h51.37.528;REPSWITCH1_version2_list4;2022.2.4;143.94391969215405;
REPSWITCH1/PICTURE_728.png;pulpo;type;gold;filler;1;F;1;4;4;2;Stim8_Set4;0;None;8;7;8;0;7;7;7;;;;;;;;;;;;;;;;;;;;;;;51.01972059998661;52.13096580002457;52.13096580002457;52.13096580002457;52.13096580002457;52.13096580002457;52.13096580002457;52.13096580002457;52.13096580002457;55.152200600132346;55.152200600132346;55.152200600132346;55.152200600132346;55.152200600132346;55.152200600132346;['p', 'u', 'l', 'p', 'o'];0;[1.347678600344807, 1.6168104000389576, 1.8570682001300156, 2.2636948004364967, 2.4022457003593445];pulpo;C:\2023\REPSWITCH21092023\REPSWITCH_excgange\REPSWITCH_excgange\data/320204_REPSWITCH1_version2_list4_2023-12-05_16h51.37.528_micRespv2l4_recorded\recording_micRespv2l4_2023-12-05_16h52.25.028.wav;55.152200600132346;55.652267300058156;None;;;;;;320204;001;2023-12-05_16h51.37.528;REPSWITCH1_version2_list4;2022.2.4;143.94391969215405;
REPSWITCH1/PICTURE_142.png;vaso;speak;darkblue;nontarget;2;NT;1;4;4;2;Stim7_Set1;1;switch;9;8;9;0;8;8;8;;;;;;;;;;;;;;;;;;;;;;;55.652267300058156;56.805272799916565;56.805272799916565;56.805272799916565;56.805272799916565;56.805272799916565;56.805272799916565;56.805272799916565;56.805272799916565;59.83334470028058;59.83334470028058;59.83334470028058;59.83334470028058;59.83334470028058;59.83334470028058;None;0;;;C:\2023\REPSWITCH21092023\REPSWITCH_excgange\REPSWITCH_excgange\data/320204_REPSWITCH1_version2_list4_2023-12-05_16h51.37.528_micRespv2l4_recorded\recording_micRespv2l4_2023-12-05_16h52.29.703.wav;59.83334470028058;;None;;;;;;320204;001;2023-12-05_16h51.37.528;REPSWITCH1_version2_list4;2022.2.4;143.94391969215405;
REPSWITCH1/PICTURE_142.png;vaso;type;gold;switch;1;T;1;4;4;2;Stim7_Set1;0;None;10;9;10;0;9;9;9;;;;;;;;;;;;;;;;;;;;;;;60.33341239998117;61.46558619989082;61.46558619989082;61.46558619989082;61.46558619989082;61.46558619989082;61.46558619989082;61.46558619989082;61.46558619989082;64.4867831999436;64.4867831999436;64.4867831999436;64.4867831999436;64.4867831999436;64.4867831999436;['v', 'a', 's', 'o'];0;[0.9170221001841128, 1.0555631001479924, 1.3706573997624218, 1.4583645998500288];vaso;C:\2023\REPSWITCH21092023\REPSWITCH_excgange\REPSWITCH_excgange\data/320204_REPSWITCH1_version2_list4_2023-12-05_16h51.37.528_micRespv2l4_recorded\recording_micRespv2l4_2023-12-05_16h52.34.363.wav;64.4867831999436;64.98689910024405;None;;;;;;320204;001;2023-12-05_16h51.37.528;REPSWITCH1_version2_list4;2022.2.4;143.94391969215405;
REPSWITCH1/PICTURE_338.png;regalo;type;gold;filler;1;F;1;4;4;2;Stim6_Set4;1;repeat;11;10;11;0;10;10;10;;;;;;;;;;;;;;;;;;;;;;;64.98689910024405;66.0633415998891;66.0633415998891;66.0633415998891;66.0633415998891;66.0633415998891;66.0633415998891;66.0633415998891;66.0633415998891;69.09150459989905;69.09150459989905;69.09150459989905;69.09150459989905;69.09150459989905;69.09150459989905;['r', 'e', 'g', 'a', 'l', 'o'];0;[1.1424273001030087, 1.1812025997787714, 1.4017511997371912, 1.4665282000787556, 1.646249100100249, 1.8425408001057804];regalo;C:\2023\REPSWITCH21092023\REPSWITCH_excgange\REPSWITCH_excgange\data/320204_REPSWITCH1_version2_list4_2023-12-05_16h51.37.528_micRespv2l4_recorded\recording_micRespv2l4_2023-12-05_16h52.38.961.wav;69.09150459989905;;None;;;;;;320204;001;2023-12-05_16h51.37.528;REPSWITCH1_version2_list4;2022.2.4;143.94391969215405;
REPSWITCH1/PICTURE_135.png;traje;type;gold;nontarget;1;NT;1;4;4;2;Stim3_Set1;1;repeat;12;11;12;0;11;11;11;;;;;;;;;;;;;;;;;;;;;;;69.59159599989653;70.61951459990814;70.61951459990814;70.61951459990814;70.61951459990814;70.61951459990814;70.61951459990814;70.61951459990814;70.61951459990814;73.64776160009205;73.64776160009205;73.64776160009205;73.64776160009205;73.64776160009205;73.64776160009205;['t', 'r', 'a', 'j', 'e'];0;[0.9377502999268472, 0.9874792001210153, 1.1794235999695957, 1.3059849999845028, 1.3933677999302745];traje;C:\2023\REPSWITCH21092023\REPSWITCH_excgange\REPSWITCH_excgange\data/320204_REPSWITCH1_version2_list4_2023-12-05_16h51.37.528_micRespv2l4_recorded\recording_micRespv2l4_2023-12-05_16h52.43.518.wav;73.64776160009205;;None;;;;;;320204;001;2023-12-05_16h51.37.528;REPSWITCH1_version2_list4;2022.2.4;143.94391969215405;
REPSWITCH1/PICTURE_135.png;traje;speak;darkblue;switch;2;T;1;4;4;2;Stim3_Set1;0;None;13;12;13;0;12;12;12;;;;;;;;;;;;;;;;;;;;;;;74.14772540004924;75.2867757002823;75.2867757002823;75.2867757002823;75.2867757002823;75.2867757002823;75.2867757002823;75.2867757002823;75.2867757002823;78.30803510034457;78.30803510034457;78.30803510034457;78.30803510034457;78.30803510034457;78.30803510034457;None;0;;;C:\2023\REPSWITCH21092023\REPSWITCH_excgange\REPSWITCH_excgange\data/320204_REPSWITCH1_version2_list4_2023-12-05_16h51.37.528_micRespv2l4_recorded\recording_micRespv2l4_2023-12-05_16h52.48.185.wav;78.30803510034457;78.80807420006022;None;;;;;;320204;001;2023-12-05_16h51.37.528;REPSWITCH1_version2_list4;2022.2.4;143.94391969215405;
REPSWITCH1/PICTURE_381.png;fresa;speak;darkblue;nontarget;2;NT;1;4;4;2;Stim2_Set1;1;repeat;14;13;14;0;13;13;13;;;;;;;;;;;;;;;;;;;;;;;78.80807420006022;79.93324680021033;79.93324680021033;79.93324680021033;79.93324680021033;79.93324680021033;79.93324680021033;79.93324680021033;79.93324680021033;82.95444050012156;82.95444050012156;82.95444050012156;82.95444050012156;82.95444050012156;82.95444050012156;None;0;;;C:\2023\REPSWITCH21092023\REPSWITCH_excgange\REPSWITCH_excgange\data/320204_REPSWITCH1_version2_list4_2023-12-05_16h51.37.528_micRespv2l4_recorded\recording_micRespv2l4_2023-12-05_16h52.52.830.wav;82.95444050012156;83.45450300024822;None;;;;;;320204;001;2023-12-05_16h51.37.528;REPSWITCH1_version2_list4;2022.2.4;143.94391969215405;
REPSWITCH1/PICTURE_381.png;fresa;type;gold;switch;1;T;1;4;4;2;Stim2_Set1;0;None;15;14;15;0;14;14;14;;;;;;;;;;;;;;;;;;;;;;;83.45450300024822;84.53803829988465;84.53803829988465;84.53803829988465;84.53803829988465;84.53803829988465;84.53803829988465;84.53803829988465;84.53803829988465;87.56622039992362;87.56622039992362;87.56622039992362;87.56622039992362;87.56622039992362;87.56622039992362;['f', 'r', 'e', 's', 'a'];0;[0.9377824999392033, 1.1367222000844777, 1.353548999875784, 1.8413307000882924, 2.0586383999325335];fresa;C:\2023\REPSWITCH21092023\REPSWITCH_excgange\REPSWITCH_excgange\data/320204_REPSWITCH1_version2_list4_2023-12-05_16h51.37.528_micRespv2l4_recorded\recording_micRespv2l4_2023-12-05_16h52.57.435.wav;87.56622039992362;;None;;;;;;320204;001;2023-12-05_16h51.37.528;REPSWITCH1_version2_list4;2022.2.4;143.94391969215405;
REPSWITCH1/PICTURE_48.png;bombero;type;gold;filler;1;F;1;4;4;2;Stim7_Set4;0;None;16;15;16;0;15;15;15;;;;;;;;;;;;;;;;;;;;;;;88.06625210028142;89.10805090004578;89.10805090004578;89.10805090004578;89.10805090004578;89.10805090004578;89.10805090004578;89.10805090004578;89.10805090004578;92.13624190026894;92.13624190026894;92.13624190026894;92.13624190026894;92.13624190026894;92.13624190026894;['b', 'o', 'm', 'b', 'e', 'r', 'o'];0;[1.112267100252211, 1.2456509000621736, 1.3852778999134898, 1.5360210998915136, 1.7393407002091408, 1.8041232000105083, 1.9653098001144826];bombero;C:\2023\REPSWITCH21092023\REPSWITCH_excgange\REPSWITCH_excgange\data/320204_REPSWITCH1_version2_list4_2023-12-05_16h51.37.528_micRespv2l4_recorded\recording_micRespv2l4_2023-12-05_16h53.02.006.wav;92.13624190026894;;None;;;;;;320204;001;2023-12-05_16h51.37.528;REPSWITCH1_version2_list4;2022.2.4;143.94391969215405;
REPSWITCH1/PICTURE_687.png;camisa;speak;darkblue;filler;2;F;1;4;4;2;Stim5_Set4;0;None;17;16;17;0;16;16;16;;;;;;;;;;;;;;;;;;;;;;;92.63627770030871;93.76841480005533;93.76841480005533;93.76841480005533;93.76841480005533;93.76841480005533;93.76841480005533;93.76841480005533;93.76841480005533;96.7895955001004;96.7895955001004;96.7895955001004;96.7895955001004;96.7895955001004;96.7895955001004;None;0;;;C:\2023\REPSWITCH21092023\REPSWITCH_excgange\REPSWITCH_excgange\data/320204_REPSWITCH1_version2_list4_2023-12-05_16h51.37.528_micRespv2l4_recorded\recording_micRespv2l4_2023-12-05_16h53.06.666.wav;96.7895955001004;97.28968399995938;None;;;;;;320204;001;2023-12-05_16h51.37.528;REPSWITCH1_version2_list4;2022.2.4;143.94391969215405;
REPSWITCH1/PICTURE_128.png;muñeca;type;gold;nontarget;1;NT;1;4;4;2;Stim4_Set1;0;None;18;17;18;0;17;17;17;;;;;;;;;;;;;;;;;;;;;;;97.28968399995938;98.35229980014265;98.35229980014265;98.35229980014265;98.35229980014265;98.35229980014265;98.35229980014265;98.35229980014265;98.35229980014265;101.37354740034789;101.37354740034789;101.37354740034789;101.37354740034789;101.37354740034789;101.37354740034789;['m', 'u', 'ñ', 'e', 'c', 'a'];0;[0.9878381001763046, 1.160534200258553, 1.5313237002119422, 1.7549885003827512, 1.997168400324881, 2.105780000332743];muñeca;C:\2023\REPSWITCH21092023\REPSWITCH_excgange\REPSWITCH_excgange\data/320204_REPSWITCH1_version2_list4_2023-12-05_16h51.37.528_micRespv2l4_recorded\recording_micRespv2l4_2023-12-05_16h53.11.250.wav;101.37354740034789;101.87361760018393;None;;;;;;320204;001;2023-12-05_16h51.37.528;REPSWITCH1_version2_list4;2022.2.4;143.94391969215405;
REPSWITCH1/PICTURE_128.png;muñeca;type;gold;repeat;1;T;1;4;4;2;Stim4_Set1;0;None;19;18;19;0;18;18;18;;;;;;;;;;;;;;;;;;;;;;;101.87361760018393;102.96401729993522;102.96401729993522;102.96401729993522;102.96401729993522;102.96401729993522;102.96401729993522;102.96401729993522;102.96401729993522;105.99217530013993;105.99217530013993;105.99217530013993;105.99217530013993;105.99217530013993;105.99217530013993;['m', 'u', 'ñ', 'e', 'c', 'a'];0;[1.228942200075835, 1.4143130001612008, 1.6526183001697063, 1.743377699982375, 2.0212197001092136, 2.1328289001248777];muñeca;C:\2023\REPSWITCH21092023\REPSWITCH_excgange\REPSWITCH_excgange\data/320204_REPSWITCH1_version2_list4_2023-12-05_16h51.37.528_micRespv2l4_recorded\recording_micRespv2l4_2023-12-05_16h53.15.862.wav;105.99217530013993;;None;;;;;;320204;001;2023-12-05_16h51.37.528;REPSWITCH1_version2_list4;2022.2.4;143.94391969215405;
REPSWITCH1/PICTURE_719.png;baño;speak;darkblue;filler;2;F;1;4;4;2;Stim2_Set4;1;switch;20;19;20;0;19;19;19;;;;;;;;;;;;;;;;;;;;;;;106.49226870015264;107.57575919991359;107.57575919991359;107.57575919991359;107.57575919991359;107.57575919991359;107.57575919991359;107.57575919991359;107.57575919991359;110.60391669999808;110.60391669999808;110.60391669999808;110.60391669999808;110.60391669999808;110.60391669999808;None;0;;;C:\2023\REPSWITCH21092023\REPSWITCH_excgange\REPSWITCH_excgange\data/320204_REPSWITCH1_version2_list4_2023-12-05_16h51.37.528_micRespv2l4_recorded\recording_micRespv2l4_2023-12-05_16h53.20.474.wav;110.60391669999808;;None;;;;;;320204;001;2023-12-05_16h51.37.528;REPSWITCH1_version2_list4;2022.2.4;143.94391969215405;
REPSWITCH1/PICTURE_178.png;puente;type;gold;nontarget;1;NT;1;4;4;2;Stim1_Set1;1;switch;21;20;21;0;20;20;20;;;;;;;;;;;;;;;;;;;;;;;111.1039951001294;112.12496259994805;112.12496259994805;112.12496259994805;112.12496259994805;112.12496259994805;112.12496259994805;112.12496259994805;112.12496259994805;115.14619780005887;115.14619780005887;115.14619780005887;115.14619780005887;115.14619780005887;115.14619780005887;['p', 'u', 'e', 'n', 't', 'e'];0;[1.5384468003176153, 1.7636946002021432, 1.8384664999321103, 1.934192500077188, 1.9968334999866784, 2.0555751002393663];puente;C:\2023\REPSWITCH21092023\REPSWITCH_excgange\REPSWITCH_excgange\data/320204_REPSWITCH1_version2_list4_2023-12-05_16h51.37.528_micRespv2l4_recorded\recording_micRespv2l4_2023-12-05_16h53.25.022.wav;115.14619780005887;115.6462620999664;None;;;;;;320204;001;2023-12-05_16h51.37.528;REPSWITCH1_version2_list4;2022.2.4;143.94391969215405;
REPSWITCH1/PICTURE_178.png;puente;type;gold;repeat;1;T;1;4;4;2;Stim1_Set1;0;None;22;21;22;0;21;21;21;;;;;;;;;;;;;;;;;;;;;;;115.6462620999664;116.6880405000411;116.6880405000411;116.6880405000411;116.6880405000411;116.6880405000411;116.6880405000411;116.6880405000411;116.6880405000411;119.70927610015497;119.70927610015497;119.70927610015497;119.70927610015497;119.70927610015497;119.70927610015497;['p', 'u', 'e', 'n', 't', 'e'];0;[0.8915746998973191, 1.10221999976784, 1.1560507998801768, 1.270677600055933, 1.3130919998511672, 1.3669481999240816];puente;C:\2023\REPSWITCH21092023\REPSWITCH_excgange\REPSWITCH_excgange\data/320204_REPSWITCH1_version2_list4_2023-12-05_16h51.37.528_micRespv2l4_recorded\recording_micRespv2l4_2023-12-05_16h53.29.585.wav;119.70927610015497;120.20933620026335;None;;;;;;320204;001;2023-12-05_16h51.37.528;REPSWITCH1_version2_list4;2022.2.4;143.94391969215405;
REPSWITCH1/PICTURE_16.png;cazador;type;gold;nontarget;1;NT;1;4;4;2;Stim6_Set1;1;repeat;23;22;23;0;22;22;22;;;;;;;;;;;;;;;;;;;;;;;120.20933620026335;121.32754530012608;121.32754530012608;121.32754530012608;121.32754530012608;121.32754530012608;121.32754530012608;121.32754530012608;121.32754530012608;124.35573150031269;124.35573150031269;124.35573150031269;124.35573150031269;124.35573150031269;124.35573150031269;['c', 'a', 'z', 'a', 'd', 'o', 'r'];0;[1.3220446002669632, 1.443395800422877, 1.673561000265181, 1.8549829004332423, 1.9920154004357755, 2.2760666999965906, 2.5666289003565907];cazador;C:\2023\REPSWITCH21092023\REPSWITCH_excgange\REPSWITCH_excgange\data/320204_REPSWITCH1_version2_list4_2023-12-05_16h51.37.528_micRespv2l4_recorded\recording_micRespv2l4_2023-12-05_16h53.34.225.wav;124.35573150031269;;None;;;;;;320204;001;2023-12-05_16h51.37.528;REPSWITCH1_version2_list4;2022.2.4;143.94391969215405;
REPSWITCH1/PICTURE_16.png;cazador;speak;darkblue;switch;2;T;1;4;4;2;Stim6_Set1;0;None;24;23;24;0;23;23;23;;;;;;;;;;;;;;;;;;;;;;;124.85580500029027;125.9879137002863;125.9879137002863;125.9879137002863;125.9879137002863;125.9879137002863;125.9879137002863;125.9879137002863;125.9879137002863;129.00909799989313;129.00909799989313;129.00909799989313;129.00909799989313;129.00909799989313;129.00909799989313;None;0;;;C:\2023\REPSWITCH21092023\REPSWITCH_excgange\REPSWITCH_excgange\data/320204_REPSWITCH1_version2_list4_2023-12-05_16h51.37.528_micRespv2l4_recorded\recording_micRespv2l4_2023-12-05_16h53.38.885.wav;129.00909799989313;129.5091887000017;None;;;;;;320204;001;2023-12-05_16h51.37.528;REPSWITCH1_version2_list4;2022.2.4;143.94391969215405;
REPSWITCH1/PICTURE_19.png;pavo;type;gold;filler;1;F;2;4;4;2;Stim5_Set1;0;None;25;24;25;0;24;24;24;;;;;;;;;;;;;;;;;;;;;;;129.5091887000017;130.59266779990867;130.59266779990867;130.59266779990867;130.59266779990867;130.59266779990867;130.59266779990867;130.59266779990867;130.59266779990867;133.61394170019776;133.61394170019776;133.61394170019776;133.61394170019776;133.61394170019776;133.61394170019776;['p', 'a', 'v', 'o'];0;[1.5478856000117958, 1.714251700323075, 2.0952535001561046, 2.1922110999003053];pavo;C:\2023\REPSWITCH21092023\REPSWITCH_excgange\REPSWITCH_excgange\data/320204_REPSWITCH1_version2_list4_2023-12-05_16h51.37.528_micRespv2l4_recorded\recording_micRespv2l4_2023-12-05_16h53.43.491.wav;133.61394170019776;134.11397999990731;None;;;;;;320204;001;2023-12-05_16h51.37.528;REPSWITCH1_version2_list4;2022.2.4;143.94391969215405;
REPSWITCH1/PICTURE_199.png;falda;type;gold;nontarget;1;NT;2;4;4;2;Stim8_Set2;1;repeat;26;25;26;0;25;25;25;;;;;;;;;;;;;;;;;;;;;;;134.11397999990731;135.20437260018662;135.20437260018662;135.20437260018662;135.20437260018662;135.20437260018662;135.20437260018662;135.20437260018662;135.20437260018662;138.22561650024727;138.22561650024727;138.22561650024727;138.22561650024727;138.22561650024727;138.22561650024727;['f', 'a', 'l', 'd', 'a'];0;[1.0984714003279805, 1.2160750003531575, 1.4612430003471673, 1.654931700322777, 1.736613499931991];falda;C:\2023\REPSWITCH21092023\REPSWITCH_excgange\REPSWITCH_excgange\data/320204_REPSWITCH1_version2_list4_2023-12-05_16h51.37.528_micRespv2l4_recorded\recording_micRespv2l4_2023-12-05_16h53.48.101.wav;138.22561650024727;138.72568250028417;None;;;;;;320204;001;2023-12-05_16h51.37.528;REPSWITCH1_version2_list4;2022.2.4;143.94391969215405;
REPSWITCH1/PICTURE_199.png;falda;type;gold;repeat;1;T;2;4;4;2;Stim8_Set2;0;None;27;26;27;0;26;26;26;;;;;;;;;;;;;;;;;;;;;;;138.72568250028417;139.94112550001591;139.94112550001591;139.94112550001591;139.94112550001591;139.94112550001591;139.94112550001591;139.94112550001591;139.94112550001591;142.96232430031523;142.96232430031523;142.96232430031523;142.96232430031523;142.96232430031523;142.96232430031523;['f', 'a', 'l', 'd', 'a'];0;[0.9355712002143264, 1.006320200394839, 1.1857239003293216, 1.488950100261718, 1.5178485000506043];falda;C:\2023\REPSWITCH21092023\REPSWITCH_excgange\REPSWITCH_excgange\data/320204_REPSWITCH1_version2_list4_2023-12-05_16h51.37.528_micRespv2l4_recorded\recording_micRespv2l4_2023-12-05_16h53.52.839.wav;142.96232430031523;143.4623981001787;None;;;;;;320204;001;2023-12-05_16h51.37.528;REPSWITCH1_version2_list4;2022.2.4;143.94391969215405;
REPSWITCH1/PICTURE_178.png;puente;speak;darkblue;filler;2;F;2;4;4;2;Stim1_Set1;1;switch;28;27;28;0;27;27;27;;;;;;;;;;;;;;;;;;;;;;;143.4623981001787;144.4903234001249;144.4903234001249;144.4903234001249;144.4903234001249;144.4903234001249;144.4903234001249;144.4903234001249;144.4903234001249;147.51152880024165;147.51152880024165;147.51152880024165;147.51152880024165;147.51152880024165;147.51152880024165;None;0;;;C:\2023\REPSWITCH21092023\REPSWITCH_excgange\REPSWITCH_excgange\data/320204_REPSWITCH1_version2_list4_2023-12-05_16h51.37.528_micRespv2l4_recorded\recording_micRespv2l4_2023-12-05_16h53.57.388.wav;147.51152880024165;148.01168680004776;None;;;;;;320204;001;2023-12-05_16h51.37.528;REPSWITCH1_version2_list4;2022.2.4;143.94391969215405;
REPSWITCH1/PICTURE_517.png;cuerda;type;gold;nontarget;1;NT;2;4;4;2;Stim4_Set2;1;switch;29;28;29;0;28;28;28;;;;;;;;;;;;;;;;;;;;;;;148.01168680004776;149.15067970007658;149.15067970007658;149.15067970007658;149.15067970007658;149.15067970007658;149.15067970007658;149.15067970007658;149.15067970007658;152.17185709998012;152.17185709998012;152.17185709998012;152.17185709998012;152.17185709998012;152.17185709998012;['c', 'u', 'e', 'r', 'd', 'a'];0;[0.9103625998832285, 0.9841662999242544, 1.1007110998034477, 1.1526029999367893, 1.3728736001066864, 1.7945424998179078];cuerda;C:\2023\REPSWITCH21092023\REPSWITCH_excgange\REPSWITCH_excgange\data/320204_REPSWITCH1_version2_list4_2023-12-05_16h51.37.528_micRespv2l4_recorded\recording_micRespv2l4_2023-12-05_16h54.02.048.wav;152.17185709998012;152.67195660015568;None;;;;;;320204;001;2023-12-05_16h51.37.528;REPSWITCH1_version2_list4;2022.2.4;143.94391969215405;
REPSWITCH1/PICTURE_517.png;cuerda;type;gold;repeat;1;T;2;4;4;2;Stim4_Set2;0;None;30;29;30;0;29;29;29;;;;;;;;;;;;;;;;;;;;;;;152.67195660015568;153.85968440026045;153.85968440026045;153.85968440026045;153.85968440026045;153.85968440026045;153.85968440026045;153.85968440026045;153.85968440026045;156.880840100348;156.880840100348;156.880840100348;156.880840100348;156.880840100348;156.880840100348;['c', 'u', 'e', 'r', 'd', 'a'];0;[0.827584299724549, 0.9112955997698009, 1.066738700028509, 1.1484996997751296, 1.4215919999405742, 1.5005888999439776];cuerda;C:\2023\REPSWITCH21092023\REPSWITCH_excgange\REPSWITCH_excgange\data/320204_REPSWITCH1_version2_list4_2023-12-05_16h51.37.528_micRespv2l4_recorded\recording_micRespv2l4_2023-12-05_16h54.06.757.wav;156.880840100348;157.38098279992118;None;;;;;;320204;001;2023-12-05_16h51.37.528;REPSWITCH1_version2_list4;2022.2.4;143.94391969215405;
REPSWITCH1/PICTURE_169.png;espalda;type;gold;filler;1;F;2;4;4;2;Stim8_Set1;0;None;31;30;31;0;30;30;30;;;;;;;;;;;;;;;;;;;;;;;157.38098279992118;158.43658159999177;158.43658159999177;158.43658159999177;158.43658159999177;158.43658159999177;158.43658159999177;158.43658159999177;158.43658159999177;161.45782650029287;161.45782650029287;161.45782650029287;161.45782650029287;161.45782650029287;161.45782650029287;['e', 's', 'p', 'a', 'l', 'd', 'a'];0;[0.7907247999683022, 1.066830599680543, 1.2252980000339448, 1.4441643999889493, 1.6026963000185788, 1.753124199807644, 1.8232199996709824];espalda;C:\2023\REPSWITCH21092023\REPSWITCH_excgange\REPSWITCH_excgange\data/320204_REPSWITCH1_version2_list4_2023-12-05_16h51.37.528_micRespv2l4_recorded\recording_micRespv2l4_2023-12-05_16h54.11.334.wav;161.45782650029287;161.95789040019736;None;;;;;;320204;001;2023-12-05_16h51.37.528;REPSWITCH1_version2_list4;2022.2.4;143.94391969215405;
REPSWITCH1/PICTURE_673.png;tenedor;speak;darkblue;filler;2;F;2;4;4;2;Extra5;0;None;32;31;32;0;31;31;31;;;;;;;;;;;;;;;;;;;;;;;161.95789040019736;162.98583130026236;162.98583130026236;162.98583130026236;162.98583130026236;162.98583130026236;162.98583130026236;162.98583130026236;162.98583130026236;166.00710549997166;166.00710549997166;166.00710549997166;166.00710549997166;166.00710549997166;166.00710549997166;None;0;;;C:\2023\REPSWITCH21092023\REPSWITCH_excgange\REPSWITCH_excgange\data/320204_REPSWITCH1_version2_list4_2023-12-05_16h51.37.528_micRespv2l4_recorded\recording_micRespv2l4_2023-12-05_16h54.15.883.wav;166.00710549997166;166.50709890015423;None;;;;;;320204;001;2023-12-05_16h51.37.528;REPSWITCH1_version2_list4;2022.2.4;143.94391969215405;
REPSWITCH1/PICTURE_142.png;vaso;type;gold;filler;1;F;2;4;4;2;Stim7_Set1;1;switch;33;32;33;0;32;32;32;;;;;;;;;;;;;;;;;;;;;;;166.50709890015423;167.54197979997844;167.54197979997844;167.54197979997844;167.54197979997844;167.54197979997844;167.54197979997844;167.54197979997844;167.54197979997844;170.56325570028275;170.56325570028275;170.56325570028275;170.56325570028275;170.56325570028275;170.56325570028275;['v', 'a', 's', 'o'];0;[0.7331858999095857, 0.8471031999215484, 1.2293253000825644, 1.331059600226581];vaso;C:\2023\REPSWITCH21092023\REPSWITCH_excgange\REPSWITCH_excgange\data/320204_REPSWITCH1_version2_list4_2023-12-05_16h51.37.528_micRespv2l4_recorded\recording_micRespv2l4_2023-12-05_16h54.20.440.wav;170.56325570028275;171.06324660032988;None;;;;;;320204;001;2023-12-05_16h51.37.528;REPSWITCH1_version2_list4;2022.2.4;143.94391969215405;
REPSWITCH1/PICTURE_552.png;manzana;type;gold;nontarget;1;NT;2;4;4;2;Stim6_Set2;1;repeat;34;33;34;0;33;33;33;;;;;;;;;;;;;;;;;;;;;;;171.06324660032988;172.16068080021068;172.16068080021068;172.16068080021068;172.16068080021068;172.16068080021068;172.16068080021068;172.16068080021068;172.16068080021068;175.18882150016725;175.18882150016725;175.18882150016725;175.18882150016725;175.18882150016725;175.18882150016725;['m', 'a', 'n', 'z', 'a', 'n', 'a'];0;[1.0581975001841784, 1.1419069999828935, 1.2655082000419497, 1.5146297002211213, 1.79741600016132, 2.717162000015378, 2.7739598001353443];manzana;C:\2023\REPSWITCH21092023\REPSWITCH_excgange\REPSWITCH_excgange\data/320204_REPSWITCH1_version2_list4_2023-12-05_16h51.37.528_micRespv2l4_recorded\recording_micRespv2l4_2023-12-05_16h54.25.059.wav;175.18882150016725;;None;;;;;;320204;001;2023-12-05_16h51.37.528;REPSWITCH1_version2_list4;2022.2.4;143.94391969215405;
REPSWITCH1/PICTURE_552.png;manzana;speak;darkblue;switch;1;T;2;4;4;2;Stim6_Set2;0;None;35;34;35;0;34;34;34;;;;;;;;;;;;;;;;;;;;;;;175.68886029999703;176.9738227003254;176.9738227003254;176.9738227003254;176.9738227003254;176.9738227003254;176.9738227003254;176.9738227003254;176.9738227003254;179.99501630011946;179.99501630011946;179.99501630011946;179.99501630011946;179.99501630011946;179.99501630011946;None;0;;;C:\2023\REPSWITCH21092023\REPSWITCH_excgange\REPSWITCH_excgange\data/320204_REPSWITCH1_version2_list4_2023-12-05_16h51.37.528_micRespv2l4_recorded\recording_micRespv2l4_2023-12-05_16h54.29.871.wav;179.99501630011946;180.4950582003221;None;;;;;;320204;001;2023-12-05_16h51.37.528;REPSWITCH1_version2_list4;2022.2.4;143.94391969215405;
REPSWITCH1/PICTURE_135.png;traje;speak;darkblue;filler;2;F;2;4;4;2;Stim3_Set1;0;None;36;35;36;0;35;35;35;;;;;;;;;;;;;;;;;;;;;;;180.4950582003221;181.51601150026545;181.51601150026545;181.51601150026545;181.51601150026545;181.51601150026545;181.51601150026545;181.51601150026545;181.51601150026545;184.53726050024852;184.53726050024852;184.53726050024852;184.53726050024852;184.53726050024852;184.53726050024852;None;0;;;C:\2023\REPSWITCH21092023\REPSWITCH_excgange\REPSWITCH_excgange\data/320204_REPSWITCH1_version2_list4_2023-12-05_16h51.37.528_micRespv2l4_recorded\recording_micRespv2l4_2023-12-05_16h54.34.413.wav;184.53726050024852;185.03729420015588;None;;;;;;320204;001;2023-12-05_16h51.37.528;REPSWITCH1_version2_list4;2022.2.4;143.94391969215405;
REPSWITCH1/PICTURE_152.png;caracol;speak;darkblue;nontarget;2;NT;2;4;4;2;Stim2_Set2;1;repeat;37;36;37;0;36;36;36;;;;;;;;;;;;;;;;;;;;;;;185.03729420015588;186.15550439991057;186.15550439991057;186.15550439991057;186.15550439991057;186.15550439991057;186.15550439991057;186.15550439991057;186.15550439991057;189.17675000010058;189.17675000010058;189.17675000010058;189.17675000010058;189.17675000010058;189.17675000010058;None;0;;;C:\2023\REPSWITCH21092023\REPSWITCH_excgange\REPSWITCH_excgange\data/320204_REPSWITCH1_version2_list4_2023-12-05_16h51.37.528_micRespv2l4_recorded\recording_micRespv2l4_2023-12-05_16h54.39.052.wav;189.17675000010058;189.67682050028816;None;;;;;;320204;001;2023-12-05_16h51.37.528;REPSWITCH1_version2_list4;2022.2.4;143.94391969215405;
REPSWITCH1/PICTURE_152.png;caracol;type;gold;switch;1;T;2;4;4;2;Stim2_Set2;0;None;38;37;38;0;37;37;37;;;;;;;;;;;;;;;;;;;;;;;189.67682050028816;190.73950960021466;190.73950960021466;190.73950960021466;190.73950960021466;190.73950960021466;190.73950960021466;190.73950960021466;190.73950960021466;193.76069399993867;193.76069399993867;193.76069399993867;193.76069399993867;193.76069399993867;193.76069399993867;['c', 'a', 'r', 'a', 'c', 'o', 'l'];0;[0.7482786001637578, 0.8546534003689885, 1.1701683001592755, 1.3243030002340674, 1.631284000352025, 1.7600028002634645, 1.9473723000846803];caracol;C:\2023\REPSWITCH21092023\REPSWITCH_excgange\REPSWITCH_excgange\data/320204_REPSWITCH1_version2_list4_2023-12-05_16h51.37.528_micRespv2l4_recorded\recording_micRespv2l4_2023-12-05_16h54.43.637.wav;193.76069399993867;194.26075490005314;None;;;;;;320204;001;2023-12-05_16h51.37.528;REPSWITCH1_version2_list4;2022.2.4;143.94391969215405;
REPSWITCH1/PICTURE_381.png;fresa;type;gold;filler;1;F;2;4;4;2;Stim2_Set1;0;None;39;38;39;0;38;38;38;;;;;;;;;;;;;;;;;;;;;;;194.26075490005314;195.36504850024357;195.36504850024357;195.36504850024357;195.36504850024357;195.36504850024357;195.36504850024357;195.36504850024357;195.36504850024357;198.39321710029617;198.39321710029617;198.39321710029617;198.39321710029617;198.39321710029617;198.39321710029617;['f', 'r', 'e', 's', 'a'];0;[0.8763605998829007, 1.0736321001313627, 1.2600118000991642, 1.4662811998277903, 1.7126499000005424];fresa;C:\2023\REPSWITCH21092023\REPSWITCH_excgange\REPSWITCH_excgange\data/320204_REPSWITCH1_version2_list4_2023-12-05_16h51.37.528_micRespv2l4_recorded\recording_micRespv2l4_2023-12-05_16h54.48.263.wav;198.39321710029617;;None;;;;;;320204;001;2023-12-05_16h51.37.528;REPSWITCH1_version2_list4;2022.2.4;143.94391969215405;
REPSWITCH1/PICTURE_446.png;cerdo;type;gold;nontarget;1;NT;2;4;4;2;Stim7_Set2;1;repeat;40;39;40;0;39;39;39;;;;;;;;;;;;;;;;;;;;;;;198.8932771999389;199.98377420008183;199.98377420008183;199.98377420008183;199.98377420008183;199.98377420008183;199.98377420008183;199.98377420008183;199.98377420008183;203.0119111002423;203.0119111002423;203.0119111002423;203.0119111002423;203.0119111002423;203.0119111002423;['c', 'e', 'r', 'd', 'o'];0;[1.7706209002062678, 1.948017300106585, 2.0127993002533913, 2.1823064000345767, 2.26004539988935];cerdo;C:\2023\REPSWITCH21092023\REPSWITCH_excgange\REPSWITCH_excgange\data/320204_REPSWITCH1_version2_list4_2023-12-05_16h51.37.528_micRespv2l4_recorded\recording_micRespv2l4_2023-12-05_16h54.52.882.wav;203.0119111002423;;None;;;;;;320204;001;2023-12-05_16h51.37.528;REPSWITCH1_version2_list4;2022.2.4;143.94391969215405;
REPSWITCH1/PICTURE_446.png;cerdo;speak;darkblue;switch;2;T;2;4;4;2;Stim7_Set2;0;None;41;40;41;0;40;40;40;;;;;;;;;;;;;;;;;;;;;;;203.51197080034763;204.63018730003387;204.63018730003387;204.63018730003387;204.63018730003387;204.63018730003387;204.63018730003387;204.63018730003387;204.63018730003387;207.65832540020347;207.65832540020347;207.65832540020347;207.65832540020347;207.65832540020347;207.65832540020347;None;0;;;C:\2023\REPSWITCH21092023\REPSWITCH_excgange\REPSWITCH_excgange\data/320204_REPSWITCH1_version2_list4_2023-12-05_16h51.37.528_micRespv2l4_recorded\recording_micRespv2l4_2023-12-05_16h54.57.528.wav;207.65832540020347;;None;;;;;;320204;001;2023-12-05_16h51.37.528;REPSWITCH1_version2_list4;2022.2.4;143.94391969215405;
REPSWITCH1/PICTURE_264.png;mano;speak;darkblue;nontarget;2;NT;2;4;4;2;Stim3_Set2;0;None;42;41;42;0;41;41;41;;;;;;;;;;;;;;;;;;;;;;;208.15837519988418;209.200227400288;209.200227400288;209.200227400288;209.200227400288;209.200227400288;209.200227400288;209.200227400288;209.200227400288;212.22836549999192;212.22836549999192;212.22836549999192;212.22836549999192;212.22836549999192;212.22836549999192;None;0;;;C:\2023\REPSWITCH21092023\REPSWITCH_excgange\REPSWITCH_excgange\data/320204_REPSWITCH1_version2_list4_2023-12-05_16h51.37.528_micRespv2l4_recorded\recording_micRespv2l4_2023-12-05_16h55.02.098.wav;212.22836549999192;;None;;;;;;320204;001;2023-12-05_16h51.37.528;REPSWITCH1_version2_list4;2022.2.4;143.94391969215405;
REPSWITCH1/PICTURE_264.png;mano;speak;darkblue;repeat;2;T;2;4;4;2;Stim3_Set2;0;None;43;42;43;0;42;42;42;;;;;;;;;;;;;;;;;;;;;;;212.728433100041;213.81888979999349;213.81888979999349;213.81888979999349;213.81888979999349;213.81888979999349;213.81888979999349;213.81888979999349;213.81888979999349;216.8401049003005;216.8401049003005;216.8401049003005;216.8401049003005;216.8401049003005;216.8401049003005;None;0;;;C:\2023\REPSWITCH21092023\REPSWITCH_excgange\REPSWITCH_excgange\data/320204_REPSWITCH1_version2_list4_2023-12-05_16h51.37.528_micRespv2l4_recorded\recording_micRespv2l4_2023-12-05_16h55.06.716.wav;216.8401049003005;217.34016610030085;None;;;;;;320204;001;2023-12-05_16h51.37.528;REPSWITCH1_version2_list4;2022.2.4;143.94391969215405;
REPSWITCH1/PICTURE_128.png;muñeca;type;gold;filler;1;F;2;4;4;2;Stim4_Set1;0;None;44;43;44;0;43;43;43;;;;;;;;;;;;;;;;;;;;;;;217.34016610030085;218.37504329998046;218.37504329998046;218.37504329998046;218.37504329998046;218.37504329998046;218.37504329998046;218.37504329998046;218.37504329998046;221.39624010026455;221.39624010026455;221.39624010026455;221.39624010026455;221.39624010026455;221.39624010026455;['m', 'u', 'ñ', 'e', 'c', 'a'];0;[0.9193561002612114, 1.0997498002834618, 1.3332747002132237, 1.4877567002549767, 1.8143740999512374, 2.0105596003122628];muñeca;C:\2023\REPSWITCH21092023\REPSWITCH_excgange\REPSWITCH_excgange\data/320204_REPSWITCH1_version2_list4_2023-12-05_16h51.37.528_micRespv2l4_recorded\recording_micRespv2l4_2023-12-05_16h55.11.273.wav;221.39624010026455;221.89632380008698;None;;;;;;320204;001;2023-12-05_16h51.37.528;REPSWITCH1_version2_list4;2022.2.4;143.94391969215405;
REPSWITCH1/PICTURE_30.png;granja;speak;darkblue;nontarget;2;NT;2;4;4;2;Stim5_Set2;1;switch;45;44;45;0;44;44;44;;;;;;;;;;;;;;;;;;;;;;;221.89632380008698;222.9936672002077;222.9936672002077;222.9936672002077;222.9936672002077;222.9936672002077;222.9936672002077;222.9936672002077;222.9936672002077;226.02187769999728;226.02187769999728;226.02187769999728;226.02187769999728;226.02187769999728;226.02187769999728;None;0;;;C:\2023\REPSWITCH21092023\REPSWITCH_excgange\REPSWITCH_excgange\data/320204_REPSWITCH1_version2_list4_2023-12-05_16h51.37.528_micRespv2l4_recorded\recording_micRespv2l4_2023-12-05_16h55.15.892.wav;226.02187769999728;226.521943599917;None;;;;;;320204;001;2023-12-05_16h51.37.528;REPSWITCH1_version2_list4;2022.2.4;143.94391969215405;
REPSWITCH1/PICTURE_30.png;granja;speak;darkblue;repeat;2;T;2;4;4;2;Stim5_Set2;0;None;46;45;46;0;45;45;45;;;;;;;;;;;;;;;;;;;;;;;226.521943599917;227.6957172001712;227.6957172001712;227.6957172001712;227.6957172001712;227.6957172001712;227.6957172001712;227.6957172001712;227.6957172001712;230.71694070007652;230.71694070007652;230.71694070007652;230.71694070007652;230.71694070007652;230.71694070007652;None;0;;;C:\2023\REPSWITCH21092023\REPSWITCH_excgange\REPSWITCH_excgange\data/320204_REPSWITCH1_version2_list4_2023-12-05_16h51.37.528_micRespv2l4_recorded\recording_micRespv2l4_2023-12-05_16h55.20.593.wav;230.71694070007652;231.21700699999928;None;;;;;;320204;001;2023-12-05_16h51.37.528;REPSWITCH1_version2_list4;2022.2.4;143.94391969215405;
REPSWITCH1/PICTURE_646.png;tronco;type;gold;filler;1;F;2;4;4;2;Extra4;0;None;47;46;47;0;46;46;46;;;;;;;;;;;;;;;;;;;;;;;231.21700699999928;232.26581129990518;232.26581129990518;232.26581129990518;232.26581129990518;232.26581129990518;232.26581129990518;232.26581129990518;232.26581129990518;235.29395230021328;235.29395230021328;235.29395230021328;235.29395230021328;235.29395230021328;235.29395230021328;['t', 'r', 'o', 'n', 'c', 'o'];0;[1.0112088001333177, 1.0560098998248577, 1.2268559001386166, 1.3839227999560535, 1.5613108999095857, 1.6712414999492466];tronco;C:\2023\REPSWITCH21092023\REPSWITCH_excgange\REPSWITCH_excgange\data/320204_REPSWITCH1_version2_list4_2023-12-05_16h51.37.528_micRespv2l4_recorded\recording_micRespv2l4_2023-12-05_16h55.25.164.wav;235.29395230021328;;None;;;;;;320204;001;2023-12-05_16h51.37.528;REPSWITCH1_version2_list4;2022.2.4;143.94391969215405;
REPSWITCH1/PICTURE_16.png;cazador;speak;darkblue;filler;2;F;2;4;4;2;Stim6_Set1;0;None;48;47;48;0;47;47;47;;;;;;;;;;;;;;;;;;;;;;;235.79398530023172;236.87053150031716;236.87053150031716;236.87053150031716;236.87053150031716;236.87053150031716;236.87053150031716;236.87053150031716;236.87053150031716;239.89869440020993;239.89869440020993;239.89869440020993;239.89869440020993;239.89869440020993;239.89869440020993;None;0;;;C:\2023\REPSWITCH21092023\REPSWITCH_excgange\REPSWITCH_excgange\data/320204_REPSWITCH1_version2_list4_2023-12-05_16h51.37.528_micRespv2l4_recorded\recording_micRespv2l4_2023-12-05_16h55.29.768.wav;239.89869440020993;;None;;;;;;320204;001;2023-12-05_16h51.37.528;REPSWITCH1_version2_list4;2022.2.4;143.94391969215405;
REPSWITCH1/PICTURE_175.png;pintor;speak;darkblue;nontarget;2;NT;2;4;4;2;Stim1_Set2;1;repeat;49;48;49;0;48;48;48;;;;;;;;;;;;;;;;;;;;;;;240.39876489993185;241.4544589999132;241.4544589999132;241.4544589999132;241.4544589999132;241.4544589999132;241.4544589999132;241.4544589999132;241.4544589999132;244.47565559996292;244.47565559996292;244.47565559996292;244.47565559996292;244.47565559996292;244.47565559996292;None;0;;;C:\2023\REPSWITCH21092023\REPSWITCH_excgange\REPSWITCH_excgange\data/320204_REPSWITCH1_version2_list4_2023-12-05_16h51.37.528_micRespv2l4_recorded\recording_micRespv2l4_2023-12-05_16h55.34.352.wav;244.47565559996292;244.97575689991936;None;;;;;;320204;001;2023-12-05_16h51.37.528;REPSWITCH1_version2_list4;2022.2.4;143.94391969215405;
REPSWITCH1/PICTURE_175.png;pintor;type;gold;switch;1;T;2;4;4;2;Stim1_Set2;0;None;50;49;50;0;49;49;49;;;;;;;;;;;;;;;;;;;;;;;244.97575689991936;246.10790729988366;246.10790729988366;246.10790729988366;246.10790729988366;246.10790729988366;246.10790729988366;246.10790729988366;246.10790729988366;249.1360096000135;249.1360096000135;249.1360096000135;249.1360096000135;249.1360096000135;249.1360096000135;['p', 'i', 'n', 't', 'o', 'r'];0;[0.9299991996958852, 1.1584707000292838, 1.2332271998748183, 1.3607938000932336, 1.454444999806583, 1.5392052000388503];pintor;C:\2023\REPSWITCH21092023\REPSWITCH_excgange\REPSWITCH_excgange\data/320204_REPSWITCH1_version2_list4_2023-12-05_16h51.37.528_micRespv2l4_recorded\recording_micRespv2l4_2023-12-05_16h55.39.006.wav;249.1360096000135;;None;;;;;;320204;001;2023-12-05_16h51.37.528;REPSWITCH1_version2_list4;2022.2.4;143.94391969215405;
REPSWITCH1/PICTURE_663.png;columna;speak;darkblue;filler;2;F;4;4;4;2;Extra6;0;None;51;50;51;0;50;50;50;;;;;;;;;;;;;;;;;;;;;;;249.63608970027417;250.71962590003386;250.71962590003386;250.71962590003386;250.71962590003386;250.71962590003386;250.71962590003386;250.71962590003386;250.71962590003386;253.74080009991303;253.74080009991303;253.74080009991303;253.74080009991303;253.74080009991303;253.74080009991303;None;0;;;C:\2023\REPSWITCH21092023\REPSWITCH_excgange\REPSWITCH_excgange\data/320204_REPSWITCH1_version2_list4_2023-12-05_16h51.37.528_micRespv2l4_recorded\recording_micRespv2l4_2023-12-05_16h55.43.617.wav;253.74080009991303;254.2409366001375;space;254.2409366001375;254.2409366001375;1.3073519999161363;;;320204;001;2023-12-05_16h51.37.528;REPSWITCH1_version2_list4;2022.2.4;143.94391969215405;
REPSWITCH1/PICTURE_35.png;oreja;type;gold;nontarget;1;NT;3;4;4;2;Stim5_Set3;0;None;52;51;52;0;51;51;51;;;;;;;;;;;;;;;;;;;;;;;255.56044270005077;256.66486279992387;256.66486279992387;256.66486279992387;256.66486279992387;256.66486279992387;256.66486279992387;256.66486279992387;256.66486279992387;259.6860250001773;259.6860250001773;259.6860250001773;259.6860250001773;259.6860250001773;259.6860250001773;['o', 'r', 'e', 'j', 'a'];0;[1.2418996002525091, 1.3827041001059115, 1.4395681000314653, 1.5930610001087189, 1.6847588000819087];oreja;C:\2023\REPSWITCH21092023\REPSWITCH_excgange\REPSWITCH_excgange\data/320204_REPSWITCH1_version2_list4_2023-12-05_16h51.37.528_micRespv2l4_recorded\recording_micRespv2l4_2023-12-05_16h55.49.562.wav;259.6860250001773;260.1860911003314;None;;;;;;320204;001;2023-12-05_16h51.37.528;REPSWITCH1_version2_list4;2022.2.4;143.94391969215405;
REPSWITCH1/PICTURE_35.png;oreja;speak;darkblue;switch;2;T;3;4;4;2;Stim5_Set3;0;None;53;52;53;0;52;52;52;;;;;;;;;;;;;;;;;;;;;;;260.1860911003314;261.32511440012604;261.32511440012604;261.32511440012604;261.32511440012604;261.32511440012604;261.32511440012604;261.32511440012604;261.32511440012604;264.3533195001073;264.3533195001073;264.3533195001073;264.3533195001073;264.3533195001073;264.3533195001073;None;0;;;C:\2023\REPSWITCH21092023\REPSWITCH_excgange\REPSWITCH_excgange\data/320204_REPSWITCH1_version2_list4_2023-12-05_16h51.37.528_micRespv2l4_recorded\recording_micRespv2l4_2023-12-05_16h55.54.223.wav;264.3533195001073;;None;;;;;;320204;001;2023-12-05_16h51.37.528;REPSWITCH1_version2_list4;2022.2.4;143.94391969215405;
REPSWITCH1/PICTURE_199.png;falda;speak;darkblue;filler;2;F;3;4;4;2;Stim8_Set2;0;None;54;53;54;0;53;53;53;;;;;;;;;;;;;;;;;;;;;;;264.85334370005876;265.92303190007806;265.92303190007806;265.92303190007806;265.92303190007806;265.92303190007806;265.92303190007806;265.92303190007806;265.92303190007806;268.9441685001366;268.9441685001366;268.9441685001366;268.9441685001366;268.9441685001366;268.9441685001366;None;0;;;C:\2023\REPSWITCH21092023\REPSWITCH_excgange\REPSWITCH_excgange\data/320204_REPSWITCH1_version2_list4_2023-12-05_16h51.37.528_micRespv2l4_recorded\recording_micRespv2l4_2023-12-05_16h55.58.820.wav;268.9441685001366;269.4442223003134;None;;;;;;320204;001;2023-12-05_16h51.37.528;REPSWITCH1_version2_list4;2022.2.4;143.94391969215405;
REPSWITCH1/PICTURE_576.png;guante;speak;darkblue;nontarget;2;NT;3;4;4;2;Stim1_Set3;1;repeat;55;54;55;0;54;54;54;;;;;;;;;;;;;;;;;;;;;;;269.4442223003134;270.4999349000864;270.4999349000864;270.4999349000864;270.4999349000864;270.4999349000864;270.4999349000864;270.4999349000864;270.4999349000864;273.5211865999736;273.5211865999736;273.5211865999736;273.5211865999736;273.5211865999736;273.5211865999736;None;0;;;C:\2023\REPSWITCH21092023\REPSWITCH_excgange\REPSWITCH_excgange\data/320204_REPSWITCH1_version2_list4_2023-12-05_16h51.37.528_micRespv2l4_recorded\recording_micRespv2l4_2023-12-05_16h56.03.397.wav;273.5211865999736;274.0212894999422;None;;;;;;320204;001;2023-12-05_16h51.37.528;REPSWITCH1_version2_list4;2022.2.4;143.94391969215405;
REPSWITCH1/PICTURE_576.png;guante;type;gold;switch;1;T;3;4;4;2;Stim1_Set3;0;None;56;55;56;0;55;55;55;;;;;;;;;;;;;;;;;;;;;;;274.0212894999422;275.13257100014016;275.13257100014016;275.13257100014016;275.13257100014016;275.13257100014016;275.13257100014016;275.13257100014016;275.13257100014016;278.1607468998991;278.1607468998991;278.1607468998991;278.1607468998991;278.1607468998991;278.1607468998991;['g', 'u', 'a', 'n', 't', 'e'];0;[1.0394282001070678, 1.1195948999375105, 1.2320958999916911, 1.3002293999306858, 1.4361670999787748, 1.5750067997723818];guante;C:\2023\REPSWITCH21092023\REPSWITCH_excgange\REPSWITCH_excgange\data/320204_REPSWITCH1_version2_list4_2023-12-05_16h51.37.528_micRespv2l4_recorded\recording_micRespv2l4_2023-12-05_16h56.08.030.wav;278.1607468998991;;None;;;;;;320204;001;2023-12-05_16h51.37.528;REPSWITCH1_version2_list4;2022.2.4;143.94391969215405;
REPSWITCH1/PICTURE_517.png;cuerda;type;gold;filler;1;F;3;4;4;2;Stim4_Set2;1;repeat;57;56;57;0;56;56;56;;;;;;;;;;;;;;;;;;;;;;;278.66074480023235;279.82761960010976;279.82761960010976;279.82761960010976;279.82761960010976;279.82761960010976;279.82761960010976;279.82761960010976;279.82761960010976;282.8487503998913;282.8487503998913;282.8487503998913;282.8487503998913;282.8487503998913;282.8487503998913;['c', 'u', 'e', 'r', 'd', 'a'];0;[0.8160613002255559, 0.9137221002019942, 1.0207293001003563, 1.0924917003139853, 1.282849000301212, 1.3350213002413511];cuerda;C:\2023\REPSWITCH21092023\REPSWITCH_excgange\REPSWITCH_excgange\data/320204_REPSWITCH1_version2_list4_2023-12-05_16h51.37.528_micRespv2l4_recorded\recording_micRespv2l4_2023-12-05_16h56.12.726.wav;282.8487503998913;283.3488806001842;None;;;;;;320204;001;2023-12-05_16h51.37.528;REPSWITCH1_version2_list4;2022.2.4;143.94391969215405;
REPSWITCH1/PICTURE_271.png;conejo;type;gold;nontarget;1;NT;3;4;4;2;Stim7_Set3;1;repeat;58;57;58;0;57;57;57;;;;;;;;;;;;;;;;;;;;;;;283.3488806001842;284.44621889991686;284.44621889991686;284.44621889991686;284.44621889991686;284.44621889991686;284.44621889991686;284.44621889991686;284.44621889991686;287.4674220001325;287.4674220001325;287.4674220001325;287.4674220001325;287.4674220001325;287.4674220001325;['c', 'o', 'n', 'e', 'j', 'o'];0;[0.9302678001113236, 1.048297300003469, 1.166936400346458, 1.2924416000023484, 1.3813444003462791, 1.518891400191933];conejo;C:\2023\REPSWITCH21092023\REPSWITCH_excgange\REPSWITCH_excgange\data/320204_REPSWITCH1_version2_list4_2023-12-05_16h51.37.528_micRespv2l4_recorded\recording_micRespv2l4_2023-12-05_16h56.17.344.wav;287.4674220001325;287.96759420027956;None;;;;;;320204;001;2023-12-05_16h51.37.528;REPSWITCH1_version2_list4;2022.2.4;143.94391969215405;
REPSWITCH1/PICTURE_271.png;conejo;speak;darkblue;switch;2;T;3;4;4;2;Stim7_Set3;0;None;59;58;59;0;58;58;58;;;;;;;;;;;;;;;;;;;;;;;287.96759420027956;289.04403349990025;289.04403349990025;289.04403349990025;289.04403349990025;289.04403349990025;289.04403349990025;289.04403349990025;289.04403349990025;292.0722786001861;292.0722786001861;292.0722786001861;292.0722786001861;292.0722786001861;292.0722786001861;None;0;;;C:\2023\REPSWITCH21092023\REPSWITCH_excgange\REPSWITCH_excgange\data/320204_REPSWITCH1_version2_list4_2023-12-05_16h51.37.528_micRespv2l4_recorded\recording_micRespv2l4_2023-12-05_16h56.21.942.wav;292.0722786001861;;None;;;;;;320204;001;2023-12-05_16h51.37.528;REPSWITCH1_version2_list4;2022.2.4;143.94391969215405;
REPSWITCH1/PICTURE_552.png;manzana;type;gold;filler;1;F;3;4;4;2;Stim6_Set2;0;None;60;59;60;0;59;59;59;;;;;;;;;;;;;;;;;;;;;;;292.57226640032604;293.59332320000976;293.59332320000976;293.59332320000976;293.59332320000976;293.59332320000976;293.59332320000976;293.59332320000976;293.59332320000976;296.614497799892;296.614497799892;296.614497799892;296.614497799892;296.614497799892;296.614497799892;['m', 'a', 'n', 'z', 'a', 'n', 'a'];0;[0.885443199891597, 0.9671716000884771, 1.0797938001342118, 1.3015116001479328, 1.768728599883616, 1.8986243000254035, 2.2974884998984635];manzana;C:\2023\REPSWITCH21092023\REPSWITCH_excgange\REPSWITCH_excgange\data/320204_REPSWITCH1_version2_list4_2023-12-05_16h51.37.528_micRespv2l4_recorded\recording_micRespv2l4_2023-12-05_16h56.26.491.wav;296.614497799892;297.1145585998893;None;;;;;;320204;001;2023-12-05_16h51.37.528;REPSWITCH1_version2_list4;2022.2.4;143.94391969215405;
REPSWITCH1/PICTURE_242.png;cartero;speak;darkblue;nontarget;2;NT;3;4;4;2;Stim3_Set3;1;switch;61;60;61;0;60;60;60;;;;;;;;;;;;;;;;;;;;;;;297.1145585998893;298.2049740003422;298.2049740003422;298.2049740003422;298.2049740003422;298.2049740003422;298.2049740003422;298.2049740003422;298.2049740003422;301.23318159999326;301.23318159999326;301.23318159999326;301.23318159999326;301.23318159999326;301.23318159999326;None;0;;;C:\2023\REPSWITCH21092023\REPSWITCH_excgange\REPSWITCH_excgange\data/320204_REPSWITCH1_version2_list4_2023-12-05_16h51.37.528_micRespv2l4_recorded\recording_micRespv2l4_2023-12-05_16h56.31.103.wav;301.23318159999326;;None;;;;;;320204;001;2023-12-05_16h51.37.528;REPSWITCH1_version2_list4;2022.2.4;143.94391969215405;
REPSWITCH1/PICTURE_242.png;cartero;speak;darkblue;repeat;2;T;3;4;4;2;Stim3_Set3;0;None;62;61;62;0;61;61;61;;;;;;;;;;;;;;;;;;;;;;;301.73320970032364;302.76806240016595;302.76806240016595;302.76806240016595;302.76806240016595;302.76806240016595;302.76806240016595;302.76806240016595;302.76806240016595;305.79622860020027;305.79622860020027;305.79622860020027;305.79622860020027;305.79622860020027;305.79622860020027;None;0;;;C:\2023\REPSWITCH21092023\REPSWITCH_excgange\REPSWITCH_excgange\data/320204_REPSWITCH1_version2_list4_2023-12-05_16h51.37.528_micRespv2l4_recorded\recording_micRespv2l4_2023-12-05_16h56.35.666.wav;305.79622860020027;;None;;;;;;320204;001;2023-12-05_16h51.37.528;REPSWITCH1_version2_list4;2022.2.4;143.94391969215405;
REPSWITCH1/PICTURE_152.png;caracol;speak;darkblue;filler;2;F;3;4;4;2;Stim2_Set2;0;None;63;62;63;0;62;62;62;;;;;;;;;;;;;;;;;;;;;;;306.2962946998887;307.3589774998836;307.3589774998836;307.3589774998836;307.3589774998836;307.3589774998836;307.3589774998836;307.3589774998836;307.3589774998836;310.38018810003996;310.38018810003996;310.38018810003996;310.38018810003996;310.38018810003996;310.38018810003996;None;0;;;C:\2023\REPSWITCH21092023\REPSWITCH_excgange\REPSWITCH_excgange\data/320204_REPSWITCH1_version2_list4_2023-12-05_16h51.37.528_micRespv2l4_recorded\recording_micRespv2l4_2023-12-05_16h56.40.256.wav;310.38018810003996;310.88023129990324;None;;;;;;320204;001;2023-12-05_16h51.37.528;REPSWITCH1_version2_list4;2022.2.4;143.94391969215405;
REPSWITCH1/PICTURE_446.png;cerdo;type;gold;filler;1;F;3;4;4;2;Stim7_Set2;1;switch;64;63;64;0;63;63;63;;;;;;;;;;;;;;;;;;;;;;;310.88023129990324;311.9428795003332;311.9428795003332;311.9428795003332;311.9428795003332;311.9428795003332;311.9428795003332;311.9428795003332;311.9428795003332;314.97108280006796;314.97108280006796;314.97108280006796;314.97108280006796;314.97108280006796;314.97108280006796;['c', 'e', 'r', 'd', 'o'];0;[0.7831529001705348, 1.0176722002215683, 1.0758529002778232, 1.2764398003928363, 1.5126029001548886];cerdo;C:\2023\REPSWITCH21092023\REPSWITCH_excgange\REPSWITCH_excgange\data/320204_REPSWITCH1_version2_list4_2023-12-05_16h51.37.528_micRespv2l4_recorded\recording_micRespv2l4_2023-12-05_16h56.44.841.wav;314.97108280006796;;None;;;;;;320204;001;2023-12-05_16h51.37.528;REPSWITCH1_version2_list4;2022.2.4;143.94391969215405;
REPSWITCH1/PICTURE_610.png;miel;speak;darkblue;nontarget;2;NT;3;4;4;2;Stim2_Set3;1;switch;65;64;65;0;64;64;64;;;;;;;;;;;;;;;;;;;;;;;315.4711394002661;316.59626740030944;316.59626740030944;316.59626740030944;316.59626740030944;316.59626740030944;316.59626740030944;316.59626740030944;316.59626740030944;319.6244565001689;319.6244565001689;319.6244565001689;319.6244565001689;319.6244565001689;319.6244565001689;None;0;;;C:\2023\REPSWITCH21092023\REPSWITCH_excgange\REPSWITCH_excgange\data/320204_REPSWITCH1_version2_list4_2023-12-05_16h51.37.528_micRespv2l4_recorded\recording_micRespv2l4_2023-12-05_16h56.49.494.wav;319.6244565001689;;None;;;;;;320204;001;2023-12-05_16h51.37.528;REPSWITCH1_version2_list4;2022.2.4;143.94391969215405;
REPSWITCH1/PICTURE_610.png;miel;speak;darkblue;repeat;2;T;3;4;4;2;Stim2_Set3;0;None;66;65;66;0;65;65;65;;;;;;;;;;;;;;;;;;;;;;;320.12451039999723;321.1871752999723;321.1871752999723;321.1871752999723;321.1871752999723;321.1871752999723;321.1871752999723;321.1871752999723;321.1871752999723;324.2083617001772;324.2083617001772;324.2083617001772;324.2083617001772;324.2083617001772;324.2083617001772;None;0;;;C:\2023\REPSWITCH21092023\REPSWITCH_excgange\REPSWITCH_excgange\data/320204_REPSWITCH1_version2_list4_2023-12-05_16h51.37.528_micRespv2l4_recorded\recording_micRespv2l4_2023-12-05_16h56.54.084.wav;324.2083617001772;324.7084552999586;None;;;;;;320204;001;2023-12-05_16h51.37.528;REPSWITCH1_version2_list4;2022.2.4;143.94391969215405;
REPSWITCH1/PICTURE_320.png;iglesia;speak;darkblue;nontarget;2;NT;3;4;4;2;Stim8_Set3;1;repeat;67;66;67;0;66;66;66;;;;;;;;;;;;;;;;;;;;;;;324.7084552999586;325.8613784001209;325.8613784001209;325.8613784001209;325.8613784001209;325.8613784001209;325.8613784001209;325.8613784001209;325.8613784001209;328.88258970016614;328.88258970016614;328.88258970016614;328.88258970016614;328.88258970016614;328.88258970016614;None;0;;;C:\2023\REPSWITCH21092023\REPSWITCH_excgange\REPSWITCH_excgange\data/320204_REPSWITCH1_version2_list4_2023-12-05_16h51.37.528_micRespv2l4_recorded\recording_micRespv2l4_2023-12-05_16h56.58.759.wav;328.88258970016614;329.3826699000783;None;;;;;;320204;001;2023-12-05_16h51.37.528;REPSWITCH1_version2_list4;2022.2.4;143.94391969215405;
REPSWITCH1/PICTURE_320.png;iglesia;type;gold;switch;1;T;3;4;4;2;Stim8_Set3;0;None;68;67;68;0;67;67;67;;;;;;;;;;;;;;;;;;;;;;;329.3826699000783;330.48698600009084;330.48698600009084;330.48698600009084;330.48698600009084;330.48698600009084;330.48698600009084;330.48698600009084;330.48698600009084;333.5082090999931;333.5082090999931;333.5082090999931;333.5082090999931;333.5082090999931;333.5082090999931;['i', 'g', 'l', 'e', 'a', 's', 'backspace', 'backspace', 's', 'i', 'a'];0;[0.8909738999791443, 1.0393642000854015, 1.1440477999858558, 1.27959130005911, 1.583545799832791, 2.0702655999921262, 2.3712144000455737, 2.502128600142896, 2.605125400237739, 2.7486212998628616, 2.840321300085634];iglesia;C:\2023\REPSWITCH21092023\REPSWITCH_excgange\REPSWITCH_excgange\data/320204_REPSWITCH1_version2_list4_2023-12-05_16h51.37.528_micRespv2l4_recorded\recording_micRespv2l4_2023-12-05_16h57.03.385.wav;333.5082090999931;334.0083461999893;None;;;;;;320204;001;2023-12-05_16h51.37.528;REPSWITCH1_version2_list4;2022.2.4;143.94391969215405;
REPSWITCH1/PICTURE_30.png;granja;speak;darkblue;filler;2;F;3;4;4;2;Stim5_Set2;0;None;69;68;69;0;68;68;68;;;;;;;;;;;;;;;;;;;;;;;334.0083461999893;335.0987360002473;335.0987360002473;335.0987360002473;335.0987360002473;335.0987360002473;335.0987360002473;335.0987360002473;335.0987360002473;338.12692870013416;338.12692870013416;338.12692870013416;338.12692870013416;338.12692870013416;338.12692870013416;None;0;;;C:\2023\REPSWITCH21092023\REPSWITCH_excgange\REPSWITCH_excgange\data/320204_REPSWITCH1_version2_list4_2023-12-05_16h51.37.528_micRespv2l4_recorded\recording_micRespv2l4_2023-12-05_16h57.07.997.wav;338.12692870013416;;None;;;;;;320204;001;2023-12-05_16h51.37.528;REPSWITCH1_version2_list4;2022.2.4;143.94391969215405;
REPSWITCH1/PICTURE_264.png;mano;type;gold;filler;1;F;3;4;4;2;Stim3_Set2;0;None;70;69;70;0;69;69;69;;;;;;;;;;;;;;;;;;;;;;;338.6269617001526;339.6548721003346;339.6548721003346;339.6548721003346;339.6548721003346;339.6548721003346;339.6548721003346;339.6548721003346;339.6548721003346;342.6831261999905;342.6831261999905;342.6831261999905;342.6831261999905;342.6831261999905;342.6831261999905;['m', 'a', 'n', 'o'];0;[0.9239019001834095, 1.0026652999222279, 1.1464515002444386, 1.2023399001918733];mano;C:\2023\REPSWITCH21092023\REPSWITCH_excgange\REPSWITCH_excgange\data/320204_REPSWITCH1_version2_list4_2023-12-05_16h51.37.528_micRespv2l4_recorded\recording_micRespv2l4_2023-12-05_16h57.12.553.wav;342.6831261999905;;None;;;;;;320204;001;2023-12-05_16h51.37.528;REPSWITCH1_version2_list4;2022.2.4;143.94391969215405;
REPSWITCH1/PICTURE_464.png;goma;type;gold;nontarget;1;NT;3;4;4;2;Stim6_Set3;0;None;71;70;71;0;70;70;70;;;;;;;;;;;;;;;;;;;;;;;343.18307910021394;344.231915100012;344.231915100012;344.231915100012;344.231915100012;344.231915100012;344.231915100012;344.231915100012;344.231915100012;347.25306100025773;347.25306100025773;347.25306100025773;347.25306100025773;347.25306100025773;347.25306100025773;['g', 'o', 'm', 'a'];0;[0.9506347998976707, 1.0223956000991166, 1.10640860022977, 1.2240448002703488];goma;C:\2023\REPSWITCH21092023\REPSWITCH_excgange\REPSWITCH_excgange\data/320204_REPSWITCH1_version2_list4_2023-12-05_16h51.37.528_micRespv2l4_recorded\recording_micRespv2l4_2023-12-05_16h57.17.130.wav;347.25306100025773;347.7532057003118;None;;;;;;320204;001;2023-12-05_16h51.37.528;REPSWITCH1_version2_list4;2022.2.4;143.94391969215405;
REPSWITCH1/PICTURE_464.png;goma;type;gold;repeat;1;T;3;4;4;2;Stim6_Set3;0;None;72;71;72;0;71;71;71;;;;;;;;;;;;;;;;;;;;;;;347.7532057003118;348.8852495001629;348.8852495001629;348.8852495001629;348.8852495001629;348.8852495001629;348.8852495001629;348.8852495001629;348.8852495001629;351.90646010031924;351.90646010031924;351.90646010031924;351.90646010031924;351.90646010031924;351.90646010031924;['g', 'o', 'm', 'a'];0;[1.037271700333804, 1.0930779003538191, 1.1867653001099825, 1.3640373004600406];goma;C:\2023\REPSWITCH21092023\REPSWITCH_excgange\REPSWITCH_excgange\data/320204_REPSWITCH1_version2_list4_2023-12-05_16h51.37.528_micRespv2l4_recorded\recording_micRespv2l4_2023-12-05_16h57.21.783.wav;351.90646010031924;352.40655589988455;None;;;;;;320204;001;2023-12-05_16h51.37.528;REPSWITCH1_version2_list4;2022.2.4;143.94391969215405;
REPSWITCH1/PICTURE_175.png;pintor;speak;darkblue;filler;2;F;3;4;4;2;Stim1_Set2;0;None;73;72;73;0;72;72;72;;;;;;;;;;;;;;;;;;;;;;;352.40655589988455;353.5733443000354;353.5733443000354;353.5733443000354;353.5733443000354;353.5733443000354;353.5733443000354;353.5733443000354;353.5733443000354;356.5945663000457;356.5945663000457;356.5945663000457;356.5945663000457;356.5945663000457;356.5945663000457;None;0;;;C:\2023\REPSWITCH21092023\REPSWITCH_excgange\REPSWITCH_excgange\data/320204_REPSWITCH1_version2_list4_2023-12-05_16h51.37.528_micRespv2l4_recorded\recording_micRespv2l4_2023-12-05_16h57.26.471.wav;356.5945663000457;357.09466679999605;None;;;;;;320204;001;2023-12-05_16h51.37.528;REPSWITCH1_version2_list4;2022.2.4;143.94391969215405;
REPSWITCH1/PICTURE_235.png;aguja;type;gold;nontarget;1;NT;3;4;4;2;Stim4_Set3;1;switch;74;73;74;0;73;73;73;;;;;;;;;;;;;;;;;;;;;;;357.09466679999605;358.16423260001466;358.16423260001466;358.16423260001466;358.16423260001466;358.16423260001466;358.16423260001466;358.16423260001466;358.16423260001466;361.1855079000816;361.1855079000816;361.1855079000816;361.1855079000816;361.1855079000816;361.1855079000816;['a', 'g', 'u', 'j', 'a'];0;[1.2712463000789285, 1.4716065004467964, 1.5961859002709389, 1.7549306000582874, 1.8407256002537906];aguja;C:\2023\REPSWITCH21092023\REPSWITCH_excgange\REPSWITCH_excgange\data/320204_REPSWITCH1_version2_list4_2023-12-05_16h51.37.528_micRespv2l4_recorded\recording_micRespv2l4_2023-12-05_16h57.31.061.wav;361.1855079000816;361.68554660025984;None;;;;;;320204;001;2023-12-05_16h51.37.528;REPSWITCH1_version2_list4;2022.2.4;143.94391969215405;
REPSWITCH1/PICTURE_235.png;aguja;type;gold;repeat;1;T;3;4;4;2;Stim4_Set3;0;None;75;74;75;0;74;74;74;;;;;;;;;;;;;;;;;;;;;;;361.68554660025984;362.748250100296;362.748250100296;362.748250100296;362.748250100296;362.748250100296;362.748250100296;362.748250100296;362.748250100296;365.77634340012446;365.77634340012446;365.77634340012446;365.77634340012446;365.77634340012446;365.77634340012446;['a', 'g', 'u', 'j', 'a'];0;[1.051273699849844, 1.333094600122422, 1.4427596000023186, 1.5812472999095917, 1.7059562001377344];aguja;C:\2023\REPSWITCH21092023\REPSWITCH_excgange\REPSWITCH_excgange\data/320204_REPSWITCH1_version2_list4_2023-12-05_16h51.37.528_micRespv2l4_recorded\recording_micRespv2l4_2023-12-05_16h57.35.646.wav;365.77634340012446;;None;;;;;;320204;001;2023-12-05_16h51.37.528;REPSWITCH1_version2_list4;2022.2.4;143.94391969215405;
REPSWITCH1/PICTURE_576.png;guante;type;gold;filler;1;F;4;4;4;2;Stim1_Set3;1;repeat;76;75;76;0;75;75;75;;;;;;;;;;;;;;;;;;;;;;;366.27641310030594;367.2905150000006;367.2905150000006;367.2905150000006;367.2905150000006;367.2905150000006;367.2905150000006;367.2905150000006;367.2905150000006;370.3186196000315;370.3186196000315;370.3186196000315;370.3186196000315;370.3186196000315;370.3186196000315;['g', 'u', 'a', 'n', 't', 'e'];0;[0.8637562999501824, 0.9355524000711739, 1.0312051000073552, 1.1059097996912897, 1.228830199688673, 1.6663369997404516];guante;C:\2023\REPSWITCH21092023\REPSWITCH_excgange\REPSWITCH_excgange\data/320204_REPSWITCH1_version2_list4_2023-12-05_16h51.37.528_micRespv2l4_recorded\recording_micRespv2l4_2023-12-05_16h57.40.188.wav;370.3186196000315;;None;;;;;;320204;001;2023-12-05_16h51.37.528;REPSWITCH1_version2_list4;2022.2.4;143.94391969215405;
REPSWITCH1/PICTURE_340.png;espejo;speak;darkblue;filler;2;F;4;4;4;2;Extra1;0;None;77;76;77;0;76;76;76;;;;;;;;;;;;;;;;;;;;;;;370.8186948001385;371.95088250003755;371.95088250003755;371.95088250003755;371.95088250003755;371.95088250003755;371.95088250003755;371.95088250003755;371.95088250003755;374.97897029994056;374.97897029994056;374.97897029994056;374.97897029994056;374.97897029994056;374.97897029994056;None;0;;;C:\2023\REPSWITCH21092023\REPSWITCH_excgange\REPSWITCH_excgange\data/320204_REPSWITCH1_version2_list4_2023-12-05_16h51.37.528_micRespv2l4_recorded\recording_micRespv2l4_2023-12-05_16h57.44.848.wav;374.97897029994056;;None;;;;;;320204;001;2023-12-05_16h51.37.528;REPSWITCH1_version2_list4;2022.2.4;143.94391969215405;
REPSWITCH1/PICTURE_464.png;goma;speak;darkblue;filler;2;F;4;4;4;2;Stim6_Set3;1;repeat;78;77;78;0;77;77;77;;;;;;;;;;;;;;;;;;;;;;;375.4789971001446;376.541656000074;376.541656000074;376.541656000074;376.541656000074;376.541656000074;376.541656000074;376.541656000074;376.541656000074;379.5698496000841;379.5698496000841;379.5698496000841;379.5698496000841;379.5698496000841;379.5698496000841;None;0;;;C:\2023\REPSWITCH21092023\REPSWITCH_excgange\REPSWITCH_excgange\data/320204_REPSWITCH1_version2_list4_2023-12-05_16h51.37.528_micRespv2l4_recorded\recording_micRespv2l4_2023-12-05_16h57.49.439.wav;379.5698496000841;;None;;;;;;320204;001;2023-12-05_16h51.37.528;REPSWITCH1_version2_list4;2022.2.4;143.94391969215405;
REPSWITCH1/PICTURE_338.png;regalo;type;gold;nontarget;1;NT;4;4;4;2;Stim6_Set4;0;None;79;78;79;0;78;78;78;;;;;;;;;;;;;;;;;;;;;;;380.0699082002975;381.1186752002686;381.1186752002686;381.1186752002686;381.1186752002686;381.1186752002686;381.1186752002686;381.1186752002686;381.1186752002686;384.1469064000994;384.1469064000994;384.1469064000994;384.1469064000994;384.1469064000994;384.1469064000994;['r', 'e', 'g', 'a', 'l', 'o'];0;[0.8537455000914633, 0.9095199001021683, 1.1178592997603118, 1.3323996998369694, 1.5198407997377217, 1.7061109999194741];regalo;C:\2023\REPSWITCH21092023\REPSWITCH_excgange\REPSWITCH_excgange\data/320204_REPSWITCH1_version2_list4_2023-12-05_16h51.37.528_micRespv2l4_recorded\recording_micRespv2l4_2023-12-05_16h57.54.016.wav;384.1469064000994;;None;;;;;;320204;001;2023-12-05_16h51.37.528;REPSWITCH1_version2_list4;2022.2.4;143.94391969215405;
REPSWITCH1/PICTURE_338.png;regalo;type;gold;repeat;1;T;4;4;4;2;Stim6_Set4;0;None;80;79;80;0;79;79;79;;;;;;;;;;;;;;;;;;;;;;;384.64689789991826;385.71646969998255;385.71646969998255;385.71646969998255;385.71646969998255;385.71646969998255;385.71646969998255;385.71646969998255;385.71646969998255;388.74462860031053;388.74462860031053;388.74462860031053;388.74462860031053;388.74462860031053;388.74462860031053;['r', 'e', 'g', 'a', 'l', 'o'];0;[0.8081564004532993, 0.8569914004765451, 1.085211900062859, 1.2387066003866494, 1.4310241001658142, 1.6417233003303409];regalo;C:\2023\REPSWITCH21092023\REPSWITCH_excgange\REPSWITCH_excgange\data/320204_REPSWITCH1_version2_list4_2023-12-05_16h51.37.528_micRespv2l4_recorded\recording_micRespv2l4_2023-12-05_16h57.58.615.wav;388.74462860031053;389.2447120998986;None;;;;;;320204;001;2023-12-05_16h51.37.528;REPSWITCH1_version2_list4;2022.2.4;143.94391969215405;
REPSWITCH1/PICTURE_8.png;pierna;type;gold;nontarget;1;NT;4;4;4;2;Stim3_Set4;1;repeat;81;80;81;0;80;80;80;;;;;;;;;;;;;;;;;;;;;;;389.2447120998986;390.33515579998493;390.33515579998493;390.33515579998493;390.33515579998493;390.33515579998493;390.33515579998493;390.33515579998493;390.33515579998493;393.356384600047;393.356384600047;393.356384600047;393.356384600047;393.356384600047;393.356384600047;['p', 'i', 'e', 'r', 'n', 'a'];0;[0.9071284998208284, 1.065976600162685, 1.1097723999992013, 1.1748250001110137, 1.28949850006029, 1.3750049998052418];pierna;C:\2023\REPSWITCH21092023\REPSWITCH_excgange\REPSWITCH_excgange\data/320204_REPSWITCH1_version2_list4_2023-12-05_16h51.37.528_micRespv2l4_recorded\recording_micRespv2l4_2023-12-05_16h58.03.233.wav;393.356384600047;393.85644510015845;None;;;;;;320204;001;2023-12-05_16h51.37.528;REPSWITCH1_version2_list4;2022.2.4;143.94391969215405;
REPSWITCH1/PICTURE_8.png;pierna;speak;darkblue;switch;2;T;4;4;4;2;Stim3_Set4;0;None;82;81;82;0;81;81;81;;;;;;;;;;;;;;;;;;;;;;;393.85644510015845;394.9468515999615;394.9468515999615;394.9468515999615;394.9468515999615;394.9468515999615;394.9468515999615;394.9468515999615;394.9468515999615;397.97504290007055;397.97504290007055;397.97504290007055;397.97504290007055;397.97504290007055;397.97504290007055;None;0;;;C:\2023\REPSWITCH21092023\REPSWITCH_excgange\REPSWITCH_excgange\data/320204_REPSWITCH1_version2_list4_2023-12-05_16h51.37.528_micRespv2l4_recorded\recording_micRespv2l4_2023-12-05_16h58.07.845.wav;397.97504290007055;;None;;;;;;320204;001;2023-12-05_16h51.37.528;REPSWITCH1_version2_list4;2022.2.4;143.94391969215405;
REPSWITCH1/PICTURE_271.png;conejo;type;gold;filler;1;F;4;4;4;2;Stim7_Set3;0;None;83;82;83;0;82;82;82;;;;;;;;;;;;;;;;;;;;;;;398.47510759998113;399.60023789992556;399.60023789992556;399.60023789992556;399.60023789992556;399.60023789992556;399.60023789992556;399.60023789992556;399.60023789992556;402.6284358999692;402.6284358999692;402.6284358999692;402.6284358999692;402.6284358999692;402.6284358999692;['c', 'o', 'n', 'e', 'j', 'o'];0;[0.9766983003355563, 1.1411393005400896, 1.3245218005031347, 1.4273792002350092, 1.616034300532192, 1.6578279002569616];conejo;C:\2023\REPSWITCH21092023\REPSWITCH_excgange\REPSWITCH_excgange\data/320204_REPSWITCH1_version2_list4_2023-12-05_16h51.37.528_micRespv2l4_recorded\recording_micRespv2l4_2023-12-05_16h58.12.498.wav;402.6284358999692;;None;;;;;;320204;001;2023-12-05_16h51.37.528;REPSWITCH1_version2_list4;2022.2.4;143.94391969215405;
REPSWITCH1/PICTURE_687.png;camisa;speak;darkblue;nontarget;2;NT;4;4;4;2;Stim5_Set4;1;switch;84;83;84;0;83;83;83;;;;;;;;;;;;;;;;;;;;;;;403.1285055000335;404.26755740027875;404.26755740027875;404.26755740027875;404.26755740027875;404.26755740027875;404.26755740027875;404.26755740027875;404.26755740027875;407.2887333999388;407.2887333999388;407.2887333999388;407.2887333999388;407.2887333999388;407.2887333999388;None;0;;;C:\2023\REPSWITCH21092023\REPSWITCH_excgange\REPSWITCH_excgange\data/320204_REPSWITCH1_version2_list4_2023-12-05_16h51.37.528_micRespv2l4_recorded\recording_micRespv2l4_2023-12-05_16h58.17.165.wav;407.2887333999388;407.78883810015395;None;;;;;;320204;001;2023-12-05_16h51.37.528;REPSWITCH1_version2_list4;2022.2.4;143.94391969215405;
REPSWITCH1/PICTURE_687.png;camisa;speak;darkblue;repeat;2;T;4;4;4;2;Stim5_Set4;0;None;85;84;85;0;84;84;84;;;;;;;;;;;;;;;;;;;;;;;407.78883810015395;408.83756759995595;408.83756759995595;408.83756759995595;408.83756759995595;408.83756759995595;408.83756759995595;408.83756759995595;408.83756759995595;411.86575839994475;411.86575839994475;411.86575839994475;411.86575839994475;411.86575839994475;411.86575839994475;None;0;;;C:\2023\REPSWITCH21092023\REPSWITCH_excgange\REPSWITCH_excgange\data/320204_REPSWITCH1_version2_list4_2023-12-05_16h51.37.528_micRespv2l4_recorded\recording_micRespv2l4_2023-12-05_16h58.21.735.wav;411.86575839994475;;None;;;;;;320204;001;2023-12-05_16h51.37.528;REPSWITCH1_version2_list4;2022.2.4;143.94391969215405;
REPSWITCH1/PICTURE_319.png;vaca;speak;darkblue;nontarget;2;NT;4;4;4;2;Stim1_Set4;0;None;86;85;86;0;85;85;85;;;;;;;;;;;;;;;;;;;;;;;412.3658112999983;413.51875480031595;413.51875480031595;413.51875480031595;413.51875480031595;413.51875480031595;413.51875480031595;413.51875480031595;413.51875480031595;416.54696500021964;416.54696500021964;416.54696500021964;416.54696500021964;416.54696500021964;416.54696500021964;None;0;;;C:\2023\REPSWITCH21092023\REPSWITCH_excgange\REPSWITCH_excgange\data/320204_REPSWITCH1_version2_list4_2023-12-05_16h51.37.528_micRespv2l4_recorded\recording_micRespv2l4_2023-12-05_16h58.26.416.wav;416.54696500021964;;None;;;;;;320204;001;2023-12-05_16h51.37.528;REPSWITCH1_version2_list4;2022.2.4;143.94391969215405;
REPSWITCH1/PICTURE_319.png;vaca;type;gold;switch;1;T;4;4;4;2;Stim1_Set4;0;None;87;86;87;0;86;86;86;;;;;;;;;;;;;;;;;;;;;;;417.04699610034004;418.0749932001345;418.0749932001345;418.0749932001345;418.0749932001345;418.0749932001345;418.0749932001345;418.0749932001345;418.0749932001345;421.10307769989595;421.10307769989595;421.10307769989595;421.10307769989595;421.10307769989595;421.10307769989595;['v', 'a', 'c', 'a'];0;[0.835927200037986, 0.9465538999065757, 1.295646300073713, 1.375414100009948];vaca;C:\2023\REPSWITCH21092023\REPSWITCH_excgange\REPSWITCH_excgange\data/320204_REPSWITCH1_version2_list4_2023-12-05_16h51.37.528_micRespv2l4_recorded\recording_micRespv2l4_2023-12-05_16h58.30.972.wav;421.10307769989595;;None;;;;;;320204;001;2023-12-05_16h51.37.528;REPSWITCH1_version2_list4;2022.2.4;143.94391969215405;
REPSWITCH1/PICTURE_242.png;cartero;speak;darkblue;filler;2;F;4;4;4;2;Stim3_Set3;0;None;88;87;88;0;87;87;87;;;;;;;;;;;;;;;;;;;;;;;421.6031307000667;422.7074398002587;422.7074398002587;422.7074398002587;422.7074398002587;422.7074398002587;422.7074398002587;422.7074398002587;422.7074398002587;425.73564920015633;425.73564920015633;425.73564920015633;425.73564920015633;425.73564920015633;425.73564920015633;None;0;;;C:\2023\REPSWITCH21092023\REPSWITCH_excgange\REPSWITCH_excgange\data/320204_REPSWITCH1_version2_list4_2023-12-05_16h51.37.528_micRespv2l4_recorded\recording_micRespv2l4_2023-12-05_16h58.35.605.wav;425.73564920015633;;None;;;;;;320204;001;2023-12-05_16h51.37.528;REPSWITCH1_version2_list4;2022.2.4;143.94391969215405;
REPSWITCH1/PICTURE_498.png;taza;type;gold;nontarget;1;NT;4;4;4;2;Stim4_Set4;1;switch;89;88;89;0;88;88;88;;;;;;;;;;;;;;;;;;;;;;;426.23570330021903;427.28445240017027;427.28445240017027;427.28445240017027;427.28445240017027;427.28445240017027;427.28445240017027;427.28445240017027;427.28445240017027;430.3126273001544;430.3126273001544;430.3126273001544;430.3126273001544;430.3126273001544;430.3126273001544;['t', 'a', 'z', 'a'];0;[0.9023997001349926, 1.0661658998578787, 1.6441684998571873, 1.8889486002735794];taza;C:\2023\REPSWITCH21092023\REPSWITCH_excgange\REPSWITCH_excgange\data/320204_REPSWITCH1_version2_list4_2023-12-05_16h51.37.528_micRespv2l4_recorded\recording_micRespv2l4_2023-12-05_16h58.40.182.wav;430.3126273001544;;None;;;;;;320204;001;2023-12-05_16h51.37.528;REPSWITCH1_version2_list4;2022.2.4;143.94391969215405;
REPSWITCH1/PICTURE_498.png;taza;speak;darkblue;switch;2;T;4;4;4;2;Stim4_Set4;0;None;90;89;90;0;89;89;89;;;;;;;;;;;;;;;;;;;;;;;430.8126933001913;431.83372320001945;431.83372320001945;431.83372320001945;431.83372320001945;431.83372320001945;431.83372320001945;431.83372320001945;431.83372320001945;434.86189850000665;434.86189850000665;434.86189850000665;434.86189850000665;434.86189850000665;434.86189850000665;None;0;;;C:\2023\REPSWITCH21092023\REPSWITCH_excgange\REPSWITCH_excgange\data/320204_REPSWITCH1_version2_list4_2023-12-05_16h51.37.528_micRespv2l4_recorded\recording_micRespv2l4_2023-12-05_16h58.44.732.wav;434.86189850000665;;None;;;;;;320204;001;2023-12-05_16h51.37.528;REPSWITCH1_version2_list4;2022.2.4;143.94391969215405;
REPSWITCH1/PICTURE_391.png;cadena;type;gold;filler;1;F;4;4;4;2;Extra2;0;None;91;90;91;0;90;90;90;;;;;;;;;;;;;;;;;;;;;;;435.36190570006147;436.4314780998975;436.4314780998975;436.4314780998975;436.4314780998975;436.4314780998975;436.4314780998975;436.4314780998975;436.4314780998975;439.4527437998913;439.4527437998913;439.4527437998913;439.4527437998913;439.4527437998913;439.4527437998913;['c', 'a', 'd', 'n', 'a'];0;[2.1236731000244617, 2.1536576999351382, 2.38679839996621, 2.578508799895644, 2.691136199980974];cadna;C:\2023\REPSWITCH21092023\REPSWITCH_excgange\REPSWITCH_excgange\data/320204_REPSWITCH1_version2_list4_2023-12-05_16h51.37.528_micRespv2l4_recorded\recording_micRespv2l4_2023-12-05_16h58.49.329.wav;439.4527437998913;439.95278470031917;None;;;;;;320204;001;2023-12-05_16h51.37.528;REPSWITCH1_version2_list4;2022.2.4;143.94391969215405;
REPSWITCH1/PICTURE_610.png;miel;speak;darkblue;filler;2;F;4;4;4;2;Stim2_Set3;0;None;92;91;92;0;91;91;91;;;;;;;;;;;;;;;;;;;;;;;439.95278470031917;441.0710292002186;441.0710292002186;441.0710292002186;441.0710292002186;441.0710292002186;441.0710292002186;441.0710292002186;441.0710292002186;444.09912570007145;444.09912570007145;444.09912570007145;444.09912570007145;444.09912570007145;444.09912570007145;None;0;;;C:\2023\REPSWITCH21092023\REPSWITCH_excgange\REPSWITCH_excgange\data/320204_REPSWITCH1_version2_list4_2023-12-05_16h51.37.528_micRespv2l4_recorded\recording_micRespv2l4_2023-12-05_16h58.53.968.wav;444.09912570007145;;None;;;;;;320204;001;2023-12-05_16h51.37.528;REPSWITCH1_version2_list4;2022.2.4;143.94391969215405;
REPSWITCH1/PICTURE_48.png;bombero;speak;darkblue;nontarget;2;NT;4;4;4;2;Stim7_Set4;1;repeat;93;92;93;0;92;92;92;;;;;;;;;;;;;;;;;;;;;;;444.59923049993813;445.6896843002178;445.6896843002178;445.6896843002178;445.6896843002178;445.6896843002178;445.6896843002178;445.6896843002178;445.6896843002178;448.7108943001367;448.7108943001367;448.7108943001367;448.7108943001367;448.7108943001367;448.7108943001367;None;0;;;C:\2023\REPSWITCH21092023\REPSWITCH_excgange\REPSWITCH_excgange\data/320204_REPSWITCH1_version2_list4_2023-12-05_16h51.37.528_micRespv2l4_recorded\recording_micRespv2l4_2023-12-05_16h58.58.586.wav;448.7108943001367;449.2109501999803;None;;;;;;320204;001;2023-12-05_16h51.37.528;REPSWITCH1_version2_list4;2022.2.4;143.94391969215405;
REPSWITCH1/PICTURE_48.png;bombero;speak;darkblue;repeat;2;T;4;4;4;2;Stim7_Set4;0;None;94;93;94;0;93;93;93;;;;;;;;;;;;;;;;;;;;;;;449.2109501999803;450.31533120013773;450.31533120013773;450.31533120013773;450.31533120013773;450.31533120013773;450.31533120013773;450.31533120013773;450.31533120013773;453.3364691003226;453.3364691003226;453.3364691003226;453.3364691003226;453.3364691003226;453.3364691003226;None;0;;;C:\2023\REPSWITCH21092023\REPSWITCH_excgange\REPSWITCH_excgange\data/320204_REPSWITCH1_version2_list4_2023-12-05_16h51.37.528_micRespv2l4_recorded\recording_micRespv2l4_2023-12-05_16h59.03.213.wav;453.3364691003226;453.83655979996547;None;;;;;;320204;001;2023-12-05_16h51.37.528;REPSWITCH1_version2_list4;2022.2.4;143.94391969215405;
REPSWITCH1/PICTURE_320.png;iglesia;type;gold;filler;1;F;4;4;4;2;Stim8_Set3;1;switch;95;94;95;0;94;94;94;;;;;;;;;;;;;;;;;;;;;;;453.83655979996547;454.95474399998784;454.95474399998784;454.95474399998784;454.95474399998784;454.95474399998784;454.95474399998784;454.95474399998784;454.95474399998784;457.97600310016423;457.97600310016423;457.97600310016423;457.97600310016423;457.97600310016423;457.97600310016423;['i', 'g', 'l', 'e', 'a', 'backspace', 's', 'i', 'a'];0;[0.8347506001591682, 0.9862528000958264, 1.085992000065744, 1.208539899904281, 1.5165560999885201, 1.828286400064826, 1.95495710009709, 2.0655240998603404, 2.1861189999617636];iglesia;C:\2023\REPSWITCH21092023\REPSWITCH_excgange\REPSWITCH_excgange\data/320204_REPSWITCH1_version2_list4_2023-12-05_16h51.37.528_micRespv2l4_recorded\recording_micRespv2l4_2023-12-05_16h59.07.852.wav;457.97600310016423;458.4760406999849;None;;;;;;320204;001;2023-12-05_16h51.37.528;REPSWITCH1_version2_list4;2022.2.4;143.94391969215405;
REPSWITCH1/PICTURE_35.png;oreja;speak;darkblue;filler;2;F;4;4;4;2;Stim5_Set3;0;None;96;95;96;0;95;95;95;;;;;;;;;;;;;;;;;;;;;;;458.4760406999849;459.517882599961;459.517882599961;459.517882599961;459.517882599961;459.517882599961;459.517882599961;459.517882599961;459.517882599961;462.54603890003636;462.54603890003636;462.54603890003636;462.54603890003636;462.54603890003636;462.54603890003636;None;0;;;C:\2023\REPSWITCH21092023\REPSWITCH_excgange\REPSWITCH_excgange\data/320204_REPSWITCH1_version2_list4_2023-12-05_16h51.37.528_micRespv2l4_recorded\recording_micRespv2l4_2023-12-05_16h59.12.416.wav;462.54603890003636;;None;;;;;;320204;001;2023-12-05_16h51.37.528;REPSWITCH1_version2_list4;2022.2.4;143.94391969215405;
REPSWITCH1/PICTURE_728.png;pulpo;speak;darkblue;nontarget;2;NT;4;4;4;2;Stim8_Set4;1;repeat;97;96;97;0;96;96;96;;;;;;;;;;;;;;;;;;;;;;;463.0460816002451;464.1712676002644;464.1712676002644;464.1712676002644;464.1712676002644;464.1712676002644;464.1712676002644;464.1712676002644;464.1712676002644;467.1924854000099;467.1924854000099;467.1924854000099;467.1924854000099;467.1924854000099;467.1924854000099;None;0;;;C:\2023\REPSWITCH21092023\REPSWITCH_excgange\REPSWITCH_excgange\data/320204_REPSWITCH1_version2_list4_2023-12-05_16h51.37.528_micRespv2l4_recorded\recording_micRespv2l4_2023-12-05_16h59.17.068.wav;467.1924854000099;467.6925468002446;None;;;;;;320204;001;2023-12-05_16h51.37.528;REPSWITCH1_version2_list4;2022.2.4;143.94391969215405;
REPSWITCH1/PICTURE_728.png;pulpo;type;gold;switch;1;T;4;4;4;2;Stim8_Set4;0;None;98;97;98;0;97;97;97;;;;;;;;;;;;;;;;;;;;;;;467.6925468002446;468.76907010003924;468.76907010003924;468.76907010003924;468.76907010003924;468.76907010003924;468.76907010003924;468.76907010003924;468.76907010003924;471.79028930002823;471.79028930002823;471.79028930002823;471.79028930002823;471.79028930002823;471.79028930002823;['p', 'u', 'l', 'p', 'o'];0;[1.0055022998712957, 1.2329623000696301, 1.437281799968332, 1.714216100051999, 1.9275551000609994];pulpo;C:\2023\REPSWITCH21092023\REPSWITCH_excgange\REPSWITCH_excgange\data/320204_REPSWITCH1_version2_list4_2023-12-05_16h51.37.528_micRespv2l4_recorded\recording_micRespv2l4_2023-12-05_16h59.21.667.wav;471.79028930002823;472.29034990025684;None;;;;;;320204;001;2023-12-05_16h51.37.528;REPSWITCH1_version2_list4;2022.2.4;143.94391969215405;
REPSWITCH1/PICTURE_590.png;escoba;speak;darkblue;filler;2;F;4;4;4;2;Extra3;0;None;99;98;99;0;98;98;98;;;;;;;;;;;;;;;;;;;;;;;472.29034990025684;473.3738842001185;473.3738842001185;473.3738842001185;473.3738842001185;473.3738842001185;473.3738842001185;473.3738842001185;473.3738842001185;476.40203220024705;476.40203220024705;476.40203220024705;476.40203220024705;476.40203220024705;476.40203220024705;None;0;;;C:\2023\REPSWITCH21092023\REPSWITCH_excgange\REPSWITCH_excgange\data/320204_REPSWITCH1_version2_list4_2023-12-05_16h51.37.528_micRespv2l4_recorded\recording_micRespv2l4_2023-12-05_16h59.26.272.wav;476.40203220024705;;None;;;;;;320204;001;2023-12-05_16h51.37.528;REPSWITCH1_version2_list4;2022.2.4;143.94391969215405;
REPSWITCH1/PICTURE_235.png;aguja;type;gold;filler;1;F;4;4;4;2;Stim4_Set3;0;None;100;99;100;0;99;99;99;;;;;;;;;;;;;;;;;;;;;;;476.9020926998928;477.9925077003427;477.9925077003427;477.9925077003427;477.9925077003427;477.9925077003427;477.9925077003427;477.9925077003427;477.9925077003427;481.01370869996026;481.01370869996026;481.01370869996026;481.01370869996026;481.01370869996026;481.01370869996026;['a', 'g', 'u', 'j', 'a'];0;[1.0353640001267195, 1.2745296000503004, 1.3975110999308527, 1.5768106998875737, 1.7064175996929407];aguja;C:\2023\REPSWITCH21092023\REPSWITCH_excgange\REPSWITCH_excgange\data/320204_REPSWITCH1_version2_list4_2023-12-05_16h51.37.528_micRespv2l4_recorded\recording_micRespv2l4_2023-12-05_16h59.30.889.wav;481.01370869996026;481.5138189001009;None;;;;;;320204;001;2023-12-05_16h51.37.528;REPSWITCH1_version2_list4;2022.2.4;143.94391969215405;
REPSWITCH1/PICTURE_719.png;baño;type;gold;nontarget;1;NT;4;4;4;2;Stim2_Set4;1;repeat;101;100;101;0;100;100;100;;;;;;;;;;;;;;;;;;;;;;;481.5138189001009;482.5695144003257;482.5695144003257;482.5695144003257;482.5695144003257;482.5695144003257;482.5695144003257;482.5695144003257;482.5695144003257;485.59767939988524;485.59767939988524;485.59767939988524;485.59767939988524;485.59767939988524;485.59767939988524;['b', 'a', 'ñ', 'o'];0;[0.937898600474, 1.0973935001529753, 1.2788447001948953, 1.3687166003510356];baño;C:\2023\REPSWITCH21092023\REPSWITCH_excgange\REPSWITCH_excgange\data/320204_REPSWITCH1_version2_list4_2023-12-05_16h51.37.528_micRespv2l4_recorded\recording_micRespv2l4_2023-12-05_16h59.35.468.wav;485.59767939988524;486.09775259997696;None;;;;;;320204;001;2023-12-05_16h51.37.528;REPSWITCH1_version2_list4;2022.2.4;143.94391969215405;
REPSWITCH1/PICTURE_719.png;baño;type;gold;repeat;1;T;4;4;4;2;Stim2_Set4;0;None;102;101;102;0;101;101;101;;;;;;;;;;;;;;;;;;;;;;;486.09775259997696;487.13266750006005;487.13266750006005;487.13266750006005;487.13266750006005;487.13266750006005;487.13266750006005;487.13266750006005;487.13266750006005;490.16078770020977;490.16078770020977;490.16078770020977;490.16078770020977;490.16078770020977;490.16078770020977;['b', 'a', 'ñ', 'o'];0;[0.9728513997979462, 1.0838496000505984, 1.2482678997330368, 1.7049738997593522];baño;C:\2023\REPSWITCH21092023\REPSWITCH_excgange\REPSWITCH_excgange\data/320204_REPSWITCH1_version2_list4_2023-12-05_16h51.37.528_micRespv2l4_recorded\recording_micRespv2l4_2023-12-05_16h59.40.030.wav;490.16078770020977;490.66086070006713;space;490.66086070006713;490.66086070006713;1.0497273998335004;;;320204;001;2023-12-05_16h51.37.528;REPSWITCH1_version2_list4;2022.2.4;143.94391969215405;
REPSWITCH1/PICTURE_646.png;tronco;speak;darkblue;filler;2;F;1;3;4;2;Extra4;0;None;103;102;1;0;102;102;102;;;;;;;;;;;;;;;;;;;;;;;491.72349160024896;492.8069541999139;492.8069541999139;492.8069541999139;492.8069541999139;492.8069541999139;492.8069541999139;492.8069541999139;492.8069541999139;495.8351194001734;495.8351194001734;495.8351194001734;495.8351194001734;495.8351194001734;495.8351194001734;None;0;;;C:\2023\REPSWITCH21092023\REPSWITCH_excgange\REPSWITCH_excgange\data/320204_REPSWITCH1_version2_list4_2023-12-05_16h51.37.528_micRespv2l4_recorded\recording_micRespv2l4_2023-12-05_16h59.45.705.wav;495.8351194001734;;None;;;;;;320204;001;2023-12-05_16h51.37.528;REPSWITCH1_version2_list4;2022.2.4;143.94391969215405;
REPSWITCH1/PICTURE_340.png;espejo;type;gold;filler;1;F;1;3;4;2;Extra1;0;None;104;103;2;0;103;103;103;;;;;;;;;;;;;;;;;;;;;;;496.33517940016463;497.38401520019397;497.38401520019397;497.38401520019397;497.38401520019397;497.38401520019397;497.38401520019397;497.38401520019397;497.38401520019397;500.4121171999723;500.4121171999723;500.4121171999723;500.4121171999723;500.4121171999723;500.4121171999723;['e', 's', 'p', 'e', 'j', 'o'];0;[0.8960680002346635, 0.9718483998440206, 1.26375039992854, 1.4632288999855518, 1.6241321000270545, 1.7038952000439167];espejo;C:\2023\REPSWITCH21092023\REPSWITCH_excgange\REPSWITCH_excgange\data/320204_REPSWITCH1_version2_list4_2023-12-05_16h51.37.528_micRespv2l4_recorded\recording_micRespv2l4_2023-12-05_16h59.50.281.wav;500.4121171999723;500.9121739002876;None;;;;;;320204;001;2023-12-05_16h51.37.528;REPSWITCH1_version2_list4;2022.2.4;143.94391969215405;
REPSWITCH1/PICTURE_338.png;regalo;speak;darkblue;filler;2;F;1;3;4;2;Stim6_Set4;0;None;105;104;3;0;104;104;104;;;;;;;;;;;;;;;;;;;;;;;500.9121739002876;501.9331721002236;501.9331721002236;501.9331721002236;501.9331721002236;501.9331721002236;501.9331721002236;501.9331721002236;501.9331721002236;504.9613207001239;504.9613207001239;504.9613207001239;504.9613207001239;504.9613207001239;504.9613207001239;None;0;;;C:\2023\REPSWITCH21092023\REPSWITCH_excgange\REPSWITCH_excgange\data/320204_REPSWITCH1_version2_list4_2023-12-05_16h51.37.528_micRespv2l4_recorded\recording_micRespv2l4_2023-12-05_16h59.54.831.wav;504.9613207001239;505.4613962001167;None;;;;;;320204;001;2023-12-05_16h51.37.528;REPSWITCH1_version2_list4;2022.2.4;143.94391969215405;
REPSWITCH1/PICTURE_142.png;vaso;speak;darkblue;nontarget;2;NT;1;3;4;2;Stim7_Set1;1;repeat;106;105;4;0;105;105;105;;;;;;;;;;;;;;;;;;;;;;;505.4613962001167;506.6282131001353;506.6282131001353;506.6282131001353;506.6282131001353;506.6282131001353;506.6282131001353;506.6282131001353;506.6282131001353;509.64946530014277;509.64946530014277;509.64946530014277;509.64946530014277;509.64946530014277;509.64946530014277;None;0;;;C:\2023\REPSWITCH21092023\REPSWITCH_excgange\REPSWITCH_excgange\data/320204_REPSWITCH1_version2_list4_2023-12-05_16h51.37.528_micRespv2l4_recorded\recording_micRespv2l4_2023-12-05_16h59.59.525.wav;509.64946530014277;510.14950169995427;None;;;;;;320204;001;2023-12-05_16h51.37.528;REPSWITCH1_version2_list4;2022.2.4;143.94391969215405;
REPSWITCH1/PICTURE_142.png;vaso;speak;darkblue;repeat;2;T;1;3;4;2;Stim7_Set1;0;None;107;106;5;0;106;106;106;;;;;;;;;;;;;;;;;;;;;;;510.14950169995427;511.2052086000331;511.2052086000331;511.2052086000331;511.2052086000331;511.2052086000331;511.2052086000331;511.2052086000331;511.2052086000331;514.2264482001774;514.2264482001774;514.2264482001774;514.2264482001774;514.2264482001774;514.2264482001774;None;0;;;C:\2023\REPSWITCH21092023\REPSWITCH_excgange\REPSWITCH_excgange\data/320204_REPSWITCH1_version2_list4_2023-12-05_16h51.37.528_micRespv2l4_recorded\recording_micRespv2l4_2023-12-05_17h00.04.102.wav;514.2264482001774;514.7265893002041;None;;;;;;320204;001;2023-12-05_16h51.37.528;REPSWITCH1_version2_list4;2022.2.4;143.94391969215405;
REPSWITCH1/PICTURE_498.png;taza;type;gold;filler;1;F;1;3;4;2;Stim4_Set4;0;None;108;107;6;0;107;107;107;;;;;;;;;;;;;;;;;;;;;;;514.7265893002041;515.8099750000983;515.8099750000983;515.8099750000983;515.8099750000983;515.8099750000983;515.8099750000983;515.8099750000983;515.8099750000983;518.8312566000968;518.8312566000968;518.8312566000968;518.8312566000968;518.8312566000968;518.8312566000968;['t', 'a', 'z', 'a'];0;[0.8429124997928739, 0.9306104001589119, 1.2348621999844909, 1.4961723000742495];taza;C:\2023\REPSWITCH21092023\REPSWITCH_excgange\REPSWITCH_excgange\data/320204_REPSWITCH1_version2_list4_2023-12-05_16h51.37.528_micRespv2l4_recorded\recording_micRespv2l4_2023-12-05_17h00.08.707.wav;518.8312566000968;519.3312480002642;None;;;;;;320204;001;2023-12-05_16h51.37.528;REPSWITCH1_version2_list4;2022.2.4;143.94391969215405;
REPSWITCH1/PICTURE_16.png;cazador;speak;darkblue;nontarget;2;NT;1;3;4;2;Stim6_Set1;1;switch;109;108;7;0;108;108;108;;;;;;;;;;;;;;;;;;;;;;;519.3312480002642;520.3453110000119;520.3453110000119;520.3453110000119;520.3453110000119;520.3453110000119;520.3453110000119;520.3453110000119;520.3453110000119;523.3735493998975;523.3735493998975;523.3735493998975;523.3735493998975;523.3735493998975;523.3735493998975;None;0;;;C:\2023\REPSWITCH21092023\REPSWITCH_excgange\REPSWITCH_excgange\data/320204_REPSWITCH1_version2_list4_2023-12-05_16h51.37.528_micRespv2l4_recorded\recording_micRespv2l4_2023-12-05_17h00.13.243.wav;523.3735493998975;;None;;;;;;320204;001;2023-12-05_16h51.37.528;REPSWITCH1_version2_list4;2022.2.4;143.94391969215405;
REPSWITCH1/PICTURE_16.png;cazador;speak;darkblue;repeat;2;T;1;3;4;2;Stim6_Set1;0;None;110;109;8;0;109;109;109;;;;;;;;;;;;;;;;;;;;;;;523.873549700249;524.9709964003414;524.9709964003414;524.9709964003414;524.9709964003414;524.9709964003414;524.9709964003414;524.9709964003414;524.9709964003414;527.9921530000865;527.9921530000865;527.9921530000865;527.9921530000865;527.9921530000865;527.9921530000865;None;0;;;C:\2023\REPSWITCH21092023\REPSWITCH_excgange\REPSWITCH_excgange\data/320204_REPSWITCH1_version2_list4_2023-12-05_16h51.37.528_micRespv2l4_recorded\recording_micRespv2l4_2023-12-05_17h00.17.868.wav;527.9921530000865;528.4921900001355;None;;;;;;320204;001;2023-12-05_16h51.37.528;REPSWITCH1_version2_list4;2022.2.4;143.94391969215405;
REPSWITCH1/PICTURE_719.png;baño;type;gold;filler;1;F;1;3;4;2;Stim2_Set4;0;None;111;110;9;0;110;110;110;;;;;;;;;;;;;;;;;;;;;;;528.4921900001355;529.6590195000172;529.6590195000172;529.6590195000172;529.6590195000172;529.6590195000172;529.6590195000172;529.6590195000172;529.6590195000172;532.6802286002785;532.6802286002785;532.6802286002785;532.6802286002785;532.6802286002785;532.6802286002785;['b', 'a', 'ñ', 'o'];0;[0.8521524001844227, 0.9897440001368523, 1.1691564000211656, 1.629874600097537];baño;C:\2023\REPSWITCH21092023\REPSWITCH_excgange\REPSWITCH_excgange\data/320204_REPSWITCH1_version2_list4_2023-12-05_16h51.37.528_micRespv2l4_recorded\recording_micRespv2l4_2023-12-05_17h00.22.556.wav;532.6802286002785;533.1803848999552;None;;;;;;320204;001;2023-12-05_16h51.37.528;REPSWITCH1_version2_list4;2022.2.4;143.94391969215405;
REPSWITCH1/PICTURE_169.png;espalda;speak;darkblue;nontarget;2;NT;1;3;4;2;Stim8_Set1;0;None;112;111;10;0;111;111;111;;;;;;;;;;;;;;;;;;;;;;;533.1803848999552;534.3472160999663;534.3472160999663;534.3472160999663;534.3472160999663;534.3472160999663;534.3472160999663;534.3472160999663;534.3472160999663;537.3684336002916;537.3684336002916;537.3684336002916;537.3684336002916;537.3684336002916;537.3684336002916;None;0;;;C:\2023\REPSWITCH21092023\REPSWITCH_excgange\REPSWITCH_excgange\data/320204_REPSWITCH1_version2_list4_2023-12-05_16h51.37.528_micRespv2l4_recorded\recording_micRespv2l4_2023-12-05_17h00.27.244.wav;537.3684336002916;537.8684463002719;None;;;;;;320204;001;2023-12-05_16h51.37.528;REPSWITCH1_version2_list4;2022.2.4;143.94391969215405;
REPSWITCH1/PICTURE_169.png;espalda;type;gold;switch;1;T;1;3;4;2;Stim8_Set1;0;None;113;112;11;0;112;112;112;;;;;;;;;;;;;;;;;;;;;;;537.8684463002719;538.9311184999533;538.9311184999533;538.9311184999533;538.9311184999533;538.9311184999533;538.9311184999533;538.9311184999533;538.9311184999533;541.9523016000167;541.9523016000167;541.9523016000167;541.9523016000167;541.9523016000167;541.9523016000167;['e', 's', 'p', 'a', 'l', 'd', 'a'];0;[0.906321500428021, 1.1355497003532946, 1.2872595004737377, 1.434769400395453, 1.545592600479722, 1.7120353002101183, 1.7987774005159736];espalda;C:\2023\REPSWITCH21092023\REPSWITCH_excgange\REPSWITCH_excgange\data/320204_REPSWITCH1_version2_list4_2023-12-05_16h51.37.528_micRespv2l4_recorded\recording_micRespv2l4_2023-12-05_17h00.31.829.wav;541.9523016000167;542.4523694999516;None;;;;;;320204;001;2023-12-05_16h51.37.528;REPSWITCH1_version2_list4;2022.2.4;143.94391969215405;
REPSWITCH1/PICTURE_687.png;camisa;type;gold;filler;1;F;1;3;4;2;Stim5_Set4;0;None;114;113;12;0;113;113;113;;;;;;;;;;;;;;;;;;;;;;;542.4523694999516;543.5566791002639;543.5566791002639;543.5566791002639;543.5566791002639;543.5566791002639;543.5566791002639;543.5566791002639;543.5566791002639;546.5779320001602;546.5779320001602;546.5779320001602;546.5779320001602;546.5779320001602;546.5779320001602;['c', 'a', 'm', 'i', 's', 'a'];0;[0.9661252000369132, 1.0737847001291811, 1.24126400006935, 1.331954900175333, 1.4983641998842359, 1.7797758001834154];camisa;C:\2023\REPSWITCH21092023\REPSWITCH_excgange\REPSWITCH_excgange\data/320204_REPSWITCH1_version2_list4_2023-12-05_16h51.37.528_micRespv2l4_recorded\recording_micRespv2l4_2023-12-05_17h00.36.454.wav;546.5779320001602;547.0779599002562;None;;;;;;320204;001;2023-12-05_16h51.37.528;REPSWITCH1_version2_list4;2022.2.4;143.94391969215405;
REPSWITCH1/PICTURE_178.png;puente;type;gold;nontarget;1;NT;1;3;4;2;Stim1_Set1;1;repeat;115;114;13;0;114;114;114;;;;;;;;;;;;;;;;;;;;;;;547.0779599002562;548.1614597002044;548.1614597002044;548.1614597002044;548.1614597002044;548.1614597002044;548.1614597002044;548.1614597002044;548.1614597002044;551.1826991001144;551.1826991001144;551.1826991001144;551.1826991001144;551.1826991001144;551.1826991001144;['p', 'u', 'n', 'backspace', 'e', 'n', 't', 'e'];0;[0.9300806000828743, 1.2001785999163985, 1.3845617999322712, 1.7311789002269506, 1.8208788000047207, 1.9006020999513566, 1.9946328001096845, 2.040515400003642];puente;C:\2023\REPSWITCH21092023\REPSWITCH_excgange\REPSWITCH_excgange\data/320204_REPSWITCH1_version2_list4_2023-12-05_16h51.37.528_micRespv2l4_recorded\recording_micRespv2l4_2023-12-05_17h00.41.058.wav;551.1826991001144;551.6827591001056;None;;;;;;320204;001;2023-12-05_16h51.37.528;REPSWITCH1_version2_list4;2022.2.4;143.94391969215405;
REPSWITCH1/PICTURE_178.png;puente;speak;darkblue;switch;2;T;1;3;4;2;Stim1_Set1;0;None;116;115;14;0;115;115;115;;;;;;;;;;;;;;;;;;;;;;;551.6827591001056;552.8704782999121;552.8704782999121;552.8704782999121;552.8704782999121;552.8704782999121;552.8704782999121;552.8704782999121;552.8704782999121;555.8916305000894;555.8916305000894;555.8916305000894;555.8916305000894;555.8916305000894;555.8916305000894;None;0;;;C:\2023\REPSWITCH21092023\REPSWITCH_excgange\REPSWITCH_excgange\data/320204_REPSWITCH1_version2_list4_2023-12-05_16h51.37.528_micRespv2l4_recorded\recording_micRespv2l4_2023-12-05_17h00.45.768.wav;555.8916305000894;556.391792899929;None;;;;;;320204;001;2023-12-05_16h51.37.528;REPSWITCH1_version2_list4;2022.2.4;143.94391969215405;
REPSWITCH1/PICTURE_128.png;muñeca;speak;darkblue;nontarget;2;NT;1;3;4;2;Stim4_Set1;1;repeat;117;116;15;0;116;116;116;;;;;;;;;;;;;;;;;;;;;;;556.391792899929;557.5376921002753;557.5376921002753;557.5376921002753;557.5376921002753;557.5376921002753;557.5376921002753;557.5376921002753;557.5376921002753;560.5589431002736;560.5589431002736;560.5589431002736;560.5589431002736;560.5589431002736;560.5589431002736;None;0;;;C:\2023\REPSWITCH21092023\REPSWITCH_excgange\REPSWITCH_excgange\data/320204_REPSWITCH1_version2_list4_2023-12-05_16h51.37.528_micRespv2l4_recorded\recording_micRespv2l4_2023-12-05_17h00.50.435.wav;560.5589431002736;561.0590650001541;None;;;;;;320204;001;2023-12-05_16h51.37.528;REPSWITCH1_version2_list4;2022.2.4;143.94391969215405;
REPSWITCH1/PICTURE_128.png;muñeca;type;gold;switch;1;T;1;3;4;2;Stim4_Set1;0;None;118;117;16;0;117;117;117;;;;;;;;;;;;;;;;;;;;;;;561.0590650001541;562.1008514002897;562.1008514002897;562.1008514002897;562.1008514002897;562.1008514002897;562.1008514002897;562.1008514002897;562.1008514002897;565.1220356998965;565.1220356998965;565.1220356998965;565.1220356998965;565.1220356998965;565.1220356998965;['m', 'u', 'ñ', 'e', 'c', 'a'];0;[0.7437728000804782, 0.9182344004511833, 1.1344524002633989, 1.256527400109917, 1.493742000311613, 1.599731100257486];muñeca;C:\2023\REPSWITCH21092023\REPSWITCH_excgange\REPSWITCH_excgange\data/320204_REPSWITCH1_version2_list4_2023-12-05_16h51.37.528_micRespv2l4_recorded\recording_micRespv2l4_2023-12-05_17h00.54.998.wav;565.1220356998965;565.6221574000083;None;;;;;;320204;001;2023-12-05_16h51.37.528;REPSWITCH1_version2_list4;2022.2.4;143.94391969215405;
REPSWITCH1/PICTURE_319.png;vaca;speak;darkblue;filler;2;F;1;3;4;2;Stim1_Set4;1;switch;119;118;17;0;118;118;118;;;;;;;;;;;;;;;;;;;;;;;565.6221574000083;566.740286000073;566.740286000073;566.740286000073;566.740286000073;566.740286000073;566.740286000073;566.740286000073;566.740286000073;569.7684768000618;569.7684768000618;569.7684768000618;569.7684768000618;569.7684768000618;569.7684768000618;None;0;;;C:\2023\REPSWITCH21092023\REPSWITCH_excgange\REPSWITCH_excgange\data/320204_REPSWITCH1_version2_list4_2023-12-05_16h51.37.528_micRespv2l4_recorded\recording_micRespv2l4_2023-12-05_17h00.59.638.wav;569.7684768000618;;None;;;;;;320204;001;2023-12-05_16h51.37.528;REPSWITCH1_version2_list4;2022.2.4;143.94391969215405;
REPSWITCH1/PICTURE_728.png;pulpo;speak;darkblue;filler;2;F;1;3;4;2;Stim8_Set4;0;None;120;119;18;0;119;119;119;;;;;;;;;;;;;;;;;;;;;;;570.2686145002954;571.4354131999426;571.4354131999426;571.4354131999426;571.4354131999426;571.4354131999426;571.4354131999426;571.4354131999426;571.4354131999426;574.456597500015;574.456597500015;574.456597500015;574.456597500015;574.456597500015;574.456597500015;None;0;;;C:\2023\REPSWITCH21092023\REPSWITCH_excgange\REPSWITCH_excgange\data/320204_REPSWITCH1_version2_list4_2023-12-05_16h51.37.528_micRespv2l4_recorded\recording_micRespv2l4_2023-12-05_17h01.04.332.wav;574.456597500015;574.956734099891;None;;;;;;320204;001;2023-12-05_16h51.37.528;REPSWITCH1_version2_list4;2022.2.4;143.94391969215405;
