Trial_no;CorrectAns;SubjResponse;Notes;Backspace;Modality_Correct;Exclude;Experiment_part;RepSwitch;Item_correct;Hesitation;RT;Duration;RespModal;KeyResp_keys;key1;key2;key3;key4;key5;key6;key7;key8;key9;key10;key11;key12;key13;key14;key15;baseline;baseline_condition;Filename;SubjResponse.y;Item_Correct2
1;columna;columna;;0;1;0;First;filler;1;0;0;2980;type;['c', 'o', 'l', 'u', 'm', 'n', 'a'];1.2880274001509;1.54634540015832;1.75845480011776;1.97393510024995;2.16133269993588;2.32121590012684;2.39818000001833;NA;NA;NA;NA;NA;NA;NA;NA;0;None;recording_V1L3_p301023_tr1_type_columna;[type];NA
2;muneca;muneca;;0;1;0;First;nontarget;1;0;826.989;645.098;speak;None;NA;NA;NA;NA;NA;NA;NA;NA;NA;NA;NA;NA;NA;NA;NA;1;switch;recording_V1L3_p301023_tr2_speak_muneca;muneca;1
3;muneca;muneca;;0;1;0;First;repeat;1;0;1077.585;681.075;speak;None;NA;NA;NA;NA;NA;NA;NA;NA;NA;NA;NA;NA;NA;NA;NA;0;None;recording_V1L3_p301023_tr3_speak_muneca;muneca;1
4;pierna;pierna;;0;1;0;First;filler;1;0;0;3000;type;['p', 'i', 'e', 'r', 'n', 'a'];1.0305715999566;1.1683939001523;1.25716200005263;1.36717740027234;1.46394779998809;1.62237700028345;NA;NA;NA;NA;NA;NA;NA;NA;NA;0;None;recording_V1L3_p301023_tr4_type_pierna;[type];NA
5;traje;traje;inhale before;0;1;0;First;nontarget;1;0;1186.755;486.305;speak;None;NA;NA;NA;NA;NA;NA;NA;NA;NA;NA;NA;NA;NA;NA;NA;1;switch;recording_V1L3_p301023_tr5_speak_traje;traje;1
6;traje;traje;tongue;0;1;0;First;repeat;1;0;880;455.624;speak;None;NA;NA;NA;NA;NA;NA;NA;NA;NA;NA;NA;NA;NA;NA;NA;0;None;recording_V1L3_p301023_tr6_speak_traje;traje;1
7;tenedor;tendeor;;0;1;1;First;filler;0;0;0;3000;type;['t', 'e', 'n', 'd', 'e', 'o', 'r'];1.16858020005748;1.23858590004966;1.37960979994386;1.59960670024157;1.72660070005804;1.82857479993254;2.51368300011382;NA;NA;NA;NA;NA;NA;NA;NA;0;None;recording_V1L3_p301023_tr7_type_tenedor;[type];NA
8;pulpo;pulpo;;0;1;0;First;filler;1;0;712;438.779;speak;None;NA;NA;NA;NA;NA;NA;NA;NA;NA;NA;NA;NA;NA;NA;NA;0;None;recording_V1L3_p301023_tr8_speak_pulpo;pulpo;1
9;cazador;cazador;;0;1;0;First;nontarget;1;0;1024.24;601.678;speak;None;NA;NA;NA;NA;NA;NA;NA;NA;NA;NA;NA;NA;NA;NA;NA;1;repeat;recording_V1L3_p301023_tr9_speak_cazador;cazador;1
10;cazador;cazador;;0;1;0;First;switch;1;0;0;3000;type;['c', 'a', 'z', 'a', 'd', 'o', 'r'];1.14640440000221;1.20733310002834;1.43405919987708;1.60405259998515;1.74109869962558;1.88404489960521;1.94756999984384;NA;NA;NA;NA;NA;NA;NA;NA;0;None;recording_V1L3_p301023_tr10_type_cazador;[type];NA
11;taza;taza;;1;1;1;First;filler;0;0;0;3000;type;['t', 'a', 'z', 'z', 'a', 'backspace', 'backspace', 'a'];1.19118049973622;1.2591781001538;1.50218209996819;1.6821794998832;1.87422910006717;2.22880950011313;2.36211049975827;2.4151546000503;NA;NA;NA;NA;NA;NA;NA;1;repeat;recording_V1L3_p301023_tr11_type_taza;[type];NA
12;fresa;fresa;;0;1;0;First;nontarget;1;0;0;3010;type;['f', 'r', 'e', 's', 'a'];1.07417569961399;1.23823009990156;1.34520809957758;1.53887239983305;1.62383139971644;NA;NA;NA;NA;NA;NA;NA;NA;NA;NA;1;repeat;recording_V1L3_p301023_tr12_type_fresa;[type];NA
13;fresa;fresa;tongue;0;1;0;First;switch;1;0;618.649;535.801;speak;None;NA;NA;NA;NA;NA;NA;NA;NA;NA;NA;NA;NA;NA;NA;NA;0;None;recording_V1L3_p301023_tr13_speak_fresa;fresa;1
14;puente;puente;;0;1;0;First;nontarget;1;0;1074.032;485.205;speak;None;NA;NA;NA;NA;NA;NA;NA;NA;NA;NA;NA;NA;NA;NA;NA;0;None;recording_V1L3_p301023_tr14_speak_puente;puente;1
15;puente;puente;;0;1;0;First;switch;1;0;0;3000;type;['p', 'u', 'e', 'n', 't', 'e'];0.849055899772793;1.08504329994321;1.2189108999446;1.32898209989071;1.41790860006586;1.49887549970299;NA;NA;NA;NA;NA;NA;NA;NA;NA;0;None;recording_V1L3_p301023_tr15_type_puente;[type];NA
16;bano;bano;;0;1;0;First;filler;1;0;595.804;504.913;speak;None;NA;NA;NA;NA;NA;NA;NA;NA;NA;NA;NA;NA;NA;NA;NA;0;None;recording_V1L3_p301023_tr16_speak_bano;bano;1
17;espalda;espalda;;0;1;0;First;nontarget;1;0;0;3000;type;['e', 's', 'p', 'a', 'l', 'd', 'a'];1.40423619979993;1.57730360003188;1.68318259995431;1.81018130015582;2.01119499979541;2.14921669987962;2.220227799844;NA;NA;NA;NA;NA;NA;NA;NA;1;switch;recording_V1L3_p301023_tr17_type_espalda;[type];NA
18;espalda;espalda;;0;1;0;First;repeat;1;0;0;3000;type;['e', 's', 'p', 'a', 'l', 'd', 'a'];0.854735100176185;1.32373300008476;1.43972899997607;1.57973060011864;1.70274310000241;1.83969769999385;1.90269870031625;NA;NA;NA;NA;NA;NA;NA;NA;0;None;recording_V1L3_p301023_tr18_type_espalda;[type];NA
19;bombero;bombero;;0;1;0;First;filler;1;0;792;577.12;speak;None;NA;NA;NA;NA;NA;NA;NA;NA;NA;NA;NA;NA;NA;NA;NA;1;switch;recording_V1L3_p301023_tr19_speak_bombero;bombero;1
20;pavo;npavo;;1;1;1;First;nontarget;0;0;0;3010;type;['n', 'a', 'backspace', 'p', 'a', 'v', 'o'];0.792996000032872;1.71692730020732;2.1870817001909;2.5410413001664;2.60556280007586;2.78485220018774;2.85887259989977;NA;NA;NA;NA;NA;NA;NA;NA;1;switch;recording_V1L3_p301023_tr20_type_pavo;[type];NA
21;pavo;pavo;;0;1;1;First;repeat;1;0;0;3040;type;['p', 'a', 'v', 'o'];0.851408499758691;0.931400300003588;1.31824109982699;1.39536229986697;NA;NA;NA;NA;NA;NA;NA;NA;NA;NA;NA;0;None;recording_V1L3_p301023_tr21_type_pavo;[type];NA
22;vaca;vaca;;0;1;0;First;filler;1;0;963.452;308.903;speak;None;NA;NA;NA;NA;NA;NA;NA;NA;NA;NA;NA;NA;NA;NA;NA;0;None;recording_V1L3_p301023_tr22_speak_vaca;vaca;1
23;regalo;regalo;;0;1;0;First;filler;1;0;0;3010;type;['r', 'e', 'g', 'a', 'l', 'o'];0.819571699947119;0.873574699740857;1.056635200046;1.1994460998103;1.30865949997678;1.48317250004038;NA;NA;NA;NA;NA;NA;NA;NA;NA;0;None;recording_V1L3_p301023_tr23_type_regalo;[type];NA
24;vaso;vaso;;0;1;0;First;nontarget;1;0;0;3040;type;['v', 'a', 's', 'o'];0.91075580008328;1.07072740001604;1.21875709993765;1.30375300021842;NA;NA;NA;NA;NA;NA;NA;NA;NA;NA;NA;0;None;recording_V1L3_p301023_tr24_type_vaso;[type];NA
25;vaso;vaso;tongue;0;1;0;First;switch;1;0;679.693;376.307;speak;None;NA;NA;NA;NA;NA;NA;NA;NA;NA;NA;NA;NA;NA;NA;NA;0;None;recording_V1L3_p301023_tr25_speak_vaso;vaso;1
26;camisa;camisa;;0;1;0;First;filler;1;0;0;3010;type;['c', 'a', 'm', 'i', 's', 'a'];1.08583980007097;1.16738890018314;1.32236330024898;1.4364390000701;1.52241630014032;1.64538889983669;NA;NA;NA;NA;NA;NA;NA;NA;NA;1;switch;recording_V1L3_p301023_tr26_type_camisa;[type];NA
27;granja;granja;;0;1;0;First;nontarget;1;0;0;3040;type;['g', 'r', 'a', 'n', 'j', 'a'];0.886303400155157;0.969300699885935;1.16745899990201;1.27846230007708;1.3854868998751;1.47717570001259;NA;NA;NA;NA;NA;NA;NA;NA;NA;0;None;recording_V1L3_p301023_tr27_type_granja;[type];NA
28;granja;granja;;0;1;0;First;repeat;1;0;0;3000;type;['g', 'r', 'a', 'n', 'j', 'a'];0.925414000172168;0.995400300249457;1.17937480006367;1.26139979995787;1.34120040014386;1.44820520002395;NA;NA;NA;NA;NA;NA;NA;NA;NA;0;None;recording_V1L3_p301023_tr28_type_granja;[type];NA
29;muneca;muneca;tongue;0;1;0;First;filler;1;0;660.192;573.705;speak;None;NA;NA;NA;NA;NA;NA;NA;NA;NA;NA;NA;NA;NA;NA;NA;0;None;recording_V1L3_p301023_tr29_speak_muneca;muneca;1
30;mano;mano;;0;1;0;First;nontarget;1;0;0;3000;type;['m', 'a', 'n', 'o'];0.98847520025447;1.07349030021578;1.22148040030152;1.31947220023721;NA;NA;NA;NA;NA;NA;NA;NA;NA;NA;NA;1;switch;recording_V1L3_p301023_tr30_type_mano;[type];NA
31;mano;mano;;0;1;0;First;repeat;1;0;0;3000;type;['m', 'a', 'n', 'o'];0.834851700346917;0.949847199954093;1.05785150034353;1.17683910019696;NA;NA;NA;NA;NA;NA;NA;NA;NA;NA;NA;0;None;recording_V1L3_p301023_tr31_type_mano;[type];NA
32;pintor;pintor;;1;1;1;First;nontarget;0;0;0;3000;type;['p', 'i', 'n', 't', 'o', 'e', 'backspace', 'r'];1.00971319992095;1.21897949976847;1.42714430019259;1.79012250015512;1.9221248999238;1.99412829987705;2.52057449985296;2.65742099983618;NA;NA;NA;NA;NA;NA;NA;0;None;recording_V1L3_p301023_tr32_type_pintor;[type];NA
33;pintor;pintor;tongue;0;1;1;First;switch;1;0;569;523.751;speak;None;NA;NA;NA;NA;NA;NA;NA;NA;NA;NA;NA;NA;NA;NA;NA;0;None;recording_V1L3_p301023_tr33_speak_pintor;pintor;1
34;traje;traje;tongue;0;1;0;First;filler;1;0;792;460.863;speak;None;NA;NA;NA;NA;NA;NA;NA;NA;NA;NA;NA;NA;NA;NA;NA;1;repeat;recording_V1L3_p301023_tr34_speak_traje;traje;1
35;cerdo;cerdo;;0;1;0;First;nontarget;1;0;823.888;689.759;speak;None;NA;NA;NA;NA;NA;NA;NA;NA;NA;NA;NA;NA;NA;NA;NA;1;repeat;recording_V1L3_p301023_tr35_speak_cerdo;cerdo;1
36;cerdo;cerdo;;0;1;0;First;switch;1;0;0;3000;type;['c', 'e', 'r', 'd', 'o'];0.68708570022136;0.828116599936038;0.956106500234455;1.11003090022132;1.22956030024216;NA;NA;NA;NA;NA;NA;NA;NA;NA;NA;0;None;recording_V1L3_p301023_tr36_type_cerdo;[type];NA
37;caracol;caracol;;0;1;0;First;nontarget;1;0;0;3000;type;['c', 'a', 'r', 'a', 'c', 'o', 'l'];1.0909977001138;1.16590700019151;1.45788969984278;1.54095759987831;1.81093059992418;1.9979277998209;2.17792969988659;NA;NA;NA;NA;NA;NA;NA;NA;1;repeat;recording_V1L3_p301023_tr37_type_caracol;[type];NA
38;caracol;caracol;;0;1;0;First;switch;1;0;592;587.312;speak;None;NA;NA;NA;NA;NA;NA;NA;NA;NA;NA;NA;NA;NA;NA;NA;0;None;recording_V1L3_p301023_tr38_speak_caracol;caracol;1
39;cazador;cazadp;;1;1;1;First;filler;0;0;0;3000;type;['c', 'a', 'z', 'a', 'd', 'p', 'r', 'backspace', 'backspace', 'p'];1.05356349982321;1.11856419965625;1.36656349990517;1.51255319966003;1.72851679986343;1.90955529967323;2.06455269968137;2.54251200007275;2.67357319965959;2.89651459967718;NA;NA;NA;NA;NA;0;None;recording_V1L3_p301023_tr39_type_cazador;[type];NA
40;fresa;fresa;;0;1;0;First;filler;1;0;774.265;523.522;speak;None;NA;NA;NA;NA;NA;NA;NA;NA;NA;NA;NA;NA;NA;NA;NA;0;None;recording_V1L3_p301023_tr40_speak_fresa;fresa;1
41;pavo;pavo;;0;1;0;First;filler;1;0;0;3010;type;['p', 'a', 'v', 'o'];0.754692799877375;0.854681899771094;1.00564719969407;1.10097109992057;NA;NA;NA;NA;NA;NA;NA;NA;NA;NA;NA;0;None;recording_V1L3_p301023_tr41_type_pavo;[type];NA
42;cuerda;cuerda;;0;1;0;First;nontarget;1;0;1096;474.913;speak;None;NA;NA;NA;NA;NA;NA;NA;NA;NA;NA;NA;NA;NA;NA;NA;1;switch;recording_V1L3_p301023_tr42_speak_cuerda;cuerda;1
43;cuerda;cuerda;;0;1;0;First;repeat;1;0;771.784;463.974;speak;None;NA;NA;NA;NA;NA;NA;NA;NA;NA;NA;NA;NA;NA;NA;NA;0;None;recording_V1L3_p301023_tr43_speak_cuerda;cuerda;1
44;puente;puente;;0;1;0;First;filler;1;0;0;3000;type;['p', 'u', 'e', 'n', 't', 'e'];1.01184500008821;1.23179230000824;1.38582549989223;1.48179050022736;1.56279770005494;1.64478929992765;NA;NA;NA;NA;NA;NA;NA;NA;NA;0;None;recording_V1L3_p301023_tr44_type_puente;[type];NA
45;falda;falda;;0;1;0;First;nontarget;1;0;1334.475;557.629;speak;None;NA;NA;NA;NA;NA;NA;NA;NA;NA;NA;NA;NA;NA;NA;NA;1;switch;recording_V1L3_p301023_tr45_speak_falda;falda;1
46;falda;falda;;0;1;0;First;repeat;1;0;691.562;636.1;speak;None;NA;NA;NA;NA;NA;NA;NA;NA;NA;NA;NA;NA;NA;NA;NA;0;None;recording_V1L3_p301023_tr46_speak_falda;falda;1
47;espalda;esplda;;0;1;1;First;filler;0;0;0;3000;type;['e', 's', 'p', 'l', 'd', 'a'];0.833497900050133;1.01587589969859;1.12681509973481;1.39077579975128;1.49377720011398;1.58880880009383;NA;NA;NA;NA;NA;NA;NA;NA;NA;0;None;recording_V1L3_p301023_tr47_type_espalda;[type];NA
48;vaso;vaso;;0;1;0;First;filler;1;0;776.746;454.05;speak;None;NA;NA;NA;NA;NA;NA;NA;NA;NA;NA;NA;NA;NA;NA;NA;0;None;recording_V1L3_p301023_tr48_speak_vaso;vaso;1
49;manzana;manzana;;0;1;0;First;nontarget;1;0;799.873;632.312;speak;None;NA;NA;NA;NA;NA;NA;NA;NA;NA;NA;NA;NA;NA;NA;NA;0;None;recording_V1L3_p301023_tr49_speak_manzana;manzana;1
50;manzana;manzana;;0;1;0;First;switch;1;0;0;3040;type;['m', 'a', 'n', 'z', 'a', 'n', 'a'];0.861794899683446;0.961794599890709;1.16734639974311;1.38837789976969;1.58234079973772;1.74461669987068;1.85918209981173;NA;NA;NA;NA;NA;NA;NA;NA;0;None;recording_V1L3_p301023_tr50_type_manzana;[type];NA
51;escoba;escoba;tongue, exhale;0;1;0;First;filler;1;0;1133.411;578.107;speak;None;NA;NA;NA;NA;NA;NA;NA;NA;NA;NA;NA;NA;NA;NA;NA;0;None;recording_V1L3_p301023_tr51_speak_escoba;escoba;1
52;manzana;manzana;;0;1;0;First;filler;1;0;0;3000;type;['m', 'a', 'n', 'z', 'a', 'n', 'a'];1.09184500016272;1.22517460025847;1.31117090024054;1.64348920015618;1.83000240009278;1.92099430039525;2.25500130001456;NA;NA;NA;NA;NA;NA;NA;NA;0;None;recording_V1L3_p301023_tr52_type_manzana;[type];NA
53;goma;goma;;0;1;0;First;nontarget;1;0;0;3000;type;['g', 'o', 'm', 'a'];0.877066100016236;0.945074399933219;1.12206290010363;1.20802190015092;NA;NA;NA;NA;NA;NA;NA;NA;NA;NA;NA;1;repeat;recording_V1L3_p301023_tr53_type_goma;[type];NA
54;goma;goma;;0;1;0;First;switch;1;0;608;433.608;speak;None;NA;NA;NA;NA;NA;NA;NA;NA;NA;NA;NA;NA;NA;NA;NA;0;None;recording_V1L3_p301023_tr54_speak_goma;goma;1
55;granja;granja;;0;1;0;First;filler;1;0;760;535.305;speak;None;NA;NA;NA;NA;NA;NA;NA;NA;NA;NA;NA;NA;NA;NA;NA;0;None;recording_V1L3_p301023_tr55_speak_granja;granja;1
56;aguja;aguja;;0;1;0;First;nontarget;1;0;1808;561.499;speak;None;NA;NA;NA;NA;NA;NA;NA;NA;NA;NA;NA;NA;NA;NA;NA;1;repeat;recording_V1L3_p301023_tr56_speak_aguja;aguja;1
57;aguja;aguja;;0;1;0;First;switch;1;0;0;3000;type;['a', 'g', 'u', 'j', 'a'];0.736645500175655;1.15160370012745;1.24259959999472;1.41149129997939;1.4774870001711;NA;NA;NA;NA;NA;NA;NA;NA;NA;NA;0;None;recording_V1L3_p301023_tr57_type_aguja;[type];NA
58;cadena;[type];;0;1;1;First;filler;0;0;0;3000;type;None;NA;NA;NA;NA;NA;NA;NA;NA;NA;NA;NA;NA;NA;NA;NA;0;None;recording_V1L3_p301023_tr58_type_cadena;[type];NA
59;iglesia;iglesia;;0;1;0;First;nontarget;1;0;0;3000;type;['i', 'g', 'l', 'e', 's', 'i', 'a'];1.16020220005885;1.41017080005258;1.51215490000322;1.60815540002659;1.75086909998208;1.8218606999144;1.92382090026513;NA;NA;NA;NA;NA;NA;NA;NA;0;None;recording_V1L3_p301023_tr59_type_iglesia;[type];NA
60;iglesia;iglesia;tongue;0;1;0;First;switch;1;0;756.792;699.168;speak;None;NA;NA;NA;NA;NA;NA;NA;NA;NA;NA;NA;NA;NA;NA;NA;0;None;recording_V1L3_p301023_tr60_speak_iglesia;iglesia;1
61;pintor;pintor;;0;1;0;First;filler;1;0;0;3010;type;['p', 'i', 'n', 't', 'o', 'r'];0.974172099959105;1.15188150014728;1.3428921001032;1.46688959980384;1.60693089989945;1.6995891998522;NA;NA;NA;NA;NA;NA;NA;NA;NA;0;None;recording_V1L3_p301023_tr61_type_pintor;[type];NA
62;conejo;conej[o];tongue before, the /o/ is half-heard;0;1;1;First;nontarget;0;0;2656;384;speak;None;NA;NA;NA;NA;NA;NA;NA;NA;NA;NA;NA;NA;NA;NA;NA;1;switch;recording_V1L3_p301023_tr62_speak_conejo;conej[o];1
63;conejo;conejo;mic sound, tongue;0;1;1;First;repeat;1;0;793;514.091;speak;None;NA;NA;NA;NA;NA;NA;NA;NA;NA;NA;NA;NA;NA;NA;NA;0;None;recording_V1L3_p301023_tr63_speak_conejo;conejo;1
64;cerdo;cerdo;;0;1;0;First;filler;1;0;772.017;578.272;speak;None;NA;NA;NA;NA;NA;NA;NA;NA;NA;NA;NA;NA;NA;NA;NA;0;None;recording_V1L3_p301023_tr64_speak_cerdo;cerdo;1
65;caracol;caracol;;0;1;0;First;filler;1;0;0;3000;type;['c', 'a', 'r', 'a', 'c', 'o', 'l'];1.0565012996085;1.14149519987404;1.31731079984456;1.3973060999997;1.6353311999701;1.71016899961978;1.9161733998917;NA;NA;NA;NA;NA;NA;NA;NA;0;None;recording_V1L3_p301023_tr65_type_caracol;[type];NA
66;guante;guante;;0;1;0;First;nontarget;1;0;736.238;496.418;speak;None;NA;NA;NA;NA;NA;NA;NA;NA;NA;NA;NA;NA;NA;NA;NA;1;switch;recording_V1L3_p301023_tr66_speak_guante;guante;1
67;guante;guante;;0;1;0;First;repeat;1;0;853.571;483.294;speak;None;NA;NA;NA;NA;NA;NA;NA;NA;NA;NA;NA;NA;NA;NA;NA;0;None;recording_V1L3_p301023_tr67_speak_guante;guante;1
68;cartero;cartero;;0;1;0;First;nontarget;1;0;2248;520;speak;None;NA;NA;NA;NA;NA;NA;NA;NA;NA;NA;NA;NA;NA;NA;NA;0;None;recording_V1L3_p301023_tr68_speak_cartero;cartero;1
69;cartero;cartero;;0;1;0;First;switch;1;0;0;3000;type;['c', 'a', 'r', 't', 'e', 'r', 'o'];0.662714499980211;0.73802959965542;0.925273600034416;1.11019829986617;1.1862716996111;1.3121767998673;1.40742699988186;NA;NA;NA;NA;NA;NA;NA;NA;0;None;recording_V1L3_p301023_tr69_type_cartero;[type];NA
70;cuerda;cuerda;;0;1;0;First;filler;1;0;1080.066;413.111;speak;None;NA;NA;NA;NA;NA;NA;NA;NA;NA;NA;NA;NA;NA;NA;NA;0;None;recording_V1L3_p301023_tr70_speak_cuerda;cuerda;1
71;tronco;tronco;;0;1;0;First;filler;1;0;0;3010;type;['t', 'r', 'o', 'n', 'c', 'o'];1.18410900002345;1.30010360013694;1.36909940000623;1.58410080010071;1.73398410016671;1.80097710015252;NA;NA;NA;NA;NA;NA;NA;NA;NA;0;None;recording_V1L3_p301023_tr71_type_tronco;[type];NA
72;oreja;oreja;;0;1;0;First;nontarget;1;0;0;3040;type;['o', 'r', 'e', 'j', 'a'];1.31814579991624;1.44639399973676;1.52898970013484;1.64802230009809;1.75700929993764;NA;NA;NA;NA;NA;NA;NA;NA;NA;NA;1;repeat;recording_V1L3_p301023_tr72_type_oreja;[type];NA
73;oreja;oreja;;0;1;0;First;repeat;1;0;0;3000;type;['o', 'r', 'e', 'j', 'a'];0.598575999960303;0.735533399973065;0.806525700259954;0.930912000127137;1.03388360003009;NA;NA;NA;NA;NA;NA;NA;NA;NA;NA;0;None;recording_V1L3_p301023_tr73_type_oreja;[type];NA
74;falda;falda;tongue;0;1;0;First;filler;1;0;578.254;617.185;speak;None;NA;NA;NA;NA;NA;NA;NA;NA;NA;NA;NA;NA;NA;NA;NA;0;None;recording_V1L3_p301023_tr74_speak_falda;falda;1
75;miel;miel;;0;1;0;First;nontarget;1;0;0;3000;type;['m', 'i', 'e', 'l'];1.05350499972701;1.2544968998991;1.34046769980341;1.48135269992054;NA;NA;NA;NA;NA;NA;NA;NA;NA;NA;NA;1;switch;recording_V1L3_p301023_tr75_type_miel;[type];NA
76;miel;miel;;0;1;0;First;repeat;1;0;0;3000;type;['m', 'i', 'e', 'l'];0.797837799880654;0.985809599980712;1.088977499865;1.21396989980713;NA;NA;NA;NA;NA;NA;NA;NA;NA;NA;NA;0;None;recording_V1L3_p301023_tr76_type_miel;[type];NA
77;mano;mano;;0;1;0;First;filler;1;0;0;3000;type;['m', 'a', 'n', 'o'];0.723578799981624;0.87866079993546;0.967640900053084;1.12842139974236;NA;NA;NA;NA;NA;NA;NA;NA;NA;NA;NA;1;repeat;recording_V1L3_p301023_tr77_type_mano;[type];NA
78;goma;goma;;0;1;0;First;filler;1;0;672;396.901;speak;None;NA;NA;NA;NA;NA;NA;NA;NA;NA;NA;NA;NA;NA;NA;NA;0;None;recording_V1L3_p301023_tr78_speak_goma;goma;1
79;pierna;pierna;;0;1;0;First;nontarget;1;0;0;3000;type;['p', 'i', 'e', 'r', 'n', 'a'];0.798519100062549;1.03168470039964;1.14469010010362;1.22375130001456;1.29008310008794;1.41301000025123;NA;NA;NA;NA;NA;NA;NA;NA;NA;1;switch;recording_V1L3_p301023_tr79_type_pierna;[type];NA
80;pierna;pierna;;0;1;0;First;repeat;1;0;0;3000;type;['p', 'i', 'e', 'r', 'n', 'a'];1.0550663000904;1.19909639982507;1.32709750020877;1.40415319986641;1.46909110015258;1.61210379982367;NA;NA;NA;NA;NA;NA;NA;NA;NA;0;None;recording_V1L3_p301023_tr80_type_pierna;[type];NA
81;pulpo;pulpo;;0;1;0;First;nontarget;1;0;0;3000;type;['p', 'u', 'l', 'p', 'o'];0.886868700385094;1.0888372999616;1.74544940004125;1.93945170007646;2.11401270003989;NA;NA;NA;NA;NA;NA;NA;NA;NA;NA;1;repeat;recording_V1L3_p301023_tr81_type_pulpo;[type];NA
82;pulpo;pulpo;;0;1;0;First;switch;1;0;643.52;483.688;speak;None;NA;NA;NA;NA;NA;NA;NA;NA;NA;NA;NA;NA;NA;NA;NA;0;None;recording_V1L3_p301023_tr82_speak_pulpo;pulpo;1
83;aguja;aguja;;0;1;0;First;filler;1;0;0;3000;type;['a', 'g', 'u', 'j', 'a'];0.864796900190413;1.14591530011967;1.24581089988351;1.41231080004945;1.8152922000736;NA;NA;NA;NA;NA;NA;NA;NA;NA;NA;0;None;recording_V1L3_p301023_tr83_type_aguja;[type];NA
84;taza;taza;;0;1;0;First;nontarget;1;0;918.792;420.554;speak;None;NA;NA;NA;NA;NA;NA;NA;NA;NA;NA;NA;NA;NA;NA;NA;1;switch;recording_V1L3_p301023_tr84_speak_taza;taza;1
85;taza;taza;;0;1;0;First;repeat;1;0;736;432.147;speak;None;NA;NA;NA;NA;NA;NA;NA;NA;NA;NA;NA;NA;NA;NA;NA;0;None;recording_V1L3_p301023_tr85_speak_taza;taza;1
86;bano;bano;;0;1;0;First;nontarget;1;0;613.261;546.739;speak;None;NA;NA;NA;NA;NA;NA;NA;NA;NA;NA;NA;NA;NA;NA;NA;0;None;recording_V1L3_p301023_tr86_speak_bano;bano;1
87;bano;bano;;0;1;0;First;switch;1;0;0;3000;type;['b', 'a', 'n', 'o'];1.14601719984785;1.26286059990525;1.71385260019451;1.89885899983346;NA;NA;NA;NA;NA;NA;NA;NA;NA;NA;NA;0;None;recording_V1L3_p301023_tr87_type_bano;[type];NA
88;iglesia;iglesia;tongue;0;1;0;First;filler;1;0;827.108;636.194;speak;None;NA;NA;NA;NA;NA;NA;NA;NA;NA;NA;NA;NA;NA;NA;NA;0;None;recording_V1L3_p301023_tr88_speak_iglesia;iglesia;1
89;bombero;bombero;;0;1;0;First;nontarget;1;0;0;3040;type;['b', 'o', 'm', 'b', 'e', 'r', 'o'];0.932391500100493;1.02437180001289;1.22437519999221;1.30124039994553;1.3802411002107;1.5272158998996;1.61021370021626;NA;NA;NA;NA;NA;NA;NA;NA;1;switch;recording_V1L3_p301023_tr89_type_bombero;[type];NA
90;bombero;bombero;;0;1;0;First;switch;1;0;557.815;635.143;speak;None;NA;NA;NA;NA;NA;NA;NA;NA;NA;NA;NA;NA;NA;NA;NA;0;None;recording_V1L3_p301023_tr90_speak_bombero;bombero;1
91;guante;guante;;0;1;0;First;filler;1;0;0;3000;type;['g', 'u', 'a', 'n', 't', 'e'];1.01207839976996;1.11707299994305;1.19826720003039;1.31728019984439;1.4282358000055;1.52427359996364;NA;NA;NA;NA;NA;NA;NA;NA;NA;0;None;recording_V1L3_p301023_tr91_type_guante;[type];NA
92;conejo;conejo;tongue;0;1;0;First;filler;1;0;752;582.384;speak;None;NA;NA;NA;NA;NA;NA;NA;NA;NA;NA;NA;NA;NA;NA;NA;0;None;recording_V1L3_p301023_tr92_speak_conejo;conejo;1
93;vaca;vaca;;0;1;0;First;nontarget;1;0;707.371;383.337;speak;None;NA;NA;NA;NA;NA;NA;NA;NA;NA;NA;NA;NA;NA;NA;NA;1;repeat;recording_V1L3_p301023_tr93_speak_vaca;vaca;1
94;vaca;vaca;;0;1;0;First;repeat;1;0;572.171;387.059;speak;None;NA;NA;NA;NA;NA;NA;NA;NA;NA;NA;NA;NA;NA;NA;NA;0;None;recording_V1L3_p301023_tr94_speak_vaca;vaca;1
95;cartero;cartero;;0;1;0;First;filler;1;0;0;3000;type;['c', 'a', 'r', 't', 'e', 'r', 'o'];1.1525969998911;1.26059330021963;1.43929009977728;1.61722570005804;1.68018510006368;1.80222010007128;1.83918179990724;NA;NA;NA;NA;NA;NA;NA;NA;0;None;recording_V1L3_p301023_tr95_type_cartero;[type];NA
96;oreja;oreja;;0;1;0;First;filler;1;0;857.329;505.587;speak;None;NA;NA;NA;NA;NA;NA;NA;NA;NA;NA;NA;NA;NA;NA;NA;1;switch;recording_V1L3_p301023_tr96_speak_oreja;oreja;1
97;regalo;regalo;;0;1;0;First;nontarget;1;0;819.755;608.912;speak;None;NA;NA;NA;NA;NA;NA;NA;NA;NA;NA;NA;NA;NA;NA;NA;1;repeat;recording_V1L3_p301023_tr97_speak_regalo;regalo;1
98;regalo;regaol;;1;1;1;First;switch;0;0;0;3010;type;['e', 'backspace', 'r', 'e', 'g', 'a', 'o', 'l'];0.881814399734139;1.30509859975427;1.65419899998233;1.70335750002414;1.88858299981803;2.00370620004833;2.1306452001445;2.34687949996442;NA;NA;NA;NA;NA;NA;NA;0;None;recording_V1L3_p301023_tr98_type_regalo;[type];NA
99;camisa;camisa;;1;1;1;First;nontarget;0;0;0;3050;type;['c', 'a', 'm', 'i', 'd', 'a', 'backspace', 'backspace', 's', 'a'];0.84509709989652;0.92306760000065;1.01807829970494;1.14413450006396;1.23413609992713;1.33790019992739;1.66862049978226;1.81249659974128;1.86948339967057;1.93735949974507;NA;NA;NA;NA;NA;0;None;recording_V1L3_p301023_tr99_type_camisa;[type];NA
100;camisa;camisa;;0;1;1;First;repeat;1;0;0;3040;type;['c', 'a', 'm', 'i', 's', 'a'];0.883780899923295;0.9637898998335;1.0487879998982;1.14477999974042;1.22371880011633;1.29972240002826;NA;NA;NA;NA;NA;NA;NA;NA;NA;0;None;recording_V1L3_p301023_tr100_type_camisa;[type];NA
101;espejo;espejo;;0;1;0;First;filler;1;0;1698.691;578.669;speak;None;NA;NA;NA;NA;NA;NA;NA;NA;NA;NA;NA;NA;NA;NA;NA;0;None;recording_V1L3_p301023_tr101_speak_espejo;espejo;1
