"Trial_no"	"CorrectAns"	"SubjResponse"	"Repetition"	"Keypress"	"RT"
1	"columna"	"columna"	1	"key1"	1.2880274001509
1	"columna"	"columna"	1	"key2"	1.54634540015832
1	"columna"	"columna"	1	"key3"	1.75845480011776
1	"columna"	"columna"	1	"key4"	1.97393510024995
1	"columna"	"columna"	1	"key5"	2.16133269993588
1	"columna"	"columna"	1	"key6"	2.32121590012684
1	"columna"	"columna"	1	"key7"	2.39818000001833
1	"columna"	"columna"	1	"key8"	NA
1	"columna"	"columna"	1	"key9"	NA
1	"columna"	"columna"	1	"key10"	NA
1	"columna"	"columna"	1	"key11"	NA
1	"columna"	"columna"	1	"key12"	NA
1	"columna"	"columna"	1	"key13"	NA
1	"columna"	"columna"	1	"key14"	NA
1	"columna"	"columna"	1	"key15"	NA
4	"pierna"	"pierna"	1	"key1"	1.0305715999566
4	"pierna"	"pierna"	1	"key2"	1.1683939001523
4	"pierna"	"pierna"	1	"key3"	1.25716200005263
4	"pierna"	"pierna"	1	"key4"	1.36717740027234
4	"pierna"	"pierna"	1	"key5"	1.46394779998809
4	"pierna"	"pierna"	1	"key6"	1.62237700028345
4	"pierna"	"pierna"	1	"key7"	NA
4	"pierna"	"pierna"	1	"key8"	NA
4	"pierna"	"pierna"	1	"key9"	NA
4	"pierna"	"pierna"	1	"key10"	NA
4	"pierna"	"pierna"	1	"key11"	NA
4	"pierna"	"pierna"	1	"key12"	NA
4	"pierna"	"pierna"	1	"key13"	NA
4	"pierna"	"pierna"	1	"key14"	NA
4	"pierna"	"pierna"	1	"key15"	NA
10	"cazador"	"cazador"	1	"key1"	1.14640440000221
10	"cazador"	"cazador"	1	"key2"	1.20733310002834
10	"cazador"	"cazador"	1	"key3"	1.43405919987708
10	"cazador"	"cazador"	1	"key4"	1.60405259998515
10	"cazador"	"cazador"	1	"key5"	1.74109869962558
10	"cazador"	"cazador"	1	"key6"	1.88404489960521
10	"cazador"	"cazador"	1	"key7"	1.94756999984384
10	"cazador"	"cazador"	1	"key8"	NA
10	"cazador"	"cazador"	1	"key9"	NA
10	"cazador"	"cazador"	1	"key10"	NA
10	"cazador"	"cazador"	1	"key11"	NA
10	"cazador"	"cazador"	1	"key12"	NA
10	"cazador"	"cazador"	1	"key13"	NA
10	"cazador"	"cazador"	1	"key14"	NA
10	"cazador"	"cazador"	1	"key15"	NA
12	"fresa"	"fresa"	1	"key1"	1.07417569961399
12	"fresa"	"fresa"	1	"key2"	1.23823009990156
12	"fresa"	"fresa"	1	"key3"	1.34520809957758
12	"fresa"	"fresa"	1	"key4"	1.53887239983305
12	"fresa"	"fresa"	1	"key5"	1.62383139971644
12	"fresa"	"fresa"	1	"key6"	NA
12	"fresa"	"fresa"	1	"key7"	NA
12	"fresa"	"fresa"	1	"key8"	NA
12	"fresa"	"fresa"	1	"key9"	NA
12	"fresa"	"fresa"	1	"key10"	NA
12	"fresa"	"fresa"	1	"key11"	NA
12	"fresa"	"fresa"	1	"key12"	NA
12	"fresa"	"fresa"	1	"key13"	NA
12	"fresa"	"fresa"	1	"key14"	NA
12	"fresa"	"fresa"	1	"key15"	NA
15	"puente"	"puente"	1	"key1"	0.849055899772793
15	"puente"	"puente"	1	"key2"	1.08504329994321
15	"puente"	"puente"	1	"key3"	1.2189108999446
15	"puente"	"puente"	1	"key4"	1.32898209989071
15	"puente"	"puente"	1	"key5"	1.41790860006586
15	"puente"	"puente"	1	"key6"	1.49887549970299
15	"puente"	"puente"	1	"key7"	NA
15	"puente"	"puente"	1	"key8"	NA
15	"puente"	"puente"	1	"key9"	NA
15	"puente"	"puente"	1	"key10"	NA
15	"puente"	"puente"	1	"key11"	NA
15	"puente"	"puente"	1	"key12"	NA
15	"puente"	"puente"	1	"key13"	NA
15	"puente"	"puente"	1	"key14"	NA
15	"puente"	"puente"	1	"key15"	NA
17	"espalda"	"espalda"	1	"key1"	1.40423619979993
17	"espalda"	"espalda"	1	"key2"	1.57730360003188
17	"espalda"	"espalda"	1	"key3"	1.68318259995431
17	"espalda"	"espalda"	1	"key4"	1.81018130015582
17	"espalda"	"espalda"	1	"key5"	2.01119499979541
17	"espalda"	"espalda"	1	"key6"	2.14921669987962
17	"espalda"	"espalda"	1	"key7"	2.220227799844
17	"espalda"	"espalda"	1	"key8"	NA
17	"espalda"	"espalda"	1	"key9"	NA
17	"espalda"	"espalda"	1	"key10"	NA
17	"espalda"	"espalda"	1	"key11"	NA
17	"espalda"	"espalda"	1	"key12"	NA
17	"espalda"	"espalda"	1	"key13"	NA
17	"espalda"	"espalda"	1	"key14"	NA
17	"espalda"	"espalda"	1	"key15"	NA
18	"espalda"	"espalda"	2	"key1"	0.854735100176185
18	"espalda"	"espalda"	2	"key2"	1.32373300008476
18	"espalda"	"espalda"	2	"key3"	1.43972899997607
18	"espalda"	"espalda"	2	"key4"	1.57973060011864
18	"espalda"	"espalda"	2	"key5"	1.70274310000241
18	"espalda"	"espalda"	2	"key6"	1.83969769999385
18	"espalda"	"espalda"	2	"key7"	1.90269870031625
18	"espalda"	"espalda"	2	"key8"	NA
18	"espalda"	"espalda"	2	"key9"	NA
18	"espalda"	"espalda"	2	"key10"	NA
18	"espalda"	"espalda"	2	"key11"	NA
18	"espalda"	"espalda"	2	"key12"	NA
18	"espalda"	"espalda"	2	"key13"	NA
18	"espalda"	"espalda"	2	"key14"	NA
18	"espalda"	"espalda"	2	"key15"	NA
23	"regalo"	"regalo"	1	"key1"	0.819571699947119
23	"regalo"	"regalo"	1	"key2"	0.873574699740857
23	"regalo"	"regalo"	1	"key3"	1.056635200046
23	"regalo"	"regalo"	1	"key4"	1.1994460998103
23	"regalo"	"regalo"	1	"key5"	1.30865949997678
23	"regalo"	"regalo"	1	"key6"	1.48317250004038
23	"regalo"	"regalo"	1	"key7"	NA
23	"regalo"	"regalo"	1	"key8"	NA
23	"regalo"	"regalo"	1	"key9"	NA
23	"regalo"	"regalo"	1	"key10"	NA
23	"regalo"	"regalo"	1	"key11"	NA
23	"regalo"	"regalo"	1	"key12"	NA
23	"regalo"	"regalo"	1	"key13"	NA
23	"regalo"	"regalo"	1	"key14"	NA
23	"regalo"	"regalo"	1	"key15"	NA
24	"vaso"	"vaso"	1	"key1"	0.91075580008328
24	"vaso"	"vaso"	1	"key2"	1.07072740001604
24	"vaso"	"vaso"	1	"key3"	1.21875709993765
24	"vaso"	"vaso"	1	"key4"	1.30375300021842
24	"vaso"	"vaso"	1	"key5"	NA
24	"vaso"	"vaso"	1	"key6"	NA
24	"vaso"	"vaso"	1	"key7"	NA
24	"vaso"	"vaso"	1	"key8"	NA
24	"vaso"	"vaso"	1	"key9"	NA
24	"vaso"	"vaso"	1	"key10"	NA
24	"vaso"	"vaso"	1	"key11"	NA
24	"vaso"	"vaso"	1	"key12"	NA
24	"vaso"	"vaso"	1	"key13"	NA
24	"vaso"	"vaso"	1	"key14"	NA
24	"vaso"	"vaso"	1	"key15"	NA
26	"camisa"	"camisa"	1	"key1"	1.08583980007097
26	"camisa"	"camisa"	1	"key2"	1.16738890018314
26	"camisa"	"camisa"	1	"key3"	1.32236330024898
26	"camisa"	"camisa"	1	"key4"	1.4364390000701
26	"camisa"	"camisa"	1	"key5"	1.52241630014032
26	"camisa"	"camisa"	1	"key6"	1.64538889983669
26	"camisa"	"camisa"	1	"key7"	NA
26	"camisa"	"camisa"	1	"key8"	NA
26	"camisa"	"camisa"	1	"key9"	NA
26	"camisa"	"camisa"	1	"key10"	NA
26	"camisa"	"camisa"	1	"key11"	NA
26	"camisa"	"camisa"	1	"key12"	NA
26	"camisa"	"camisa"	1	"key13"	NA
26	"camisa"	"camisa"	1	"key14"	NA
26	"camisa"	"camisa"	1	"key15"	NA
27	"granja"	"granja"	1	"key1"	0.886303400155157
27	"granja"	"granja"	1	"key2"	0.969300699885935
27	"granja"	"granja"	1	"key3"	1.16745899990201
27	"granja"	"granja"	1	"key4"	1.27846230007708
27	"granja"	"granja"	1	"key5"	1.3854868998751
27	"granja"	"granja"	1	"key6"	1.47717570001259
27	"granja"	"granja"	1	"key7"	NA
27	"granja"	"granja"	1	"key8"	NA
27	"granja"	"granja"	1	"key9"	NA
27	"granja"	"granja"	1	"key10"	NA
27	"granja"	"granja"	1	"key11"	NA
27	"granja"	"granja"	1	"key12"	NA
27	"granja"	"granja"	1	"key13"	NA
27	"granja"	"granja"	1	"key14"	NA
27	"granja"	"granja"	1	"key15"	NA
28	"granja"	"granja"	2	"key1"	0.925414000172168
28	"granja"	"granja"	2	"key2"	0.995400300249457
28	"granja"	"granja"	2	"key3"	1.17937480006367
28	"granja"	"granja"	2	"key4"	1.26139979995787
28	"granja"	"granja"	2	"key5"	1.34120040014386
28	"granja"	"granja"	2	"key6"	1.44820520002395
28	"granja"	"granja"	2	"key7"	NA
28	"granja"	"granja"	2	"key8"	NA
28	"granja"	"granja"	2	"key9"	NA
28	"granja"	"granja"	2	"key10"	NA
28	"granja"	"granja"	2	"key11"	NA
28	"granja"	"granja"	2	"key12"	NA
28	"granja"	"granja"	2	"key13"	NA
28	"granja"	"granja"	2	"key14"	NA
28	"granja"	"granja"	2	"key15"	NA
30	"mano"	"mano"	1	"key1"	0.98847520025447
30	"mano"	"mano"	1	"key2"	1.07349030021578
30	"mano"	"mano"	1	"key3"	1.22148040030152
30	"mano"	"mano"	1	"key4"	1.31947220023721
30	"mano"	"mano"	1	"key5"	NA
30	"mano"	"mano"	1	"key6"	NA
30	"mano"	"mano"	1	"key7"	NA
30	"mano"	"mano"	1	"key8"	NA
30	"mano"	"mano"	1	"key9"	NA
30	"mano"	"mano"	1	"key10"	NA
30	"mano"	"mano"	1	"key11"	NA
30	"mano"	"mano"	1	"key12"	NA
30	"mano"	"mano"	1	"key13"	NA
30	"mano"	"mano"	1	"key14"	NA
30	"mano"	"mano"	1	"key15"	NA
31	"mano"	"mano"	2	"key1"	0.834851700346917
31	"mano"	"mano"	2	"key2"	0.949847199954093
31	"mano"	"mano"	2	"key3"	1.05785150034353
31	"mano"	"mano"	2	"key4"	1.17683910019696
31	"mano"	"mano"	2	"key5"	NA
31	"mano"	"mano"	2	"key6"	NA
31	"mano"	"mano"	2	"key7"	NA
31	"mano"	"mano"	2	"key8"	NA
31	"mano"	"mano"	2	"key9"	NA
31	"mano"	"mano"	2	"key10"	NA
31	"mano"	"mano"	2	"key11"	NA
31	"mano"	"mano"	2	"key12"	NA
31	"mano"	"mano"	2	"key13"	NA
31	"mano"	"mano"	2	"key14"	NA
31	"mano"	"mano"	2	"key15"	NA
36	"cerdo"	"cerdo"	1	"key1"	0.68708570022136
36	"cerdo"	"cerdo"	1	"key2"	0.828116599936038
36	"cerdo"	"cerdo"	1	"key3"	0.956106500234455
36	"cerdo"	"cerdo"	1	"key4"	1.11003090022132
36	"cerdo"	"cerdo"	1	"key5"	1.22956030024216
36	"cerdo"	"cerdo"	1	"key6"	NA
36	"cerdo"	"cerdo"	1	"key7"	NA
36	"cerdo"	"cerdo"	1	"key8"	NA
36	"cerdo"	"cerdo"	1	"key9"	NA
36	"cerdo"	"cerdo"	1	"key10"	NA
36	"cerdo"	"cerdo"	1	"key11"	NA
36	"cerdo"	"cerdo"	1	"key12"	NA
36	"cerdo"	"cerdo"	1	"key13"	NA
36	"cerdo"	"cerdo"	1	"key14"	NA
36	"cerdo"	"cerdo"	1	"key15"	NA
37	"caracol"	"caracol"	1	"key1"	1.0909977001138
37	"caracol"	"caracol"	1	"key2"	1.16590700019151
37	"caracol"	"caracol"	1	"key3"	1.45788969984278
37	"caracol"	"caracol"	1	"key4"	1.54095759987831
37	"caracol"	"caracol"	1	"key5"	1.81093059992418
37	"caracol"	"caracol"	1	"key6"	1.9979277998209
37	"caracol"	"caracol"	1	"key7"	2.17792969988659
37	"caracol"	"caracol"	1	"key8"	NA
37	"caracol"	"caracol"	1	"key9"	NA
37	"caracol"	"caracol"	1	"key10"	NA
37	"caracol"	"caracol"	1	"key11"	NA
37	"caracol"	"caracol"	1	"key12"	NA
37	"caracol"	"caracol"	1	"key13"	NA
37	"caracol"	"caracol"	1	"key14"	NA
37	"caracol"	"caracol"	1	"key15"	NA
41	"pavo"	"pavo"	1	"key1"	0.754692799877375
41	"pavo"	"pavo"	1	"key2"	0.854681899771094
41	"pavo"	"pavo"	1	"key3"	1.00564719969407
41	"pavo"	"pavo"	1	"key4"	1.10097109992057
41	"pavo"	"pavo"	1	"key5"	NA
41	"pavo"	"pavo"	1	"key6"	NA
41	"pavo"	"pavo"	1	"key7"	NA
41	"pavo"	"pavo"	1	"key8"	NA
41	"pavo"	"pavo"	1	"key9"	NA
41	"pavo"	"pavo"	1	"key10"	NA
41	"pavo"	"pavo"	1	"key11"	NA
41	"pavo"	"pavo"	1	"key12"	NA
41	"pavo"	"pavo"	1	"key13"	NA
41	"pavo"	"pavo"	1	"key14"	NA
41	"pavo"	"pavo"	1	"key15"	NA
44	"puente"	"puente"	2	"key1"	1.01184500008821
44	"puente"	"puente"	2	"key2"	1.23179230000824
44	"puente"	"puente"	2	"key3"	1.38582549989223
44	"puente"	"puente"	2	"key4"	1.48179050022736
44	"puente"	"puente"	2	"key5"	1.56279770005494
44	"puente"	"puente"	2	"key6"	1.64478929992765
44	"puente"	"puente"	2	"key7"	NA
44	"puente"	"puente"	2	"key8"	NA
44	"puente"	"puente"	2	"key9"	NA
44	"puente"	"puente"	2	"key10"	NA
44	"puente"	"puente"	2	"key11"	NA
44	"puente"	"puente"	2	"key12"	NA
44	"puente"	"puente"	2	"key13"	NA
44	"puente"	"puente"	2	"key14"	NA
44	"puente"	"puente"	2	"key15"	NA
50	"manzana"	"manzana"	1	"key1"	0.861794899683446
50	"manzana"	"manzana"	1	"key2"	0.961794599890709
50	"manzana"	"manzana"	1	"key3"	1.16734639974311
50	"manzana"	"manzana"	1	"key4"	1.38837789976969
50	"manzana"	"manzana"	1	"key5"	1.58234079973772
50	"manzana"	"manzana"	1	"key6"	1.74461669987068
50	"manzana"	"manzana"	1	"key7"	1.85918209981173
50	"manzana"	"manzana"	1	"key8"	NA
50	"manzana"	"manzana"	1	"key9"	NA
50	"manzana"	"manzana"	1	"key10"	NA
50	"manzana"	"manzana"	1	"key11"	NA
50	"manzana"	"manzana"	1	"key12"	NA
50	"manzana"	"manzana"	1	"key13"	NA
50	"manzana"	"manzana"	1	"key14"	NA
50	"manzana"	"manzana"	1	"key15"	NA
52	"manzana"	"manzana"	2	"key1"	1.09184500016272
52	"manzana"	"manzana"	2	"key2"	1.22517460025847
52	"manzana"	"manzana"	2	"key3"	1.31117090024054
52	"manzana"	"manzana"	2	"key4"	1.64348920015618
52	"manzana"	"manzana"	2	"key5"	1.83000240009278
52	"manzana"	"manzana"	2	"key6"	1.92099430039525
52	"manzana"	"manzana"	2	"key7"	2.25500130001456
52	"manzana"	"manzana"	2	"key8"	NA
52	"manzana"	"manzana"	2	"key9"	NA
52	"manzana"	"manzana"	2	"key10"	NA
52	"manzana"	"manzana"	2	"key11"	NA
52	"manzana"	"manzana"	2	"key12"	NA
52	"manzana"	"manzana"	2	"key13"	NA
52	"manzana"	"manzana"	2	"key14"	NA
52	"manzana"	"manzana"	2	"key15"	NA
53	"goma"	"goma"	1	"key1"	0.877066100016236
53	"goma"	"goma"	1	"key2"	0.945074399933219
53	"goma"	"goma"	1	"key3"	1.12206290010363
53	"goma"	"goma"	1	"key4"	1.20802190015092
53	"goma"	"goma"	1	"key5"	NA
53	"goma"	"goma"	1	"key6"	NA
53	"goma"	"goma"	1	"key7"	NA
53	"goma"	"goma"	1	"key8"	NA
53	"goma"	"goma"	1	"key9"	NA
53	"goma"	"goma"	1	"key10"	NA
53	"goma"	"goma"	1	"key11"	NA
53	"goma"	"goma"	1	"key12"	NA
53	"goma"	"goma"	1	"key13"	NA
53	"goma"	"goma"	1	"key14"	NA
53	"goma"	"goma"	1	"key15"	NA
57	"aguja"	"aguja"	1	"key1"	0.736645500175655
57	"aguja"	"aguja"	1	"key2"	1.15160370012745
57	"aguja"	"aguja"	1	"key3"	1.24259959999472
57	"aguja"	"aguja"	1	"key4"	1.41149129997939
57	"aguja"	"aguja"	1	"key5"	1.4774870001711
57	"aguja"	"aguja"	1	"key6"	NA
57	"aguja"	"aguja"	1	"key7"	NA
57	"aguja"	"aguja"	1	"key8"	NA
57	"aguja"	"aguja"	1	"key9"	NA
57	"aguja"	"aguja"	1	"key10"	NA
57	"aguja"	"aguja"	1	"key11"	NA
57	"aguja"	"aguja"	1	"key12"	NA
57	"aguja"	"aguja"	1	"key13"	NA
57	"aguja"	"aguja"	1	"key14"	NA
57	"aguja"	"aguja"	1	"key15"	NA
59	"iglesia"	"iglesia"	1	"key1"	1.16020220005885
59	"iglesia"	"iglesia"	1	"key2"	1.41017080005258
59	"iglesia"	"iglesia"	1	"key3"	1.51215490000322
59	"iglesia"	"iglesia"	1	"key4"	1.60815540002659
59	"iglesia"	"iglesia"	1	"key5"	1.75086909998208
59	"iglesia"	"iglesia"	1	"key6"	1.8218606999144
59	"iglesia"	"iglesia"	1	"key7"	1.92382090026513
59	"iglesia"	"iglesia"	1	"key8"	NA
59	"iglesia"	"iglesia"	1	"key9"	NA
59	"iglesia"	"iglesia"	1	"key10"	NA
59	"iglesia"	"iglesia"	1	"key11"	NA
59	"iglesia"	"iglesia"	1	"key12"	NA
59	"iglesia"	"iglesia"	1	"key13"	NA
59	"iglesia"	"iglesia"	1	"key14"	NA
59	"iglesia"	"iglesia"	1	"key15"	NA
61	"pintor"	"pintor"	1	"key1"	0.974172099959105
61	"pintor"	"pintor"	1	"key2"	1.15188150014728
61	"pintor"	"pintor"	1	"key3"	1.3428921001032
61	"pintor"	"pintor"	1	"key4"	1.46688959980384
61	"pintor"	"pintor"	1	"key5"	1.60693089989945
61	"pintor"	"pintor"	1	"key6"	1.6995891998522
61	"pintor"	"pintor"	1	"key7"	NA
61	"pintor"	"pintor"	1	"key8"	NA
61	"pintor"	"pintor"	1	"key9"	NA
61	"pintor"	"pintor"	1	"key10"	NA
61	"pintor"	"pintor"	1	"key11"	NA
61	"pintor"	"pintor"	1	"key12"	NA
61	"pintor"	"pintor"	1	"key13"	NA
61	"pintor"	"pintor"	1	"key14"	NA
61	"pintor"	"pintor"	1	"key15"	NA
65	"caracol"	"caracol"	2	"key1"	1.0565012996085
65	"caracol"	"caracol"	2	"key2"	1.14149519987404
65	"caracol"	"caracol"	2	"key3"	1.31731079984456
65	"caracol"	"caracol"	2	"key4"	1.3973060999997
65	"caracol"	"caracol"	2	"key5"	1.6353311999701
65	"caracol"	"caracol"	2	"key6"	1.71016899961978
65	"caracol"	"caracol"	2	"key7"	1.9161733998917
65	"caracol"	"caracol"	2	"key8"	NA
65	"caracol"	"caracol"	2	"key9"	NA
65	"caracol"	"caracol"	2	"key10"	NA
65	"caracol"	"caracol"	2	"key11"	NA
65	"caracol"	"caracol"	2	"key12"	NA
65	"caracol"	"caracol"	2	"key13"	NA
65	"caracol"	"caracol"	2	"key14"	NA
65	"caracol"	"caracol"	2	"key15"	NA
69	"cartero"	"cartero"	1	"key1"	0.662714499980211
69	"cartero"	"cartero"	1	"key2"	0.73802959965542
69	"cartero"	"cartero"	1	"key3"	0.925273600034416
69	"cartero"	"cartero"	1	"key4"	1.11019829986617
69	"cartero"	"cartero"	1	"key5"	1.1862716996111
69	"cartero"	"cartero"	1	"key6"	1.3121767998673
69	"cartero"	"cartero"	1	"key7"	1.40742699988186
69	"cartero"	"cartero"	1	"key8"	NA
69	"cartero"	"cartero"	1	"key9"	NA
69	"cartero"	"cartero"	1	"key10"	NA
69	"cartero"	"cartero"	1	"key11"	NA
69	"cartero"	"cartero"	1	"key12"	NA
69	"cartero"	"cartero"	1	"key13"	NA
69	"cartero"	"cartero"	1	"key14"	NA
69	"cartero"	"cartero"	1	"key15"	NA
71	"tronco"	"tronco"	1	"key1"	1.18410900002345
71	"tronco"	"tronco"	1	"key2"	1.30010360013694
71	"tronco"	"tronco"	1	"key3"	1.36909940000623
71	"tronco"	"tronco"	1	"key4"	1.58410080010071
71	"tronco"	"tronco"	1	"key5"	1.73398410016671
71	"tronco"	"tronco"	1	"key6"	1.80097710015252
71	"tronco"	"tronco"	1	"key7"	NA
71	"tronco"	"tronco"	1	"key8"	NA
71	"tronco"	"tronco"	1	"key9"	NA
71	"tronco"	"tronco"	1	"key10"	NA
71	"tronco"	"tronco"	1	"key11"	NA
71	"tronco"	"tronco"	1	"key12"	NA
71	"tronco"	"tronco"	1	"key13"	NA
71	"tronco"	"tronco"	1	"key14"	NA
71	"tronco"	"tronco"	1	"key15"	NA
72	"oreja"	"oreja"	1	"key1"	1.31814579991624
72	"oreja"	"oreja"	1	"key2"	1.44639399973676
72	"oreja"	"oreja"	1	"key3"	1.52898970013484
72	"oreja"	"oreja"	1	"key4"	1.64802230009809
72	"oreja"	"oreja"	1	"key5"	1.75700929993764
72	"oreja"	"oreja"	1	"key6"	NA
72	"oreja"	"oreja"	1	"key7"	NA
72	"oreja"	"oreja"	1	"key8"	NA
72	"oreja"	"oreja"	1	"key9"	NA
72	"oreja"	"oreja"	1	"key10"	NA
72	"oreja"	"oreja"	1	"key11"	NA
72	"oreja"	"oreja"	1	"key12"	NA
72	"oreja"	"oreja"	1	"key13"	NA
72	"oreja"	"oreja"	1	"key14"	NA
72	"oreja"	"oreja"	1	"key15"	NA
73	"oreja"	"oreja"	2	"key1"	0.598575999960303
73	"oreja"	"oreja"	2	"key2"	0.735533399973065
73	"oreja"	"oreja"	2	"key3"	0.806525700259954
73	"oreja"	"oreja"	2	"key4"	0.930912000127137
73	"oreja"	"oreja"	2	"key5"	1.03388360003009
73	"oreja"	"oreja"	2	"key6"	NA
73	"oreja"	"oreja"	2	"key7"	NA
73	"oreja"	"oreja"	2	"key8"	NA
73	"oreja"	"oreja"	2	"key9"	NA
73	"oreja"	"oreja"	2	"key10"	NA
73	"oreja"	"oreja"	2	"key11"	NA
73	"oreja"	"oreja"	2	"key12"	NA
73	"oreja"	"oreja"	2	"key13"	NA
73	"oreja"	"oreja"	2	"key14"	NA
73	"oreja"	"oreja"	2	"key15"	NA
75	"miel"	"miel"	1	"key1"	1.05350499972701
75	"miel"	"miel"	1	"key2"	1.2544968998991
75	"miel"	"miel"	1	"key3"	1.34046769980341
75	"miel"	"miel"	1	"key4"	1.48135269992054
75	"miel"	"miel"	1	"key5"	NA
75	"miel"	"miel"	1	"key6"	NA
75	"miel"	"miel"	1	"key7"	NA
75	"miel"	"miel"	1	"key8"	NA
75	"miel"	"miel"	1	"key9"	NA
75	"miel"	"miel"	1	"key10"	NA
75	"miel"	"miel"	1	"key11"	NA
75	"miel"	"miel"	1	"key12"	NA
75	"miel"	"miel"	1	"key13"	NA
75	"miel"	"miel"	1	"key14"	NA
75	"miel"	"miel"	1	"key15"	NA
76	"miel"	"miel"	2	"key1"	0.797837799880654
76	"miel"	"miel"	2	"key2"	0.985809599980712
76	"miel"	"miel"	2	"key3"	1.088977499865
76	"miel"	"miel"	2	"key4"	1.21396989980713
76	"miel"	"miel"	2	"key5"	NA
76	"miel"	"miel"	2	"key6"	NA
76	"miel"	"miel"	2	"key7"	NA
76	"miel"	"miel"	2	"key8"	NA
76	"miel"	"miel"	2	"key9"	NA
76	"miel"	"miel"	2	"key10"	NA
76	"miel"	"miel"	2	"key11"	NA
76	"miel"	"miel"	2	"key12"	NA
76	"miel"	"miel"	2	"key13"	NA
76	"miel"	"miel"	2	"key14"	NA
76	"miel"	"miel"	2	"key15"	NA
77	"mano"	"mano"	3	"key1"	0.723578799981624
77	"mano"	"mano"	3	"key2"	0.87866079993546
77	"mano"	"mano"	3	"key3"	0.967640900053084
77	"mano"	"mano"	3	"key4"	1.12842139974236
77	"mano"	"mano"	3	"key5"	NA
77	"mano"	"mano"	3	"key6"	NA
77	"mano"	"mano"	3	"key7"	NA
77	"mano"	"mano"	3	"key8"	NA
77	"mano"	"mano"	3	"key9"	NA
77	"mano"	"mano"	3	"key10"	NA
77	"mano"	"mano"	3	"key11"	NA
77	"mano"	"mano"	3	"key12"	NA
77	"mano"	"mano"	3	"key13"	NA
77	"mano"	"mano"	3	"key14"	NA
77	"mano"	"mano"	3	"key15"	NA
79	"pierna"	"pierna"	2	"key1"	0.798519100062549
79	"pierna"	"pierna"	2	"key2"	1.03168470039964
79	"pierna"	"pierna"	2	"key3"	1.14469010010362
79	"pierna"	"pierna"	2	"key4"	1.22375130001456
79	"pierna"	"pierna"	2	"key5"	1.29008310008794
79	"pierna"	"pierna"	2	"key6"	1.41301000025123
79	"pierna"	"pierna"	2	"key7"	NA
79	"pierna"	"pierna"	2	"key8"	NA
79	"pierna"	"pierna"	2	"key9"	NA
79	"pierna"	"pierna"	2	"key10"	NA
79	"pierna"	"pierna"	2	"key11"	NA
79	"pierna"	"pierna"	2	"key12"	NA
79	"pierna"	"pierna"	2	"key13"	NA
79	"pierna"	"pierna"	2	"key14"	NA
79	"pierna"	"pierna"	2	"key15"	NA
80	"pierna"	"pierna"	3	"key1"	1.0550663000904
80	"pierna"	"pierna"	3	"key2"	1.19909639982507
80	"pierna"	"pierna"	3	"key3"	1.32709750020877
80	"pierna"	"pierna"	3	"key4"	1.40415319986641
80	"pierna"	"pierna"	3	"key5"	1.46909110015258
80	"pierna"	"pierna"	3	"key6"	1.61210379982367
80	"pierna"	"pierna"	3	"key7"	NA
80	"pierna"	"pierna"	3	"key8"	NA
80	"pierna"	"pierna"	3	"key9"	NA
80	"pierna"	"pierna"	3	"key10"	NA
80	"pierna"	"pierna"	3	"key11"	NA
80	"pierna"	"pierna"	3	"key12"	NA
80	"pierna"	"pierna"	3	"key13"	NA
80	"pierna"	"pierna"	3	"key14"	NA
80	"pierna"	"pierna"	3	"key15"	NA
81	"pulpo"	"pulpo"	1	"key1"	0.886868700385094
81	"pulpo"	"pulpo"	1	"key2"	1.0888372999616
81	"pulpo"	"pulpo"	1	"key3"	1.74544940004125
81	"pulpo"	"pulpo"	1	"key4"	1.93945170007646
81	"pulpo"	"pulpo"	1	"key5"	2.11401270003989
81	"pulpo"	"pulpo"	1	"key6"	NA
81	"pulpo"	"pulpo"	1	"key7"	NA
81	"pulpo"	"pulpo"	1	"key8"	NA
81	"pulpo"	"pulpo"	1	"key9"	NA
81	"pulpo"	"pulpo"	1	"key10"	NA
81	"pulpo"	"pulpo"	1	"key11"	NA
81	"pulpo"	"pulpo"	1	"key12"	NA
81	"pulpo"	"pulpo"	1	"key13"	NA
81	"pulpo"	"pulpo"	1	"key14"	NA
81	"pulpo"	"pulpo"	1	"key15"	NA
83	"aguja"	"aguja"	2	"key1"	0.864796900190413
83	"aguja"	"aguja"	2	"key2"	1.14591530011967
83	"aguja"	"aguja"	2	"key3"	1.24581089988351
83	"aguja"	"aguja"	2	"key4"	1.41231080004945
83	"aguja"	"aguja"	2	"key5"	1.8152922000736
83	"aguja"	"aguja"	2	"key6"	NA
83	"aguja"	"aguja"	2	"key7"	NA
83	"aguja"	"aguja"	2	"key8"	NA
83	"aguja"	"aguja"	2	"key9"	NA
83	"aguja"	"aguja"	2	"key10"	NA
83	"aguja"	"aguja"	2	"key11"	NA
83	"aguja"	"aguja"	2	"key12"	NA
83	"aguja"	"aguja"	2	"key13"	NA
83	"aguja"	"aguja"	2	"key14"	NA
83	"aguja"	"aguja"	2	"key15"	NA
87	"bano"	"bano"	1	"key1"	1.14601719984785
87	"bano"	"bano"	1	"key2"	1.26286059990525
87	"bano"	"bano"	1	"key3"	1.71385260019451
87	"bano"	"bano"	1	"key4"	1.89885899983346
87	"bano"	"bano"	1	"key5"	NA
87	"bano"	"bano"	1	"key6"	NA
87	"bano"	"bano"	1	"key7"	NA
87	"bano"	"bano"	1	"key8"	NA
87	"bano"	"bano"	1	"key9"	NA
87	"bano"	"bano"	1	"key10"	NA
87	"bano"	"bano"	1	"key11"	NA
87	"bano"	"bano"	1	"key12"	NA
87	"bano"	"bano"	1	"key13"	NA
87	"bano"	"bano"	1	"key14"	NA
87	"bano"	"bano"	1	"key15"	NA
89	"bombero"	"bombero"	1	"key1"	0.932391500100493
89	"bombero"	"bombero"	1	"key2"	1.02437180001289
89	"bombero"	"bombero"	1	"key3"	1.22437519999221
89	"bombero"	"bombero"	1	"key4"	1.30124039994553
89	"bombero"	"bombero"	1	"key5"	1.3802411002107
89	"bombero"	"bombero"	1	"key6"	1.5272158998996
89	"bombero"	"bombero"	1	"key7"	1.61021370021626
89	"bombero"	"bombero"	1	"key8"	NA
89	"bombero"	"bombero"	1	"key9"	NA
89	"bombero"	"bombero"	1	"key10"	NA
89	"bombero"	"bombero"	1	"key11"	NA
89	"bombero"	"bombero"	1	"key12"	NA
89	"bombero"	"bombero"	1	"key13"	NA
89	"bombero"	"bombero"	1	"key14"	NA
89	"bombero"	"bombero"	1	"key15"	NA
91	"guante"	"guante"	1	"key1"	1.01207839976996
91	"guante"	"guante"	1	"key2"	1.11707299994305
91	"guante"	"guante"	1	"key3"	1.19826720003039
91	"guante"	"guante"	1	"key4"	1.31728019984439
91	"guante"	"guante"	1	"key5"	1.4282358000055
91	"guante"	"guante"	1	"key6"	1.52427359996364
91	"guante"	"guante"	1	"key7"	NA
91	"guante"	"guante"	1	"key8"	NA
91	"guante"	"guante"	1	"key9"	NA
91	"guante"	"guante"	1	"key10"	NA
91	"guante"	"guante"	1	"key11"	NA
91	"guante"	"guante"	1	"key12"	NA
91	"guante"	"guante"	1	"key13"	NA
91	"guante"	"guante"	1	"key14"	NA
91	"guante"	"guante"	1	"key15"	NA
95	"cartero"	"cartero"	2	"key1"	1.1525969998911
95	"cartero"	"cartero"	2	"key2"	1.26059330021963
95	"cartero"	"cartero"	2	"key3"	1.43929009977728
95	"cartero"	"cartero"	2	"key4"	1.61722570005804
95	"cartero"	"cartero"	2	"key5"	1.68018510006368
95	"cartero"	"cartero"	2	"key6"	1.80222010007128
95	"cartero"	"cartero"	2	"key7"	1.83918179990724
95	"cartero"	"cartero"	2	"key8"	NA
95	"cartero"	"cartero"	2	"key9"	NA
95	"cartero"	"cartero"	2	"key10"	NA
95	"cartero"	"cartero"	2	"key11"	NA
95	"cartero"	"cartero"	2	"key12"	NA
95	"cartero"	"cartero"	2	"key13"	NA
95	"cartero"	"cartero"	2	"key14"	NA
95	"cartero"	"cartero"	2	"key15"	NA
