"Trial_no"	"CorrectAns"	"SubjResponse"	"Repetition"	"Keypress"	"RT"
103	"columna"	"columna"	1	"key1"	1.2680151
103	"columna"	"columna"	1	"key2"	1.6360609
103	"columna"	"columna"	1	"key3"	1.8270702
103	"columna"	"columna"	1	"key4"	2.051995
103	"columna"	"columna"	1	"key5"	2.2759959
103	"columna"	"columna"	1	"key6"	2.5153341
103	"columna"	"columna"	1	"key7"	2.6123817
103	"columna"	"columna"	1	"key8"	NA
103	"columna"	"columna"	1	"key9"	NA
103	"columna"	"columna"	1	"key10"	NA
103	"columna"	"columna"	1	"key11"	NA
103	"columna"	"columna"	1	"key12"	NA
103	"columna"	"columna"	1	"key13"	NA
103	"columna"	"columna"	1	"key14"	NA
103	"columna"	"columna"	1	"key15"	NA
106	"pierna"	"pierna"	1	"key1"	1.8244084
106	"pierna"	"pierna"	1	"key2"	2.0485662
106	"pierna"	"pierna"	1	"key3"	2.240505
106	"pierna"	"pierna"	1	"key4"	2.4004445
106	"pierna"	"pierna"	1	"key5"	2.5604463
106	"pierna"	"pierna"	1	"key6"	2.6404142
106	"pierna"	"pierna"	1	"key7"	NA
106	"pierna"	"pierna"	1	"key8"	NA
106	"pierna"	"pierna"	1	"key9"	NA
106	"pierna"	"pierna"	1	"key10"	NA
106	"pierna"	"pierna"	1	"key11"	NA
106	"pierna"	"pierna"	1	"key12"	NA
106	"pierna"	"pierna"	1	"key13"	NA
106	"pierna"	"pierna"	1	"key14"	NA
106	"pierna"	"pierna"	1	"key15"	NA
109	"tenedor"	"tenedor"	1	"key1"	1.3040585
109	"tenedor"	"tenedor"	1	"key2"	1.4000549
109	"tenedor"	"tenedor"	1	"key3"	1.5601965
109	"tenedor"	"tenedor"	1	"key4"	1.6242007
109	"tenedor"	"tenedor"	1	"key5"	1.8800582
109	"tenedor"	"tenedor"	1	"key6"	2.1840859
109	"tenedor"	"tenedor"	1	"key7"	2.2974209
109	"tenedor"	"tenedor"	1	"key8"	NA
109	"tenedor"	"tenedor"	1	"key9"	NA
109	"tenedor"	"tenedor"	1	"key10"	NA
109	"tenedor"	"tenedor"	1	"key11"	NA
109	"tenedor"	"tenedor"	1	"key12"	NA
109	"tenedor"	"tenedor"	1	"key13"	NA
109	"tenedor"	"tenedor"	1	"key14"	NA
109	"tenedor"	"tenedor"	1	"key15"	NA
112	"cazador"	"cazador"	1	"key1"	1.0512895
112	"cazador"	"cazador"	1	"key2"	1.1472345
112	"cazador"	"cazador"	1	"key3"	1.323231
112	"cazador"	"cazador"	1	"key4"	1.4992373
112	"cazador"	"cazador"	1	"key5"	1.7552349
112	"cazador"	"cazador"	1	"key6"	1.9632335
112	"cazador"	"cazador"	1	"key7"	2.155229
112	"cazador"	"cazador"	1	"key8"	NA
112	"cazador"	"cazador"	1	"key9"	NA
112	"cazador"	"cazador"	1	"key10"	NA
112	"cazador"	"cazador"	1	"key11"	NA
112	"cazador"	"cazador"	1	"key12"	NA
112	"cazador"	"cazador"	1	"key13"	NA
112	"cazador"	"cazador"	1	"key14"	NA
112	"cazador"	"cazador"	1	"key15"	NA
113	"taza"	"taza"	1	"key1"	1.9600495
113	"taza"	"taza"	1	"key2"	2.0400439
113	"taza"	"taza"	1	"key3"	2.2314326
113	"taza"	"taza"	1	"key4"	2.3753967
113	"taza"	"taza"	1	"key5"	NA
113	"taza"	"taza"	1	"key6"	NA
113	"taza"	"taza"	1	"key7"	NA
113	"taza"	"taza"	1	"key8"	NA
113	"taza"	"taza"	1	"key9"	NA
113	"taza"	"taza"	1	"key10"	NA
113	"taza"	"taza"	1	"key11"	NA
113	"taza"	"taza"	1	"key12"	NA
113	"taza"	"taza"	1	"key13"	NA
113	"taza"	"taza"	1	"key14"	NA
113	"taza"	"taza"	1	"key15"	NA
114	"fresa"	"fresa"	1	"key1"	1.1862682
114	"fresa"	"fresa"	1	"key2"	1.3616912
114	"fresa"	"fresa"	1	"key3"	1.4586632
114	"fresa"	"fresa"	1	"key4"	1.6336898
114	"fresa"	"fresa"	1	"key5"	1.8096822
114	"fresa"	"fresa"	1	"key6"	NA
114	"fresa"	"fresa"	1	"key7"	NA
114	"fresa"	"fresa"	1	"key8"	NA
114	"fresa"	"fresa"	1	"key9"	NA
114	"fresa"	"fresa"	1	"key10"	NA
114	"fresa"	"fresa"	1	"key11"	NA
114	"fresa"	"fresa"	1	"key12"	NA
114	"fresa"	"fresa"	1	"key13"	NA
114	"fresa"	"fresa"	1	"key14"	NA
114	"fresa"	"fresa"	1	"key15"	NA
117	"puente"	"puente"	1	"key1"	0.7804521
117	"puente"	"puente"	1	"key2"	1.0684149
117	"puente"	"puente"	1	"key3"	1.2608756
117	"puente"	"puente"	1	"key4"	1.4367053
117	"puente"	"puente"	1	"key5"	1.6606735
117	"puente"	"puente"	1	"key6"	1.8846652
117	"puente"	"puente"	1	"key7"	NA
117	"puente"	"puente"	1	"key8"	NA
117	"puente"	"puente"	1	"key9"	NA
117	"puente"	"puente"	1	"key10"	NA
117	"puente"	"puente"	1	"key11"	NA
117	"puente"	"puente"	1	"key12"	NA
117	"puente"	"puente"	1	"key13"	NA
117	"puente"	"puente"	1	"key14"	NA
117	"puente"	"puente"	1	"key15"	NA
119	"espalda"	"espalda"	1	"key1"	1.0928958
119	"espalda"	"espalda"	1	"key2"	1.2688304
119	"espalda"	"espalda"	1	"key3"	1.9726795
119	"espalda"	"espalda"	1	"key4"	2.1966461
119	"espalda"	"espalda"	1	"key5"	2.3086395
119	"espalda"	"espalda"	1	"key6"	2.5166416
119	"espalda"	"espalda"	1	"key7"	2.6930142
119	"espalda"	"espalda"	1	"key8"	NA
119	"espalda"	"espalda"	1	"key9"	NA
119	"espalda"	"espalda"	1	"key10"	NA
119	"espalda"	"espalda"	1	"key11"	NA
119	"espalda"	"espalda"	1	"key12"	NA
119	"espalda"	"espalda"	1	"key13"	NA
119	"espalda"	"espalda"	1	"key14"	NA
119	"espalda"	"espalda"	1	"key15"	NA
120	"espalda"	"espalda"	2	"key1"	0.8798346
120	"espalda"	"espalda"	2	"key2"	1.0556825
120	"espalda"	"espalda"	2	"key3"	1.2001258
120	"espalda"	"espalda"	2	"key4"	1.296157
120	"espalda"	"espalda"	2	"key5"	1.4081251
120	"espalda"	"espalda"	2	"key6"	1.7118342
120	"espalda"	"espalda"	2	"key7"	1.9037799
120	"espalda"	"espalda"	2	"key8"	NA
120	"espalda"	"espalda"	2	"key9"	NA
120	"espalda"	"espalda"	2	"key10"	NA
120	"espalda"	"espalda"	2	"key11"	NA
120	"espalda"	"espalda"	2	"key12"	NA
120	"espalda"	"espalda"	2	"key13"	NA
120	"espalda"	"espalda"	2	"key14"	NA
120	"espalda"	"espalda"	2	"key15"	NA
122	"pavo"	"pavo"	1	"key1"	1.3236389
122	"pavo"	"pavo"	1	"key2"	1.4356456
122	"pavo"	"pavo"	1	"key3"	1.7709288
122	"pavo"	"pavo"	1	"key4"	1.8992498
122	"pavo"	"pavo"	1	"key5"	NA
122	"pavo"	"pavo"	1	"key6"	NA
122	"pavo"	"pavo"	1	"key7"	NA
122	"pavo"	"pavo"	1	"key8"	NA
122	"pavo"	"pavo"	1	"key9"	NA
122	"pavo"	"pavo"	1	"key10"	NA
122	"pavo"	"pavo"	1	"key11"	NA
122	"pavo"	"pavo"	1	"key12"	NA
122	"pavo"	"pavo"	1	"key13"	NA
122	"pavo"	"pavo"	1	"key14"	NA
122	"pavo"	"pavo"	1	"key15"	NA
123	"pavo"	"pavo"	2	"key1"	1.0076447
123	"pavo"	"pavo"	2	"key2"	1.0236364
123	"pavo"	"pavo"	2	"key3"	1.343734
123	"pavo"	"pavo"	2	"key4"	1.4717258
123	"pavo"	"pavo"	2	"key5"	NA
123	"pavo"	"pavo"	2	"key6"	NA
123	"pavo"	"pavo"	2	"key7"	NA
123	"pavo"	"pavo"	2	"key8"	NA
123	"pavo"	"pavo"	2	"key9"	NA
123	"pavo"	"pavo"	2	"key10"	NA
123	"pavo"	"pavo"	2	"key11"	NA
123	"pavo"	"pavo"	2	"key12"	NA
123	"pavo"	"pavo"	2	"key13"	NA
123	"pavo"	"pavo"	2	"key14"	NA
123	"pavo"	"pavo"	2	"key15"	NA
126	"vaso"	"vaso"	1	"key1"	0.8732876
126	"vaso"	"vaso"	1	"key2"	0.921274
126	"vaso"	"vaso"	1	"key3"	1.1296732
126	"vaso"	"vaso"	1	"key4"	1.3053539
126	"vaso"	"vaso"	1	"key5"	NA
126	"vaso"	"vaso"	1	"key6"	NA
126	"vaso"	"vaso"	1	"key7"	NA
126	"vaso"	"vaso"	1	"key8"	NA
126	"vaso"	"vaso"	1	"key9"	NA
126	"vaso"	"vaso"	1	"key10"	NA
126	"vaso"	"vaso"	1	"key11"	NA
126	"vaso"	"vaso"	1	"key12"	NA
126	"vaso"	"vaso"	1	"key13"	NA
126	"vaso"	"vaso"	1	"key14"	NA
126	"vaso"	"vaso"	1	"key15"	NA
128	"camisa"	"camisa"	1	"key1"	1.1056679
128	"camisa"	"camisa"	1	"key2"	1.2016707
128	"camisa"	"camisa"	1	"key3"	1.6019951
128	"camisa"	"camisa"	1	"key4"	1.825962
128	"camisa"	"camisa"	1	"key5"	1.9540047
128	"camisa"	"camisa"	1	"key6"	2.1299995
128	"camisa"	"camisa"	1	"key7"	NA
128	"camisa"	"camisa"	1	"key8"	NA
128	"camisa"	"camisa"	1	"key9"	NA
128	"camisa"	"camisa"	1	"key10"	NA
128	"camisa"	"camisa"	1	"key11"	NA
128	"camisa"	"camisa"	1	"key12"	NA
128	"camisa"	"camisa"	1	"key13"	NA
128	"camisa"	"camisa"	1	"key14"	NA
128	"camisa"	"camisa"	1	"key15"	NA
132	"mano"	"mano"	1	"key1"	1.460243
132	"mano"	"mano"	1	"key2"	1.5713159
132	"mano"	"mano"	1	"key3"	1.684198
132	"mano"	"mano"	1	"key4"	1.9401059
132	"mano"	"mano"	1	"key5"	NA
132	"mano"	"mano"	1	"key6"	NA
132	"mano"	"mano"	1	"key7"	NA
132	"mano"	"mano"	1	"key8"	NA
132	"mano"	"mano"	1	"key9"	NA
132	"mano"	"mano"	1	"key10"	NA
132	"mano"	"mano"	1	"key11"	NA
132	"mano"	"mano"	1	"key12"	NA
132	"mano"	"mano"	1	"key13"	NA
132	"mano"	"mano"	1	"key14"	NA
132	"mano"	"mano"	1	"key15"	NA
133	"mano"	"mano"	2	"key1"	0.9277142
133	"mano"	"mano"	2	"key2"	1.0717167
133	"mano"	"mano"	2	"key3"	1.2161818
133	"mano"	"mano"	2	"key4"	1.5681203
133	"mano"	"mano"	2	"key5"	NA
133	"mano"	"mano"	2	"key6"	NA
133	"mano"	"mano"	2	"key7"	NA
133	"mano"	"mano"	2	"key8"	NA
133	"mano"	"mano"	2	"key9"	NA
133	"mano"	"mano"	2	"key10"	NA
133	"mano"	"mano"	2	"key11"	NA
133	"mano"	"mano"	2	"key12"	NA
133	"mano"	"mano"	2	"key13"	NA
133	"mano"	"mano"	2	"key14"	NA
133	"mano"	"mano"	2	"key15"	NA
134	"pintor"	"pintor"	1	"key1"	0.9251625
134	"pintor"	"pintor"	1	"key2"	1.1811602
134	"pintor"	"pintor"	1	"key3"	1.4051578
134	"pintor"	"pintor"	1	"key4"	1.5811554
134	"pintor"	"pintor"	1	"key5"	1.693219
134	"pintor"	"pintor"	1	"key6"	1.7731544
134	"pintor"	"pintor"	1	"key7"	NA
134	"pintor"	"pintor"	1	"key8"	NA
134	"pintor"	"pintor"	1	"key9"	NA
134	"pintor"	"pintor"	1	"key10"	NA
134	"pintor"	"pintor"	1	"key11"	NA
134	"pintor"	"pintor"	1	"key12"	NA
134	"pintor"	"pintor"	1	"key13"	NA
134	"pintor"	"pintor"	1	"key14"	NA
134	"pintor"	"pintor"	1	"key15"	NA
138	"cerdo"	"cerdo"	1	"key1"	1.1251984
138	"cerdo"	"cerdo"	1	"key2"	1.3485938
138	"cerdo"	"cerdo"	1	"key3"	1.5245598
138	"cerdo"	"cerdo"	1	"key4"	1.7005593
138	"cerdo"	"cerdo"	1	"key5"	1.8925958
138	"cerdo"	"cerdo"	1	"key6"	NA
138	"cerdo"	"cerdo"	1	"key7"	NA
138	"cerdo"	"cerdo"	1	"key8"	NA
138	"cerdo"	"cerdo"	1	"key9"	NA
138	"cerdo"	"cerdo"	1	"key10"	NA
138	"cerdo"	"cerdo"	1	"key11"	NA
138	"cerdo"	"cerdo"	1	"key12"	NA
138	"cerdo"	"cerdo"	1	"key13"	NA
138	"cerdo"	"cerdo"	1	"key14"	NA
138	"cerdo"	"cerdo"	1	"key15"	NA
139	"caracol"	"caracol"	1	"key1"	1.0956231
139	"caracol"	"caracol"	1	"key2"	1.1596115
139	"caracol"	"caracol"	1	"key3"	1.3356129
139	"caracol"	"caracol"	1	"key4"	1.3836496
139	"caracol"	"caracol"	1	"key5"	1.6076138
139	"caracol"	"caracol"	1	"key6"	1.8316512
139	"caracol"	"caracol"	1	"key7"	2.0076151
139	"caracol"	"caracol"	1	"key8"	NA
139	"caracol"	"caracol"	1	"key9"	NA
139	"caracol"	"caracol"	1	"key10"	NA
139	"caracol"	"caracol"	1	"key11"	NA
139	"caracol"	"caracol"	1	"key12"	NA
139	"caracol"	"caracol"	1	"key13"	NA
139	"caracol"	"caracol"	1	"key14"	NA
139	"caracol"	"caracol"	1	"key15"	NA
141	"cazador"	"cazador"	2	"key1"	1.8091249
141	"cazador"	"cazador"	2	"key2"	2.0491221
141	"cazador"	"cazador"	2	"key3"	2.2255086
141	"cazador"	"cazador"	2	"key4"	2.4497056
141	"cazador"	"cazador"	2	"key5"	2.6733834
141	"cazador"	"cazador"	2	"key6"	2.8173667
141	"cazador"	"cazador"	2	"key7"	2.9453801
141	"cazador"	"cazador"	2	"key8"	NA
141	"cazador"	"cazador"	2	"key9"	NA
141	"cazador"	"cazador"	2	"key10"	NA
141	"cazador"	"cazador"	2	"key11"	NA
141	"cazador"	"cazador"	2	"key12"	NA
141	"cazador"	"cazador"	2	"key13"	NA
141	"cazador"	"cazador"	2	"key14"	NA
141	"cazador"	"cazador"	2	"key15"	NA
143	"pavo"	"pavo"	3	"key1"	1.0333165
143	"pavo"	"pavo"	3	"key2"	1.1613141
143	"pavo"	"pavo"	3	"key3"	1.6255662
143	"pavo"	"pavo"	3	"key4"	1.7369347
143	"pavo"	"pavo"	3	"key5"	NA
143	"pavo"	"pavo"	3	"key6"	NA
143	"pavo"	"pavo"	3	"key7"	NA
143	"pavo"	"pavo"	3	"key8"	NA
143	"pavo"	"pavo"	3	"key9"	NA
143	"pavo"	"pavo"	3	"key10"	NA
143	"pavo"	"pavo"	3	"key11"	NA
143	"pavo"	"pavo"	3	"key12"	NA
143	"pavo"	"pavo"	3	"key13"	NA
143	"pavo"	"pavo"	3	"key14"	NA
143	"pavo"	"pavo"	3	"key15"	NA
146	"puente"	"puente"	2	"key1"	1.1478582
146	"puente"	"puente"	2	"key2"	1.4522308
146	"puente"	"puente"	2	"key3"	1.5802292
146	"puente"	"puente"	2	"key4"	1.6602263
146	"puente"	"puente"	2	"key5"	1.9161939
146	"puente"	"puente"	2	"key6"	1.9641939
146	"puente"	"puente"	2	"key7"	NA
146	"puente"	"puente"	2	"key8"	NA
146	"puente"	"puente"	2	"key9"	NA
146	"puente"	"puente"	2	"key10"	NA
146	"puente"	"puente"	2	"key11"	NA
146	"puente"	"puente"	2	"key12"	NA
146	"puente"	"puente"	2	"key13"	NA
146	"puente"	"puente"	2	"key14"	NA
146	"puente"	"puente"	2	"key15"	NA
149	"espalda"	"espalda"	3	"key1"	1.0197668
149	"espalda"	"espalda"	3	"key2"	1.195737
149	"espalda"	"espalda"	3	"key3"	1.4037391
149	"espalda"	"espalda"	3	"key4"	1.515742
149	"espalda"	"espalda"	3	"key5"	1.5957371
149	"espalda"	"espalda"	3	"key6"	1.867922
149	"espalda"	"espalda"	3	"key7"	2.0598868
149	"espalda"	"espalda"	3	"key8"	NA
149	"espalda"	"espalda"	3	"key9"	NA
149	"espalda"	"espalda"	3	"key10"	NA
149	"espalda"	"espalda"	3	"key11"	NA
149	"espalda"	"espalda"	3	"key12"	NA
149	"espalda"	"espalda"	3	"key13"	NA
149	"espalda"	"espalda"	3	"key14"	NA
149	"espalda"	"espalda"	3	"key15"	NA
152	"manzana"	"manzana"	1	"key1"	0.8632083
152	"manzana"	"manzana"	1	"key2"	0.9591445
152	"manzana"	"manzana"	1	"key3"	1.1351495
152	"manzana"	"manzana"	1	"key4"	1.4231064
152	"manzana"	"manzana"	1	"key5"	1.6151349
152	"manzana"	"manzana"	1	"key6"	1.7111048
152	"manzana"	"manzana"	1	"key7"	1.8071366
152	"manzana"	"manzana"	1	"key8"	NA
152	"manzana"	"manzana"	1	"key9"	NA
152	"manzana"	"manzana"	1	"key10"	NA
152	"manzana"	"manzana"	1	"key11"	NA
152	"manzana"	"manzana"	1	"key12"	NA
152	"manzana"	"manzana"	1	"key13"	NA
152	"manzana"	"manzana"	1	"key14"	NA
152	"manzana"	"manzana"	1	"key15"	NA
154	"manzana"	"manzana"	2	"key1"	1.4095747
154	"manzana"	"manzana"	2	"key2"	1.5055684
154	"manzana"	"manzana"	2	"key3"	1.7133435
154	"manzana"	"manzana"	2	"key4"	1.8733365
154	"manzana"	"manzana"	2	"key5"	2.0493432
154	"manzana"	"manzana"	2	"key6"	2.1133364
154	"manzana"	"manzana"	2	"key7"	2.2253384
154	"manzana"	"manzana"	2	"key8"	NA
154	"manzana"	"manzana"	2	"key9"	NA
154	"manzana"	"manzana"	2	"key10"	NA
154	"manzana"	"manzana"	2	"key11"	NA
154	"manzana"	"manzana"	2	"key12"	NA
154	"manzana"	"manzana"	2	"key13"	NA
154	"manzana"	"manzana"	2	"key14"	NA
154	"manzana"	"manzana"	2	"key15"	NA
155	"goma"	"goma"	1	"key1"	1.1034203
155	"goma"	"goma"	1	"key2"	1.1994066
155	"goma"	"goma"	1	"key3"	1.391494
155	"goma"	"goma"	1	"key4"	1.4714859
155	"goma"	"goma"	1	"key5"	NA
155	"goma"	"goma"	1	"key6"	NA
155	"goma"	"goma"	1	"key7"	NA
155	"goma"	"goma"	1	"key8"	NA
155	"goma"	"goma"	1	"key9"	NA
155	"goma"	"goma"	1	"key10"	NA
155	"goma"	"goma"	1	"key11"	NA
155	"goma"	"goma"	1	"key12"	NA
155	"goma"	"goma"	1	"key13"	NA
155	"goma"	"goma"	1	"key14"	NA
155	"goma"	"goma"	1	"key15"	NA
159	"aguja"	"aguja"	1	"key1"	0.7716303
159	"aguja"	"aguja"	1	"key2"	1.2196227
159	"aguja"	"aguja"	1	"key3"	1.5556424
159	"aguja"	"aguja"	1	"key4"	1.7156354
159	"aguja"	"aguja"	1	"key5"	1.8436276
159	"aguja"	"aguja"	1	"key6"	NA
159	"aguja"	"aguja"	1	"key7"	NA
159	"aguja"	"aguja"	1	"key8"	NA
159	"aguja"	"aguja"	1	"key9"	NA
159	"aguja"	"aguja"	1	"key10"	NA
159	"aguja"	"aguja"	1	"key11"	NA
159	"aguja"	"aguja"	1	"key12"	NA
159	"aguja"	"aguja"	1	"key13"	NA
159	"aguja"	"aguja"	1	"key14"	NA
159	"aguja"	"aguja"	1	"key15"	NA
160	"cadena"	"cadena"	1	"key1"	1.3184968
160	"cadena"	"cadena"	1	"key2"	1.3664815
160	"cadena"	"cadena"	1	"key3"	1.6229218
160	"cadena"	"cadena"	1	"key4"	1.7668146
160	"cadena"	"cadena"	1	"key5"	1.8787954
160	"cadena"	"cadena"	1	"key6"	1.9742417
160	"cadena"	"cadena"	1	"key7"	NA
160	"cadena"	"cadena"	1	"key8"	NA
160	"cadena"	"cadena"	1	"key9"	NA
160	"cadena"	"cadena"	1	"key10"	NA
160	"cadena"	"cadena"	1	"key11"	NA
160	"cadena"	"cadena"	1	"key12"	NA
160	"cadena"	"cadena"	1	"key13"	NA
160	"cadena"	"cadena"	1	"key14"	NA
160	"cadena"	"cadena"	1	"key15"	NA
161	"iglesia"	"iglesia"	1	"key1"	1.0814822
161	"iglesia"	"iglesia"	1	"key2"	1.4974853
161	"iglesia"	"iglesia"	1	"key3"	1.6094725
161	"iglesia"	"iglesia"	1	"key4"	1.7694782
161	"iglesia"	"iglesia"	1	"key5"	1.9454402
161	"iglesia"	"iglesia"	1	"key6"	2.0580231
161	"iglesia"	"iglesia"	1	"key7"	2.1380202
161	"iglesia"	"iglesia"	1	"key8"	NA
161	"iglesia"	"iglesia"	1	"key9"	NA
161	"iglesia"	"iglesia"	1	"key10"	NA
161	"iglesia"	"iglesia"	1	"key11"	NA
161	"iglesia"	"iglesia"	1	"key12"	NA
161	"iglesia"	"iglesia"	1	"key13"	NA
161	"iglesia"	"iglesia"	1	"key14"	NA
161	"iglesia"	"iglesia"	1	"key15"	NA
167	"caracol"	"caracol"	2	"key1"	1.3070194
167	"caracol"	"caracol"	2	"key2"	1.4036198
167	"caracol"	"caracol"	2	"key3"	1.5465525
167	"caracol"	"caracol"	2	"key4"	1.6105713
167	"caracol"	"caracol"	2	"key5"	1.8514503
167	"caracol"	"caracol"	2	"key6"	2.0586505
167	"caracol"	"caracol"	2	"key7"	2.2198019
167	"caracol"	"caracol"	2	"key8"	NA
167	"caracol"	"caracol"	2	"key9"	NA
167	"caracol"	"caracol"	2	"key10"	NA
167	"caracol"	"caracol"	2	"key11"	NA
167	"caracol"	"caracol"	2	"key12"	NA
167	"caracol"	"caracol"	2	"key13"	NA
167	"caracol"	"caracol"	2	"key14"	NA
167	"caracol"	"caracol"	2	"key15"	NA
171	"cartero"	"cartero"	1	"key1"	0.9141953
171	"cartero"	"cartero"	1	"key2"	0.994184
171	"cartero"	"cartero"	1	"key3"	1.218229
171	"cartero"	"cartero"	1	"key4"	1.3941887
171	"cartero"	"cartero"	1	"key5"	1.5221874
171	"cartero"	"cartero"	1	"key6"	1.6822078
171	"cartero"	"cartero"	1	"key7"	1.8581794
171	"cartero"	"cartero"	1	"key8"	NA
171	"cartero"	"cartero"	1	"key9"	NA
171	"cartero"	"cartero"	1	"key10"	NA
171	"cartero"	"cartero"	1	"key11"	NA
171	"cartero"	"cartero"	1	"key12"	NA
171	"cartero"	"cartero"	1	"key13"	NA
171	"cartero"	"cartero"	1	"key14"	NA
171	"cartero"	"cartero"	1	"key15"	NA
173	"tronco"	"tronco"	1	"key1"	1.3063198
173	"tronco"	"tronco"	1	"key2"	1.4983003
173	"tronco"	"tronco"	1	"key3"	1.7867179
173	"tronco"	"tronco"	1	"key4"	2.0103427
173	"tronco"	"tronco"	1	"key5"	2.2345826
173	"tronco"	"tronco"	1	"key6"	2.3465483
173	"tronco"	"tronco"	1	"key7"	NA
173	"tronco"	"tronco"	1	"key8"	NA
173	"tronco"	"tronco"	1	"key9"	NA
173	"tronco"	"tronco"	1	"key10"	NA
173	"tronco"	"tronco"	1	"key11"	NA
173	"tronco"	"tronco"	1	"key12"	NA
173	"tronco"	"tronco"	1	"key13"	NA
173	"tronco"	"tronco"	1	"key14"	NA
173	"tronco"	"tronco"	1	"key15"	NA
174	"oreja"	"oreja"	1	"key1"	1.089023
174	"oreja"	"oreja"	1	"key2"	1.6179565
174	"oreja"	"oreja"	1	"key3"	1.77791
174	"oreja"	"oreja"	1	"key4"	1.9699573
174	"oreja"	"oreja"	1	"key5"	2.0819434
174	"oreja"	"oreja"	1	"key6"	NA
174	"oreja"	"oreja"	1	"key7"	NA
174	"oreja"	"oreja"	1	"key8"	NA
174	"oreja"	"oreja"	1	"key9"	NA
174	"oreja"	"oreja"	1	"key10"	NA
174	"oreja"	"oreja"	1	"key11"	NA
174	"oreja"	"oreja"	1	"key12"	NA
174	"oreja"	"oreja"	1	"key13"	NA
174	"oreja"	"oreja"	1	"key14"	NA
174	"oreja"	"oreja"	1	"key15"	NA
175	"oreja"	"oreja"	2	"key1"	0.8952504
175	"oreja"	"oreja"	2	"key2"	1.1030168
175	"oreja"	"oreja"	2	"key3"	1.2630531
175	"oreja"	"oreja"	2	"key4"	1.4391387
175	"oreja"	"oreja"	2	"key5"	1.535992
175	"oreja"	"oreja"	2	"key6"	NA
175	"oreja"	"oreja"	2	"key7"	NA
175	"oreja"	"oreja"	2	"key8"	NA
175	"oreja"	"oreja"	2	"key9"	NA
175	"oreja"	"oreja"	2	"key10"	NA
175	"oreja"	"oreja"	2	"key11"	NA
175	"oreja"	"oreja"	2	"key12"	NA
175	"oreja"	"oreja"	2	"key13"	NA
175	"oreja"	"oreja"	2	"key14"	NA
175	"oreja"	"oreja"	2	"key15"	NA
177	"miel"	"miel"	1	"key1"	1.3104071
177	"miel"	"miel"	1	"key2"	1.5183623
177	"miel"	"miel"	1	"key3"	1.6143914
177	"miel"	"miel"	1	"key4"	1.7265326
177	"miel"	"miel"	1	"key5"	NA
177	"miel"	"miel"	1	"key6"	NA
177	"miel"	"miel"	1	"key7"	NA
177	"miel"	"miel"	1	"key8"	NA
177	"miel"	"miel"	1	"key9"	NA
177	"miel"	"miel"	1	"key10"	NA
177	"miel"	"miel"	1	"key11"	NA
177	"miel"	"miel"	1	"key12"	NA
177	"miel"	"miel"	1	"key13"	NA
177	"miel"	"miel"	1	"key14"	NA
177	"miel"	"miel"	1	"key15"	NA
178	"miel"	"miel"	2	"key1"	0.8372892
178	"miel"	"miel"	2	"key2"	1.0292736
178	"miel"	"miel"	2	"key3"	1.1732422
178	"miel"	"miel"	2	"key4"	1.2372396
178	"miel"	"miel"	2	"key5"	NA
178	"miel"	"miel"	2	"key6"	NA
178	"miel"	"miel"	2	"key7"	NA
178	"miel"	"miel"	2	"key8"	NA
178	"miel"	"miel"	2	"key9"	NA
178	"miel"	"miel"	2	"key10"	NA
178	"miel"	"miel"	2	"key11"	NA
178	"miel"	"miel"	2	"key12"	NA
178	"miel"	"miel"	2	"key13"	NA
178	"miel"	"miel"	2	"key14"	NA
178	"miel"	"miel"	2	"key15"	NA
179	"mano"	"mano"	3	"key1"	0.9464976
179	"mano"	"mano"	3	"key2"	1.0425088
179	"mano"	"mano"	3	"key3"	1.1864669
179	"mano"	"mano"	3	"key4"	1.4102998
179	"mano"	"mano"	3	"key5"	NA
179	"mano"	"mano"	3	"key6"	NA
179	"mano"	"mano"	3	"key7"	NA
179	"mano"	"mano"	3	"key8"	NA
179	"mano"	"mano"	3	"key9"	NA
179	"mano"	"mano"	3	"key10"	NA
179	"mano"	"mano"	3	"key11"	NA
179	"mano"	"mano"	3	"key12"	NA
179	"mano"	"mano"	3	"key13"	NA
179	"mano"	"mano"	3	"key14"	NA
179	"mano"	"mano"	3	"key15"	NA
181	"pierna"	"pierna"	2	"key1"	1.3805174
181	"pierna"	"pierna"	2	"key2"	1.605014
181	"pierna"	"pierna"	2	"key3"	1.7487398
181	"pierna"	"pierna"	2	"key4"	1.9243953
181	"pierna"	"pierna"	2	"key5"	2.1483779
181	"pierna"	"pierna"	2	"key6"	2.2283481
181	"pierna"	"pierna"	2	"key7"	NA
181	"pierna"	"pierna"	2	"key8"	NA
181	"pierna"	"pierna"	2	"key9"	NA
181	"pierna"	"pierna"	2	"key10"	NA
181	"pierna"	"pierna"	2	"key11"	NA
181	"pierna"	"pierna"	2	"key12"	NA
181	"pierna"	"pierna"	2	"key13"	NA
181	"pierna"	"pierna"	2	"key14"	NA
181	"pierna"	"pierna"	2	"key15"	NA
182	"pierna"	"pierna"	3	"key1"	0.9121085
182	"pierna"	"pierna"	3	"key2"	1.1521069
182	"pierna"	"pierna"	3	"key3"	1.359928
182	"pierna"	"pierna"	3	"key4"	1.5198391
182	"pierna"	"pierna"	3	"key5"	1.679833
182	"pierna"	"pierna"	3	"key6"	1.8084756
182	"pierna"	"pierna"	3	"key7"	NA
182	"pierna"	"pierna"	3	"key8"	NA
182	"pierna"	"pierna"	3	"key9"	NA
182	"pierna"	"pierna"	3	"key10"	NA
182	"pierna"	"pierna"	3	"key11"	NA
182	"pierna"	"pierna"	3	"key12"	NA
182	"pierna"	"pierna"	3	"key13"	NA
182	"pierna"	"pierna"	3	"key14"	NA
182	"pierna"	"pierna"	3	"key15"	NA
183	"pulpo"	"pulpo"	1	"key1"	1.6351534
183	"pulpo"	"pulpo"	1	"key2"	1.8431477
183	"pulpo"	"pulpo"	1	"key3"	2.0502996
183	"pulpo"	"pulpo"	1	"key4"	2.4501942
183	"pulpo"	"pulpo"	1	"key5"	2.6115849
183	"pulpo"	"pulpo"	1	"key6"	NA
183	"pulpo"	"pulpo"	1	"key7"	NA
183	"pulpo"	"pulpo"	1	"key8"	NA
183	"pulpo"	"pulpo"	1	"key9"	NA
183	"pulpo"	"pulpo"	1	"key10"	NA
183	"pulpo"	"pulpo"	1	"key11"	NA
183	"pulpo"	"pulpo"	1	"key12"	NA
183	"pulpo"	"pulpo"	1	"key13"	NA
183	"pulpo"	"pulpo"	1	"key14"	NA
183	"pulpo"	"pulpo"	1	"key15"	NA
185	"aguja"	"aguja"	2	"key1"	1.4578645
185	"aguja"	"aguja"	2	"key2"	1.8260464
185	"aguja"	"aguja"	2	"key3"	1.9700745
185	"aguja"	"aguja"	2	"key4"	2.1300729
185	"aguja"	"aguja"	2	"key5"	2.1778355
185	"aguja"	"aguja"	2	"key6"	NA
185	"aguja"	"aguja"	2	"key7"	NA
185	"aguja"	"aguja"	2	"key8"	NA
185	"aguja"	"aguja"	2	"key9"	NA
185	"aguja"	"aguja"	2	"key10"	NA
185	"aguja"	"aguja"	2	"key11"	NA
185	"aguja"	"aguja"	2	"key12"	NA
185	"aguja"	"aguja"	2	"key13"	NA
185	"aguja"	"aguja"	2	"key14"	NA
185	"aguja"	"aguja"	2	"key15"	NA
189	"bano"	"bano"	1	"key1"	0.9223057
189	"bano"	"bano"	1	"key2"	1.0336364
189	"bano"	"bano"	1	"key3"	1.5775834
189	"bano"	"bano"	1	"key4"	1.7695029
189	"bano"	"bano"	1	"key5"	NA
189	"bano"	"bano"	1	"key6"	NA
189	"bano"	"bano"	1	"key7"	NA
189	"bano"	"bano"	1	"key8"	NA
189	"bano"	"bano"	1	"key9"	NA
189	"bano"	"bano"	1	"key10"	NA
189	"bano"	"bano"	1	"key11"	NA
189	"bano"	"bano"	1	"key12"	NA
189	"bano"	"bano"	1	"key13"	NA
189	"bano"	"bano"	1	"key14"	NA
189	"bano"	"bano"	1	"key15"	NA
191	"bombero"	"bombero"	1	"key1"	1.2946842
191	"bombero"	"bombero"	1	"key2"	1.4866748
191	"bombero"	"bombero"	1	"key3"	1.6942677
191	"bombero"	"bombero"	1	"key4"	2.0942948
191	"bombero"	"bombero"	1	"key5"	2.2382962
191	"bombero"	"bombero"	1	"key6"	2.4302952
191	"bombero"	"bombero"	1	"key7"	2.5902585
191	"bombero"	"bombero"	1	"key8"	NA
191	"bombero"	"bombero"	1	"key9"	NA
191	"bombero"	"bombero"	1	"key10"	NA
191	"bombero"	"bombero"	1	"key11"	NA
191	"bombero"	"bombero"	1	"key12"	NA
191	"bombero"	"bombero"	1	"key13"	NA
191	"bombero"	"bombero"	1	"key14"	NA
191	"bombero"	"bombero"	1	"key15"	NA
197	"cartero"	"cartero"	2	"key1"	1.1753861
197	"cartero"	"cartero"	2	"key2"	1.2233794
197	"cartero"	"cartero"	2	"key3"	1.4796517
197	"cartero"	"cartero"	2	"key4"	1.6550547
197	"cartero"	"cartero"	2	"key5"	1.7517576
197	"cartero"	"cartero"	2	"key6"	1.9430036
197	"cartero"	"cartero"	2	"key7"	2.1832511
197	"cartero"	"cartero"	2	"key8"	NA
197	"cartero"	"cartero"	2	"key9"	NA
197	"cartero"	"cartero"	2	"key10"	NA
197	"cartero"	"cartero"	2	"key11"	NA
197	"cartero"	"cartero"	2	"key12"	NA
197	"cartero"	"cartero"	2	"key13"	NA
197	"cartero"	"cartero"	2	"key14"	NA
197	"cartero"	"cartero"	2	"key15"	NA
200	"regalo"	"regalo"	1	"key1"	0.6184173
200	"regalo"	"regalo"	1	"key2"	0.7780013
200	"regalo"	"regalo"	1	"key3"	1.0019929
200	"regalo"	"regalo"	1	"key4"	1.1299905
200	"regalo"	"regalo"	1	"key5"	1.321983
200	"regalo"	"regalo"	1	"key6"	1.4979808
200	"regalo"	"regalo"	1	"key7"	NA
200	"regalo"	"regalo"	1	"key8"	NA
200	"regalo"	"regalo"	1	"key9"	NA
200	"regalo"	"regalo"	1	"key10"	NA
200	"regalo"	"regalo"	1	"key11"	NA
200	"regalo"	"regalo"	1	"key12"	NA
200	"regalo"	"regalo"	1	"key13"	NA
200	"regalo"	"regalo"	1	"key14"	NA
200	"regalo"	"regalo"	1	"key15"	NA
201	"camisa"	"camisa"	2	"key1"	1.1178083
201	"camisa"	"camisa"	2	"key2"	1.2142208
201	"camisa"	"camisa"	2	"key3"	1.5024766
201	"camisa"	"camisa"	2	"key4"	1.7100102
201	"camisa"	"camisa"	2	"key5"	1.7740109
201	"camisa"	"camisa"	2	"key6"	1.9340696
201	"camisa"	"camisa"	2	"key7"	NA
201	"camisa"	"camisa"	2	"key8"	NA
201	"camisa"	"camisa"	2	"key9"	NA
201	"camisa"	"camisa"	2	"key10"	NA
201	"camisa"	"camisa"	2	"key11"	NA
201	"camisa"	"camisa"	2	"key12"	NA
201	"camisa"	"camisa"	2	"key13"	NA
201	"camisa"	"camisa"	2	"key14"	NA
201	"camisa"	"camisa"	2	"key15"	NA
202	"camisa"	"camisa"	3	"key1"	0.8560001
202	"camisa"	"camisa"	3	"key2"	0.9199979
202	"camisa"	"camisa"	3	"key3"	1.2400056
202	"camisa"	"camisa"	3	"key4"	1.4319954
202	"camisa"	"camisa"	3	"key5"	1.5278866
202	"camisa"	"camisa"	3	"key6"	1.6718579
202	"camisa"	"camisa"	3	"key7"	NA
202	"camisa"	"camisa"	3	"key8"	NA
202	"camisa"	"camisa"	3	"key9"	NA
202	"camisa"	"camisa"	3	"key10"	NA
202	"camisa"	"camisa"	3	"key11"	NA
202	"camisa"	"camisa"	3	"key12"	NA
202	"camisa"	"camisa"	3	"key13"	NA
202	"camisa"	"camisa"	3	"key14"	NA
202	"camisa"	"camisa"	3	"key15"	NA
