image;correctAns;respModal;frameColor;repSwitch;sequence;target;set;block;list;exp_version;stimulus;baseline;baseline_condition;trial_no;psychopy_trial;Column1;trialsREPSWITCH.thisRepN;trialsREPSWITCH.thisTrialN;trialsREPSWITCH.thisN;trialsREPSWITCH.thisIndex;textWelcome.started;textboxInstrMain1.started;textboxInstrMain1_2.started;textboxInstrMain1_3.started;keyInstrMain.started;keyInstrMain.keys;keyInstrMain.rt;textboxInstrMain2.started;textboxInstrMain2_2.started;textboxInstrMain2_3.started;textboxInstrMain2_4.started;textboxInstrMain2_5.started;textboxInstrMain2_6.started;textboxInstrMain2_7.started;textboxInstrMain2_8.started;textboxInstrMain2_9.started;textboxInstrMain2_10.started;textboxInstrMain2_11.started;textboxInstrMain2_12.started;keyInstrMain2.started;keyInstrMain2.keys;keyInstrMain2.rt;fixationITI.started;fixationITI.stopped;polygonColour.started;polygonWhite.started;imageObject.started;polygonType.started;textInput.started;keyResp.started;micRespv1l1.started;keyResp.keys;keyResp.corr;keyResp.rt;subjResponse;micRespv1l1.clip;textBlankLoop.started;textBlankLoop.stopped;keyPause.keys;polygonColour.stopped;polygonWhite.stopped;imageObject.stopped;polygonType.stopped;textInput.stopped;keyResp.stopped;textboxPause.started;keyPause.started;keyPause.rt;textboxGoodbye.started;textboxGoodbye.stopped;participant;session;date;expName;psychopyVersion;frameRate;Column2
;;;;;;;;;;;;;;;;;;;;;9.9303111;12.4248729;12.4248729;12.4248729;12.4248729;space;5.0352334;;;;;;;;;;;;;;;;;;;;;;;;;;;;;;;;;;;;;;;;;;;;170101;1;2023-11-30_09h21.36.102;REPSWITCH1_version1_list1;2022.2.4;143.9457843;
;;;;;;;;;;;;;;;;;;;;;;;;;;;;17.4741548;17.4741548;17.4741548;17.4741548;17.4741548;17.4741548;17.4741548;17.4741548;17.4741548;17.4741548;17.4741548;17.4741548;17.4741548;space;2.2534689;;;;;;;;;;;;;;;;;;;;;;;;;;;;;170101;1;2023-11-30_09h21.36.102;REPSWITCH1_version1_list1;2022.2.4;143.9457843;
REPSWITCH1/PICTURE_340.png;espejo;type;darkblue;filler;1;F;1;1;1;1;Extra1;0;None;1;0;1;0;0;0;0;;;;;;;;;;;;;;;;;;;;;;;19.8217008;20.9121549;20.9121549;20.9121549;20.9121549;20.9121549;20.9121549;20.9121549;20.9121549;['e', 's', 'p', 'e', 'j', 'o'];0;[1.1975755000021309, 1.3440787999425083, 1.4460128000937402, 1.5237493000458926, 1.6842168001458049, 1.8758597001433372];espejo;C:\2023\REPSWITCH21092023\REPSWITCH_excgange\REPSWITCH_excgange\data/170101_REPSWITCH1_version1_list1_2023-11-30_09h21.36.102_micRespv1l1_recorded\recording_micRespv1l1_2023-11-30_09h21.51.867.wav;23.9333545;24.4334031;None;;;;;;;;;;;;170101;1;2023-11-30_09h21.36.102;REPSWITCH1_version1_list1;2022.2.4;143.9457843;
REPSWITCH1/PICTURE_391.png;cadena;speak;gold;filler;2;F;1;1;1;1;Extra2;0;None;2;1;2;0;1;1;1;;;;;;;;;;;;;;;;;;;;;;;24.4334031;25.558541;25.558541;25.558541;25.558541;25.558541;25.558541;25.558541;25.558541;None;0;;;C:\2023\REPSWITCH21092023\REPSWITCH_excgange\REPSWITCH_excgange\data/170101_REPSWITCH1_version1_list1_2023-11-30_09h21.36.102_micRespv1l1_recorded\recording_micRespv1l1_2023-11-30_09h21.56.518.wav;28.5867999;;None;28.5867999;28.5867999;28.5867999;28.5867999;28.5867999;28.5867999;;;;;;170101;1;2023-11-30_09h21.36.102;REPSWITCH1_version1_list1;2022.2.4;143.9457843;
REPSWITCH1/PICTURE_178.png;puente;speak;gold;nontarget;2;NT;1;1;1;1;Stim1_Set1;1;repeat;3;2;3;0;2;2;2;;;;;;;;;;;;;;;;;;;;;;;29.0868075;30.1980751;30.1980751;30.1980751;30.1980751;30.1980751;30.1980751;30.1980751;30.1980751;None;0;;;C:\2023\REPSWITCH21092023\REPSWITCH_excgange\REPSWITCH_excgange\data/170101_REPSWITCH1_version1_list1_2023-11-30_09h21.36.102_micRespv1l1_recorded\recording_micRespv1l1_2023-11-30_09h22.01.157.wav;33.2192662;33.7193402;None;33.2192662;33.2192662;33.2192662;33.2192662;33.2192662;33.2192662;;;;;;170101;1;2023-11-30_09h21.36.102;REPSWITCH1_version1_list1;2022.2.4;143.9457843;
REPSWITCH1/PICTURE_178.png;puente;speak;gold;repeat;2;T;1;1;1;1;Stim1_Set1;0;None;4;3;4;0;3;3;3;;;;;;;;;;;;;;;;;;;;;;;33.7193402;34.7750491;34.7750491;34.7750491;34.7750491;34.7750491;34.7750491;34.7750491;34.7750491;None;0;;;C:\2023\REPSWITCH21092023\REPSWITCH_excgange\REPSWITCH_excgange\data/170101_REPSWITCH1_version1_list1_2023-11-30_09h21.36.102_micRespv1l1_recorded\recording_micRespv1l1_2023-11-30_09h22.05.734.wav;37.7962427;38.2963594;None;37.7962427;37.7962427;37.7962427;37.7962427;37.7962427;37.7962427;;;;;;170101;1;2023-11-30_09h21.36.102;REPSWITCH1_version1_list1;2022.2.4;143.9457843;
REPSWITCH1/PICTURE_319.png;vaca;type;darkblue;filler;1;F;1;1;1;1;Stim1_Set4;0;None;5;4;5;0;4;4;4;;;;;;;;;;;;;;;;;;;;;;;38.2963594;39.3451697;39.3451697;39.3451697;39.3451697;39.3451697;39.3451697;39.3451697;39.3451697;['v', 'a', 'c', 'a'];0;[1.1957188001833856, 1.288437700131908, 1.3824782001320273, 1.4572547001298517];vaca;C:\2023\REPSWITCH21092023\REPSWITCH_excgange\REPSWITCH_excgange\data/170101_REPSWITCH1_version1_list1_2023-11-30_09h21.36.102_micRespv1l1_recorded\recording_micRespv1l1_2023-11-30_09h22.10.305.wav;42.3662882;42.866389;None;42.3662882;42.3662882;42.3662882;42.3662882;42.3662882;42.3662882;;;;;;170101;1;2023-11-30_09h21.36.102;REPSWITCH1_version1_list1;2022.2.4;143.9457843;
REPSWITCH1/PICTURE_381.png;fresa;speak;gold;nontarget;2;NT;1;1;1;1;Stim2_Set1;1;switch;6;5;6;0;5;5;5;;;;;;;;;;;;;;;;;;;;;;;42.866389;43.9220871;43.9220871;43.9220871;43.9220871;43.9220871;43.9220871;43.9220871;43.9220871;None;0;;;C:\2023\REPSWITCH21092023\REPSWITCH_excgange\REPSWITCH_excgange\data/170101_REPSWITCH1_version1_list1_2023-11-30_09h21.36.102_micRespv1l1_recorded\recording_micRespv1l1_2023-11-30_09h22.14.881.wav;46.9432711;47.4433626;None;46.9432711;46.9432711;46.9432711;46.9432711;46.9432711;46.9432711;;;;;;170101;1;2023-11-30_09h21.36.102;REPSWITCH1_version1_list1;2022.2.4;143.9457843;
REPSWITCH1/PICTURE_381.png;fresa;speak;gold;repeat;2;T;1;1;1;1;Stim2_Set1;0;None;7;6;7;0;6;6;6;;;;;;;;;;;;;;;;;;;;;;;47.4433626;48.5477627;48.5477627;48.5477627;48.5477627;48.5477627;48.5477627;48.5477627;48.5477627;None;0;;;C:\2023\REPSWITCH21092023\REPSWITCH_excgange\REPSWITCH_excgange\data/170101_REPSWITCH1_version1_list1_2023-11-30_09h21.36.102_micRespv1l1_recorded\recording_micRespv1l1_2023-11-30_09h22.19.506.wav;51.5688954;52.0689421;None;51.5688954;51.5688954;51.5688954;51.5688954;51.5688954;51.5688954;;;;;;170101;1;2023-11-30_09h21.36.102;REPSWITCH1_version1_list1;2022.2.4;143.9457843;
REPSWITCH1/PICTURE_719.png;baño;type;darkblue;filler;1;F;1;1;1;1;Stim2_Set4;1;switch;8;7;8;0;7;7;7;;;;;;;;;;;;;;;;;;;;;;;52.0689421;53.1871852;53.1871852;53.1871852;53.1871852;53.1871852;53.1871852;53.1871852;53.1871852;['b', 'a', 'ñ', 'o'];0;[0.9488587998785079, 1.0717582998331636, 1.4280276999343187, 1.5901885000057518];baño;C:\2023\REPSWITCH21092023\REPSWITCH_excgange\REPSWITCH_excgange\data/170101_REPSWITCH1_version1_list1_2023-11-30_09h21.36.102_micRespv1l1_recorded\recording_micRespv1l1_2023-11-30_09h22.24.147.wav;56.2153654;;None;56.2153654;56.2153654;56.2153654;56.2153654;56.2153654;56.2153654;;;;;;170101;1;2023-11-30_09h21.36.102;REPSWITCH1_version1_list1;2022.2.4;143.9457843;
REPSWITCH1/PICTURE_135.png;traje;speak;gold;nontarget;2;NT;1;1;1;1;Stim3_Set1;0;None;9;8;9;0;8;8;8;;;;;;;;;;;;;;;;;;;;;;;56.7154116;57.7641497;57.7641497;57.7641497;57.7641497;57.7641497;57.7641497;57.7641497;57.7641497;None;0;;;C:\2023\REPSWITCH21092023\REPSWITCH_excgange\REPSWITCH_excgange\data/170101_REPSWITCH1_version1_list1_2023-11-30_09h21.36.102_micRespv1l1_recorded\recording_micRespv1l1_2023-11-30_09h22.28.723.wav;60.7854124;61.2854687;None;60.7854124;60.7854124;60.7854124;60.7854124;60.7854124;60.7854124;;;;;;170101;1;2023-11-30_09h21.36.102;REPSWITCH1_version1_list1;2022.2.4;143.9457843;
REPSWITCH1/PICTURE_135.png;traje;type;darkblue;switch;1;T;1;1;1;1;Stim3_Set1;0;None;10;9;10;0;9;9;9;;;;;;;;;;;;;;;;;;;;;;;61.2854687;62.3550485;62.3550485;62.3550485;62.3550485;62.3550485;62.3550485;62.3550485;62.3550485;['t', 'r', 'a', 'j', 'e'];0;[1.0215832001995295, 1.2328342001419514, 1.3381768001709133, 1.6433910999912769, 1.7211075001396239];traje;C:\2023\REPSWITCH21092023\REPSWITCH_excgange\REPSWITCH_excgange\data/170101_REPSWITCH1_version1_list1_2023-11-30_09h21.36.102_micRespv1l1_recorded\recording_micRespv1l1_2023-11-30_09h22.33.314.wav;65.3762865;65.876336;None;65.3762865;65.3762865;65.3762865;65.3762865;65.3762865;65.3762865;;;;;;170101;1;2023-11-30_09h21.36.102;REPSWITCH1_version1_list1;2022.2.4;143.9457843;
REPSWITCH1/PICTURE_687.png;camisa;speak;gold;filler;2;F;1;1;1;1;Stim5_Set4;0;None;11;10;11;0;10;10;10;;;;;;;;;;;;;;;;;;;;;;;65.876336;66.9946142;66.9946142;66.9946142;66.9946142;66.9946142;66.9946142;66.9946142;66.9946142;None;0;;;C:\2023\REPSWITCH21092023\REPSWITCH_excgange\REPSWITCH_excgange\data/170101_REPSWITCH1_version1_list1_2023-11-30_09h21.36.102_micRespv1l1_recorded\recording_micRespv1l1_2023-11-30_09h22.37.954.wav;70.0227174;;None;70.0227174;70.0227174;70.0227174;70.0227174;70.0227174;70.0227174;;;;;;170101;1;2023-11-30_09h21.36.102;REPSWITCH1_version1_list1;2022.2.4;143.9457843;
REPSWITCH1/PICTURE_128.png;muñeca;type;darkblue;nontarget;1;NT;1;1;1;1;Stim4_Set1;1;switch;12;11;12;0;11;11;11;;;;;;;;;;;;;;;;;;;;;;;70.5227893;71.6549628;71.6549628;71.6549628;71.6549628;71.6549628;71.6549628;71.6549628;71.6549628;['m', 'u', 'ñ', 'e', 'c', 'a'];0;[1.07643590006046, 1.2575654000975192, 1.523707800079137, 1.6044115000404418, 1.8828789999242872, 2.0485159000381827];muñeca;C:\2023\REPSWITCH21092023\REPSWITCH_excgange\REPSWITCH_excgange\data/170101_REPSWITCH1_version1_list1_2023-11-30_09h21.36.102_micRespv1l1_recorded\recording_micRespv1l1_2023-11-30_09h22.42.614.wav;74.6761495;75.1761918;None;74.6761495;74.6761495;74.6761495;74.6761495;74.6761495;74.6761495;;;;;;170101;1;2023-11-30_09h21.36.102;REPSWITCH1_version1_list1;2022.2.4;143.9457843;
REPSWITCH1/PICTURE_128.png;muñeca;speak;gold;switch;2;T;1;1;1;1;Stim4_Set1;0;None;13;12;13;0;12;12;12;;;;;;;;;;;;;;;;;;;;;;;75.1761918;76.2180159;76.2180159;76.2180159;76.2180159;76.2180159;76.2180159;76.2180159;76.2180159;None;0;;;C:\2023\REPSWITCH21092023\REPSWITCH_excgange\REPSWITCH_excgange\data/170101_REPSWITCH1_version1_list1_2023-11-30_09h21.36.102_micRespv1l1_recorded\recording_micRespv1l1_2023-11-30_09h22.47.177.wav;79.2461557;;None;79.2461557;79.2461557;79.2461557;79.2461557;79.2461557;79.2461557;;;;;;170101;1;2023-11-30_09h21.36.102;REPSWITCH1_version1_list1;2022.2.4;143.9457843;
REPSWITCH1/PICTURE_8.png;pierna;speak;gold;filler;2;F;1;1;1;1;Stim3_Set4;0;None;14;13;14;0;13;13;13;;;;;;;;;;;;;;;;;;;;;;;79.7462088;80.8297631;80.8297631;80.8297631;80.8297631;80.8297631;80.8297631;80.8297631;80.8297631;None;0;;;C:\2023\REPSWITCH21092023\REPSWITCH_excgange\REPSWITCH_excgange\data/170101_REPSWITCH1_version1_list1_2023-11-30_09h21.36.102_micRespv1l1_recorded\recording_micRespv1l1_2023-11-30_09h22.51.789.wav;83.8509638;84.3509704;None;83.8509638;83.8509638;83.8509638;83.8509638;83.8509638;83.8509638;;;;;;170101;1;2023-11-30_09h21.36.102;REPSWITCH1_version1_list1;2022.2.4;143.9457843;
REPSWITCH1/PICTURE_19.png;pavo;speak;gold;nontarget;2;NT;1;1;1;1;Stim5_Set1;0;None;15;14;15;0;14;14;14;;;;;;;;;;;;;;;;;;;;;;;84.3509704;85.4414779;85.4414779;85.4414779;85.4414779;85.4414779;85.4414779;85.4414779;85.4414779;None;0;;;C:\2023\REPSWITCH21092023\REPSWITCH_excgange\REPSWITCH_excgange\data/170101_REPSWITCH1_version1_list1_2023-11-30_09h21.36.102_micRespv1l1_recorded\recording_micRespv1l1_2023-11-30_09h22.56.401.wav;88.4695931;;None;88.4695931;88.4695931;88.4695931;88.4695931;88.4695931;88.4695931;;;;;;170101;1;2023-11-30_09h21.36.102;REPSWITCH1_version1_list1;2022.2.4;143.9457843;
REPSWITCH1/PICTURE_19.png;pavo;type;darkblue;switch;1;T;1;1;1;1;Stim5_Set1;0;None;16;15;16;0;15;15;15;;;;;;;;;;;;;;;;;;;;;;;88.9697154;90.0600827;90.0600827;90.0600827;90.0600827;90.0600827;90.0600827;90.0600827;90.0600827;['p', 'a', 'v', 'o'];0;[0.8849018001928926, 1.0346888001076877, 1.216836100211367, 1.2949157000984997];pavo;C:\2023\REPSWITCH21092023\REPSWITCH_excgange\REPSWITCH_excgange\data/170101_REPSWITCH1_version1_list1_2023-11-30_09h21.36.102_micRespv1l1_recorded\recording_micRespv1l1_2023-11-30_09h23.01.019.wav;93.0812661;93.5814323;None;93.0812661;93.0812661;93.0812661;93.0812661;93.0812661;93.0812661;;;;;;170101;1;2023-11-30_09h21.36.102;REPSWITCH1_version1_list1;2022.2.4;143.9457843;
REPSWITCH1/PICTURE_16.png;cazador;type;darkblue;nontarget;1;NT;1;1;1;1;Stim6_Set1;1;switch;17;16;17;0;16;16;16;;;;;;;;;;;;;;;;;;;;;;;93.5814323;94.6787571;94.6787571;94.6787571;94.6787571;94.6787571;94.6787571;94.6787571;94.6787571;['c', 'a', 'z', 'a', 'd', 'o', 'r'];0;[1.2796982999425381, 1.4830787000246346, 1.6379622998647392, 1.7914435998536646, 1.961044899886474, 2.105859400006011, 2.1786118999589235];cazador;C:\2023\REPSWITCH21092023\REPSWITCH_excgange\REPSWITCH_excgange\data/170101_REPSWITCH1_version1_list1_2023-11-30_09h21.36.102_micRespv1l1_recorded\recording_micRespv1l1_2023-11-30_09h23.05.639.wav;97.7069096;;None;97.7069096;97.7069096;97.7069096;97.7069096;97.7069096;97.7069096;;;;;;170101;1;2023-11-30_09h21.36.102;REPSWITCH1_version1_list1;2022.2.4;143.9457843;
REPSWITCH1/PICTURE_16.png;cazador;type;darkblue;repeat;1;T;1;1;1;1;Stim6_Set1;0;None;18;17;18;0;17;17;17;;;;;;;;;;;;;;;;;;;;;;;98.2069729;99.3668583;99.3668583;99.3668583;99.3668583;99.3668583;99.3668583;99.3668583;99.3668583;['c', 'a', 'z', 'a', 'd', 'o', 'r'];0;[1.0747266998514533, 1.1574456000234932, 1.3291994000319391, 1.4807781998533756, 1.656076499959454, 1.8125106999650598, 1.89859539992176];cazador;C:\2023\REPSWITCH21092023\REPSWITCH_excgange\REPSWITCH_excgange\data/170101_REPSWITCH1_version1_list1_2023-11-30_09h21.36.102_micRespv1l1_recorded\recording_micRespv1l1_2023-11-30_09h23.10.326.wav;102.4019367;;None;102.4019367;102.4019367;102.4019367;102.4019367;102.4019367;102.4019367;;;;;;170101;1;2023-11-30_09h21.36.102;REPSWITCH1_version1_list1;2022.2.4;143.9457843;
REPSWITCH1/PICTURE_498.png;taza;speak;gold;filler;2;F;1;1;1;1;Stim4_Set4;0;None;19;18;19;0;18;18;18;;;;;;;;;;;;;;;;;;;;;;;102.9020829;104.0549508;104.0549508;104.0549508;104.0549508;104.0549508;104.0549508;104.0549508;104.0549508;None;0;;;C:\2023\REPSWITCH21092023\REPSWITCH_excgange\REPSWITCH_excgange\data/170101_REPSWITCH1_version1_list1_2023-11-30_09h21.36.102_micRespv1l1_recorded\recording_micRespv1l1_2023-11-30_09h23.15.015.wav;107.0831421;;None;107.0831421;107.0831421;107.0831421;107.0831421;107.0831421;107.0831421;;;;;;170101;1;2023-11-30_09h21.36.102;REPSWITCH1_version1_list1;2022.2.4;143.9457843;
REPSWITCH1/PICTURE_48.png;bombero;type;darkblue;filler;1;F;1;1;1;1;Stim7_Set4;0;None;20;19;20;0;19;19;19;;;;;;;;;;;;;;;;;;;;;;;107.583208;108.6944746;108.6944746;108.6944746;108.6944746;108.6944746;108.6944746;108.6944746;108.6944746;['b', 'o', 'm', 'b', 'e', 'r', 'o'];0;[1.2289362999144942, 1.3744441999588162, 1.5538564999587834, 1.6814234999474138, 1.8879690999165177, 2.0265035000629723, 2.10623969999142];bombero;C:\2023\REPSWITCH21092023\REPSWITCH_excgange\REPSWITCH_excgange\data/170101_REPSWITCH1_version1_list1_2023-11-30_09h21.36.102_micRespv1l1_recorded\recording_micRespv1l1_2023-11-30_09h23.19.653.wav;111.7157034;112.2157183;None;111.7157034;111.7157034;111.7157034;111.7157034;111.7157034;111.7157034;;;;;;170101;1;2023-11-30_09h21.36.102;REPSWITCH1_version1_list1;2022.2.4;143.9457843;
REPSWITCH1/PICTURE_142.png;vaso;type;darkblue;nontarget;1;NT;1;1;1;1;Stim7_Set1;1;repeat;21;20;21;0;20;20;20;;;;;;;;;;;;;;;;;;;;;;;112.2157183;113.382561;113.382561;113.382561;113.382561;113.382561;113.382561;113.382561;113.382561;['v', 'a', 's', 'o'];0;[1.058108099969104, 1.1478017999324948, 1.2753659000154585, 1.4547766998875886];vaso;C:\2023\REPSWITCH21092023\REPSWITCH_excgange\REPSWITCH_excgange\data/170101_REPSWITCH1_version1_list1_2023-11-30_09h21.36.102_micRespv1l1_recorded\recording_micRespv1l1_2023-11-30_09h23.24.342.wav;116.4037705;116.9038492;None;116.4037705;116.4037705;116.4037705;116.4037705;116.4037705;116.4037705;;;;;;170101;1;2023-11-30_09h21.36.102;REPSWITCH1_version1_list1;2022.2.4;143.9457843;
REPSWITCH1/PICTURE_142.png;vaso;type;darkblue;repeat;1;T;1;1;1;1;Stim7_Set1;0;None;22;21;22;0;21;21;21;;;;;;;;;;;;;;;;;;;;;;;116.9038492;118.0706724;118.0706724;118.0706724;118.0706724;118.0706724;118.0706724;118.0706724;118.0706724;['v', 'a', 's', 'o'];0;[0.849408800015226, 0.9590437998995185, 1.100146999815479, 1.3671789998188615];vaso;C:\2023\REPSWITCH21092023\REPSWITCH_excgange\REPSWITCH_excgange\data/170101_REPSWITCH1_version1_list1_2023-11-30_09h21.36.102_micRespv1l1_recorded\recording_micRespv1l1_2023-11-30_09h23.29.030.wav;121.091942;121.5919598;None;121.091942;121.091942;121.091942;121.091942;121.091942;121.091942;;;;;;170101;1;2023-11-30_09h21.36.102;REPSWITCH1_version1_list1;2022.2.4;143.9457843;
REPSWITCH1/PICTURE_338.png;regalo;speak;gold;filler;2;F;1;1;1;1;Stim6_Set4;1;switch;23;22;23;0;22;22;22;;;;;;;;;;;;;;;;;;;;;;;121.5919598;122.6754487;122.6754487;122.6754487;122.6754487;122.6754487;122.6754487;122.6754487;122.6754487;None;0;;;C:\2023\REPSWITCH21092023\REPSWITCH_excgange\REPSWITCH_excgange\data/170101_REPSWITCH1_version1_list1_2023-11-30_09h21.36.102_micRespv1l1_recorded\recording_micRespv1l1_2023-11-30_09h23.33.635.wav;125.7036303;;None;125.7036303;125.7036303;125.7036303;125.7036303;125.7036303;125.7036303;;;;;;170101;1;2023-11-30_09h21.36.102;REPSWITCH1_version1_list1;2022.2.4;143.9457843;
REPSWITCH1/PICTURE_728.png;pulpo;type;darkblue;filler;1;F;1;1;1;1;Stim8_Set4;1;switch;24;23;24;0;23;23;23;;;;;;;;;;;;;;;;;;;;;;;126.2036871;127.3080369;127.3080369;127.3080369;127.3080369;127.3080369;127.3080369;127.3080369;127.3080369;['p', 'u', 'l', 'p', 'o'];0;[1.0330590000376105, 1.2866805999074131, 1.5673906998708844, 1.7617242999840528, 1.8943014999385923];pulpo;C:\2023\REPSWITCH21092023\REPSWITCH_excgange\REPSWITCH_excgange\data/170101_REPSWITCH1_version1_list1_2023-11-30_09h21.36.102_micRespv1l1_recorded\recording_micRespv1l1_2023-11-30_09h23.38.267.wav;130.3292495;130.8293065;None;130.3292495;130.3292495;130.3292495;130.3292495;130.3292495;130.3292495;;;;;;170101;1;2023-11-30_09h21.36.102;REPSWITCH1_version1_list1;2022.2.4;143.9457843;
REPSWITCH1/PICTURE_169.png;espalda;type;darkblue;nontarget;1;NT;1;1;1;1;Stim8_Set1;1;repeat;25;24;25;0;24;24;24;;;;;;;;;;;;;;;;;;;;;;;130.8293065;131.9127814;131.9127814;131.9127814;131.9127814;131.9127814;131.9127814;131.9127814;131.9127814;['e', 's', 'p', 'a', 'l', 'd', 'a'];0;[0.9367395001463592, 1.085541700012982, 1.1602609001565725, 1.2620227001607418, 1.3657500001136214, 1.4640373999718577, 1.6553840001579374];espalda;C:\2023\REPSWITCH21092023\REPSWITCH_excgange\REPSWITCH_excgange\data/170101_REPSWITCH1_version1_list1_2023-11-30_09h21.36.102_micRespv1l1_recorded\recording_micRespv1l1_2023-11-30_09h23.42.872.wav;134.9409798;;None;134.9409798;134.9409798;134.9409798;134.9409798;134.9409798;134.9409798;;;;;;170101;1;2023-11-30_09h21.36.102;REPSWITCH1_version1_list1;2022.2.4;143.9457843;
REPSWITCH1/PICTURE_169.png;espalda;speak;gold;switch;2;T;1;1;1;1;Stim8_Set1;0;None;26;25;26;0;25;25;25;;;;;;;;;;;;;;;;;;;;;;;135.4409884;136.5384596;136.5384596;136.5384596;136.5384596;136.5384596;136.5384596;136.5384596;136.5384596;None;0;;;C:\2023\REPSWITCH21092023\REPSWITCH_excgange\REPSWITCH_excgange\data/170101_REPSWITCH1_version1_list1_2023-11-30_09h21.36.102_micRespv1l1_recorded\recording_micRespv1l1_2023-11-30_09h23.47.497.wav;139.5596836;140.0596827;None;139.5596836;139.5596836;139.5596836;139.5596836;139.5596836;139.5596836;;;;;;170101;1;2023-11-30_09h21.36.102;REPSWITCH1_version1_list1;2022.2.4;143.9457843;
REPSWITCH1/PICTURE_178.png;puente;speak;gold;filler;2;F;2;1;1;1;Stim1_Set1;0;None;27;26;27;0;26;26;26;;;;;;;;;;;;;;;;;;;;;;;140.0596827;141.1848964;141.1848964;141.1848964;141.1848964;141.1848964;141.1848964;141.1848964;141.1848964;None;0;;;C:\2023\REPSWITCH21092023\REPSWITCH_excgange\REPSWITCH_excgange\data/170101_REPSWITCH1_version1_list1_2023-11-30_09h21.36.102_micRespv1l1_recorded\recording_micRespv1l1_2023-11-30_09h23.52.144.wav;144.2129855;;None;144.2129855;144.2129855;144.2129855;144.2129855;144.2129855;144.2129855;;;;;;170101;1;2023-11-30_09h21.36.102;REPSWITCH1_version1_list1;2022.2.4;143.9457843;
REPSWITCH1/PICTURE_175.png;pintor;type;darkblue;nontarget;1;NT;2;1;1;1;Stim1_Set2;1;switch;28;27;28;0;27;27;27;;;;;;;;;;;;;;;;;;;;;;;144.7130723;145.8868652;145.8868652;145.8868652;145.8868652;145.8868652;145.8868652;145.8868652;145.8868652;['p', 'i', 'n', 't', 'o', 'r'];0;[0.8876608000136912, 1.1119258999824524, 1.2783117999788374, 1.385948000010103, 1.528518300037831, 1.5987433001864702];pintor;C:\2023\REPSWITCH21092023\REPSWITCH_excgange\REPSWITCH_excgange\data/170101_REPSWITCH1_version1_list1_2023-11-30_09h21.36.102_micRespv1l1_recorded\recording_micRespv1l1_2023-11-30_09h23.56.846.wav;148.9150785;;None;148.9150785;148.9150785;148.9150785;148.9150785;148.9150785;148.9150785;;;;;;170101;1;2023-11-30_09h21.36.102;REPSWITCH1_version1_list1;2022.2.4;143.9457843;
REPSWITCH1/PICTURE_175.png;pintor;type;darkblue;repeat;1;T;2;1;1;1;Stim1_Set2;0;None;29;28;29;0;28;28;28;;;;;;;;;;;;;;;;;;;;;;;149.4150827;150.4569112;150.4569112;150.4569112;150.4569112;150.4569112;150.4569112;150.4569112;150.4569112;['p', 'i', 'n', 't', 'o', 'r'];0;[0.9877276998013258, 1.5840819999575615, 2.041858399985358, 2.1445917999371886, 2.28242259984836, 2.353128499817103];pintor;C:\2023\REPSWITCH21092023\REPSWITCH_excgange\REPSWITCH_excgange\data/170101_REPSWITCH1_version1_list1_2023-11-30_09h21.36.102_micRespv1l1_recorded\recording_micRespv1l1_2023-11-30_09h24.01.416.wav;153.4850664;;None;153.4850664;153.4850664;153.4850664;153.4850664;153.4850664;153.4850664;;;;;;170101;1;2023-11-30_09h21.36.102;REPSWITCH1_version1_list1;2022.2.4;143.9457843;
REPSWITCH1/PICTURE_381.png;fresa;speak;gold;filler;2;F;2;1;1;1;Stim2_Set1;0;None;30;29;30;0;29;29;29;;;;;;;;;;;;;;;;;;;;;;;153.9851203;155.0894536;155.0894536;155.0894536;155.0894536;155.0894536;155.0894536;155.0894536;155.0894536;None;0;;;C:\2023\REPSWITCH21092023\REPSWITCH_excgange\REPSWITCH_excgange\data/170101_REPSWITCH1_version1_list1_2023-11-30_09h21.36.102_micRespv1l1_recorded\recording_micRespv1l1_2023-11-30_09h24.06.048.wav;158.1106292;158.6107626;None;158.1106292;158.1106292;158.1106292;158.1106292;158.1106292;158.1106292;;;;;;170101;1;2023-11-30_09h21.36.102;REPSWITCH1_version1_list1;2022.2.4;143.9457843;
REPSWITCH1/PICTURE_152.png;caracol;type;darkblue;nontarget;1;NT;2;1;1;1;Stim2_Set2;1;switch;31;30;31;0;30;30;30;;;;;;;;;;;;;;;;;;;;;;;158.6107626;159.7844864;159.7844864;159.7844864;159.7844864;159.7844864;159.7844864;159.7844864;159.7844864;['c', 'a', 'r', 'a', 'c', 'o', 'l'];0;[0.9679876998998225, 1.1493807998485863, 1.3396960999816656, 1.5183837998192757, 1.687172999838367, 1.7567365998402238, 1.9038729998283088];caracol;C:\2023\REPSWITCH21092023\REPSWITCH_excgange\REPSWITCH_excgange\data/170101_REPSWITCH1_version1_list1_2023-11-30_09h21.36.102_micRespv1l1_recorded\recording_micRespv1l1_2023-11-30_09h24.10.743.wav;162.8056902;163.3057578;None;162.8056902;162.8056902;162.8056902;162.8056902;162.8056902;162.8056902;;;;;;170101;1;2023-11-30_09h21.36.102;REPSWITCH1_version1_list1;2022.2.4;143.9457843;
REPSWITCH1/PICTURE_152.png;caracol;type;darkblue;repeat;1;T;2;1;1;1;Stim2_Set2;0;None;32;31;32;0;31;31;31;;;;;;;;;;;;;;;;;;;;;;;163.3057578;164.3892674;164.3892674;164.3892674;164.3892674;164.3892674;164.3892674;164.3892674;164.3892674;['c', 'a', 'r', 'a', 'c', 'o', 'l'];0;[0.914139699889347, 1.097538699861616, 1.3081441998947412, 1.5096880998462439, 2.28079740004614, 2.3884384999983013, 2.541919599985704];caracol;C:\2023\REPSWITCH21092023\REPSWITCH_excgange\REPSWITCH_excgange\data/170101_REPSWITCH1_version1_list1_2023-11-30_09h21.36.102_micRespv1l1_recorded\recording_micRespv1l1_2023-11-30_09h24.15.348.wav;167.4175077;;None;167.4175077;167.4175077;167.4175077;167.4175077;167.4175077;167.4175077;;;;;;170101;1;2023-11-30_09h21.36.102;REPSWITCH1_version1_list1;2022.2.4;143.9457843;
REPSWITCH1/PICTURE_128.png;muñeca;speak;gold;filler;2;F;2;1;1;1;Stim4_Set1;0;None;33;32;33;0;32;32;32;;;;;;;;;;;;;;;;;;;;;;;167.917503;169.0148658;169.0148658;169.0148658;169.0148658;169.0148658;169.0148658;169.0148658;169.0148658;None;0;;;C:\2023\REPSWITCH21092023\REPSWITCH_excgange\REPSWITCH_excgange\data/170101_REPSWITCH1_version1_list1_2023-11-30_09h21.36.102_micRespv1l1_recorded\recording_micRespv1l1_2023-11-30_09h24.19.974.wav;172.0361014;172.5361738;None;172.0361014;172.0361014;172.0361014;172.0361014;172.0361014;172.0361014;;;;;;170101;1;2023-11-30_09h21.36.102;REPSWITCH1_version1_list1;2022.2.4;143.9457843;
REPSWITCH1/PICTURE_264.png;mano;type;darkblue;nontarget;1;NT;2;1;1;1;Stim3_Set2;0;None;34;33;34;0;33;33;33;;;;;;;;;;;;;;;;;;;;;;;172.5361738;173.5780305;173.5780305;173.5780305;173.5780305;173.5780305;173.5780305;173.5780305;173.5780305;['m', 'a', 'n', 'o'];0;[0.93598089995794, 1.0680182001087815, 1.1422460000030696, 1.3330226000398397];mano;C:\2023\REPSWITCH21092023\REPSWITCH_excgange\REPSWITCH_excgange\data/170101_REPSWITCH1_version1_list1_2023-11-30_09h21.36.102_micRespv1l1_recorded\recording_micRespv1l1_2023-11-30_09h24.24.537.wav;176.59927;177.0992715;None;176.59927;176.59927;176.59927;176.59927;176.59927;176.59927;;;;;;170101;1;2023-11-30_09h21.36.102;REPSWITCH1_version1_list1;2022.2.4;143.9457843;
REPSWITCH1/PICTURE_264.png;mano;speak;gold;switch;2;T;2;1;1;1;Stim3_Set2;0;None;35;34;35;0;34;34;34;;;;;;;;;;;;;;;;;;;;;;;177.0992715;178.293873;178.293873;178.293873;178.293873;178.293873;178.293873;178.293873;178.293873;None;0;;;C:\2023\REPSWITCH21092023\REPSWITCH_excgange\REPSWITCH_excgange\data/170101_REPSWITCH1_version1_list1_2023-11-30_09h21.36.102_micRespv1l1_recorded\recording_micRespv1l1_2023-11-30_09h24.29.253.wav;181.3150638;181.8151623;None;181.3150638;181.3150638;181.3150638;181.3150638;181.3150638;181.3150638;;;;;;170101;1;2023-11-30_09h21.36.102;REPSWITCH1_version1_list1;2022.2.4;143.9457843;
REPSWITCH1/PICTURE_517.png;cuerda;speak;gold;nontarget;2;NT;2;1;1;1;Stim4_Set2;1;repeat;36;35;36;0;35;35;35;;;;;;;;;;;;;;;;;;;;;;;181.8151623;182.8847714;182.8847714;182.8847714;182.8847714;182.8847714;182.8847714;182.8847714;182.8847714;None;0;;;C:\2023\REPSWITCH21092023\REPSWITCH_excgange\REPSWITCH_excgange\data/170101_REPSWITCH1_version1_list1_2023-11-30_09h21.36.102_micRespv1l1_recorded\recording_micRespv1l1_2023-11-30_09h24.33.844.wav;185.9128991;;None;185.9128991;185.9128991;185.9128991;185.9128991;185.9128991;185.9128991;;;;;;170101;1;2023-11-30_09h21.36.102;REPSWITCH1_version1_list1;2022.2.4;143.9457843;
REPSWITCH1/PICTURE_517.png;cuerda;type;darkblue;switch;1;T;2;1;1;1;Stim4_Set2;0;None;37;36;37;0;36;36;36;;;;;;;;;;;;;;;;;;;;;;;186.412961;187.5797852;187.5797852;187.5797852;187.5797852;187.5797852;187.5797852;187.5797852;187.5797852;['c', 'u', 'e', 'r', 'd', 'a'];0;[0.9877591000404209, 1.1594776001293212, 1.2573756000492722, 1.4118935000151396, 1.5773072999436408, 1.7620220000389963];cuerda;C:\2023\REPSWITCH21092023\REPSWITCH_excgange\REPSWITCH_excgange\data/170101_REPSWITCH1_version1_list1_2023-11-30_09h21.36.102_micRespv1l1_recorded\recording_micRespv1l1_2023-11-30_09h24.38.539.wav;190.608027;;None;190.608027;190.608027;190.608027;190.608027;190.608027;190.608027;;;;;;170101;1;2023-11-30_09h21.36.102;REPSWITCH1_version1_list1;2022.2.4;143.9457843;
REPSWITCH1/PICTURE_135.png;traje;type;darkblue;filler;1;F;2;1;1;1;Stim3_Set1;0;None;38;37;38;0;37;37;37;;;;;;;;;;;;;;;;;;;;;;;191.1080463;192.1984854;192.1984854;192.1984854;192.1984854;192.1984854;192.1984854;192.1984854;192.1984854;['t', 'r', 'a', 'j', 'e'];0;[0.850707600126043, 1.0210136999376118, 1.23829869995825, 1.357825699960813, 1.4305817999411374];traje;C:\2023\REPSWITCH21092023\REPSWITCH_excgange\REPSWITCH_excgange\data/170101_REPSWITCH1_version1_list1_2023-11-30_09h21.36.102_micRespv1l1_recorded\recording_micRespv1l1_2023-11-30_09h24.43.157.wav;195.2197118;195.7197415;None;195.2197118;195.2197118;195.2197118;195.2197118;195.2197118;195.2197118;;;;;;170101;1;2023-11-30_09h21.36.102;REPSWITCH1_version1_list1;2022.2.4;143.9457843;
REPSWITCH1/PICTURE_30.png;granja;type;darkblue;nontarget;1;NT;2;1;1;1;Stim5_Set2;1;repeat;39;38;39;0;38;38;38;;;;;;;;;;;;;;;;;;;;;;;195.7197415;196.8241315;196.8241315;196.8241315;196.8241315;196.8241315;196.8241315;196.8241315;196.8241315;['g', 'r', 'a', 'n', 'j', 'a'];0;[1.3053154000081122, 1.4969780000392348, 1.743163000093773, 1.8461120000574738, 1.990955299930647, 2.0407366999424994];granja;C:\2023\REPSWITCH21092023\REPSWITCH_excgange\REPSWITCH_excgange\data/170101_REPSWITCH1_version1_list1_2023-11-30_09h21.36.102_micRespv1l1_recorded\recording_micRespv1l1_2023-11-30_09h24.47.784.wav;199.8522667;200.3523162;None;199.8522667;199.8522667;199.8522667;199.8522667;199.8522667;199.8522667;;;;;;170101;1;2023-11-30_09h21.36.102;REPSWITCH1_version1_list1;2022.2.4;143.9457843;
REPSWITCH1/PICTURE_30.png;granja;speak;gold;switch;2;T;2;1;1;1;Stim5_Set2;0;None;40;39;40;0;39;39;39;;;;;;;;;;;;;;;;;;;;;;;200.3523162;201.456609;201.456609;201.456609;201.456609;201.456609;201.456609;201.456609;201.456609;None;0;;;C:\2023\REPSWITCH21092023\REPSWITCH_excgange\REPSWITCH_excgange\data/170101_REPSWITCH1_version1_list1_2023-11-30_09h21.36.102_micRespv1l1_recorded\recording_micRespv1l1_2023-11-30_09h24.52.417.wav;204.4847842;;None;204.4847842;204.4847842;204.4847842;204.4847842;204.4847842;204.4847842;;;;;;170101;1;2023-11-30_09h21.36.102;REPSWITCH1_version1_list1;2022.2.4;143.9457843;
REPSWITCH1/PICTURE_142.png;vaso;type;darkblue;filler;1;F;2;1;1;1;Stim7_Set1;0;None;41;40;41;0;40;40;40;;;;;;;;;;;;;;;;;;;;;;;204.9849128;206.0405518;206.0405518;206.0405518;206.0405518;206.0405518;206.0405518;206.0405518;206.0405518;['v', 'a', 's', 'o'];0;[0.8900323000270873, 0.986662199953571, 1.1404921000357717, 1.3020645000506192];vaso;C:\2023\REPSWITCH21092023\REPSWITCH_excgange\REPSWITCH_excgange\data/170101_REPSWITCH1_version1_list1_2023-11-30_09h21.36.102_micRespv1l1_recorded\recording_micRespv1l1_2023-11-30_09h24.57.000.wav;209.0617735;209.5618344;None;209.0617735;209.0617735;209.0617735;209.0617735;209.0617735;209.0617735;;;;;;170101;1;2023-11-30_09h21.36.102;REPSWITCH1_version1_list1;2022.2.4;143.9457843;
REPSWITCH1/PICTURE_19.png;pavo;speak;gold;filler;2;F;2;1;1;1;Stim5_Set1;1;switch;42;41;42;0;41;41;41;;;;;;;;;;;;;;;;;;;;;;;209.5618344;210.7981198;210.7981198;210.7981198;210.7981198;210.7981198;210.7981198;210.7981198;210.7981198;None;0;;;C:\2023\REPSWITCH21092023\REPSWITCH_excgange\REPSWITCH_excgange\data/170101_REPSWITCH1_version1_list1_2023-11-30_09h21.36.102_micRespv1l1_recorded\recording_micRespv1l1_2023-11-30_09h25.01.757.wav;213.8263087;;None;213.8263087;213.8263087;213.8263087;213.8263087;213.8263087;213.8263087;;;;;;170101;1;2023-11-30_09h21.36.102;REPSWITCH1_version1_list1;2022.2.4;143.9457843;
REPSWITCH1/PICTURE_552.png;manzana;speak;gold;nontarget;2;NT;2;1;1;1;Stim6_Set2;1;repeat;43;42;43;0;42;42;42;;;;;;;;;;;;;;;;;;;;;;;214.326368;215.4098974;215.4098974;215.4098974;215.4098974;215.4098974;215.4098974;215.4098974;215.4098974;None;0;;;C:\2023\REPSWITCH21092023\REPSWITCH_excgange\REPSWITCH_excgange\data/170101_REPSWITCH1_version1_list1_2023-11-30_09h21.36.102_micRespv1l1_recorded\recording_micRespv1l1_2023-11-30_09h25.06.369.wav;218.4310594;218.9311334;None;218.4310594;218.4310594;218.4310594;218.4310594;218.4310594;218.4310594;;;;;;170101;1;2023-11-30_09h21.36.102;REPSWITCH1_version1_list1;2022.2.4;143.9457843;
REPSWITCH1/PICTURE_552.png;manzana;speak;gold;repeat;2;T;2;1;1;1;Stim6_Set2;0;None;44;43;44;0;43;43;43;;;;;;;;;;;;;;;;;;;;;;;218.9311334;219.9451516;219.9451516;219.9451516;219.9451516;219.9451516;219.9451516;219.9451516;219.9451516;None;0;;;C:\2023\REPSWITCH21092023\REPSWITCH_excgange\REPSWITCH_excgange\data/170101_REPSWITCH1_version1_list1_2023-11-30_09h21.36.102_micRespv1l1_recorded\recording_micRespv1l1_2023-11-30_09h25.10.905.wav;222.9733214;;None;222.9733214;222.9733214;222.9733214;222.9733214;222.9733214;222.9733214;;;;;;170101;1;2023-11-30_09h21.36.102;REPSWITCH1_version1_list1;2022.2.4;143.9457843;
REPSWITCH1/PICTURE_16.png;cazador;type;darkblue;filler;1;F;2;1;1;1;Stim6_Set1;0;None;45;44;45;0;44;44;44;;;;;;;;;;;;;;;;;;;;;;;223.4733994;224.6332976;224.6332976;224.6332976;224.6332976;224.6332976;224.6332976;224.6332976;224.6332976;['c', 'a', 'z', 'a', 'd', 'o', 'r'];0;[1.2286782998126, 1.4254403999075294, 1.63211189978756, 1.7835863998625427, 1.9688287999015301, 2.1502754997927696, 2.24192909989506];cazador;C:\2023\REPSWITCH21092023\REPSWITCH_excgange\REPSWITCH_excgange\data/170101_REPSWITCH1_version1_list1_2023-11-30_09h21.36.102_micRespv1l1_recorded\recording_micRespv1l1_2023-11-30_09h25.15.593.wav;227.661454;;None;227.661454;227.661454;227.661454;227.661454;227.661454;227.661454;;;;;;170101;1;2023-11-30_09h21.36.102;REPSWITCH1_version1_list1;2022.2.4;143.9457843;
REPSWITCH1/PICTURE_446.png;cerdo;speak;gold;nontarget;2;NT;2;1;1;1;Stim7_Set2;1;switch;46;45;46;0;45;45;45;;;;;;;;;;;;;;;;;;;;;;;228.1615935;229.2866945;229.2866945;229.2866945;229.2866945;229.2866945;229.2866945;229.2866945;229.2866945;None;0;;;C:\2023\REPSWITCH21092023\REPSWITCH_excgange\REPSWITCH_excgange\data/170101_REPSWITCH1_version1_list1_2023-11-30_09h21.36.102_micRespv1l1_recorded\recording_micRespv1l1_2023-11-30_09h25.20.246.wav;232.3148201;;None;232.3148201;232.3148201;232.3148201;232.3148201;232.3148201;232.3148201;;;;;;170101;1;2023-11-30_09h21.36.102;REPSWITCH1_version1_list1;2022.2.4;143.9457843;
REPSWITCH1/PICTURE_446.png;cerdo;speak;gold;repeat;2;T;2;1;1;1;Stim7_Set2;0;None;47;46;47;0;46;46;46;;;;;;;;;;;;;;;;;;;;;;;232.8149577;234.0095029;234.0095029;234.0095029;234.0095029;234.0095029;234.0095029;234.0095029;234.0095029;None;0;;;C:\2023\REPSWITCH21092023\REPSWITCH_excgange\REPSWITCH_excgange\data/170101_REPSWITCH1_version1_list1_2023-11-30_09h21.36.102_micRespv1l1_recorded\recording_micRespv1l1_2023-11-30_09h25.24.968.wav;237.0307312;237.5308592;None;237.0307312;237.0307312;237.0307312;237.0307312;237.0307312;237.0307312;;;;;;170101;1;2023-11-30_09h21.36.102;REPSWITCH1_version1_list1;2022.2.4;143.9457843;
REPSWITCH1/PICTURE_590.png;escoba;type;darkblue;filler;1;F;2;1;1;1;Extra3;0;None;48;47;48;0;47;47;47;;;;;;;;;;;;;;;;;;;;;;;237.5308592;238.6351186;238.6351186;238.6351186;238.6351186;238.6351186;238.6351186;238.6351186;238.6351186;['e', 'c', 'backspace', 's', 'c', 'o', 'b', 'a'];0;[1.068764999974519, 1.4020891000982374, 1.798080800101161, 1.9897841000929475, 2.2166802000720054, 2.3412961000576615, 2.5690810000523925, 2.639760500052944];escoba;C:\2023\REPSWITCH21092023\REPSWITCH_excgange\REPSWITCH_excgange\data/170101_REPSWITCH1_version1_list1_2023-11-30_09h21.36.102_micRespv1l1_recorded\recording_micRespv1l1_2023-11-30_09h25.29.594.wav;241.6563438;242.1564799;None;241.6563438;241.6563438;241.6563438;241.6563438;241.6563438;241.6563438;;;;;;170101;1;2023-11-30_09h21.36.102;REPSWITCH1_version1_list1;2022.2.4;143.9457843;
REPSWITCH1/PICTURE_169.png;espalda;speak;gold;filler;2;F;2;1;1;1;Stim8_Set1;0;None;49;48;49;0;48;48;48;;;;;;;;;;;;;;;;;;;;;;;242.1564799;243.1982828;243.1982828;243.1982828;243.1982828;243.1982828;243.1982828;243.1982828;243.1982828;None;0;;;C:\2023\REPSWITCH21092023\REPSWITCH_excgange\REPSWITCH_excgange\data/170101_REPSWITCH1_version1_list1_2023-11-30_09h21.36.102_micRespv1l1_recorded\recording_micRespv1l1_2023-11-30_09h25.34.157.wav;246.2194136;246.7195116;None;246.2194136;246.2194136;246.2194136;246.2194136;246.2194136;246.2194136;;;;;;170101;1;2023-11-30_09h21.36.102;REPSWITCH1_version1_list1;2022.2.4;143.9457843;
REPSWITCH1/PICTURE_199.png;falda;speak;gold;nontarget;2;NT;2;1;1;1;Stim8_Set2;1;repeat;50;49;50;0;49;49;49;;;;;;;;;;;;;;;;;;;;;;;246.7195116;247.8447189;247.8447189;247.8447189;247.8447189;247.8447189;247.8447189;247.8447189;247.8447189;None;0;;;C:\2023\REPSWITCH21092023\REPSWITCH_excgange\REPSWITCH_excgange\data/170101_REPSWITCH1_version1_list1_2023-11-30_09h21.36.102_micRespv1l1_recorded\recording_micRespv1l1_2023-11-30_09h25.38.803.wav;250.8658512;251.3659338;None;250.8658512;250.8658512;250.8658512;250.8658512;250.8658512;250.8658512;;;;;;170101;1;2023-11-30_09h21.36.102;REPSWITCH1_version1_list1;2022.2.4;143.9457843;
REPSWITCH1/PICTURE_199.png;falda;type;darkblue;switch;1;T;2;1;1;1;Stim8_Set2;0;None;51;50;51;0;50;50;50;;;;;;;;;;;;;;;;;;;;;;;251.3659338;252.567484;252.567484;252.567484;252.567484;252.567484;252.567484;252.567484;252.567484;['f', 'a', 'l', 'd', 'a'];0;[1.0934735001064837, 1.3182808000128716, 1.4097718000411987, 1.5505148000083864, 1.752975600073114];falda;C:\2023\REPSWITCH21092023\REPSWITCH_excgange\REPSWITCH_excgange\data/170101_REPSWITCH1_version1_list1_2023-11-30_09h21.36.102_micRespv1l1_recorded\recording_micRespv1l1_2023-11-30_09h25.43.526.wav;255.5887205;256.0887736;space;255.5887205;255.5887205;255.5887205;255.5887205;255.5887205;255.5887205;256.0887736;256.0887736;2.3657848;;;170101;1;2023-11-30_09h21.36.102;REPSWITCH1_version1_list1;2022.2.4;143.9457843;
REPSWITCH1/PICTURE_576.png;guante;type;darkblue;nontarget;1;NT;3;1;1;1;Stim1_Set3;0;None;52;51;52;0;51;51;51;;;;;;;;;;;;;;;;;;;;;;;258.4641228;259.5823979;259.5823979;259.5823979;259.5823979;259.5823979;259.5823979;259.5823979;259.5823979;['g', 'u', 'a', 'n', 't', 'e'];0;[1.1845828001387417, 1.3211352999787778, 1.4108064000029117, 2.182457600021735, 2.2621901999227703, 2.444552000146359];guante;C:\2023\REPSWITCH21092023\REPSWITCH_excgange\REPSWITCH_excgange\data/170101_REPSWITCH1_version1_list1_2023-11-30_09h21.36.102_micRespv1l1_recorded\recording_micRespv1l1_2023-11-30_09h25.50.541.wav;262.6035289;263.1036169;None;262.6035289;262.6035289;262.6035289;262.6035289;262.6035289;262.6035289;;;;;;170101;1;2023-11-30_09h21.36.102;REPSWITCH1_version1_list1;2022.2.4;143.9457843;
REPSWITCH1/PICTURE_576.png;guante;speak;gold;switch;2;T;3;1;1;1;Stim1_Set3;0;None;53;52;53;0;52;52;52;;;;;;;;;;;;;;;;;;;;;;;263.1036169;264.3121075;264.3121075;264.3121075;264.3121075;264.3121075;264.3121075;264.3121075;264.3121075;None;0;;;C:\2023\REPSWITCH21092023\REPSWITCH_excgange\REPSWITCH_excgange\data/170101_REPSWITCH1_version1_list1_2023-11-30_09h21.36.102_micRespv1l1_recorded\recording_micRespv1l1_2023-11-30_09h25.55.272.wav;267.3403404;267.8403424;None;267.3403404;267.3403404;267.3403404;267.3403404;267.3403404;267.3403404;;;;;;170101;1;2023-11-30_09h21.36.102;REPSWITCH1_version1_list1;2022.2.4;143.9457843;
REPSWITCH1/PICTURE_646.png;tronco;speak;gold;filler;2;F;3;1;1;1;Extra4;0;None;54;53;54;0;53;53;53;;;;;;;;;;;;;;;;;;;;;;;267.8403424;269.0002719;269.0002719;269.0002719;269.0002719;269.0002719;269.0002719;269.0002719;269.0002719;None;0;;;C:\2023\REPSWITCH21092023\REPSWITCH_excgange\REPSWITCH_excgange\data/170101_REPSWITCH1_version1_list1_2023-11-30_09h21.36.102_micRespv1l1_recorded\recording_micRespv1l1_2023-11-30_09h25.59.960.wav;272.0214382;272.5215016;None;272.0214382;272.0214382;272.0214382;272.0214382;272.0214382;272.0214382;;;;;;170101;1;2023-11-30_09h21.36.102;REPSWITCH1_version1_list1;2022.2.4;143.9457843;
REPSWITCH1/PICTURE_610.png;miel;speak;gold;nontarget;2;NT;3;1;1;1;Stim2_Set3;1;repeat;55;54;55;0;54;54;54;;;;;;;;;;;;;;;;;;;;;;;272.5215016;273.5633704;273.5633704;273.5633704;273.5633704;273.5633704;273.5633704;273.5633704;273.5633704;None;0;;;C:\2023\REPSWITCH21092023\REPSWITCH_excgange\REPSWITCH_excgange\data/170101_REPSWITCH1_version1_list1_2023-11-30_09h21.36.102_micRespv1l1_recorded\recording_micRespv1l1_2023-11-30_09h26.04.523.wav;276.5914823;;None;276.5914823;276.5914823;276.5914823;276.5914823;276.5914823;276.5914823;;;;;;170101;1;2023-11-30_09h21.36.102;REPSWITCH1_version1_list1;2022.2.4;143.9457843;
REPSWITCH1/PICTURE_610.png;miel;type;darkblue;switch;1;T;3;1;1;1;Stim2_Set3;0;None;56;55;56;0;55;55;55;;;;;;;;;;;;;;;;;;;;;;;277.0915498;278.2237118;278.2237118;278.2237118;278.2237118;278.2237118;278.2237118;278.2237118;278.2237118;['m', 'i', 'e', 'l'];0;[1.0284985997714102, 1.2079202998429537, 1.3567720998544246, 1.4593392999377102];miel;C:\2023\REPSWITCH21092023\REPSWITCH_excgange\REPSWITCH_excgange\data/170101_REPSWITCH1_version1_list1_2023-11-30_09h21.36.102_micRespv1l1_recorded\recording_micRespv1l1_2023-11-30_09h26.09.183.wav;281.2518627;;None;281.2518627;281.2518627;281.2518627;281.2518627;281.2518627;281.2518627;;;;;;170101;1;2023-11-30_09h21.36.102;REPSWITCH1_version1_list1;2022.2.4;143.9457843;
REPSWITCH1/PICTURE_175.png;pintor;type;darkblue;filler;1;F;3;1;1;1;Stim1_Set2;1;repeat;57;56;57;0;56;56;56;;;;;;;;;;;;;;;;;;;;;;;281.7518625;282.9117867;282.9117867;282.9117867;282.9117867;282.9117867;282.9117867;282.9117867;282.9117867;['p', 'i', 'n', 't', 'o', 'r'];0;[0.8829796998761594, 1.1024453998543322, 1.2628945999313146, 1.3426313998643309, 1.4646876999177039, 1.5530085999052972];pintor;C:\2023\REPSWITCH21092023\REPSWITCH_excgange\REPSWITCH_excgange\data/170101_REPSWITCH1_version1_list1_2023-11-30_09h21.36.102_micRespv1l1_recorded\recording_micRespv1l1_2023-11-30_09h26.13.871.wav;285.9330405;286.4330471;None;285.9330405;285.9330405;285.9330405;285.9330405;285.9330405;285.9330405;;;;;;170101;1;2023-11-30_09h21.36.102;REPSWITCH1_version1_list1;2022.2.4;143.9457843;
REPSWITCH1/PICTURE_242.png;cartero;type;darkblue;nontarget;1;NT;3;1;1;1;Stim3_Set3;1;repeat;58;57;58;0;57;57;57;;;;;;;;;;;;;;;;;;;;;;;286.4330471;287.4818765;287.4818765;287.4818765;287.4818765;287.4818765;287.4818765;287.4818765;287.4818765;['c', 'a', 'r', 't', 'e', 'r', 'o'];0;[1.074453900102526, 1.2847384999040514, 1.4853004000615329, 1.6536952001042664, 1.8333385998848826, 1.9679332999512553, 2.0108586999122053];cartero;C:\2023\REPSWITCH21092023\REPSWITCH_excgange\REPSWITCH_excgange\data/170101_REPSWITCH1_version1_list1_2023-11-30_09h21.36.102_micRespv1l1_recorded\recording_micRespv1l1_2023-11-30_09h26.18.441.wav;290.5030431;291.0031007;None;290.5030431;290.5030431;290.5030431;290.5030431;290.5030431;290.5030431;;;;;;170101;1;2023-11-30_09h21.36.102;REPSWITCH1_version1_list1;2022.2.4;143.9457843;
REPSWITCH1/PICTURE_242.png;cartero;speak;gold;switch;2;T;3;1;1;1;Stim3_Set3;0;None;59;58;59;0;58;58;58;;;;;;;;;;;;;;;;;;;;;;;291.0031007;292.1838406;292.1838406;292.1838406;292.1838406;292.1838406;292.1838406;292.1838406;292.1838406;None;0;;;C:\2023\REPSWITCH21092023\REPSWITCH_excgange\REPSWITCH_excgange\data/170101_REPSWITCH1_version1_list1_2023-11-30_09h21.36.102_micRespv1l1_recorded\recording_micRespv1l1_2023-11-30_09h26.23.143.wav;295.2120003;;None;295.2120003;295.2120003;295.2120003;295.2120003;295.2120003;295.2120003;;;;;;170101;1;2023-11-30_09h21.36.102;REPSWITCH1_version1_list1;2022.2.4;143.9457843;
REPSWITCH1/PICTURE_152.png;caracol;speak;gold;filler;2;F;3;1;1;1;Stim2_Set2;0;None;60;59;60;0;59;59;59;;;;;;;;;;;;;;;;;;;;;;;295.7120554;296.7677353;296.7677353;296.7677353;296.7677353;296.7677353;296.7677353;296.7677353;296.7677353;None;0;;;C:\2023\REPSWITCH21092023\REPSWITCH_excgange\REPSWITCH_excgange\data/170101_REPSWITCH1_version1_list1_2023-11-30_09h21.36.102_micRespv1l1_recorded\recording_micRespv1l1_2023-11-30_09h26.27.727.wav;299.7890556;300.2891055;None;299.7890556;299.7890556;299.7890556;299.7890556;299.7890556;299.7890556;;;;;;170101;1;2023-11-30_09h21.36.102;REPSWITCH1_version1_list1;2022.2.4;143.9457843;
REPSWITCH1/PICTURE_517.png;cuerda;type;darkblue;filler;1;F;3;1;1;1;Stim4_Set2;0;None;61;60;61;0;60;60;60;;;;;;;;;;;;;;;;;;;;;;;300.2891055;301.4906009;301.4906009;301.4906009;301.4906009;301.4906009;301.4906009;301.4906009;301.4906009;['c', 'u', 'e', 'r', 'd', 'a'];0;[1.1179339999798685, 1.2544921999797225, 1.3282257001847029, 1.4956623001489788, 1.6651763999834657, 1.8671585000120103];cuerda;C:\2023\REPSWITCH21092023\REPSWITCH_excgange\REPSWITCH_excgange\data/170101_REPSWITCH1_version1_list1_2023-11-30_09h21.36.102_micRespv1l1_recorded\recording_micRespv1l1_2023-11-30_09h26.32.450.wav;304.5117982;305.011875;None;304.5117982;304.5117982;304.5117982;304.5117982;304.5117982;304.5117982;;;;;;170101;1;2023-11-30_09h21.36.102;REPSWITCH1_version1_list1;2022.2.4;143.9457843;
REPSWITCH1/PICTURE_235.png;aguja;speak;gold;nontarget;2;NT;3;1;1;1;Stim4_Set3;1;switch;62;61;62;0;61;61;61;;;;;;;;;;;;;;;;;;;;;;;305.011875;306.0398072;306.0398072;306.0398072;306.0398072;306.0398072;306.0398072;306.0398072;306.0398072;None;0;;;C:\2023\REPSWITCH21092023\REPSWITCH_excgange\REPSWITCH_excgange\data/170101_REPSWITCH1_version1_list1_2023-11-30_09h21.36.102_micRespv1l1_recorded\recording_micRespv1l1_2023-11-30_09h26.36.999.wav;309.0680557;;None;309.0680557;309.0680557;309.0680557;309.0680557;309.0680557;309.0680557;;;;;;170101;1;2023-11-30_09h21.36.102;REPSWITCH1_version1_list1;2022.2.4;143.9457843;
REPSWITCH1/PICTURE_235.png;aguja;speak;gold;repeat;2;T;3;1;1;1;Stim4_Set3;0;None;63;62;63;0;62;62;62;;;;;;;;;;;;;;;;;;;;;;;309.5680376;310.6792842;310.6792842;310.6792842;310.6792842;310.6792842;310.6792842;310.6792842;310.6792842;None;0;;;C:\2023\REPSWITCH21092023\REPSWITCH_excgange\REPSWITCH_excgange\data/170101_REPSWITCH1_version1_list1_2023-11-30_09h21.36.102_micRespv1l1_recorded\recording_micRespv1l1_2023-11-30_09h26.41.638.wav;313.7005164;314.2005917;None;313.7005164;313.7005164;313.7005164;313.7005164;313.7005164;313.7005164;;;;;;170101;1;2023-11-30_09h21.36.102;REPSWITCH1_version1_list1;2022.2.4;143.9457843;
REPSWITCH1/PICTURE_30.png;granja;type;darkblue;filler;1;F;3;1;1;1;Stim5_Set2;0;None;64;63;64;0;63;63;63;;;;;;;;;;;;;;;;;;;;;;;314.2005917;315.221539;315.221539;315.221539;315.221539;315.221539;315.221539;315.221539;315.221539;['g', 'r', 'a', 'n', 'j', 'a'];0;[1.3193372001405805, 1.4882354999426752, 1.7105280000250787, 1.8131576001178473, 1.9709322000853717, 2.0016072001308203];granja;C:\2023\REPSWITCH21092023\REPSWITCH_excgange\REPSWITCH_excgange\data/170101_REPSWITCH1_version1_list1_2023-11-30_09h21.36.102_micRespv1l1_recorded\recording_micRespv1l1_2023-11-30_09h26.46.180.wav;318.2427925;318.7428283;None;318.2427925;318.2427925;318.2427925;318.2427925;318.2427925;318.2427925;;;;;;170101;1;2023-11-30_09h21.36.102;REPSWITCH1_version1_list1;2022.2.4;143.9457843;
REPSWITCH1/PICTURE_552.png;manzana;speak;gold;filler;2;F;3;1;1;1;Stim6_Set2;1;switch;65;64;65;0;64;64;64;;;;;;;;;;;;;;;;;;;;;;;318.7428283;319.8124289;319.8124289;319.8124289;319.8124289;319.8124289;319.8124289;319.8124289;319.8124289;None;0;;;C:\2023\REPSWITCH21092023\REPSWITCH_excgange\REPSWITCH_excgange\data/170101_REPSWITCH1_version1_list1_2023-11-30_09h21.36.102_micRespv1l1_recorded\recording_micRespv1l1_2023-11-30_09h26.50.772.wav;322.8405963;;None;322.8405963;322.8405963;322.8405963;322.8405963;322.8405963;322.8405963;;;;;;170101;1;2023-11-30_09h21.36.102;REPSWITCH1_version1_list1;2022.2.4;143.9457843;
REPSWITCH1/PICTURE_35.png;oreja;speak;gold;nontarget;2;NT;3;1;1;1;Stim5_Set3;1;repeat;66;65;66;0;65;65;65;;;;;;;;;;;;;;;;;;;;;;;323.340681;324.47971;324.47971;324.47971;324.47971;324.47971;324.47971;324.47971;324.47971;None;0;;;C:\2023\REPSWITCH21092023\REPSWITCH_excgange\REPSWITCH_excgange\data/170101_REPSWITCH1_version1_list1_2023-11-30_09h21.36.102_micRespv1l1_recorded\recording_micRespv1l1_2023-11-30_09h26.55.439.wav;327.507928;;None;327.507928;327.507928;327.507928;327.507928;327.507928;327.507928;;;;;;170101;1;2023-11-30_09h21.36.102;REPSWITCH1_version1_list1;2022.2.4;143.9457843;
REPSWITCH1/PICTURE_35.png;oreja;speak;gold;repeat;2;T;3;1;1;1;Stim5_Set3;0;None;67;66;67;0;66;66;66;;;;;;;;;;;;;;;;;;;;;;;328.0079322;329.0498265;329.0498265;329.0498265;329.0498265;329.0498265;329.0498265;329.0498265;329.0498265;None;0;;;C:\2023\REPSWITCH21092023\REPSWITCH_excgange\REPSWITCH_excgange\data/170101_REPSWITCH1_version1_list1_2023-11-30_09h21.36.102_micRespv1l1_recorded\recording_micRespv1l1_2023-11-30_09h27.00.009.wav;332.0779114;;None;332.0779114;332.0779114;332.0779114;332.0779114;332.0779114;332.0779114;;;;;;170101;1;2023-11-30_09h21.36.102;REPSWITCH1_version1_list1;2022.2.4;143.9457843;
REPSWITCH1/PICTURE_673.png;tenedor;type;darkblue;filler;1;F;3;1;1;1;Extra5;0;None;68;67;68;0;67;67;67;;;;;;;;;;;;;;;;;;;;;;;332.5780033;333.6198041;333.6198041;333.6198041;333.6198041;333.6198041;333.6198041;333.6198041;333.6198041;['t', 'e', 'n', 'e', 'd', 'o', 'r'];0;[0.9322003000415862, 1.6542112999595702, 1.7538624999579042, 1.8399968999437988, 2.001970599871129, 2.0727683000732213, 2.1813952999655157];tenedor;C:\2023\REPSWITCH21092023\REPSWITCH_excgange\REPSWITCH_excgange\data/170101_REPSWITCH1_version1_list1_2023-11-30_09h21.36.102_micRespv1l1_recorded\recording_micRespv1l1_2023-11-30_09h27.04.579.wav;336.6410813;337.1411717;None;336.6410813;336.6410813;336.6410813;336.6410813;336.6410813;336.6410813;;;;;;170101;1;2023-11-30_09h21.36.102;REPSWITCH1_version1_list1;2022.2.4;143.9457843;
REPSWITCH1/PICTURE_464.png;goma;speak;gold;nontarget;2;NT;3;1;1;1;Stim6_Set3;0;None;69;68;69;0;68;68;68;;;;;;;;;;;;;;;;;;;;;;;337.1411717;338.3148497;338.3148497;338.3148497;338.3148497;338.3148497;338.3148497;338.3148497;338.3148497;None;0;;;C:\2023\REPSWITCH21092023\REPSWITCH_excgange\REPSWITCH_excgange\data/170101_REPSWITCH1_version1_list1_2023-11-30_09h21.36.102_micRespv1l1_recorded\recording_micRespv1l1_2023-11-30_09h27.09.274.wav;341.3430347;;None;341.3430347;341.3430347;341.3430347;341.3430347;341.3430347;341.3430347;;;;;;170101;1;2023-11-30_09h21.36.102;REPSWITCH1_version1_list1;2022.2.4;143.9457843;
REPSWITCH1/PICTURE_464.png;goma;type;darkblue;switch;1;T;3;1;1;1;Stim6_Set3;0;None;70;69;70;0;69;69;69;;;;;;;;;;;;;;;;;;;;;;;341.8430948;342.8779435;342.8779435;342.8779435;342.8779435;342.8779435;342.8779435;342.8779435;342.8779435;['g', 'o', 'm', 'a'];0;[0.9595200000330806, 1.031268399907276, 1.2176473999861628, 1.319306500023231];goma;C:\2023\REPSWITCH21092023\REPSWITCH_excgange\REPSWITCH_excgange\data/170101_REPSWITCH1_version1_list1_2023-11-30_09h21.36.102_micRespv1l1_recorded\recording_micRespv1l1_2023-11-30_09h27.13.837.wav;345.9061453;346.4062069;None;345.9061453;345.9061453;345.9061453;345.9061453;345.9061453;345.9061453;;;;;;170101;1;2023-11-30_09h21.36.102;REPSWITCH1_version1_list1;2022.2.4;143.9457843;
REPSWITCH1/PICTURE_264.png;mano;speak;gold;filler;2;F;3;1;1;1;Stim3_Set2;0;None;71;70;71;0;70;70;70;;;;;;;;;;;;;;;;;;;;;;;346.4062069;347.4896944;347.4896944;347.4896944;347.4896944;347.4896944;347.4896944;347.4896944;347.4896944;None;0;;;C:\2023\REPSWITCH21092023\REPSWITCH_excgange\REPSWITCH_excgange\data/170101_REPSWITCH1_version1_list1_2023-11-30_09h21.36.102_micRespv1l1_recorded\recording_micRespv1l1_2023-11-30_09h27.18.450.wav;350.51789;;None;350.51789;350.51789;350.51789;350.51789;350.51789;350.51789;;;;;;170101;1;2023-11-30_09h21.36.102;REPSWITCH1_version1_list1;2022.2.4;143.9457843;
REPSWITCH1/PICTURE_271.png;conejo;type;darkblue;nontarget;1;NT;3;1;1;1;Stim7_Set3;1;switch;72;71;72;0;71;71;71;;;;;;;;;;;;;;;;;;;;;;;351.017898;352.0875776;352.0875776;352.0875776;352.0875776;352.0875776;352.0875776;352.0875776;352.0875776;['c', 'o', 'n', 'e', 'j', 'o'];0;[1.0630306999664754, 1.143758999882266, 1.3250813998747617, 1.427762100007385, 1.517465699929744, 1.7173913998994976];conejo;C:\2023\REPSWITCH21092023\REPSWITCH_excgange\REPSWITCH_excgange\data/170101_REPSWITCH1_version1_list1_2023-11-30_09h21.36.102_micRespv1l1_recorded\recording_micRespv1l1_2023-11-30_09h27.23.046.wav;355.1087177;355.6087786;None;355.1087177;355.1087177;355.1087177;355.1087177;355.1087177;355.1087177;;;;;;170101;1;2023-11-30_09h21.36.102;REPSWITCH1_version1_list1;2022.2.4;143.9457843;
REPSWITCH1/PICTURE_271.png;conejo;type;darkblue;repeat;1;T;3;1;1;1;Stim7_Set3;0;None;73;72;73;0;72;72;72;;;;;;;;;;;;;;;;;;;;;;;355.6087786;356.6854096;356.6854096;356.6854096;356.6854096;356.6854096;356.6854096;356.6854096;356.6854096;['c', 'o', 'n', 'e', 'j', 'o'];0;[0.9687387000303715, 1.0463654000777751, 1.2400032000150532, 1.3266665001865476, 1.4353447000030428, 1.6217197000514716];conejo;C:\2023\REPSWITCH21092023\REPSWITCH_excgange\REPSWITCH_excgange\data/170101_REPSWITCH1_version1_list1_2023-11-30_09h21.36.102_micRespv1l1_recorded\recording_micRespv1l1_2023-11-30_09h27.27.645.wav;359.7135818;;None;359.7135818;359.7135818;359.7135818;359.7135818;359.7135818;359.7135818;;;;;;170101;1;2023-11-30_09h21.36.102;REPSWITCH1_version1_list1;2022.2.4;143.9457843;
REPSWITCH1/PICTURE_446.png;cerdo;speak;gold;filler;2;F;3;1;1;1;Stim7_Set2;0;None;74;73;74;0;73;73;73;;;;;;;;;;;;;;;;;;;;;;;360.2135765;361.2692467;361.2692467;361.2692467;361.2692467;361.2692467;361.2692467;361.2692467;361.2692467;None;0;;;C:\2023\REPSWITCH21092023\REPSWITCH_excgange\REPSWITCH_excgange\data/170101_REPSWITCH1_version1_list1_2023-11-30_09h21.36.102_micRespv1l1_recorded\recording_micRespv1l1_2023-11-30_09h27.32.228.wav;364.2904899;364.7905724;None;364.2904899;364.2904899;364.2904899;364.2904899;364.2904899;364.2904899;;;;;;170101;1;2023-11-30_09h21.36.102;REPSWITCH1_version1_list1;2022.2.4;143.9457843;
REPSWITCH1/PICTURE_199.png;falda;type;darkblue;filler;1;F;3;1;1;1;Stim8_Set2;1;switch;75;74;75;0;74;74;74;;;;;;;;;;;;;;;;;;;;;;;364.7905724;365.8670854;365.8670854;365.8670854;365.8670854;365.8670854;365.8670854;365.8670854;365.8670854;['f', 'a', 'l', 'd', 'a'];0;[1.0756552000530064, 1.2989969998598099, 1.376458500046283, 1.5265814999584109, 1.7402367000468075];falda;C:\2023\REPSWITCH21092023\REPSWITCH_excgange\REPSWITCH_excgange\data/170101_REPSWITCH1_version1_list1_2023-11-30_09h21.36.102_micRespv1l1_recorded\recording_micRespv1l1_2023-11-30_09h27.36.825.wav;368.8883961;369.3884583;None;368.8883961;368.8883961;368.8883961;368.8883961;368.8883961;368.8883961;;;;;;170101;1;2023-11-30_09h21.36.102;REPSWITCH1_version1_list1;2022.2.4;143.9457843;
REPSWITCH1/PICTURE_320.png;iglesia;type;darkblue;nontarget;1;NT;3;1;1;1;Stim8_Set3;1;repeat;76;75;76;0;75;75;75;;;;;;;;;;;;;;;;;;;;;;;369.3884583;370.5135296;370.5135296;370.5135296;370.5135296;370.5135296;370.5135296;370.5135296;370.5135296;['i', 'g', 'l', 'e', 's', 'i', 'a'];0;[1.2470524001400918, 1.374680900014937, 1.5259281999897212, 1.602538000093773, 1.7764692001510412, 1.8851042999885976, 1.955219800118357];iglesia;C:\2023\REPSWITCH21092023\REPSWITCH_excgange\REPSWITCH_excgange\data/170101_REPSWITCH1_version1_list1_2023-11-30_09h21.36.102_micRespv1l1_recorded\recording_micRespv1l1_2023-11-30_09h27.41.472.wav;373.5416858;;None;373.5416858;373.5416858;373.5416858;373.5416858;373.5416858;373.5416858;;;;;;170101;1;2023-11-30_09h21.36.102;REPSWITCH1_version1_list1;2022.2.4;143.9457843;
REPSWITCH1/PICTURE_320.png;iglesia;type;darkblue;repeat;1;T;3;1;1;1;Stim8_Set3;0;None;77;76;77;0;76;76;76;;;;;;;;;;;;;;;;;;;;;;;374.0417545;375.1947675;375.1947675;375.1947675;375.1947675;375.1947675;375.1947675;375.1947675;375.1947675;['g', 'backspace', 'i', 'g', 'l', 'e', 's', 'i', 'a'];0;[0.9143566000275314, 1.5357003000099212, 1.8047124999575317, 1.9064146999735385, 2.0478996001183987, 2.1376281999982893, 2.2863623001612723, 2.3976201999466866, 2.448440399952233];iglesia;C:\2023\REPSWITCH21092023\REPSWITCH_excgange\REPSWITCH_excgange\data/170101_REPSWITCH1_version1_list1_2023-11-30_09h21.36.102_micRespv1l1_recorded\recording_micRespv1l1_2023-11-30_09h27.46.154.wav;378.2228571;;None;378.2228571;378.2228571;378.2228571;378.2228571;378.2228571;378.2228571;;;;;;170101;1;2023-11-30_09h21.36.102;REPSWITCH1_version1_list1;2022.2.4;143.9457843;
REPSWITCH1/PICTURE_576.png;guante;speak;gold;filler;2;F;4;1;1;1;Stim1_Set3;0;None;78;77;78;0;77;77;77;;;;;;;;;;;;;;;;;;;;;;;378.7229413;379.764816;379.764816;379.764816;379.764816;379.764816;379.764816;379.764816;379.764816;None;0;;;C:\2023\REPSWITCH21092023\REPSWITCH_excgange\REPSWITCH_excgange\data/170101_REPSWITCH1_version1_list1_2023-11-30_09h21.36.102_micRespv1l1_recorded\recording_micRespv1l1_2023-11-30_09h27.50.724.wav;382.7859888;383.2860553;None;382.7859888;382.7859888;382.7859888;382.7859888;382.7859888;382.7859888;;;;;;170101;1;2023-11-30_09h21.36.102;REPSWITCH1_version1_list1;2022.2.4;143.9457843;
REPSWITCH1/PICTURE_319.png;vaca;type;darkblue;nontarget;1;NT;4;1;1;1;Stim1_Set4;1;switch;79;78;79;0;78;78;78;;;;;;;;;;;;;;;;;;;;;;;383.2860553;384.3209074;384.3209074;384.3209074;384.3209074;384.3209074;384.3209074;384.3209074;384.3209074;['v', 'a', 'c', 'a'];0;[1.0817640000022948, 1.1882106000557542, 1.2798982001841068, 1.359980700071901];vaca;C:\2023\REPSWITCH21092023\REPSWITCH_excgange\REPSWITCH_excgange\data/170101_REPSWITCH1_version1_list1_2023-11-30_09h21.36.102_micRespv1l1_recorded\recording_micRespv1l1_2023-11-30_09h27.55.281.wav;387.3421075;387.8421892;None;387.3421075;387.3421075;387.3421075;387.3421075;387.3421075;387.3421075;;;;;;170101;1;2023-11-30_09h21.36.102;REPSWITCH1_version1_list1;2022.2.4;143.9457843;
REPSWITCH1/PICTURE_319.png;vaca;type;darkblue;repeat;1;T;4;1;1;1;Stim1_Set4;0;None;80;79;80;0;79;79;79;;;;;;;;;;;;;;;;;;;;;;;387.8421892;388.9326842;388.9326842;388.9326842;388.9326842;388.9326842;388.9326842;388.9326842;388.9326842;['v', 'a', 'c', 'a'];0;[0.9231694999616593, 1.0029992000199854, 1.1195411998778582, 1.191287999972701];vaca;C:\2023\REPSWITCH21092023\REPSWITCH_excgange\REPSWITCH_excgange\data/170101_REPSWITCH1_version1_list1_2023-11-30_09h21.36.102_micRespv1l1_recorded\recording_micRespv1l1_2023-11-30_09h27.59.892.wav;391.9608398;;None;391.9608398;391.9608398;391.9608398;391.9608398;391.9608398;391.9608398;;;;;;170101;1;2023-11-30_09h21.36.102;REPSWITCH1_version1_list1;2022.2.4;143.9457843;
REPSWITCH1/PICTURE_719.png;baño;type;darkblue;nontarget;1;NT;4;1;1;1;Stim2_Set4;0;None;81;80;81;0;80;80;80;;;;;;;;;;;;;;;;;;;;;;;392.460842;393.5305133;393.5305133;393.5305133;393.5305133;393.5305133;393.5305133;393.5305133;393.5305133;['b', 'a', 'ñ', 'o'];0;[1.0310990000143647, 1.1387678000610322, 1.4119126999285072, 1.5703485999256372];baño;C:\2023\REPSWITCH21092023\REPSWITCH_excgange\REPSWITCH_excgange\data/170101_REPSWITCH1_version1_list1_2023-11-30_09h21.36.102_micRespv1l1_recorded\recording_micRespv1l1_2023-11-30_09h28.04.490.wav;396.5586547;;None;396.5586547;396.5586547;396.5586547;396.5586547;396.5586547;396.5586547;;;;;;170101;1;2023-11-30_09h21.36.102;REPSWITCH1_version1_list1;2022.2.4;143.9457843;
REPSWITCH1/PICTURE_719.png;baño;speak;gold;switch;2;T;4;1;1;1;Stim2_Set4;0;None;82;81;82;0;81;81;81;;;;;;;;;;;;;;;;;;;;;;;397.058652;398.1282988;398.1282988;398.1282988;398.1282988;398.1282988;398.1282988;398.1282988;398.1282988;None;0;;;C:\2023\REPSWITCH21092023\REPSWITCH_excgange\REPSWITCH_excgange\data/170101_REPSWITCH1_version1_list1_2023-11-30_09h21.36.102_micRespv1l1_recorded\recording_micRespv1l1_2023-11-30_09h28.09.088.wav;401.1564555;;None;401.1564555;401.1564555;401.1564555;401.1564555;401.1564555;401.1564555;;;;;;170101;1;2023-11-30_09h21.36.102;REPSWITCH1_version1_list1;2022.2.4;143.9457843;
REPSWITCH1/PICTURE_242.png;cartero;speak;gold;filler;2;F;4;1;1;1;Stim3_Set3;1;repeat;83;82;83;0;82;82;82;;;;;;;;;;;;;;;;;;;;;;;401.6565205;402.7053201;402.7053201;402.7053201;402.7053201;402.7053201;402.7053201;402.7053201;402.7053201;None;0;;;C:\2023\REPSWITCH21092023\REPSWITCH_excgange\REPSWITCH_excgange\data/170101_REPSWITCH1_version1_list1_2023-11-30_09h21.36.102_micRespv1l1_recorded\recording_micRespv1l1_2023-11-30_09h28.13.664.wav;405.726498;406.2265512;None;405.726498;405.726498;405.726498;405.726498;405.726498;405.726498;;;;;;170101;1;2023-11-30_09h21.36.102;REPSWITCH1_version1_list1;2022.2.4;143.9457843;
REPSWITCH1/PICTURE_610.png;miel;type;darkblue;filler;1;F;4;1;1;1;Stim2_Set3;0;None;84;83;84;0;83;83;83;;;;;;;;;;;;;;;;;;;;;;;406.2265512;407.2615063;407.2615063;407.2615063;407.2615063;407.2615063;407.2615063;407.2615063;407.2615063;['i', 'backspace', 'm', 'i', 'e', 'l'];0;[1.485129099804908, 2.0223542999010533, 2.2843954998534173, 2.4319091998040676, 2.539558299817145, 2.6203222000040114];miel;C:\2023\REPSWITCH21092023\REPSWITCH_excgange\REPSWITCH_excgange\data/170101_REPSWITCH1_version1_list1_2023-11-30_09h21.36.102_micRespv1l1_recorded\recording_micRespv1l1_2023-11-30_09h28.18.221.wav;410.2826454;410.7826881;None;410.2826454;410.2826454;410.2826454;410.2826454;410.2826454;410.2826454;;;;;;170101;1;2023-11-30_09h21.36.102;REPSWITCH1_version1_list1;2022.2.4;143.9457843;
REPSWITCH1/PICTURE_8.png;pierna;speak;gold;nontarget;2;NT;4;1;1;1;Stim3_Set4;1;switch;85;84;85;0;84;84;84;;;;;;;;;;;;;;;;;;;;;;;410.7826881;411.8939917;411.8939917;411.8939917;411.8939917;411.8939917;411.8939917;411.8939917;411.8939917;None;0;;;C:\2023\REPSWITCH21092023\REPSWITCH_excgange\REPSWITCH_excgange\data/170101_REPSWITCH1_version1_list1_2023-11-30_09h21.36.102_micRespv1l1_recorded\recording_micRespv1l1_2023-11-30_09h28.22.853.wav;414.9221451;;None;414.9221451;414.9221451;414.9221451;414.9221451;414.9221451;414.9221451;;;;;;170101;1;2023-11-30_09h21.36.102;REPSWITCH1_version1_list1;2022.2.4;143.9457843;
REPSWITCH1/PICTURE_8.png;pierna;speak;gold;repeat;2;T;4;1;1;1;Stim3_Set4;0;None;86;85;86;0;85;85;85;;;;;;;;;;;;;;;;;;;;;;;415.4222839;416.5751345;416.5751345;416.5751345;416.5751345;416.5751345;416.5751345;416.5751345;416.5751345;None;0;;;C:\2023\REPSWITCH21092023\REPSWITCH_excgange\REPSWITCH_excgange\data/170101_REPSWITCH1_version1_list1_2023-11-30_09h21.36.102_micRespv1l1_recorded\recording_micRespv1l1_2023-11-30_09h28.27.533.wav;419.5963841;420.0964357;None;419.5963841;419.5963841;419.5963841;419.5963841;419.5963841;419.5963841;;;;;;170101;1;2023-11-30_09h21.36.102;REPSWITCH1_version1_list1;2022.2.4;143.9457843;
REPSWITCH1/PICTURE_498.png;taza;speak;gold;nontarget;2;NT;4;1;1;1;Stim4_Set4;1;repeat;87;86;87;0;86;86;86;;;;;;;;;;;;;;;;;;;;;;;420.0964357;421.1729521;421.1729521;421.1729521;421.1729521;421.1729521;421.1729521;421.1729521;421.1729521;None;0;;;C:\2023\REPSWITCH21092023\REPSWITCH_excgange\REPSWITCH_excgange\data/170101_REPSWITCH1_version1_list1_2023-11-30_09h21.36.102_micRespv1l1_recorded\recording_micRespv1l1_2023-11-30_09h28.32.131.wav;424.1942758;424.694268;None;424.1942758;424.1942758;424.1942758;424.1942758;424.1942758;424.1942758;;;;;;170101;1;2023-11-30_09h21.36.102;REPSWITCH1_version1_list1;2022.2.4;143.9457843;
REPSWITCH1/PICTURE_498.png;taza;type;darkblue;switch;1;T;4;1;1;1;Stim4_Set4;0;None;88;87;88;0;87;87;87;;;;;;;;;;;;;;;;;;;;;;;424.694268;425.9167211;425.9167211;425.9167211;425.9167211;425.9167211;425.9167211;425.9167211;425.9167211;['t', 'a', 'z', 'a'];0;[1.0073271999135613, 1.1169584000017494, 1.3013834999874234, 1.4262312999926507];taza;C:\2023\REPSWITCH21092023\REPSWITCH_excgange\REPSWITCH_excgange\data/170101_REPSWITCH1_version1_list1_2023-11-30_09h21.36.102_micRespv1l1_recorded\recording_micRespv1l1_2023-11-30_09h28.36.876.wav;428.9378549;429.4380096;None;428.9378549;428.9378549;428.9378549;428.9378549;428.9378549;428.9378549;;;;;;170101;1;2023-11-30_09h21.36.102;REPSWITCH1_version1_list1;2022.2.4;143.9457843;
REPSWITCH1/PICTURE_235.png;aguja;speak;gold;filler;2;F;4;1;1;1;Stim4_Set3;0;None;89;88;89;0;88;88;88;;;;;;;;;;;;;;;;;;;;;;;429.4380096;430.6395634;430.6395634;430.6395634;430.6395634;430.6395634;430.6395634;430.6395634;430.6395634;None;0;;;C:\2023\REPSWITCH21092023\REPSWITCH_excgange\REPSWITCH_excgange\data/170101_REPSWITCH1_version1_list1_2023-11-30_09h21.36.102_micRespv1l1_recorded\recording_micRespv1l1_2023-11-30_09h28.41.599.wav;433.6676348;;None;433.6676348;433.6676348;433.6676348;433.6676348;433.6676348;433.6676348;;;;;;170101;1;2023-11-30_09h21.36.102;REPSWITCH1_version1_list1;2022.2.4;143.9457843;
REPSWITCH1/PICTURE_35.png;oreja;type;darkblue;filler;1;F;4;1;1;1;Stim5_Set3;0;None;90;89;90;0;89;89;89;;;;;;;;;;;;;;;;;;;;;;;434.1676913;435.244252;435.244252;435.244252;435.244252;435.244252;435.244252;435.244252;435.244252;['o', 'r', 'e', 'j', 'a'];0;[0.9620654000900686, 1.1265104000922292, 1.2932712000329047, 1.3765813999343663, 1.5091756000183523];oreja;C:\2023\REPSWITCH21092023\REPSWITCH_excgange\REPSWITCH_excgange\data/170101_REPSWITCH1_version1_list1_2023-11-30_09h21.36.102_micRespv1l1_recorded\recording_micRespv1l1_2023-11-30_09h28.46.203.wav;438.2654881;438.7655541;None;438.2654881;438.2654881;438.2654881;438.2654881;438.2654881;438.2654881;;;;;;170101;1;2023-11-30_09h21.36.102;REPSWITCH1_version1_list1;2022.2.4;143.9457843;
REPSWITCH1/PICTURE_687.png;camisa;type;darkblue;nontarget;1;NT;4;1;1;1;Stim5_Set4;1;repeat;91;90;91;0;90;90;90;;;;;;;;;;;;;;;;;;;;;;;438.7655541;439.9046183;439.9046183;439.9046183;439.9046183;439.9046183;439.9046183;439.9046183;439.9046183;['c', 'a', 'm', 'i', 's', 'a'];0;[1.0757873998954892, 1.2780788999516517, 1.3568289000540972, 1.5086888000369072, 1.6118958999868482, 1.7956151999533176];camisa;C:\2023\REPSWITCH21092023\REPSWITCH_excgange\REPSWITCH_excgange\data/170101_REPSWITCH1_version1_list1_2023-11-30_09h21.36.102_micRespv1l1_recorded\recording_micRespv1l1_2023-11-30_09h28.50.864.wav;442.9327407;;None;442.9327407;442.9327407;442.9327407;442.9327407;442.9327407;442.9327407;;;;;;170101;1;2023-11-30_09h21.36.102;REPSWITCH1_version1_list1;2022.2.4;143.9457843;
REPSWITCH1/PICTURE_687.png;camisa;speak;gold;switch;2;T;4;1;1;1;Stim5_Set4;0;None;92;91;92;0;91;91;91;;;;;;;;;;;;;;;;;;;;;;;443.4328121;444.4885241;444.4885241;444.4885241;444.4885241;444.4885241;444.4885241;444.4885241;444.4885241;None;0;;;C:\2023\REPSWITCH21092023\REPSWITCH_excgange\REPSWITCH_excgange\data/170101_REPSWITCH1_version1_list1_2023-11-30_09h21.36.102_micRespv1l1_recorded\recording_micRespv1l1_2023-11-30_09h28.55.447.wav;447.5097389;448.0097998;None;447.5097389;447.5097389;447.5097389;447.5097389;447.5097389;447.5097389;;;;;;170101;1;2023-11-30_09h21.36.102;REPSWITCH1_version1_list1;2022.2.4;143.9457843;
REPSWITCH1/PICTURE_338.png;regalo;speak;gold;nontarget;2;NT;4;1;1;1;Stim6_Set4;0;None;93;92;93;0;92;92;92;;;;;;;;;;;;;;;;;;;;;;;448.0097998;449.1071894;449.1071894;449.1071894;449.1071894;449.1071894;449.1071894;449.1071894;449.1071894;None;0;;;C:\2023\REPSWITCH21092023\REPSWITCH_excgange\REPSWITCH_excgange\data/170101_REPSWITCH1_version1_list1_2023-11-30_09h21.36.102_micRespv1l1_recorded\recording_micRespv1l1_2023-11-30_09h29.00.066.wav;452.128428;452.6285592;None;452.128428;452.128428;452.128428;452.128428;452.128428;452.128428;;;;;;170101;1;2023-11-30_09h21.36.102;REPSWITCH1_version1_list1;2022.2.4;143.9457843;
REPSWITCH1/PICTURE_338.png;regalo;speak;gold;repeat;2;T;4;1;1;1;Stim6_Set4;0;None;94;93;94;0;93;93;93;;;;;;;;;;;;;;;;;;;;;;;452.6285592;453.6633677;453.6633677;453.6633677;453.6633677;453.6633677;453.6633677;453.6633677;453.6633677;None;0;;;C:\2023\REPSWITCH21092023\REPSWITCH_excgange\REPSWITCH_excgange\data/170101_REPSWITCH1_version1_list1_2023-11-30_09h21.36.102_micRespv1l1_recorded\recording_micRespv1l1_2023-11-30_09h29.04.622.wav;456.6845369;457.1846256;None;456.6845369;456.6845369;456.6845369;456.6845369;456.6845369;456.6845369;;;;;;170101;1;2023-11-30_09h21.36.102;REPSWITCH1_version1_list1;2022.2.4;143.9457843;
REPSWITCH1/PICTURE_663.png;columna;type;darkblue;filler;1;F;4;1;1;1;Extra6;0;None;95;94;95;0;94;94;94;;;;;;;;;;;;;;;;;;;;;;;457.1846256;458.2333942;458.2333942;458.2333942;458.2333942;458.2333942;458.2333942;458.2333942;458.2333942;['c', 'o', 'l', 'u', 'm', 'n', 'a'];0;[1.02706029987894, 1.1307046997826546, 1.3340268998872489, 1.5482818998862058, 1.729049599962309, 1.8877007998526096, 2.012723699910566];columna;C:\2023\REPSWITCH21092023\REPSWITCH_excgange\REPSWITCH_excgange\data/170101_REPSWITCH1_version1_list1_2023-11-30_09h21.36.102_micRespv1l1_recorded\recording_micRespv1l1_2023-11-30_09h29.09.193.wav;461.2546174;461.7546609;None;461.2546174;461.2546174;461.2546174;461.2546174;461.2546174;461.2546174;;;;;;170101;1;2023-11-30_09h21.36.102;REPSWITCH1_version1_list1;2022.2.4;143.9457843;
REPSWITCH1/PICTURE_271.png;conejo;speak;gold;filler;2;F;4;1;1;1;Stim7_Set3;0;None;96;95;96;0;95;95;95;;;;;;;;;;;;;;;;;;;;;;;461.7546609;462.8798117;462.8798117;462.8798117;462.8798117;462.8798117;462.8798117;462.8798117;462.8798117;None;0;;;C:\2023\REPSWITCH21092023\REPSWITCH_excgange\REPSWITCH_excgange\data/170101_REPSWITCH1_version1_list1_2023-11-30_09h21.36.102_micRespv1l1_recorded\recording_micRespv1l1_2023-11-30_09h29.13.840.wav;465.9080787;;None;465.9080787;465.9080787;465.9080787;465.9080787;465.9080787;465.9080787;;;;;;170101;1;2023-11-30_09h21.36.102;REPSWITCH1_version1_list1;2022.2.4;143.9457843;
REPSWITCH1/PICTURE_48.png;bombero;speak;gold;nontarget;2;NT;4;1;1;1;Stim7_Set4;0;None;97;96;97;0;96;96;96;;;;;;;;;;;;;;;;;;;;;;;466.4080795;467.5818399;467.5818399;467.5818399;467.5818399;467.5818399;467.5818399;467.5818399;467.5818399;None;0;;;C:\2023\REPSWITCH21092023\REPSWITCH_excgange\REPSWITCH_excgange\data/170101_REPSWITCH1_version1_list1_2023-11-30_09h21.36.102_micRespv1l1_recorded\recording_micRespv1l1_2023-11-30_09h29.18.540.wav;470.6031468;471.1031284;None;470.6031468;470.6031468;470.6031468;470.6031468;470.6031468;470.6031468;;;;;;170101;1;2023-11-30_09h21.36.102;REPSWITCH1_version1_list1;2022.2.4;143.9457843;
REPSWITCH1/PICTURE_48.png;bombero;type;darkblue;switch;1;T;4;1;1;1;Stim7_Set4;0;None;98;97;98;0;97;97;97;;;;;;;;;;;;;;;;;;;;;;;471.1031284;472.2213682;472.2213682;472.2213682;472.2213682;472.2213682;472.2213682;472.2213682;472.2213682;['b', 'o', 'm', 'b', 'e', 'r', 'o'];0;[0.9925436999183148, 1.0499535999260843, 1.2502541998401284, 1.301053399918601, 1.5105725000612438, 1.6534212999977171, 1.7401757000479847];bombero;C:\2023\REPSWITCH21092023\REPSWITCH_excgange\REPSWITCH_excgange\data/170101_REPSWITCH1_version1_list1_2023-11-30_09h21.36.102_micRespv1l1_recorded\recording_micRespv1l1_2023-11-30_09h29.23.181.wav;475.2495116;;None;475.2495116;475.2495116;475.2495116;475.2495116;475.2495116;475.2495116;;;;;;170101;1;2023-11-30_09h21.36.102;REPSWITCH1_version1_list1;2022.2.4;143.9457843;
REPSWITCH1/PICTURE_728.png;pulpo;type;darkblue;nontarget;1;NT;4;1;1;1;Stim8_Set4;0;None;99;98;99;0;98;98;98;;;;;;;;;;;;;;;;;;;;;;;475.7495425;476.8886222;476.8886222;476.8886222;476.8886222;476.8886222;476.8886222;476.8886222;476.8886222;['p', 'u', 'k', 'p', 'o', 'backspace', 'backspace', 'backspace', 'backspace'];0;[1.4407818000763655, 1.6803454998880625, 1.934691899921745, 2.128103799885139, 2.300475399941206, 2.524983200011775, 2.6705292998813093, 2.739288199925795, 2.864868599921465];p;C:\2023\REPSWITCH21092023\REPSWITCH_excgange\REPSWITCH_excgange\data/170101_REPSWITCH1_version1_list1_2023-11-30_09h21.36.102_micRespv1l1_recorded\recording_micRespv1l1_2023-11-30_09h29.27.848.wav;479.9167669;;None;479.9167669;479.9167669;479.9167669;479.9167669;479.9167669;479.9167669;;;;;;170101;1;2023-11-30_09h21.36.102;REPSWITCH1_version1_list1;2022.2.4;143.9457843;
REPSWITCH1/PICTURE_728.png;pulpo;type;darkblue;repeat;1;T;4;1;1;1;Stim8_Set4;0;None;100;99;100;0;99;99;99;;;;;;;;;;;;;;;;;;;;;;;480.4168312;481.4656784;481.4656784;481.4656784;481.4656784;481.4656784;481.4656784;481.4656784;481.4656784;['u', 'l', 'p', 'o', 'backspace', 'backspace', 'backspace', 'backspace', 'p'];0;[1.119518600171432, 1.3536625001579523, 1.542268100194633, 1.686160400044173, 2.1299127000384033, 2.2824185001663864, 2.475001099985093, 2.6355809001252055, 2.926979999989271];p;C:\2023\REPSWITCH21092023\REPSWITCH_excgange\REPSWITCH_excgange\data/170101_REPSWITCH1_version1_list1_2023-11-30_09h21.36.102_micRespv1l1_recorded\recording_micRespv1l1_2023-11-30_09h29.32.425.wav;484.4937927;;None;484.4937927;484.4937927;484.4937927;484.4937927;484.4937927;484.4937927;;;;;;170101;1;2023-11-30_09h21.36.102;REPSWITCH1_version1_list1;2022.2.4;143.9457843;
REPSWITCH1/PICTURE_320.png;iglesia;speak;gold;filler;1;F;4;1;1;1;Stim8_Set3;0;None;101;100;101;0;100;100;100;;;;;;;;;;;;;;;;;;;;;;;484.9938283;486.0425891;486.0425891;486.0425891;486.0425891;486.0425891;486.0425891;486.0425891;486.0425891;None;0;;;C:\2023\REPSWITCH21092023\REPSWITCH_excgange\REPSWITCH_excgange\data/170101_REPSWITCH1_version1_list1_2023-11-30_09h21.36.102_micRespv1l1_recorded\recording_micRespv1l1_2023-11-30_09h29.37.002.wav;489.0707476;;None;489.0707476;489.0707476;489.0707476;489.0707476;489.0707476;489.0707476;;;;;;170101;1;2023-11-30_09h21.36.102;REPSWITCH1_version1_list1;2022.2.4;143.9457843;
REPSWITCH1/PICTURE_464.png;goma;type;darkblue;filler;1;F;4;1;1;1;Stim6_Set3;0;None;102;101;102;0;101;101;101;;;;;;;;;;;;;;;;;;;;;;;489.5707996;490.6681946;490.6681946;490.6681946;490.6681946;490.6681946;490.6681946;490.6681946;490.6681946;['g', 'o', 'm', 'a'];0;[1.0923425999935716, 1.1421679998748004, 1.3395020000170916, 1.4880774000193924];goma;C:\2023\REPSWITCH21092023\REPSWITCH_excgange\REPSWITCH_excgange\data/170101_REPSWITCH1_version1_list1_2023-11-30_09h21.36.102_micRespv1l1_recorded\recording_micRespv1l1_2023-11-30_09h29.41.627.wav;493.6894182;494.1895028;space;493.6894182;493.6894182;493.6894182;493.6894182;493.6894182;493.6894182;494.1895028;494.1895028;16.5559597;;;170101;1;2023-11-30_09h21.36.102;REPSWITCH1_version1_list1;2022.2.4;143.9457843;
REPSWITCH1/PICTURE_663.png;columna;type;darkblue;filler;1;F;1;2;1;1;Extra6;0;None;103;102;1;0;102;102;102;;;;;;;;;;;;;;;;;;;;;;;510.7541797;511.8515541;511.8515541;511.8515541;511.8515541;511.8515541;511.8515541;511.8515541;511.8515541;['c', 'o', 'l', 'u', 'm', 'n', 'a'];0;[0.9040693000424653, 1.6738698999397457, 1.8411196998786181, 2.0553579998668283, 2.2327958999667317, 2.3982122000306845, 2.4751154999248683];columna;C:\2023\REPSWITCH21092023\REPSWITCH_excgange\REPSWITCH_excgange\data/170101_REPSWITCH1_version1_list1_2023-11-30_09h21.36.102_micRespv1l1_recorded\recording_micRespv1l1_2023-11-30_09h30.02.810.wav;514.8728242;515.3728002;None;514.8728242;514.8728242;514.8728242;514.8728242;514.8728242;514.8728242;;;;;;170101;1;2023-11-30_09h21.36.102;REPSWITCH1_version1_list1;2022.2.4;143.9457843;
REPSWITCH1/PICTURE_128.png;muñeca;speak;gold;nontarget;2;NT;1;2;1;1;Stim4_Set1;1;switch;104;103;2;0;103;103;103;;;;;;;;;;;;;;;;;;;;;;;515.3728002;516.4772124;516.4772124;516.4772124;516.4772124;516.4772124;516.4772124;516.4772124;516.4772124;None;0;;;C:\2023\REPSWITCH21092023\REPSWITCH_excgange\REPSWITCH_excgange\data/170101_REPSWITCH1_version1_list1_2023-11-30_09h21.36.102_micRespv1l1_recorded\recording_micRespv1l1_2023-11-30_09h30.07.436.wav;519.4983568;519.9984485;None;519.4983568;519.4983568;519.4983568;519.4983568;519.4983568;519.4983568;;;;;;170101;1;2023-11-30_09h21.36.102;REPSWITCH1_version1_list1;2022.2.4;143.9457843;
REPSWITCH1/PICTURE_128.png;muñeca;speak;gold;repeat;2;T;1;2;1;1;Stim4_Set1;0;None;105;104;3;0;104;104;104;;;;;;;;;;;;;;;;;;;;;;;519.9984485;521.0888725;521.0888725;521.0888725;521.0888725;521.0888725;521.0888725;521.0888725;521.0888725;None;0;;;C:\2023\REPSWITCH21092023\REPSWITCH_excgange\REPSWITCH_excgange\data/170101_REPSWITCH1_version1_list1_2023-11-30_09h21.36.102_micRespv1l1_recorded\recording_micRespv1l1_2023-11-30_09h30.12.047.wav;524.1101708;524.6101509;None;524.1101708;524.1101708;524.1101708;524.1101708;524.1101708;524.1101708;;;;;;170101;1;2023-11-30_09h21.36.102;REPSWITCH1_version1_list1;2022.2.4;143.9457843;
REPSWITCH1/PICTURE_8.png;pierna;type;darkblue;filler;1;F;1;2;1;1;Stim3_Set4;0;None;106;105;4;0;105;105;105;;;;;;;;;;;;;;;;;;;;;;;524.6101509;525.7491921;525.7491921;525.7491921;525.7491921;525.7491921;525.7491921;525.7491921;525.7491921;['p', 'i', 'e', 'r', 'n', 'a'];0;[0.8063586999196559, 1.009689699858427, 1.1146354000084102, 1.2564884000457823, 1.3850034000352025, 1.5139239998534322];pierna;C:\2023\REPSWITCH21092023\REPSWITCH_excgange\REPSWITCH_excgange\data/170101_REPSWITCH1_version1_list1_2023-11-30_09h21.36.102_micRespv1l1_recorded\recording_micRespv1l1_2023-11-30_09h30.16.708.wav;528.7704342;529.2704984;None;528.7704342;528.7704342;528.7704342;528.7704342;528.7704342;528.7704342;;;;;;170101;1;2023-11-30_09h21.36.102;REPSWITCH1_version1_list1;2022.2.4;143.9457843;
REPSWITCH1/PICTURE_135.png;traje;speak;gold;nontarget;2;NT;1;2;1;1;Stim3_Set1;1;switch;107;106;5;0;106;106;106;;;;;;;;;;;;;;;;;;;;;;;529.2704984;530.3539688;530.3539688;530.3539688;530.3539688;530.3539688;530.3539688;530.3539688;530.3539688;None;0;;;C:\2023\REPSWITCH21092023\REPSWITCH_excgange\REPSWITCH_excgange\data/170101_REPSWITCH1_version1_list1_2023-11-30_09h21.36.102_micRespv1l1_recorded\recording_micRespv1l1_2023-11-30_09h30.21.313.wav;533.3752735;533.8752644;None;533.3752735;533.3752735;533.3752735;533.3752735;533.3752735;533.3752735;;;;;;170101;1;2023-11-30_09h21.36.102;REPSWITCH1_version1_list1;2022.2.4;143.9457843;
REPSWITCH1/PICTURE_135.png;traje;speak;gold;repeat;2;T;1;2;1;1;Stim3_Set1;0;None;108;107;6;0;107;107;107;;;;;;;;;;;;;;;;;;;;;;;533.8752644;535.0213099;535.0213099;535.0213099;535.0213099;535.0213099;535.0213099;535.0213099;535.0213099;None;0;;;C:\2023\REPSWITCH21092023\REPSWITCH_excgange\REPSWITCH_excgange\data/170101_REPSWITCH1_version1_list1_2023-11-30_09h21.36.102_micRespv1l1_recorded\recording_micRespv1l1_2023-11-30_09h30.25.980.wav;538.0424855;538.5425438;None;538.0424855;538.0424855;538.0424855;538.0424855;538.0424855;538.0424855;;;;;;170101;1;2023-11-30_09h21.36.102;REPSWITCH1_version1_list1;2022.2.4;143.9457843;
REPSWITCH1/PICTURE_673.png;tenedor;type;darkblue;filler;1;F;1;2;1;1;Extra5;0;None;109;108;7;0;108;108;108;;;;;;;;;;;;;;;;;;;;;;;538.5425438;539.5774178;539.5774178;539.5774178;539.5774178;539.5774178;539.5774178;539.5774178;539.5774178;['t', 'e', 'n', 'e', 'd', 'p', 'r', 'backspace', 'backspace', 'o', 'r'];0;[1.099992400035262, 1.3454565999563783, 1.4610588001087308, 1.5517663001082838, 1.7181959999725223, 1.817879700101912, 1.8956079999916255, 2.2179932999424636, 2.3554541000630707, 2.6853153998963535, 2.7431179000996053];tenedor;C:\2023\REPSWITCH21092023\REPSWITCH_excgange\REPSWITCH_excgange\data/170101_REPSWITCH1_version1_list1_2023-11-30_09h21.36.102_micRespv1l1_recorded\recording_micRespv1l1_2023-11-30_09h30.30.536.wav;542.5986142;543.098752;None;542.5986142;542.5986142;542.5986142;542.5986142;542.5986142;542.5986142;;;;;;170101;1;2023-11-30_09h21.36.102;REPSWITCH1_version1_list1;2022.2.4;143.9457843;
REPSWITCH1/PICTURE_728.png;pulpo;speak;gold;filler;2;F;1;2;1;1;Stim8_Set4;0;None;110;109;8;0;109;109;109;;;;;;;;;;;;;;;;;;;;;;;543.098752;544.1682645;544.1682645;544.1682645;544.1682645;544.1682645;544.1682645;544.1682645;544.1682645;None;0;;;C:\2023\REPSWITCH21092023\REPSWITCH_excgange\REPSWITCH_excgange\data/170101_REPSWITCH1_version1_list1_2023-11-30_09h21.36.102_micRespv1l1_recorded\recording_micRespv1l1_2023-11-30_09h30.35.128.wav;547.1964675;;None;547.1964675;547.1964675;547.1964675;547.1964675;547.1964675;547.1964675;;;;;;170101;1;2023-11-30_09h21.36.102;REPSWITCH1_version1_list1;2022.2.4;143.9457843;
REPSWITCH1/PICTURE_16.png;cazador;speak;gold;nontarget;2;NT;1;2;1;1;Stim6_Set1;1;repeat;111;110;9;0;110;110;110;;;;;;;;;;;;;;;;;;;;;;;547.6965206;548.7592129;548.7592129;548.7592129;548.7592129;548.7592129;548.7592129;548.7592129;548.7592129;None;0;;;C:\2023\REPSWITCH21092023\REPSWITCH_excgange\REPSWITCH_excgange\data/170101_REPSWITCH1_version1_list1_2023-11-30_09h21.36.102_micRespv1l1_recorded\recording_micRespv1l1_2023-11-30_09h30.39.718.wav;551.7803743;552.2804477;None;551.7803743;551.7803743;551.7803743;551.7803743;551.7803743;551.7803743;;;;;;170101;1;2023-11-30_09h21.36.102;REPSWITCH1_version1_list1;2022.2.4;143.9457843;
REPSWITCH1/PICTURE_16.png;cazador;type;darkblue;switch;1;T;1;2;1;1;Stim6_Set1;0;None;112;111;10;0;111;111;111;;;;;;;;;;;;;;;;;;;;;;;552.2804477;553.3569838;553.3569838;553.3569838;553.3569838;553.3569838;553.3569838;553.3569838;553.3569838;['c', 'a', 'z', 'a', 'd', 'o', 'r'];0;[0.9032078001182526, 1.1018612999469042, 1.2716165999881923, 1.4263716000132263, 1.598155700135976, 1.7223127000033855, 1.815411299932748];cazador;C:\2023\REPSWITCH21092023\REPSWITCH_excgange\REPSWITCH_excgange\data/170101_REPSWITCH1_version1_list1_2023-11-30_09h21.36.102_micRespv1l1_recorded\recording_micRespv1l1_2023-11-30_09h30.44.316.wav;556.3781868;556.8782898;None;556.3781868;556.3781868;556.3781868;556.3781868;556.3781868;556.3781868;;;;;;170101;1;2023-11-30_09h21.36.102;REPSWITCH1_version1_list1;2022.2.4;143.9457843;
REPSWITCH1/PICTURE_498.png;taza;type;darkblue;filler;1;F;1;2;1;1;Stim4_Set4;1;repeat;113;112;11;0;112;112;112;;;;;;;;;;;;;;;;;;;;;;;556.8782898;557.9201051;557.9201051;557.9201051;557.9201051;557.9201051;557.9201051;557.9201051;557.9201051;['t', 'a', 'z', 'a'];0;[1.0381338999141008, 1.1258574998937547, 1.2673512999899685, 1.4202983998693526];taza;C:\2023\REPSWITCH21092023\REPSWITCH_excgange\REPSWITCH_excgange\data/170101_REPSWITCH1_version1_list1_2023-11-30_09h21.36.102_micRespv1l1_recorded\recording_micRespv1l1_2023-11-30_09h30.48.879.wav;560.9412841;561.4414026;None;560.9412841;560.9412841;560.9412841;560.9412841;560.9412841;560.9412841;;;;;;170101;1;2023-11-30_09h21.36.102;REPSWITCH1_version1_list1;2022.2.4;143.9457843;
REPSWITCH1/PICTURE_381.png;fresa;type;darkblue;nontarget;1;NT;1;2;1;1;Stim2_Set1;1;repeat;114;113;12;0;113;113;113;;;;;;;;;;;;;;;;;;;;;;;561.4414026;562.4832525;562.4832525;562.4832525;562.4832525;562.4832525;562.4832525;562.4832525;562.4832525;['f', 'r', 'e', 's', 'a'];0;[0.916705199982971, 1.0761625999584794, 1.6296053999103606, 1.8040147998835891, 1.9688057999592274];fresa;C:\2023\REPSWITCH21092023\REPSWITCH_excgange\REPSWITCH_excgange\data/170101_REPSWITCH1_version1_list1_2023-11-30_09h21.36.102_micRespv1l1_recorded\recording_micRespv1l1_2023-11-30_09h30.53.443.wav;565.5044841;566.0045555;None;565.5044841;565.5044841;565.5044841;565.5044841;565.5044841;565.5044841;;;;;;170101;1;2023-11-30_09h21.36.102;REPSWITCH1_version1_list1;2022.2.4;143.9457843;
REPSWITCH1/PICTURE_381.png;fresa;speak;gold;switch;2;T;1;2;1;1;Stim2_Set1;0;None;115;114;13;0;114;114;114;;;;;;;;;;;;;;;;;;;;;;;566.0045555;567.1505265;567.1505265;567.1505265;567.1505265;567.1505265;567.1505265;567.1505265;567.1505265;None;0;;;C:\2023\REPSWITCH21092023\REPSWITCH_excgange\REPSWITCH_excgange\data/170101_REPSWITCH1_version1_list1_2023-11-30_09h21.36.102_micRespv1l1_recorded\recording_micRespv1l1_2023-11-30_09h30.58.110.wav;570.1716675;570.6717448;None;570.1716675;570.1716675;570.1716675;570.1716675;570.1716675;570.1716675;;;;;;170101;1;2023-11-30_09h21.36.102;REPSWITCH1_version1_list1;2022.2.4;143.9457843;
REPSWITCH1/PICTURE_178.png;puente;speak;gold;nontarget;2;NT;1;2;1;1;Stim1_Set1;0;None;116;115;14;0;115;115;115;;;;;;;;;;;;;;;;;;;;;;;570.6717448;571.7621929;571.7621929;571.7621929;571.7621929;571.7621929;571.7621929;571.7621929;571.7621929;None;0;;;C:\2023\REPSWITCH21092023\REPSWITCH_excgange\REPSWITCH_excgange\data/170101_REPSWITCH1_version1_list1_2023-11-30_09h21.36.102_micRespv1l1_recorded\recording_micRespv1l1_2023-11-30_09h31.02.720.wav;574.7834173;575.2834845;None;574.7834173;574.7834173;574.7834173;574.7834173;574.7834173;574.7834173;;;;;;170101;1;2023-11-30_09h21.36.102;REPSWITCH1_version1_list1;2022.2.4;143.9457843;
REPSWITCH1/PICTURE_178.png;puente;type;darkblue;switch;1;T;1;2;1;1;Stim1_Set1;0;None;117;116;15;0;116;116;116;;;;;;;;;;;;;;;;;;;;;;;575.2834845;576.3530556;576.3530556;576.3530556;576.3530556;576.3530556;576.3530556;576.3530556;576.3530556;['p', 'u', 'e', 'n', 't', 'e'];0;[1.0058921000454575, 1.2713138000108302, 1.3919561000075191, 1.4818740000482649, 1.5987748000770807, 1.8124607999343425];puente;C:\2023\REPSWITCH21092023\REPSWITCH_excgange\REPSWITCH_excgange\data/170101_REPSWITCH1_version1_list1_2023-11-30_09h21.36.102_micRespv1l1_recorded\recording_micRespv1l1_2023-11-30_09h31.07.312.wav;579.3743601;579.8744342;None;579.3743601;579.3743601;579.3743601;579.3743601;579.3743601;579.3743601;;;;;;170101;1;2023-11-30_09h21.36.102;REPSWITCH1_version1_list1;2022.2.4;143.9457843;
REPSWITCH1/PICTURE_719.png;baño;speak;gold;filler;2;F;1;2;1;1;Stim2_Set4;0;None;118;117;16;0;117;117;117;;;;;;;;;;;;;;;;;;;;;;;579.8744342;580.9439235;580.9439235;580.9439235;580.9439235;580.9439235;580.9439235;580.9439235;580.9439235;None;0;;;C:\2023\REPSWITCH21092023\REPSWITCH_excgange\REPSWITCH_excgange\data/170101_REPSWITCH1_version1_list1_2023-11-30_09h21.36.102_micRespv1l1_recorded\recording_micRespv1l1_2023-11-30_09h31.11.903.wav;583.9721311;;None;583.9721311;583.9721311;583.9721311;583.9721311;583.9721311;583.9721311;;;;;;170101;1;2023-11-30_09h21.36.102;REPSWITCH1_version1_list1;2022.2.4;143.9457843;
REPSWITCH1/PICTURE_169.png;espalda;type;darkblue;nontarget;1;NT;1;2;1;1;Stim8_Set1;1;switch;119;118;17;0;118;118;118;;;;;;;;;;;;;;;;;;;;;;;584.4722313;585.5556526;585.5556526;585.5556526;585.5556526;585.5556526;585.5556526;585.5556526;585.5556526;['e', 's', 'p', 'a', 'l', 'd', 'a'];0;[1.1216051001101732, 1.2870487000327557, 1.4066435999702662, 1.523255700012669, 1.6328944000415504, 1.7614665001165122, 1.966787900077179];espalda;C:\2023\REPSWITCH21092023\REPSWITCH_excgange\REPSWITCH_excgange\data/170101_REPSWITCH1_version1_list1_2023-11-30_09h21.36.102_micRespv1l1_recorded\recording_micRespv1l1_2023-11-30_09h31.16.514.wav;588.5768738;589.0769527;None;588.5768738;588.5768738;588.5768738;588.5768738;588.5768738;588.5768738;;;;;;170101;1;2023-11-30_09h21.36.102;REPSWITCH1_version1_list1;2022.2.4;143.9457843;
REPSWITCH1/PICTURE_169.png;espalda;type;darkblue;repeat;1;T;1;2;1;1;Stim8_Set1;0;None;120;119;18;0;119;119;119;;;;;;;;;;;;;;;;;;;;;;;589.0769527;590.195145;590.195145;590.195145;590.195145;590.195145;590.195145;590.195145;590.195145;['e', 'p', 'backspace', 's', 'p', 'a', 'l', 'd', 'a'];0;[0.8878824000712484, 1.1264116999227554, 1.4712471999228, 1.632954000029713, 1.999741500010714, 2.1163558000698686, 2.1920803000684828, 2.3296940999571234, 2.5096418999601156];espalda;C:\2023\REPSWITCH21092023\REPSWITCH_excgange\REPSWITCH_excgange\data/170101_REPSWITCH1_version1_list1_2023-11-30_09h21.36.102_micRespv1l1_recorded\recording_micRespv1l1_2023-11-30_09h31.21.154.wav;593.2163971;593.7165363;None;593.2163971;593.2163971;593.2163971;593.2163971;593.2163971;593.2163971;;;;;;170101;1;2023-11-30_09h21.36.102;REPSWITCH1_version1_list1;2022.2.4;143.9457843;
REPSWITCH1/PICTURE_48.png;bombero;speak;gold;filler;2;F;1;2;1;1;Stim7_Set4;1;switch;121;120;19;0;120;120;120;;;;;;;;;;;;;;;;;;;;;;;593.7165363;594.8277057;594.8277057;594.8277057;594.8277057;594.8277057;594.8277057;594.8277057;594.8277057;None;0;;;C:\2023\REPSWITCH21092023\REPSWITCH_excgange\REPSWITCH_excgange\data/170101_REPSWITCH1_version1_list1_2023-11-30_09h21.36.102_micRespv1l1_recorded\recording_micRespv1l1_2023-11-30_09h31.25.787.wav;597.8489125;598.3490151;None;597.8489125;597.8489125;597.8489125;597.8489125;597.8489125;597.8489125;;;;;;170101;1;2023-11-30_09h21.36.102;REPSWITCH1_version1_list1;2022.2.4;143.9457843;
REPSWITCH1/PICTURE_19.png;pavo;type;darkblue;nontarget;1;NT;1;2;1;1;Stim5_Set1;1;switch;122;121;20;0;121;121;121;;;;;;;;;;;;;;;;;;;;;;;598.3490151;599.4325066;599.4325066;599.4325066;599.4325066;599.4325066;599.4325066;599.4325066;599.4325066;['p', 'a', 'v', 'o'];0;[0.9905839001294225, 1.1071850000880659, 1.3125187000259757, 1.3872140999883413];pavo;C:\2023\REPSWITCH21092023\REPSWITCH_excgange\REPSWITCH_excgange\data/170101_REPSWITCH1_version1_list1_2023-11-30_09h21.36.102_micRespv1l1_recorded\recording_micRespv1l1_2023-11-30_09h31.30.392.wav;602.4606416;;None;602.4606416;602.4606416;602.4606416;602.4606416;602.4606416;602.4606416;;;;;;170101;1;2023-11-30_09h21.36.102;REPSWITCH1_version1_list1;2022.2.4;143.9457843;
REPSWITCH1/PICTURE_19.png;pavo;type;darkblue;repeat;1;T;1;2;1;1;Stim5_Set1;0;None;123;122;21;0;122;122;122;;;;;;;;;;;;;;;;;;;;;;;602.9607616;604.0164281;604.0164281;604.0164281;604.0164281;604.0164281;604.0164281;604.0164281;604.0164281;['p', 'a', 'v', 'o'];0;[0.9465918999630958, 1.07511269999668, 1.293482700129971, 1.365229699993506];pavo;C:\2023\REPSWITCH21092023\REPSWITCH_excgange\REPSWITCH_excgange\data/170101_REPSWITCH1_version1_list1_2023-11-30_09h21.36.102_micRespv1l1_recorded\recording_micRespv1l1_2023-11-30_09h31.34.977.wav;607.0445761;;None;607.0445761;607.0445761;607.0445761;607.0445761;607.0445761;607.0445761;;;;;;170101;1;2023-11-30_09h21.36.102;REPSWITCH1_version1_list1;2022.2.4;143.9457843;
REPSWITCH1/PICTURE_319.png;vaca;speak;gold;filler;2;F;1;2;1;1;Stim1_Set4;0;None;124;123;22;0;123;123;123;;;;;;;;;;;;;;;;;;;;;;;607.54464;608.6559394;608.6559394;608.6559394;608.6559394;608.6559394;608.6559394;608.6559394;608.6559394;None;0;;;C:\2023\REPSWITCH21092023\REPSWITCH_excgange\REPSWITCH_excgange\data/170101_REPSWITCH1_version1_list1_2023-11-30_09h21.36.102_micRespv1l1_recorded\recording_micRespv1l1_2023-11-30_09h31.39.616.wav;611.6771144;612.1772018;None;611.6771144;611.6771144;611.6771144;611.6771144;611.6771144;611.6771144;;;;;;170101;1;2023-11-30_09h21.36.102;REPSWITCH1_version1_list1;2022.2.4;143.9457843;
REPSWITCH1/PICTURE_338.png;regalo;type;darkblue;filler;1;F;1;2;1;1;Stim6_Set4;0;None;125;124;23;0;124;124;124;;;;;;;;;;;;;;;;;;;;;;;612.1772018;613.3718492;613.3718492;613.3718492;613.3718492;613.3718492;613.3718492;613.3718492;613.3718492;['r', 'e', 'g', 'a', 'l', 'o'];0;[0.9588199001736939, 1.115676200017333, 1.3032662000041455, 1.5576945000793785, 1.6653273000847548, 1.808148300042376];regalo;C:\2023\REPSWITCH21092023\REPSWITCH_excgange\REPSWITCH_excgange\data/170101_REPSWITCH1_version1_list1_2023-11-30_09h21.36.102_micRespv1l1_recorded\recording_micRespv1l1_2023-11-30_09h31.44.331.wav;616.4000661;;None;616.4000661;616.4000661;616.4000661;616.4000661;616.4000661;616.4000661;;;;;;170101;1;2023-11-30_09h21.36.102;REPSWITCH1_version1_list1;2022.2.4;143.9457843;
REPSWITCH1/PICTURE_142.png;vaso;type;darkblue;nontarget;1;NT;1;2;1;1;Stim7_Set1;0;None;126;125;24;0;125;125;125;;;;;;;;;;;;;;;;;;;;;;;616.9000651;617.9974345;617.9974345;617.9974345;617.9974345;617.9974345;617.9974345;617.9974345;617.9974345;['v', 'a', 's', 'o'];0;[1.2312400999944657, 1.4648029000964016, 1.6145703000947833, 2.0769683001562953];vaso;C:\2023\REPSWITCH21092023\REPSWITCH_excgange\REPSWITCH_excgange\data/170101_REPSWITCH1_version1_list1_2023-11-30_09h21.36.102_micRespv1l1_recorded\recording_micRespv1l1_2023-11-30_09h31.48.956.wav;621.0186341;621.5187015;None;621.0186341;621.0186341;621.0186341;621.0186341;621.0186341;621.0186341;;;;;;170101;1;2023-11-30_09h21.36.102;REPSWITCH1_version1_list1;2022.2.4;143.9457843;
REPSWITCH1/PICTURE_142.png;vaso;speak;gold;switch;2;T;1;2;1;1;Stim7_Set1;0;None;127;126;25;0;126;126;126;;;;;;;;;;;;;;;;;;;;;;;621.5187015;622.6856071;622.6856071;622.6856071;622.6856071;622.6856071;622.6856071;622.6856071;622.6856071;None;0;;;C:\2023\REPSWITCH21092023\REPSWITCH_excgange\REPSWITCH_excgange\data/170101_REPSWITCH1_version1_list1_2023-11-30_09h21.36.102_micRespv1l1_recorded\recording_micRespv1l1_2023-11-30_09h31.53.645.wav;625.7067478;626.206833;None;625.7067478;625.7067478;625.7067478;625.7067478;625.7067478;625.7067478;;;;;;170101;1;2023-11-30_09h21.36.102;REPSWITCH1_version1_list1;2022.2.4;143.9457843;
REPSWITCH1/PICTURE_687.png;camisa;type;darkblue;filler;1;F;1;2;1;1;Stim5_Set4;1;switch;128;127;26;0;127;127;127;;;;;;;;;;;;;;;;;;;;;;;626.206833;627.2695387;627.2695387;627.2695387;627.2695387;627.2695387;627.2695387;627.2695387;627.2695387;['c', 'a', 'm', 'i', 's', 'a'];0;[1.4805292999371886, 1.691819400060922, 1.767552200006321, 1.9309741999022663, 2.025693800067529, 2.1955156999174505];camisa;C:\2023\REPSWITCH21092023\REPSWITCH_excgange\REPSWITCH_excgange\data/170101_REPSWITCH1_version1_list1_2023-11-30_09h21.36.102_micRespv1l1_recorded\recording_micRespv1l1_2023-11-30_09h31.58.229.wav;630.2906716;630.7907343;None;630.2906716;630.2906716;630.2906716;630.2906716;630.2906716;630.2906716;;;;;;170101;1;2023-11-30_09h21.36.102;REPSWITCH1_version1_list1;2022.2.4;143.9457843;
REPSWITCH1/PICTURE_30.png;granja;type;darkblue;nontarget;1;NT;2;2;1;1;Stim5_Set2;0;None;129;128;27;0;128;128;128;;;;;;;;;;;;;;;;;;;;;;;630.7907343;631.8742641;631.8742641;631.8742641;631.8742641;631.8742641;631.8742641;631.8742641;631.8742641;['g', 'r', 'a', 'n', 'j', 'a'];0;[0.997628299985081, 1.163373599993065, 1.3975655001122504, 1.5118091001641005, 1.691188800148666, 1.7360019001644105];granja;C:\2023\REPSWITCH21092023\REPSWITCH_excgange\REPSWITCH_excgange\data/170101_REPSWITCH1_version1_list1_2023-11-30_09h21.36.102_micRespv1l1_recorded\recording_micRespv1l1_2023-11-30_09h32.02.833.wav;634.9024286;;None;634.9024286;634.9024286;634.9024286;634.9024286;634.9024286;634.9024286;;;;;;170101;1;2023-11-30_09h21.36.102;REPSWITCH1_version1_list1;2022.2.4;143.9457843;
REPSWITCH1/PICTURE_30.png;granja;type;darkblue;repeat;1;T;2;2;1;1;Stim5_Set2;0;None;130;129;28;0;129;129;129;;;;;;;;;;;;;;;;;;;;;;;635.4025612;636.5206854;636.5206854;636.5206854;636.5206854;636.5206854;636.5206854;636.5206854;636.5206854;['g', 'r', 'a', 'n', 'j', 'a'];0;[0.7258215001784265, 0.8883043001405895, 1.1275014001876116, 1.2291514000389725, 1.38196190004237, 1.4586659001652151];granja;C:\2023\REPSWITCH21092023\REPSWITCH_excgange\REPSWITCH_excgange\data/170101_REPSWITCH1_version1_list1_2023-11-30_09h21.36.102_micRespv1l1_recorded\recording_micRespv1l1_2023-11-30_09h32.07.481.wav;639.5488723;;None;639.5488723;639.5488723;639.5488723;639.5488723;639.5488723;639.5488723;;;;;;170101;1;2023-11-30_09h21.36.102;REPSWITCH1_version1_list1;2022.2.4;143.9457843;
REPSWITCH1/PICTURE_128.png;muñeca;speak;gold;filler;2;F;2;2;1;1;Stim4_Set1;0;None;131;130;29;0;130;130;130;;;;;;;;;;;;;;;;;;;;;;;640.0489337;641.104641;641.104641;641.104641;641.104641;641.104641;641.104641;641.104641;641.104641;None;0;;;C:\2023\REPSWITCH21092023\REPSWITCH_excgange\REPSWITCH_excgange\data/170101_REPSWITCH1_version1_list1_2023-11-30_09h21.36.102_micRespv1l1_recorded\recording_micRespv1l1_2023-11-30_09h32.12.064.wav;644.1258878;644.6259941;None;644.1258878;644.1258878;644.1258878;644.1258878;644.1258878;644.1258878;;;;;;170101;1;2023-11-30_09h21.36.102;REPSWITCH1_version1_list1;2022.2.4;143.9457843;
REPSWITCH1/PICTURE_264.png;mano;type;darkblue;nontarget;1;NT;2;2;1;1;Stim3_Set2;1;switch;132;131;30;0;131;131;131;;;;;;;;;;;;;;;;;;;;;;;644.6259941;645.7372035;645.7372035;645.7372035;645.7372035;645.7372035;645.7372035;645.7372035;645.7372035;['m', 'a', 'n', 'o'];0;[0.902368500130251, 1.0279901002068073, 1.0976992000360042, 1.2811120999976993];mano;C:\2023\REPSWITCH21092023\REPSWITCH_excgange\REPSWITCH_excgange\data/170101_REPSWITCH1_version1_list1_2023-11-30_09h21.36.102_micRespv1l1_recorded\recording_micRespv1l1_2023-11-30_09h32.16.696.wav;648.7584022;649.2584725;None;648.7584022;648.7584022;648.7584022;648.7584022;648.7584022;648.7584022;;;;;;170101;1;2023-11-30_09h21.36.102;REPSWITCH1_version1_list1;2022.2.4;143.9457843;
REPSWITCH1/PICTURE_264.png;mano;type;darkblue;repeat;1;T;2;2;1;1;Stim3_Set2;0;None;133;132;31;0;132;132;132;;;;;;;;;;;;;;;;;;;;;;;649.2584725;650.2794687;650.2794687;650.2794687;650.2794687;650.2794687;650.2794687;650.2794687;650.2794687;['m', 'n', 'backspace', 'a', 'n', 'o'];0;[0.8336752001196146, 1.023358300095424, 1.350265100132674, 1.4738517999649048, 1.8469587001018226, 2.0442979000508785];mano;C:\2023\REPSWITCH21092023\REPSWITCH_excgange\REPSWITCH_excgange\data/170101_REPSWITCH1_version1_list1_2023-11-30_09h21.36.102_micRespv1l1_recorded\recording_micRespv1l1_2023-11-30_09h32.21.239.wav;653.3075917;;None;653.3075917;653.3075917;653.3075917;653.3075917;653.3075917;653.3075917;;;;;;170101;1;2023-11-30_09h21.36.102;REPSWITCH1_version1_list1;2022.2.4;143.9457843;
REPSWITCH1/PICTURE_175.png;pintor;type;darkblue;nontarget;1;NT;2;2;1;1;Stim1_Set2;0;None;134;133;32;0;133;133;133;;;;;;;;;;;;;;;;;;;;;;;653.8076675;654.856452;654.856452;654.856452;654.856452;654.856452;654.856452;654.856452;654.856452;['p', 'i', 'n', 't', 'o', 'r'];0;[1.6112629999406636, 1.783331099897623, 1.9252058998681605, 2.045552299823612, 2.165141199948266, 2.2588338998612016];pintor;C:\2023\REPSWITCH21092023\REPSWITCH_excgange\REPSWITCH_excgange\data/170101_REPSWITCH1_version1_list1_2023-11-30_09h21.36.102_micRespv1l1_recorded\recording_micRespv1l1_2023-11-30_09h32.25.816.wav;657.8845836;;None;657.8845836;657.8845836;657.8845836;657.8845836;657.8845836;657.8845836;;;;;;170101;1;2023-11-30_09h21.36.102;REPSWITCH1_version1_list1;2022.2.4;143.9457843;
REPSWITCH1/PICTURE_175.png;pintor;speak;gold;switch;2;T;2;2;1;1;Stim1_Set2;0;None;135;134;33;0;134;134;134;;;;;;;;;;;;;;;;;;;;;;;658.3846485;659.4473685;659.4473685;659.4473685;659.4473685;659.4473685;659.4473685;659.4473685;659.4473685;None;0;;;C:\2023\REPSWITCH21092023\REPSWITCH_excgange\REPSWITCH_excgange\data/170101_REPSWITCH1_version1_list1_2023-11-30_09h21.36.102_micRespv1l1_recorded\recording_micRespv1l1_2023-11-30_09h32.30.406.wav;662.4685429;662.9685832;None;662.4685429;662.4685429;662.4685429;662.4685429;662.4685429;662.4685429;;;;;;170101;1;2023-11-30_09h21.36.102;REPSWITCH1_version1_list1;2022.2.4;143.9457843;
REPSWITCH1/PICTURE_135.png;traje;speak;gold;filler;2;F;2;2;1;1;Stim3_Set1;1;repeat;136;135;34;0;135;135;135;;;;;;;;;;;;;;;;;;;;;;;662.9685832;664.0590441;664.0590441;664.0590441;664.0590441;664.0590441;664.0590441;664.0590441;664.0590441;None;0;;;C:\2023\REPSWITCH21092023\REPSWITCH_excgange\REPSWITCH_excgange\data/170101_REPSWITCH1_version1_list1_2023-11-30_09h21.36.102_micRespv1l1_recorded\recording_micRespv1l1_2023-11-30_09h32.35.019.wav;667.0872748;;None;667.0872748;667.0872748;667.0872748;667.0872748;667.0872748;667.0872748;;;;;;170101;1;2023-11-30_09h21.36.102;REPSWITCH1_version1_list1;2022.2.4;143.9457843;
REPSWITCH1/PICTURE_446.png;cerdo;speak;gold;nontarget;2;NT;2;2;1;1;Stim7_Set2;1;repeat;137;136;35;0;136;136;136;;;;;;;;;;;;;;;;;;;;;;;667.5873349;668.6916001;668.6916001;668.6916001;668.6916001;668.6916001;668.6916001;668.6916001;668.6916001;None;0;;;C:\2023\REPSWITCH21092023\REPSWITCH_excgange\REPSWITCH_excgange\data/170101_REPSWITCH1_version1_list1_2023-11-30_09h21.36.102_micRespv1l1_recorded\recording_micRespv1l1_2023-11-30_09h32.39.650.wav;671.7127792;672.2128832;None;671.7127792;671.7127792;671.7127792;671.7127792;671.7127792;671.7127792;;;;;;170101;1;2023-11-30_09h21.36.102;REPSWITCH1_version1_list1;2022.2.4;143.9457843;
REPSWITCH1/PICTURE_446.png;cerdo;type;darkblue;switch;1;T;2;2;1;1;Stim7_Set2;0;None;138;137;36;0;137;137;137;;;;;;;;;;;;;;;;;;;;;;;672.2128832;673.3102287;673.3102287;673.3102287;673.3102287;673.3102287;673.3102287;673.3102287;673.3102287;['c', 'e', 'r', 'd', 'o'];0;[0.9156863999087363, 1.1100659999065101, 1.2569051999598742, 1.453298700042069, 1.5509595999028534];cerdo;C:\2023\REPSWITCH21092023\REPSWITCH_excgange\REPSWITCH_excgange\data/170101_REPSWITCH1_version1_list1_2023-11-30_09h21.36.102_micRespv1l1_recorded\recording_micRespv1l1_2023-11-30_09h32.44.270.wav;676.3314442;676.8315272;None;676.3314442;676.3314442;676.3314442;676.3314442;676.3314442;676.3314442;;;;;;170101;1;2023-11-30_09h21.36.102;REPSWITCH1_version1_list1;2022.2.4;143.9457843;
REPSWITCH1/PICTURE_152.png;caracol;type;darkblue;nontarget;1;NT;2;2;1;1;Stim2_Set2;1;repeat;139;138;37;0;138;138;138;;;;;;;;;;;;;;;;;;;;;;;676.8315272;677.8733227;677.8733227;677.8733227;677.8733227;677.8733227;677.8733227;677.8733227;677.8733227;['c', 'a', 'r', 'a', 'c', 'o', 'l'];0;[0.9589551000390202, 1.1669545001350343, 1.3629270000383258, 1.5719540000427514, 1.7706171001773328, 1.891154000069946, 2.0665674000047147];caracol;C:\2023\REPSWITCH21092023\REPSWITCH_excgange\REPSWITCH_excgange\data/170101_REPSWITCH1_version1_list1_2023-11-30_09h21.36.102_micRespv1l1_recorded\recording_micRespv1l1_2023-11-30_09h32.48.833.wav;680.9015038;;None;680.9015038;680.9015038;680.9015038;680.9015038;680.9015038;680.9015038;;;;;;170101;1;2023-11-30_09h21.36.102;REPSWITCH1_version1_list1;2022.2.4;143.9457843;
REPSWITCH1/PICTURE_152.png;caracol;speak;gold;switch;2;T;2;2;1;1;Stim2_Set2;0;None;140;139;38;0;139;139;139;;;;;;;;;;;;;;;;;;;;;;;681.4015597;682.5822743;682.5822743;682.5822743;682.5822743;682.5822743;682.5822743;682.5822743;682.5822743;None;0;;;C:\2023\REPSWITCH21092023\REPSWITCH_excgange\REPSWITCH_excgange\data/170101_REPSWITCH1_version1_list1_2023-11-30_09h21.36.102_micRespv1l1_recorded\recording_micRespv1l1_2023-11-30_09h32.53.541.wav;685.6034894;686.10357;None;685.6034894;685.6034894;685.6034894;685.6034894;685.6034894;685.6034894;;;;;;170101;1;2023-11-30_09h21.36.102;REPSWITCH1_version1_list1;2022.2.4;143.9457843;
