image;correctAns;respModal;frameColor;repSwitch;sequence;target;set;block;list;exp_version;stimulus;baseline;baseline_condition;trial_no;psychopy_trial;Column1;trialsREPSWITCH.thisRepN;trialsREPSWITCH.thisTrialN;trialsREPSWITCH.thisN;trialsREPSWITCH.thisIndex;textWelcome.started;textboxInstrMain1.started;textboxInstrMain1_2.started;textboxInstrMain1_3.started;keyInstrMain.started;keyInstrMain.keys;keyInstrMain.rt;textboxInstrMain2.started;textboxInstrMain2_2.started;textboxInstrMain2_3.started;textboxInstrMain2_4.started;textboxInstrMain2_5.started;textboxInstrMain2_6.started;textboxInstrMain2_7.started;textboxInstrMain2_8.started;textboxInstrMain2_9.started;textboxInstrMain2_10.started;textboxInstrMain2_11.started;textboxInstrMain2_12.started;keyInstrMain2.started;keyInstrMain2.keys;keyInstrMain2.rt;fixationITI.started;fixationITI.stopped;polygonColour.started;polygonWhite.started;imageObject.started;polygonType.started;textInput.started;keyResp.started;micRespv1l1.started;keyResp.keys;keyResp.corr;keyResp.rt;subjResponse;micRespv1l1.clip;textBlankLoop.started;textBlankLoop.stopped;keyPause.keys;polygonColour.stopped;polygonWhite.stopped;imageObject.stopped;polygonType.stopped;textInput.stopped;keyResp.stopped;textboxPause.started;keyPause.started;keyPause.rt;textboxGoodbye.started;textboxGoodbye.stopped;participant;session;date;expName;psychopyVersion;frameRate;Column2
;;;;;;;;;;;;;;;;;;;;;7.63516609929502;10.128507299348712;10.128507299348712;10.128507299348712;10.128507299348712;space;5.974389300681651;;;;;;;;;;;;;;;;;;;;;;;;;;;;;;;;;;;;;;;;;;;;490101;001;2024-01-26_14h16.21.646;REPSWITCH1_version1_list1;2022.2.4;143.9853716453332;
;;;;;;;;;;;;;;;;;;;;;;;;;;;;16.122349900193512;16.122349900193512;16.122349900193512;16.122349900193512;16.122349900193512;16.122349900193512;16.122349900193512;16.122349900193512;16.122349900193512;16.122349900193512;16.122349900193512;16.122349900193512;16.122349900193512;space;0.522711000405252;;;;;;;;;;;;;;;;;;;;;;;;;;;;;490101;001;2024-01-26_14h16.21.646;REPSWITCH1_version1_list1;2022.2.4;143.9853716453332;
REPSWITCH1/PICTURE_340.png;espejo;type;darkblue;filler;1;F;1;1;1;1;Extra1;0;None;1;0;1;0;0;0;0;;;;;;;;;;;;;;;;;;;;;;;16.74050009995699;17.886517699807882;17.886517699807882;17.886517699807882;17.886517699807882;17.886517699807882;17.886517699807882;17.886517699807882;17.886517699807882;['e', 's', 'p', 'e', 'j', 'o'];0;[0.8575169993564487, 1.082757500000298, 1.2302591996267438, 1.3119799997657537, 1.8063447996973991, 1.8760979995131493];espejo;C:\2023\REPSWITCH21092023\REPSWITCH_excgange\REPSWITCH_excgange\data/490101_REPSWITCH1_version1_list1_2024-01-26_14h16.21.646_micRespv1l1_recorded\recording_micRespv1l1_2024-01-26_14h16.36.675.wav;20.90767669957131;21.407742399722338;None;;;;;;;;;;;;490101;001;2024-01-26_14h16.21.646;REPSWITCH1_version1_list1;2022.2.4;143.9853716453332;
REPSWITCH1/PICTURE_391.png;cadena;speak;gold;filler;2;F;1;1;1;1;Extra2;0;None;2;1;2;0;1;1;1;;;;;;;;;;;;;;;;;;;;;;;21.407742399722338;22.51209140010178;22.51209140010178;22.51209140010178;22.51209140010178;22.51209140010178;22.51209140010178;22.51209140010178;22.51209140010178;None;0;;;C:\2023\REPSWITCH21092023\REPSWITCH_excgange\REPSWITCH_excgange\data/490101_REPSWITCH1_version1_list1_2024-01-26_14h16.21.646_micRespv1l1_recorded\recording_micRespv1l1_2024-01-26_14h16.41.306.wav;25.54026009980589;;None;25.54026009980589;25.54026009980589;25.54026009980589;25.54026009980589;25.54026009980589;25.54026009980589;;;;;;490101;001;2024-01-26_14h16.21.646;REPSWITCH1_version1_list1;2022.2.4;143.9853716453332;
REPSWITCH1/PICTURE_178.png;puente;speak;gold;nontarget;2;NT;1;1;1;1;Stim1_Set1;1;repeat;3;2;3;0;2;2;2;;;;;;;;;;;;;;;;;;;;;;;26.040315699763596;27.15156240016222;27.15156240016222;27.15156240016222;27.15156240016222;27.15156240016222;27.15156240016222;27.15156240016222;27.15156240016222;None;0;;;C:\2023\REPSWITCH21092023\REPSWITCH_excgange\REPSWITCH_excgange\data/490101_REPSWITCH1_version1_list1_2024-01-26_14h16.21.646_micRespv1l1_recorded\recording_micRespv1l1_2024-01-26_14h16.45.944.wav;30.179727499373257;;None;30.179727499373257;30.179727499373257;30.179727499373257;30.179727499373257;30.179727499373257;30.179727499373257;;;;;;490101;001;2024-01-26_14h16.21.646;REPSWITCH1_version1_list1;2022.2.4;143.9853716453332;
REPSWITCH1/PICTURE_178.png;puente;speak;gold;repeat;2;T;1;1;1;1;Stim1_Set1;0;None;4;3;4;0;3;3;3;;;;;;;;;;;;;;;;;;;;;;;30.679816999472678;31.78418769966811;31.78418769966811;31.78418769966811;31.78418769966811;31.78418769966811;31.78418769966811;31.78418769966811;31.78418769966811;None;0;;;C:\2023\REPSWITCH21092023\REPSWITCH_excgange\REPSWITCH_excgange\data/490101_REPSWITCH1_version1_list1_2024-01-26_14h16.21.646_micRespv1l1_recorded\recording_micRespv1l1_2024-01-26_14h16.50.577.wav;34.81230979971588;;None;34.81230979971588;34.81230979971588;34.81230979971588;34.81230979971588;34.81230979971588;34.81230979971588;;;;;;490101;001;2024-01-26_14h16.21.646;REPSWITCH1_version1_list1;2022.2.4;143.9853716453332;
REPSWITCH1/PICTURE_319.png;vaca;type;darkblue;filler;1;F;1;1;1;1;Stim1_Set4;0;None;5;4;5;0;4;4;4;;;;;;;;;;;;;;;;;;;;;;;35.31236569955945;36.333325799554586;36.333325799554586;36.333325799554586;36.333325799554586;36.333325799554586;36.333325799554586;36.333325799554586;36.333325799554586;['v', 'a', 'c', 'a'];0;[0.902895599603653, 1.0643192995339632, 1.2157753994688392, 1.2985294992104173];vaca;C:\2023\REPSWITCH21092023\REPSWITCH_excgange\REPSWITCH_excgange\data/490101_REPSWITCH1_version1_list1_2024-01-26_14h16.21.646_micRespv1l1_recorded\recording_micRespv1l1_2024-01-26_14h16.55.125.wav;39.35453839972615;39.85460409987718;None;39.35453839972615;39.35453839972615;39.35453839972615;39.35453839972615;39.35453839972615;39.35453839972615;;;;;;490101;001;2024-01-26_14h16.21.646;REPSWITCH1_version1_list1;2022.2.4;143.9853716453332;
REPSWITCH1/PICTURE_381.png;fresa;speak;gold;nontarget;2;NT;1;1;1;1;Stim2_Set1;1;switch;6;5;6;0;5;5;5;;;;;;;;;;;;;;;;;;;;;;;39.85460409987718;40.917254799976945;40.917254799976945;40.917254799976945;40.917254799976945;40.917254799976945;40.917254799976945;40.917254799976945;40.917254799976945;None;0;;;C:\2023\REPSWITCH21092023\REPSWITCH_excgange\REPSWITCH_excgange\data/490101_REPSWITCH1_version1_list1_2024-01-26_14h16.21.646_micRespv1l1_recorded\recording_micRespv1l1_2024-01-26_14h16.59.710.wav;43.94544229935855;;None;43.94544229935855;43.94544229935855;43.94544229935855;43.94544229935855;43.94544229935855;43.94544229935855;;;;;;490101;001;2024-01-26_14h16.21.646;REPSWITCH1_version1_list1;2022.2.4;143.9853716453332;
REPSWITCH1/PICTURE_381.png;fresa;speak;gold;repeat;2;T;1;1;1;1;Stim2_Set1;0;None;7;6;7;0;6;6;6;;;;;;;;;;;;;;;;;;;;;;;44.445504299364984;45.466488500125706;45.466488500125706;45.466488500125706;45.466488500125706;45.466488500125706;45.466488500125706;45.466488500125706;45.466488500125706;None;0;;;C:\2023\REPSWITCH21092023\REPSWITCH_excgange\REPSWITCH_excgange\data/490101_REPSWITCH1_version1_list1_2024-01-26_14h16.21.646_micRespv1l1_recorded\recording_micRespv1l1_2024-01-26_14h17.04.259.wav;48.487685199826956;48.987749399617314;None;48.487685199826956;48.487685199826956;48.487685199826956;48.487685199826956;48.487685199826956;48.487685199826956;;;;;;490101;001;2024-01-26_14h16.21.646;REPSWITCH1_version1_list1;2022.2.4;143.9853716453332;
REPSWITCH1/PICTURE_719.png;baño;type;darkblue;filler;1;F;1;1;1;1;Stim2_Set4;1;switch;8;7;8;0;7;7;7;;;;;;;;;;;;;;;;;;;;;;;48.987749399617314;50.16854149941355;50.16854149941355;50.16854149941355;50.16854149941355;50.16854149941355;50.16854149941355;50.16854149941355;50.16854149941355;['b', 'a', 'ñ', 'o'];0;[0.94024289958179, 1.107694499194622, 1.2831516992300749, 1.4226179998368025];baño;C:\2023\REPSWITCH21092023\REPSWITCH_excgange\REPSWITCH_excgange\data/490101_REPSWITCH1_version1_list1_2024-01-26_14h16.21.646_micRespv1l1_recorded\recording_micRespv1l1_2024-01-26_14h17.08.961.wav;53.18969099968672;53.689774399623275;None;53.18969099968672;53.18969099968672;53.18969099968672;53.18969099968672;53.18969099968672;53.18969099968672;;;;;;490101;001;2024-01-26_14h16.21.646;REPSWITCH1_version1_list1;2022.2.4;143.9853716453332;
REPSWITCH1/PICTURE_135.png;traje;speak;gold;nontarget;2;NT;1;1;1;1;Stim3_Set1;0;None;9;8;9;0;8;8;8;;;;;;;;;;;;;;;;;;;;;;;53.689774399623275;54.82188950013369;54.82188950013369;54.82188950013369;54.82188950013369;54.82188950013369;54.82188950013369;54.82188950013369;54.82188950013369;None;0;;;C:\2023\REPSWITCH21092023\REPSWITCH_excgange\REPSWITCH_excgange\data/490101_REPSWITCH1_version1_list1_2024-01-26_14h16.21.646_micRespv1l1_recorded\recording_micRespv1l1_2024-01-26_14h17.13.614.wav;57.850061799399555;;None;57.850061799399555;57.850061799399555;57.850061799399555;57.850061799399555;57.850061799399555;57.850061799399555;;;;;;490101;001;2024-01-26_14h16.21.646;REPSWITCH1_version1_list1;2022.2.4;143.9853716453332;
REPSWITCH1/PICTURE_135.png;traje;type;darkblue;switch;1;T;1;1;1;1;Stim3_Set1;0;None;10;9;10;0;9;9;9;;;;;;;;;;;;;;;;;;;;;;;58.350110199302435;59.52386819943786;59.52386819943786;59.52386819943786;59.52386819943786;59.52386819943786;59.52386819943786;59.52386819943786;59.52386819943786;['t', 'r', 'a', 'j', 'e'];0;[0.8658670000731945, 0.9426053995266557, 1.1220198003575206, 1.2406307999044657, 1.3054018002003431];traje;C:\2023\REPSWITCH21092023\REPSWITCH_excgange\REPSWITCH_excgange\data/490101_REPSWITCH1_version1_list1_2024-01-26_14h16.21.646_micRespv1l1_recorded\recording_micRespv1l1_2024-01-26_14h17.18.316.wav;62.54507999960333;63.04513319954276;None;62.54507999960333;62.54507999960333;62.54507999960333;62.54507999960333;62.54507999960333;62.54507999960333;;;;;;490101;001;2024-01-26_14h16.21.646;REPSWITCH1_version1_list1;2022.2.4;143.9853716453332;
REPSWITCH1/PICTURE_687.png;camisa;speak;gold;filler;2;F;1;1;1;1;Stim5_Set4;0;None;11;10;11;0;10;10;10;;;;;;;;;;;;;;;;;;;;;;;63.04513319954276;64.11477029975504;64.11477029975504;64.11477029975504;64.11477029975504;64.11477029975504;64.11477029975504;64.11477029975504;64.11477029975504;None;0;;;C:\2023\REPSWITCH21092023\REPSWITCH_excgange\REPSWITCH_excgange\data/490101_REPSWITCH1_version1_list1_2024-01-26_14h16.21.646_micRespv1l1_recorded\recording_micRespv1l1_2024-01-26_14h17.22.906.wav;67.13599179964513;67.63604919984937;None;67.13599179964513;67.13599179964513;67.13599179964513;67.13599179964513;67.13599179964513;67.13599179964513;;;;;;490101;001;2024-01-26_14h16.21.646;REPSWITCH1_version1_list1;2022.2.4;143.9853716453332;
REPSWITCH1/PICTURE_128.png;muñeca;type;darkblue;nontarget;1;NT;1;1;1;1;Stim4_Set1;1;switch;12;11;12;0;11;11;11;;;;;;;;;;;;;;;;;;;;;;;67.63604919984937;68.69868369959295;68.69868369959295;68.69868369959295;68.69868369959295;68.69868369959295;68.69868369959295;68.69868369959295;68.69868369959295;['m', 'u', 'ñ', 'e', 'c', 'a'];0;[0.9540702002122998, 1.1972562996670604, 1.523166500031948, 1.6905934996902943, 1.9547269996255636, 2.0214566998183727];muñeca;C:\2023\REPSWITCH21092023\REPSWITCH_excgange\REPSWITCH_excgange\data/490101_REPSWITCH1_version1_list1_2024-01-26_14h16.21.646_micRespv1l1_recorded\recording_micRespv1l1_2024-01-26_14h17.27.491.wav;71.7199246995151;72.21998870000243;None;71.7199246995151;71.7199246995151;71.7199246995151;71.7199246995151;71.7199246995151;71.7199246995151;;;;;;490101;001;2024-01-26_14h16.21.646;REPSWITCH1_version1_list1;2022.2.4;143.9853716453332;
REPSWITCH1/PICTURE_128.png;muñeca;speak;gold;switch;2;T;1;1;1;1;Stim4_Set1;0;None;13;12;13;0;12;12;12;;;;;;;;;;;;;;;;;;;;;;;72.21998870000243;73.33818329963833;73.33818329963833;73.33818329963833;73.33818329963833;73.33818329963833;73.33818329963833;73.33818329963833;73.33818329963833;None;0;;;C:\2023\REPSWITCH21092023\REPSWITCH_excgange\REPSWITCH_excgange\data/490101_REPSWITCH1_version1_list1_2024-01-26_14h16.21.646_micRespv1l1_recorded\recording_micRespv1l1_2024-01-26_14h17.32.132.wav;76.36635329946876;;None;76.36635329946876;76.36635329946876;76.36635329946876;76.36635329946876;76.36635329946876;76.36635329946876;;;;;;490101;001;2024-01-26_14h16.21.646;REPSWITCH1_version1_list1;2022.2.4;143.9853716453332;
REPSWITCH1/PICTURE_8.png;pierna;speak;gold;filler;2;F;1;1;1;1;Stim3_Set4;0;None;14;13;14;0;13;13;13;;;;;;;;;;;;;;;;;;;;;;;76.86642829980701;77.92906759958714;77.92906759958714;77.92906759958714;77.92906759958714;77.92906759958714;77.92906759958714;77.92906759958714;77.92906759958714;None;0;;;C:\2023\REPSWITCH21092023\REPSWITCH_excgange\REPSWITCH_excgange\data/490101_REPSWITCH1_version1_list1_2024-01-26_14h16.21.646_micRespv1l1_recorded\recording_micRespv1l1_2024-01-26_14h17.36.721.wav;80.95029720012099;81.4503469998017;None;80.95029720012099;80.95029720012099;80.95029720012099;80.95029720012099;80.95029720012099;80.95029720012099;;;;;;490101;001;2024-01-26_14h16.21.646;REPSWITCH1_version1_list1;2022.2.4;143.9853716453332;
REPSWITCH1/PICTURE_19.png;pavo;speak;gold;nontarget;2;NT;1;1;1;1;Stim5_Set1;0;None;15;14;15;0;14;14;14;;;;;;;;;;;;;;;;;;;;;;;81.4503469998017;82.61025639995933;82.61025639995933;82.61025639995933;82.61025639995933;82.61025639995933;82.61025639995933;82.61025639995933;82.61025639995933;None;0;;;C:\2023\REPSWITCH21092023\REPSWITCH_excgange\REPSWITCH_excgange\data/490101_REPSWITCH1_version1_list1_2024-01-26_14h16.21.646_micRespv1l1_recorded\recording_micRespv1l1_2024-01-26_14h17.41.403.wav;85.63846109993756;;None;85.63846109993756;85.63846109993756;85.63846109993756;85.63846109993756;85.63846109993756;85.63846109993756;;;;;;490101;001;2024-01-26_14h16.21.646;REPSWITCH1_version1_list1;2022.2.4;143.9853716453332;
REPSWITCH1/PICTURE_19.png;pavo;type;darkblue;switch;1;T;1;1;1;1;Stim5_Set1;0;None;16;15;16;0;15;15;15;;;;;;;;;;;;;;;;;;;;;;;86.13847169931978;87.31230009999126;87.31230009999126;87.31230009999126;87.31230009999126;87.31230009999126;87.31230009999126;87.31230009999126;87.31230009999126;['p', 'a', 'v', 'o'];0;[0.8326000003144145, 0.9641526006162167, 1.154517000541091, 1.2312177000567317];pavo;C:\2023\REPSWITCH21092023\REPSWITCH_excgange\REPSWITCH_excgange\data/490101_REPSWITCH1_version1_list1_2024-01-26_14h16.21.646_micRespv1l1_recorded\recording_micRespv1l1_2024-01-26_14h17.46.106.wav;90.36820579972118;90.86826309934258;None;90.36820579972118;90.36820579972118;90.36820579972118;90.36820579972118;90.36820579972118;90.36820579972118;;;;;;490101;001;2024-01-26_14h16.21.646;REPSWITCH1_version1_list1;2022.2.4;143.9853716453332;
REPSWITCH1/PICTURE_16.png;cazador;type;darkblue;nontarget;1;NT;1;1;1;1;Stim6_Set1;1;switch;17;16;17;0;16;16;16;;;;;;;;;;;;;;;;;;;;;;;90.86826309934258;91.89616919960827;91.89616919960827;91.89616919960827;91.89616919960827;91.89616919960827;91.89616919960827;91.89616919960827;91.89616919960827;['c', 'a', 'z', 'a', 'd', 'o', 'r'];0;[1.0726083992049098, 1.2180992998182774, 1.4313869001343846, 1.6386959999799728, 1.7881940994411707, 1.9327288996428251, 2.023399000056088];cazador;C:\2023\REPSWITCH21092023\REPSWITCH_excgange\REPSWITCH_excgange\data/490101_REPSWITCH1_version1_list1_2024-01-26_14h16.21.646_micRespv1l1_recorded\recording_micRespv1l1_2024-01-26_14h17.50.688.wav;94.9173895996064;95.41747179999948;None;94.9173895996064;94.9173895996064;94.9173895996064;94.9173895996064;94.9173895996064;94.9173895996064;;;;;;490101;001;2024-01-26_14h16.21.646;REPSWITCH1_version1_list1;2022.2.4;143.9853716453332;
REPSWITCH1/PICTURE_16.png;cazador;type;darkblue;repeat;1;T;1;1;1;1;Stim6_Set1;0;None;18;17;18;0;17;17;17;;;;;;;;;;;;;;;;;;;;;;;95.41747179999948;96.48704050015658;96.48704050015658;96.48704050015658;96.48704050015658;96.48704050015658;96.48704050015658;96.48704050015658;96.48704050015658;['c', 'a', 'z', 'a', 'd', 'o', 'r', 'r', 'backspace'];0;[0.8232006002217531, 0.9248232999816537, 1.1820061998441815, 1.372358899563551, 1.4720251997932792, 1.6623897003009915, 1.709200399927795, 1.739131599664688, 2.4826071998104453];cazador;C:\2023\REPSWITCH21092023\REPSWITCH_excgange\REPSWITCH_excgange\data/490101_REPSWITCH1_version1_list1_2024-01-26_14h16.21.646_micRespv1l1_recorded\recording_micRespv1l1_2024-01-26_14h17.55.280.wav;99.51522579975426;;None;99.51522579975426;99.51522579975426;99.51522579975426;99.51522579975426;99.51522579975426;99.51522579975426;;;;;;490101;001;2024-01-26_14h16.21.646;REPSWITCH1_version1_list1;2022.2.4;143.9853716453332;
REPSWITCH1/PICTURE_498.png;taza;speak;gold;filler;2;F;1;1;1;1;Stim4_Set4;0;None;19;18;19;0;18;18;18;;;;;;;;;;;;;;;;;;;;;;;100.01527039986104;101.11264549940825;101.11264549940825;101.11264549940825;101.11264549940825;101.11264549940825;101.11264549940825;101.11264549940825;101.11264549940825;None;0;;;C:\2023\REPSWITCH21092023\REPSWITCH_excgange\REPSWITCH_excgange\data/490101_REPSWITCH1_version1_list1_2024-01-26_14h16.21.646_micRespv1l1_recorded\recording_micRespv1l1_2024-01-26_14h17.59.905.wav;104.1338905999437;104.63391769956797;None;104.1338905999437;104.1338905999437;104.1338905999437;104.1338905999437;104.1338905999437;104.1338905999437;;;;;;490101;001;2024-01-26_14h16.21.646;REPSWITCH1_version1_list1;2022.2.4;143.9853716453332;
REPSWITCH1/PICTURE_48.png;bombero;type;darkblue;filler;1;F;1;1;1;1;Stim7_Set4;0;None;20;19;20;0;19;19;19;;;;;;;;;;;;;;;;;;;;;;;104.63391769956797;105.71745579969138;105.71745579969138;105.71745579969138;105.71745579969138;105.71745579969138;105.71745579969138;105.71745579969138;105.71745579969138;['b', 'o', 'm', 'b', 'e', 'r', 'o'];0;[1.2016495997086167, 1.3351819990202785, 1.446819699369371, 1.5564488992094994, 1.7757265996187925, 1.9122184989973903, 2.0298662995919585];bombero;C:\2023\REPSWITCH21092023\REPSWITCH_excgange\REPSWITCH_excgange\data/490101_REPSWITCH1_version1_list1_2024-01-26_14h16.21.646_micRespv1l1_recorded\recording_micRespv1l1_2024-01-26_14h18.04.510.wav;108.75947629939765;109.25952429976314;None;108.75947629939765;108.75947629939765;108.75947629939765;108.75947629939765;108.75947629939765;108.75947629939765;;;;;;490101;001;2024-01-26_14h16.21.646;REPSWITCH1_version1_list1;2022.2.4;143.9853716453332;
REPSWITCH1/PICTURE_142.png;vaso;type;darkblue;nontarget;1;NT;1;1;1;1;Stim7_Set1;1;repeat;21;20;21;0;20;20;20;;;;;;;;;;;;;;;;;;;;;;;109.25952429976314;110.29441449977458;110.29441449977458;110.29441449977458;110.29441449977458;110.29441449977458;110.29441449977458;110.29441449977458;110.29441449977458;['v', 'a', 's', 'o'];0;[0.9821052998304367, 1.1804420994594693, 1.3728021997958422, 1.6598399998620152];vaso;C:\2023\REPSWITCH21092023\REPSWITCH_excgange\REPSWITCH_excgange\data/490101_REPSWITCH1_version1_list1_2024-01-26_14h16.21.646_micRespv1l1_recorded\recording_micRespv1l1_2024-01-26_14h18.09.087.wav;113.31562859937549;113.81576189957559;None;113.31562859937549;113.31562859937549;113.31562859937549;113.31562859937549;113.31562859937549;113.31562859937549;;;;;;490101;001;2024-01-26_14h16.21.646;REPSWITCH1_version1_list1;2022.2.4;143.9853716453332;
REPSWITCH1/PICTURE_142.png;vaso;type;darkblue;repeat;1;T;1;1;1;1;Stim7_Set1;0;None;22;21;22;0;21;21;21;;;;;;;;;;;;;;;;;;;;;;;113.81576189957559;114.86452429927886;114.86452429927886;114.86452429927886;114.86452429927886;114.86452429927886;114.86452429927886;114.86452429927886;114.86452429927886;['v', 'a', 's', 'o'];0;[0.8979896996170282, 1.0943374000489712, 1.1740373997017741, 1.3245641002431512];vaso;C:\2023\REPSWITCH21092023\REPSWITCH_excgange\REPSWITCH_excgange\data/490101_REPSWITCH1_version1_list1_2024-01-26_14h16.21.646_micRespv1l1_recorded\recording_micRespv1l1_2024-01-26_14h18.13.657.wav;117.8925990993157;;None;117.8925990993157;117.8925990993157;117.8925990993157;117.8925990993157;117.8925990993157;117.8925990993157;;;;;;490101;001;2024-01-26_14h16.21.646;REPSWITCH1_version1_list1;2022.2.4;143.9853716453332;
REPSWITCH1/PICTURE_338.png;regalo;speak;gold;filler;2;F;1;1;1;1;Stim6_Set4;1;switch;23;22;23;0;22;22;22;;;;;;;;;;;;;;;;;;;;;;;118.39268250018358;119.56645829975605;119.56645829975605;119.56645829975605;119.56645829975605;119.56645829975605;119.56645829975605;119.56645829975605;119.56645829975605;None;0;;;C:\2023\REPSWITCH21092023\REPSWITCH_excgange\REPSWITCH_excgange\data/490101_REPSWITCH1_version1_list1_2024-01-26_14h16.21.646_micRespv1l1_recorded\recording_micRespv1l1_2024-01-26_14h18.18.359.wav;122.58770379982889;123.08776539936662;None;122.58770379982889;122.58770379982889;122.58770379982889;122.58770379982889;122.58770379982889;122.58770379982889;;;;;;490101;001;2024-01-26_14h16.21.646;REPSWITCH1_version1_list1;2022.2.4;143.9853716453332;
REPSWITCH1/PICTURE_728.png;pulpo;type;darkblue;filler;1;F;1;1;1;1;Stim8_Set4;1;switch;24;23;24;0;23;23;23;;;;;;;;;;;;;;;;;;;;;;;123.08776539936662;124.10177559964359;124.10177559964359;124.10177559964359;124.10177559964359;124.10177559964359;124.10177559964359;124.10177559964359;124.10177559964359;['p', 'u', 'l', 'p', 'o'];0;[0.9705953998491168, 1.294517899863422, 1.7260813005268574, 1.89450510032475, 1.9981664000079036];pulpo;C:\2023\REPSWITCH21092023\REPSWITCH_excgange\REPSWITCH_excgange\data/490101_REPSWITCH1_version1_list1_2024-01-26_14h16.21.646_micRespv1l1_recorded\recording_micRespv1l1_2024-01-26_14h18.22.894.wav;127.12302479986101;127.62304640002549;None;127.12302479986101;127.12302479986101;127.12302479986101;127.12302479986101;127.12302479986101;127.12302479986101;;;;;;490101;001;2024-01-26_14h16.21.646;REPSWITCH1_version1_list1;2022.2.4;143.9853716453332;
REPSWITCH1/PICTURE_169.png;espalda;type;darkblue;nontarget;1;NT;1;1;1;1;Stim8_Set1;1;repeat;25;24;25;0;24;24;24;;;;;;;;;;;;;;;;;;;;;;;127.62304640002549;128.67180589959025;128.67180589959025;128.67180589959025;128.67180589959025;128.67180589959025;128.67180589959025;128.67180589959025;128.67180589959025;['e', 's', 'p', 'a', 'l', 'd', 'a'];0;[0.7660309001803398, 0.9613194996491075, 1.1137963999062777, 1.2373874001204967, 1.4157483000308275, 1.5662850001826882, 1.626056999899447];espalda;C:\2023\REPSWITCH21092023\REPSWITCH_excgange\REPSWITCH_excgange\data/490101_REPSWITCH1_version1_list1_2024-01-26_14h16.21.646_micRespv1l1_recorded\recording_micRespv1l1_2024-01-26_14h18.27.464.wav;131.6930267000571;132.19312559999526;None;131.6930267000571;131.6930267000571;131.6930267000571;131.6930267000571;131.6930267000571;131.6930267000571;;;;;;490101;001;2024-01-26_14h16.21.646;REPSWITCH1_version1_list1;2022.2.4;143.9853716453332;
REPSWITCH1/PICTURE_169.png;espalda;speak;gold;switch;2;T;1;1;1;1;Stim8_Set1;0;None;26;25;26;0;25;25;25;;;;;;;;;;;;;;;;;;;;;;;132.19312559999526;133.2905045999214;133.2905045999214;133.2905045999214;133.2905045999214;133.2905045999214;133.2905045999214;133.2905045999214;133.2905045999214;None;0;;;C:\2023\REPSWITCH21092023\REPSWITCH_excgange\REPSWITCH_excgange\data/490101_REPSWITCH1_version1_list1_2024-01-26_14h16.21.646_micRespv1l1_recorded\recording_micRespv1l1_2024-01-26_14h18.32.084.wav;136.31865089945495;;None;136.31865089945495;136.31865089945495;136.31865089945495;136.31865089945495;136.31865089945495;136.31865089945495;;;;;;490101;001;2024-01-26_14h16.21.646;REPSWITCH1_version1_list1;2022.2.4;143.9853716453332;
REPSWITCH1/PICTURE_178.png;puente;speak;gold;filler;2;F;2;1;1;1;Stim1_Set1;0;None;27;26;27;0;26;26;26;;;;;;;;;;;;;;;;;;;;;;;136.81870879977942;137.97866419982165;137.97866419982165;137.97866419982165;137.97866419982165;137.97866419982165;137.97866419982165;137.97866419982165;137.97866419982165;None;0;;;C:\2023\REPSWITCH21092023\REPSWITCH_excgange\REPSWITCH_excgange\data/490101_REPSWITCH1_version1_list1_2024-01-26_14h16.21.646_micRespv1l1_recorded\recording_micRespv1l1_2024-01-26_14h18.36.770.wav;140.999839999713;141.49990359973162;None;140.999839999713;140.999839999713;140.999839999713;140.999839999713;140.999839999713;140.999839999713;;;;;;490101;001;2024-01-26_14h16.21.646;REPSWITCH1_version1_list1;2022.2.4;143.9853716453332;
REPSWITCH1/PICTURE_175.png;pintor;type;darkblue;nontarget;1;NT;2;1;1;1;Stim1_Set2;1;switch;28;27;28;0;27;27;27;;;;;;;;;;;;;;;;;;;;;;;141.49990359973162;142.54168859962374;142.54168859962374;142.54168859962374;142.54168859962374;142.54168859962374;142.54168859962374;142.54168859962374;142.54168859962374;['p', 'i', 'n', 't', 'o', 'r'];0;[0.8254939001053572, 1.106555299833417, 1.1405023001134396, 1.3568063005805016, 1.4633708000183105, 1.5629786998033524];pintor;C:\2023\REPSWITCH21092023\REPSWITCH_excgange\REPSWITCH_excgange\data/490101_REPSWITCH1_version1_list1_2024-01-26_14h16.21.646_micRespv1l1_recorded\recording_micRespv1l1_2024-01-26_14h18.41.334.wav;145.56987199932337;;None;145.56987199932337;145.56987199932337;145.56987199932337;145.56987199932337;145.56987199932337;145.56987199932337;;;;;;490101;001;2024-01-26_14h16.21.646;REPSWITCH1_version1_list1;2022.2.4;143.9853716453332;
REPSWITCH1/PICTURE_175.png;pintor;type;darkblue;repeat;1;T;2;1;1;1;Stim1_Set2;0;None;29;28;29;0;28;28;28;;;;;;;;;;;;;;;;;;;;;;;146.0699543999508;147.14654219988734;147.14654219988734;147.14654219988734;147.14654219988734;147.14654219988734;147.14654219988734;147.14654219988734;147.14654219988734;['p', 'i', 'n', 't', 'o', 'r'];0;[0.606929199770093, 0.8791260002180934, 0.979679299518466, 1.1042649000883102, 1.2328639002516866, 1.3644318003207445];pintor;C:\2023\REPSWITCH21092023\REPSWITCH_excgange\REPSWITCH_excgange\data/490101_REPSWITCH1_version1_list1_2024-01-26_14h16.21.646_micRespv1l1_recorded\recording_micRespv1l1_2024-01-26_14h18.45.939.wav;150.1746178995818;150.67469289992005;None;150.1746178995818;150.1746178995818;150.1746178995818;150.1746178995818;150.1746178995818;150.1746178995818;;;;;;490101;001;2024-01-26_14h16.21.646;REPSWITCH1_version1_list1;2022.2.4;143.9853716453332;
REPSWITCH1/PICTURE_381.png;fresa;speak;gold;filler;2;F;2;1;1;1;Stim2_Set1;0;None;30;29;30;0;29;29;29;;;;;;;;;;;;;;;;;;;;;;;150.67469289992005;151.74429809954017;151.74429809954017;151.74429809954017;151.74429809954017;151.74429809954017;151.74429809954017;151.74429809954017;151.74429809954017;None;0;;;C:\2023\REPSWITCH21092023\REPSWITCH_excgange\REPSWITCH_excgange\data/490101_REPSWITCH1_version1_list1_2024-01-26_14h16.21.646_micRespv1l1_recorded\recording_micRespv1l1_2024-01-26_14h18.50.536.wav;154.77245539985597;;None;154.77245539985597;154.77245539985597;154.77245539985597;154.77245539985597;154.77245539985597;154.77245539985597;;;;;;490101;001;2024-01-26_14h16.21.646;REPSWITCH1_version1_list1;2022.2.4;143.9853716453332;
REPSWITCH1/PICTURE_152.png;caracol;type;darkblue;nontarget;1;NT;2;1;1;1;Stim2_Set2;1;switch;31;30;31;0;30;30;30;;;;;;;;;;;;;;;;;;;;;;;155.27250640001148;156.34905970003456;156.34905970003456;156.34905970003456;156.34905970003456;156.34905970003456;156.34905970003456;156.34905970003456;156.34905970003456;['c', 'a', 'r', 'a', 'c', 'o', 'l'];0;[0.9694610005244613, 1.113968400284648, 1.246483400464058, 1.3571610003709793, 1.7169583002105355, 1.8933621998876333, 2.0668571004644036];caracol;C:\2023\REPSWITCH21092023\REPSWITCH_excgange\REPSWITCH_excgange\data/490101_REPSWITCH1_version1_list1_2024-01-26_14h16.21.646_micRespv1l1_recorded\recording_micRespv1l1_2024-01-26_14h18.55.142.wav;159.37028119992465;159.87036880012602;None;159.37028119992465;159.37028119992465;159.37028119992465;159.37028119992465;159.37028119992465;159.37028119992465;;;;;;490101;001;2024-01-26_14h16.21.646;REPSWITCH1_version1_list1;2022.2.4;143.9853716453332;
REPSWITCH1/PICTURE_152.png;caracol;type;darkblue;repeat;1;T;2;1;1;1;Stim2_Set2;0;None;32;31;32;0;31;31;31;;;;;;;;;;;;;;;;;;;;;;;159.87036880012602;160.9121741000563;160.9121741000563;160.9121741000563;160.9121741000563;160.9121741000563;160.9121741000563;160.9121741000563;160.9121741000563;['c', 'a', 'r', 'a', 'c', 'o', 'l'];0;[0.5654298001900315, 0.7059151995927095, 0.8355312999337912, 0.9242305001243949, 1.09172029979527, 1.1873369999229908, 1.3428309001028538];caracol;C:\2023\REPSWITCH21092023\REPSWITCH_excgange\REPSWITCH_excgange\data/490101_REPSWITCH1_version1_list1_2024-01-26_14h16.21.646_micRespv1l1_recorded\recording_micRespv1l1_2024-01-26_14h18.59.705.wav;163.9403502997011;164.44041879940778;None;163.9403502997011;163.9403502997011;163.9403502997011;163.9403502997011;163.9403502997011;163.9403502997011;;;;;;490101;001;2024-01-26_14h16.21.646;REPSWITCH1_version1_list1;2022.2.4;143.9853716453332;
REPSWITCH1/PICTURE_128.png;muñeca;speak;gold;filler;2;F;2;1;1;1;Stim4_Set1;0;None;33;32;33;0;32;32;32;;;;;;;;;;;;;;;;;;;;;;;164.44041879940778;165.55165219958872;165.55165219958872;165.55165219958872;165.55165219958872;165.55165219958872;165.55165219958872;165.55165219958872;165.55165219958872;None;0;;;C:\2023\REPSWITCH21092023\REPSWITCH_excgange\REPSWITCH_excgange\data/490101_REPSWITCH1_version1_list1_2024-01-26_14h16.21.646_micRespv1l1_recorded\recording_micRespv1l1_2024-01-26_14h19.04.344.wav;168.5729434993118;169.07296829950064;None;168.5729434993118;168.5729434993118;168.5729434993118;168.5729434993118;168.5729434993118;168.5729434993118;;;;;;490101;001;2024-01-26_14h16.21.646;REPSWITCH1_version1_list1;2022.2.4;143.9853716453332;
REPSWITCH1/PICTURE_264.png;mano;type;darkblue;nontarget;1;NT;2;1;1;1;Stim3_Set2;0;None;34;33;34;0;33;33;33;;;;;;;;;;;;;;;;;;;;;;;169.07296829950064;170.1217773994431;170.1217773994431;170.1217773994431;170.1217773994431;170.1217773994431;170.1217773994431;170.1217773994431;170.1217773994431;['m', 'a', 'n', 'o'];0;[0.9407280003651977, 1.0773713001981378, 1.1899295002222061, 1.3633479001000524];mano;C:\2023\REPSWITCH21092023\REPSWITCH_excgange\REPSWITCH_excgange\data/490101_REPSWITCH1_version1_list1_2024-01-26_14h16.21.646_micRespv1l1_recorded\recording_micRespv1l1_2024-01-26_14h19.08.914.wav;173.14294819999486;173.64297119993716;None;173.14294819999486;173.14294819999486;173.14294819999486;173.14294819999486;173.14294819999486;173.14294819999486;;;;;;490101;001;2024-01-26_14h16.21.646;REPSWITCH1_version1_list1;2022.2.4;143.9853716453332;
REPSWITCH1/PICTURE_264.png;mano;speak;gold;switch;2;T;2;1;1;1;Stim3_Set2;0;None;35;34;35;0;34;34;34;;;;;;;;;;;;;;;;;;;;;;;173.64297119993716;174.69177049957216;174.69177049957216;174.69177049957216;174.69177049957216;174.69177049957216;174.69177049957216;174.69177049957216;174.69177049957216;None;0;;;C:\2023\REPSWITCH21092023\REPSWITCH_excgange\REPSWITCH_excgange\data/490101_REPSWITCH1_version1_list1_2024-01-26_14h16.21.646_micRespv1l1_recorded\recording_micRespv1l1_2024-01-26_14h19.13.484.wav;177.71296789962798;178.21305119991302;None;177.71296789962798;177.71296789962798;177.71296789962798;177.71296789962798;177.71296789962798;177.71296789962798;;;;;;490101;001;2024-01-26_14h16.21.646;REPSWITCH1_version1_list1;2022.2.4;143.9853716453332;
REPSWITCH1/PICTURE_517.png;cuerda;speak;gold;nontarget;2;NT;2;1;1;1;Stim4_Set2;1;repeat;36;35;36;0;35;35;35;;;;;;;;;;;;;;;;;;;;;;;178.21305119991302;179.32432859949768;179.32432859949768;179.32432859949768;179.32432859949768;179.32432859949768;179.32432859949768;179.32432859949768;179.32432859949768;None;0;;;C:\2023\REPSWITCH21092023\REPSWITCH_excgange\REPSWITCH_excgange\data/490101_REPSWITCH1_version1_list1_2024-01-26_14h16.21.646_micRespv1l1_recorded\recording_micRespv1l1_2024-01-26_14h19.18.117.wav;182.35245609935373;;None;182.35245609935373;182.35245609935373;182.35245609935373;182.35245609935373;182.35245609935373;182.35245609935373;;;;;;490101;001;2024-01-26_14h16.21.646;REPSWITCH1_version1_list1;2022.2.4;143.9853716453332;
REPSWITCH1/PICTURE_517.png;cuerda;type;darkblue;switch;1;T;2;1;1;1;Stim4_Set2;0;None;37;36;37;0;36;36;36;;;;;;;;;;;;;;;;;;;;;;;182.85252609942108;184.08187519945204;184.08187519945204;184.08187519945204;184.08187519945204;184.08187519945204;184.08187519945204;184.08187519945204;184.08187519945204;['c', 'u', 'e', 'r', 'd', 'a'];0;[0.6738400999456644, 0.8273157998919487, 0.9350022999569774, 1.027636299841106, 1.1771970996633172, 1.2499396996572614];cuerda;C:\2023\REPSWITCH21092023\REPSWITCH_excgange\REPSWITCH_excgange\data/490101_REPSWITCH1_version1_list1_2024-01-26_14h16.21.646_micRespv1l1_recorded\recording_micRespv1l1_2024-01-26_14h19.22.874.wav;187.1030735000968;187.60317530017346;None;187.1030735000968;187.1030735000968;187.1030735000968;187.1030735000968;187.1030735000968;187.1030735000968;;;;;;490101;001;2024-01-26_14h16.21.646;REPSWITCH1_version1_list1;2022.2.4;143.9853716453332;
REPSWITCH1/PICTURE_135.png;traje;type;darkblue;filler;1;F;2;1;1;1;Stim3_Set1;0;None;38;37;38;0;37;37;37;;;;;;;;;;;;;;;;;;;;;;;187.60317530017346;188.63810209929943;188.63810209929943;188.63810209929943;188.63810209929943;188.63810209929943;188.63810209929943;188.63810209929943;188.63810209929943;['t', 'r', 'a', 'j', 'e'];0;[1.4029999999329448, 1.5046186996623874, 1.693983099423349, 1.7836813991889358, 1.8653691997751594];traje;C:\2023\REPSWITCH21092023\REPSWITCH_excgange\REPSWITCH_excgange\data/490101_REPSWITCH1_version1_list1_2024-01-26_14h16.21.646_micRespv1l1_recorded\recording_micRespv1l1_2024-01-26_14h19.27.431.wav;191.65926609933376;192.15932609979063;None;191.65926609933376;191.65926609933376;191.65926609933376;191.65926609933376;191.65926609933376;191.65926609933376;;;;;;490101;001;2024-01-26_14h16.21.646;REPSWITCH1_version1_list1;2022.2.4;143.9853716453332;
REPSWITCH1/PICTURE_30.png;granja;type;darkblue;nontarget;1;NT;2;1;1;1;Stim5_Set2;1;repeat;39;38;39;0;38;38;38;;;;;;;;;;;;;;;;;;;;;;;192.15932609979063;193.29837339930236;193.29837339930236;193.29837339930236;193.29837339930236;193.29837339930236;193.29837339930236;193.29837339930236;193.29837339930236;['g', 'r', 'a', 'n', 'j', 'a'];0;[1.76289870031178, 1.8326697004958987, 1.9920823005959392, 2.0728608006611466, 2.146567599847913, 2.2193611999973655];granja;C:\2023\REPSWITCH21092023\REPSWITCH_excgange\REPSWITCH_excgange\data/490101_REPSWITCH1_version1_list1_2024-01-26_14h16.21.646_micRespv1l1_recorded\recording_micRespv1l1_2024-01-26_14h19.32.091.wav;196.32652399968356;;None;196.32652399968356;196.32652399968356;196.32652399968356;196.32652399968356;196.32652399968356;196.32652399968356;;;;;;490101;001;2024-01-26_14h16.21.646;REPSWITCH1_version1_list1;2022.2.4;143.9853716453332;
REPSWITCH1/PICTURE_30.png;granja;speak;gold;switch;2;T;2;1;1;1;Stim5_Set2;0;None;40;39;40;0;39;39;39;;;;;;;;;;;;;;;;;;;;;;;196.8265788992867;197.95867889933288;197.95867889933288;197.95867889933288;197.95867889933288;197.95867889933288;197.95867889933288;197.95867889933288;197.95867889933288;None;0;;;C:\2023\REPSWITCH21092023\REPSWITCH_excgange\REPSWITCH_excgange\data/490101_REPSWITCH1_version1_list1_2024-01-26_14h16.21.646_micRespv1l1_recorded\recording_micRespv1l1_2024-01-26_14h19.36.752.wav;200.98688189964741;;None;200.98688189964741;200.98688189964741;200.98688189964741;200.98688189964741;200.98688189964741;200.98688189964741;;;;;;490101;001;2024-01-26_14h16.21.646;REPSWITCH1_version1_list1;2022.2.4;143.9853716453332;
REPSWITCH1/PICTURE_142.png;vaso;type;darkblue;filler;1;F;2;1;1;1;Stim7_Set1;0;None;41;40;41;0;40;40;40;;;;;;;;;;;;;;;;;;;;;;;201.48690329957753;202.58429310005158;202.58429310005158;202.58429310005158;202.58429310005158;202.58429310005158;202.58429310005158;202.58429310005158;202.58429310005158;['v', 'a', 's', 'o'];0;[0.7085514003410935, 0.8649223996326327, 0.9615994999185205, 1.076210799627006];vaso;C:\2023\REPSWITCH21092023\REPSWITCH_excgange\REPSWITCH_excgange\data/490101_REPSWITCH1_version1_list1_2024-01-26_14h16.21.646_micRespv1l1_recorded\recording_micRespv1l1_2024-01-26_14h19.41.377.wav;205.60550969932228;206.1055618999526;None;205.60550969932228;205.60550969932228;205.60550969932228;205.60550969932228;205.60550969932228;205.60550969932228;;;;;;490101;001;2024-01-26_14h16.21.646;REPSWITCH1_version1_list1;2022.2.4;143.9853716453332;
REPSWITCH1/PICTURE_19.png;pavo;speak;gold;filler;2;F;2;1;1;1;Stim5_Set1;1;switch;42;41;42;0;41;41;41;;;;;;;;;;;;;;;;;;;;;;;206.1055618999526;207.2515632994473;207.2515632994473;207.2515632994473;207.2515632994473;207.2515632994473;207.2515632994473;207.2515632994473;207.2515632994473;None;0;;;C:\2023\REPSWITCH21092023\REPSWITCH_excgange\REPSWITCH_excgange\data/490101_REPSWITCH1_version1_list1_2024-01-26_14h16.21.646_micRespv1l1_recorded\recording_micRespv1l1_2024-01-26_14h19.46.045.wav;210.27279749978334;210.77284230012447;None;210.27279749978334;210.27279749978334;210.27279749978334;210.27279749978334;210.27279749978334;210.27279749978334;;;;;;490101;001;2024-01-26_14h16.21.646;REPSWITCH1_version1_list1;2022.2.4;143.9853716453332;
REPSWITCH1/PICTURE_552.png;manzana;speak;gold;nontarget;2;NT;2;1;1;1;Stim6_Set2;1;repeat;43;42;43;0;42;42;42;;;;;;;;;;;;;;;;;;;;;;;210.77284230012447;211.93282919935882;211.93282919935882;211.93282919935882;211.93282919935882;211.93282919935882;211.93282919935882;211.93282919935882;211.93282919935882;None;0;;;C:\2023\REPSWITCH21092023\REPSWITCH_excgange\REPSWITCH_excgange\data/490101_REPSWITCH1_version1_list1_2024-01-26_14h16.21.646_micRespv1l1_recorded\recording_micRespv1l1_2024-01-26_14h19.50.725.wav;214.95396269951016;215.45405409950763;None;214.95396269951016;214.95396269951016;214.95396269951016;214.95396269951016;214.95396269951016;214.95396269951016;;;;;;490101;001;2024-01-26_14h16.21.646;REPSWITCH1_version1_list1;2022.2.4;143.9853716453332;
REPSWITCH1/PICTURE_552.png;manzana;speak;gold;repeat;2;T;2;1;1;1;Stim6_Set2;0;None;44;43;44;0;43;43;43;;;;;;;;;;;;;;;;;;;;;;;215.45405409950763;216.63476539961994;216.63476539961994;216.63476539961994;216.63476539961994;216.63476539961994;216.63476539961994;216.63476539961994;216.63476539961994;None;0;;;C:\2023\REPSWITCH21092023\REPSWITCH_excgange\REPSWITCH_excgange\data/490101_REPSWITCH1_version1_list1_2024-01-26_14h16.21.646_micRespv1l1_recorded\recording_micRespv1l1_2024-01-26_14h19.55.427.wav;219.6629380993545;;None;219.6629380993545;219.6629380993545;219.6629380993545;219.6629380993545;219.6629380993545;219.6629380993545;;;;;;490101;001;2024-01-26_14h16.21.646;REPSWITCH1_version1_list1;2022.2.4;143.9853716453332;
REPSWITCH1/PICTURE_16.png;cazador;type;darkblue;filler;1;F;2;1;1;1;Stim6_Set1;0;None;45;44;45;0;44;44;44;;;;;;;;;;;;;;;;;;;;;;;220.16299830004573;221.33675310015678;221.33675310015678;221.33675310015678;221.33675310015678;221.33675310015678;221.33675310015678;221.33675310015678;221.33675310015678;['c', 'a', 'z', 'a', 'd', 'o', 'r'];0;[0.8707101000472903, 1.023203399963677, 1.2285192999988794, 1.4038952002301812, 1.5026018004864454, 1.6460766000673175, 1.7338166004046798];cazador;C:\2023\REPSWITCH21092023\REPSWITCH_excgange\REPSWITCH_excgange\data/490101_REPSWITCH1_version1_list1_2024-01-26_14h16.21.646_micRespv1l1_recorded\recording_micRespv1l1_2024-01-26_14h20.00.129.wav;224.3649803996086;;None;224.3649803996086;224.3649803996086;224.3649803996086;224.3649803996086;224.3649803996086;224.3649803996086;;;;;;490101;001;2024-01-26_14h16.21.646;REPSWITCH1_version1_list1;2022.2.4;143.9853716453332;
REPSWITCH1/PICTURE_446.png;cerdo;speak;gold;nontarget;2;NT;2;1;1;1;Stim7_Set2;1;switch;46;45;46;0;45;45;45;;;;;;;;;;;;;;;;;;;;;;;224.8650054000318;225.95543869957328;225.95543869957328;225.95543869957328;225.95543869957328;225.95543869957328;225.95543869957328;225.95543869957328;225.95543869957328;None;0;;;C:\2023\REPSWITCH21092023\REPSWITCH_excgange\REPSWITCH_excgange\data/490101_REPSWITCH1_version1_list1_2024-01-26_14h16.21.646_micRespv1l1_recorded\recording_micRespv1l1_2024-01-26_14h20.04.748.wav;228.9835831997916;;None;228.9835831997916;228.9835831997916;228.9835831997916;228.9835831997916;228.9835831997916;228.9835831997916;;;;;;490101;001;2024-01-26_14h16.21.646;REPSWITCH1_version1_list1;2022.2.4;143.9853716453332;
REPSWITCH1/PICTURE_446.png;cerdo;speak;gold;repeat;2;T;2;1;1;1;Stim7_Set2;0;None;47;46;47;0;46;46;46;;;;;;;;;;;;;;;;;;;;;;;229.48364190012217;230.60195370018482;230.60195370018482;230.60195370018482;230.60195370018482;230.60195370018482;230.60195370018482;230.60195370018482;230.60195370018482;None;0;;;C:\2023\REPSWITCH21092023\REPSWITCH_excgange\REPSWITCH_excgange\data/490101_REPSWITCH1_version1_list1_2024-01-26_14h16.21.646_micRespv1l1_recorded\recording_micRespv1l1_2024-01-26_14h20.09.394.wav;233.62310570012778;234.123164399527;None;233.62310570012778;233.62310570012778;233.62310570012778;233.62310570012778;233.62310570012778;233.62310570012778;;;;;;490101;001;2024-01-26_14h16.21.646;REPSWITCH1_version1_list1;2022.2.4;143.9853716453332;
REPSWITCH1/PICTURE_590.png;escoba;type;darkblue;filler;1;F;2;1;1;1;Extra3;0;None;48;47;48;0;47;47;47;;;;;;;;;;;;;;;;;;;;;;;234.123164399527;235.3663881001994;235.3663881001994;235.3663881001994;235.3663881001994;235.3663881001994;235.3663881001994;235.3663881001994;235.3663881001994;['e', 's', 'c', 'o', 'b', 'a'];0;[0.8223205003887415, 1.018656900152564, 1.190077600069344, 1.302763500250876, 1.4312322000041604, 1.6276165004819632];escoba;C:\2023\REPSWITCH21092023\REPSWITCH_excgange\REPSWITCH_excgange\data/490101_REPSWITCH1_version1_list1_2024-01-26_14h16.21.646_micRespv1l1_recorded\recording_micRespv1l1_2024-01-26_14h20.14.160.wav;238.39451930020005;;None;238.39451930020005;238.39451930020005;238.39451930020005;238.39451930020005;238.39451930020005;238.39451930020005;;;;;;490101;001;2024-01-26_14h16.21.646;REPSWITCH1_version1_list1;2022.2.4;143.9853716453332;
REPSWITCH1/PICTURE_169.png;espalda;speak;gold;filler;2;F;2;1;1;1;Stim8_Set1;0;None;49;48;49;0;48;48;48;;;;;;;;;;;;;;;;;;;;;;;238.89460179954767;240.05447909981012;240.05447909981012;240.05447909981012;240.05447909981012;240.05447909981012;240.05447909981012;240.05447909981012;240.05447909981012;None;0;;;C:\2023\REPSWITCH21092023\REPSWITCH_excgange\REPSWITCH_excgange\data/490101_REPSWITCH1_version1_list1_2024-01-26_14h16.21.646_micRespv1l1_recorded\recording_micRespv1l1_2024-01-26_14h20.18.848.wav;243.0826822994277;;None;243.0826822994277;243.0826822994277;243.0826822994277;243.0826822994277;243.0826822994277;243.0826822994277;;;;;;490101;001;2024-01-26_14h16.21.646;REPSWITCH1_version1_list1;2022.2.4;143.9853716453332;
REPSWITCH1/PICTURE_199.png;falda;speak;gold;nontarget;2;NT;2;1;1;1;Stim8_Set2;1;repeat;50;49;50;0;49;49;49;;;;;;;;;;;;;;;;;;;;;;;243.58274029940367;244.70793459936976;244.70793459936976;244.70793459936976;244.70793459936976;244.70793459936976;244.70793459936976;244.70793459936976;244.70793459936976;None;0;;;C:\2023\REPSWITCH21092023\REPSWITCH_excgange\REPSWITCH_excgange\data/490101_REPSWITCH1_version1_list1_2024-01-26_14h16.21.646_micRespv1l1_recorded\recording_micRespv1l1_2024-01-26_14h20.23.500.wav;247.72909849975258;248.22918100003153;None;247.72909849975258;247.72909849975258;247.72909849975258;247.72909849975258;247.72909849975258;247.72909849975258;;;;;;490101;001;2024-01-26_14h16.21.646;REPSWITCH1_version1_list1;2022.2.4;143.9853716453332;
REPSWITCH1/PICTURE_199.png;falda;type;darkblue;switch;1;T;2;1;1;1;Stim8_Set2;0;None;51;50;51;0;50;50;50;;;;;;;;;;;;;;;;;;;;;;;248.22918100003153;249.305776999332;249.305776999332;249.305776999332;249.305776999332;249.305776999332;249.305776999332;249.305776999332;249.305776999332;['f', 'a', 'l', 'd', 'a'];0;[1.1472255997359753, 1.2468791995197535, 1.37146719917655, 1.4452262995764613, 1.5100050000473857];falda;C:\2023\REPSWITCH21092023\REPSWITCH_excgange\REPSWITCH_excgange\data/490101_REPSWITCH1_version1_list1_2024-01-26_14h16.21.646_micRespv1l1_recorded\recording_micRespv1l1_2024-01-26_14h20.28.099.wav;252.33386049978435;;space;252.33386049978435;252.33386049978435;252.33386049978435;252.33386049978435;252.33386049978435;252.33386049978435;252.8339530993253;252.8339530993253;3.9707931000739336;;;490101;001;2024-01-26_14h16.21.646;REPSWITCH1_version1_list1;2022.2.4;143.9853716453332;
REPSWITCH1/PICTURE_576.png;guante;type;darkblue;nontarget;1;NT;3;1;1;1;Stim1_Set3;0;None;52;51;52;0;51;51;51;;;;;;;;;;;;;;;;;;;;;;;256.81362049933523;257.9735783999786;257.9735783999786;257.9735783999786;257.9735783999786;257.9735783999786;257.9735783999786;257.9735783999786;257.9735783999786;['g', 'u', 'a', 'n', 't', 'e'];0;[0.8962188996374607, 1.0527326995506883, 1.1533941999077797, 1.2829494997859001, 1.3786339992657304, 1.4763115998357534];guante;C:\2023\REPSWITCH21092023\REPSWITCH_excgange\REPSWITCH_excgange\data/490101_REPSWITCH1_version1_list1_2024-01-26_14h16.21.646_micRespv1l1_recorded\recording_micRespv1l1_2024-01-26_14h20.36.766.wav;260.99477639980614;261.4948138995096;None;260.99477639980614;260.99477639980614;260.99477639980614;260.99477639980614;260.99477639980614;260.99477639980614;;;;;;490101;001;2024-01-26_14h16.21.646;REPSWITCH1_version1_list1;2022.2.4;143.9853716453332;
REPSWITCH1/PICTURE_576.png;guante;speak;gold;switch;2;T;3;1;1;1;Stim1_Set3;0;None;53;52;53;0;52;52;52;;;;;;;;;;;;;;;;;;;;;;;261.4948138995096;262.7172173000872;262.7172173000872;262.7172173000872;262.7172173000872;262.7172173000872;262.7172173000872;262.7172173000872;262.7172173000872;None;0;;;C:\2023\REPSWITCH21092023\REPSWITCH_excgange\REPSWITCH_excgange\data/490101_REPSWITCH1_version1_list1_2024-01-26_14h16.21.646_micRespv1l1_recorded\recording_micRespv1l1_2024-01-26_14h20.41.510.wav;265.73839939944446;266.2385382996872;None;265.73839939944446;265.73839939944446;265.73839939944446;265.73839939944446;265.73839939944446;265.73839939944446;;;;;;490101;001;2024-01-26_14h16.21.646;REPSWITCH1_version1_list1;2022.2.4;143.9853716453332;
REPSWITCH1/PICTURE_646.png;tronco;speak;gold;filler;2;F;3;1;1;1;Extra4;0;None;54;53;54;0;53;53;53;;;;;;;;;;;;;;;;;;;;;;;266.2385382996872;267.3289286000654;267.3289286000654;267.3289286000654;267.3289286000654;267.3289286000654;267.3289286000654;267.3289286000654;267.3289286000654;None;0;;;C:\2023\REPSWITCH21092023\REPSWITCH_excgange\REPSWITCH_excgange\data/490101_REPSWITCH1_version1_list1_2024-01-26_14h16.21.646_micRespv1l1_recorded\recording_micRespv1l1_2024-01-26_14h20.46.121.wav;270.350153199397;270.8502072999254;None;270.350153199397;270.350153199397;270.350153199397;270.350153199397;270.350153199397;270.350153199397;;;;;;490101;001;2024-01-26_14h16.21.646;REPSWITCH1_version1_list1;2022.2.4;143.9853716453332;
REPSWITCH1/PICTURE_610.png;miel;speak;gold;nontarget;2;NT;3;1;1;1;Stim2_Set3;1;repeat;55;54;55;0;54;54;54;;;;;;;;;;;;;;;;;;;;;;;270.8502072999254;271.91981589980423;271.91981589980423;271.91981589980423;271.91981589980423;271.91981589980423;271.91981589980423;271.91981589980423;271.91981589980423;None;0;;;C:\2023\REPSWITCH21092023\REPSWITCH_excgange\REPSWITCH_excgange\data/490101_REPSWITCH1_version1_list1_2024-01-26_14h16.21.646_micRespv1l1_recorded\recording_micRespv1l1_2024-01-26_14h20.50.712.wav;274.94102369993925;275.44108559936285;None;274.94102369993925;274.94102369993925;274.94102369993925;274.94102369993925;274.94102369993925;274.94102369993925;;;;;;490101;001;2024-01-26_14h16.21.646;REPSWITCH1_version1_list1;2022.2.4;143.9853716453332;
REPSWITCH1/PICTURE_610.png;miel;type;darkblue;switch;1;T;3;1;1;1;Stim2_Set3;0;None;56;55;56;0;55;55;55;;;;;;;;;;;;;;;;;;;;;;;275.44108559936285;276.6148766996339;276.6148766996339;276.6148766996339;276.6148766996339;276.6148766996339;276.6148766996339;276.6148766996339;276.6148766996339;['m', 'i', 'e', 'l'];0;[0.5786270992830396, 0.7899605995044112, 0.9334904998540878, 1.0451049990952015];miel;C:\2023\REPSWITCH21092023\REPSWITCH_excgange\REPSWITCH_excgange\data/490101_REPSWITCH1_version1_list1_2024-01-26_14h16.21.646_micRespv1l1_recorded\recording_micRespv1l1_2024-01-26_14h20.55.408.wav;279.6430273996666;;None;279.6430273996666;279.6430273996666;279.6430273996666;279.6430273996666;279.6430273996666;279.6430273996666;;;;;;490101;001;2024-01-26_14h16.21.646;REPSWITCH1_version1_list1;2022.2.4;143.9853716453332;
REPSWITCH1/PICTURE_175.png;pintor;type;darkblue;filler;1;F;3;1;1;1;Stim1_Set2;1;repeat;57;56;57;0;56;56;56;;;;;;;;;;;;;;;;;;;;;;;280.1430941997096;281.19876969978213;281.19876969978213;281.19876969978213;281.19876969978213;281.19876969978213;281.19876969978213;281.19876969978213;281.19876969978213;['p', 'i', 'n', 't', 'o', 'r'];0;[0.8455616999417543, 1.0220152996480465, 1.117629500105977, 1.251189200207591, 1.3398911003023386, 1.4505241997539997];pintor;C:\2023\REPSWITCH21092023\REPSWITCH_excgange\REPSWITCH_excgange\data/490101_REPSWITCH1_version1_list1_2024-01-26_14h16.21.646_micRespv1l1_recorded\recording_micRespv1l1_2024-01-26_14h20.59.991.wav;284.21998799964786;284.7200913000852;None;284.21998799964786;284.21998799964786;284.21998799964786;284.21998799964786;284.21998799964786;284.21998799964786;;;;;;490101;001;2024-01-26_14h16.21.646;REPSWITCH1_version1_list1;2022.2.4;143.9853716453332;
REPSWITCH1/PICTURE_242.png;cartero;type;darkblue;nontarget;1;NT;3;1;1;1;Stim3_Set3;1;repeat;58;57;58;0;57;57;57;;;;;;;;;;;;;;;;;;;;;;;284.7200913000852;285.845245199278;285.845245199278;285.845245199278;285.845245199278;285.845245199278;285.845245199278;285.845245199278;285.845245199278;['c', 'a', 'r', 't', 'e'];0;[1.6648039994761348, 2.399338399991393, 2.613615700043738, 2.796066500246525, 2.8936725994572043];carte;C:\2023\REPSWITCH21092023\REPSWITCH_excgange\REPSWITCH_excgange\data/490101_REPSWITCH1_version1_list1_2024-01-26_14h16.21.646_micRespv1l1_recorded\recording_micRespv1l1_2024-01-26_14h21.04.638.wav;288.86644640006125;289.3665004996583;None;288.86644640006125;288.86644640006125;288.86644640006125;288.86644640006125;288.86644640006125;288.86644640006125;;;;;;490101;001;2024-01-26_14h16.21.646;REPSWITCH1_version1_list1;2022.2.4;143.9853716453332;
REPSWITCH1/PICTURE_242.png;cartero;speak;gold;switch;2;T;3;1;1;1;Stim3_Set3;0;None;59;58;59;0;58;58;58;;;;;;;;;;;;;;;;;;;;;;;289.3665004996583;290.4499896997586;290.4499896997586;290.4499896997586;290.4499896997586;290.4499896997586;290.4499896997586;290.4499896997586;290.4499896997586;None;0;;;C:\2023\REPSWITCH21092023\REPSWITCH_excgange\REPSWITCH_excgange\data/490101_REPSWITCH1_version1_list1_2024-01-26_14h16.21.646_micRespv1l1_recorded\recording_micRespv1l1_2024-01-26_14h21.09.242.wav;293.47120149992406;293.97129879985005;None;293.47120149992406;293.47120149992406;293.47120149992406;293.47120149992406;293.47120149992406;293.47120149992406;;;;;;490101;001;2024-01-26_14h16.21.646;REPSWITCH1_version1_list1;2022.2.4;143.9853716453332;
REPSWITCH1/PICTURE_152.png;caracol;speak;gold;filler;2;F;3;1;1;1;Stim2_Set2;0;None;60;59;60;0;59;59;59;;;;;;;;;;;;;;;;;;;;;;;293.97129879985005;295.0200356999412;295.0200356999412;295.0200356999412;295.0200356999412;295.0200356999412;295.0200356999412;295.0200356999412;295.0200356999412;None;0;;;C:\2023\REPSWITCH21092023\REPSWITCH_excgange\REPSWITCH_excgange\data/490101_REPSWITCH1_version1_list1_2024-01-26_14h16.21.646_micRespv1l1_recorded\recording_micRespv1l1_2024-01-26_14h21.13.812.wav;298.0412542996928;298.5413064993918;None;298.0412542996928;298.0412542996928;298.0412542996928;298.0412542996928;298.0412542996928;298.0412542996928;;;;;;490101;001;2024-01-26_14h16.21.646;REPSWITCH1_version1_list1;2022.2.4;143.9853716453332;
REPSWITCH1/PICTURE_517.png;cuerda;type;darkblue;filler;1;F;3;1;1;1;Stim4_Set2;0;None;61;60;61;0;60;60;60;;;;;;;;;;;;;;;;;;;;;;;298.5413064993918;299.74985649995506;299.74985649995506;299.74985649995506;299.74985649995506;299.74985649995506;299.74985649995506;299.74985649995506;299.74985649995506;['c', 'u', 'e', 'r', 'd', 'a'];0;[0.985903300344944, 1.233114200644195, 1.307866900227964, 1.3825694005936384, 1.5600223001092672, 1.7234616000205278];cuerda;C:\2023\REPSWITCH21092023\REPSWITCH_excgange\REPSWITCH_excgange\data/490101_REPSWITCH1_version1_list1_2024-01-26_14h16.21.646_micRespv1l1_recorded\recording_micRespv1l1_2024-01-26_14h21.18.543.wav;302.81969099957496;303.3197504999116;None;302.81969099957496;302.81969099957496;302.81969099957496;302.81969099957496;302.81969099957496;302.81969099957496;;;;;;490101;001;2024-01-26_14h16.21.646;REPSWITCH1_version1_list1;2022.2.4;143.9853716453332;
REPSWITCH1/PICTURE_235.png;aguja;speak;gold;nontarget;2;NT;3;1;1;1;Stim4_Set3;1;switch;62;61;62;0;61;61;61;;;;;;;;;;;;;;;;;;;;;;;303.3197504999116;304.41712359990925;304.41712359990925;304.41712359990925;304.41712359990925;304.41712359990925;304.41712359990925;304.41712359990925;304.41712359990925;None;0;;;C:\2023\REPSWITCH21092023\REPSWITCH_excgange\REPSWITCH_excgange\data/490101_REPSWITCH1_version1_list1_2024-01-26_14h16.21.646_micRespv1l1_recorded\recording_micRespv1l1_2024-01-26_14h21.23.210.wav;307.43833769951016;307.9383870996535;None;307.43833769951016;307.43833769951016;307.43833769951016;307.43833769951016;307.43833769951016;307.43833769951016;;;;;;490101;001;2024-01-26_14h16.21.646;REPSWITCH1_version1_list1;2022.2.4;143.9853716453332;
REPSWITCH1/PICTURE_235.png;aguja;speak;gold;repeat;2;T;3;1;1;1;Stim4_Set3;0;None;63;62;63;0;62;62;62;;;;;;;;;;;;;;;;;;;;;;;307.9383870996535;308.97326650004834;308.97326650004834;308.97326650004834;308.97326650004834;308.97326650004834;308.97326650004834;308.97326650004834;308.97326650004834;None;0;;;C:\2023\REPSWITCH21092023\REPSWITCH_excgange\REPSWITCH_excgange\data/490101_REPSWITCH1_version1_list1_2024-01-26_14h16.21.646_micRespv1l1_recorded\recording_micRespv1l1_2024-01-26_14h21.27.766.wav;312.00142719969153;;None;312.00142719969153;312.00142719969153;312.00142719969153;312.00142719969153;312.00142719969153;312.00142719969153;;;;;;490101;001;2024-01-26_14h16.21.646;REPSWITCH1_version1_list1;2022.2.4;143.9853716453332;
REPSWITCH1/PICTURE_30.png;granja;type;darkblue;filler;1;F;3;1;1;1;Stim5_Set2;0;None;64;63;64;0;63;63;63;;;;;;;;;;;;;;;;;;;;;;;312.50148039963096;313.5225069997832;313.5225069997832;313.5225069997832;313.5225069997832;313.5225069997832;313.5225069997832;313.5225069997832;313.5225069997832;['g', 'r', 'a', 'n', 'a', 'j', 'backspace', 'backspace', 'k', 'a', 'backspace'];0;[0.8427067995071411, 0.9404499996453524, 1.1137888999655843, 1.206437399610877, 1.3928453996777534, 1.420759099535644, 1.9848724994808435, 2.1612849002704024, 2.4423469994217157, 2.554957799613476, 2.9008160000666976];grank;C:\2023\REPSWITCH21092023\REPSWITCH_excgange\REPSWITCH_excgange\data/490101_REPSWITCH1_version1_list1_2024-01-26_14h16.21.646_micRespv1l1_recorded\recording_micRespv1l1_2024-01-26_14h21.32.316.wav;316.5506376000121;;None;316.5506376000121;316.5506376000121;316.5506376000121;316.5506376000121;316.5506376000121;316.5506376000121;;;;;;490101;001;2024-01-26_14h16.21.646;REPSWITCH1_version1_list1;2022.2.4;143.9853716453332;
REPSWITCH1/PICTURE_552.png;manzana;speak;gold;filler;2;F;3;1;1;1;Stim6_Set2;1;switch;65;64;65;0;64;64;64;;;;;;;;;;;;;;;;;;;;;;;317.0507172998041;318.1063955994323;318.1063955994323;318.1063955994323;318.1063955994323;318.1063955994323;318.1063955994323;318.1063955994323;318.1063955994323;None;0;;;C:\2023\REPSWITCH21092023\REPSWITCH_excgange\REPSWITCH_excgange\data/490101_REPSWITCH1_version1_list1_2024-01-26_14h16.21.646_micRespv1l1_recorded\recording_micRespv1l1_2024-01-26_14h21.36.899.wav;321.1276225997135;321.6277112001553;None;321.1276225997135;321.1276225997135;321.1276225997135;321.1276225997135;321.1276225997135;321.1276225997135;;;;;;490101;001;2024-01-26_14h16.21.646;REPSWITCH1_version1_list1;2022.2.4;143.9853716453332;
REPSWITCH1/PICTURE_35.png;oreja;speak;gold;nontarget;2;NT;3;1;1;1;Stim5_Set3;1;repeat;66;65;66;0;65;65;65;;;;;;;;;;;;;;;;;;;;;;;321.6277112001553;322.69727929960936;322.69727929960936;322.69727929960936;322.69727929960936;322.69727929960936;322.69727929960936;322.69727929960936;322.69727929960936;None;0;;;C:\2023\REPSWITCH21092023\REPSWITCH_excgange\REPSWITCH_excgange\data/490101_REPSWITCH1_version1_list1_2024-01-26_14h16.21.646_micRespv1l1_recorded\recording_micRespv1l1_2024-01-26_14h21.41.490.wav;325.72542819939554;;None;325.72542819939554;325.72542819939554;325.72542819939554;325.72542819939554;325.72542819939554;325.72542819939554;;;;;;490101;001;2024-01-26_14h16.21.646;REPSWITCH1_version1_list1;2022.2.4;143.9853716453332;
REPSWITCH1/PICTURE_35.png;oreja;speak;gold;repeat;2;T;3;1;1;1;Stim5_Set3;0;None;67;66;67;0;66;66;66;;;;;;;;;;;;;;;;;;;;;;;326.2255103001371;327.39931190013885;327.39931190013885;327.39931190013885;327.39931190013885;327.39931190013885;327.39931190013885;327.39931190013885;327.39931190013885;None;0;;;C:\2023\REPSWITCH21092023\REPSWITCH_excgange\REPSWITCH_excgange\data/490101_REPSWITCH1_version1_list1_2024-01-26_14h16.21.646_micRespv1l1_recorded\recording_micRespv1l1_2024-01-26_14h21.46.191.wav;330.42051289975643;330.9205725993961;None;330.42051289975643;330.42051289975643;330.42051289975643;330.42051289975643;330.42051289975643;330.42051289975643;;;;;;490101;001;2024-01-26_14h16.21.646;REPSWITCH1_version1_list1;2022.2.4;143.9853716453332;
REPSWITCH1/PICTURE_673.png;tenedor;type;darkblue;filler;1;F;3;1;1;1;Extra5;0;None;68;67;68;0;67;67;67;;;;;;;;;;;;;;;;;;;;;;;330.9205725993961;332.08048240002245;332.08048240002245;332.08048240002245;332.08048240002245;332.08048240002245;332.08048240002245;332.08048240002245;332.08048240002245;['t', 'e', 'n', 'e', 'd', 'o', 'r'];0;[0.7579323993995786, 0.870554800145328, 0.9961398998275399, 1.0888348994776607, 1.2921056998893619, 1.3778475997969508, 1.4695469997823238];tenedor;C:\2023\REPSWITCH21092023\REPSWITCH_excgange\REPSWITCH_excgange\data/490101_REPSWITCH1_version1_list1_2024-01-26_14h16.21.646_micRespv1l1_recorded\recording_micRespv1l1_2024-01-26_14h21.50.873.wav;335.1086202999577;;None;335.1086202999577;335.1086202999577;335.1086202999577;335.1086202999577;335.1086202999577;335.1086202999577;;;;;;490101;001;2024-01-26_14h16.21.646;REPSWITCH1_version1_list1;2022.2.4;143.9853716453332;
REPSWITCH1/PICTURE_464.png;goma;speak;gold;nontarget;2;NT;3;1;1;1;Stim6_Set3;0;None;69;68;69;0;68;68;68;;;;;;;;;;;;;;;;;;;;;;;335.6087143998593;336.6991539001465;336.6991539001465;336.6991539001465;336.6991539001465;336.6991539001465;336.6991539001465;336.6991539001465;336.6991539001465;None;0;;;C:\2023\REPSWITCH21092023\REPSWITCH_excgange\REPSWITCH_excgange\data/490101_REPSWITCH1_version1_list1_2024-01-26_14h16.21.646_micRespv1l1_recorded\recording_micRespv1l1_2024-01-26_14h21.55.492.wav;339.72036329936236;340.2204034999013;None;339.72036329936236;339.72036329936236;339.72036329936236;339.72036329936236;339.72036329936236;339.72036329936236;;;;;;490101;001;2024-01-26_14h16.21.646;REPSWITCH1_version1_list1;2022.2.4;143.9853716453332;
REPSWITCH1/PICTURE_464.png;goma;type;darkblue;switch;1;T;3;1;1;1;Stim6_Set3;0;None;70;69;70;0;69;69;69;;;;;;;;;;;;;;;;;;;;;;;340.2204034999013;341.26224670000374;341.26224670000374;341.26224670000374;341.26224670000374;341.26224670000374;341.26224670000374;341.26224670000374;341.26224670000374;['g', 'o', 'm', 'a'];0;[0.7185920998454094, 0.8192052999511361, 0.9169135997071862, 1.0225771004334092];goma;C:\2023\REPSWITCH21092023\REPSWITCH_excgange\REPSWITCH_excgange\data/490101_REPSWITCH1_version1_list1_2024-01-26_14h16.21.646_micRespv1l1_recorded\recording_micRespv1l1_2024-01-26_14h22.00.054.wav;344.29039820004255;;None;344.29039820004255;344.29039820004255;344.29039820004255;344.29039820004255;344.29039820004255;344.29039820004255;;;;;;490101;001;2024-01-26_14h16.21.646;REPSWITCH1_version1_list1;2022.2.4;143.9853716453332;
REPSWITCH1/PICTURE_264.png;mano;speak;gold;filler;2;F;3;1;1;1;Stim3_Set2;0;None;71;70;71;0;70;70;70;;;;;;;;;;;;;;;;;;;;;;;344.79045389965177;345.86005129944533;345.86005129944533;345.86005129944533;345.86005129944533;345.86005129944533;345.86005129944533;345.86005129944533;345.86005129944533;None;0;;;C:\2023\REPSWITCH21092023\REPSWITCH_excgange\REPSWITCH_excgange\data/490101_REPSWITCH1_version1_list1_2024-01-26_14h16.21.646_micRespv1l1_recorded\recording_micRespv1l1_2024-01-26_14h22.04.653.wav;348.92990799993277;;None;348.92990799993277;348.92990799993277;348.92990799993277;348.92990799993277;348.92990799993277;348.92990799993277;;;;;;490101;001;2024-01-26_14h16.21.646;REPSWITCH1_version1_list1;2022.2.4;143.9853716453332;
REPSWITCH1/PICTURE_271.png;conejo;type;darkblue;nontarget;1;NT;3;1;1;1;Stim7_Set3;1;switch;72;71;72;0;71;71;71;;;;;;;;;;;;;;;;;;;;;;;349.4299699999392;350.61066609993577;350.61066609993577;350.61066609993577;350.61066609993577;350.61066609993577;350.61066609993577;350.61066609993577;350.61066609993577;['c', 'o', 'n', 'e', 'j', 'o'];0;[0.7826955001801252, 0.9232138004153967, 1.0238381000235677, 1.211311100050807, 1.2999435001984239, 1.469441500492394];conejo;C:\2023\REPSWITCH21092023\REPSWITCH_excgange\REPSWITCH_excgange\data/490101_REPSWITCH1_version1_list1_2024-01-26_14h16.21.646_micRespv1l1_recorded\recording_micRespv1l1_2024-01-26_14h22.09.404.wav;353.6388682993129;;None;353.6388682993129;353.6388682993129;353.6388682993129;353.6388682993129;353.6388682993129;353.6388682993129;;;;;;490101;001;2024-01-26_14h16.21.646;REPSWITCH1_version1_list1;2022.2.4;143.9853716453332;
REPSWITCH1/PICTURE_271.png;conejo;type;darkblue;repeat;1;T;3;1;1;1;Stim7_Set3;0;None;73;72;73;0;72;72;72;;;;;;;;;;;;;;;;;;;;;;;354.138919999823;355.20155159942806;355.20155159942806;355.20155159942806;355.20155159942806;355.20155159942806;355.20155159942806;355.20155159942806;355.20155159942806;['c', 'o', 'n', 'e', 'j', 'o'];0;[0.8611884005367756, 0.9847575007006526, 1.0625069001689553, 1.2688076002523303, 1.336586399935186, 1.4820966003462672];conejo;C:\2023\REPSWITCH21092023\REPSWITCH_excgange\REPSWITCH_excgange\data/490101_REPSWITCH1_version1_list1_2024-01-26_14h16.21.646_micRespv1l1_recorded\recording_micRespv1l1_2024-01-26_14h22.13.995.wav;358.22970299981534;;None;358.22970299981534;358.22970299981534;358.22970299981534;358.22970299981534;358.22970299981534;358.22970299981534;;;;;;490101;001;2024-01-26_14h16.21.646;REPSWITCH1_version1_list1;2022.2.4;143.9853716453332;
REPSWITCH1/PICTURE_446.png;cerdo;speak;gold;filler;2;F;3;1;1;1;Stim7_Set2;0;None;74;73;74;0;73;73;73;;;;;;;;;;;;;;;;;;;;;;;358.72981330007315;359.91752440016717;359.91752440016717;359.91752440016717;359.91752440016717;359.91752440016717;359.91752440016717;359.91752440016717;359.91752440016717;None;0;;;C:\2023\REPSWITCH21092023\REPSWITCH_excgange\REPSWITCH_excgange\data/490101_REPSWITCH1_version1_list1_2024-01-26_14h16.21.646_micRespv1l1_recorded\recording_micRespv1l1_2024-01-26_14h22.18.710.wav;362.9386700997129;363.4387543993071;None;362.9386700997129;362.9386700997129;362.9386700997129;362.9386700997129;362.9386700997129;362.9386700997129;;;;;;490101;001;2024-01-26_14h16.21.646;REPSWITCH1_version1_list1;2022.2.4;143.9853716453332;
REPSWITCH1/PICTURE_199.png;falda;type;darkblue;filler;1;F;3;1;1;1;Stim8_Set2;1;switch;75;74;75;0;74;74;74;;;;;;;;;;;;;;;;;;;;;;;363.4387543993071;364.51536360010505;364.51536360010505;364.51536360010505;364.51536360010505;364.51536360010505;364.51536360010505;364.51536360010505;364.51536360010505;['f', 'a', 'l', 'd', 'a'];0;[0.84527019970119, 0.9778209999203682, 1.087458400055766, 1.1970772994682193, 1.2728301994502544];falda;C:\2023\REPSWITCH21092023\REPSWITCH_excgange\REPSWITCH_excgange\data/490101_REPSWITCH1_version1_list1_2024-01-26_14h16.21.646_micRespv1l1_recorded\recording_micRespv1l1_2024-01-26_14h22.23.309.wav;367.54342189989984;;None;367.54342189989984;367.54342189989984;367.54342189989984;367.54342189989984;367.54342189989984;367.54342189989984;;;;;;490101;001;2024-01-26_14h16.21.646;REPSWITCH1_version1_list1;2022.2.4;143.9853716453332;
REPSWITCH1/PICTURE_320.png;iglesia;type;darkblue;nontarget;1;NT;3;1;1;1;Stim8_Set3;1;repeat;76;75;76;0;75;75;75;;;;;;;;;;;;;;;;;;;;;;;368.0435044998303;369.21033889986575;369.21033889986575;369.21033889986575;369.21033889986575;369.21033889986575;369.21033889986575;369.21033889986575;369.21033889986575;['i', 'g', 'l', 'e', 's', 'i', 'a'];0;[1.3628577999770641, 1.551218799315393, 1.6608493002131581, 1.7844370994716883, 1.951855399645865, 2.031617099419236, 2.156193899922073];iglesia;C:\2023\REPSWITCH21092023\REPSWITCH_excgange\REPSWITCH_excgange\data/490101_REPSWITCH1_version1_list1_2024-01-26_14h16.21.646_micRespv1l1_recorded\recording_micRespv1l1_2024-01-26_14h22.28.003.wav;372.2315422995016;372.7316378997639;None;372.2315422995016;372.2315422995016;372.2315422995016;372.2315422995016;372.2315422995016;372.2315422995016;;;;;;490101;001;2024-01-26_14h16.21.646;REPSWITCH1_version1_list1;2022.2.4;143.9853716453332;
REPSWITCH1/PICTURE_320.png;iglesia;type;darkblue;repeat;1;T;3;1;1;1;Stim8_Set3;0;None;77;76;77;0;76;76;76;;;;;;;;;;;;;;;;;;;;;;;372.7316378997639;373.82909009978175;373.82909009978175;373.82909009978175;373.82909009978175;373.82909009978175;373.82909009978175;373.82909009978175;373.82909009978175;['i', 'g', 'l', 'e', 's', 'i', 'a'];0;[0.6529855998232961, 0.7746166000142694, 0.9460118003189564, 1.0467675998806953, 1.224112500436604, 1.323777800425887, 1.4214073000475764];iglesia;C:\2023\REPSWITCH21092023\REPSWITCH_excgange\REPSWITCH_excgange\data/490101_REPSWITCH1_version1_list1_2024-01-26_14h16.21.646_micRespv1l1_recorded\recording_micRespv1l1_2024-01-26_14h22.32.622.wav;376.857191699557;;None;376.857191699557;376.857191699557;376.857191699557;376.857191699557;376.857191699557;376.857191699557;;;;;;490101;001;2024-01-26_14h16.21.646;REPSWITCH1_version1_list1;2022.2.4;143.9853716453332;
REPSWITCH1/PICTURE_576.png;guante;speak;gold;filler;2;F;4;1;1;1;Stim1_Set3;0;None;78;77;78;0;77;77;77;;;;;;;;;;;;;;;;;;;;;;;377.35724869929254;378.433846199885;378.433846199885;378.433846199885;378.433846199885;378.433846199885;378.433846199885;378.433846199885;378.433846199885;None;0;;;C:\2023\REPSWITCH21092023\REPSWITCH_excgange\REPSWITCH_excgange\data/490101_REPSWITCH1_version1_list1_2024-01-26_14h16.21.646_micRespv1l1_recorded\recording_micRespv1l1_2024-01-26_14h22.37.226.wav;381.4549870993942;381.955075699836;None;381.4549870993942;381.4549870993942;381.4549870993942;381.4549870993942;381.4549870993942;381.4549870993942;;;;;;490101;001;2024-01-26_14h16.21.646;REPSWITCH1_version1_list1;2022.2.4;143.9853716453332;
REPSWITCH1/PICTURE_319.png;vaca;type;darkblue;nontarget;1;NT;4;1;1;1;Stim1_Set4;1;switch;79;78;79;0;78;78;78;;;;;;;;;;;;;;;;;;;;;;;381.955075699836;383.01076989993453;383.01076989993453;383.01076989993453;383.01076989993453;383.01076989993453;383.01076989993453;383.01076989993453;383.01076989993453;['v', 'a', 'c', 'a'];0;[0.7662759004160762, 0.9346850998699665, 1.0632418002933264, 1.1649269005283713];vaca;C:\2023\REPSWITCH21092023\REPSWITCH_excgange\REPSWITCH_excgange\data/490101_REPSWITCH1_version1_list1_2024-01-26_14h16.21.646_micRespv1l1_recorded\recording_micRespv1l1_2024-01-26_14h22.41.804.wav;386.03196809999645;386.5320292999968;None;386.03196809999645;386.03196809999645;386.03196809999645;386.03196809999645;386.03196809999645;386.03196809999645;;;;;;490101;001;2024-01-26_14h16.21.646;REPSWITCH1_version1_list1;2022.2.4;143.9853716453332;
REPSWITCH1/PICTURE_319.png;vaca;type;darkblue;repeat;1;T;4;1;1;1;Stim1_Set4;0;None;80;79;80;0;79;79;79;;;;;;;;;;;;;;;;;;;;;;;386.5320292999968;387.5461047999561;387.5461047999561;387.5461047999561;387.5461047999561;387.5461047999561;387.5461047999561;387.5461047999561;387.5461047999561;['v', 'a', 'c', 'a'];0;[1.0896760998293757, 1.2969781002029777, 1.4265427999198437, 1.507244000211358];vaca;C:\2023\REPSWITCH21092023\REPSWITCH_excgange\REPSWITCH_excgange\data/490101_REPSWITCH1_version1_list1_2024-01-26_14h16.21.646_micRespv1l1_recorded\recording_micRespv1l1_2024-01-26_14h22.46.339.wav;390.5672950996086;391.06736799981445;None;390.5672950996086;390.5672950996086;390.5672950996086;390.5672950996086;390.5672950996086;390.5672950996086;;;;;;490101;001;2024-01-26_14h16.21.646;REPSWITCH1_version1_list1;2022.2.4;143.9853716453332;
REPSWITCH1/PICTURE_719.png;baño;type;darkblue;nontarget;1;NT;4;1;1;1;Stim2_Set4;0;None;81;80;81;0;80;80;80;;;;;;;;;;;;;;;;;;;;;;;391.06736799981445;392.2203111993149;392.2203111993149;392.2203111993149;392.2203111993149;392.2203111993149;392.2203111993149;392.2203111993149;392.2203111993149;['b', 'a', 'ñ', 'o'];0;[0.8625956000760198, 1.054955999366939, 1.204445299692452, 1.3240363001823425];baño;C:\2023\REPSWITCH21092023\REPSWITCH_excgange\REPSWITCH_excgange\data/490101_REPSWITCH1_version1_list1_2024-01-26_14h16.21.646_micRespv1l1_recorded\recording_micRespv1l1_2024-01-26_14h22.51.014.wav;395.2484602993354;;None;395.2484602993354;395.2484602993354;395.2484602993354;395.2484602993354;395.2484602993354;395.2484602993354;;;;;;490101;001;2024-01-26_14h16.21.646;REPSWITCH1_version1_list1;2022.2.4;143.9853716453332;
REPSWITCH1/PICTURE_719.png;baño;speak;gold;switch;2;T;4;1;1;1;Stim2_Set4;0;None;82;81;82;0;81;81;81;;;;;;;;;;;;;;;;;;;;;;;395.7485312996432;396.95008189976215;396.95008189976215;396.95008189976215;396.95008189976215;396.95008189976215;396.95008189976215;396.95008189976215;396.95008189976215;None;0;;;C:\2023\REPSWITCH21092023\REPSWITCH_excgange\REPSWITCH_excgange\data/490101_REPSWITCH1_version1_list1_2024-01-26_14h16.21.646_micRespv1l1_recorded\recording_micRespv1l1_2024-01-26_14h22.55.742.wav;399.97130919992924;400.4713821997866;None;399.97130919992924;399.97130919992924;399.97130919992924;399.97130919992924;399.97130919992924;399.97130919992924;;;;;;490101;001;2024-01-26_14h16.21.646;REPSWITCH1_version1_list1;2022.2.4;143.9853716453332;
REPSWITCH1/PICTURE_242.png;cartero;speak;gold;filler;2;F;4;1;1;1;Stim3_Set3;1;repeat;83;82;83;0;82;82;82;;;;;;;;;;;;;;;;;;;;;;;400.4713821997866;401.6520981993526;401.6520981993526;401.6520981993526;401.6520981993526;401.6520981993526;401.6520981993526;401.6520981993526;401.6520981993526;None;0;;;C:\2023\REPSWITCH21092023\REPSWITCH_excgange\REPSWITCH_excgange\data/490101_REPSWITCH1_version1_list1_2024-01-26_14h16.21.646_micRespv1l1_recorded\recording_micRespv1l1_2024-01-26_14h23.00.444.wav;404.6802432993427;;None;404.6802432993427;404.6802432993427;404.6802432993427;404.6802432993427;404.6802432993427;404.6802432993427;;;;;;490101;001;2024-01-26_14h16.21.646;REPSWITCH1_version1_list1;2022.2.4;143.9853716453332;
REPSWITCH1/PICTURE_610.png;miel;type;darkblue;filler;1;F;4;1;1;1;Stim2_Set3;0;None;84;83;84;0;83;83;83;;;;;;;;;;;;;;;;;;;;;;;405.18034299928695;406.2221401995048;406.2221401995048;406.2221401995048;406.2221401995048;406.2221401995048;406.2221401995048;406.2221401995048;406.2221401995048;['m', 'i', 'e', 'l'];0;[0.9516468998044729, 1.1300352001562715, 1.2178090000525117, 1.3314097002148628];miel;C:\2023\REPSWITCH21092023\REPSWITCH_excgange\REPSWITCH_excgange\data/490101_REPSWITCH1_version1_list1_2024-01-26_14h16.21.646_micRespv1l1_recorded\recording_micRespv1l1_2024-01-26_14h23.05.015.wav;409.25032329931855;;None;409.25032329931855;409.25032329931855;409.25032329931855;409.25032329931855;409.25032329931855;409.25032329931855;;;;;;490101;001;2024-01-26_14h16.21.646;REPSWITCH1_version1_list1;2022.2.4;143.9853716453332;
REPSWITCH1/PICTURE_8.png;pierna;speak;gold;nontarget;2;NT;4;1;1;1;Stim3_Set4;1;switch;85;84;85;0;84;84;84;;;;;;;;;;;;;;;;;;;;;;;409.7503688996658;410.8616356998682;410.8616356998682;410.8616356998682;410.8616356998682;410.8616356998682;410.8616356998682;410.8616356998682;410.8616356998682;None;0;;;C:\2023\REPSWITCH21092023\REPSWITCH_excgange\REPSWITCH_excgange\data/490101_REPSWITCH1_version1_list1_2024-01-26_14h16.21.646_micRespv1l1_recorded\recording_micRespv1l1_2024-01-26_14h23.09.654.wav;413.8828604994342;414.3829274997115;None;413.8828604994342;413.8828604994342;413.8828604994342;413.8828604994342;413.8828604994342;413.8828604994342;;;;;;490101;001;2024-01-26_14h16.21.646;REPSWITCH1_version1_list1;2022.2.4;143.9853716453332;
REPSWITCH1/PICTURE_8.png;pierna;speak;gold;repeat;2;T;4;1;1;1;Stim3_Set4;0;None;86;85;86;0;85;85;85;;;;;;;;;;;;;;;;;;;;;;;414.3829274997115;415.5567263001576;415.5567263001576;415.5567263001576;415.5567263001576;415.5567263001576;415.5567263001576;415.5567263001576;415.5567263001576;None;0;;;C:\2023\REPSWITCH21092023\REPSWITCH_excgange\REPSWITCH_excgange\data/490101_REPSWITCH1_version1_list1_2024-01-26_14h16.21.646_micRespv1l1_recorded\recording_micRespv1l1_2024-01-26_14h23.14.349.wav;418.5779249994084;419.0780039001256;None;418.5779249994084;418.5779249994084;418.5779249994084;418.5779249994084;418.5779249994084;418.5779249994084;;;;;;490101;001;2024-01-26_14h16.21.646;REPSWITCH1_version1_list1;2022.2.4;143.9853716453332;
REPSWITCH1/PICTURE_498.png;taza;speak;gold;nontarget;2;NT;4;1;1;1;Stim4_Set4;1;repeat;87;86;87;0;86;86;86;;;;;;;;;;;;;;;;;;;;;;;419.0780039001256;420.18230859935284;420.18230859935284;420.18230859935284;420.18230859935284;420.18230859935284;420.18230859935284;420.18230859935284;420.18230859935284;None;0;;;C:\2023\REPSWITCH21092023\REPSWITCH_excgange\REPSWITCH_excgange\data/490101_REPSWITCH1_version1_list1_2024-01-26_14h16.21.646_micRespv1l1_recorded\recording_micRespv1l1_2024-01-26_14h23.18.974.wav;423.20354819949716;423.70359029993415;None;423.20354819949716;423.20354819949716;423.20354819949716;423.20354819949716;423.20354819949716;423.20354819949716;;;;;;490101;001;2024-01-26_14h16.21.646;REPSWITCH1_version1_list1;2022.2.4;143.9853716453332;
REPSWITCH1/PICTURE_498.png;taza;type;darkblue;switch;1;T;4;1;1;1;Stim4_Set4;0;None;88;87;88;0;87;87;87;;;;;;;;;;;;;;;;;;;;;;;423.70359029993415;424.7940656999126;424.7940656999126;424.7940656999126;424.7940656999126;424.7940656999126;424.7940656999126;424.7940656999126;424.7940656999126;['t', 'a', 'z', 'a'];0;[0.7572088995948434, 0.8788176998496056, 1.124992299824953, 1.3303056992590427];taza;C:\2023\REPSWITCH21092023\REPSWITCH_excgange\REPSWITCH_excgange\data/490101_REPSWITCH1_version1_list1_2024-01-26_14h16.21.646_micRespv1l1_recorded\recording_micRespv1l1_2024-01-26_14h23.23.586.wav;427.815259099938;428.31529199983925;None;427.815259099938;427.815259099938;427.815259099938;427.815259099938;427.815259099938;427.815259099938;;;;;;490101;001;2024-01-26_14h16.21.646;REPSWITCH1_version1_list1;2022.2.4;143.9853716453332;
REPSWITCH1/PICTURE_235.png;aguja;speak;gold;filler;2;F;4;1;1;1;Stim4_Set3;0;None;89;88;89;0;88;88;88;;;;;;;;;;;;;;;;;;;;;;;428.31529199983925;429.4752145996317;429.4752145996317;429.4752145996317;429.4752145996317;429.4752145996317;429.4752145996317;429.4752145996317;429.4752145996317;None;0;;;C:\2023\REPSWITCH21092023\REPSWITCH_excgange\REPSWITCH_excgange\data/490101_REPSWITCH1_version1_list1_2024-01-26_14h16.21.646_micRespv1l1_recorded\recording_micRespv1l1_2024-01-26_14h23.28.267.wav;432.4964122995734;432.9964661998674;None;432.4964122995734;432.4964122995734;432.4964122995734;432.4964122995734;432.4964122995734;432.4964122995734;;;;;;490101;001;2024-01-26_14h16.21.646;REPSWITCH1_version1_list1;2022.2.4;143.9853716453332;
REPSWITCH1/PICTURE_35.png;oreja;type;darkblue;filler;1;F;4;1;1;1;Stim5_Set3;0;None;90;89;90;0;89;89;89;;;;;;;;;;;;;;;;;;;;;;;432.9964661998674;434.05912549979985;434.05912549979985;434.05912549979985;434.05912549979985;434.05912549979985;434.05912549979985;434.05912549979985;434.05912549979985;['o', 'r', 'e', 'j', 'a'];0;[1.273417199961841, 1.3880658000707626, 1.4638192998245358, 1.5614895997568965, 1.6351955002173781];oreja;C:\2023\REPSWITCH21092023\REPSWITCH_excgange\REPSWITCH_excgange\data/490101_REPSWITCH1_version1_list1_2024-01-26_14h16.21.646_micRespv1l1_recorded\recording_micRespv1l1_2024-01-26_14h23.32.851.wav;437.08034869935364;437.58041359949857;None;437.08034869935364;437.08034869935364;437.08034869935364;437.08034869935364;437.08034869935364;437.08034869935364;;;;;;490101;001;2024-01-26_14h16.21.646;REPSWITCH1_version1_list1;2022.2.4;143.9853716453332;
REPSWITCH1/PICTURE_687.png;camisa;type;darkblue;nontarget;1;NT;4;1;1;1;Stim5_Set4;1;repeat;91;90;91;0;90;90;90;;;;;;;;;;;;;;;;;;;;;;;437.58041359949857;438.62230789940804;438.62230789940804;438.62230789940804;438.62230789940804;438.62230789940804;438.62230789940804;438.62230789940804;438.62230789940804;['c', 'a', 'm', 'i', 's', 'a'];0;[1.2640581000596285, 1.388628600165248, 1.4972152998670936, 1.6098782001063228, 1.6547897001728415, 1.7244977001100779];camisa;C:\2023\REPSWITCH21092023\REPSWITCH_excgange\REPSWITCH_excgange\data/490101_REPSWITCH1_version1_list1_2024-01-26_14h16.21.646_micRespv1l1_recorded\recording_micRespv1l1_2024-01-26_14h23.37.415.wav;441.6434472994879;442.14351349975914;None;441.6434472994879;441.6434472994879;441.6434472994879;441.6434472994879;441.6434472994879;441.6434472994879;;;;;;490101;001;2024-01-26_14h16.21.646;REPSWITCH1_version1_list1;2022.2.4;143.9853716453332;
REPSWITCH1/PICTURE_687.png;camisa;speak;gold;switch;2;T;4;1;1;1;Stim5_Set4;0;None;92;91;92;0;91;91;91;;;;;;;;;;;;;;;;;;;;;;;442.14351349975914;443.17846160009503;443.17846160009503;443.17846160009503;443.17846160009503;443.17846160009503;443.17846160009503;443.17846160009503;443.17846160009503;None;0;;;C:\2023\REPSWITCH21092023\REPSWITCH_excgange\REPSWITCH_excgange\data/490101_REPSWITCH1_version1_list1_2024-01-26_14h16.21.646_micRespv1l1_recorded\recording_micRespv1l1_2024-01-26_14h23.41.970.wav;446.1996340993792;446.69966730009764;None;446.1996340993792;446.1996340993792;446.1996340993792;446.1996340993792;446.1996340993792;446.1996340993792;;;;;;490101;001;2024-01-26_14h16.21.646;REPSWITCH1_version1_list1;2022.2.4;143.9853716453332;
REPSWITCH1/PICTURE_338.png;regalo;speak;gold;nontarget;2;NT;4;1;1;1;Stim6_Set4;0;None;93;92;93;0;92;92;92;;;;;;;;;;;;;;;;;;;;;;;446.69966730009764;447.7623274996877;447.7623274996877;447.7623274996877;447.7623274996877;447.7623274996877;447.7623274996877;447.7623274996877;447.7623274996877;None;0;;;C:\2023\REPSWITCH21092023\REPSWITCH_excgange\REPSWITCH_excgange\data/490101_REPSWITCH1_version1_list1_2024-01-26_14h16.21.646_micRespv1l1_recorded\recording_micRespv1l1_2024-01-26_14h23.46.555.wav;450.78353559970856;451.2836055997759;None;450.78353559970856;450.78353559970856;450.78353559970856;450.78353559970856;450.78353559970856;450.78353559970856;;;;;;490101;001;2024-01-26_14h16.21.646;REPSWITCH1_version1_list1;2022.2.4;143.9853716453332;
REPSWITCH1/PICTURE_338.png;regalo;speak;gold;repeat;2;T;4;1;1;1;Stim6_Set4;0;None;94;93;94;0;93;93;93;;;;;;;;;;;;;;;;;;;;;;;451.2836055997759;452.4018097994849;452.4018097994849;452.4018097994849;452.4018097994849;452.4018097994849;452.4018097994849;452.4018097994849;452.4018097994849;None;0;;;C:\2023\REPSWITCH21092023\REPSWITCH_excgange\REPSWITCH_excgange\data/490101_REPSWITCH1_version1_list1_2024-01-26_14h16.21.646_micRespv1l1_recorded\recording_micRespv1l1_2024-01-26_14h23.51.194.wav;455.423058799468;455.92312129959464;None;455.423058799468;455.423058799468;455.423058799468;455.423058799468;455.423058799468;455.423058799468;;;;;;490101;001;2024-01-26_14h16.21.646;REPSWITCH1_version1_list1;2022.2.4;143.9853716453332;
REPSWITCH1/PICTURE_663.png;columna;type;darkblue;filler;1;F;4;1;1;1;Extra6;0;None;95;94;95;0;94;94;94;;;;;;;;;;;;;;;;;;;;;;;455.92312129959464;457.1942080995068;457.1942080995068;457.1942080995068;457.1942080995068;457.1942080995068;457.1942080995068;457.1942080995068;457.1942080995068;['c', 'o', 'l', 'u', 'm', 'n', 'a'];0;[0.7377822995185852, 0.8822483997792006, 1.0547149991616607, 1.3008995996788144, 1.4712854996323586, 1.653676399961114, 1.7254291996359825];columna;C:\2023\REPSWITCH21092023\REPSWITCH_excgange\REPSWITCH_excgange\data/490101_REPSWITCH1_version1_list1_2024-01-26_14h16.21.646_micRespv1l1_recorded\recording_micRespv1l1_2024-01-26_14h23.55.987.wav;460.2223172998056;;None;460.2223172998056;460.2223172998056;460.2223172998056;460.2223172998056;460.2223172998056;460.2223172998056;;;;;;490101;001;2024-01-26_14h16.21.646;REPSWITCH1_version1_list1;2022.2.4;143.9853716453332;
REPSWITCH1/PICTURE_271.png;conejo;speak;gold;filler;2;F;4;1;1;1;Stim7_Set3;0;None;96;95;96;0;95;95;95;;;;;;;;;;;;;;;;;;;;;;;460.72234189976007;461.89613060001284;461.89613060001284;461.89613060001284;461.89613060001284;461.89613060001284;461.89613060001284;461.89613060001284;461.89613060001284;None;0;;;C:\2023\REPSWITCH21092023\REPSWITCH_excgange\REPSWITCH_excgange\data/490101_REPSWITCH1_version1_list1_2024-01-26_14h16.21.646_micRespv1l1_recorded\recording_micRespv1l1_2024-01-26_14h24.00.689.wav;464.924314099364;;None;464.924314099364;464.924314099364;464.924314099364;464.924314099364;464.924314099364;464.924314099364;;;;;;490101;001;2024-01-26_14h16.21.646;REPSWITCH1_version1_list1;2022.2.4;143.9853716453332;
REPSWITCH1/PICTURE_48.png;bombero;speak;gold;nontarget;2;NT;4;1;1;1;Stim7_Set4;0;None;97;96;97;0;96;96;96;;;;;;;;;;;;;;;;;;;;;;;465.42435400001705;466.52869709953666;466.52869709953666;466.52869709953666;466.52869709953666;466.52869709953666;466.52869709953666;466.52869709953666;466.52869709953666;None;0;;;C:\2023\REPSWITCH21092023\REPSWITCH_excgange\REPSWITCH_excgange\data/490101_REPSWITCH1_version1_list1_2024-01-26_14h16.21.646_micRespv1l1_recorded\recording_micRespv1l1_2024-01-26_14h24.05.320.wav;469.5499157998711;470.0499796997756;None;469.5499157998711;469.5499157998711;469.5499157998711;469.5499157998711;469.5499157998711;469.5499157998711;;;;;;490101;001;2024-01-26_14h16.21.646;REPSWITCH1_version1_list1;2022.2.4;143.9853716453332;
REPSWITCH1/PICTURE_48.png;bombero;type;darkblue;switch;1;T;4;1;1;1;Stim7_Set4;0;None;98;97;98;0;97;97;97;;;;;;;;;;;;;;;;;;;;;;;470.0499796997756;471.18206579983234;471.18206579983234;471.18206579983234;471.18206579983234;471.18206579983234;471.18206579983234;471.18206579983234;471.18206579983234;['b', 'o', 'm', 'b', 'e', 'r', 'o'];0;[0.8507596999406815, 0.981305799447, 1.086961599998176, 1.251405599527061, 1.4567329995334148, 1.5463832998648286, 1.6431106999516487];bombero;C:\2023\REPSWITCH21092023\REPSWITCH_excgange\REPSWITCH_excgange\data/490101_REPSWITCH1_version1_list1_2024-01-26_14h16.21.646_micRespv1l1_recorded\recording_micRespv1l1_2024-01-26_14h24.09.974.wav;474.2033193996176;474.7033453993499;None;474.2033193996176;474.2033193996176;474.2033193996176;474.2033193996176;474.2033193996176;474.2033193996176;;;;;;490101;001;2024-01-26_14h16.21.646;REPSWITCH1_version1_list1;2022.2.4;143.9853716453332;
REPSWITCH1/PICTURE_728.png;pulpo;type;darkblue;nontarget;1;NT;4;1;1;1;Stim8_Set4;0;None;99;98;99;0;98;98;98;;;;;;;;;;;;;;;;;;;;;;;474.7033453993499;475.8910110993311;475.8910110993311;475.8910110993311;475.8910110993311;475.8910110993311;475.8910110993311;475.8910110993311;475.8910110993311;['p', 'u', 'l', 'p', 'o'];0;[0.8211596999317408, 1.0862710000947118, 1.444068499840796, 1.5676669999957085, 1.6842678999528289];pulpo;C:\2023\REPSWITCH21092023\REPSWITCH_excgange\REPSWITCH_excgange\data/490101_REPSWITCH1_version1_list1_2024-01-26_14h16.21.646_micRespv1l1_recorded\recording_micRespv1l1_2024-01-26_14h24.14.683.wav;478.91226710006595;479.41228390019387;None;478.91226710006595;478.91226710006595;478.91226710006595;478.91226710006595;478.91226710006595;478.91226710006595;;;;;;490101;001;2024-01-26_14h16.21.646;REPSWITCH1_version1_list1;2022.2.4;143.9853716453332;
REPSWITCH1/PICTURE_728.png;pulpo;type;darkblue;repeat;1;T;4;1;1;1;Stim8_Set4;0;None;100;99;100;0;99;99;99;;;;;;;;;;;;;;;;;;;;;;;479.41228390019387;480.54440019931644;480.54440019931644;480.54440019931644;480.54440019931644;480.54440019931644;480.54440019931644;480.54440019931644;480.54440019931644;['p', 'u', 'l', 'p', 'o'];0;[0.5749871004372835, 0.8281787997111678, 1.0554219000041485, 1.25674660038203, 1.3155466997995973];pulpo;C:\2023\REPSWITCH21092023\REPSWITCH_excgange\REPSWITCH_excgange\data/490101_REPSWITCH1_version1_list1_2024-01-26_14h16.21.646_micRespv1l1_recorded\recording_micRespv1l1_2024-01-26_14h24.19.337.wav;483.57258629985154;;None;483.57258629985154;483.57258629985154;483.57258629985154;483.57258629985154;483.57258629985154;483.57258629985154;;;;;;490101;001;2024-01-26_14h16.21.646;REPSWITCH1_version1_list1;2022.2.4;143.9853716453332;
REPSWITCH1/PICTURE_320.png;iglesia;speak;gold;filler;1;F;4;1;1;1;Stim8_Set3;0;None;101;100;101;0;100;100;100;;;;;;;;;;;;;;;;;;;;;;;484.07272729929537;485.1283375993371;485.1283375993371;485.1283375993371;485.1283375993371;485.1283375993371;485.1283375993371;485.1283375993371;485.1283375993371;None;0;;;C:\2023\REPSWITCH21092023\REPSWITCH_excgange\REPSWITCH_excgange\data/490101_REPSWITCH1_version1_list1_2024-01-26_14h16.21.646_micRespv1l1_recorded\recording_micRespv1l1_2024-01-26_14h24.23.921.wav;488.149569099769;488.6496468996629;None;488.149569099769;488.149569099769;488.149569099769;488.149569099769;488.149569099769;488.149569099769;;;;;;490101;001;2024-01-26_14h16.21.646;REPSWITCH1_version1_list1;2022.2.4;143.9853716453332;
REPSWITCH1/PICTURE_464.png;goma;type;darkblue;filler;1;F;4;1;1;1;Stim6_Set3;0;None;102;101;102;0;101;101;101;;;;;;;;;;;;;;;;;;;;;;;488.6496468996629;489.69840110000223;489.69840110000223;489.69840110000223;489.69840110000223;489.69840110000223;489.69840110000223;489.69840110000223;489.69840110000223;['g', 'o', 'm', 'a'];0;[0.9869881002232432, 1.0627573002129793, 1.1395179005339742, 1.2680807001888752];goma;C:\2023\REPSWITCH21092023\REPSWITCH_excgange\REPSWITCH_excgange\data/490101_REPSWITCH1_version1_list1_2024-01-26_14h16.21.646_micRespv1l1_recorded\recording_micRespv1l1_2024-01-26_14h24.28.491.wav;492.7196378996596;493.2196894995868;space;492.7196378996596;492.7196378996596;492.7196378996596;492.7196378996596;492.7196378996596;492.7196378996596;493.2196894995868;493.2196894995868;17.781784099526703;;;490101;001;2024-01-26_14h16.21.646;REPSWITCH1_version1_list1;2022.2.4;143.9853716453332;
REPSWITCH1/PICTURE_663.png;columna;type;darkblue;filler;1;F;1;2;1;1;Extra6;0;None;103;102;1;0;102;102;102;;;;;;;;;;;;;;;;;;;;;;;511.0136564001441;512.2083078995347;512.2083078995347;512.2083078995347;512.2083078995347;512.2083078995347;512.2083078995347;512.2083078995347;512.2083078995347;['c', 'o', 'l', 'u', 'm', 'n', 'a'];0;[0.6868342999368906, 0.8722638003528118, 1.0815147003158927, 1.2977817999199033, 1.4651815006509423, 1.633657100610435, 1.7074151001870632];columna;C:\2023\REPSWITCH21092023\REPSWITCH_excgange\REPSWITCH_excgange\data/490101_REPSWITCH1_version1_list1_2024-01-26_14h16.21.646_micRespv1l1_recorded\recording_micRespv1l1_2024-01-26_14h24.51.001.wav;515.2294951993972;515.7295920001343;None;515.2294951993972;515.2294951993972;515.2294951993972;515.2294951993972;515.2294951993972;515.2294951993972;;;;;;490101;001;2024-01-26_14h16.21.646;REPSWITCH1_version1_list1;2022.2.4;143.9853716453332;
REPSWITCH1/PICTURE_128.png;muñeca;speak;gold;nontarget;2;NT;1;2;1;1;Stim4_Set1;1;switch;104;103;2;0;103;103;103;;;;;;;;;;;;;;;;;;;;;;;515.7295920001343;516.8200314994901;516.8200314994901;516.8200314994901;516.8200314994901;516.8200314994901;516.8200314994901;516.8200314994901;516.8200314994901;None;0;;;C:\2023\REPSWITCH21092023\REPSWITCH_excgange\REPSWITCH_excgange\data/490101_REPSWITCH1_version1_list1_2024-01-26_14h16.21.646_micRespv1l1_recorded\recording_micRespv1l1_2024-01-26_14h24.55.613.wav;519.848147499375;;None;519.848147499375;519.848147499375;519.848147499375;519.848147499375;519.848147499375;519.848147499375;;;;;;490101;001;2024-01-26_14h16.21.646;REPSWITCH1_version1_list1;2022.2.4;143.9853716453332;
REPSWITCH1/PICTURE_128.png;muñeca;speak;gold;repeat;2;T;1;2;1;1;Stim4_Set1;0;None;105;104;3;0;104;104;104;;;;;;;;;;;;;;;;;;;;;;;520.3482592999935;521.4386634994298;521.4386634994298;521.4386634994298;521.4386634994298;521.4386634994298;521.4386634994298;521.4386634994298;521.4386634994298;None;0;;;C:\2023\REPSWITCH21092023\REPSWITCH_excgange\REPSWITCH_excgange\data/490101_REPSWITCH1_version1_list1_2024-01-26_14h16.21.646_micRespv1l1_recorded\recording_micRespv1l1_2024-01-26_14h25.00.231.wav;524.4668469997123;;None;524.4668469997123;524.4668469997123;524.4668469997123;524.4668469997123;524.4668469997123;524.4668469997123;;;;;;490101;001;2024-01-26_14h16.21.646;REPSWITCH1_version1_list1;2022.2.4;143.9853716453332;
REPSWITCH1/PICTURE_8.png;pierna;type;darkblue;filler;1;F;1;2;1;1;Stim3_Set4;0;None;106;105;4;0;105;105;105;;;;;;;;;;;;;;;;;;;;;;;524.9668793994933;526.0017825998366;526.0017825998366;526.0017825998366;526.0017825998366;526.0017825998366;526.0017825998366;526.0017825998366;526.0017825998366;['p', 'i', 'e', 'r', 'n', 'a'];0;[0.7240968998521566, 0.8994925003498793, 1.0161101995036006, 1.0868758000433445, 1.1705978997051716, 1.3011525999754667];pierna;C:\2023\REPSWITCH21092023\REPSWITCH_excgange\REPSWITCH_excgange\data/490101_REPSWITCH1_version1_list1_2024-01-26_14h16.21.646_micRespv1l1_recorded\recording_micRespv1l1_2024-01-26_14h25.04.794.wav;529.0229802001268;529.5230791997164;None;529.0229802001268;529.0229802001268;529.0229802001268;529.0229802001268;529.0229802001268;529.0229802001268;;;;;;490101;001;2024-01-26_14h16.21.646;REPSWITCH1_version1_list1;2022.2.4;143.9853716453332;
REPSWITCH1/PICTURE_135.png;traje;speak;gold;nontarget;2;NT;1;2;1;1;Stim3_Set1;1;switch;107;106;5;0;106;106;106;;;;;;;;;;;;;;;;;;;;;;;529.5230791997164;530.5509711997584;530.5509711997584;530.5509711997584;530.5509711997584;530.5509711997584;530.5509711997584;530.5509711997584;530.5509711997584;None;0;;;C:\2023\REPSWITCH21092023\REPSWITCH_excgange\REPSWITCH_excgange\data/490101_REPSWITCH1_version1_list1_2024-01-26_14h16.21.646_micRespv1l1_recorded\recording_micRespv1l1_2024-01-26_14h25.09.343.wav;533.5721769994125;534.0722738001496;None;533.5721769994125;533.5721769994125;533.5721769994125;533.5721769994125;533.5721769994125;533.5721769994125;;;;;;490101;001;2024-01-26_14h16.21.646;REPSWITCH1_version1_list1;2022.2.4;143.9853716453332;
REPSWITCH1/PICTURE_135.png;traje;speak;gold;repeat;2;T;1;2;1;1;Stim3_Set1;0;None;108;107;6;0;107;107;107;;;;;;;;;;;;;;;;;;;;;;;534.0722738001496;535.1696374993771;535.1696374993771;535.1696374993771;535.1696374993771;535.1696374993771;535.1696374993771;535.1696374993771;535.1696374993771;None;0;;;C:\2023\REPSWITCH21092023\REPSWITCH_excgange\REPSWITCH_excgange\data/490101_REPSWITCH1_version1_list1_2024-01-26_14h16.21.646_micRespv1l1_recorded\recording_micRespv1l1_2024-01-26_14h25.13.963.wav;538.1908382996917;538.690903599374;None;538.1908382996917;538.1908382996917;538.1908382996917;538.1908382996917;538.1908382996917;538.1908382996917;;;;;;490101;001;2024-01-26_14h16.21.646;REPSWITCH1_version1_list1;2022.2.4;143.9853716453332;
REPSWITCH1/PICTURE_673.png;tenedor;type;darkblue;filler;1;F;1;2;1;1;Extra5;0;None;109;108;7;0;108;108;108;;;;;;;;;;;;;;;;;;;;;;;538.690903599374;539.7049790993333;539.7049790993333;539.7049790993333;539.7049790993333;539.7049790993333;539.7049790993333;539.7049790993333;539.7049790993333;['t', 'e', 'n', 'e', 'd', 'o', 'r'];0;[0.7081292001530528, 0.8317023003473878, 0.9393338998779655, 1.052955999970436, 1.1964694000780582, 1.2801948999986053, 1.3958197999745607];tenedor;C:\2023\REPSWITCH21092023\REPSWITCH_excgange\REPSWITCH_excgange\data/490101_REPSWITCH1_version1_list1_2024-01-26_14h16.21.646_micRespv1l1_recorded\recording_micRespv1l1_2024-01-26_14h25.18.498.wav;542.7261860994622;543.2262579994276;None;542.7261860994622;542.7261860994622;542.7261860994622;542.7261860994622;542.7261860994622;542.7261860994622;;;;;;490101;001;2024-01-26_14h16.21.646;REPSWITCH1_version1_list1;2022.2.4;143.9853716453332;
REPSWITCH1/PICTURE_728.png;pulpo;speak;gold;filler;2;F;1;2;1;1;Stim8_Set4;0;None;110;109;8;0;109;109;109;;;;;;;;;;;;;;;;;;;;;;;543.2262579994276;544.3652916001156;544.3652916001156;544.3652916001156;544.3652916001156;544.3652916001156;544.3652916001156;544.3652916001156;544.3652916001156;None;0;;;C:\2023\REPSWITCH21092023\REPSWITCH_excgange\REPSWITCH_excgange\data/490101_REPSWITCH1_version1_list1_2024-01-26_14h16.21.646_micRespv1l1_recorded\recording_micRespv1l1_2024-01-26_14h25.23.157.wav;547.3865026999265;547.8865943998098;None;547.3865026999265;547.3865026999265;547.3865026999265;547.3865026999265;547.3865026999265;547.3865026999265;;;;;;490101;001;2024-01-26_14h16.21.646;REPSWITCH1_version1_list1;2022.2.4;143.9853716453332;
REPSWITCH1/PICTURE_16.png;cazador;speak;gold;nontarget;2;NT;1;2;1;1;Stim6_Set1;1;repeat;111;110;9;0;110;110;110;;;;;;;;;;;;;;;;;;;;;;;547.8865943998098;548.9006245993078;548.9006245993078;548.9006245993078;548.9006245993078;548.9006245993078;548.9006245993078;548.9006245993078;548.9006245993078;None;0;;;C:\2023\REPSWITCH21092023\REPSWITCH_excgange\REPSWITCH_excgange\data/490101_REPSWITCH1_version1_list1_2024-01-26_14h16.21.646_micRespv1l1_recorded\recording_micRespv1l1_2024-01-26_14h25.27.693.wav;551.9218127001077;552.4219110999256;None;551.9218127001077;551.9218127001077;551.9218127001077;551.9218127001077;551.9218127001077;551.9218127001077;;;;;;490101;001;2024-01-26_14h16.21.646;REPSWITCH1_version1_list1;2022.2.4;143.9853716453332;
REPSWITCH1/PICTURE_16.png;cazador;type;darkblue;switch;1;T;1;2;1;1;Stim6_Set1;0;None;112;111;10;0;111;111;111;;;;;;;;;;;;;;;;;;;;;;;552.4219110999256;553.5679869996384;553.5679869996384;553.5679869996384;553.5679869996384;553.5679869996384;553.5679869996384;553.5679869996384;553.5679869996384;['c', 'a', 'z', 'a', 'd', 'o', 'r'];0;[0.7137214001268148, 0.8602133998647332, 1.0495715001598, 1.2489174995571375, 1.3585463995113969, 1.501083499751985, 1.5947597995400429];cazador;C:\2023\REPSWITCH21092023\REPSWITCH_excgange\REPSWITCH_excgange\data/490101_REPSWITCH1_version1_list1_2024-01-26_14h16.21.646_micRespv1l1_recorded\recording_micRespv1l1_2024-01-26_14h25.32.361.wav;556.5890911994502;557.0891883997247;None;556.5890911994502;556.5890911994502;556.5890911994502;556.5890911994502;556.5890911994502;556.5890911994502;;;;;;490101;001;2024-01-26_14h16.21.646;REPSWITCH1_version1_list1;2022.2.4;143.9853716453332;
REPSWITCH1/PICTURE_498.png;taza;type;darkblue;filler;1;F;1;2;1;1;Stim4_Set4;1;repeat;113;112;11;0;112;112;112;;;;;;;;;;;;;;;;;;;;;;;557.0891883997247;558.1448678001761;558.1448678001761;558.1448678001761;558.1448678001761;558.1448678001761;558.1448678001761;558.1448678001761;558.1448678001761;['t', 'a', 'z', 'a'];0;[0.7843025997281075, 0.9178410992026329, 1.096243399195373, 1.2806253992021084];taza;C:\2023\REPSWITCH21092023\REPSWITCH_excgange\REPSWITCH_excgange\data/490101_REPSWITCH1_version1_list1_2024-01-26_14h16.21.646_micRespv1l1_recorded\recording_micRespv1l1_2024-01-26_14h25.36.938.wav;561.1730657992885;;None;561.1730657992885;561.1730657992885;561.1730657992885;561.1730657992885;561.1730657992885;561.1730657992885;;;;;;490101;001;2024-01-26_14h16.21.646;REPSWITCH1_version1_list1;2022.2.4;143.9853716453332;
REPSWITCH1/PICTURE_381.png;fresa;type;darkblue;nontarget;1;NT;1;2;1;1;Stim2_Set1;1;repeat;114;113;12;0;113;113;113;;;;;;;;;;;;;;;;;;;;;;;561.6731031993404;562.8886247994378;562.8886247994378;562.8886247994378;562.8886247994378;562.8886247994378;562.8886247994378;562.8886247994378;562.8886247994378;['f', 'r', 'e', 's', 'a'];0;[1.0667213993147016, 1.2172128995880485, 1.3288411991670728, 1.4863089993596077, 1.5670443996787071];fresa;C:\2023\REPSWITCH21092023\REPSWITCH_excgange\REPSWITCH_excgange\data/490101_REPSWITCH1_version1_list1_2024-01-26_14h16.21.646_micRespv1l1_recorded\recording_micRespv1l1_2024-01-26_14h25.41.682.wav;565.9167467001826;;None;565.9167467001826;565.9167467001826;565.9167467001826;565.9167467001826;565.9167467001826;565.9167467001826;;;;;;490101;001;2024-01-26_14h16.21.646;REPSWITCH1_version1_list1;2022.2.4;143.9853716453332;
REPSWITCH1/PICTURE_381.png;fresa;speak;gold;switch;2;T;1;2;1;1;Stim2_Set1;0;None;115;114;13;0;114;114;114;;;;;;;;;;;;;;;;;;;;;;;566.4168029995635;567.6878701001406;567.6878701001406;567.6878701001406;567.6878701001406;567.6878701001406;567.6878701001406;567.6878701001406;567.6878701001406;None;0;;;C:\2023\REPSWITCH21092023\REPSWITCH_excgange\REPSWITCH_excgange\data/490101_REPSWITCH1_version1_list1_2024-01-26_14h16.21.646_micRespv1l1_recorded\recording_micRespv1l1_2024-01-26_14h25.46.481.wav;570.7159492997453;;None;570.7159492997453;570.7159492997453;570.7159492997453;570.7159492997453;570.7159492997453;570.7159492997453;;;;;;490101;001;2024-01-26_14h16.21.646;REPSWITCH1_version1_list1;2022.2.4;143.9853716453332;
REPSWITCH1/PICTURE_178.png;puente;speak;gold;nontarget;2;NT;1;2;1;1;Stim1_Set1;0;None;116;115;14;0;115;115;115;;;;;;;;;;;;;;;;;;;;;;;571.2160620000213;572.2856152001768;572.2856152001768;572.2856152001768;572.2856152001768;572.2856152001768;572.2856152001768;572.2856152001768;572.2856152001768;None;0;;;C:\2023\REPSWITCH21092023\REPSWITCH_excgange\REPSWITCH_excgange\data/490101_REPSWITCH1_version1_list1_2024-01-26_14h16.21.646_micRespv1l1_recorded\recording_micRespv1l1_2024-01-26_14h25.51.078.wav;575.3068250995129;575.8068899996579;None;575.3068250995129;575.3068250995129;575.3068250995129;575.3068250995129;575.3068250995129;575.3068250995129;;;;;;490101;001;2024-01-26_14h16.21.646;REPSWITCH1_version1_list1;2022.2.4;143.9853716453332;
REPSWITCH1/PICTURE_178.png;puente;type;darkblue;switch;1;T;1;2;1;1;Stim1_Set1;0;None;117;116;15;0;116;116;116;;;;;;;;;;;;;;;;;;;;;;;575.8068899996579;576.8139877999201;576.8139877999201;576.8139877999201;576.8139877999201;576.8139877999201;576.8139877999201;576.8139877999201;576.8139877999201;['p', 'u', 'e', 'n', 't', 'e'];0;[0.742862599901855, 1.0288972994312644, 1.1305614998564124, 1.310967999510467, 1.4614475993439555, 1.546230299398303];puente;C:\2023\REPSWITCH21092023\REPSWITCH_excgange\REPSWITCH_excgange\data/490101_REPSWITCH1_version1_list1_2024-01-26_14h16.21.646_micRespv1l1_recorded\recording_micRespv1l1_2024-01-26_14h25.55.606.wav;579.8352424995974;580.335283299908;None;579.8352424995974;579.8352424995974;579.8352424995974;579.8352424995974;579.8352424995974;579.8352424995974;;;;;;490101;001;2024-01-26_14h16.21.646;REPSWITCH1_version1_list1;2022.2.4;143.9853716453332;
REPSWITCH1/PICTURE_719.png;baño;speak;gold;filler;2;F;1;2;1;1;Stim2_Set4;0;None;118;117;16;0;117;117;117;;;;;;;;;;;;;;;;;;;;;;;580.335283299908;581.4257836993784;581.4257836993784;581.4257836993784;581.4257836993784;581.4257836993784;581.4257836993784;581.4257836993784;581.4257836993784;None;0;;;C:\2023\REPSWITCH21092023\REPSWITCH_excgange\REPSWITCH_excgange\data/490101_REPSWITCH1_version1_list1_2024-01-26_14h16.21.646_micRespv1l1_recorded\recording_micRespv1l1_2024-01-26_14h26.00.218.wav;584.4538594996557;;None;584.4538594996557;584.4538594996557;584.4538594996557;584.4538594996557;584.4538594996557;584.4538594996557;;;;;;490101;001;2024-01-26_14h16.21.646;REPSWITCH1_version1_list1;2022.2.4;143.9853716453332;
REPSWITCH1/PICTURE_169.png;espalda;type;darkblue;nontarget;1;NT;1;2;1;1;Stim8_Set1;1;switch;119;118;17;0;118;118;118;;;;;;;;;;;;;;;;;;;;;;;584.953962999396;586.0582585996017;586.0582585996017;586.0582585996017;586.0582585996017;586.0582585996017;586.0582585996017;586.0582585996017;586.0582585996017;['e', 's', 'p', 'a', 'l', 'd', 'a'];0;[0.6360703995451331, 0.8423367999494076, 0.949966799467802, 1.1044351998716593, 1.2270996998995543, 1.322724599391222, 1.4204102996736765];espalda;C:\2023\REPSWITCH21092023\REPSWITCH_excgange\REPSWITCH_excgange\data/490101_REPSWITCH1_version1_list1_2024-01-26_14h16.21.646_micRespv1l1_recorded\recording_micRespv1l1_2024-01-26_14h26.04.850.wav;589.0794744994491;589.5795698994771;None;589.0794744994491;589.0794744994491;589.0794744994491;589.0794744994491;589.0794744994491;589.0794744994491;;;;;;490101;001;2024-01-26_14h16.21.646;REPSWITCH1_version1_list1;2022.2.4;143.9853716453332;
REPSWITCH1/PICTURE_169.png;espalda;type;darkblue;repeat;1;T;1;2;1;1;Stim8_Set1;0;None;120;119;18;0;119;119;119;;;;;;;;;;;;;;;;;;;;;;;589.5795698994771;590.6978339999914;590.6978339999914;590.6978339999914;590.6978339999914;590.6978339999914;590.6978339999914;590.6978339999914;590.6978339999914;['e', 's', 'p', 'a', 'l', 'd', 'a'];0;[0.6050386000424623, 0.7853883998468518, 0.8900796994566917, 1.057582300156355, 1.214988799765706, 1.3565790997818112, 1.4342596996575594];espalda;C:\2023\REPSWITCH21092023\REPSWITCH_excgange\REPSWITCH_excgange\data/490101_REPSWITCH1_version1_list1_2024-01-26_14h16.21.646_micRespv1l1_recorded\recording_micRespv1l1_2024-01-26_14h26.09.490.wav;593.7190100001171;594.2190699996427;None;593.7190100001171;593.7190100001171;593.7190100001171;593.7190100001171;593.7190100001171;593.7190100001171;;;;;;490101;001;2024-01-26_14h16.21.646;REPSWITCH1_version1_list1;2022.2.4;143.9853716453332;
REPSWITCH1/PICTURE_48.png;bombero;speak;gold;filler;2;F;1;2;1;1;Stim7_Set4;1;switch;121;120;19;0;120;120;120;;;;;;;;;;;;;;;;;;;;;;;594.2190699996427;595.2747897999361;595.2747897999361;595.2747897999361;595.2747897999361;595.2747897999361;595.2747897999361;595.2747897999361;595.2747897999361;None;0;;;C:\2023\REPSWITCH21092023\REPSWITCH_excgange\REPSWITCH_excgange\data/490101_REPSWITCH1_version1_list1_2024-01-26_14h16.21.646_micRespv1l1_recorded\recording_micRespv1l1_2024-01-26_14h26.14.068.wav;598.2959620999172;598.7960233995691;None;598.2959620999172;598.2959620999172;598.2959620999172;598.2959620999172;598.2959620999172;598.2959620999172;;;;;;490101;001;2024-01-26_14h16.21.646;REPSWITCH1_version1_list1;2022.2.4;143.9853716453332;
