image,correctAns,respModal,frameColour,repSwitch,sequence,target,set,stimulus,trialsREPSWITCH.thisRepN,trialsREPSWITCH.thisTrialN,trialsREPSWITCH.thisN,trialsREPSWITCH.thisIndex,textWelcome.started,textBlank500.started,textInstrMain1.started,keyInstrMain.started,keyInstrMain.keys,keyInstrMain.rt,textInstrMain2.started,keyInstrMain2.started,keyInstrMain2.keys,keyInstrMain2.rt,textBlank500.stopped,fixationITI.started,fixationITI.stopped,polygonColour.started,polygonWhite.started,imageObject.started,polygonType.started,textInput.started,keyResp.started,micResp.started,keyResp.keys,keyResp.corr,subjResponse,micResp.clip,keyPause.keys,keyResp.rt,textPause.started,keyPause.started,keyPause.rt,textGoodbye.started,participant,session,date,expName,psychopyVersion,frameRate,
,,,,,,,,,,,,,18.68131060001906,20.68605379993096,21.18551999994088,21.18551999994088,space,1.1865876999218017,,,,,,,,,,,,,,,,,,,,,,,,,04,001,2023-06-26_15h22.39.238,REPSWITCH_1,2022.2.4,60.02159575291948,
,,,,,,,,,,,,,,,,,,,22.401992699946277,22.401992699946277,space,1.8022777999285609,,,,,,,,,,,,,,,,,,,,,04,001,2023-06-26_15h22.39.238,REPSWITCH_1,2022.2.4,60.02159575291948,
REPSWITCH1/PICTURE_178.png,puente,speak,yellow,nontarget,2,NT,1,Stim1_Set1,0,0,0,0,,29.21501739998348,,,,,,,,,24.99898279993795,24.99898279993795,26.316389999934472,26.316389999934472,26.316389999934472,26.316389999934472,26.316389999934472,26.316389999934472,26.316389999934472,0.018493699957616627,None,0,,D:\GitHub\experiment1\data/04_REPSWITCH_1_2023-06-26_15h22.39.238_micResp_recorded\recording_micResp_2023-06-26_15h22.56.055.wav,None,,,,,,04,001,2023-06-26_15h22.39.238,REPSWITCH_1,2022.2.4,60.02159575291948,
REPSWITCH1/PICTURE_178.png,puente,speak,yellow,repeat,2,T,1,Stim1_Set1,0,1,1,1,,33.94711579999421,,,,,,,,,,29.666215799981728,30.89950930001214,30.89950930001214,30.89950930001214,30.89950930001214,30.89950930001214,30.89950930001214,30.89950930001214,0.01086899999063462,None,0,,D:\GitHub\experiment1\data/04_REPSWITCH_1_2023-06-26_15h22.39.238_micResp_recorded\recording_micResp_2023-06-26_15h23.00.779.wav,None,,,,,,04,001,2023-06-26_15h22.39.238,REPSWITCH_1,2022.2.4,60.02159575291948,
REPSWITCH1/PICTURE_319.png,vaca,type,indigo,filler,1,F,1,Stim1_Set4,0,2,2,2,,38.56257900001947,,,,,,,,,,34.39848189998884,35.53135469998233,35.53135469998233,35.53135469998233,35.53135469998233,35.53135469998233,35.53135469998233,35.53135469998233,0.030888799927197397,"['b', 'a', 'c', 'a']",0,baca,D:\GitHub\experiment1\data/04_REPSWITCH_1_2023-06-26_15h22.39.238_micResp_recorded\recording_micResp_2023-06-26_15h23.05.391.wav,None,"[1.325433999998495, 1.453731800080277, 1.990790200070478, 2.1174698000540957]",,,,,04,001,2023-06-26_15h22.39.238,REPSWITCH_1,2022.2.4,60.02159575291948,
REPSWITCH1/PICTURE_142.png,vaso,speak,yellow,nontarget,2,NT,1,Stim2_Set1,0,3,3,3,,43.24494849995244,,,,,,,,,,39.0140935999807,40.31386739993468,40.31386739993468,40.31386739993468,40.31386739993468,40.31386739993468,40.31386739993468,40.31386739993468,0.12363490008283406,None,0,,D:\GitHub\experiment1\data/04_REPSWITCH_1_2023-06-26_15h22.39.238_micResp_recorded\recording_micResp_2023-06-26_15h23.10.070.wav,None,,,,,,04,001,2023-06-26_15h22.39.238,REPSWITCH_1,2022.2.4,60.02159575291948,
REPSWITCH1/PICTURE_142.png,vaso,speak,yellow,repeat,2,T,1,Stim2_Set1,0,4,4,4,,48.127003800007515,,,,,,,,,,43.696264599915594,45.079340999946,45.079340999946,45.079340999946,45.079340999946,45.079340999946,45.079340999946,45.079340999946,0.00970749999396503,None,0,,D:\GitHub\experiment1\data/04_REPSWITCH_1_2023-06-26_15h22.39.238_micResp_recorded\recording_micResp_2023-06-26_15h23.14.958.wav,None,,,,,,04,001,2023-06-26_15h22.39.238,REPSWITCH_1,2022.2.4,60.02159575291948,
REPSWITCH1/PICTURE_719.png,baño,type,indigo,filler,1,F,1,Stim2_Set4,0,5,5,5,,52.75940320000518,,,,,,,,,,48.578864299925044,50.02829309995286,50.02829309995286,50.02829309995286,50.02829309995286,50.02829309995286,50.02829309995286,50.02829309995286,0.3071761999744922,"['b', 'a', 'n', 'o']",0,bano,D:\GitHub\experiment1\data/04_REPSWITCH_1_2023-06-26_15h22.39.238_micResp_recorded\recording_micResp_2023-06-26_15h23.19.603.wav,None,"[1.0241625999333337, 1.150372999953106, 1.2362968999659643, 1.5344486999092624]",,,,,04,001,2023-06-26_15h22.39.238,REPSWITCH_1,2022.2.4,60.02159575291948,
REPSWITCH1/PICTURE_135.png,traje,speak,yellow,nontarget,2,NT,1,Stim3_Set1,0,6,6,6,,57.4581602999242,,,,,,,,,,53.22926860000007,54.46114139992278,54.46114139992278,54.46114139992278,54.46114139992278,54.46114139992278,54.46114139992278,54.46114139992278,0.054599600029177964,None,0,,D:\GitHub\experiment1\data/04_REPSWITCH_1_2023-06-26_15h22.39.238_micResp_recorded\recording_micResp_2023-06-26_15h23.24.286.wav,None,,,,,,04,001,2023-06-26_15h22.39.238,REPSWITCH_1,2022.2.4,60.02159575291948,
REPSWITCH1/PICTURE_135.png,traje,type,indigo,switch,1,T,1,Stim3_Set1,0,7,7,7,,62.24035999993794,,,,,,,,,,57.91007759992499,59.19264020002447,59.19264020002447,59.19264020002447,59.19264020002447,59.19264020002447,59.19264020002447,59.19264020002447,0.008935500052757561,"['t', 'r', 'a', 'j', 'e']",0,traje,D:\GitHub\experiment1\data/04_REPSWITCH_1_2023-06-26_15h22.39.238_micResp_recorded\recording_micResp_2023-06-26_15h23.29.071.wav,None,"[0.9110940999817103, 1.117895600036718, 1.2038467000238597, 1.3720556000480428, 1.471246200031601]",,,,,04,001,2023-06-26_15h22.39.238,REPSWITCH_1,2022.2.4,60.02159575291948,
REPSWITCH1/PICTURE_128.png,muñeca,type,indigo,nontarget,1,NT,1,Stim4_Set1,0,8,8,8,,66.92254029994365,,,,,,,,,,62.692846499965526,64.02495829993859,64.02495829993859,64.02495829993859,64.02495829993859,64.02495829993859,64.02495829993859,64.02495829993859,0.13594309997279197,"['m', 'u', 'n', 'e', 'c', 'a']",0,muneca,D:\GitHub\experiment1\data/04_REPSWITCH_1_2023-06-26_15h22.39.238_micResp_recorded\recording_micResp_2023-06-26_15h23.33.767.wav,None,"[1.0273475999711081, 1.1790470000123605, 1.3984341999748722, 1.450995499966666, 1.6093437999952585, 1.740221400046721]",,,,,04,001,2023-06-26_15h22.39.238,REPSWITCH_1,2022.2.4,60.02159575291948,
REPSWITCH1/PICTURE_128.png,muñeca,speak,yellow,switch,2,T,1,Stim4_Set1,0,9,9,9,,71.73817129991949,,,,,,,,,,67.39056119997986,68.6903495999286,68.6903495999286,68.6903495999286,68.6903495999286,68.6903495999286,68.6903495999286,68.6903495999286,0.008136000018566847,None,0,,D:\GitHub\experiment1\data/04_REPSWITCH_1_2023-06-26_15h22.39.238_micResp_recorded\recording_micResp_2023-06-26_15h23.38.569.wav,None,,,,,,04,001,2023-06-26_15h22.39.238,REPSWITCH_1,2022.2.4,60.02159575291948,
REPSWITCH1/PICTURE_8.png,pierna,speak,yellow,filler,2,F,1,Stim3_Set4,0,10,10,10,,76.33705239999108,,,,,,,,,,72.18953289999627,73.40771349996794,73.40771349996794,73.40771349996794,73.40771349996794,73.40771349996794,73.40771349996794,73.40771349996794,0.11772099998779595,None,0,,D:\GitHub\experiment1\data/04_REPSWITCH_1_2023-06-26_15h22.39.238_micResp_recorded\recording_micResp_2023-06-26_15h23.43.165.wav,None,,,,,,04,001,2023-06-26_15h22.39.238,REPSWITCH_1,2022.2.4,60.02159575291948,
REPSWITCH1/PICTURE_19.png,pavo,speak,yellow,nontarget,2,NT,1,Stim5_Set1,0,11,11,11,,81.05246929998975,,,,,,,,,,76.78852760000154,78.12139520002529,78.12139520002529,78.12139520002529,78.12139520002529,78.12139520002529,78.12139520002529,78.12139520002529,0.12984430009964854,None,0,,D:\GitHub\experiment1\data/04_REPSWITCH_1_2023-06-26_15h22.39.238_micResp_recorded\recording_micResp_2023-06-26_15h23.47.880.wav,None,,,,,,04,001,2023-06-26_15h22.39.238,REPSWITCH_1,2022.2.4,60.02159575291948,
REPSWITCH1/PICTURE_19.png,pavo,type,indigo,switch,1,T,1,Stim5_Set1,0,12,12,12,,85.61805309995543,,,,,,,,,,81.50386339996476,82.57048739993479,82.57048739993479,82.57048739993479,82.57048739993479,82.57048739993479,82.57048739993479,82.57048739993479,0.010133399977348745,"['p', 'a', 'v', 'o']",0,pavo,D:\GitHub\experiment1\data/04_REPSWITCH_1_2023-06-26_15h22.39.238_micResp_recorded\recording_micResp_2023-06-26_15h23.52.446.wav,None,"[1.0703807000536472, 1.2737611000193283, 1.5817735000746325, 1.6831284000072628]",,,,,04,001,2023-06-26_15h22.39.238,REPSWITCH_1,2022.2.4,60.02159575291948,
REPSWITCH1/PICTURE_498.png,taza,speak,yellow,filler,2,F,1,Stim4_Set4,0,13,13,13,,90.38358000002336,,,,,,,,,,86.07035139994696,87.46903189993463,87.46903189993463,87.46903189993463,87.46903189993463,87.46903189993463,87.46903189993463,87.46903189993463,0.13438349997159094,None,0,,D:\GitHub\experiment1\data/04_REPSWITCH_1_2023-06-26_15h22.39.238_micResp_recorded\recording_micResp_2023-06-26_15h23.57.208.wav,None,,,,,,04,001,2023-06-26_15h22.39.238,REPSWITCH_1,2022.2.4,60.02159575291948,
REPSWITCH1/PICTURE_16.png,cazador,type,indigo,nontarget,1,NT,1,Stim6_Set1,0,14,14,14,,94.91588480002247,,,,,,,,,,90.83578129997477,91.91817640000954,91.91817640000954,91.91817640000954,91.91817640000954,91.91817640000954,91.91817640000954,91.91817640000954,0.04962509998586029,"['c', 'a', 'z', 'a', 'd', 'o', 'r']",0,cazador,D:\GitHub\experiment1\data/04_REPSWITCH_1_2023-06-26_15h22.39.238_micResp_recorded\recording_micResp_2023-06-26_15h24.01.746.wav,None,"[1.2468437000643462, 1.3296366999857128, 1.9270808000583202, 2.0853735000127926, 2.1910756999859586, 2.3238906000042334, 2.48237290000543]",,,,,04,001,2023-06-26_15h22.39.238,REPSWITCH_1,2022.2.4,60.02159575291948,
REPSWITCH1/PICTURE_16.png,cazador,type,indigo,repeat,1,T,1,Stim6_Set1,0,15,15,15,,99.54802440002095,,,,,,,,,,95.36763170000631,96.51699059992097,96.51699059992097,96.51699059992097,96.51699059992097,96.51699059992097,96.51699059992097,96.51699059992097,0.01346060005016625,"['c', 'a', 'z', 'a', 'd', 'o', 'r']",0,cazador,D:\GitHub\experiment1\data/04_REPSWITCH_1_2023-06-26_15h22.39.238_micResp_recorded\recording_micResp_2023-06-26_15h24.06.375.wav,None,"[0.7954945999663323, 0.8815853999694809, 1.076768499915488, 1.2474032999016345, 1.428503599949181, 1.7879978999262676, 1.869777899933979]",,,,,04,001,2023-06-26_15h22.39.238,REPSWITCH_1,2022.2.4,60.02159575291948,
REPSWITCH1/PICTURE_687.png,camisa,speak,yellow,filler,2,F,1,Stim5_Set4,0,16,16,16,,104.18029619997833,,,,,,,,,,100.0000313000055,101.28302259999327,101.28302259999327,101.28302259999327,101.28302259999327,101.28302259999327,101.28302259999327,101.28302259999327,0.13280919997487217,None,0,,D:\GitHub\experiment1\data/04_REPSWITCH_1_2023-06-26_15h22.39.238_micResp_recorded\recording_micResp_2023-06-26_15h24.11.020.wav,None,,,,,,04,001,2023-06-26_15h22.39.238,REPSWITCH_1,2022.2.4,60.02159575291948,
REPSWITCH1/PICTURE_142.png,vaso,type,indigo,nontarget,1,NT,1,Stim7_Set1,0,17,17,17,,108.84577809995972,,,,,,,,,,104.64911350002512,105.79846429999452,105.79846429999452,105.79846429999452,105.79846429999452,105.79846429999452,105.79846429999452,105.79846429999452,0.008293299935758114,"['v', 'a', 's', 'o']",0,vaso,D:\GitHub\experiment1\data/04_REPSWITCH_1_2023-06-26_15h22.39.238_micResp_recorded\recording_micResp_2023-06-26_15h24.15.676.wav,None,"[1.213704099995084, 2.2219610000029206, 2.373614800046198, 2.470673599978909]",,,,,04,001,2023-06-26_15h22.39.238,REPSWITCH_1,2022.2.4,60.02159575291948,
REPSWITCH1/PICTURE_142.png,vaso,type,indigo,repeat,1,T,1,Stim7_Set1,0,18,18,18,,113.5945442999946,,,,,,,,,,109.29802819993347,110.5470123999985,110.5470123999985,110.5470123999985,110.5470123999985,110.5470123999985,110.5470123999985,110.5470123999985,0.008197200018912554,"['v', 'a', 's', 'o']",0,vaso,D:\GitHub\experiment1\data/04_REPSWITCH_1_2023-06-26_15h22.39.238_micResp_recorded\recording_micResp_2023-06-26_15h24.20.425.wav,None,"[0.7949159999843687, 0.9593270999612287, 1.0987989999121055, 1.4070015999022871]",,,,,04,001,2023-06-26_15h22.39.238,REPSWITCH_1,2022.2.4,60.02159575291948,
REPSWITCH1/PICTURE_338.png,regalo,speak,yellow,filler,2,F,1,Stim6_Set4,0,19,19,19,,118.16008519998286,,,,,,,,,,114.0468913000077,115.24616039998364,115.24616039998364,115.24616039998364,115.24616039998364,115.24616039998364,115.24616039998364,115.24616039998364,0.1250632000155747,None,0,,D:\GitHub\experiment1\data/04_REPSWITCH_1_2023-06-26_15h22.39.238_micResp_recorded\recording_micResp_2023-06-26_15h24.25.002.wav,None,,,,,,04,001,2023-06-26_15h22.39.238,REPSWITCH_1,2022.2.4,60.02159575291948,
REPSWITCH1/PICTURE_169.png,espalda,type,indigo,nontarget,1,NT,1,Stim8_Set1,0,20,20,20,,122.87581120000686,,,,,,,,,,118.62818399991374,119.87770890002139,119.87770890002139,119.87770890002139,119.87770890002139,119.87770890002139,119.87770890002139,119.87770890002139,0.049724500044249,"['e', 's', 'p', 'a', 'l', 'd', 'a']",0,espalda,D:\GitHub\experiment1\data/04_REPSWITCH_1_2023-06-26_15h22.39.238_micResp_recorded\recording_micResp_2023-06-26_15h24.29.704.wav,None,"[1.6887142000487074, 1.8712232999969274, 1.9877573000267148, 2.0715142000699416, 2.415126800071448, 2.554319600109011, 2.606255599996075]",,,,,04,001,2023-06-26_15h22.39.238,REPSWITCH_1,2022.2.4,60.02159575291948,
REPSWITCH1/PICTURE_169.png,espalda,speak,yellow,switch,2,T,1,Stim8_Set1,0,21,21,21,,127.60800289991312,,,,,,,,,,123.3270949999569,124.56037770002149,124.56037770002149,124.56037770002149,124.56037770002149,124.56037770002149,124.56037770002149,124.56037770002149,0.007555600022897124,None,0,,D:\GitHub\experiment1\data/04_REPSWITCH_1_2023-06-26_15h22.39.238_micResp_recorded\recording_micResp_2023-06-26_15h24.34.435.wav,None,,,,,,04,001,2023-06-26_15h22.39.238,REPSWITCH_1,2022.2.4,60.02159575291948,
REPSWITCH1/PICTURE_48.png,bombero,type,indigo,filler,1,F,1,Stim7_Set4,0,22,22,22,,132.35677309997845,,,,,,,,,,128.05939199996646,129.32541149994358,129.32541149994358,129.32541149994358,129.32541149994358,129.32541149994358,129.32541149994358,129.32541149994358,0.029441599966958165,"['b', 'o', 'm', 'b', 'e', 'r', 'o']",0,bombero,D:\GitHub\experiment1\data/04_REPSWITCH_1_2023-06-26_15h22.39.238_micResp_recorded\recording_micResp_2023-06-26_15h24.39.185.wav,None,"[1.071254700073041, 1.42344350006897, 1.6702619000570849, 1.7810393000254408, 1.8359478000784293, 1.9942497999873012, 2.032001900020987]",,,,,04,001,2023-06-26_15h22.39.238,REPSWITCH_1,2022.2.4,60.02159575291948,
REPSWITCH1/PICTURE_728.png,pulpo,type,indigo,filler,1,F,1,Stim8_Set4,0,23,23,23,,137.07233009999618,,,,,,,,,,132.80900579993613,134.05795369995758,134.05795369995758,134.05795369995758,134.05795369995758,134.05795369995758,134.05795369995758,134.05795369995758,0.029623399954289198,"['p', 'u', 'p', 'o', 'l', 'o']",0,pupolo,D:\GitHub\experiment1\data/04_REPSWITCH_1_2023-06-26_15h22.39.238_micResp_recorded\recording_micResp_2023-06-26_15h24.43.903.wav,None,"[0.9920845999149606, 1.2290794999571517, 1.4218158000148833, 1.5714302000124007, 1.6151450999313965, 1.882613699999638]",,,,,04,001,2023-06-26_15h22.39.238,REPSWITCH_1,2022.2.4,60.02159575291948,
REPSWITCH1/PICTURE_178.png,puente,speak,yellow,filler,2,F,2,Stim1_Set1,0,24,24,24,,141.7211673000129,,,,,,,,,,137.5234878999181,138.69020199996885,138.69020199996885,138.69020199996885,138.69020199996885,138.69020199996885,138.69020199996885,138.69020199996885,0.013677799957804382,None,0,,D:\GitHub\experiment1\data/04_REPSWITCH_1_2023-06-26_15h22.39.238_micResp_recorded\recording_micResp_2023-06-26_15h24.48.547.wav,None,,,,,,04,001,2023-06-26_15h22.39.238,REPSWITCH_1,2022.2.4,60.02159575291948,
REPSWITCH1/PICTURE_175.png,pintor,type,indigo,nontarget,1,NT,2,Stim1_Set2,0,25,25,25,,146.42002229997888,,,,,,,,,,142.17265289998613,143.48914079996757,143.48914079996757,143.48914079996757,143.48914079996757,143.48914079996757,143.48914079996757,143.48914079996757,0.11813650000840425,"['p', 'i', 'n', 't', 'o', 'r']",0,pintor,D:\GitHub\experiment1\data/04_REPSWITCH_1_2023-06-26_15h22.39.238_micResp_recorded\recording_micResp_2023-06-26_15h24.53.247.wav,None,"[0.8890851000323892, 1.0189371999586, 1.283978399937041, 1.3576352000236511, 1.4786228999728337, 1.5906139999860898]",,,,,04,001,2023-06-26_15h22.39.238,REPSWITCH_1,2022.2.4,60.02159575291948,
REPSWITCH1/PICTURE_175.png,pintor,type,indigo,repeat,1,T,2,Stim1_Set2,0,26,26,26,,151.08564379997551,,,,,,,,,,146.87190989998635,148.0379240999464,148.0379240999464,148.0379240999464,148.0379240999464,148.0379240999464,148.0379240999464,148.0379240999464,0.009136699954979122,"['p', 'i', 'n', 't', 'o', 'r']",0,pintor,D:\GitHub\experiment1\data/04_REPSWITCH_1_2023-06-26_15h22.39.238_micResp_recorded\recording_micResp_2023-06-26_15h24.57.916.wav,None,"[0.8296241000061855, 0.9767508000368252, 1.1851689000613987, 1.317941899993457, 1.4236350000137463, 1.5354094000067562]",,,,,04,001,2023-06-26_15h22.39.238,REPSWITCH_1,2022.2.4,60.02159575291948,
REPSWITCH1/PICTURE_142.png,vaso,speak,yellow,filler,2,F,2,Stim2_Set1,0,27,27,27,,155.65120899991598,,,,,,,,,,151.53816270001698,152.60348649998195,152.60348649998195,152.60348649998195,152.60348649998195,152.60348649998195,152.60348649998195,152.60348649998195,0.008075500023551285,None,0,,D:\GitHub\experiment1\data/04_REPSWITCH_1_2023-06-26_15h22.39.238_micResp_recorded\recording_micResp_2023-06-26_15h25.02.481.wav,None,,,,,,04,001,2023-06-26_15h22.39.238,REPSWITCH_1,2022.2.4,60.02159575291948,
REPSWITCH1/PICTURE_152.png,caracol,type,indigo,nontarget,1,NT,2,Stim2_Set2,0,28,28,28,,160.36673210002482,,,,,,,,,,156.10342990001664,157.43562280002516,157.43562280002516,157.43562280002516,157.43562280002516,157.43562280002516,157.43562280002516,157.43562280002516,0.12930580007378012,"['s', 'n', 'a', 'i', 'l']",0,snail,D:\GitHub\experiment1\data/04_REPSWITCH_1_2023-06-26_15h22.39.238_micResp_recorded\recording_micResp_2023-06-26_15h25.07.197.wav,None,"[1.9424831999931484, 2.0688650999218225, 2.177535899914801, 2.2458928999258205, 2.480139399995096]",,,,,04,001,2023-06-26_15h22.39.238,REPSWITCH_1,2022.2.4,60.02159575291948,
REPSWITCH1/PICTURE_152.png,caracol,type,indigo,repeat,1,T,2,Stim2_Set2,0,29,29,29,,164.9490114999935,,,,,,,,,,160.81923579995055,161.90115839999635,161.90115839999635,161.90115839999635,161.90115839999635,161.90115839999635,161.90115839999635,161.90115839999635,0.009182299952954054,"['s', 'n', 'a', 'i', 'l']",0,snail,D:\GitHub\experiment1\data/04_REPSWITCH_1_2023-06-26_15h22.39.238_micResp_recorded\recording_micResp_2023-06-26_15h25.11.779.wav,None,"[0.8099254999542609, 0.9383228999795392, 1.0693414999404922, 1.1245106998831034, 1.348676599911414]",,,,,04,001,2023-06-26_15h22.39.238,REPSWITCH_1,2022.2.4,60.02159575291948,
REPSWITCH1/PICTURE_264.png,mano,type,indigo,nontarget,1,NT,2,Stim3_Set2,0,30,30,30,,169.61448569991626,,,,,,,,,,165.40042570000514,166.58295740000904,166.58295740000904,166.58295740000904,166.58295740000904,166.58295740000904,166.58295740000904,166.58295740000904,0.027696800068952143,"['m', 'a', 'n', 'o']",0,mano,D:\GitHub\experiment1\data/04_REPSWITCH_1_2023-06-26_15h22.39.238_micResp_recorded\recording_micResp_2023-06-26_15h25.16.442.wav,None,"[0.851634299964644, 0.9576016999781132, 1.100873599993065, 1.1666098999558017]",,,,,04,001,2023-06-26_15h22.39.238,REPSWITCH_1,2022.2.4,60.02159575291948,
REPSWITCH1/PICTURE_264.png,mano,speak,yellow,switch,2,T,2,Stim3_Set2,0,31,31,31,,174.23004970001057,,,,,,,,,,170.0658721999498,171.1824754999252,171.1824754999252,171.1824754999252,171.1824754999252,171.1824754999252,171.1824754999252,171.1824754999252,0.010170200024731457,None,0,,D:\GitHub\experiment1\data/04_REPSWITCH_1_2023-06-26_15h22.39.238_micResp_recorded\recording_micResp_2023-06-26_15h25.21.061.wav,None,,,,,,04,001,2023-06-26_15h22.39.238,REPSWITCH_1,2022.2.4,60.02159575291948,
REPSWITCH1/PICTURE_517.png,cuerda,speak,yellow,nontarget,2,NT,2,Stim4_Set2,0,32,32,32,,178.8290009999182,,,,,,,,,,174.6822732000146,175.79769369994756,175.79769369994756,175.79769369994756,175.79769369994756,175.79769369994756,175.79769369994756,175.79769369994756,0.029358600033447146,None,0,,D:\GitHub\experiment1\data/04_REPSWITCH_1_2023-06-26_15h22.39.238_micResp_recorded\recording_micResp_2023-06-26_15h25.25.657.wav,None,,,,,,04,001,2023-06-26_15h22.39.238,REPSWITCH_1,2022.2.4,60.02159575291948,
REPSWITCH1/PICTURE_517.png,cuerda,type,indigo,switch,1,T,2,Stim4_Set2,0,33,33,33,,183.3778935999144,,,,,,,,,,179.28089549997821,180.33054579992313,180.33054579992313,180.33054579992313,180.33054579992313,180.33054579992313,180.33054579992313,180.33054579992313,0.00861560006160289,"['c', 'u', 'e', 'r', 'd', 'a']",0,cuerda,D:\GitHub\experiment1\data/04_REPSWITCH_1_2023-06-26_15h22.39.238_micResp_recorded\recording_micResp_2023-06-26_15h25.30.206.wav,None,"[0.7062825000612065, 0.7945035999873653, 0.9134720000438392, 1.0292010999983177, 1.203034200007096, 1.3033088999800384]",,,,,04,001,2023-06-26_15h22.39.238,REPSWITCH_1,2022.2.4,60.02159575291948,
REPSWITCH1/PICTURE_135.png,traje,speak,yellow,filler,2,F,2,Stim3_Set1,0,34,34,34,,188.12675659998786,,,,,,,,,,183.83055199997034,185.0791982000228,185.0791982000228,185.0791982000228,185.0791982000228,185.0791982000228,185.0791982000228,185.0791982000228,0.00858579995110631,None,0,,D:\GitHub\experiment1\data/04_REPSWITCH_1_2023-06-26_15h22.39.238_micResp_recorded\recording_micResp_2023-06-26_15h25.34.958.wav,None,,,,,,04,001,2023-06-26_15h22.39.238,REPSWITCH_1,2022.2.4,60.02159575291948,
REPSWITCH1/PICTURE_30.png,granja,type,indigo,nontarget,1,NT,2,Stim5_Set2,0,35,35,35,,192.8088992999401,,,,,,,,,,188.57821279997006,189.91087489994243,189.91087489994243,189.91087489994243,189.91087489994243,189.91087489994243,189.91087489994243,189.91087489994243,0.13263210002332926,"['g', 'r', 'a', 'n', 'j', 'a']",0,granja,D:\GitHub\experiment1\data/04_REPSWITCH_1_2023-06-26_15h22.39.238_micResp_recorded\recording_micResp_2023-06-26_15h25.39.647.wav,None,"[0.9507363999728113, 1.1360150000546128, 1.336000100011006, 1.4120059000561014, 1.6039989000419155, 1.7047041000332683]",,,,,04,001,2023-06-26_15h22.39.238,REPSWITCH_1,2022.2.4,60.02159575291948,
REPSWITCH1/PICTURE_30.png,granja,speak,yellow,switch,2,T,2,Stim5_Set2,0,36,36,36,,197.50789689994417,,,,,,,,,,193.27785099996254,194.4595002999995,194.4595002999995,194.4595002999995,194.4595002999995,194.4595002999995,194.4595002999995,194.4595002999995,0.007811599993146956,None,0,,D:\GitHub\experiment1\data/04_REPSWITCH_1_2023-06-26_15h22.39.238_micResp_recorded\recording_micResp_2023-06-26_15h25.44.332.wav,None,,,,,,04,001,2023-06-26_15h22.39.238,REPSWITCH_1,2022.2.4,60.02159575291948,
REPSWITCH1/PICTURE_128.png,muñeca,type,indigo,filler,1,F,2,Stim4_Set1,0,37,37,37,,202.3397938000271,,,,,,,,,,197.95989279996138,199.29252539994195,199.29252539994195,199.29252539994195,199.29252539994195,199.29252539994195,199.29252539994195,199.29252539994195,0.00841120001859963,"['m', 'u', 'n', 'e', 'c', 'a']",0,muneca,D:\GitHub\experiment1\data/04_REPSWITCH_1_2023-06-26_15h22.39.238_micResp_recorded\recording_micResp_2023-06-26_15h25.49.167.wav,None,"[0.9301527999341488, 1.18331719993148, 1.3482022999087349, 1.424553700024262, 1.618652299977839, 1.725951400003396]",,,,,04,001,2023-06-26_15h22.39.238,REPSWITCH_1,2022.2.4,60.02159575291948,
REPSWITCH1/PICTURE_19.png,pavo,type,indigo,filler,1,F,2,Stim5_Set1,0,38,38,38,,207.03906099998858,,,,,,,,,,202.7914579999633,204.02462259994354,204.02462259994354,204.02462259994354,204.02462259994354,204.02462259994354,204.02462259994354,204.02462259994354,0.014792399946600199,"['p', 'a', 'v', 'o']",0,pavo,D:\GitHub\experiment1\data/04_REPSWITCH_1_2023-06-26_15h22.39.238_micResp_recorded\recording_micResp_2023-06-26_15h25.53.880.wav,None,"[0.9283635999308899, 1.0544667999492958, 1.2533403999404982, 1.292241399991326]",,,,,04,001,2023-06-26_15h22.39.238,REPSWITCH_1,2022.2.4,60.02159575291948,
REPSWITCH1/PICTURE_552.png,manzana,speak,yellow,nontarget,2,NT,2,Stim6_Set2,0,39,39,39,,211.73773209995124,,,,,,,,,,207.5075428999262,208.73990489996504,208.73990489996504,208.73990489996504,208.73990489996504,208.73990489996504,208.73990489996504,208.73990489996504,0.03153329994529486,None,0,,D:\GitHub\experiment1\data/04_REPSWITCH_1_2023-06-26_15h22.39.238_micResp_recorded\recording_micResp_2023-06-26_15h25.58.578.wav,None,,,,,,04,001,2023-06-26_15h22.39.238,REPSWITCH_1,2022.2.4,60.02159575291948,
REPSWITCH1/PICTURE_552.png,manzana,speak,yellow,repeat,2,T,2,Stim6_Set2,0,40,40,40,,216.35311529994942,,,,,,,,,,212.2065050000092,213.30565270001534,213.30565270001534,213.30565270001534,213.30565270001534,213.30565270001534,213.30565270001534,213.30565270001534,0.009929199935868382,None,0,,D:\GitHub\experiment1\data/04_REPSWITCH_1_2023-06-26_15h22.39.238_micResp_recorded\recording_micResp_2023-06-26_15h26.03.183.wav,None,,,,,,04,001,2023-06-26_15h22.39.238,REPSWITCH_1,2022.2.4,60.02159575291948,
REPSWITCH1/PICTURE_16.png,cazador,type,indigo,filler,1,F,2,Stim6_Set1,0,41,41,41,,220.9522328999592,,,,,,,,,,216.80539919994771,217.93745979992673,217.93745979992673,217.93745979992673,217.93745979992673,217.93745979992673,217.93745979992673,217.93745979992673,0.013660799944773316,"['c', 'a', 'z', 'a', 'd', 'o', 'r']",0,cazador,D:\GitHub\experiment1\data/04_REPSWITCH_1_2023-06-26_15h22.39.238_micResp_recorded\recording_micResp_2023-06-26_15h26.07.792.wav,None,"[1.329260400030762, 1.443591900053434, 1.6479793000034988, 1.8164582999888808, 1.9455915000289679, 2.0687833999982104, 2.1844788000453264]",,,,,04,001,2023-06-26_15h22.39.238,REPSWITCH_1,2022.2.4,60.02159575291948,
REPSWITCH1/PICTURE_446.png,cerdo,speak,yellow,nontarget,2,NT,2,Stim7_Set2,0,42,42,42,,225.6510372000048,,,,,,,,,,221.42031910002697,222.73640479997266,222.73640479997266,222.73640479997266,222.73640479997266,222.73640479997266,222.73640479997266,222.73640479997266,0.14412179996725172,None,0,,D:\GitHub\experiment1\data/04_REPSWITCH_1_2023-06-26_15h22.39.238_micResp_recorded\recording_micResp_2023-06-26_15h26.12.477.wav,None,,,,,,04,001,2023-06-26_15h22.39.238,REPSWITCH_1,2022.2.4,60.02159575291948,
REPSWITCH1/PICTURE_446.png,cerdo,speak,yellow,repeat,2,T,2,Stim7_Set2,0,43,43,43,,230.26652790000662,,,,,,,,,,226.1024278999539,227.25259619997814,227.25259619997814,227.25259619997814,227.25259619997814,227.25259619997814,227.25259619997814,227.25259619997814,0.012519999989308417,None,0,,D:\GitHub\experiment1\data/04_REPSWITCH_1_2023-06-26_15h22.39.238_micResp_recorded\recording_micResp_2023-06-26_15h26.17.106.wav,None,,,,,,04,001,2023-06-26_15h22.39.238,REPSWITCH_1,2022.2.4,60.02159575291948,
REPSWITCH1/PICTURE_142.png,vaso,speak,yellow,filler,2,F,2,Stim7_Set1,0,44,44,44,,234.9158063000068,,,,,,,,,,230.73462220001966,231.86790790001396,231.86790790001396,231.86790790001396,231.86790790001396,231.86790790001396,231.86790790001396,231.86790790001396,0.008612400037236512,None,0,,D:\GitHub\experiment1\data/04_REPSWITCH_1_2023-06-26_15h22.39.238_micResp_recorded\recording_micResp_2023-06-26_15h26.21.743.wav,None,,,,,,04,001,2023-06-26_15h22.39.238,REPSWITCH_1,2022.2.4,60.02159575291948,
REPSWITCH1/PICTURE_169.png,espalda,type,indigo,filler,1,F,2,Stim8_Set1,0,45,45,45,,239.66441919992212,,,,,,,,,,235.36685420002323,236.6168808999937,236.6168808999937,236.6168808999937,236.6168808999937,236.6168808999937,236.6168808999937,236.6168808999937,0.008582399925217032,"['e', 's', 'p', 'a', 'l', 'd', 'a']",0,espalda,D:\GitHub\experiment1\data/04_REPSWITCH_1_2023-06-26_15h22.39.238_micResp_recorded\recording_micResp_2023-06-26_15h26.26.493.wav,None,"[1.4409158000489697, 1.6212575000245124, 1.7066289000213146, 1.8261997000081465, 1.9497914999956265, 2.0658064000308514, 2.1353545000310987]",,,,,04,001,2023-06-26_15h22.39.238,REPSWITCH_1,2022.2.4,60.02159575291948,
REPSWITCH1/PICTURE_199.png,falda,speak,yellow,nontarget,2,NT,2,Stim8_Set2,0,46,46,46,,244.26324250001926,,,,,,,,,,240.11569809995126,241.33218499994837,241.33218499994837,241.33218499994837,241.33218499994837,241.33218499994837,241.33218499994837,241.33218499994837,0.11880440008826554,None,0,,D:\GitHub\experiment1\data/04_REPSWITCH_1_2023-06-26_15h22.39.238_micResp_recorded\recording_micResp_2023-06-26_15h26.31.094.wav,None,,,,,,04,001,2023-06-26_15h22.39.238,REPSWITCH_1,2022.2.4,60.02159575291948,
REPSWITCH1/PICTURE_199.png,falda,type,indigo,switch,1,T,2,Stim8_Set2,0,47,47,47,,248.87865799991414,,,,,,,,,,244.7145462000044,245.83108259993605,245.83108259993605,245.83108259993605,245.83108259993605,245.83108259993605,245.83108259993605,245.83108259993605,0.009533500066027045,"['f', 'a', 'l', 'd', 'a']",0,falda,D:\GitHub\experiment1\data/04_REPSWITCH_1_2023-06-26_15h22.39.238_micResp_recorded\recording_micResp_2023-06-26_15h26.35.709.wav,None,"[0.9805482000811026, 1.0698270000284538, 1.1834423000691459, 1.2825148000847548, 1.3545906000072137]",,,,,04,001,2023-06-26_15h22.39.238,REPSWITCH_1,2022.2.4,60.02159575291948,
REPSWITCH1/PICTURE_576.png,guante,type,indigo,nontarget,1,NT,3,Stim1_Set3,0,48,48,48,,253.5276466999203,,,,,,,,,,249.33011159999296,250.49629129993264,250.49629129993264,250.49629129993264,250.49629129993264,250.49629129993264,250.49629129993264,250.49629129993264,0.029637400060892105,"['g', 'u', 'a', 'n', 't', 'e']",0,guante,D:\GitHub\experiment1\data/04_REPSWITCH_1_2023-06-26_15h22.39.238_micResp_recorded\recording_micResp_2023-06-26_15h26.40.358.wav,None,"[1.3105336999287829, 1.415668800007552, 1.615219600033015, 1.7287348000099882, 1.8866602999623865, 1.946796300006099]",,,,,04,001,2023-06-26_15h22.39.238,REPSWITCH_1,2022.2.4,60.02159575291948,
REPSWITCH1/PICTURE_576.png,guante,speak,yellow,switch,2,T,3,Stim1_Set3,0,49,49,49,,258.1097959999461,,,,,,,,,,253.9791640000185,255.0623397999443,255.0623397999443,255.0623397999443,255.0623397999443,255.0623397999443,255.0623397999443,255.0623397999443,0.009468099917285144,None,0,,D:\GitHub\experiment1\data/04_REPSWITCH_1_2023-06-26_15h22.39.238_micResp_recorded\recording_micResp_2023-06-26_15h26.44.941.wav,None,,,,,,04,001,2023-06-26_15h22.39.238,REPSWITCH_1,2022.2.4,60.02159575291948,
REPSWITCH1/PICTURE_610.png,miel,speak,yellow,nontarget,2,NT,3,Stim2_Set3,0,50,50,50,,262.80872969992924,,,,,,,,,,258.5612303999951,259.7939521999797,259.7939521999797,259.7939521999797,259.7939521999797,259.7939521999797,259.7939521999797,259.7939521999797,0.0466339000267908,None,0,,D:\GitHub\experiment1\data/04_REPSWITCH_1_2023-06-26_15h22.39.238_micResp_recorded\recording_micResp_2023-06-26_15h26.49.634.wav,None,,,,,,04,001,2023-06-26_15h22.39.238,REPSWITCH_1,2022.2.4,60.02159575291948,
REPSWITCH1/PICTURE_610.png,miel,type,indigo,switch,1,T,3,Stim2_Set3,0,51,51,51,,267.5409516999498,,,,,,,,,,263.2601634999737,264.49381010001525,264.49381010001525,264.49381010001525,264.49381010001525,264.49381010001525,264.49381010001525,264.49381010001525,0.009346600039862096,"['m', 'i', 'e', 'l']",0,miel,D:\GitHub\experiment1\data/04_REPSWITCH_1_2023-06-26_15h22.39.238_micResp_recorded\recording_micResp_2023-06-26_15h26.54.370.wav,None,"[0.7653552999254316, 0.9669512999244034, 1.1154475999064744, 1.2676030999282375]",,,,,04,001,2023-06-26_15h22.39.238,REPSWITCH_1,2022.2.4,60.02159575291948,
REPSWITCH1/PICTURE_175.png,pintor,type,indigo,filler,1,F,3,Stim1_Set2,0,52,52,52,,272.18968900002073,,,,,,,,,,267.9923292999156,269.1589693999849,269.1589693999849,269.1589693999849,269.1589693999849,269.1589693999849,269.1589693999849,269.1589693999849,0.01088830002117902,"['p', 'i', 'n', 't', 'o', 'r']",0,pintor,D:\GitHub\experiment1\data/04_REPSWITCH_1_2023-06-26_15h22.39.238_micResp_recorded\recording_micResp_2023-06-26_15h26.59.014.wav,None,"[0.8139455000637099, 0.9816558000165969, 1.2082218000432476, 1.3163232000079006, 1.4341533000115305, 1.5570573000004515]",,,,,04,001,2023-06-26_15h22.39.238,REPSWITCH_1,2022.2.4,60.02159575291948,
REPSWITCH1/PICTURE_242.png,cartero,type,indigo,nontarget,1,NT,3,Stim3_Set3,0,53,53,53,,276.9053443999728,,,,,,,,,,272.6411768000107,273.87404539994895,273.87404539994895,273.87404539994895,273.87404539994895,273.87404539994895,273.87404539994895,273.87404539994895,0.02890160004608333,"['p', 'o', 's', 't', 'm', 'a']",0,postma,D:\GitHub\experiment1\data/04_REPSWITCH_1_2023-06-26_15h22.39.238_micResp_recorded\recording_micResp_2023-06-26_15h27.03.734.wav,None,"[2.378575299982913, 2.526482900022529, 2.5374560999916866, 2.705198699957691, 2.8145743999630213, 2.8934054999845102]",,,,,04,001,2023-06-26_15h22.39.238,REPSWITCH_1,2022.2.4,60.02159575291948,
REPSWITCH1/PICTURE_242.png,cartero,speak,yellow,switch,2,T,3,Stim3_Set3,0,54,54,54,,281.5877172999317,,,,,,,,,,277.3568815999897,278.5731870000018,278.5731870000018,278.5731870000018,278.5731870000018,278.5731870000018,278.5731870000018,278.5731870000018,0.009740600013174117,None,0,,D:\GitHub\experiment1\data/04_REPSWITCH_1_2023-06-26_15h22.39.238_micResp_recorded\recording_micResp_2023-06-26_15h27.08.427.wav,None,,,,,,04,001,2023-06-26_15h22.39.238,REPSWITCH_1,2022.2.4,60.02159575291948,
REPSWITCH1/PICTURE_152.png,caracol,type,indigo,filler,1,F,3,Stim2_Set2,0,55,55,55,,286.2697548000142,,,,,,,,,,282.0555622000247,283.22224889998324,283.22224889998324,283.22224889998324,283.22224889998324,283.22224889998324,283.22224889998324,283.22224889998324,0.010683800093829632,"['s', 'n', 'a', 'i', 'l']",0,snail,D:\GitHub\experiment1\data/04_REPSWITCH_1_2023-06-26_15h22.39.238_micResp_recorded\recording_micResp_2023-06-26_15h27.13.101.wav,None,"[0.9065790999447927, 1.137105599977076, 1.2744097999529913, 1.3099733999697492, 1.730822299956344]",,,,,04,001,2023-06-26_15h22.39.238,REPSWITCH_1,2022.2.4,60.02159575291948,
REPSWITCH1/PICTURE_235.png,aguja,speak,yellow,nontarget,2,NT,3,Stim4_Set3,0,56,56,56,,291.0688253999688,,,,,,,,,,286.72117439995054,288.05382159992587,288.05382159992587,288.05382159992587,288.05382159992587,288.05382159992587,288.05382159992587,288.05382159992587,0.03133510006591678,None,0,,D:\GitHub\experiment1\data/04_REPSWITCH_1_2023-06-26_15h22.39.238_micResp_recorded\recording_micResp_2023-06-26_15h27.17.900.wav,None,,,,,,04,001,2023-06-26_15h22.39.238,REPSWITCH_1,2022.2.4,60.02159575291948,
REPSWITCH1/PICTURE_235.png,aguja,speak,yellow,repeat,2,T,3,Stim4_Set3,0,57,57,57,,295.8174506999785,,,,,,,,,,291.5211653999286,292.7697909999406,292.7697909999406,292.7697909999406,292.7697909999406,292.7697909999406,292.7697909999406,292.7697909999406,0.008887800038792193,None,0,,D:\GitHub\experiment1\data/04_REPSWITCH_1_2023-06-26_15h22.39.238_micResp_recorded\recording_micResp_2023-06-26_15h27.22.647.wav,None,,,,,,04,001,2023-06-26_15h22.39.238,REPSWITCH_1,2022.2.4,60.02159575291948,
REPSWITCH1/PICTURE_264.png,mano,speak,yellow,filler,2,F,3,Stim3_Set2,0,58,58,58,,300.4996389999287,,,,,,,,,,296.2688406999223,297.45223279995844,297.45223279995844,297.45223279995844,297.45223279995844,297.45223279995844,297.45223279995844,297.45223279995844,0.009708800003863871,None,0,,D:\GitHub\experiment1\data/04_REPSWITCH_1_2023-06-26_15h22.39.238_micResp_recorded\recording_micResp_2023-06-26_15h27.27.329.wav,None,,,,,,04,001,2023-06-26_15h22.39.238,REPSWITCH_1,2022.2.4,60.02159575291948,
REPSWITCH1/PICTURE_517.png,cuerda,type,indigo,filler,1,F,3,Stim4_Set2,0,59,59,59,,305.13199889997486,,,,,,,,,,300.95105579996016,302.08490120002534,302.08490120002534,302.08490120002534,302.08490120002534,302.08490120002534,302.08490120002534,302.08490120002534,0.008746700012125075,"['r', 'o', 'p', 'e']",0,rope,D:\GitHub\experiment1\data/04_REPSWITCH_1_2023-06-26_15h22.39.238_micResp_recorded\recording_micResp_2023-06-26_15h27.31.960.wav,None,"[1.0740446000127122, 1.2377753000473604, 1.3337834000121802, 1.7713674999540672]",,,,,04,001,2023-06-26_15h22.39.238,REPSWITCH_1,2022.2.4,60.02159575291948,
REPSWITCH1/PICTURE_30.png,granja,type,indigo,filler,1,F,3,Stim5_Set2,0,60,60,60,,309.8473640999291,,,,,,,,,,305.58293719997164,306.8171534999274,306.8171534999274,306.8171534999274,306.8171534999274,306.8171534999274,306.8171534999274,306.8171534999274,0.005264700041152537,"['g', 'r', 'n', 'a', 'j', 'a']",0,grnaja,D:\GitHub\experiment1\data/04_REPSWITCH_1_2023-06-26_15h22.39.238_micResp_recorded\recording_micResp_2023-06-26_15h27.36.692.wav,None,"[0.898912200005725, 1.0054248999804258, 1.3296661999775097, 1.489772400003858, 1.5855054999701679, 2.4492398999864236]",,,,,04,001,2023-06-26_15h22.39.238,REPSWITCH_1,2022.2.4,60.02159575291948,
REPSWITCH1/PICTURE_35.png,oreja,speak,yellow,nontarget,2,NT,3,Stim5_Set3,0,61,61,61,,314.54643059999216,,,,,,,,,,310.3161598999286,311.5315150999231,311.5315150999231,311.5315150999231,311.5315150999231,311.5315150999231,311.5315150999231,311.5315150999231,0.03185789997223765,None,0,,D:\GitHub\experiment1\data/04_REPSWITCH_1_2023-06-26_15h22.39.238_micResp_recorded\recording_micResp_2023-06-26_15h27.41.378.wav,None,,,,,,04,001,2023-06-26_15h22.39.238,REPSWITCH_1,2022.2.4,60.02159575291948,
REPSWITCH1/PICTURE_35.png,oreja,speak,yellow,repeat,2,T,3,Stim5_Set3,0,62,62,62,,319.19525370001793,,,,,,,,,,314.9984781999374,316.1486775999656,316.1486775999656,316.1486775999656,316.1486775999656,316.1486775999656,316.1486775999656,316.1486775999656,0.008399599930271506,None,0,,D:\GitHub\experiment1\data/04_REPSWITCH_1_2023-06-26_15h22.39.238_micResp_recorded\recording_micResp_2023-06-26_15h27.46.024.wav,None,,,,,,04,001,2023-06-26_15h22.39.238,REPSWITCH_1,2022.2.4,60.02159575291948,
REPSWITCH1/PICTURE_464.png,goma,speak,yellow,nontarget,2,NT,3,Stim6_Set3,0,63,63,63,,324.12757779995445,,,,,,,,,,319.64736990001984,321.1968014999293,321.1968014999293,321.1968014999293,321.1968014999293,321.1968014999293,321.1968014999293,321.1968014999293,0.12454109999816865,None,0,,D:\GitHub\experiment1\data/04_REPSWITCH_1_2023-06-26_15h22.39.238_micResp_recorded\recording_micResp_2023-06-26_15h27.50.950.wav,None,,,,,,04,001,2023-06-26_15h22.39.238,REPSWITCH_1,2022.2.4,60.02159575291948,
REPSWITCH1/PICTURE_464.png,goma,type,indigo,switch,1,T,3,Stim6_Set3,0,64,64,64,,328.75955780001823,,,,,,,,,,324.5788879999891,325.7118865000084,325.7118865000084,325.7118865000084,325.7118865000084,325.7118865000084,325.7118865000084,325.7118865000084,0.008840300026349723,"['g', 'o', 'm', 'a']",0,goma,D:\GitHub\experiment1\data/04_REPSWITCH_1_2023-06-26_15h22.39.238_micResp_recorded\recording_micResp_2023-06-26_15h27.55.587.wav,None,"[0.7336286000208929, 0.8499936000443995, 1.1410805000923574, 1.268337000044994]",,,,,04,001,2023-06-26_15h22.39.238,REPSWITCH_1,2022.2.4,60.02159575291948,
REPSWITCH1/PICTURE_552.png,manzana,speak,yellow,filler,2,F,3,Stim6_Set2,0,65,65,65,,333.5244413999608,,,,,,,,,,329.21174299996346,330.51039389998186,330.51039389998186,330.51039389998186,330.51039389998186,330.51039389998186,330.51039389998186,330.51039389998186,0.011303999926894903,None,0,,D:\GitHub\experiment1\data/04_REPSWITCH_1_2023-06-26_15h22.39.238_micResp_recorded\recording_micResp_2023-06-26_15h28.00.377.wav,None,,,,,,04,001,2023-06-26_15h22.39.238,REPSWITCH_1,2022.2.4,60.02159575291948,
REPSWITCH1/PICTURE_271.png,conejo,type,indigo,nontarget,1,NT,3,Stim7_Set3,0,66,66,66,,338.2739921999164,,,,,,,,,,334.009237100021,335.2598297999939,335.2598297999939,335.2598297999939,335.2598297999939,335.2598297999939,335.2598297999939,335.2598297999939,0.040383300045505166,"['c', 'o', 'n', 'j', 'e', 'o']",0,conjeo,D:\GitHub\experiment1\data/04_REPSWITCH_1_2023-06-26_15h22.39.238_micResp_recorded\recording_micResp_2023-06-26_15h28.05.104.wav,None,"[1.871961500030011, 2.0320768000092357, 2.216047800029628, 2.329726199968718, 2.3861540000652894, 2.644806000054814]",,,,,04,001,2023-06-26_15h22.39.238,REPSWITCH_1,2022.2.4,60.02159575291948,
REPSWITCH1/PICTURE_271.png,conejo,type,indigo,repeat,1,T,3,Stim7_Set3,0,67,67,67,,342.93971509998664,,,,,,,,,,338.7254594999831,339.9085049999412,339.9085049999412,339.9085049999412,339.9085049999412,339.9085049999412,339.9085049999412,339.9085049999412,0.012372100027278066,"['c', 'o', 'n', 'e', 'j', 'o']",0,conejo,D:\GitHub\experiment1\data/04_REPSWITCH_1_2023-06-26_15h22.39.238_micResp_recorded\recording_micResp_2023-06-26_15h28.09.772.wav,None,"[0.8536575000034645, 1.2731989999301732, 1.4653692999854684, 1.674512599944137, 1.8624070000369102, 2.2566277999430895]",,,,,04,001,2023-06-26_15h22.39.238,REPSWITCH_1,2022.2.4,60.02159575291948,
REPSWITCH1/PICTURE_446.png,cerdo,speak,yellow,filler,2,F,3,Stim7_Set2,0,68,68,68,,347.6050270999549,,,,,,,,,,343.39116509992164,344.5574877000181,344.5574877000181,344.5574877000181,344.5574877000181,344.5574877000181,344.5574877000181,344.5574877000181,0.010083300061523914,None,0,,D:\GitHub\experiment1\data/04_REPSWITCH_1_2023-06-26_15h22.39.238_micResp_recorded\recording_micResp_2023-06-26_15h28.14.437.wav,None,,,,,,04,001,2023-06-26_15h22.39.238,REPSWITCH_1,2022.2.4,60.02159575291948,
REPSWITCH1/PICTURE_199.png,falda,speak,yellow,filler,2,F,3,Stim8_Set2,0,69,69,69,,352.2703099999344,,,,,,,,,,348.0565860000206,349.2228664999129,349.2228664999129,349.2228664999129,349.2228664999129,349.2228664999129,349.2228664999129,349.2228664999129,0.010850699967704713,None,0,,D:\GitHub\experiment1\data/04_REPSWITCH_1_2023-06-26_15h22.39.238_micResp_recorded\recording_micResp_2023-06-26_15h28.19.105.wav,None,,,,,,04,001,2023-06-26_15h22.39.238,REPSWITCH_1,2022.2.4,60.02159575291948,
REPSWITCH1/PICTURE_320.png,iglesia,type,indigo,nontarget,1,NT,3,Stim8_Set3,0,70,70,70,,356.9696050999919,,,,,,,,,,352.72222200001124,353.9550457999576,353.9550457999576,353.9550457999576,353.9550457999576,353.9550457999576,353.9550457999576,353.9550457999576,0.037404200062155724,"['i', 'g', 'l', 'e', 's', 'i', 'a']",0,iglesia,D:\GitHub\experiment1\data/04_REPSWITCH_1_2023-06-26_15h22.39.238_micResp_recorded\recording_micResp_2023-06-26_15h28.23.798.wav,None,"[0.8476667000213638, 1.117919799988158, 1.3788321999600157, 1.504987100022845, 1.6839374999981374, 1.7547581000253558, 1.906891299993731]",,,,,04,001,2023-06-26_15h22.39.238,REPSWITCH_1,2022.2.4,60.02159575291948,
REPSWITCH1/PICTURE_320.png,iglesia,type,indigo,repeat,1,T,3,Stim8_Set3,0,71,71,71,,361.5516482000239,,,,,,,,,,357.4209711999865,358.5369341999758,358.5369341999758,358.5369341999758,358.5369341999758,358.5369341999758,358.5369341999758,358.5369341999758,0.012455900083296001,"['i', 'g', 'l', 'e', 's', 'i', 'a']",0,iglesia,D:\GitHub\experiment1\data/04_REPSWITCH_1_2023-06-26_15h22.39.238_micResp_recorded\recording_micResp_2023-06-26_15h28.28.392.wav,None,"[0.714649899979122, 0.8928739000111818, 1.0163643999258056, 1.0855930999387056, 1.2680188999511302, 1.3442383999936283, 1.4407020999351516]",,,,,04,001,2023-06-26_15h22.39.238,REPSWITCH_1,2022.2.4,60.02159575291948,
REPSWITCH1/PICTURE_576.png,guante,speak,yellow,filler,2,F,4,Stim1_Set3,0,72,72,72,,366.1006362999324,,,,,,,,,,362.0198909000028,363.0529237999581,363.0529237999581,363.0529237999581,363.0529237999581,363.0529237999581,363.0529237999581,363.0529237999581,0.008208299987018108,None,0,,D:\GitHub\experiment1\data/04_REPSWITCH_1_2023-06-26_15h22.39.238_micResp_recorded\recording_micResp_2023-06-26_15h28.32.932.wav,None,,,,,,04,001,2023-06-26_15h22.39.238,REPSWITCH_1,2022.2.4,60.02159575291948,
REPSWITCH1/PICTURE_319.png,vaca,type,indigo,nontarget,1,NT,4,Stim1_Set4,0,73,73,73,,370.7326962000225,,,,,,,,,,366.5519337999867,367.68521010002587,367.68521010002587,367.68521010002587,367.68521010002587,367.68521010002587,367.68521010002587,367.68521010002587,0.008590499986894429,"['v', 'a', 'c', 'a']",0,vaca,D:\GitHub\experiment1\data/04_REPSWITCH_1_2023-06-26_15h22.39.238_micResp_recorded\recording_micResp_2023-06-26_15h28.37.562.wav,None,"[1.219332000007853, 1.5807864000089467, 1.7768745999783278, 1.9020299999974668]",,,,,04,001,2023-06-26_15h22.39.238,REPSWITCH_1,2022.2.4,60.02159575291948,
REPSWITCH1/PICTURE_319.png,vaca,type,indigo,repeat,1,T,4,Stim1_Set4,0,74,74,74,,375.3818383999169,,,,,,,,,,371.1846061999677,372.3344926999416,372.3344926999416,372.3344926999416,372.3344926999416,372.3344926999416,372.3344926999416,372.3344926999416,0.00796209997497499,"['v', 'a', 'c', 'a']",0,vaca,D:\GitHub\experiment1\data/04_REPSWITCH_1_2023-06-26_15h22.39.238_micResp_recorded\recording_micResp_2023-06-26_15h28.42.210.wav,None,"[0.8045492999954149, 1.044601200032048, 1.2435249000554904, 1.3681356000015512]",,,,,04,001,2023-06-26_15h22.39.238,REPSWITCH_1,2022.2.4,60.02159575291948,
REPSWITCH1/PICTURE_719.png,baño,type,indigo,nontarget,1,NT,4,Stim2_Set4,0,75,75,75,,379.96334559994284,,,,,,,,,,375.83259299991187,376.93276310001966,376.93276310001966,376.93276310001966,376.93276310001966,376.93276310001966,376.93276310001966,376.93276310001966,0.01043500006198883,"['b', 'a', 'n', 'o']",0,bano,D:\GitHub\experiment1\data/04_REPSWITCH_1_2023-06-26_15h22.39.238_micResp_recorded\recording_micResp_2023-06-26_15h28.46.809.wav,None,"[0.9986423999071121, 1.0843579999636859, 1.2881578999804333, 1.4575592000037432]",,,,,04,001,2023-06-26_15h22.39.238,REPSWITCH_1,2022.2.4,60.02159575291948,
REPSWITCH1/PICTURE_719.png,baño,speak,yellow,switch,2,T,4,Stim2_Set4,0,76,76,76,,384.71248400001787,,,,,,,,,,380.43143969995435,381.69742149999365,381.69742149999365,381.69742149999365,381.69742149999365,381.69742149999365,381.69742149999365,381.69742149999365,0.005673700012266636,None,0,,D:\GitHub\experiment1\data/04_REPSWITCH_1_2023-06-26_15h22.39.238_micResp_recorded\recording_micResp_2023-06-26_15h28.51.557.wav,None,,,,,,04,001,2023-06-26_15h22.39.238,REPSWITCH_1,2022.2.4,60.02159575291948,
REPSWITCH1/PICTURE_610.png,miel,type,indigo,filler,1,F,4,Stim2_Set3,0,77,77,77,,389.39561669994146,,,,,,,,,,385.19735399994534,386.3476528999163,386.3476528999163,386.3476528999163,386.3476528999163,386.3476528999163,386.3476528999163,386.3476528999163,0.008534800028428435,"['m', 'i', 'e', 'l']",0,miel,D:\GitHub\experiment1\data/04_REPSWITCH_1_2023-06-26_15h22.39.238_micResp_recorded\recording_micResp_2023-06-26_15h28.56.225.wav,None,"[0.8821667999727651, 1.0396951999282464, 1.1428243999835104, 1.3086148999864236]",,,,,04,001,2023-06-26_15h22.39.238,REPSWITCH_1,2022.2.4,60.02159575291948,
REPSWITCH1/PICTURE_242.png,cartero,type,indigo,filler,1,F,4,Stim3_Set3,0,78,78,78,,393.9773499999428,,,,,,,,,,389.84649389993865,390.9459377999883,390.9459377999883,390.9459377999883,390.9459377999883,390.9459377999883,390.9459377999883,390.9459377999883,0.012662900029681623,"['c', 'a', 'r', 't', 'e', 'r', 'o']",0,cartero,D:\GitHub\experiment1\data/04_REPSWITCH_1_2023-06-26_15h22.39.238_micResp_recorded\recording_micResp_2023-06-26_15h29.00.802.wav,None,"[1.1535313000204042, 1.2419829999562353, 1.4283527999650687, 1.6008694999618456, 1.6693763999501243, 1.8145583999576047, 1.8299172000261024]",,,,,04,001,2023-06-26_15h22.39.238,REPSWITCH_1,2022.2.4,60.02159575291948,
REPSWITCH1/PICTURE_8.png,pierna,speak,yellow,nontarget,2,NT,4,Stim3_Set4,0,79,79,79,,398.576331499964,,,,,,,,,,394.42864289996214,395.5615072000073,395.5615072000073,395.5615072000073,395.5615072000073,395.5615072000073,395.5615072000073,395.5615072000073,0.008562600007280707,None,0,,D:\GitHub\experiment1\data/04_REPSWITCH_1_2023-06-26_15h22.39.238_micResp_recorded\recording_micResp_2023-06-26_15h29.05.414.wav,None,,,,,,04,001,2023-06-26_15h22.39.238,REPSWITCH_1,2022.2.4,60.02159575291948,
REPSWITCH1/PICTURE_8.png,pierna,speak,yellow,repeat,2,T,4,Stim3_Set4,0,80,80,80,,403.15845679992344,,,,,,,,,,399.04495669994503,400.1114859000081,400.1114859000081,400.1114859000081,400.1114859000081,400.1114859000081,400.1114859000081,400.1114859000081,0.007680900045670569,None,0,,D:\GitHub\experiment1\data/04_REPSWITCH_1_2023-06-26_15h22.39.238_micResp_recorded\recording_micResp_2023-06-26_15h29.09.982.wav,None,,,,,,04,001,2023-06-26_15h22.39.238,REPSWITCH_1,2022.2.4,60.02159575291948,
REPSWITCH1/PICTURE_498.png,taza,speak,yellow,nontarget,2,NT,4,Stim4_Set4,0,81,81,81,,407.75697789993137,,,,,,,,,,403.61058310000226,404.7094932999462,404.7094932999462,404.7094932999462,404.7094932999462,404.7094932999462,404.7094932999462,404.7094932999462,0.01128249999601394,None,0,,D:\GitHub\experiment1\data/04_REPSWITCH_1_2023-06-26_15h22.39.238_micResp_recorded\recording_micResp_2023-06-26_15h29.14.589.wav,None,,,,,,04,001,2023-06-26_15h22.39.238,REPSWITCH_1,2022.2.4,60.02159575291948,
REPSWITCH1/PICTURE_498.png,taza,type,indigo,switch,1,T,4,Stim4_Set4,0,82,82,82,,412.3394617999438,,,,,,,,,,408.20960259996355,409.2922970999498,409.2922970999498,409.2922970999498,409.2922970999498,409.2922970999498,409.2922970999498,409.2922970999498,0.00790430000051856,"['t', 'a', 'z', 'a']",0,taza,D:\GitHub\experiment1\data/04_REPSWITCH_1_2023-06-26_15h22.39.238_micResp_recorded\recording_micResp_2023-06-26_15h29.19.166.wav,None,"[0.7992192000383511, 1.1329026999883354, 1.3943924000486732, 1.6031309000682086]",,,,,04,001,2023-06-26_15h22.39.238,REPSWITCH_1,2022.2.4,60.02159575291948,
REPSWITCH1/PICTURE_235.png,aguja,speak,yellow,filler,2,F,4,Stim4_Set3,0,83,83,83,,416.97164320002776,,,,,,,,,,412.791238399921,413.92425489996094,413.92425489996094,413.92425489996094,413.92425489996094,413.92425489996094,413.92425489996094,413.92425489996094,0.007922000018879771,None,0,,D:\GitHub\experiment1\data/04_REPSWITCH_1_2023-06-26_15h22.39.238_micResp_recorded\recording_micResp_2023-06-26_15h29.23.801.wav,None,,,,,,04,001,2023-06-26_15h22.39.238,REPSWITCH_1,2022.2.4,60.02159575291948,
REPSWITCH1/PICTURE_687.png,camisa,type,indigo,nontarget,1,NT,4,Stim5_Set4,0,84,84,84,,421.7372128999559,,,,,,,,,,417.4240104999626,418.6895670000231,418.6895670000231,418.6895670000231,418.6895670000231,418.6895670000231,418.6895670000231,418.6895670000231,0.008011300000362098,"['c', 'a', 'm', 'i', 's', 'a']",0,camisa,D:\GitHub\experiment1\data/04_REPSWITCH_1_2023-06-26_15h22.39.238_micResp_recorded\recording_micResp_2023-06-26_15h29.28.565.wav,None,"[1.0247027999721467, 1.1278885999927297, 1.191480099922046, 1.3037950999569148, 1.3949251999147236, 1.4880365999415517]",,,,,04,001,2023-06-26_15h22.39.238,REPSWITCH_1,2022.2.4,60.02159575291948,
REPSWITCH1/PICTURE_687.png,camisa,speak,yellow,switch,2,T,4,Stim5_Set4,0,85,85,85,,426.4860388999805,,,,,,,,,,422.18997479998507,423.4385971999727,423.4385971999727,423.4385971999727,423.4385971999727,423.4385971999727,423.4385971999727,423.4385971999727,0.008926399983465672,None,0,,D:\GitHub\experiment1\data/04_REPSWITCH_1_2023-06-26_15h22.39.238_micResp_recorded\recording_micResp_2023-06-26_15h29.33.318.wav,None,,,,,,04,001,2023-06-26_15h22.39.238,REPSWITCH_1,2022.2.4,60.02159575291948,
REPSWITCH1/PICTURE_338.png,regalo,speak,yellow,nontarget,2,NT,4,Stim6_Set4,0,86,86,86,,431.2017557999352,,,,,,,,,,426.93826959992293,428.15424319996964,428.15424319996964,428.15424319996964,428.15424319996964,428.15424319996964,428.15424319996964,428.15424319996964,0.008557100081816316,None,0,,D:\GitHub\experiment1\data/04_REPSWITCH_1_2023-06-26_15h22.39.238_micResp_recorded\recording_micResp_2023-06-26_15h29.38.029.wav,None,,,,,,04,001,2023-06-26_15h22.39.238,REPSWITCH_1,2022.2.4,60.02159575291948,
REPSWITCH1/PICTURE_338.png,regalo,speak,yellow,repeat,2,T,4,Stim6_Set4,0,87,87,87,,435.90037469996605,,,,,,,,,,431.6537921000272,432.8528173000086,432.8528173000086,432.8528173000086,432.8528173000086,432.8528173000086,432.8528173000086,432.8528173000086,0.011030000052414834,None,0,,D:\GitHub\experiment1\data/04_REPSWITCH_1_2023-06-26_15h22.39.238_micResp_recorded\recording_micResp_2023-06-26_15h29.42.731.wav,None,,,,,,04,001,2023-06-26_15h22.39.238,REPSWITCH_1,2022.2.4,60.02159575291948,
REPSWITCH1/PICTURE_35.png,oreja,type,indigo,filler,1,F,4,Stim5_Set3,0,88,88,88,,440.4660724999849,,,,,,,,,,436.3523337999359,437.41921830002684,437.41921830002684,437.41921830002684,437.41921830002684,437.41921830002684,437.41921830002684,437.41921830002684,0.008876599953509867,"['o', 'r', 'e', 'j', 'a']",0,oreja,D:\GitHub\experiment1\data/04_REPSWITCH_1_2023-06-26_15h22.39.238_micResp_recorded\recording_micResp_2023-06-26_15h29.47.294.wav,None,"[1.0386929000960663, 1.1669411000330001, 1.232315200031735, 1.3717268001055345, 1.5070268000708893]",,,,,04,001,2023-06-26_15h22.39.238,REPSWITCH_1,2022.2.4,60.02159575291948,
REPSWITCH1/PICTURE_464.png,goma,speak,yellow,filler,2,F,4,Stim6_Set3,0,89,89,89,,445.1148982999148,,,,,,,,,,440.9178378999932,442.0838591000065,442.0838591000065,442.0838591000065,442.0838591000065,442.0838591000065,442.0838591000065,442.0838591000065,0.008759599993936718,None,0,,D:\GitHub\experiment1\data/04_REPSWITCH_1_2023-06-26_15h22.39.238_micResp_recorded\recording_micResp_2023-06-26_15h29.51.953.wav,None,,,,,,04,001,2023-06-26_15h22.39.238,REPSWITCH_1,2022.2.4,60.02159575291948,
REPSWITCH1/PICTURE_271.png,conejo,type,indigo,filler,1,F,4,Stim7_Set3,0,90,90,90,,449.7638772999635,,,,,,,,,,445.58305279992055,446.7491054999409,446.7491054999409,446.7491054999409,446.7491054999409,446.7491054999409,446.7491054999409,446.7491054999409,0.013022499973885715,"['c', 'o', 'n', 'e', 'j', 'o']",0,conejo,D:\GitHub\experiment1\data/04_REPSWITCH_1_2023-06-26_15h22.39.238_micResp_recorded\recording_micResp_2023-06-26_15h29.56.602.wav,None,"[1.3334451999980956, 1.4517981999088079, 1.6783165999222547, 1.8011952999513596, 1.905250099953264, 2.0707796999486163]",,,,,04,001,2023-06-26_15h22.39.238,REPSWITCH_1,2022.2.4,60.02159575291948,
REPSWITCH1/PICTURE_48.png,bombero,speak,yellow,nontarget,2,NT,4,Stim7_Set4,0,91,91,91,,454.42930159997195,,,,,,,,,,450.23204299993813,451.4150667999638,451.4150667999638,451.4150667999638,451.4150667999638,451.4150667999638,451.4150667999638,451.4150667999638,0.010123000014573336,None,0,,D:\GitHub\experiment1\data/04_REPSWITCH_1_2023-06-26_15h22.39.238_micResp_recorded\recording_micResp_2023-06-26_15h30.01.269.wav,None,,,,,,04,001,2023-06-26_15h22.39.238,REPSWITCH_1,2022.2.4,60.02159575291948,
REPSWITCH1/PICTURE_48.png,bombero,type,indigo,switch,1,T,4,Stim7_Set4,0,92,92,92,,459.11143789999187,,,,,,,,,,454.8982597999275,456.06412519991864,456.06412519991864,456.06412519991864,456.06412519991864,456.06412519991864,456.06412519991864,456.06412519991864,0.010830100043676794,"['b', 'o', 'm', 'b', 'e', 'r', 'o']",0,bombero,D:\GitHub\experiment1\data/04_REPSWITCH_1_2023-06-26_15h22.39.238_micResp_recorded\recording_micResp_2023-06-26_15h30.05.942.wav,None,"[0.696408599964343, 0.8310057999333367, 1.1462936999741942, 1.2610144999343902, 1.3439443999668583, 1.5196492999093607, 1.8383026999654248]",,,,,04,001,2023-06-26_15h22.39.238,REPSWITCH_1,2022.2.4,60.02159575291948,
REPSWITCH1/PICTURE_320.png,iglesia,speak,yellow,filler,1,F,4,Stim8_Set3,0,93,93,93,,463.8271094999509,,,,,,,,,,459.5634091999382,460.79613899998367,460.79613899998367,460.79613899998367,460.79613899998367,460.79613899998367,460.79613899998367,460.79613899998367,0.016443299944512546,None,0,,D:\GitHub\experiment1\data/04_REPSWITCH_1_2023-06-26_15h22.39.238_micResp_recorded\recording_micResp_2023-06-26_15h30.10.658.wav,None,,,,,,04,001,2023-06-26_15h22.39.238,REPSWITCH_1,2022.2.4,60.02159575291948,
REPSWITCH1/PICTURE_728.png,pulpo,type,indigo,nontarget,1,NT,4,Stim8_Set4,0,94,94,94,,468.5758437999757,,,,,,,,,,464.2791301999241,465.5284226000076,465.5284226000076,465.5284226000076,465.5284226000076,465.5284226000076,465.5284226000076,465.5284226000076,0.00918449996970594,"['p', 'u', 'l', 'p', 'o']",0,pulpo,D:\GitHub\experiment1\data/04_REPSWITCH_1_2023-06-26_15h22.39.238_micResp_recorded\recording_micResp_2023-06-26_15h30.15.406.wav,None,"[0.8641154000069946, 1.1681983000598848, 1.5508591999532655, 1.701819199952297, 1.8281517999712378]",,,,,04,001,2023-06-26_15h22.39.238,REPSWITCH_1,2022.2.4,60.02159575291948,
REPSWITCH1/PICTURE_728.png,pulpo,type,indigo,repeat,1,T,4,Stim8_Set4,0,95,95,95,,473.1910190000199,,,,,,,,,,469.0284955999814,470.11060659994837,470.11060659994837,470.11060659994837,470.11060659994837,470.11060659994837,470.11060659994837,470.11060659994837,0.009055300033651292,"['p', 'u', 'l', 'p', 'o']",0,pulpo,D:\GitHub\experiment1\data/04_REPSWITCH_1_2023-06-26_15h22.39.238_micResp_recorded\recording_micResp_2023-06-26_15h30.19.991.wav,space,"[0.6189206999260932, 0.8597828999627382, 1.136762599926442, 1.3118736000033095, 1.4209793999325484]",473.61037719994783,473.61037719994783,44.923200299963355,,04,001,2023-06-26_15h22.39.238,REPSWITCH_1,2022.2.4,60.02159575291948,
REPSWITCH1/PICTURE_128.png,muñeca,speak,yellow,nontarget,2,NT,1,Stim4_Set1,0,96,96,96,,522.8295226999326,,,,,,,,,,518.5641921999631,519.798517499934,519.798517499934,519.798517499934,519.798517499934,519.798517499934,519.798517499934,519.798517499934,0.011918000061996281,None,0,,D:\GitHub\experiment1\data/04_REPSWITCH_1_2023-06-26_15h22.39.238_micResp_recorded\recording_micResp_2023-06-26_15h31.09.678.wav,None,,,,,,04,001,2023-06-26_15h22.39.238,REPSWITCH_1,2022.2.4,60.02159575291948,
REPSWITCH1/PICTURE_128.png,muñeca,speak,yellow,repeat,2,T,1,Stim4_Set1,0,97,97,97,,527.5284030999755,,,,,,,,,,523.2975669999141,524.4808358999435,524.4808358999435,524.4808358999435,524.4808358999435,524.4808358999435,524.4808358999435,524.4808358999435,0.010566100012511015,None,0,,D:\GitHub\experiment1\data/04_REPSWITCH_1_2023-06-26_15h22.39.238_micResp_recorded\recording_micResp_2023-06-26_15h31.14.359.wav,None,,,,,,04,001,2023-06-26_15h22.39.238,REPSWITCH_1,2022.2.4,60.02159575291948,
REPSWITCH1/PICTURE_8.png,pierna,type,indigo,filler,1,F,1,Stim3_Set4,0,98,98,98,,532.2439676999347,,,,,,,,,,527.9799588000169,529.1963676000014,529.1963676000014,529.1963676000014,529.1963676000014,529.1963676000014,529.1963676000014,529.1963676000014,0.008710999973118305,"['o', 'i', 'e', 'r', 'n', 'a']",0,oierna,D:\GitHub\experiment1\data/04_REPSWITCH_1_2023-06-26_15h22.39.238_micResp_recorded\recording_micResp_2023-06-26_15h31.19.073.wav,None,"[0.9804494000272825, 1.1722573000006378, 1.4095014000777155, 1.5721201000269502, 1.8083307000342757, 2.0155633999966085]",,,,,04,001,2023-06-26_15h22.39.238,REPSWITCH_1,2022.2.4,60.02159575291948,
REPSWITCH1/PICTURE_728.png,pulpo,type,indigo,filler,1,F,1,Stim8_Set4,0,99,99,99,,536.9596662999829,,,,,,,,,,532.6964138000039,533.9285303999204,533.9285303999204,533.9285303999204,533.9285303999204,533.9285303999204,533.9285303999204,533.9285303999204,0.008156700059771538,"['p', 'u', 'l', 'p', 'o']",0,pulpo,D:\GitHub\experiment1\data/04_REPSWITCH_1_2023-06-26_15h22.39.238_micResp_recorded\recording_micResp_2023-06-26_15h31.23.787.wav,None,"[1.1253035999834538, 1.281312800012529, 1.6597687000175938, 1.864270000020042, 1.9873920999234542]",,,,,04,001,2023-06-26_15h22.39.238,REPSWITCH_1,2022.2.4,60.02159575291948,
REPSWITCH1/PICTURE_135.png,traje,speak,yellow,nontarget,2,NT,1,Stim3_Set1,0,100,100,100,,541.5918468999444,,,,,,,,,,537.4268976999447,538.544196599978,538.544196599978,538.544196599978,538.544196599978,538.544196599978,538.544196599978,538.544196599978,0.00781410001218319,None,0,,D:\GitHub\experiment1\data/04_REPSWITCH_1_2023-06-26_15h22.39.238_micResp_recorded\recording_micResp_2023-06-26_15h31.28.419.wav,None,,,,,,04,001,2023-06-26_15h22.39.238,REPSWITCH_1,2022.2.4,60.02159575291948,
REPSWITCH1/PICTURE_135.png,traje,speak,yellow,repeat,2,T,1,Stim3_Set1,0,101,101,101,,546.457340199966,,,,,,,,,,542.0437698999885,543.4100814999547,543.4100814999547,543.4100814999547,543.4100814999547,543.4100814999547,543.4100814999547,543.4100814999547,0.00788359995931387,None,0,,D:\GitHub\experiment1\data/04_REPSWITCH_1_2023-06-26_15h22.39.238_micResp_recorded\recording_micResp_2023-06-26_15h31.33.285.wav,None,,,,,,04,001,2023-06-26_15h22.39.238,REPSWITCH_1,2022.2.4,60.02159575291948,
REPSWITCH1/PICTURE_16.png,cazador,speak,yellow,nontarget,2,NT,1,Stim6_Set1,0,102,102,102,,551.0394098999677,,,,,,,,,,546.9088214000221,547.9918017999735,547.9918017999735,547.9918017999735,547.9918017999735,547.9918017999735,547.9918017999735,547.9918017999735,0.010998499928973615,None,0,,D:\GitHub\experiment1\data/04_REPSWITCH_1_2023-06-26_15h22.39.238_micResp_recorded\recording_micResp_2023-06-26_15h31.37.870.wav,None,,,,,,04,001,2023-06-26_15h22.39.238,REPSWITCH_1,2022.2.4,60.02159575291948,
REPSWITCH1/PICTURE_16.png,cazador,type,indigo,switch,1,T,1,Stim6_Set1,0,103,103,103,,555.7049811999314,,,,,,,,,,551.4911409999477,552.6573790999828,552.6573790999828,552.6573790999828,552.6573790999828,552.6573790999828,552.6573790999828,552.6573790999828,0.011437700013630092,"['c', 'a', 'z', 'a', 'd', 'o', 'r']",0,cazador,D:\GitHub\experiment1\data/04_REPSWITCH_1_2023-06-26_15h22.39.238_micResp_recorded\recording_micResp_2023-06-26_15h31.42.536.wav,None,"[0.7921168999746442, 0.9736732000019401, 1.497679500025697, 1.6198186000110582, 1.8477905000327155, 1.9452433000551537, 2.0942952999612316]",,,,,04,001,2023-06-26_15h22.39.238,REPSWITCH_1,2022.2.4,60.02159575291948,
REPSWITCH1/PICTURE_498.png,taza,speak,yellow,filler,2,F,1,Stim4_Set4,0,104,104,104,,560.4211015999317,,,,,,,,,,556.1565327999415,557.3726311000064,557.3726311000064,557.3726311000064,557.3726311000064,557.3726311000064,557.3726311000064,557.3726311000064,0.009031299967318773,None,0,,D:\GitHub\experiment1\data/04_REPSWITCH_1_2023-06-26_15h22.39.238_micResp_recorded\recording_micResp_2023-06-26_15h31.47.252.wav,None,,,,,,04,001,2023-06-26_15h22.39.238,REPSWITCH_1,2022.2.4,60.02159575291948,
REPSWITCH1/PICTURE_142.png,vaso,type,indigo,nontarget,1,NT,1,Stim2_Set1,0,105,105,105,,564.9693307999987,,,,,,,,,,560.8720328999916,561.9220618000254,561.9220618000254,561.9220618000254,561.9220618000254,561.9220618000254,561.9220618000254,561.9220618000254,0.007517100078985095,"['v', 'a', 's', 'o']",0,vaso,D:\GitHub\experiment1\data/04_REPSWITCH_1_2023-06-26_15h22.39.238_micResp_recorded\recording_micResp_2023-06-26_15h31.51.798.wav,None,"[1.0500617999350652, 1.2285365000134334, 1.3645341999363154, 1.4344527999637648]",,,,,04,001,2023-06-26_15h22.39.238,REPSWITCH_1,2022.2.4,60.02159575291948,
REPSWITCH1/PICTURE_142.png,vaso,speak,yellow,switch,2,T,1,Stim2_Set1,0,106,106,106,,569.6186109000118,,,,,,,,,,565.4210363000166,566.570469899918,566.570469899918,566.570469899918,566.570469899918,566.570469899918,566.570469899918,566.570469899918,0.0087857999606058,None,0,,D:\GitHub\experiment1\data/04_REPSWITCH_1_2023-06-26_15h22.39.238_micResp_recorded\recording_micResp_2023-06-26_15h31.56.450.wav,None,,,,,,04,001,2023-06-26_15h22.39.238,REPSWITCH_1,2022.2.4,60.02159575291948,
REPSWITCH1/PICTURE_178.png,puente,speak,yellow,nontarget,2,NT,1,Stim1_Set1,0,107,107,107,,574.3506790000247,,,,,,,,,,570.0705499999458,571.3031553999754,571.3031553999754,571.3031553999754,571.3031553999754,571.3031553999754,571.3031553999754,571.3031553999754,0.011264199973084033,None,0,,D:\GitHub\experiment1\data/04_REPSWITCH_1_2023-06-26_15h22.39.238_micResp_recorded\recording_micResp_2023-06-26_15h32.01.182.wav,None,,,,,,04,001,2023-06-26_15h22.39.238,REPSWITCH_1,2022.2.4,60.02159575291948,
REPSWITCH1/PICTURE_178.png,puente,type,indigo,switch,1,T,1,Stim1_Set1,0,108,108,108,,578.9993627999211,,,,,,,,,,574.8021539999172,575.9523634000216,575.9523634000216,575.9523634000216,575.9523634000216,575.9523634000216,575.9523634000216,575.9523634000216,0.008577200002036989,"['o', 'u', 'e', 'n', 't', 'e']",0,ouente,D:\GitHub\experiment1\data/04_REPSWITCH_1_2023-06-26_15h22.39.238_micResp_recorded\recording_micResp_2023-06-26_15h32.05.827.wav,None,"[1.0665206999983639, 1.2416406000265852, 1.430485500022769, 1.5660844999365509, 1.6686442999634892, 1.7716377000324428]",,,,,04,001,2023-06-26_15h22.39.238,REPSWITCH_1,2022.2.4,60.02159575291948,
REPSWITCH1/PICTURE_719.png,baño,speak,yellow,filler,2,F,1,Stim2_Set4,0,109,109,109,,583.7817566000158,,,,,,,,,,579.4512511999346,580.7337599999737,580.7337599999737,580.7337599999737,580.7337599999737,580.7337599999737,580.7337599999737,580.7337599999737,0.009894199902191758,None,0,,D:\GitHub\experiment1\data/04_REPSWITCH_1_2023-06-26_15h22.39.238_micResp_recorded\recording_micResp_2023-06-26_15h32.10.613.wav,None,,,,,,04,001,2023-06-26_15h22.39.238,REPSWITCH_1,2022.2.4,60.02159575291948,
REPSWITCH1/PICTURE_169.png,espalda,type,indigo,nontarget,1,NT,1,Stim8_Set1,0,110,110,110,,588.4473095999565,,,,,,,,,,584.2331288999412,585.3995258000214,585.3995258000214,585.3995258000214,585.3995258000214,585.3995258000214,585.3995258000214,585.3995258000214,0.009387800004333258,"['e', 's', 'o', 'a', 'l', 'd', 'a']",0,esoalda,D:\GitHub\experiment1\data/04_REPSWITCH_1_2023-06-26_15h22.39.238_micResp_recorded\recording_micResp_2023-06-26_15h32.15.278.wav,None,"[1.1318752000806853, 1.342996200080961, 1.682894799974747, 1.8453969999682158, 1.9795849000802264, 2.0954933000029996, 2.171190800028853]",,,,,04,001,2023-06-26_15h22.39.238,REPSWITCH_1,2022.2.4,60.02159575291948,
REPSWITCH1/PICTURE_169.png,espalda,type,indigo,repeat,1,T,1,Stim8_Set1,0,111,111,111,,593.162068799953,,,,,,,,,,588.8986255999189,590.1316160999704,590.1316160999704,590.1316160999704,590.1316160999704,590.1316160999704,590.1316160999704,590.1316160999704,0.009295299998484552,"['e', 'p', 'backspace', 's', 'p', 'a', 'd', 'a']",0,espada,D:\GitHub\experiment1\data/04_REPSWITCH_1_2023-06-26_15h22.39.238_micResp_recorded\recording_micResp_2023-06-26_15h32.20.009.wav,None,"[0.6492363000288606, 0.78765429998748, 1.2782979999901727, 1.6186673999764025, 1.7051237999694422, 1.8858926999382675, 2.2495689999777824, 2.3811490000225604]",,,,,04,001,2023-06-26_15h22.39.238,REPSWITCH_1,2022.2.4,60.02159575291948,
REPSWITCH1/PICTURE_48.png,bombero,speak,yellow,filler,2,F,1,Stim7_Set4,0,112,112,112,,597.7783375999425,,,,,,,,,,593.6310529999901,594.7467010000255,594.7467010000255,594.7467010000255,594.7467010000255,594.7467010000255,594.7467010000255,594.7467010000255,0.01118899998255074,None,0,,D:\GitHub\experiment1\data/04_REPSWITCH_1_2023-06-26_15h22.39.238_micResp_recorded\recording_micResp_2023-06-26_15h32.24.602.wav,None,,,,,,04,001,2023-06-26_15h22.39.238,REPSWITCH_1,2022.2.4,60.02159575291948,
REPSWITCH1/PICTURE_19.png,pavo,type,indigo,nontarget,1,NT,1,Stim5_Set1,0,113,113,113,,602.4604765999829,,,,,,,,,,598.2468964,599.446295099915,599.446295099915,599.446295099915,599.446295099915,599.446295099915,599.446295099915,599.446295099915,0.014605400036089122,"['p', 'a', 'v', 'o']",0,pavo,D:\GitHub\experiment1\data/04_REPSWITCH_1_2023-06-26_15h22.39.238_micResp_recorded\recording_micResp_2023-06-26_15h32.29.302.wav,None,"[1.5525588999735191, 1.6489947999361902, 1.8168967999517918, 1.947416799957864]",,,,,04,001,2023-06-26_15h22.39.238,REPSWITCH_1,2022.2.4,60.02159575291948,
REPSWITCH1/PICTURE_19.png,pavo,type,indigo,repeat,1,T,1,Stim5_Set1,0,114,114,114,,607.1592443999834,,,,,,,,,,602.9312732999679,604.1277100999141,604.1277100999141,604.1277100999141,604.1277100999141,604.1277100999141,604.1277100999141,604.1277100999141,0.014361600042320788,"['p', 'a', 'v', 'o']",0,pavo,D:\GitHub\experiment1\data/04_REPSWITCH_1_2023-06-26_15h22.39.238_micResp_recorded\recording_micResp_2023-06-26_15h32.33.980.wav,None,"[0.977207800024189, 1.0980912001105025, 1.2967709000222385, 1.359438700019382]",,,,,04,001,2023-06-26_15h22.39.238,REPSWITCH_1,2022.2.4,60.02159575291948,
REPSWITCH1/PICTURE_319.png,vaca,type,indigo,filler,1,F,1,Stim1_Set4,0,115,115,115,,611.791993199964,,,,,,,,,,607.6113885999657,608.7633153999923,608.7633153999923,608.7633153999923,608.7633153999923,608.7633153999923,608.7633153999923,608.7633153999923,0.015308200032450259,None,0,,D:\GitHub\experiment1\data/04_REPSWITCH_1_2023-06-26_15h22.39.238_micResp_recorded\recording_micResp_2023-06-26_15h32.38.623.wav,None,,,,,,04,001,2023-06-26_15h22.39.238,REPSWITCH_1,2022.2.4,60.02159575291948,
REPSWITCH1/PICTURE_338.png,regalo,speak,yellow,filler,2,F,1,Stim6_Set4,0,116,116,116,,616.3898326000199,,,,,,,,,,612.2432357999496,613.3631022999762,613.3631022999762,613.3631022999762,613.3631022999762,613.3631022999762,613.3631022999762,613.3631022999762,0.0049582000356167555,None,0,,D:\GitHub\experiment1\data/04_REPSWITCH_1_2023-06-26_15h22.39.238_micResp_recorded\recording_micResp_2023-06-26_15h32.43.230.wav,None,,,,,,04,001,2023-06-26_15h22.39.238,REPSWITCH_1,2022.2.4,60.02159575291948,
REPSWITCH1/PICTURE_142.png,vaso,type,indigo,nontarget,1,NT,1,Stim7_Set1,0,117,117,117,,621.0042652999982,,,,,,,,,,616.8581542000175,617.9931747999508,617.9931747999508,617.9931747999508,617.9931747999508,617.9931747999508,617.9931747999508,617.9931747999508,0.004851499921642244,None,0,,D:\GitHub\experiment1\data/04_REPSWITCH_1_2023-06-26_15h22.39.238_micResp_recorded\recording_micResp_2023-06-26_15h32.47.859.wav,None,,,,,,04,001,2023-06-26_15h22.39.238,REPSWITCH_1,2022.2.4,60.02159575291948,
REPSWITCH1/PICTURE_142.png,vaso,speak,yellow,switch,2,T,1,Stim7_Set1,0,118,118,118,,625.5875511999475,,,,,,,,,,621.4877738999203,622.5440187000204,622.5440187000204,622.5440187000204,622.5440187000204,622.5440187000204,622.5440187000204,622.5440187000204,0.010152100003324449,None,0,,D:\GitHub\experiment1\data/04_REPSWITCH_1_2023-06-26_15h22.39.238_micResp_recorded\recording_micResp_2023-06-26_15h32.52.418.wav,None,,,,,,04,001,2023-06-26_15h22.39.238,REPSWITCH_1,2022.2.4,60.02159575291948,
REPSWITCH1/PICTURE_687.png,camisa,type,indigo,filler,1,F,1,Stim5_Set4,0,119,119,119,,630.2103976999642,,,,,,,,,,626.0398791999323,627.1727467000019,627.1727467000019,627.1727467000019,627.1727467000019,627.1727467000019,627.1727467000019,627.1727467000019,0.01047329988796264,"['c', 'a', 'm', 'i', 's', 'a']",0,camisa,D:\GitHub\experiment1\data/04_REPSWITCH_1_2023-06-26_15h22.39.238_micResp_recorded\recording_micResp_2023-06-26_15h32.57.028.wav,None,"[0.8862236998975277, 0.9738655999535695, 1.060215099947527, 1.1953728999942541, 1.2622839999385178, 1.3462117998860776]",,,,,04,001,2023-06-26_15h22.39.238,REPSWITCH_1,2022.2.4,60.02159575291948,
REPSWITCH1/PICTURE_30.png,granja,type,indigo,nontarget,1,NT,2,Stim5_Set2,0,120,120,120,,634.8691668999381,,,,,,,,,,630.6702283999184,631.8453240999952,631.8453240999952,631.8453240999952,631.8453240999952,631.8453240999952,631.8453240999952,631.8453240999952,0.015527899959124625,None,0,,D:\GitHub\experiment1\data/04_REPSWITCH_1_2023-06-26_15h22.39.238_micResp_recorded\recording_micResp_2023-06-26_15h33.01.698.wav,None,,,,,,04,001,2023-06-26_15h22.39.238,REPSWITCH_1,2022.2.4,60.02159575291948,
REPSWITCH1/PICTURE_30.png,granja,type,indigo,repeat,1,T,2,Stim5_Set2,0,121,121,121,,639.4017499999609,,,,,,,,,,635.3194292000262,636.3710858999984,636.3710858999984,636.3710858999984,636.3710858999984,636.3710858999984,636.3710858999984,636.3710858999984,0.012748599983751774,None,0,,D:\GitHub\experiment1\data/04_REPSWITCH_1_2023-06-26_15h22.39.238_micResp_recorded\recording_micResp_2023-06-26_15h33.06.240.wav,None,,,,,,04,001,2023-06-26_15h22.39.238,REPSWITCH_1,2022.2.4,60.02159575291948,
REPSWITCH1/PICTURE_128.png,muñeca,speak,yellow,filler,2,F,2,Stim4_Set1,0,122,122,122,,644.0600275999168,,,,,,,,,,639.8712545000017,641.0264965000097,641.0264965000097,641.0264965000097,641.0264965000097,641.0264965000097,641.0264965000097,641.0264965000097,0.004553199978545308,None,0,,D:\GitHub\experiment1\data/04_REPSWITCH_1_2023-06-26_15h22.39.238_micResp_recorded\recording_micResp_2023-06-26_15h33.10.900.wav,None,,,,,,04,001,2023-06-26_15h22.39.238,REPSWITCH_1,2022.2.4,60.02159575291948,
REPSWITCH1/PICTURE_264.png,mano,type,indigo,nontarget,1,NT,2,Stim3_Set2,0,123,123,123,,648.7658558000112,,,,,,,,,,644.5204739000183,645.7184849999612,645.7184849999612,645.7184849999612,645.7184849999612,645.7184849999612,645.7184849999612,645.7184849999612,0.00914409989491105,"['m', 'a', 'n', 'o']",0,mano,D:\GitHub\experiment1\data/04_REPSWITCH_1_2023-06-26_15h22.39.238_micResp_recorded\recording_micResp_2023-06-26_15h33.15.596.wav,None,"[1.1281890000682324, 1.2733237000647932, 1.3466918000485748, 1.4192138999933377]",,,,,04,001,2023-06-26_15h22.39.238,REPSWITCH_1,2022.2.4,60.02159575291948,
REPSWITCH1/PICTURE_264.png,mano,type,indigo,repeat,1,T,2,Stim3_Set2,0,124,124,124,,653.3648969000205,,,,,,,,,,649.217381299939,650.3169663000153,650.3169663000153,650.3169663000153,650.3169663000153,650.3169663000153,650.3169663000153,650.3169663000153,0.008567100041545928,"['m', 'a', 'n', 'o']",0,mano,D:\GitHub\experiment1\data/04_REPSWITCH_1_2023-06-26_15h22.39.238_micResp_recorded\recording_micResp_2023-06-26_15h33.20.195.wav,None,"[0.7808816999895498, 1.0307001000037417, 1.160067499964498, 1.3235568000236526]",,,,,04,001,2023-06-26_15h22.39.238,REPSWITCH_1,2022.2.4,60.02159575291948,
REPSWITCH1/PICTURE_175.png,pintor,type,indigo,nontarget,1,NT,2,Stim1_Set2,0,125,125,125,,657.9472070999909,,,,,,,,,,653.8163759999443,654.9163376999786,654.9163376999786,654.9163376999786,654.9163376999786,654.9163376999786,654.9163376999786,654.9163376999786,0.009790000040084124,"['p', 'i', 'n', 't', 'o', 'r']",0,pinor,D:\GitHub\experiment1\data/04_REPSWITCH_1_2023-06-26_15h22.39.238_micResp_recorded\recording_micResp_2023-06-26_15h33.24.785.wav,None,"[1.1449501999886706, 1.2638688000151888, 1.4690812000771984, 1.606677700066939, 1.614785599987954, 1.7967747000511736]",,,,,04,001,2023-06-26_15h22.39.238,REPSWITCH_1,2022.2.4,60.02159575291948,
REPSWITCH1/PICTURE_175.png,pintor,speak,yellow,switch,2,T,2,Stim1_Set2,0,126,126,126,,662.5960094999755,,,,,,,,,,658.4153051999165,659.5485195999499,659.5485195999499,659.5485195999499,659.5485195999499,659.5485195999499,659.5485195999499,659.5485195999499,0.009628500090911984,None,0,,D:\GitHub\experiment1\data/04_REPSWITCH_1_2023-06-26_15h22.39.238_micResp_recorded\recording_micResp_2023-06-26_15h33.29.427.wav,None,,,,,,04,001,2023-06-26_15h22.39.238,REPSWITCH_1,2022.2.4,60.02159575291948,
REPSWITCH1/PICTURE_135.png,traje,speak,yellow,filler,2,F,2,Stim3_Set1,0,127,127,127,,667.278330000001,,,,,,,,,,663.0473059000215,664.2308954999316,664.2308954999316,664.2308954999316,664.2308954999316,664.2308954999316,664.2308954999316,664.2308954999316,0.007579499972052872,None,0,,D:\GitHub\experiment1\data/04_REPSWITCH_1_2023-06-26_15h22.39.238_micResp_recorded\recording_micResp_2023-06-26_15h33.34.096.wav,None,,,,,,04,001,2023-06-26_15h22.39.238,REPSWITCH_1,2022.2.4,60.02159575291948,
REPSWITCH1/PICTURE_446.png,cerdo,speak,yellow,nontarget,2,NT,2,Stim7_Set2,0,128,128,128,,672.0438533999259,,,,,,,,,,667.7308340999298,668.99639450002,668.99639450002,668.99639450002,668.99639450002,668.99639450002,668.99639450002,668.99639450002,0.010843100026249886,None,0,,D:\GitHub\experiment1\data/04_REPSWITCH_1_2023-06-26_15h22.39.238_micResp_recorded\recording_micResp_2023-06-26_15h33.38.874.wav,None,,,,,,04,001,2023-06-26_15h22.39.238,REPSWITCH_1,2022.2.4,60.02159575291948,
REPSWITCH1/PICTURE_446.png,cerdo,type,indigo,switch,1,T,2,Stim7_Set2,0,129,129,129,,676.7258457000135,,,,,,,,,,672.4960909999209,673.6784374000272,673.6784374000272,673.6784374000272,673.6784374000272,673.6784374000272,673.6784374000272,673.6784374000272,0.008405799977481365,None,0,,D:\GitHub\experiment1\data/04_REPSWITCH_1_2023-06-26_15h22.39.238_micResp_recorded\recording_micResp_2023-06-26_15h33.43.554.wav,None,,,,,,04,001,2023-06-26_15h22.39.238,REPSWITCH_1,2022.2.4,60.02159575291948,
REPSWITCH1/PICTURE_152.png,caracol,type,indigo,nontarget,1,NT,2,Stim2_Set2,0,130,130,130,,681.4464049999369,,,,,,,,,,677.1770569999935,678.4455779999262,678.4455779999262,678.4455779999262,678.4455779999262,678.4455779999262,678.4455779999262,678.4455779999262,0.011730500031262636,None,0,,D:\GitHub\experiment1\data/04_REPSWITCH_1_2023-06-26_15h22.39.238_micResp_recorded\recording_micResp_2023-06-26_15h33.48.284.wav,None,,,,,,04,001,2023-06-26_15h22.39.238,REPSWITCH_1,2022.2.4,60.02159575291948,
REPSWITCH1/PICTURE_152.png,caracol,speak,yellow,switch,2,T,2,Stim2_Set2,0,131,131,131,,685.990483499947,,,,,,,,,,681.9149523000233,682.9831863999134,682.9831863999134,682.9831863999134,682.9831863999134,682.9831863999134,682.9831863999134,682.9831863999134,0.015569800045341253,None,0,,D:\GitHub\experiment1\data/04_REPSWITCH_1_2023-06-26_15h22.39.238_micResp_recorded\recording_micResp_2023-06-26_15h33.52.846.wav,None,,,,,,04,001,2023-06-26_15h22.39.238,REPSWITCH_1,2022.2.4,60.02159575291948,
REPSWITCH1/PICTURE_16.png,cazador,type,indigo,filler,1,F,2,Stim6_Set1,0,132,132,132,,690.6387383999536,,,,,,,,,,686.461062700022,687.6243868999882,687.6243868999882,687.6243868999882,687.6243868999882,687.6243868999882,687.6243868999882,687.6243868999882,0.010351600009016693,None,0,,D:\GitHub\experiment1\data/04_REPSWITCH_1_2023-06-26_15h22.39.238_micResp_recorded\recording_micResp_2023-06-26_15h33.57.470.wav,None,,,,,,04,001,2023-06-26_15h22.39.238,REPSWITCH_1,2022.2.4,60.02159575291948,
REPSWITCH1/PICTURE_142.png,vaso,type,indigo,filler,1,F,2,Stim2_Set1,0,133,133,133,,695.3063909999328,,,,,,,,,,691.1081062000012,692.224621100002,692.224621100002,692.224621100002,692.224621100002,692.224621100002,692.224621100002,692.224621100002,0.009475099970586598,None,0,,D:\GitHub\experiment1\data/04_REPSWITCH_1_2023-06-26_15h22.39.238_micResp_recorded\recording_micResp_2023-06-26_15h34.02.111.wav,None,,,,,,04,001,2023-06-26_15h22.39.238,REPSWITCH_1,2022.2.4,60.02159575291948,
REPSWITCH1/PICTURE_517.png,cuerda,speak,yellow,nontarget,2,NT,2,Stim4_Set2,0,134,134,134,,699.8862790999701,,,,,,,,,,695.7249291000189,696.8719491999364,696.8719491999364,696.8719491999364,696.8719491999364,696.8719491999364,696.8719491999364,696.8719491999364,0.004845899995416403,None,0,,D:\GitHub\experiment1\data/04_REPSWITCH_1_2023-06-26_15h22.39.238_micResp_recorded\recording_micResp_2023-06-26_15h34.06.736.wav,None,,,,,,04,001,2023-06-26_15h22.39.238,REPSWITCH_1,2022.2.4,60.02159575291948,
REPSWITCH1/PICTURE_517.png,cuerda,speak,yellow,repeat,2,T,2,Stim4_Set2,0,135,135,135,,704.5523992999224,,,,,,,,,,700.3706342999358,701.504964999971,701.504964999971,701.504964999971,701.504964999971,701.504964999971,701.504964999971,701.504964999971,0.011870300048030913,None,0,,D:\GitHub\experiment1\data/04_REPSWITCH_1_2023-06-26_15h22.39.238_micResp_recorded\recording_micResp_2023-06-26_15h34.11.382.wav,None,,,,,,04,001,2023-06-26_15h22.39.238,REPSWITCH_1,2022.2.4,60.02159575291948,
REPSWITCH1/PICTURE_178.png,puente,type,indigo,filler,1,F,2,Stim1_Set1,0,136,136,136,,709.2847396999132,,,,,,,,,,705.0052187999245,706.2375806999626,706.2375806999626,706.2375806999626,706.2375806999626,706.2375806999626,706.2375806999626,706.2375806999626,0.009331199922598898,None,0,,D:\GitHub\experiment1\data/04_REPSWITCH_1_2023-06-26_15h22.39.238_micResp_recorded\recording_micResp_2023-06-26_15h34.16.113.wav,None,,,,,,04,001,2023-06-26_15h22.39.238,REPSWITCH_1,2022.2.4,60.02159575291948,
REPSWITCH1/PICTURE_199.png,falda,speak,yellow,nontarget,2,NT,2,Stim8_Set2,0,137,137,137,,714.0665797999827,,,,,,,,,,709.7367372999433,711.0363542999839,711.0363542999839,711.0363542999839,711.0363542999839,711.0363542999839,711.0363542999839,711.0363542999839,0.009880400029942393,None,0,,D:\GitHub\experiment1\data/04_REPSWITCH_1_2023-06-26_15h22.39.238_micResp_recorded\recording_micResp_2023-06-26_15h34.20.912.wav,None,,,,,,04,001,2023-06-26_15h22.39.238,REPSWITCH_1,2022.2.4,60.02159575291948,
REPSWITCH1/PICTURE_199.png,falda,speak,yellow,repeat,2,T,2,Stim8_Set2,0,138,138,138,,718.7157034999691,,,,,,,,,,714.5352539999876,715.6859166999348,715.6859166999348,715.6859166999348,715.6859166999348,715.6859166999348,715.6859166999348,715.6859166999348,0.0034806999610736966,None,0,,D:\GitHub\experiment1\data/04_REPSWITCH_1_2023-06-26_15h22.39.238_micResp_recorded\recording_micResp_2023-06-26_15h34.25.557.wav,None,,,,,,04,001,2023-06-26_15h22.39.238,REPSWITCH_1,2022.2.4,60.02159575291948,
REPSWITCH1/PICTURE_169.png,espalda,speak,yellow,filler,2,F,2,Stim8_Set1,0,139,139,139,,723.5818200999638,,,,,,,,,,719.2011535000056,720.5339736000169,720.5339736000169,720.5339736000169,720.5339736000169,720.5339736000169,720.5339736000169,720.5339736000169,0.008916699909605086,None,0,,D:\GitHub\experiment1\data/04_REPSWITCH_1_2023-06-26_15h22.39.238_micResp_recorded\recording_micResp_2023-06-26_15h34.30.411.wav,None,,,,,,04,001,2023-06-26_15h22.39.238,REPSWITCH_1,2022.2.4,60.02159575291948,
REPSWITCH1/PICTURE_19.png,pavo,type,indigo,filler,1,F,2,Stim5_Set1,0,140,140,140,,728.2968347999267,,,,,,,,,,724.0333881999832,725.2494575999444,725.2494575999444,725.2494575999444,725.2494575999444,725.2494575999444,725.2494575999444,725.2494575999444,0.012965400004759431,"['p', 'a', 'v', 'o']",0,pavo,D:\GitHub\experiment1\data/04_REPSWITCH_1_2023-06-26_15h22.39.238_micResp_recorded\recording_micResp_2023-06-26_15h34.35.119.wav,None,"[0.9000870999880135, 1.0183865999570116, 1.1360002999426797, 1.218811099883169]",,,,,04,001,2023-06-26_15h22.39.238,REPSWITCH_1,2022.2.4,60.02159575291948,
REPSWITCH1/PICTURE_142.png,vaso,speak,yellow,filler,2,F,2,Stim7_Set1,0,141,141,141,,732.979253700003,,,,,,,,,,728.7490597999422,729.9313436999219,729.9313436999219,729.9313436999219,729.9313436999219,729.9313436999219,729.9313436999219,729.9313436999219,0.008703900035470724,None,0,,D:\GitHub\experiment1\data/04_REPSWITCH_1_2023-06-26_15h22.39.238_micResp_recorded\recording_micResp_2023-06-26_15h34.39.812.wav,None,,,,,,04,001,2023-06-26_15h22.39.238,REPSWITCH_1,2022.2.4,60.02159575291948,
REPSWITCH1/PICTURE_552.png,manzana,speak,yellow,nontarget,2,NT,2,Stim6_Set2,0,142,142,142,,737.6781485999236,,,,,,,,,,733.431136499974,734.630422999966,734.630422999966,734.630422999966,734.630422999966,734.630422999966,734.630422999966,734.630422999966,0.010819899966008961,None,0,,D:\GitHub\experiment1\data/04_REPSWITCH_1_2023-06-26_15h22.39.238_micResp_recorded\recording_micResp_2023-06-26_15h34.44.509.wav,None,,,,,,04,001,2023-06-26_15h22.39.238,REPSWITCH_1,2022.2.4,60.02159575291948,
REPSWITCH1/PICTURE_552.png,manzana,type,indigo,switch,1,T,2,Stim6_Set2,0,143,143,143,,743.4600063000107,,,,,,,,,,738.1297084999969,740.428264999995,740.428264999995,740.428264999995,740.428264999995,740.428264999995,740.428264999995,740.428264999995,0.011024400009773672,"['m', 'a', 'n', 'z', 'a', 'n', 'a']",0,manzana,D:\GitHub\experiment1\data/04_REPSWITCH_1_2023-06-26_15h22.39.238_micResp_recorded\recording_micResp_2023-06-26_15h34.50.293.wav,None,"[0.9491069000214338, 1.0512323000002652, 1.2248651999980211, 1.5575254000723362, 1.7201261000009254, 1.740061299991794, 2.2362804000731558]",,,,,04,001,2023-06-26_15h22.39.238,REPSWITCH_1,2022.2.4,60.02159575291948,
REPSWITCH1/PICTURE_30.png,granja,speak,yellow,filler,2,F,3,Stim5_Set2,0,144,144,144,,748.3419703999534,,,,,,,,,,743.912483299966,745.2938801000128,745.2938801000128,745.2938801000128,745.2938801000128,745.2938801000128,745.2938801000128,745.2938801000128,0.014432500000111759,None,0,,D:\GitHub\experiment1\data/04_REPSWITCH_1_2023-06-26_15h22.39.238_micResp_recorded\recording_micResp_2023-06-26_15h34.55.167.wav,None,,,,,,04,001,2023-06-26_15h22.39.238,REPSWITCH_1,2022.2.4,60.02159575291948,
REPSWITCH1/PICTURE_464.png,goma,type,indigo,nontarget,1,NT,3,Stim6_Set3,0,145,145,145,,753.057750799926,,,,,,,,,,748.7940951000201,750.0095027999487,750.0095027999487,750.0095027999487,750.0095027999487,750.0095027999487,750.0095027999487,750.0095027999487,0.009811899974010885,"['g', 'o', 'm', 'a']",0,goma,D:\GitHub\experiment1\data/04_REPSWITCH_1_2023-06-26_15h22.39.238_micResp_recorded\recording_micResp_2023-06-26_15h34.59.888.wav,None,"[2.1531438999809325, 2.248341800062917, 2.3846615999937057, 2.45167430001311]",,,,,04,001,2023-06-26_15h22.39.238,REPSWITCH_1,2022.2.4,60.02159575291948,
REPSWITCH1/PICTURE_464.png,goma,speak,yellow,switch,2,T,3,Stim6_Set3,0,146,146,146,,757.6057653999887,,,,,,,,,,753.5174362999387,754.5923244999722,754.5923244999722,754.5923244999722,754.5923244999722,754.5923244999722,754.5923244999722,754.5923244999722,0.010205900063738227,None,0,,D:\GitHub\experiment1\data/04_REPSWITCH_1_2023-06-26_15h22.39.238_micResp_recorded\recording_micResp_2023-06-26_15h35.04.454.wav,None,,,,,,04,001,2023-06-26_15h22.39.238,REPSWITCH_1,2022.2.4,60.02159575291948,
REPSWITCH1/PICTURE_264.png,mano,speak,yellow,filler,2,F,3,Stim3_Set2,0,147,147,147,,762.4108765999554,,,,,,,,,,758.0766303000273,759.4076747000217,759.4076747000217,759.4076747000217,759.4076747000217,759.4076747000217,759.4076747000217,759.4076747000217,0.01306629995815456,None,0,,D:\GitHub\experiment1\data/04_REPSWITCH_1_2023-06-26_15h22.39.238_micResp_recorded\recording_micResp_2023-06-26_15h35.09.258.wav,None,,,,,,04,001,2023-06-26_15h22.39.238,REPSWITCH_1,2022.2.4,60.02159575291948,
REPSWITCH1/PICTURE_235.png,aguja,speak,yellow,nontarget,2,NT,3,Stim4_Set3,0,148,148,148,,767.0374576000031,,,,,,,,,,762.8907539999345,764.0059365999186,764.0059365999186,764.0059365999186,764.0059365999186,764.0059365999186,764.0059365999186,764.0059365999186,0.005896800081245601,None,0,,D:\GitHub\experiment1\data/04_REPSWITCH_1_2023-06-26_15h22.39.238_micResp_recorded\recording_micResp_2023-06-26_15h35.13.868.wav,None,,,,,,04,001,2023-06-26_15h22.39.238,REPSWITCH_1,2022.2.4,60.02159575291948,
REPSWITCH1/PICTURE_235.png,aguja,type,indigo,switch,1,T,3,Stim4_Set3,0,149,149,149,,771.686685099965,,,,,,,,,,767.5066267999355,768.6391489999369,768.6391489999369,768.6391489999369,768.6391489999369,768.6391489999369,768.6391489999369,768.6391489999369,0.009930599946528673,None,0,,D:\GitHub\experiment1\data/04_REPSWITCH_1_2023-06-26_15h22.39.238_micResp_recorded\recording_micResp_2023-06-26_15h35.18.517.wav,None,,,,,,04,001,2023-06-26_15h22.39.238,REPSWITCH_1,2022.2.4,60.02159575291948,
REPSWITCH1/PICTURE_320.png,iglesia,type,indigo,nontarget,1,NT,3,Stim8_Set3,0,150,150,150,,776.4539152999641,,,,,,,,,,772.1386856000172,773.3881067999173,773.3881067999173,773.3881067999173,773.3881067999173,773.3881067999173,773.3881067999173,773.3881067999173,0.011257700040005147,None,0,,D:\GitHub\experiment1\data/04_REPSWITCH_1_2023-06-26_15h22.39.238_micResp_recorded\recording_micResp_2023-06-26_15h35.23.281.wav,None,,,,,,04,001,2023-06-26_15h22.39.238,REPSWITCH_1,2022.2.4,60.02159575291948,
REPSWITCH1/PICTURE_320.png,iglesia,speak,yellow,switch,2,T,3,Stim8_Set3,0,151,151,151,,781.3018584999954,,,,,,,,,,776.8875381000107,778.279677500017,778.279677500017,778.279677500017,778.279677500017,778.279677500017,778.279677500017,778.279677500017,0.008178699994459748,None,0,,D:\GitHub\experiment1\data/04_REPSWITCH_1_2023-06-26_15h22.39.238_micResp_recorded\recording_micResp_2023-06-26_15h35.28.115.wav,None,,,,,,04,001,2023-06-26_15h22.39.238,REPSWITCH_1,2022.2.4,60.02159575291948,
REPSWITCH1/PICTURE_175.png,pintor,type,indigo,filler,1,F,3,Stim1_Set2,0,152,152,152,,786.0724016999593,,,,,,,,,,781.7372309999773,783.0472770999186,783.0472770999186,783.0472770999186,783.0472770999186,783.0472770999186,783.0472770999186,783.0472770999186,0.00586440006736666,None,0,,D:\GitHub\experiment1\data/04_REPSWITCH_1_2023-06-26_15h22.39.238_micResp_recorded\recording_micResp_2023-06-26_15h35.32.908.wav,None,,,,,,04,001,2023-06-26_15h22.39.238,REPSWITCH_1,2022.2.4,60.02159575291948,
REPSWITCH1/PICTURE_271.png,conejo,speak,yellow,nontarget,2,NT,3,Stim7_Set3,0,153,153,153,,790.9318117999937,,,,,,,,,,786.7602658999385,787.8843793999404,787.8843793999404,787.8843793999404,787.8843793999404,787.8843793999404,787.8843793999404,787.8843793999404,0.011401699972338974,None,0,,D:\GitHub\experiment1\data/04_REPSWITCH_1_2023-06-26_15h22.39.238_micResp_recorded\recording_micResp_2023-06-26_15h35.37.763.wav,None,,,,,,04,001,2023-06-26_15h22.39.238,REPSWITCH_1,2022.2.4,60.02159575291948,
REPSWITCH1/PICTURE_271.png,conejo,speak,yellow,repeat,2,T,3,Stim7_Set3,0,154,154,154,,795.5558685999131,,,,,,,,,,791.3847239000024,792.4997840999858,792.4997840999858,792.4997840999858,792.4997840999858,792.4997840999858,792.4997840999858,792.4997840999858,0.01023919996805489,None,0,,D:\GitHub\experiment1\data/04_REPSWITCH_1_2023-06-26_15h22.39.238_micResp_recorded\recording_micResp_2023-06-26_15h35.42.379.wav,None,,,,,,04,001,2023-06-26_15h22.39.238,REPSWITCH_1,2022.2.4,60.02159575291948,
REPSWITCH1/PICTURE_446.png,cerdo,type,indigo,filler,1,F,3,Stim7_Set2,0,155,155,155,,801.2979870999698,,,,,,,,,,796.0803038999438,797.5356616999488,797.5356616999488,797.5356616999488,797.5356616999488,797.5356616999488,797.5356616999488,797.5356616999488,0.005650700069963932,"['c', 'e', 'r', 'd', 'o']",0,cerdo,D:\GitHub\experiment1\data/04_REPSWITCH_1_2023-06-26_15h22.39.238_micResp_recorded\recording_micResp_2023-06-26_15h35.47.395.wav,None,"[1.43933039996773, 1.553575100027956, 1.7279297000495717, 1.8816481999820098, 1.9412634000182152]",,,,,04,001,2023-06-26_15h22.39.238,REPSWITCH_1,2022.2.4,60.02159575291948,
REPSWITCH1/PICTURE_152.png,caracol,type,indigo,filler,1,F,3,Stim2_Set2,0,156,156,156,,805.6449872999219,,,,,,,,,,801.316461200011,802.5980542999459,802.5980542999459,802.5980542999459,802.5980542999459,802.5980542999459,802.5980542999459,802.5980542999459,0.011018099961802363,"['s', 'n', 'a', 'i', 'l']",0,snail,D:\GitHub\experiment1\data/04_REPSWITCH_1_2023-06-26_15h22.39.238_micResp_recorded\recording_micResp_2023-06-26_15h35.52.478.wav,None,"[1.073726899921894, 1.211486899992451, 1.3106602999614552, 1.3865847999695688, 1.5953306999290362]",,,,,04,001,2023-06-26_15h22.39.238,REPSWITCH_1,2022.2.4,60.02159575291948,
REPSWITCH1/PICTURE_576.png,guante,speak,yellow,nontarget,2,NT,3,Stim1_Set3,0,157,157,157,,810.2105196999619,,,,,,,,,,806.0811424999265,807.1795273999451,807.1795273999451,807.1795273999451,807.1795273999451,807.1795273999451,807.1795273999451,807.1795273999451,0.009108999976888299,None,0,,D:\GitHub\experiment1\data/04_REPSWITCH_1_2023-06-26_15h22.39.238_micResp_recorded\recording_micResp_2023-06-26_15h35.57.042.wav,None,,,,,,04,001,2023-06-26_15h22.39.238,REPSWITCH_1,2022.2.4,60.02159575291948,
REPSWITCH1/PICTURE_576.png,guante,speak,yellow,repeat,2,T,3,Stim1_Set3,0,158,158,158,,814.9260883999523,,,,,,,,,,810.6801217999309,811.9121238000225,811.9121238000225,811.9121238000225,811.9121238000225,811.9121238000225,811.9121238000225,811.9121238000225,0.011724199983291328,None,0,,D:\GitHub\experiment1\data/04_REPSWITCH_1_2023-06-26_15h22.39.238_micResp_recorded\recording_micResp_2023-06-26_15h36.01.768.wav,None,,,,,,04,001,2023-06-26_15h22.39.238,REPSWITCH_1,2022.2.4,60.02159575291948,
REPSWITCH1/PICTURE_242.png,cartero,speak,yellow,nontarget,2,NT,3,Stim3_Set3,0,159,159,159,,819.658215399948,,,,,,,,,,815.3955288999714,816.6276199999265,816.6276199999265,816.6276199999265,816.6276199999265,816.6276199999265,816.6276199999265,816.6276199999265,0.008158900076523423,None,0,,D:\GitHub\experiment1\data/04_REPSWITCH_1_2023-06-26_15h22.39.238_micResp_recorded\recording_micResp_2023-06-26_15h36.06.493.wav,None,,,,,,04,001,2023-06-26_15h22.39.238,REPSWITCH_1,2022.2.4,60.02159575291948,
REPSWITCH1/PICTURE_242.png,cartero,type,indigo,switch,1,T,3,Stim3_Set3,0,160,160,160,,824.4736975999549,,,,,,,,,,820.1275094000157,821.4261645999504,821.4261645999504,821.4261645999504,821.4261645999504,821.4261645999504,821.4261645999504,821.4261645999504,0.008614899939857423,"['c', 'a', 'r', 't', 'e', 'r', 'o']",0,carteo,D:\GitHub\experiment1\data/04_REPSWITCH_1_2023-06-26_15h22.39.238_micResp_recorded\recording_micResp_2023-06-26_15h36.11.303.wav,None,"[0.7880838999990374, 0.9096670999424532, 1.1057322999695316, 1.279498799936846, 1.3478054000297561, 1.489649199997075, 1.5157639000099152]",,,,,04,001,2023-06-26_15h22.39.238,REPSWITCH_1,2022.2.4,60.02159575291948,
REPSWITCH1/PICTURE_517.png,cuerda,speak,yellow,filler,2,F,3,Stim4_Set2,0,161,161,161,,829.2562925999518,,,,,,,,,,824.9270209999522,826.2251482999418,826.2251482999418,826.2251482999418,826.2251482999418,826.2251482999418,826.2251482999418,826.2251482999418,0.013359099975787103,None,0,,D:\GitHub\experiment1\data/04_REPSWITCH_1_2023-06-26_15h22.39.238_micResp_recorded\recording_micResp_2023-06-26_15h36.16.085.wav,None,,,,,,04,001,2023-06-26_15h22.39.238,REPSWITCH_1,2022.2.4,60.02159575291948,
REPSWITCH1/PICTURE_35.png,oreja,type,indigo,nontarget,1,NT,3,Stim5_Set3,0,162,162,162,,834.0880860999459,,,,,,,,,,829.7087549999123,831.0573580999626,831.0573580999626,831.0573580999626,831.0573580999626,831.0573580999626,831.0573580999626,831.0573580999626,0.011644599959254265,"['o', 'r', 'e', 'j', 'a']",0,oreja,D:\GitHub\experiment1\data/04_REPSWITCH_1_2023-06-26_15h22.39.238_micResp_recorded\recording_micResp_2023-06-26_15h36.20.912.wav,None,"[1.047903300030157, 1.1942818000679836, 1.2587273999815807, 1.4102401999989524, 1.5093602000270039]",,,,,04,001,2023-06-26_15h22.39.238,REPSWITCH_1,2022.2.4,60.02159575291948,
REPSWITCH1/PICTURE_35.png,oreja,type,indigo,repeat,1,T,3,Stim5_Set3,0,163,163,163,,838.7538457999472,,,,,,,,,,834.5407395999646,835.7059282999253,835.7059282999253,835.7059282999253,835.7059282999253,835.7059282999253,835.7059282999253,835.7059282999253,0.008547600009478629,"['o', 'r', 'e', 'j', 'a']",0,oreja,D:\GitHub\experiment1\data/04_REPSWITCH_1_2023-06-26_15h22.39.238_micResp_recorded\recording_micResp_2023-06-26_15h36.25.584.wav,None,"[1.0821708000730723, 1.1751089000608772, 1.2339735999703407, 1.3619509000563994, 1.4986521999817342]",,,,,04,001,2023-06-26_15h22.39.238,REPSWITCH_1,2022.2.4,60.02159575291948,
REPSWITCH1/PICTURE_199.png,falda,speak,yellow,filler,2,F,3,Stim8_Set2,0,164,164,164,,843.4525821999414,,,,,,,,,,839.2061121999286,840.4228549000109,840.4228549000109,840.4228549000109,840.4228549000109,840.4228549000109,840.4228549000109,840.4228549000109,0.010153200011700392,None,0,,D:\GitHub\experiment1\data/04_REPSWITCH_1_2023-06-26_15h22.39.238_micResp_recorded\recording_micResp_2023-06-26_15h36.30.287.wav,None,,,,,,04,001,2023-06-26_15h22.39.238,REPSWITCH_1,2022.2.4,60.02159575291948,
REPSWITCH1/PICTURE_610.png,miel,type,indigo,nontarget,1,NT,3,Stim2_Set3,0,165,165,165,,848.0513515999774,,,,,,,,,,843.9053736999631,845.003742699977,845.003742699977,845.003742699977,845.003742699977,845.003742699977,845.003742699977,845.003742699977,0.008472300018183887,"['m', 'i', 'e', 'l']",0,miel,D:\GitHub\experiment1\data/04_REPSWITCH_1_2023-06-26_15h22.39.238_micResp_recorded\recording_micResp_2023-06-26_15h36.34.881.wav,None,"[0.7798129000002518, 0.9269291000673547, 0.9910972999641672, 1.1893701000371948]",,,,,04,001,2023-06-26_15h22.39.238,REPSWITCH_1,2022.2.4,60.02159575291948,
REPSWITCH1/PICTURE_610.png,miel,type,indigo,repeat,1,T,3,Stim2_Set3,0,166,166,166,,852.6835250000004,,,,,,,,,,848.5039270999841,849.6528378999792,849.6528378999792,849.6528378999792,849.6528378999792,849.6528378999792,849.6528378999792,849.6528378999792,0.014392599929124117,"['m', 'i', 'e', 'l']",0,miel,D:\GitHub\experiment1\data/04_REPSWITCH_1_2023-06-26_15h22.39.238_micResp_recorded\recording_micResp_2023-06-26_15h36.39.510.wav,None,"[1.136820900021121, 1.5638026000233367, 1.7094257000135258, 2.2324195000110194]",,,,,04,001,2023-06-26_15h22.39.238,REPSWITCH_1,2022.2.4,60.02159575291948,
REPSWITCH1/PICTURE_552.png,manzana,type,indigo,filler,1,F,3,Stim6_Set2,0,167,167,167,,857.4324749999214,,,,,,,,,,853.1363040999277,854.3846559999511,854.3846559999511,854.3846559999511,854.3846559999511,854.3846559999511,854.3846559999511,854.3846559999511,0.008089000009931624,"['m', 'a', 'n', 'z', 'a', 'n', 'a']",0,manzana,D:\GitHub\experiment1\data/04_REPSWITCH_1_2023-06-26_15h22.39.238_micResp_recorded\recording_micResp_2023-06-26_15h36.44.261.wav,None,"[0.8425616000313312, 0.9563006999669597, 1.1149777000537142, 1.3069492999929935, 1.440136400051415, 1.5249740000581369, 1.998183700023219]",,,,,04,001,2023-06-26_15h22.39.238,REPSWITCH_1,2022.2.4,60.02159575291948,
REPSWITCH1/PICTURE_464.png,goma,speak,yellow,filler,2,F,4,Stim6_Set3,0,168,168,168,,862.0148120999802,,,,,,,,,,857.8850237999577,858.9837868999457,858.9837868999457,858.9837868999457,858.9837868999457,858.9837868999457,858.9837868999457,858.9837868999457,0.008554500062018633,None,0,,D:\GitHub\experiment1\data/04_REPSWITCH_1_2023-06-26_15h22.39.238_micResp_recorded\recording_micResp_2023-06-26_15h36.48.854.wav,None,,,,,,04,001,2023-06-26_15h22.39.238,REPSWITCH_1,2022.2.4,60.02159575291948,
REPSWITCH1/PICTURE_8.png,pierna,type,indigo,nontarget,1,NT,4,Stim3_Set4,0,169,169,169,,866.5968268999131,,,,,,,,,,862.4843779000221,863.5492882999824,863.5492882999824,863.5492882999824,863.5492882999824,863.5492882999824,863.5492882999824,863.5492882999824,0.007274899980984628,"['p', 'i', 'e', 'r', 'n', 'a']",0,pierna,D:\GitHub\experiment1\data/04_REPSWITCH_1_2023-06-26_15h22.39.238_micResp_recorded\recording_micResp_2023-06-26_15h36.53.427.wav,None,"[0.8457353999838233, 0.9934557999949902, 1.075231199967675, 1.213465700042434, 1.2765514999628067, 1.4808328000362962]",,,,,04,001,2023-06-26_15h22.39.238,REPSWITCH_1,2022.2.4,60.02159575291948,
REPSWITCH1/PICTURE_8.png,pierna,type,indigo,repeat,1,T,4,Stim3_Set4,0,170,170,170,,871.1126584999729,,,,,,,,,,867.0497246999294,868.0980516999261,868.0980516999261,868.0980516999261,868.0980516999261,868.0980516999261,868.0980516999261,868.0980516999261,0.007882499950937927,"['p', 'i', 'e', 'r', 'n', 'a']",0,pierna,D:\GitHub\experiment1\data/04_REPSWITCH_1_2023-06-26_15h22.39.238_micResp_recorded\recording_micResp_2023-06-26_15h36.57.952.wav,None,"[0.9126423000125214, 1.0690075000748038, 1.2303045000880957, 1.3423420001054183, 1.497760400059633, 1.6173860999988392]",,,,,04,001,2023-06-26_15h22.39.238,REPSWITCH_1,2022.2.4,60.02159575291948,
REPSWITCH1/PICTURE_728.png,pulpo,type,indigo,nontarget,1,NT,4,Stim8_Set4,0,171,171,171,,875.7781195999123,,,,,,,,,,871.5818880000152,872.747304199962,872.747304199962,872.747304199962,872.747304199962,872.747304199962,872.747304199962,872.747304199962,0.010961899999529123,"['p', 'u', 'l', 'p', 'o']",0,pulpo,D:\GitHub\experiment1\data/04_REPSWITCH_1_2023-06-26_15h22.39.238_micResp_recorded\recording_micResp_2023-06-26_15h37.02.604.wav,None,"[0.7946489000460133, 1.0103967000031844, 1.3870007999939844, 1.543233299977146, 1.6558337999740615]",,,,,04,001,2023-06-26_15h22.39.238,REPSWITCH_1,2022.2.4,60.02159575291948,
REPSWITCH1/PICTURE_728.png,pulpo,speak,yellow,switch,2,T,4,Stim8_Set4,0,172,172,172,,880.3603385000024,,,,,,,,,,876.2308100999799,877.3461397999199,877.3461397999199,877.3461397999199,877.3461397999199,877.3461397999199,877.3461397999199,877.3461397999199,0.009804099914617836,None,0,,D:\GitHub\experiment1\data/04_REPSWITCH_1_2023-06-26_15h22.39.238_micResp_recorded\recording_micResp_2023-06-26_15h37.07.200.wav,None,,,,,,04,001,2023-06-26_15h22.39.238,REPSWITCH_1,2022.2.4,60.02159575291948,
REPSWITCH1/PICTURE_235.png,aguja,type,indigo,filler,1,F,4,Stim4_Set3,0,173,173,173,,884.992570500006,,,,,,,,,,880.8297650999157,881.9450743999332,881.9450743999332,881.9450743999332,881.9450743999332,881.9450743999332,881.9450743999332,881.9450743999332,0.009294999996200204,"['a', 'g', 'u', 'j', 'a']",0,aguja,D:\GitHub\experiment1\data/04_REPSWITCH_1_2023-06-26_15h22.39.238_micResp_recorded\recording_micResp_2023-06-26_15h37.11.824.wav,None,"[0.855706200003624, 1.190559700015001, 1.350631000008434, 1.5552761999424547, 1.6034487000433728]",,,,,04,001,2023-06-26_15h22.39.238,REPSWITCH_1,2022.2.4,60.02159575291948,
REPSWITCH1/PICTURE_498.png,taza,speak,yellow,nontarget,2,NT,4,Stim4_Set4,0,174,174,174,,889.5748880999163,,,,,,,,,,885.4460221999325,886.5602986000013,886.5602986000013,886.5602986000013,886.5602986000013,886.5602986000013,886.5602986000013,886.5602986000013,0.01016840001102537,None,0,,D:\GitHub\experiment1\data/04_REPSWITCH_1_2023-06-26_15h22.39.238_micResp_recorded\recording_micResp_2023-06-26_15h37.16.413.wav,None,,,,,,04,001,2023-06-26_15h22.39.238,REPSWITCH_1,2022.2.4,60.02159575291948,
REPSWITCH1/PICTURE_498.png,taza,speak,yellow,repeat,2,T,4,Stim4_Set4,0,175,175,175,,894.3404488000087,,,,,,,,,,890.0450950999511,891.3088196999161,891.3088196999161,891.3088196999161,891.3088196999161,891.3088196999161,891.3088196999161,891.3088196999161,0.009601500001735985,None,0,,D:\GitHub\experiment1\data/04_REPSWITCH_1_2023-06-26_15h22.39.238_micResp_recorded\recording_micResp_2023-06-26_15h37.21.173.wav,None,,,,,,04,001,2023-06-26_15h22.39.238,REPSWITCH_1,2022.2.4,60.02159575291948,
REPSWITCH1/PICTURE_719.png,baño,speak,yellow,nontarget,2,NT,4,Stim2_Set4,0,176,176,176,,898.9058604999445,,,,,,,,,,894.794022899936,895.858211099985,895.858211099985,895.858211099985,895.858211099985,895.858211099985,895.858211099985,895.858211099985,0.010881299967877567,None,0,,D:\GitHub\experiment1\data/04_REPSWITCH_1_2023-06-26_15h22.39.238_micResp_recorded\recording_micResp_2023-06-26_15h37.25.737.wav,None,,,,,,04,001,2023-06-26_15h22.39.238,REPSWITCH_1,2022.2.4,60.02159575291948,
