image,correctAns,respModal,frameColor,repSwitch,sequence,target,set,block,list,exp_version,stimulus,baseline,baseline_condition,trial_no,psychopy_trial,Column1,trialsREPSWITCH.thisRepN,trialsREPSWITCH.thisTrialN,trialsREPSWITCH.thisN,trialsREPSWITCH.thisIndex,textWelcome.started,textboxInstrMain1.started,textboxInstrMain1_2.started,textboxInstrMain1_3.started,keyInstrMain.started,keyInstrMain.keys,keyInstrMain.rt,textboxInstrMain2.started,textboxInstrMain2_2.started,textboxInstrMain2_3.started,textboxInstrMain2_4.started,textboxInstrMain2_5.started,textboxInstrMain2_6.started,textboxInstrMain2_7.started,textboxInstrMain2_8.started,textboxInstrMain2_9.started,textboxInstrMain2_10.started,textboxInstrMain2_11.started,textboxInstrMain2_12.started,keyInstrMain2.started,keyInstrMain2.keys,keyInstrMain2.rt,textBlank500.started,fixationITI.started,fixationITI.stopped,polygonColour.started,polygonWhite.started,imageObject.started,polygonType.started,textInput.started,keyResp.started,micRespv1l1.started,keyResp.keys,keyResp.corr,keyResp.rt,subjResponse,micRespv1l1.clip,textBlankLoop.started,keyPause.keys,textBlankLoop.stopped,polygonColour.stopped,polygonWhite.stopped,imageObject.stopped,polygonType.stopped,textInput.stopped,keyResp.stopped,textboxPause.started,keyPause.started,participant,session,date,expName,psychopyVersion,frameRate,
,,,,,,,,,,,,,,,,,,,,,6.1281528999998045,8.622962899999948,8.622962899999948,8.622962899999948,8.622962899999948,space,0.7419565999998667,,,,,,,,,,,,,,,,,,,,,,,,,,,,,,,,,,,,,,,,,,231845,001,2023-09-15_12h32.21.379,REPSWITCH1_version1_list1,2022.2.4,355.8123730212573,
,,,,,,,,,,,,,,,,,,,,,,,,,,,,9.383705299999747,9.383705299999747,9.383705299999747,9.383705299999747,9.383705299999747,9.383705299999747,9.383705299999747,9.383705299999747,9.383705299999747,9.383705299999747,9.383705299999747,9.383705299999747,9.383705299999747,space,0.653243200000361,,,,,,,,,,,,,,,,,,,,,,,,,,,231845,001,2023-09-15_12h32.21.379,REPSWITCH1_version1_list1,2022.2.4,355.8123730212573,
REPSWITCH1/PICTURE_340.png,espejo,type,darkblue,filler,1,F,1,1,1,1,Extra1,0,None,1,0,1,0,0,0,0,,,,,,,,,,,,,,,,,,,,,,,10.044913799999904,10.640598399999817,11.699699799999962,11.699699799999962,11.699699799999962,11.699699799999962,11.699699799999962,11.699699799999962,11.699699799999962,0.008727300000373361,"['e', 's', 'e', 'j']",0,"[1.8728172000000995, 2.048939799999971, 2.288935500000207, 2.6889334000002236]",esej,C:\2023\REPSWITCH12092023\REPSWITCH_excgange\REPSWITCH_excgange\data/231845_REPSWITCH1_version1_list1_2023-09-15_12h32.21.379_micRespv1l1_recorded\recording_micRespv1l1_2023-09-15_12h32.31.716.wav,14.723780299999817,None,,,,,,,,,,231845,001,2023-09-15_12h32.21.379,REPSWITCH1_version1_list1,2022.2.4,355.8123730212573,
REPSWITCH1/PICTURE_391.png,cadena,speak,gold,filler,2,F,1,1,1,1,Extra2,0,None,2,1,2,0,1,1,1,,,,,,,,,,,,,,,,,,,,,,,,15.2268025999997,16.32324689999996,16.32324689999996,16.32324689999996,16.32324689999996,16.32324689999996,16.32324689999996,16.32324689999996,0.005185699999856297,None,0,,,C:\2023\REPSWITCH12092023\REPSWITCH_excgange\REPSWITCH_excgange\data/231845_REPSWITCH1_version1_list1_2023-09-15_12h32.21.379_micRespv1l1_recorded\recording_micRespv1l1_2023-09-15_12h32.36.339.wav,19.3533881999997,None,,,,,,,,,,231845,001,2023-09-15_12h32.21.379,REPSWITCH1_version1_list1,2022.2.4,355.8123730212573,
REPSWITCH1/PICTURE_178.png,puente,speak,gold,nontarget,2,NT,1,1,1,1,Stim1_Set1,1,repeat,3,2,3,0,2,2,2,,,,,,,,,,,,,,,,,,,,,,,,19.852661999999782,20.904978199999732,20.904978199999732,20.904978199999732,20.904978199999732,20.904978199999732,20.904978199999732,20.904978199999732,0.0051097000000481785,None,0,,,C:\2023\REPSWITCH12092023\REPSWITCH_excgange\REPSWITCH_excgange\data/231845_REPSWITCH1_version1_list1_2023-09-15_12h32.21.379_micRespv1l1_recorded\recording_micRespv1l1_2023-09-15_12h32.40.923.wav,23.92931210000006,None,24.428976899999725,,,,,,,,,231845,001,2023-09-15_12h32.21.379,REPSWITCH1_version1_list1,2022.2.4,355.8123730212573,
REPSWITCH1/PICTURE_178.png,puente,speak,gold,repeat,2,T,1,1,1,1,Stim1_Set1,0,None,4,3,4,0,3,3,3,,,,,,,,,,,,,,,,,,,,,,,,24.428976899999725,25.493207099999836,25.493207099999836,25.493207099999836,25.493207099999836,25.493207099999836,25.493207099999836,25.493207099999836,0.0013141999997969833,None,0,,,C:\2023\REPSWITCH12092023\REPSWITCH_excgange\REPSWITCH_excgange\data/231845_REPSWITCH1_version1_list1_2023-09-15_12h32.21.379_micRespv1l1_recorded\recording_micRespv1l1_2023-09-15_12h32.45.505.wav,28.51101800000015,None,29.010847199999716,,,,,,,,,231845,001,2023-09-15_12h32.21.379,REPSWITCH1_version1_list1,2022.2.4,355.8123730212573,
REPSWITCH1/PICTURE_319.png,vaca,type,darkblue,filler,1,F,1,1,1,1,Stim1_Set4,0,None,5,4,5,0,4,4,4,,,,,,,,,,,,,,,,,,,,,,,,29.010847199999716,30.10308639999994,30.10308639999994,30.10308639999994,30.10308639999994,30.10308639999994,30.10308639999994,30.10308639999994,0.004941299999700277,"['v', 'a', 'c', 'a']",0,"[1.0216356999999334, 1.165197100000114, 1.2935499000000164, 1.4055805999996664]",vaca,C:\2023\REPSWITCH12092023\REPSWITCH_excgange\REPSWITCH_excgange\data/231845_REPSWITCH1_version1_list1_2023-09-15_12h32.21.379_micRespv1l1_recorded\recording_micRespv1l1_2023-09-15_12h32.50.115.wav,33.1206973999997,None,33.62048279999999,,,,,,,,,231845,001,2023-09-15_12h32.21.379,REPSWITCH1_version1_list1,2022.2.4,355.8123730212573,
REPSWITCH1/PICTURE_381.png,fresa,speak,gold,nontarget,2,NT,1,1,1,1,Stim2_Set1,1,switch,6,5,6,0,5,5,5,,,,,,,,,,,,,,,,,,,,,,,,33.62048279999999,34.68207709999979,34.68207709999979,34.68207709999979,34.68207709999979,34.68207709999979,34.68207709999979,34.68207709999979,0.005171799999970972,None,0,,,C:\2023\REPSWITCH12092023\REPSWITCH_excgange\REPSWITCH_excgange\data/231845_REPSWITCH1_version1_list1_2023-09-15_12h32.21.379_micRespv1l1_recorded\recording_micRespv1l1_2023-09-15_12h32.54.695.wav,37.70255109999971,None,,,,,,,,,,231845,001,2023-09-15_12h32.21.379,REPSWITCH1_version1_list1,2022.2.4,355.8123730212573,
REPSWITCH1/PICTURE_381.png,fresa,speak,gold,repeat,2,T,1,1,1,1,Stim2_Set1,0,None,7,6,7,0,6,6,6,,,,,,,,,,,,,,,,,,,,,,,,38.202358300000014,39.26949109999987,39.26949109999987,39.26949109999987,39.26949109999987,39.26949109999987,39.26949109999987,39.26949109999987,0.0016027000001486158,None,0,,,C:\2023\REPSWITCH12092023\REPSWITCH_excgange\REPSWITCH_excgange\data/231845_REPSWITCH1_version1_list1_2023-09-15_12h32.21.379_micRespv1l1_recorded\recording_micRespv1l1_2023-09-15_12h32.59.282.wav,42.28718149999986,None,42.78700750000007,,,,,,,,,231845,001,2023-09-15_12h32.21.379,REPSWITCH1_version1_list1,2022.2.4,355.8123730212573,
REPSWITCH1/PICTURE_719.png,baño,type,darkblue,filler,1,F,1,1,1,1,Stim2_Set4,1,switch,8,7,8,0,7,7,7,,,,,,,,,,,,,,,,,,,,,,,,42.78700750000007,43.87279809999973,43.87279809999973,43.87279809999973,43.87279809999973,43.87279809999973,43.87279809999973,43.87279809999973,0.0053594999999404536,None,0,,,C:\2023\REPSWITCH12092023\REPSWITCH_excgange\REPSWITCH_excgange\data/231845_REPSWITCH1_version1_list1_2023-09-15_12h32.21.379_micRespv1l1_recorded\recording_micRespv1l1_2023-09-15_12h33.03.888.wav,46.89420740000014,None,47.39387069999975,,,,,,,,,231845,001,2023-09-15_12h32.21.379,REPSWITCH1_version1_list1,2022.2.4,355.8123730212573,
REPSWITCH1/PICTURE_135.png,traje,speak,gold,nontarget,2,NT,1,1,1,1,Stim3_Set1,0,None,9,8,9,0,8,8,8,,,,,,,,,,,,,,,,,,,,,,,,47.39387069999975,48.47520399999985,48.47520399999985,48.47520399999985,48.47520399999985,48.47520399999985,48.47520399999985,48.47520399999985,0.005056199999671662,None,0,,,C:\2023\REPSWITCH12092023\REPSWITCH_excgange\REPSWITCH_excgange\data/231845_REPSWITCH1_version1_list1_2023-09-15_12h32.21.379_micRespv1l1_recorded\recording_micRespv1l1_2023-09-15_12h33.08.488.wav,51.49534059999996,None,,,,,,,,,,231845,001,2023-09-15_12h32.21.379,REPSWITCH1_version1_list1,2022.2.4,355.8123730212573,
REPSWITCH1/PICTURE_135.png,traje,type,darkblue,switch,1,T,1,1,1,1,Stim3_Set1,0,None,10,9,10,0,9,9,9,,,,,,,,,,,,,,,,,,,,,,,,51.99518989999979,53.0531919,53.0531919,53.0531919,53.0531919,53.0531919,53.0531919,53.0531919,0.0013397000002441928,None,0,,,C:\2023\REPSWITCH12092023\REPSWITCH_excgange\REPSWITCH_excgange\data/231845_REPSWITCH1_version1_list1_2023-09-15_12h32.21.379_micRespv1l1_recorded\recording_micRespv1l1_2023-09-15_12h33.13.080.wav,56.08840710000004,None,56.58816720000004,56.08840710000004,56.08840710000004,56.08840710000004,56.08840710000004,56.08840710000004,56.08840710000004,,,231845,001,2023-09-15_12h32.21.379,REPSWITCH1_version1_list1,2022.2.4,355.8123730212573,
REPSWITCH1/PICTURE_687.png,camisa,speak,gold,filler,2,F,1,1,1,1,Stim5_Set4,0,None,11,10,11,0,10,10,10,,,,,,,,,,,,,,,,,,,,,,,,56.58816720000004,57.641530599999896,57.641530599999896,57.641530599999896,57.641530599999896,57.641530599999896,57.641530599999896,57.641530599999896,0.004914399999961461,None,0,,,C:\2023\REPSWITCH12092023\REPSWITCH_excgange\REPSWITCH_excgange\data/231845_REPSWITCH1_version1_list1_2023-09-15_12h32.21.379_micRespv1l1_recorded\recording_micRespv1l1_2023-09-15_12h33.17.653.wav,60.661892799999805,None,,,,,,,,,,231845,001,2023-09-15_12h32.21.379,REPSWITCH1_version1_list1,2022.2.4,355.8123730212573,
REPSWITCH1/PICTURE_128.png,muñeca,type,darkblue,nontarget,1,NT,1,1,1,1,Stim4_Set1,1,switch,12,11,12,0,11,11,11,,,,,,,,,,,,,,,,,,,,,,,,61.16170609999972,62.27804239999978,62.27804239999978,62.27804239999978,62.27804239999978,62.27804239999978,62.27804239999978,62.27804239999978,0.006120399999872461,None,0,,,C:\2023\REPSWITCH12092023\REPSWITCH_excgange\REPSWITCH_excgange\data/231845_REPSWITCH1_version1_list1_2023-09-15_12h32.21.379_micRespv1l1_recorded\recording_micRespv1l1_2023-09-15_12h33.22.295.wav,65.30210910000005,None,,,,,,,,,,231845,001,2023-09-15_12h32.21.379,REPSWITCH1_version1_list1,2022.2.4,355.8123730212573,
REPSWITCH1/PICTURE_128.png,muñeca,speak,gold,switch,2,T,1,1,1,1,Stim4_Set1,0,None,13,12,13,0,12,12,12,,,,,,,,,,,,,,,,,,,,,,,,65.80188929999986,66.90502699999979,66.90502699999979,66.90502699999979,66.90502699999979,66.90502699999979,66.90502699999979,66.90502699999979,0.0014037000000826083,None,0,,,C:\2023\REPSWITCH12092023\REPSWITCH_excgange\REPSWITCH_excgange\data/231845_REPSWITCH1_version1_list1_2023-09-15_12h32.21.379_micRespv1l1_recorded\recording_micRespv1l1_2023-09-15_12h33.26.919.wav,69.92556719999993,None,70.42541630000005,,,,,,,,,231845,001,2023-09-15_12h32.21.379,REPSWITCH1_version1_list1,2022.2.4,355.8123730212573,
REPSWITCH1/PICTURE_8.png,pierna,speak,gold,filler,2,F,1,1,1,1,Stim3_Set4,0,None,14,13,14,0,13,13,13,,,,,,,,,,,,,,,,,,,,,,,,70.42541630000005,71.48683159999973,71.48683159999973,71.48683159999973,71.48683159999973,71.48683159999973,71.48683159999973,71.48683159999973,0.00409380000019155,None,0,,,C:\2023\REPSWITCH12092023\REPSWITCH_excgange\REPSWITCH_excgange\data/231845_REPSWITCH1_version1_list1_2023-09-15_12h32.21.379_micRespv1l1_recorded\recording_micRespv1l1_2023-09-15_12h33.31.501.wav,74.50763069999994,None,75.00729659999979,,,,,,,,,231845,001,2023-09-15_12h32.21.379,REPSWITCH1_version1_list1,2022.2.4,355.8123730212573,
REPSWITCH1/PICTURE_19.png,pavo,speak,gold,nontarget,2,NT,1,1,1,1,Stim5_Set1,0,None,15,14,15,0,14,14,14,,,,,,,,,,,,,,,,,,,,,,,,75.00729659999979,76.08850870000015,76.08850870000015,76.08850870000015,76.08850870000015,76.08850870000015,76.08850870000015,76.08850870000015,0.005260500000076718,None,0,,,C:\2023\REPSWITCH12092023\REPSWITCH_excgange\REPSWITCH_excgange\data/231845_REPSWITCH1_version1_list1_2023-09-15_12h32.21.379_micRespv1l1_recorded\recording_micRespv1l1_2023-09-15_12h33.36.101.wav,79.10896760000014,None,,,,,,,,,,231845,001,2023-09-15_12h32.21.379,REPSWITCH1_version1_list1,2022.2.4,355.8123730212573,
REPSWITCH1/PICTURE_19.png,pavo,type,darkblue,switch,1,T,1,1,1,1,Stim5_Set1,0,None,16,15,16,0,15,15,15,,,,,,,,,,,,,,,,,,,,,,,,79.60859859999982,80.63324310000007,80.63324310000007,80.63324310000007,80.63324310000007,80.63324310000007,80.63324310000007,80.63324310000007,0.0017996000001403445,None,0,,,C:\2023\REPSWITCH12092023\REPSWITCH_excgange\REPSWITCH_excgange\data/231845_REPSWITCH1_version1_list1_2023-09-15_12h32.21.379_micRespv1l1_recorded\recording_micRespv1l1_2023-09-15_12h33.40.652.wav,83.65731460000006,None,84.15714949999983,83.65731460000006,83.65731460000006,83.65731460000006,83.65731460000006,83.65731460000006,83.65731460000006,,,231845,001,2023-09-15_12h32.21.379,REPSWITCH1_version1_list1,2022.2.4,355.8123730212573,
REPSWITCH1/PICTURE_16.png,cazador,type,darkblue,nontarget,1,NT,1,1,1,1,Stim6_Set1,1,switch,17,16,17,0,16,16,16,,,,,,,,,,,,,,,,,,,,,,,,84.15714949999983,85.20128100000011,85.20128100000011,85.20128100000011,85.20128100000011,85.20128100000011,85.20128100000011,85.20128100000011,0.005273400000078254,None,0,,,C:\2023\REPSWITCH12092023\REPSWITCH_excgange\REPSWITCH_excgange\data/231845_REPSWITCH1_version1_list1_2023-09-15_12h32.21.379_micRespv1l1_recorded\recording_micRespv1l1_2023-09-15_12h33.45.217.wav,88.22251610000012,None,,,,,,,,,,231845,001,2023-09-15_12h32.21.379,REPSWITCH1_version1_list1,2022.2.4,355.8123730212573,
REPSWITCH1/PICTURE_16.png,cazador,type,darkblue,repeat,1,T,1,1,1,1,Stim6_Set1,0,None,18,17,18,0,17,17,17,,,,,,,,,,,,,,,,,,,,,,,,88.72235640000008,89.80812089999972,89.80812089999972,89.80812089999972,89.80812089999972,89.80812089999972,89.80812089999972,89.80812089999972,0.0016110999999909836,None,0,,,C:\2023\REPSWITCH12092023\REPSWITCH_excgange\REPSWITCH_excgange\data/231845_REPSWITCH1_version1_list1_2023-09-15_12h32.21.379_micRespv1l1_recorded\recording_micRespv1l1_2023-09-15_12h33.49.826.wav,92.83237099999997,None,,92.83237099999997,92.83237099999997,92.83237099999997,92.83237099999997,92.83237099999997,92.83237099999997,,,231845,001,2023-09-15_12h32.21.379,REPSWITCH1_version1_list1,2022.2.4,355.8123730212573,
REPSWITCH1/PICTURE_498.png,taza,speak,gold,filler,2,F,1,1,1,1,Stim4_Set4,0,None,19,18,19,0,18,18,18,,,,,,,,,,,,,,,,,,,,,,,,93.33199400000012,94.39359269999977,94.39359269999977,94.39359269999977,94.39359269999977,94.39359269999977,94.39359269999977,94.39359269999977,0.004902700000002369,None,0,,,C:\2023\REPSWITCH12092023\REPSWITCH_excgange\REPSWITCH_excgange\data/231845_REPSWITCH1_version1_list1_2023-09-15_12h32.21.379_micRespv1l1_recorded\recording_micRespv1l1_2023-09-15_12h33.54.406.wav,97.41125710000006,None,97.91109329999972,,,,,,,,,231845,001,2023-09-15_12h32.21.379,REPSWITCH1_version1_list1,2022.2.4,355.8123730212573,
REPSWITCH1/PICTURE_48.png,bombero,type,darkblue,filler,1,F,1,1,1,1,Stim7_Set4,0,None,20,19,20,0,19,19,19,,,,,,,,,,,,,,,,,,,,,,,,97.91109329999972,99.09521020000011,99.09521020000011,99.09521020000011,99.09521020000011,99.09521020000011,99.09521020000011,99.09521020000011,0.005262799999854906,None,0,,,C:\2023\REPSWITCH12092023\REPSWITCH_excgange\REPSWITCH_excgange\data/231845_REPSWITCH1_version1_list1_2023-09-15_12h32.21.379_micRespv1l1_recorded\recording_micRespv1l1_2023-09-15_12h33.59.107.wav,102.11533589999999,None,,,,,,,,,,231845,001,2023-09-15_12h32.21.379,REPSWITCH1_version1_list1,2022.2.4,355.8123730212573,
REPSWITCH1/PICTURE_142.png,vaso,type,darkblue,nontarget,1,NT,1,1,1,1,Stim7_Set1,1,repeat,21,20,21,0,20,20,20,,,,,,,,,,,,,,,,,,,,,,,,102.61514339999985,103.7405905999999,103.7405905999999,103.7405905999999,103.7405905999999,103.7405905999999,103.7405905999999,103.7405905999999,0.004696499999681691,None,0,,,C:\2023\REPSWITCH12092023\REPSWITCH_excgange\REPSWITCH_excgange\data/231845_REPSWITCH1_version1_list1_2023-09-15_12h32.21.379_micRespv1l1_recorded\recording_micRespv1l1_2023-09-15_12h34.03.753.wav,106.75814309999987,None,107.25810129999991,,,,,,,,,231845,001,2023-09-15_12h32.21.379,REPSWITCH1_version1_list1,2022.2.4,355.8123730212573,
REPSWITCH1/PICTURE_142.png,vaso,type,darkblue,repeat,1,T,1,1,1,1,Stim7_Set1,0,None,22,21,22,0,21,21,21,,,,,,,,,,,,,,,,,,,,,,,,107.25810129999991,108.35314190000008,108.35314190000008,108.35314190000008,108.35314190000008,108.35314190000008,108.35314190000008,108.35314190000008,0.001274100000046019,None,0,,,C:\2023\REPSWITCH12092023\REPSWITCH_excgange\REPSWITCH_excgange\data/231845_REPSWITCH1_version1_list1_2023-09-15_12h32.21.379_micRespv1l1_recorded\recording_micRespv1l1_2023-09-15_12h34.08.365.wav,111.37068679999993,None,111.87052459999995,,,,,,,,,231845,001,2023-09-15_12h32.21.379,REPSWITCH1_version1_list1,2022.2.4,355.8123730212573,
REPSWITCH1/PICTURE_338.png,regalo,speak,gold,filler,2,F,1,1,1,1,Stim6_Set4,1,switch,23,22,23,0,22,22,22,,,,,,,,,,,,,,,,,,,,,,,,111.87052459999995,112.90711969999984,112.90711969999984,112.90711969999984,112.90711969999984,112.90711969999984,112.90711969999984,112.90711969999984,0.00445480000007592,None,0,,,C:\2023\REPSWITCH12092023\REPSWITCH_excgange\REPSWITCH_excgange\data/231845_REPSWITCH1_version1_list1_2023-09-15_12h32.21.379_micRespv1l1_recorded\recording_micRespv1l1_2023-09-15_12h34.12.919.wav,115.9249807000001,None,116.42461890000004,,,,,,,,,231845,001,2023-09-15_12h32.21.379,REPSWITCH1_version1_list1,2022.2.4,355.8123730212573,
REPSWITCH1/PICTURE_728.png,pulpo,type,darkblue,filler,1,F,1,1,1,1,Stim8_Set4,1,switch,24,23,24,0,23,23,23,,,,,,,,,,,,,,,,,,,,,,,,116.42461890000004,117.44757789999994,117.44757789999994,117.44757789999994,117.44757789999994,117.44757789999994,117.44757789999994,117.44757789999994,0.00492420000000493,None,0,,,C:\2023\REPSWITCH12092023\REPSWITCH_excgange\REPSWITCH_excgange\data/231845_REPSWITCH1_version1_list1_2023-09-15_12h32.21.379_micRespv1l1_recorded\recording_micRespv1l1_2023-09-15_12h34.17.460.wav,120.4649000999998,None,120.96485080000002,,,,,,,,,231845,001,2023-09-15_12h32.21.379,REPSWITCH1_version1_list1,2022.2.4,355.8123730212573,
REPSWITCH1/PICTURE_169.png,espalda,type,darkblue,nontarget,1,NT,1,1,1,1,Stim8_Set1,1,repeat,25,24,25,0,24,24,24,,,,,,,,,,,,,,,,,,,,,,,,120.96485080000002,122.07073989999981,122.07073989999981,122.07073989999981,122.07073989999981,122.07073989999981,122.07073989999981,122.07073989999981,0.004884500000116532,None,0,,,C:\2023\REPSWITCH12092023\REPSWITCH_excgange\REPSWITCH_excgange\data/231845_REPSWITCH1_version1_list1_2023-09-15_12h32.21.379_micRespv1l1_recorded\recording_micRespv1l1_2023-09-15_12h34.22.083.wav,125.08853739999995,None,125.5883758,,,,,,,,,231845,001,2023-09-15_12h32.21.379,REPSWITCH1_version1_list1,2022.2.4,355.8123730212573,
REPSWITCH1/PICTURE_169.png,espalda,speak,gold,switch,2,T,1,1,1,1,Stim8_Set1,0,None,26,25,26,0,25,25,25,,,,,,,,,,,,,,,,,,,,,,,,125.5883758,126.64701089999971,126.64701089999971,126.64701089999971,126.64701089999971,126.64701089999971,126.64701089999971,126.64701089999971,0.0013315999999576889,None,0,,,C:\2023\REPSWITCH12092023\REPSWITCH_excgange\REPSWITCH_excgange\data/231845_REPSWITCH1_version1_list1_2023-09-15_12h32.21.379_micRespv1l1_recorded\recording_micRespv1l1_2023-09-15_12h34.26.661.wav,129.66785489999984,None,,,,,,,,,,231845,001,2023-09-15_12h32.21.379,REPSWITCH1_version1_list1,2022.2.4,355.8123730212573,
REPSWITCH1/PICTURE_178.png,puente,speak,gold,filler,2,F,2,1,1,1,Stim1_Set1,0,None,27,26,27,0,26,26,26,,,,,,,,,,,,,,,,,,,,,,,,130.16747039999973,131.2373431000001,131.2373431000001,131.2373431000001,131.2373431000001,131.2373431000001,131.2373431000001,131.2373431000001,0.0013781000002381916,None,0,,,C:\2023\REPSWITCH12092023\REPSWITCH_excgange\REPSWITCH_excgange\data/231845_REPSWITCH1_version1_list1_2023-09-15_12h32.21.379_micRespv1l1_recorded\recording_micRespv1l1_2023-09-15_12h34.31.252.wav,134.2578327000001,None,134.7576826999998,,,,,,,,,231845,001,2023-09-15_12h32.21.379,REPSWITCH1_version1_list1,2022.2.4,355.8123730212573,
REPSWITCH1/PICTURE_175.png,pintor,type,darkblue,nontarget,1,NT,2,1,1,1,Stim1_Set2,1,switch,28,27,28,0,27,27,27,,,,,,,,,,,,,,,,,,,,,,,,134.7576826999998,135.7912339999998,135.7912339999998,135.7912339999998,135.7912339999998,135.7912339999998,135.7912339999998,135.7912339999998,0.004399699999794393,None,0,,,C:\2023\REPSWITCH12092023\REPSWITCH_excgange\REPSWITCH_excgange\data/231845_REPSWITCH1_version1_list1_2023-09-15_12h32.21.379_micRespv1l1_recorded\recording_micRespv1l1_2023-09-15_12h34.35.803.wav,138.80912450000005,None,139.30899709999994,,,,,,,,,231845,001,2023-09-15_12h32.21.379,REPSWITCH1_version1_list1,2022.2.4,355.8123730212573,
REPSWITCH1/PICTURE_175.png,pintor,type,darkblue,repeat,1,T,2,1,1,1,Stim1_Set2,0,None,29,28,29,0,28,28,28,,,,,,,,,,,,,,,,,,,,,,,,139.30899709999994,140.43720429999985,140.43720429999985,140.43720429999985,140.43720429999985,140.43720429999985,140.43720429999985,140.43720429999985,0.0015240999996422033,None,0,,,C:\2023\REPSWITCH12092023\REPSWITCH_excgange\REPSWITCH_excgange\data/231845_REPSWITCH1_version1_list1_2023-09-15_12h32.21.379_micRespv1l1_recorded\recording_micRespv1l1_2023-09-15_12h34.40.449.wav,143.45489989999987,None,143.9547394000001,,,,,,,,,231845,001,2023-09-15_12h32.21.379,REPSWITCH1_version1_list1,2022.2.4,355.8123730212573,
REPSWITCH1/PICTURE_381.png,fresa,speak,gold,filler,2,F,2,1,1,1,Stim2_Set1,0,None,30,29,30,0,29,29,29,,,,,,,,,,,,,,,,,,,,,,,,143.9547394000001,145.09963209999978,145.09963209999978,145.09963209999978,145.09963209999978,145.09963209999978,145.09963209999978,145.09963209999978,0.0016986000000542845,None,0,,,C:\2023\REPSWITCH12092023\REPSWITCH_excgange\REPSWITCH_excgange\data/231845_REPSWITCH1_version1_list1_2023-09-15_12h32.21.379_micRespv1l1_recorded\recording_micRespv1l1_2023-09-15_12h34.45.111.wav,148.1173017000001,None,148.6171521000001,,,,,,,,,231845,001,2023-09-15_12h32.21.379,REPSWITCH1_version1_list1,2022.2.4,355.8123730212573,
REPSWITCH1/PICTURE_152.png,caracol,type,darkblue,nontarget,1,NT,2,1,1,1,Stim2_Set2,1,switch,31,30,31,0,30,30,30,,,,,,,,,,,,,,,,,,,,,,,,148.6171521000001,149.68991610000012,149.68991610000012,149.68991610000012,149.68991610000012,149.68991610000012,149.68991610000012,149.68991610000012,0.005428000000392785,None,0,,,C:\2023\REPSWITCH12092023\REPSWITCH_excgange\REPSWITCH_excgange\data/231845_REPSWITCH1_version1_list1_2023-09-15_12h32.21.379_micRespv1l1_recorded\recording_micRespv1l1_2023-09-15_12h34.49.704.wav,152.71030990000008,None,,,,,,,,,,231845,001,2023-09-15_12h32.21.379,REPSWITCH1_version1_list1,2022.2.4,355.8123730212573,
REPSWITCH1/PICTURE_152.png,caracol,type,darkblue,repeat,1,T,2,1,1,1,Stim2_Set2,0,None,32,31,32,0,31,31,31,,,,,,,,,,,,,,,,,,,,,,,,153.21012259999998,154.2884786999998,154.2884786999998,154.2884786999998,154.2884786999998,154.2884786999998,154.2884786999998,154.2884786999998,0.0015050000001792796,None,0,,,C:\2023\REPSWITCH12092023\REPSWITCH_excgange\REPSWITCH_excgange\data/231845_REPSWITCH1_version1_list1_2023-09-15_12h32.21.379_micRespv1l1_recorded\recording_micRespv1l1_2023-09-15_12h34.54.300.wav,157.30606970000008,None,157.80587019999984,,,,,,,,,231845,001,2023-09-15_12h32.21.379,REPSWITCH1_version1_list1,2022.2.4,355.8123730212573,
REPSWITCH1/PICTURE_128.png,muñeca,speak,gold,filler,2,F,2,1,1,1,Stim4_Set1,0,None,33,32,33,0,32,32,32,,,,,,,,,,,,,,,,,,,,,,,,157.80587019999984,158.86701719999974,158.86701719999974,158.86701719999974,158.86701719999974,158.86701719999974,158.86701719999974,158.86701719999974,0.0014092000001255656,None,0,,,C:\2023\REPSWITCH12092023\REPSWITCH_excgange\REPSWITCH_excgange\data/231845_REPSWITCH1_version1_list1_2023-09-15_12h32.21.379_micRespv1l1_recorded\recording_micRespv1l1_2023-09-15_12h34.58.881.wav,161.8879751999998,None,162.38774879999983,,,,,,,,,231845,001,2023-09-15_12h32.21.379,REPSWITCH1_version1_list1,2022.2.4,355.8123730212573,
REPSWITCH1/PICTURE_264.png,mano,type,darkblue,nontarget,1,NT,2,1,1,1,Stim3_Set2,0,None,34,33,34,0,33,33,33,,,,,,,,,,,,,,,,,,,,,,,,162.38774879999983,163.5101824999997,163.5101824999997,163.5101824999997,163.5101824999997,163.5101824999997,163.5101824999997,163.5101824999997,0.005094499999813706,None,0,,,C:\2023\REPSWITCH12092023\REPSWITCH_excgange\REPSWITCH_excgange\data/231845_REPSWITCH1_version1_list1_2023-09-15_12h32.21.379_micRespv1l1_recorded\recording_micRespv1l1_2023-09-15_12h35.03.522.wav,166.5280984000001,None,167.0279357999998,,,,,,,,,231845,001,2023-09-15_12h32.21.379,REPSWITCH1_version1_list1,2022.2.4,355.8123730212573,
REPSWITCH1/PICTURE_264.png,mano,speak,gold,switch,2,T,2,1,1,1,Stim3_Set2,0,None,35,34,35,0,34,34,34,,,,,,,,,,,,,,,,,,,,,,,,167.0279357999998,168.0644739999998,168.0644739999998,168.0644739999998,168.0644739999998,168.0644739999998,168.0644739999998,168.0644739999998,0.0014352999996845028,None,0,,,C:\2023\REPSWITCH12092023\REPSWITCH_excgange\REPSWITCH_excgange\data/231845_REPSWITCH1_version1_list1_2023-09-15_12h32.21.379_micRespv1l1_recorded\recording_micRespv1l1_2023-09-15_12h35.08.078.wav,171.08518830000003,None,171.58481669999992,,,,,,,,,231845,001,2023-09-15_12h32.21.379,REPSWITCH1_version1_list1,2022.2.4,355.8123730212573,
REPSWITCH1/PICTURE_517.png,cuerda,speak,gold,nontarget,2,NT,2,1,1,1,Stim4_Set2,1,repeat,36,35,36,0,35,35,35,,,,,,,,,,,,,,,,,,,,,,,,171.58481669999992,172.71316829999978,172.71316829999978,172.71316829999978,172.71316829999978,172.71316829999978,172.71316829999978,172.71316829999978,0.005193599999984144,None,0,,,C:\2023\REPSWITCH12092023\REPSWITCH_excgange\REPSWITCH_excgange\data/231845_REPSWITCH1_version1_list1_2023-09-15_12h32.21.379_micRespv1l1_recorded\recording_micRespv1l1_2023-09-15_12h35.12.726.wav,175.73059609999973,None,176.23056080000015,,,,,,,,,231845,001,2023-09-15_12h32.21.379,REPSWITCH1_version1_list1,2022.2.4,355.8123730212573,
REPSWITCH1/PICTURE_517.png,cuerda,type,darkblue,switch,1,T,2,1,1,1,Stim4_Set2,0,None,37,36,37,0,36,36,36,,,,,,,,,,,,,,,,,,,,,,,,176.23056080000015,177.2503240000001,177.2503240000001,177.2503240000001,177.2503240000001,177.2503240000001,177.2503240000001,177.2503240000001,0.0014493999997284845,None,0,,,C:\2023\REPSWITCH12092023\REPSWITCH_excgange\REPSWITCH_excgange\data/231845_REPSWITCH1_version1_list1_2023-09-15_12h32.21.379_micRespv1l1_recorded\recording_micRespv1l1_2023-09-15_12h35.17.265.wav,180.27096489999985,None,180.77078979999987,,,,,,,,,231845,001,2023-09-15_12h32.21.379,REPSWITCH1_version1_list1,2022.2.4,355.8123730212573,
REPSWITCH1/PICTURE_135.png,traje,type,darkblue,filler,1,F,2,1,1,1,Stim3_Set1,0,None,38,37,38,0,37,37,37,,,,,,,,,,,,,,,,,,,,,,,,180.77078979999987,181.81841940000004,181.81841940000004,181.81841940000004,181.81841940000004,181.81841940000004,181.81841940000004,181.81841940000004,0.0013523000002351182,None,0,,,C:\2023\REPSWITCH12092023\REPSWITCH_excgange\REPSWITCH_excgange\data/231845_REPSWITCH1_version1_list1_2023-09-15_12h32.21.379_micRespv1l1_recorded\recording_micRespv1l1_2023-09-15_12h35.21.833.wav,184.83894939999982,None,185.3387684999998,,,,,,,,,231845,001,2023-09-15_12h32.21.379,REPSWITCH1_version1_list1,2022.2.4,355.8123730212573,
REPSWITCH1/PICTURE_30.png,granja,type,darkblue,nontarget,1,NT,2,1,1,1,Stim5_Set2,1,repeat,39,38,39,0,38,38,38,,,,,,,,,,,,,,,,,,,,,,,,185.3387684999998,186.4557405999999,186.4557405999999,186.4557405999999,186.4557405999999,186.4557405999999,186.4557405999999,186.4557405999999,0.005785299999843119,None,0,,,C:\2023\REPSWITCH12092023\REPSWITCH_excgange\REPSWITCH_excgange\data/231845_REPSWITCH1_version1_list1_2023-09-15_12h32.21.379_micRespv1l1_recorded\recording_micRespv1l1_2023-09-15_12h35.26.470.wav,189.47637970000005,None,189.97618209999973,,,,,,,,,231845,001,2023-09-15_12h32.21.379,REPSWITCH1_version1_list1,2022.2.4,355.8123730212573,
REPSWITCH1/PICTURE_30.png,granja,speak,gold,switch,2,T,2,1,1,1,Stim5_Set2,0,None,40,39,40,0,39,39,39,,,,,,,,,,,,,,,,,,,,,,,,189.97618209999973,191.04251079999995,191.04251079999995,191.04251079999995,191.04251079999995,191.04251079999995,191.04251079999995,191.04251079999995,0.002104199999848788,None,0,,,C:\2023\REPSWITCH12092023\REPSWITCH_excgange\REPSWITCH_excgange\data/231845_REPSWITCH1_version1_list1_2023-09-15_12h32.21.379_micRespv1l1_recorded\recording_micRespv1l1_2023-09-15_12h35.31.061.wav,194.06658530000004,None,194.56637950000004,194.06658530000004,194.06658530000004,194.06658530000004,194.06658530000004,194.06658530000004,194.06658530000004,,,231845,001,2023-09-15_12h32.21.379,REPSWITCH1_version1_list1,2022.2.4,355.8123730212573,
REPSWITCH1/PICTURE_142.png,vaso,type,darkblue,filler,1,F,2,1,1,1,Stim7_Set1,0,None,41,40,41,0,40,40,40,,,,,,,,,,,,,,,,,,,,,,,,194.56637950000004,195.6688362,195.6688362,195.6688362,195.6688362,195.6688362,195.6688362,195.6688362,0.0012962000000698026,None,0,,,C:\2023\REPSWITCH12092023\REPSWITCH_excgange\REPSWITCH_excgange\data/231845_REPSWITCH1_version1_list1_2023-09-15_12h32.21.379_micRespv1l1_recorded\recording_micRespv1l1_2023-09-15_12h35.35.695.wav,198.70399279999992,None,,198.70399279999992,198.70399279999992,198.70399279999992,198.70399279999992,198.70399279999992,198.70399279999992,,,231845,001,2023-09-15_12h32.21.379,REPSWITCH1_version1_list1,2022.2.4,355.8123730212573,
REPSWITCH1/PICTURE_19.png,pavo,speak,gold,filler,2,F,2,1,1,1,Stim5_Set1,1,switch,42,41,42,0,41,41,41,,,,,,,,,,,,,,,,,,,,,,,,199.20379139999977,200.20624539999972,200.20624539999972,200.20624539999972,200.20624539999972,200.20624539999972,200.20624539999972,200.20624539999972,0.0017127000000982662,None,0,,,C:\2023\REPSWITCH12092023\REPSWITCH_excgange\REPSWITCH_excgange\data/231845_REPSWITCH1_version1_list1_2023-09-15_12h32.21.379_micRespv1l1_recorded\recording_micRespv1l1_2023-09-15_12h35.40.224.wav,203.23031309999988,None,203.7301210999999,203.23031309999988,203.23031309999988,203.23031309999988,203.23031309999988,203.23031309999988,203.23031309999988,,,231845,001,2023-09-15_12h32.21.379,REPSWITCH1_version1_list1,2022.2.4,355.8123730212573,
REPSWITCH1/PICTURE_552.png,manzana,speak,gold,nontarget,2,NT,2,1,1,1,Stim6_Set2,1,repeat,43,42,43,0,42,42,42,,,,,,,,,,,,,,,,,,,,,,,,203.7301210999999,204.76389319999998,204.76389319999998,204.76389319999998,204.76389319999998,204.76389319999998,204.76389319999998,204.76389319999998,0.005830500000229222,None,0,,,C:\2023\REPSWITCH12092023\REPSWITCH_excgange\REPSWITCH_excgange\data/231845_REPSWITCH1_version1_list1_2023-09-15_12h32.21.379_micRespv1l1_recorded\recording_micRespv1l1_2023-09-15_12h35.44.777.wav,207.7845997999998,None,,,,,,,,,,231845,001,2023-09-15_12h32.21.379,REPSWITCH1_version1_list1,2022.2.4,355.8123730212573,
REPSWITCH1/PICTURE_552.png,manzana,speak,gold,repeat,2,T,2,1,1,1,Stim6_Set2,0,None,44,43,44,0,43,43,43,,,,,,,,,,,,,,,,,,,,,,,,208.28422899999987,209.35333119999996,209.35333119999996,209.35333119999996,209.35333119999996,209.35333119999996,209.35333119999996,209.35333119999996,0.0016165000001819863,None,0,,,C:\2023\REPSWITCH12092023\REPSWITCH_excgange\REPSWITCH_excgange\data/231845_REPSWITCH1_version1_list1_2023-09-15_12h32.21.379_micRespv1l1_recorded\recording_micRespv1l1_2023-09-15_12h35.49.371.wav,212.37740269999995,None,212.877203,212.37740269999995,212.37740269999995,212.37740269999995,212.37740269999995,212.37740269999995,212.37740269999995,,,231845,001,2023-09-15_12h32.21.379,REPSWITCH1_version1_list1,2022.2.4,355.8123730212573,
REPSWITCH1/PICTURE_16.png,cazador,type,darkblue,filler,1,F,2,1,1,1,Stim6_Set1,0,None,45,44,45,0,44,44,44,,,,,,,,,,,,,,,,,,,,,,,,212.877203,213.99735310000005,213.99735310000005,213.99735310000005,213.99735310000005,213.99735310000005,213.99735310000005,213.99735310000005,0.0015543999998044455,None,0,,,C:\2023\REPSWITCH12092023\REPSWITCH_excgange\REPSWITCH_excgange\data/231845_REPSWITCH1_version1_list1_2023-09-15_12h32.21.379_micRespv1l1_recorded\recording_micRespv1l1_2023-09-15_12h35.54.009.wav,217.01496020000013,None,217.51461849999987,,,,,,,,,231845,001,2023-09-15_12h32.21.379,REPSWITCH1_version1_list1,2022.2.4,355.8123730212573,
REPSWITCH1/PICTURE_446.png,cerdo,speak,gold,nontarget,2,NT,2,1,1,1,Stim7_Set2,1,switch,46,45,46,0,45,45,45,,,,,,,,,,,,,,,,,,,,,,,,217.51461849999987,218.59016220000012,218.59016220000012,218.59016220000012,218.59016220000012,218.59016220000012,218.59016220000012,218.59016220000012,0.0055723000000398315,None,0,,,C:\2023\REPSWITCH12092023\REPSWITCH_excgange\REPSWITCH_excgange\data/231845_REPSWITCH1_version1_list1_2023-09-15_12h32.21.379_micRespv1l1_recorded\recording_micRespv1l1_2023-09-15_12h35.58.603.wav,221.61074580000013,None,,,,,,,,,,231845,001,2023-09-15_12h32.21.379,REPSWITCH1_version1_list1,2022.2.4,355.8123730212573,
REPSWITCH1/PICTURE_446.png,cerdo,speak,gold,repeat,2,T,2,1,1,1,Stim7_Set2,0,None,47,46,47,0,46,46,46,,,,,,,,,,,,,,,,,,,,,,,,222.11037570000008,223.1967381999998,223.1967381999998,223.1967381999998,223.1967381999998,223.1967381999998,223.1967381999998,223.1967381999998,0.0015069000000949018,None,0,,,C:\2023\REPSWITCH12092023\REPSWITCH_excgange\REPSWITCH_excgange\data/231845_REPSWITCH1_version1_list1_2023-09-15_12h32.21.379_micRespv1l1_recorded\recording_micRespv1l1_2023-09-15_12h36.03.211.wav,226.21740929999987,None,226.7172458,,,,,,,,,231845,001,2023-09-15_12h32.21.379,REPSWITCH1_version1_list1,2022.2.4,355.8123730212573,
REPSWITCH1/PICTURE_590.png,escoba,type,darkblue,filler,1,F,2,1,1,1,Extra3,0,None,48,47,48,0,47,47,47,,,,,,,,,,,,,,,,,,,,,,,,226.7172458,227.7649035999998,227.7649035999998,227.7649035999998,227.7649035999998,227.7649035999998,227.7649035999998,227.7649035999998,0.004076499999882799,None,0,,,C:\2023\REPSWITCH12092023\REPSWITCH_excgange\REPSWITCH_excgange\data/231845_REPSWITCH1_version1_list1_2023-09-15_12h32.21.379_micRespv1l1_recorded\recording_micRespv1l1_2023-09-15_12h36.07.779.wav,230.7881695000001,None,231.28799729999992,,,,,,,,,231845,001,2023-09-15_12h32.21.379,REPSWITCH1_version1_list1,2022.2.4,355.8123730212573,
REPSWITCH1/PICTURE_169.png,espalda,speak,gold,filler,2,F,2,1,1,1,Stim8_Set1,0,None,49,48,49,0,48,48,48,,,,,,,,,,,,,,,,,,,,,,,,231.28799729999992,232.38263400000005,232.38263400000005,232.38263400000005,232.38263400000005,232.38263400000005,232.38263400000005,232.38263400000005,0.0013536999999814725,None,0,,,C:\2023\REPSWITCH12092023\REPSWITCH_excgange\REPSWITCH_excgange\data/231845_REPSWITCH1_version1_list1_2023-09-15_12h32.21.379_micRespv1l1_recorded\recording_micRespv1l1_2023-09-15_12h36.12.394.wav,235.40079560000004,None,235.9004301,,,,,,,,,231845,001,2023-09-15_12h32.21.379,REPSWITCH1_version1_list1,2022.2.4,355.8123730212573,
REPSWITCH1/PICTURE_199.png,falda,speak,gold,nontarget,2,NT,2,1,1,1,Stim8_Set2,1,repeat,50,49,50,0,49,49,49,,,,,,,,,,,,,,,,,,,,,,,,235.9004301,236.97319900000002,236.97319900000002,236.97319900000002,236.97319900000002,236.97319900000002,236.97319900000002,236.97319900000002,0.004944199999954435,None,0,,,C:\2023\REPSWITCH12092023\REPSWITCH_excgange\REPSWITCH_excgange\data/231845_REPSWITCH1_version1_list1_2023-09-15_12h32.21.379_micRespv1l1_recorded\recording_micRespv1l1_2023-09-15_12h36.16.985.wav,239.99079200000006,None,240.4906191,,,,,,,,,231845,001,2023-09-15_12h32.21.379,REPSWITCH1_version1_list1,2022.2.4,355.8123730212573,
,,,,,,,,,,,,,,,,,,,,,,,,,,,,,,,,,,,,,,,,,,,,240.4906191,241.5521020000001,241.5521020000001,241.5521020000001,241.5521020000001,241.5521020000001,241.5521020000001,241.5521020000001,0.00148250000029293,None,0,,,C:\2023\REPSWITCH12092023\REPSWITCH_excgange\REPSWITCH_excgange\data/231845_REPSWITCH1_version1_list1_2023-09-15_12h32.21.379_micRespv1l1_recorded\recording_micRespv1l1_2023-09-15_12h36.21.565.wav,244.56988150000006,,245.07250139999996,,,,,,,245.07250139999996,245.07250139999996,,,,,,,
