image,correctAns,famTrials.thisRepN,famTrials.thisTrialN,famTrials.thisN,famTrials.thisIndex,textWelcomeFam.started,textBlank500.started,textboxInstrFam.started,keyInstrFam.started,keyInstrFam.keys,keyInstrFam.rt,textBlank500.stopped,fixationITI.started,fixationITI.stopped,polygonWhiteFam.started,imageFam.started,micFam.started,textFam.started,textFam.stopped,micFam.clip,textboxEndFam.started,keyEndFam.started,keyEndFam.keys,keyEndFam.rt,participant,session,date,expName,psychopyVersion,frameRate,
,,,,,,16.80556899961084,18.791996699757874,19.298917000181973,19.298917000181973,space,1.9374229004606605,,,,,,,,,,,,,,35,001,2023-06-29_14h50.54.011,Fam,2022.2.4,143.63729865860404,
REPSWITCH1_Fam/PICTURE_235.png,aguja,0,0,0,10,,29.01538740005344,,,,,21.75683659967035,21.75683659967035,22.99429429974407,22.99429429974407,22.99429429974407,0.006690099835395813,26.47265370003879,28.97386569995433,C:\Users\Experimental User\Desktop\experiment\data/35_Fam_2023-06-29_14h50.54.011_micFam_recorded\recording_micFam_2023-06-29_14h51.08.089.wav,,,,,35,001,2023-06-29_14h50.54.011,Fam,2022.2.4,143.63729865860404,
REPSWITCH1_Fam/PICTURE_381.png,fresa,0,1,1,19,,36.564903900027275,,,,,,29.48063430003822,30.54361109994352,30.54361109994352,30.54361109994352,0.0016371998935937881,34.029178999364376,36.530465699732304,C:\Users\Experimental User\Desktop\experiment\data/35_Fam_2023-06-29_14h50.54.011_micFam_recorded\recording_micFam_2023-06-29_14h51.15.640.wav,,,,,35,001,2023-06-29_14h50.54.011,Fam,2022.2.4,143.63729865860404,
REPSWITCH1_Fam/PICTURE_48.png,bombero,0,2,2,22,,44.134417300112545,,,,,,37.03706720005721,38.10690530017018,38.10690530017018,38.10690530017018,0.0013054003939032555,41.59266889933497,44.09273299947381,C:\Users\Experimental User\Desktop\experiment\data/35_Fam_2023-06-29_14h50.54.011_micFam_recorded\recording_micFam_2023-06-29_14h51.23.212.wav,,,,,35,001,2023-06-29_14h50.54.011,Fam,2022.2.4,143.63729865860404,
REPSWITCH1_Fam/PICTURE_128.png,muñeca,0,3,3,0,,51.70474089961499,,,,,,44.600072199478745,45.6773528996855,45.6773528996855,45.6773528996855,0.0012215999886393547,49.16293499991298,51.66310639958829,C:\Users\Experimental User\Desktop\experiment\data/35_Fam_2023-06-29_14h50.54.011_micFam_recorded\recording_micFam_2023-06-29_14h51.30.782.wav,,,,,35,001,2023-06-29_14h50.54.011,Fam,2022.2.4,143.63729865860404,
REPSWITCH1_Fam/PICTURE_169.png,espalda,0,4,4,5,,59.26132079958916,,,,,,52.177044299431145,53.233633699826896,53.233633699826896,53.233633699826896,0.0011211000382900238,56.71986569929868,59.219523100182414,C:\Users\Experimental User\Desktop\experiment\data/35_Fam_2023-06-29_14h50.54.011_micFam_recorded\recording_micFam_2023-06-29_14h51.38.338.wav,,,,,35,001,2023-06-29_14h50.54.011,Fam,2022.2.4,143.63729865860404,
REPSWITCH1_Fam/PICTURE_152.png,caracol,0,5,5,3,,66.83150650002062,,,,,,59.72714590001851,60.80409900005907,60.80409900005907,60.80409900005907,0.0013830997049808502,64.28956819977611,66.78980659972876,C:\Users\Experimental User\Desktop\experiment\data/35_Fam_2023-06-29_14h50.54.011_micFam_recorded\recording_micFam_2023-06-29_14h51.45.910.wav,,,,,35,001,2023-06-29_14h50.54.011,Fam,2022.2.4,143.63729865860404,
REPSWITCH1_Fam/PICTURE_16.png,cazador,0,6,6,4,,74.50599539931864,,,,,,67.30375889968127,68.47847360000014,68.47847360000014,68.47847360000014,0.0014205006882548332,71.96400559972972,74.46433139964938,C:\Users\Experimental User\Desktop\experiment\data/35_Fam_2023-06-29_14h50.54.011_micFam_recorded\recording_micFam_2023-06-29_14h51.53.584.wav,,,,,35,001,2023-06-29_14h50.54.011,Fam,2022.2.4,143.63729865860404,
REPSWITCH1_Practice/PICTURE_12.png,sirena,0,7,7,38,,82.15977529995143,,,,,,74.97828179970384,76.13225609995425,76.13225609995425,76.13225609995425,0.0013250000774860382,79.61765890009701,82.11799110006541,C:\Users\Experimental User\Desktop\experiment\data/35_Fam_2023-06-29_14h50.54.011_micFam_recorded\recording_micFam_2023-06-29_14h52.01.237.wav,,,,,35,001,2023-06-29_14h50.54.011,Fam,2022.2.4,143.63729865860404,
REPSWITCH1_Practice/PICTURE_570.png,toro,0,8,8,34,,89.73076630011201,,,,,,82.62514179944992,83.70951979979873,83.70951979979873,83.70951979979873,0.0013912003487348557,87.19558290019631,89.69591399934143,C:\Users\Experimental User\Desktop\experiment\data/35_Fam_2023-06-29_14h50.54.011_micFam_recorded\recording_micFam_2023-06-29_14h52.08.805.wav,,,,,35,001,2023-06-29_14h50.54.011,Fam,2022.2.4,143.63729865860404,
REPSWITCH1_Fam/PICTURE_8.png,pierna,0,9,9,31,,97.32881549932063,,,,,,90.20292039960623,91.30759659968317,91.30759659968317,91.30759659968317,0.0010492000728845596,94.79291579965502,97.29399819951504,C:\Users\Experimental User\Desktop\experiment\data/35_Fam_2023-06-29_14h50.54.011_micFam_recorded\recording_micFam_2023-06-29_14h52.16.403.wav,,,,,35,001,2023-06-29_14h50.54.011,Fam,2022.2.4,143.63729865860404,
REPSWITCH1_Fam/PICTURE_199.png,falda,0,10,10,9,,105.04515209980309,,,,,,97.80101339984685,99.02362779993564,99.02362779993564,99.02362779993564,0.0012681996449828148,102.50984909944236,105.01016059983522,C:\Users\Experimental User\Desktop\experiment\data/35_Fam_2023-06-29_14h50.54.011_micFam_recorded\recording_micFam_2023-06-29_14h52.24.119.wav,,,,,35,001,2023-06-29_14h50.54.011,Fam,2022.2.4,143.63729865860404,
REPSWITCH1_Fam/PICTURE_35.png,oreja,0,11,11,18,,112.55899139959365,,,,,,105.51719069946557,106.53171109966934,106.53171109966934,106.53171109966934,0.0011793999001383781,110.01703889947385,112.51730659976602,C:\Users\Experimental User\Desktop\experiment\data/35_Fam_2023-06-29_14h50.54.011_micFam_recorded\recording_micFam_2023-06-29_14h52.31.637.wav,,,,,35,001,2023-06-29_14h50.54.011,Fam,2022.2.4,143.63729865860404,
REPSWITCH1_Fam/PICTURE_264.png,mano,0,12,12,12,,120.2334845000878,,,,,,113.03126829955727,114.20595249999315,114.20595249999315,114.20595249999315,0.0012343991547822952,117.69150329940021,120.19181439932436,C:\Users\Experimental User\Desktop\experiment\data/35_Fam_2023-06-29_14h50.54.011_micFam_recorded\recording_micFam_2023-06-29_14h52.39.311.wav,,,,,35,001,2023-06-29_14h50.54.011,Fam,2022.2.4,143.63729865860404,
REPSWITCH1_Practice/PICTURE_614.png,reina,0,13,13,36,,127.8385704997927,,,,,,120.69898299966007,121.81099339947104,121.81099339947104,121.81099339947104,0.0012920992448925972,125.29655209928751,127.79687150008976,C:\Users\Experimental User\Desktop\experiment\data/35_Fam_2023-06-29_14h50.54.011_micFam_recorded\recording_micFam_2023-06-29_14h52.46.916.wav,,,,,35,001,2023-06-29_14h50.54.011,Fam,2022.2.4,143.63729865860404,
REPSWITCH1_Practice/PICTURE_733.png,gafas,0,14,14,35,,135.40958199929446,,,,,,128.30453069973737,129.38850909937173,129.38850909937173,129.38850909937173,0.0011161994189023972,132.87384440004826,135.37477790005505,C:\Users\Experimental User\Desktop\experiment\data/35_Fam_2023-06-29_14h50.54.011_micFam_recorded\recording_micFam_2023-06-29_14h52.54.484.wav,,,,,35,001,2023-06-29_14h50.54.011,Fam,2022.2.4,143.63729865860404,
REPSWITCH1_Fam/PICTURE_175.png,pintor,0,15,15,6,,142.93133839964867,,,,,,135.88179359957576,136.9099360993132,136.9099360993132,136.9099360993132,0.0012674005702137947,140.39572540018708,142.89648799970746,C:\Users\Experimental User\Desktop\experiment\data/35_Fam_2023-06-29_14h50.54.011_micFam_recorded\recording_micFam_2023-06-29_14h53.02.005.wav,,,,,35,001,2023-06-29_14h50.54.011,Fam,2022.2.4,143.63729865860404,
REPSWITCH1_Fam/PICTURE_242.png,cartero,0,16,16,11,,150.5989971999079,,,,,,143.40349269937724,144.57749059982598,144.57749059982598,144.57749059982598,0.0012483997270464897,148.06380569934845,150.56403850018978,C:\Users\Experimental User\Desktop\experiment\data/35_Fam_2023-06-29_14h50.54.011_micFam_recorded\recording_micFam_2023-06-29_14h53.09.673.wav,,,,,35,001,2023-06-29_14h50.54.011,Fam,2022.2.4,143.63729865860404,
REPSWITCH1_Fam/PICTURE_517.png,cuerda,0,17,17,24,,158.1135992994532,,,,,,151.07103259954602,152.09226300008595,152.09226300008595,152.09226300008595,0.0012786993756890297,155.57822179980576,158.07879280019552,C:\Users\Experimental User\Desktop\experiment\data/35_Fam_2023-06-29_14h50.54.011_micFam_recorded\recording_micFam_2023-06-29_14h53.17.188.wav,,,,,35,001,2023-06-29_14h50.54.011,Fam,2022.2.4,143.63729865860404,
REPSWITCH1_Fam/PICTURE_135.png,traje,0,18,18,1,,165.69007299933583,,,,,,158.5857954993844,159.66256689932197,159.66256689932197,159.66256689932197,0.0010943999513983727,163.1489172000438,165.6483990000561,C:\Users\Experimental User\Desktop\experiment\data/35_Fam_2023-06-29_14h50.54.011_micFam_recorded\recording_micFam_2023-06-29_14h53.24.768.wav,,,,,35,001,2023-06-29_14h50.54.011,Fam,2022.2.4,143.63729865860404,
REPSWITCH1_Fam/PICTURE_30.png,granja,0,19,19,14,,173.30287379957736,,,,,,166.16236949991435,167.2814547996968,167.2814547996968,167.2814547996968,0.0017842995002865791,170.76708649937063,173.26803969964385,C:\Users\Experimental User\Desktop\experiment\data/35_Fam_2023-06-29_14h50.54.011_micFam_recorded\recording_micFam_2023-06-29_14h53.32.377.wav,,,,,35,001,2023-06-29_14h50.54.011,Fam,2022.2.4,143.63729865860404,
REPSWITCH1_Fam/PICTURE_576.png,guante,0,20,20,26,,180.89403049927205,,,,,,173.775028700009,174.87263800017536,174.87263800017536,174.87263800017536,0.0012178998440504074,178.3586269998923,180.85941919963807,C:\Users\Experimental User\Desktop\experiment\data/35_Fam_2023-06-29_14h50.54.011_micFam_recorded\recording_micFam_2023-06-29_14h53.39.968.wav,,,,,35,001,2023-06-29_14h50.54.011,Fam,2022.2.4,143.63729865860404,
REPSWITCH1_Fam/PICTURE_19.png,pavo,0,21,21,8,,188.45657859928906,,,,,,181.36629940010607,182.4292383994907,182.4292383994907,182.4292383994907,0.0015663998201489449,185.91462469939142,188.41493319999427,C:\Users\Experimental User\Desktop\experiment\data/35_Fam_2023-06-29_14h50.54.011_micFam_recorded\recording_micFam_2023-06-29_14h53.47.535.wav,,,,,35,001,2023-06-29_14h50.54.011,Fam,2022.2.4,143.63729865860404,
REPSWITCH1_Fam/PICTURE_446.png,cerdo,0,22,22,20,,196.1102876001969,,,,,,188.92888539936393,190.08211229927838,190.08211229927838,190.08211229927838,0.0012248000130057335,193.57613579928875,196.0755249997601,C:\Users\Experimental User\Desktop\experiment\data/35_Fam_2023-06-29_14h50.54.011_micFam_recorded\recording_micFam_2023-06-29_14h53.55.185.wav,,,,,35,001,2023-06-29_14h50.54.011,Fam,2022.2.4,143.63729865860404,
REPSWITCH1_Fam/PICTURE_687.png,camisa,0,23,23,28,,203.74388229940087,,,,,,196.58333679940552,197.72261520009488,197.72261520009488,197.72261520009488,0.0010930001735687256,201.20855069998652,203.7090178001672,C:\Users\Experimental User\Desktop\experiment\data/35_Fam_2023-06-29_14h50.54.011_micFam_recorded\recording_micFam_2023-06-29_14h54.02.818.wav,,,,,35,001,2023-06-29_14h50.54.011,Fam,2022.2.4,143.63729865860404,
REPSWITCH1_Practice/PICTURE_110.png,mesa,0,24,24,37,,211.27265259996057,,,,,,204.21602709963918,205.24433019943535,205.24433019943535,205.24433019943535,0.0011420007795095444,208.7306270999834,211.23005279991776,C:\Users\Experimental User\Desktop\experiment\data/35_Fam_2023-06-29_14h50.54.011_micFam_recorded\recording_micFam_2023-06-29_14h54.10.349.wav,,,,,35,001,2023-06-29_14h50.54.011,Fam,2022.2.4,143.63729865860404,
REPSWITCH1_Practice/PICTURE_599.png,nube,0,25,25,33,,218.8220170000568,,,,,,211.73774399980903,212.80063099972904,212.80063099972904,212.80063099972904,0.0010680994018912315,216.28684510011226,218.7871607998386,C:\Users\Experimental User\Desktop\experiment\data/35_Fam_2023-06-29_14h50.54.011_micFam_recorded\recording_micFam_2023-06-29_14h54.17.896.wav,,,,,35,001,2023-06-29_14h50.54.011,Fam,2022.2.4,143.63729865860404,
REPSWITCH1_Fam/PICTURE_320.png,iglesia,0,26,26,16,,226.40555729996413,,,,,,219.29413359984756,220.37802359927446,220.37802359927446,220.37802359927446,0.001332099549472332,223.8643426001072,226.36374779976904,C:\Users\Experimental User\Desktop\experiment\data/35_Fam_2023-06-29_14h50.54.011_micFam_recorded\recording_micFam_2023-06-29_14h54.25.483.wav,,,,,35,001,2023-06-29_14h50.54.011,Fam,2022.2.4,143.63729865860404,
REPSWITCH1_Fam/PICTURE_338.png,regalo,0,27,27,17,,234.01125049963593,,,,,,226.87141449935734,227.98986679967493,227.98986679967493,227.98986679967493,0.00124409981071949,231.47606590017676,233.97640969976783,C:\Users\Experimental User\Desktop\experiment\data/35_Fam_2023-06-29_14h50.54.011_micFam_recorded\recording_micFam_2023-06-29_14h54.33.085.wav,,,,,35,001,2023-06-29_14h50.54.011,Fam,2022.2.4,143.63729865860404,
REPSWITCH1_Fam/PICTURE_728.png,pulpo,0,28,28,30,,241.56686489935964,,,,,,234.48341749981046,235.53959799930453,235.53959799930453,235.53959799930453,0.0011717993766069412,239.0249330997467,241.52520439960063,C:\Users\Experimental User\Desktop\experiment\data/35_Fam_2023-06-29_14h50.54.011_micFam_recorded\recording_micFam_2023-06-29_14h54.40.645.wav,,,,,35,001,2023-06-29_14h50.54.011,Fam,2022.2.4,143.63729865860404,
REPSWITCH1_Fam/PICTURE_178.png,puente,0,29,29,7,,249.0893652997911,,,,,,242.03917399980128,243.0679561998695,243.0679561998695,243.0679561998695,0.0011421004310250282,246.55355540011078,249.05452769994736,C:\Users\Experimental User\Desktop\experiment\data/35_Fam_2023-06-29_14h50.54.011_micFam_recorded\recording_micFam_2023-06-29_14h54.48.164.wav,,,,,35,001,2023-06-29_14h50.54.011,Fam,2022.2.4,143.63729865860404,
REPSWITCH1_Fam/PICTURE_610.png,miel,0,30,30,27,,256.6527536995709,,,,,,249.56152069941163,250.63134989980608,250.63134989980608,250.63134989980608,0.001189899630844593,254.11756769940257,256.6179895000532,C:\Users\Experimental User\Desktop\experiment\data/35_Fam_2023-06-29_14h50.54.011_micFam_recorded\recording_micFam_2023-06-29_14h54.55.727.wav,,,,,35,001,2023-06-29_14h50.54.011,Fam,2022.2.4,143.63729865860404,
REPSWITCH1_Fam/PICTURE_552.png,manzana,0,31,31,25,,264.3064065994695,,,,,,257.1249025994912,258.2851342000067,258.2851342000067,258.2851342000067,0.0013039996847510338,261.7712252000347,264.2715507000685,C:\Users\Experimental User\Desktop\experiment\data/35_Fam_2023-06-29_14h50.54.011_micFam_recorded\recording_micFam_2023-06-29_14h55.03.381.wav,,,,,35,001,2023-06-29_14h50.54.011,Fam,2022.2.4,143.63729865860404,
REPSWITCH1_Fam/PICTURE_498.png,taza,0,32,32,23,,271.83506269939244,,,,,,264.7785613993183,265.81379099935293,265.81379099935293,265.81379099935293,0.0010623997077345848,269.2998741995543,271.80020650010556,C:\Users\Experimental User\Desktop\experiment\data/35_Fam_2023-06-29_14h50.54.011_micFam_recorded\recording_micFam_2023-06-29_14h55.10.909.wav,,,,,35,001,2023-06-29_14h50.54.011,Fam,2022.2.4,143.63729865860404,
REPSWITCH1_Practice/PICTURE_612.png,rana,0,33,33,32,,279.5026104999706,,,,,,272.3073598993942,273.48123279958963,273.48123279958963,273.48123279958963,0.001363600604236126,276.96753130014986,279.46787020005286,C:\Users\Experimental User\Desktop\experiment\data/35_Fam_2023-06-29_14h50.54.011_micFam_recorded\recording_micFam_2023-06-29_14h55.18.576.wav,,,,,35,001,2023-06-29_14h50.54.011,Fam,2022.2.4,143.63729865860404,
REPSWITCH1_Fam/PICTURE_319.png,vaca,0,34,34,15,,287.05209570005536,,,,,,279.9747617999092,281.030691199936,281.030691199936,281.030691199936,0.0010891994461417198,284.5168910995126,287.01684999931604,C:\Users\Experimental User\Desktop\experiment\data/35_Fam_2023-06-29_14h50.54.011_micFam_recorded\recording_micFam_2023-06-29_14h55.26.126.wav,,,,,35,001,2023-06-29_14h50.54.011,Fam,2022.2.4,143.63729865860404,
REPSWITCH1_Fam/PICTURE_719.png,baño,0,35,35,29,,294.6085157999769,,,,,,287.5242206994444,288.58712669927627,288.58712669927627,288.58712669927627,0.0013649007305502892,292.07334189955145,294.5736333001405,C:\Users\Experimental User\Desktop\experiment\data/35_Fam_2023-06-29_14h50.54.011_micFam_recorded\recording_micFam_2023-06-29_14h55.33.682.wav,,,,,35,001,2023-06-29_14h50.54.011,Fam,2022.2.4,143.63729865860404,
REPSWITCH1_Fam/PICTURE_142.png,vaso,0,36,36,2,,302.19188609998673,,,,,,295.08082849998027,296.1645844997838,296.1645844997838,296.1645844997838,0.0010588997974991798,299.6499644992873,302.15023789927363,C:\Users\Experimental User\Desktop\experiment\data/35_Fam_2023-06-29_14h50.54.011_micFam_recorded\recording_micFam_2023-06-29_14h55.41.270.wav,,,,,35,001,2023-06-29_14h50.54.011,Fam,2022.2.4,143.63729865860404,
REPSWITCH1_Fam/PICTURE_464.png,goma,0,37,37,21,,309.7484638998285,,,,,,302.6641862997785,303.7210697000846,303.7210697000846,303.7210697000846,0.0010714996606111526,307.20636169984937,309.706682799384,C:\Users\Experimental User\Desktop\experiment\data/35_Fam_2023-06-29_14h50.54.011_micFam_recorded\recording_micFam_2023-06-29_14h55.48.826.wav,,,,,35,001,2023-06-29_14h50.54.011,Fam,2022.2.4,143.63729865860404,
REPSWITCH1_Fam/PICTURE_271.png,conejo,0,38,38,13,,317.42386760003865,,,,,,310.22060979995877,311.40224489942193,311.40224489942193,311.40224489942193,0.0014217998832464218,314.8888155994937,317.3887712992728,C:\Users\Experimental User\Desktop\experiment\data/35_Fam_2023-06-29_14h50.54.011_micFam_recorded\recording_micFam_2023-06-29_14h55.56.497.wav,,,,,35,001,2023-06-29_14h50.54.011,Fam,2022.2.4,143.63729865860404,
,,,,,,,317.89577540010214,,,,,,,,,,,,,,318.39544409979135,318.39544409979135,space,1.9774855002760887,35,001,2023-06-29_14h50.54.011,Fam,2022.2.4,143.63729865860404,
