image,correctAns,respModal,frameColour,repSwitch,sequence,target,set,stimulus,trialsREPSWITCH.thisRepN,trialsREPSWITCH.thisTrialN,trialsREPSWITCH.thisN,trialsREPSWITCH.thisIndex,textWelcome.started,textBlank500.started,textInstrMain.started,keyInstrMain.started,keyInstrMain.keys,keyInstrMain.rt,textBlank500.stopped,fixationITI.started,fixationITI.stopped,polygonColour.started,polygonWhite.started,imageObject.started,polygonType.started,textInput.started,keyResp.started,micResp.started,micResp.stopped,keyResp.keys,keyResp.corr,subjResponse,micResp.clip,polygonColour.stopped,polygonWhite.stopped,imageObject.stopped,polygonType.stopped,textInput.stopped,keyResp.stopped,keyResp.rt,textDebrief.started,textGoodbye.started,participant,session,date,expName,psychopyVersion,frameRate,
,,,,,,,,,,,,,12.311362200009171,14.32533289998537,14.825418599997647,14.825418599997647,space,3.046172700007446,,,,,,,,,,,,,,,,,,,,,,,,,3,001,2023-06-12_10h50.42.296,REPSWITCH_1,2022.2.5,59.983720426992804,
REPSWITCH1/PICTURE_128.png,muñeca,speak,yellow,nontarget,2,NT,1,Stim1_Set1,0,0,0,0,,22.640053599956445,,,,,23.139641899964772,18.455956299963873,19.673530799977016,19.673530799977016,19.673530799977016,19.673530799977016,19.673530799977016,19.673530799977016,19.673530799977016,0.0043071000254713,2.03397520002909,None,0,,D:\GitHub\experiment1\data/3_REPSWITCH_1_2023-06-12_10h50.42.296_micResp_recorded\recording_micResp_2023-06-12_10h50.57.861.wav,,,,,,,,,,3,001,2023-06-12_10h50.42.296,REPSWITCH_1,2022.2.5,59.983720426992804,
REPSWITCH1/PICTURE_128.png,muñeca,speak,yellow,repeat,2,T,1,Stim1_Set1,0,1,1,1,,27.338478399964515,,,,,27.83831729996018,23.139641899964772,24.34038229996804,24.34038229996804,24.34038229996804,24.34038229996804,24.34038229996804,24.34038229996804,24.34038229996804,0.0027341999812051654,1.9997492000111379,None,0,,D:\GitHub\experiment1\data/3_REPSWITCH_1_2023-06-12_10h50.42.296_micResp_recorded\recording_micResp_2023-06-12_10h51.02.560.wav,27.338478399964515,27.338478399964515,27.338478399964515,27.338478399964515,27.338478399964515,27.338478399964515,,,,3,001,2023-06-12_10h50.42.296,REPSWITCH_1,2022.2.5,59.983720426992804,
REPSWITCH1/PICTURE_135.png,traje,type,blue,filler,1,F,1,Stim1_Set4,0,2,2,2,,31.95449739997275,,,,,,27.83831729996018,28.954475399979856,28.954475399979856,28.954475399979856,28.954475399979856,28.954475399979856,28.954475399979856,28.954475399979856,0.015344200015533715,2.017378800024744,"['t', 'r', 'a', 'j', 'e']",0,traje,D:\GitHub\experiment1\data/3_REPSWITCH_1_2023-06-12_10h50.42.296_micResp_recorded\recording_micResp_2023-06-12_10h51.07.175.wav,,,,,,,"[0.9410681000445038, 1.03549690003274, 1.2560385000542738, 1.4005664000287652, 1.575645400036592]",,,3,001,2023-06-12_10h50.42.296,REPSWITCH_1,2022.2.5,59.983720426992804,
REPSWITCH1/PICTURE_142.png,vaso,speak,yellow,nontarget,2,NT,1,Stim2_Set1,0,3,3,3,,36.51964740001131,,,,,,32.453773999994155,33.504862800007686,33.504862800007686,33.504862800007686,33.504862800007686,33.504862800007686,33.504862800007686,33.504862800007686,0.006452100002206862,2.0003375000087544,None,0,,D:\GitHub\experiment1\data/3_REPSWITCH_1_2023-06-12_10h50.42.296_micResp_recorded\recording_micResp_2023-06-12_10h51.11.741.wav,,,,,,,,,,3,001,2023-06-12_10h50.42.296,REPSWITCH_1,2022.2.5,59.983720426992804,
REPSWITCH1/PICTURE_142.png,vaso,speak,yellow,repeat,2,T,1,Stim2_Set1,0,4,4,4,,41.06713189999573,,,,,,37.01965949998703,38.03747039998416,38.03747039998416,38.03747039998416,38.03747039998416,38.03747039998416,38.03747039998416,38.03747039998416,0.0023236999986693263,2.0002767000114545,None,0,,D:\GitHub\experiment1\data/3_REPSWITCH_1_2023-06-12_10h50.42.296_micResp_recorded\recording_micResp_2023-06-12_10h51.16.272.wav,,,,,,,,,,3,001,2023-06-12_10h50.42.296,REPSWITCH_1,2022.2.5,59.983720426992804,
REPSWITCH1/PICTURE_464.png,goma,type,blue,filler,1,F,1,Stim2_Set4,0,5,5,5,,45.76768299995456,,,,,,41.55212119995849,42.76800749998074,42.76800749998074,42.76800749998074,42.76800749998074,42.76800749998074,42.76800749998074,42.76800749998074,0.007399699999950826,2.016351800004486,"['g', 'o', 'm', 'a']",0,goma,D:\GitHub\experiment1\data/3_REPSWITCH_1_2023-06-12_10h50.42.296_micResp_recorded\recording_micResp_2023-06-12_10h51.20.989.wav,,,,,,,"[0.9344444000162184, 1.2577421000460163, 1.4504528000252321, 1.5568953000474721]",,,3,001,2023-06-12_10h50.42.296,REPSWITCH_1,2022.2.5,59.983720426992804,
REPSWITCH1/PICTURE_152.png,caracol,speak,yellow,nontarget,2,NT,1,Stim3_Set1,0,6,6,6,,50.44927260000259,,,,,,46.26719280000543,47.450149499985855,47.450149499985855,47.450149499985855,47.450149499985855,47.450149499985855,47.450149499985855,47.450149499985855,0.007134700019378215,2.0164202000014484,None,0,,D:\GitHub\experiment1\data/3_REPSWITCH_1_2023-06-12_10h50.42.296_micResp_recorded\recording_micResp_2023-06-12_10h51.25.671.wav,,,,,,,,,,3,001,2023-06-12_10h50.42.296,REPSWITCH_1,2022.2.5,59.983720426992804,
REPSWITCH1/PICTURE_152.png,caracol,type,blue,switch,1,T,1,Stim3_Set1,0,7,7,7,,55.14844359998824,,,,,,50.949769800005015,52.13415160001023,52.13415160001023,52.13415160001023,52.13415160001023,52.13415160001023,52.13415160001023,52.13415160001023,0.003581999975722283,1.999367899959907,"['s', 'a', 'l', 'i', 'g', 'k', 'a', 'r', 'i']",0,saligkai,D:\GitHub\experiment1\data/3_REPSWITCH_1_2023-06-12_10h50.42.296_micResp_recorded\recording_micResp_2023-06-12_10h51.30.370.wav,,,,,,,"[0.9673875000444241, 1.0838454000186175, 1.177007800026331, 1.3641981999971904, 1.574105400010012, 1.67701240000315, 1.743763400008902, 1.9015156000386924, 1.91385780001292]",,,3,001,2023-06-12_10h50.42.296,REPSWITCH_1,2022.2.5,59.983720426992804,
REPSWITCH1/PICTURE_19.png,pavo,type,blue,nontarget,1,NT,1,Stim4_Set1,0,8,8,8,,59.880544299958274,,,,,,55.6481158999959,56.88166929996805,56.88166929996805,56.88166929996805,56.88166929996805,56.88166929996805,56.88166929996805,56.88166929996805,0.0073364999843761325,2.016015100001823,"['p', 'a', 'v', 'o']",0,pavo,D:\GitHub\experiment1\data/3_REPSWITCH_1_2023-06-12_10h50.42.296_micResp_recorded\recording_micResp_2023-06-12_10h51.35.102.wav,,,,,,,"[1.3988483999855816, 1.4756538999499753, 1.6759628999861889, 1.7155338999582455]",,,3,001,2023-06-12_10h50.42.296,REPSWITCH_1,2022.2.5,59.983720426992804,
REPSWITCH1/PICTURE_19.png,pavo,speak,yellow,switch,2,T,1,Stim4_Set1,0,9,9,9,,64.47959349997109,,,,,64.97978339996189,60.38087029999588,61.48131760000251,61.48131760000251,61.48131760000251,61.48131760000251,61.48131760000251,61.48131760000251,61.48131760000251,0.002893199969548732,2.0000625000102445,None,0,,D:\GitHub\experiment1\data/3_REPSWITCH_1_2023-06-12_10h50.42.296_micResp_recorded\recording_micResp_2023-06-12_10h51.39.701.wav,64.47959349997109,64.47959349997109,64.47959349997109,64.47959349997109,64.47959349997109,64.47959349997109,,,,3,001,2023-06-12_10h50.42.296,REPSWITCH_1,2022.2.5,59.983720426992804,
REPSWITCH1/PICTURE_381.png,fresa,speak,yellow,filler,2,F,1,Stim3_Set4,0,10,10,10,,69.1451914999634,,,,,,64.97978339996189,66.14565449999645,66.14565449999645,66.14565449999645,66.14565449999645,66.14565449999645,66.14565449999645,66.14565449999645,0.008536199980881065,2.015618200006429,None,0,,D:\GitHub\experiment1\data/3_REPSWITCH_1_2023-06-12_10h50.42.296_micResp_recorded\recording_micResp_2023-06-12_10h51.44.366.wav,,,,,,,,,,3,001,2023-06-12_10h50.42.296,REPSWITCH_1,2022.2.5,59.983720426992804,
REPSWITCH1/PICTURE_199.png,falda,speak,yellow,nontarget,2,NT,1,Stim5_Set1,0,11,11,11,,73.79419990000315,,,,,,69.64529229997424,70.79452489997493,70.79452489997493,70.79452489997493,70.79452489997493,70.79452489997493,70.79452489997493,70.79452489997493,0.007853600021917373,2.0167251999955624,None,0,,D:\GitHub\experiment1\data/3_REPSWITCH_1_2023-06-12_10h50.42.296_micResp_recorded\recording_micResp_2023-06-12_10h51.49.015.wav,,,,,,,,,,3,001,2023-06-12_10h50.42.296,REPSWITCH_1,2022.2.5,59.983720426992804,
REPSWITCH1/PICTURE_199.png,falda,type,blue,switch,1,T,1,Stim5_Set1,0,12,12,12,,78.44155250000767,,,,,,74.29422819998581,75.42785989999538,75.42785989999538,75.42785989999538,75.42785989999538,75.42785989999538,75.42785989999538,75.42785989999538,0.0025807999772951007,1.9992919999640435,"['f', 'a', 'l', 'd', 'a']",0,falda,D:\GitHub\experiment1\data/3_REPSWITCH_1_2023-06-12_10h50.42.296_micResp_recorded\recording_micResp_2023-06-12_10h51.53.648.wav,78.44155250000767,78.44155250000767,78.44155250000767,78.44155250000767,78.44155250000767,78.44155250000767,"[0.8558703000308014, 1.0240664000157267, 1.1368982000276446, 1.316376600007061, 1.6335515000391752]",,,3,001,2023-06-12_10h50.42.296,REPSWITCH_1,2022.2.5,59.983720426992804,
REPSWITCH1/PICTURE_546.png,puerta,speak,yellow,filler,2,F,1,Stim4_Set4,0,13,13,13,,83.05846349999774,,,,,83.5584516999661,78.94276720000198,80.07592460000888,80.07592460000888,80.07592460000888,80.07592460000888,80.07592460000888,80.07592460000888,80.07592460000888,0.015634800016414374,2.016851900028996,None,0,,D:\GitHub\experiment1\data/3_REPSWITCH_1_2023-06-12_10h50.42.296_micResp_recorded\recording_micResp_2023-06-12_10h51.58.280.wav,,,,,,,,,,3,001,2023-06-12_10h50.42.296,REPSWITCH_1,2022.2.5,59.983720426992804,
REPSWITCH1/PICTURE_235.png,aguja,type,blue,nontarget,1,NT,1,Stim6_Set1,0,14,14,14,,87.69100940000499,,,,,88.19072519999463,83.5584516999661,84.69250509998528,84.69250509998528,84.69250509998528,84.69250509998528,84.69250509998528,84.69250509998528,84.69250509998528,0.006706599961034954,1.9999088000040501,"['v', 'e', 'l', 'o', 'n', 'a']",0,velona,D:\GitHub\experiment1\data/3_REPSWITCH_1_2023-06-12_10h50.42.296_micResp_recorded\recording_micResp_2023-06-12_10h52.02.913.wav,87.69100940000499,87.69100940000499,87.69100940000499,87.69100940000499,87.69100940000499,87.69100940000499,"[1.5979897000361234, 1.7104171999963, 1.8830245000426657, 2.0474342000088654, 2.220299700042233, 2.319808500004001]",,,3,001,2023-06-12_10h50.42.296,REPSWITCH_1,2022.2.5,59.983720426992804,
REPSWITCH1/PICTURE_235.png,aguja,type,blue,repeat,1,T,1,Stim6_Set1,0,15,15,15,,92.40654289996019,,,,,92.90607560001081,88.19072519999463,89.40782299998682,89.40782299998682,89.40782299998682,89.40782299998682,89.40782299998682,89.40782299998682,89.40782299998682,0.002417699957732111,1.9993747000116855,"['v', 'e', 'l', 'o', 'n', 'a']",0,velona,D:\GitHub\experiment1\data/3_REPSWITCH_1_2023-06-12_10h50.42.296_micResp_recorded\recording_micResp_2023-06-12_10h52.07.628.wav,92.40654289996019,92.40654289996019,92.40654289996019,92.40654289996019,92.40654289996019,92.40654289996019,"[0.8936900999979116, 0.9985859000007622, 1.1639846000471152, 1.357994400023017, 1.5344154000049457, 1.616754500020761]",,,3,001,2023-06-12_10h50.42.296,REPSWITCH_1,2022.2.5,59.983720426992804,
REPSWITCH1/PICTURE_636.png,oveja,speak,yellow,filler,2,F,1,Stim5_Set4,0,16,16,16,,97.18866829999024,,,,,,92.90607560001081,94.18922519998159,94.18922519998159,94.18922519998159,94.18922519998159,94.18922519998159,94.18922519998159,94.18922519998159,0.007120400026906282,2.0166955000022426,None,0,,D:\GitHub\experiment1\data/3_REPSWITCH_1_2023-06-12_10h50.42.296_micResp_recorded\recording_micResp_2023-06-12_10h52.12.410.wav,,,,,,,,,,3,001,2023-06-12_10h50.42.296,REPSWITCH_1,2022.2.5,59.983720426992804,
REPSWITCH1/PICTURE_264.png,mano,type,blue,nontarget,1,NT,1,Stim7_Set1,0,17,17,17,,101.88757949997671,,,,,102.38749659998575,97.68857930001104,98.88924739998765,98.88924739998765,98.88924739998765,98.88924739998765,98.88924739998765,98.88924739998765,98.88924739998765,0.006835600011982024,1.9995021999930032,"['m', 'a', 'n', 'o']",0,mano,D:\GitHub\experiment1\data/3_REPSWITCH_1_2023-06-12_10h50.42.296_micResp_recorded\recording_micResp_2023-06-12_10h52.17.109.wav,101.88757949997671,101.88757949997671,101.88757949997671,101.88757949997671,101.88757949997671,101.88757949997671,"[0.9058053999906406, 1.0083328000037, 1.2047097999602556, 1.3507749999989755]",,,3,001,2023-06-12_10h50.42.296,REPSWITCH_1,2022.2.5,59.983720426992804,
REPSWITCH1/PICTURE_264.png,mano,type,blue,repeat,1,T,1,Stim7_Set1,0,18,18,18,,106.48644730000524,,,,,106.9862292999751,102.38749659998575,103.48770279996097,103.48770279996097,103.48770279996097,103.48770279996097,103.48770279996097,103.48770279996097,103.48770279996097,0.002512599981855601,1.9996140000293963,"['m', 'a', 'n', 'o']",0,mano,D:\GitHub\experiment1\data/3_REPSWITCH_1_2023-06-12_10h50.42.296_micResp_recorded\recording_micResp_2023-06-12_10h52.21.707.wav,106.48644730000524,106.48644730000524,106.48644730000524,106.48644730000524,106.48644730000524,106.48644730000524,"[0.6113355000270531, 0.7660551000153646, 0.895308900042437, 1.0631188999977894]",,,3,001,2023-06-12_10h50.42.296,REPSWITCH_1,2022.2.5,59.983720426992804,
REPSWITCH1/PICTURE_545.png,braga,speak,yellow,filler,2,F,1,Stim6_Set4,0,19,19,19,,111.28521399997408,,,,,111.7856693000067,106.9862292999751,108.2872086999705,108.2872086999705,108.2872086999705,108.2872086999705,108.2872086999705,108.2872086999705,108.2872086999705,0.006648699985817075,2.0001049999846146,None,0,,D:\GitHub\experiment1\data/3_REPSWITCH_1_2023-06-12_10h50.42.296_micResp_recorded\recording_micResp_2023-06-12_10h52.26.507.wav,,,,,,,,,,3,001,2023-06-12_10h50.42.296,REPSWITCH_1,2022.2.5,59.983720426992804,
REPSWITCH1/PICTURE_271.png,conejo,type,blue,nontarget,1,NT,1,Stim8_Set1,0,20,20,20,,116.1842040999909,,,,,,111.7856693000067,113.16918339999393,113.16918339999393,113.16918339999393,113.16918339999393,113.16918339999393,113.16918339999393,113.16918339999393,0.007242799969390035,2.000495599990245,"['r', 'a', 'b', 'b', 'i', 't']",0,rabbit,D:\GitHub\experiment1\data/3_REPSWITCH_1_2023-06-12_10h50.42.296_micResp_recorded\recording_micResp_2023-06-12_10h52.31.405.wav,,,,,,,"[1.0084905000403523, 1.12392570002703, 1.2899699000408873, 1.4661958999931812, 1.5597852999926545, 1.6730628000223078]",,,3,001,2023-06-12_10h50.42.296,REPSWITCH_1,2022.2.5,59.983720426992804,
REPSWITCH1/PICTURE_271.png,conejo,speak,yellow,switch,2,T,1,Stim8_Set1,0,21,21,21,,120.88355759996921,,,,,,116.6848301999853,117.88442489999579,117.88442489999579,117.88442489999579,117.88442489999579,117.88442489999579,117.88442489999579,117.88442489999579,0.002898800012189895,2.000484600022901,None,0,,D:\GitHub\experiment1\data/3_REPSWITCH_1_2023-06-12_10h50.42.296_micResp_recorded\recording_micResp_2023-06-12_10h52.36.104.wav,,,,,,,,,,3,001,2023-06-12_10h50.42.296,REPSWITCH_1,2022.2.5,59.983720426992804,
REPSWITCH1/PICTURE_8.png,pierna,type,blue,filler,1,F,1,Stim7_Set4,0,22,22,22,,125.56494819995714,,,,,,121.39992399996845,122.55040959996404,122.55040959996404,122.55040959996404,122.55040959996404,122.55040959996404,122.55040959996404,122.55040959996404,0.0065818000002764165,2.0001381000038236,"['p', 'i', 'e', 'r', 'n', 'a']",0,pierna,D:\GitHub\experiment1\data/3_REPSWITCH_1_2023-06-12_10h50.42.296_micResp_recorded\recording_micResp_2023-06-12_10h52.40.786.wav,,,,,,,"[1.5217923000454903, 1.6917470000335015, 1.7805695999995805, 1.919318700034637, 2.020100200024899, 2.090010700048879]",,,3,001,2023-06-12_10h50.42.296,REPSWITCH_1,2022.2.5,59.983720426992804,
REPSWITCH1/PICTURE_91.png,boca,type,blue,filler,1,F,1,Stim8_Set4,0,23,23,23,,130.2637679000036,,,,,,126.06516790000023,127.26456769998185,127.26456769998185,127.26456769998185,127.26456769998185,127.26456769998185,127.26456769998185,127.26456769998185,0.00829999998677522,2.016496099997312,"['b', 'o', 'v', 'backspace', 'c', 'a']",0,boca,D:\GitHub\experiment1\data/3_REPSWITCH_1_2023-06-12_10h50.42.296_micResp_recorded\recording_micResp_2023-06-12_10h52.45.485.wav,,,,,,,"[1.0498493000050075, 1.1498006000183523, 1.2614330000360496, 1.8000945000094362, 1.903040700010024, 1.9841171000152826]",,,3,001,2023-06-12_10h50.42.296,REPSWITCH_1,2022.2.5,59.983720426992804,
REPSWITCH1/PICTURE_128.png,muñeca,speak,yellow,filler,2,F,2,Stim1_Set1,0,24,24,24,,134.9448736999766,,,,,,130.76387039996916,131.9149845999782,131.9149845999782,131.9149845999782,131.9149845999782,131.9149845999782,131.9149845999782,131.9149845999782,0.0025059999898076057,2.0008058000239544,None,0,,D:\GitHub\experiment1\data/3_REPSWITCH_1_2023-06-12_10h50.42.296_micResp_recorded\recording_micResp_2023-06-12_10h52.50.151.wav,,,,,,,,,,3,001,2023-06-12_10h50.42.296,REPSWITCH_1,2022.2.5,59.983720426992804,
REPSWITCH1/PICTURE_16.png,cazador,type,blue,nontarget,1,NT,2,Stim1_Set2,0,25,25,25,,139.79524129995843,,,,,140.2950594999711,135.4294646999915,136.81263389997184,136.81263389997184,136.81263389997184,136.81263389997184,136.81263389997184,136.81263389997184,136.81263389997184,0.007945899968035519,2.0172057999880053,"['c', 'a', 'z', 'a', 'd', 'o', 'r']",0,cazador,D:\GitHub\experiment1\data/3_REPSWITCH_1_2023-06-12_10h50.42.296_micResp_recorded\recording_micResp_2023-06-12_10h52.55.017.wav,,,,,,,"[1.1124393999925815, 1.2289194999611937, 1.7544086999841966, 1.8250478999689221, 2.027421400009189, 2.104008399997838, 2.493796199967619]",,,3,001,2023-06-12_10h50.42.296,REPSWITCH_1,2022.2.5,59.983720426992804,
REPSWITCH1/PICTURE_16.png,cazador,type,blue,repeat,1,T,2,Stim1_Set2,0,26,26,26,,144.3603190999711,,,,,144.8607247999753,140.2950594999711,141.36250829999335,141.36250829999335,141.36250829999335,141.36250829999335,141.36250829999335,141.36250829999335,141.36250829999335,0.00284620001912117,1.9995737000135705,"['c', 'a', 'z', 'a', 'd', 'o', 'r']",0,cazador,D:\GitHub\experiment1\data/3_REPSWITCH_1_2023-06-12_10h50.42.296_micResp_recorded\recording_micResp_2023-06-12_10h52.59.582.wav,144.3603190999711,144.3603190999711,144.3603190999711,144.3603190999711,144.3603190999711,144.3603190999711,"[0.909805100003723, 1.0348614999675192, 1.2161808999953791, 1.4074493999942206, 1.5719587999628857, 1.682691199996043, 1.8263193999882787]",,,3,001,2023-06-12_10h50.42.296,REPSWITCH_1,2022.2.5,59.983720426992804,
REPSWITCH1/PICTURE_142.png,vaso,speak,yellow,filler,2,F,2,Stim2_Set1,0,27,27,27,,149.04277880000882,,,,,149.54294799995841,144.8607247999753,146.04437680001138,146.04437680001138,146.04437680001138,146.04437680001138,146.04437680001138,146.04437680001138,146.04437680001138,0.0022566000116057694,1.9998551000026055,None,0,,D:\GitHub\experiment1\data/3_REPSWITCH_1_2023-06-12_10h50.42.296_micResp_recorded\recording_micResp_2023-06-12_10h53.04.264.wav,149.04277880000882,149.04277880000882,149.04277880000882,149.04277880000882,149.04277880000882,149.04277880000882,,,,3,001,2023-06-12_10h50.42.296,REPSWITCH_1,2022.2.5,59.983720426992804,
REPSWITCH1/PICTURE_175.png,pintor,type,blue,nontarget,1,NT,2,Stim2_Set2,0,28,28,28,,153.59174419997726,,,,,154.09130249998998,149.54294799995841,150.59340479999082,150.59340479999082,150.59340479999082,150.59340479999082,150.59340479999082,150.59340479999082,150.59340479999082,0.0068777999840676785,2.0001467000111006,"['o', 'i', 'n', 't', 'o', 'r']",0,ointor,D:\GitHub\experiment1\data/3_REPSWITCH_1_2023-06-12_10h50.42.296_micResp_recorded\recording_micResp_2023-06-12_10h53.08.813.wav,,,,,,,"[0.8615400000126101, 1.0040843000169843, 1.2727913000271656, 1.3494398000184447, 1.4999076999956742, 1.579145600029733]",,,3,001,2023-06-12_10h50.42.296,REPSWITCH_1,2022.2.5,59.983720426992804,
REPSWITCH1/PICTURE_175.png,pintor,type,blue,repeat,1,T,2,Stim2_Set2,0,29,29,29,,158.12378159997752,,,,,158.62395039998228,154.09130249998998,155.12533309997525,155.12533309997525,155.12533309997525,155.12533309997525,155.12533309997525,155.12533309997525,155.12533309997525,0.0026123999850824475,2.000454799970612,"['p', 'i', 't', 'n', 'o', 'r']",0,pitnor,D:\GitHub\experiment1\data/3_REPSWITCH_1_2023-06-12_10h50.42.296_micResp_recorded\recording_micResp_2023-06-12_10h53.13.346.wav,158.12378159997752,158.12378159997752,158.12378159997752,158.12378159997752,158.12378159997752,158.12378159997752,"[0.9910663000191562, 1.1847309000440873, 1.434834800020326, 1.4787583000143059, 1.7196894000517204, 1.8415028000017628]",,,3,001,2023-06-12_10h50.42.296,REPSWITCH_1,2022.2.5,59.983720426992804,
REPSWITCH1/PICTURE_30.png,granja,type,blue,nontarget,1,NT,2,Stim3_Set2,0,30,30,30,,162.83953800000018,,,,,,158.62395039998228,159.8402056999621,159.8402056999621,159.8402056999621,159.8402056999621,159.8402056999621,159.8402056999621,159.8402056999621,0.007682800001930445,2.016616100037936,"['f', 'a', 'r', 'm']",0,farm,D:\GitHub\experiment1\data/3_REPSWITCH_1_2023-06-12_10h50.42.296_micResp_recorded\recording_micResp_2023-06-12_10h53.18.061.wav,,,,,,,"[1.4295773999765515, 1.58514409995405, 1.6923665999784134, 1.765600099985022]",,,3,001,2023-06-12_10h50.42.296,REPSWITCH_1,2022.2.5,59.983720426992804,
REPSWITCH1/PICTURE_30.png,granja,speak,yellow,switch,2,T,2,Stim3_Set2,0,31,31,31,,167.5383445000043,,,,,168.0381703999592,163.33945349999703,164.5403351999703,164.5403351999703,164.5403351999703,164.5403351999703,164.5403351999703,164.5403351999703,164.5403351999703,0.003522499988321215,2.0165131999528967,None,0,,D:\GitHub\experiment1\data/3_REPSWITCH_1_2023-06-12_10h50.42.296_micResp_recorded\recording_micResp_2023-06-12_10h53.22.760.wav,167.5383445000043,167.5383445000043,167.5383445000043,167.5383445000043,167.5383445000043,167.5383445000043,,,,3,001,2023-06-12_10h50.42.296,REPSWITCH_1,2022.2.5,59.983720426992804,
REPSWITCH1/PICTURE_319.png,vaca,speak,yellow,nontarget,2,NT,2,Stim4_Set2,0,32,32,32,,172.15463810000801,,,,,,168.0381703999592,169.1543098000111,169.1543098000111,169.1543098000111,169.1543098000111,169.1543098000111,169.1543098000111,169.1543098000111,0.007696000044234097,2.0164555000374094,None,0,,D:\GitHub\experiment1\data/3_REPSWITCH_1_2023-06-12_10h50.42.296_micResp_recorded\recording_micResp_2023-06-12_10h53.27.375.wav,,,,,,,,,,3,001,2023-06-12_10h50.42.296,REPSWITCH_1,2022.2.5,59.983720426992804,
REPSWITCH1/PICTURE_319.png,vaca,type,blue,switch,1,T,2,Stim4_Set2,0,33,33,33,,176.8692211000016,,,,,177.36925839999458,172.65383809997002,173.87116350000724,173.87116350000724,173.87116350000724,173.87116350000724,173.87116350000724,173.87116350000724,173.87116350000724,0.002362700004596263,2.0005967000033706,"['v', 'a', 'c', 'a']",0,vaca,D:\GitHub\experiment1\data/3_REPSWITCH_1_2023-06-12_10h50.42.296_micResp_recorded\recording_micResp_2023-06-12_10h53.32.091.wav,,,,,,,"[0.4394149999716319, 0.5158950000186451, 1.693347399996128, 1.7871052999980748]",,,3,001,2023-06-12_10h50.42.296,REPSWITCH_1,2022.2.5,59.983720426992804,
REPSWITCH1/PICTURE_152.png,caracol,speak,yellow,filler,2,F,2,Stim3_Set1,0,34,34,34,,181.48491759999888,,,,,181.9851071999874,177.36925839999458,178.4866087999544,178.4866087999544,178.4866087999544,178.4866087999544,178.4866087999544,178.4866087999544,178.4866087999544,0.0027190999826416373,1.9993474999791943,None,0,,D:\GitHub\experiment1\data/3_REPSWITCH_1_2023-06-12_10h50.42.296_micResp_recorded\recording_micResp_2023-06-12_10h53.36.707.wav,181.48491759999888,181.48491759999888,181.48491759999888,181.48491759999888,181.48491759999888,181.48491759999888,,,,3,001,2023-06-12_10h50.42.296,REPSWITCH_1,2022.2.5,59.983720426992804,
REPSWITCH1/PICTURE_320.png,iglesia,type,blue,nontarget,1,NT,2,Stim5_Set2,0,35,35,35,,186.13381719996687,,,,,186.63380249997135,181.9851071999874,183.13558309996733,183.13558309996733,183.13558309996733,183.13558309996733,183.13558309996733,183.13558309996733,183.13558309996733,0.007152599981054664,2.000540999986697,"['i', 'g', 'l', 'e', 's', 'i', 'a']",0,iglesia,D:\GitHub\experiment1\data/3_REPSWITCH_1_2023-06-12_10h50.42.296_micResp_recorded\recording_micResp_2023-06-12_10h53.41.355.wav,186.13381719996687,186.13381719996687,186.13381719996687,186.13381719996687,186.13381719996687,186.13381719996687,"[0.9526044999947771, 1.2951739000272937, 1.711453200026881, 1.816608500026632, 1.990120900038164, 2.0959010000224225, 2.243747300002724]",,,3,001,2023-06-12_10h50.42.296,REPSWITCH_1,2022.2.5,59.983720426992804,
REPSWITCH1/PICTURE_320.png,iglesia,speak,yellow,switch,2,T,2,Stim5_Set2,0,36,36,36,,190.74963400000706,,,,,191.24948569998378,186.63380249997135,187.7511378999916,187.7511378999916,187.7511378999916,187.7511378999916,187.7511378999916,187.7511378999916,187.7511378999916,0.003368500038050115,1.9998250000062399,None,0,,D:\GitHub\experiment1\data/3_REPSWITCH_1_2023-06-12_10h50.42.296_micResp_recorded\recording_micResp_2023-06-12_10h53.45.971.wav,190.74963400000706,190.74963400000706,190.74963400000706,190.74963400000706,190.74963400000706,190.74963400000706,,,,3,001,2023-06-12_10h50.42.296,REPSWITCH_1,2022.2.5,59.983720426992804,
REPSWITCH1/PICTURE_19.png,pavo,type,blue,filler,1,F,2,Stim4_Set1,0,37,37,37,,195.68177729996387,,,,,196.1813875999651,191.24948569998378,192.6832366999588,192.6832366999588,192.6832366999588,192.6832366999588,192.6832366999588,192.6832366999588,192.6832366999588,0.0029594999505206943,1.9997049999656156,"['p', 'a', 'v', 'o']",0,pavo,D:\GitHub\experiment1\data/3_REPSWITCH_1_2023-06-12_10h50.42.296_micResp_recorded\recording_micResp_2023-06-12_10h53.50.903.wav,195.68177729996387,195.68177729996387,195.68177729996387,195.68177729996387,195.68177729996387,195.68177729996387,"[1.0287901000119746, 1.078945500019472, 1.4745970999938436, 1.5618084999732673]",,,3,001,2023-06-12_10h50.42.296,REPSWITCH_1,2022.2.5,59.983720426992804,
REPSWITCH1/PICTURE_199.png,falda,type,blue,filler,1,F,2,Stim5_Set1,0,38,38,38,,200.24741770001128,,,,,200.74684499995783,196.1813875999651,197.24881459999597,197.24881459999597,197.24881459999597,197.24881459999597,197.24881459999597,197.24881459999597,197.24881459999597,0.0030350000015459955,2.0002190000377595,"['f', 'l', 'a', 'd', 'a']",0,flada,D:\GitHub\experiment1\data/3_REPSWITCH_1_2023-06-12_10h50.42.296_micResp_recorded\recording_micResp_2023-06-12_10h53.55.469.wav,,,,,,,"[1.1023021000437438, 1.3368738000281155, 1.4646476000198163, 1.5996566000394523, 1.7329872000264004]",,,3,001,2023-06-12_10h50.42.296,REPSWITCH_1,2022.2.5,59.983720426992804,
REPSWITCH1/PICTURE_517.png,cuerda,speak,yellow,nontarget,2,NT,2,Stim6_Set2,0,39,39,39,,204.86300009995466,,,,,,200.74684499995783,201.8630017999676,201.8630017999676,201.8630017999676,201.8630017999676,201.8630017999676,201.8630017999676,201.8630017999676,0.008477099996525794,2.0164690000237897,None,0,,D:\GitHub\experiment1\data/3_REPSWITCH_1_2023-06-12_10h50.42.296_micResp_recorded\recording_micResp_2023-06-12_10h54.00.084.wav,,,,,,,,,,3,001,2023-06-12_10h50.42.296,REPSWITCH_1,2022.2.5,59.983720426992804,
REPSWITCH1/PICTURE_517.png,cuerda,speak,yellow,repeat,2,T,2,Stim6_Set2,0,40,40,40,,209.49504579999484,,,,,209.9948999999906,205.36220480001066,206.4967498999904,206.4967498999904,206.4967498999904,206.4967498999904,206.4967498999904,206.4967498999904,206.4967498999904,0.002762799966149032,1.9999434999772348,None,0,,D:\GitHub\experiment1\data/3_REPSWITCH_1_2023-06-12_10h50.42.296_micResp_recorded\recording_micResp_2023-06-12_10h54.04.716.wav,,,,,,,,,,3,001,2023-06-12_10h50.42.296,REPSWITCH_1,2022.2.5,59.983720426992804,
REPSWITCH1/PICTURE_235.png,aguja,type,blue,filler,1,F,2,Stim6_Set1,0,41,41,41,,214.1941433000029,,,,,,209.9948999999906,211.1796851999825,211.1796851999825,211.1796851999825,211.1796851999825,211.1796851999825,211.1796851999825,211.1796851999825,0.0036496000248007476,2.0166655000066385,"['v', 'e', 'l', 'o', 'n', 'a']",0,velona,D:\GitHub\experiment1\data/3_REPSWITCH_1_2023-06-12_10h50.42.296_micResp_recorded\recording_micResp_2023-06-12_10h54.09.415.wav,,,,,,,"[1.2528801999869756, 1.3326836000196636, 1.4805710000218824, 1.6767540000146255, 1.8752016000216827, 1.9370668000192381]",,,3,001,2023-06-12_10h50.42.296,REPSWITCH_1,2022.2.5,59.983720426992804,
REPSWITCH1/PICTURE_610.png,miel,speak,yellow,nontarget,2,NT,2,Stim7_Set2,0,42,42,42,,218.842791699979,,,,,,214.6938651999808,215.84333949995926,215.84333949995926,215.84333949995926,215.84333949995926,215.84333949995926,215.84333949995926,215.84333949995926,0.014618800021708012,2.0163154000183567,None,0,,D:\GitHub\experiment1\data/3_REPSWITCH_1_2023-06-12_10h50.42.296_micResp_recorded\recording_micResp_2023-06-12_10h54.14.064.wav,,,,,,,,,,3,001,2023-06-12_10h50.42.296,REPSWITCH_1,2022.2.5,59.983720426992804,
REPSWITCH1/PICTURE_610.png,miel,speak,yellow,repeat,2,T,2,Stim7_Set2,0,43,43,43,,223.42457370000193,,,,,,219.3428226999822,220.41042909998214,220.41042909998214,220.41042909998214,220.41042909998214,220.41042909998214,220.41042909998214,220.41042909998214,0.0025892999838106334,2.000290199997835,None,0,,D:\GitHub\experiment1\data/3_REPSWITCH_1_2023-06-12_10h50.42.296_micResp_recorded\recording_micResp_2023-06-12_10h54.18.646.wav,,,,,,,,,,3,001,2023-06-12_10h50.42.296,REPSWITCH_1,2022.2.5,59.983720426992804,
REPSWITCH1/PICTURE_264.png,mano,speak,yellow,filler,2,F,2,Stim7_Set1,0,44,44,44,,228.00716819998343,,,,,228.50750559999142,223.9248718000017,225.0093429000117,225.0093429000117,225.0093429000117,225.0093429000117,225.0093429000117,225.0093429000117,225.0093429000117,0.0024831999908201396,1.9997439999715425,None,0,,D:\GitHub\experiment1\data/3_REPSWITCH_1_2023-06-12_10h50.42.296_micResp_recorded\recording_micResp_2023-06-12_10h54.23.229.wav,228.00716819998343,228.00716819998343,228.00716819998343,228.00716819998343,228.00716819998343,228.00716819998343,,,,3,001,2023-06-12_10h50.42.296,REPSWITCH_1,2022.2.5,59.983720426992804,
REPSWITCH1/PICTURE_271.png,conejo,type,blue,filler,1,F,2,Stim8_Set1,0,45,45,45,,232.57280069997068,,,,,,228.50750559999142,229.55858859996079,229.55858859996079,229.55858859996079,229.55858859996079,229.55858859996079,229.55858859996079,229.55858859996079,0.002717200026381761,2.0166069000260904,"['r', 'a', 'b', 'b', 'i', 't']",0,rabbit,D:\GitHub\experiment1\data/3_REPSWITCH_1_2023-06-12_10h50.42.296_micResp_recorded\recording_micResp_2023-06-12_10h54.27.794.wav,,,,,,,"[1.07530789996963, 1.1861768999951892, 1.4006921999971382, 1.565534099994693, 1.7481636999873444, 1.8885254999622703]",,,3,001,2023-06-12_10h50.42.296,REPSWITCH_1,2022.2.5,59.983720426992804,
REPSWITCH1/PICTURE_35.png,oreja,speak,yellow,nontarget,2,NT,2,Stim8_Set2,0,46,46,46,,237.35457289998885,,,,,,233.07269369997084,234.35571079998044,234.35571079998044,234.35571079998044,234.35571079998044,234.35571079998044,234.35571079998044,234.35571079998044,0.006717799988109618,2.0161525000003166,None,0,,D:\GitHub\experiment1\data/3_REPSWITCH_1_2023-06-12_10h50.42.296_micResp_recorded\recording_micResp_2023-06-12_10h54.32.576.wav,,,,,,,,,,3,001,2023-06-12_10h50.42.296,REPSWITCH_1,2022.2.5,59.983720426992804,
REPSWITCH1/PICTURE_35.png,oreja,type,blue,switch,1,T,2,Stim8_Set2,0,47,47,47,,242.08703160000732,,,,,242.58709149999777,237.85510079999221,239.08899439999368,239.08899439999368,239.08899439999368,239.08899439999368,239.08899439999368,239.08899439999368,239.08899439999368,0.002382699982263148,1.9999998999992386,"['e', 'a', 'r']",0,ear,D:\GitHub\experiment1\data/3_REPSWITCH_1_2023-06-12_10h50.42.296_micResp_recorded\recording_micResp_2023-06-12_10h54.37.309.wav,,,,,,,"[0.7806185000226833, 0.9450410000281408, 1.0794642000109889]",,,3,001,2023-06-12_10h50.42.296,REPSWITCH_1,2022.2.5,59.983720426992804,
REPSWITCH1/PICTURE_178.png,puente,type,blue,nontarget,1,NT,3,Stim1_Set3,0,48,48,48,,246.78563009999925,,,,,,242.58709149999777,243.78677239996614,243.78677239996614,243.78677239996614,243.78677239996614,243.78677239996614,243.78677239996614,243.78677239996614,0.007211499963887036,2.0163491999846883,"['b', 'r', 'i', 'd', 'g', 'e']",0,bridge,D:\GitHub\experiment1\data/3_REPSWITCH_1_2023-06-12_10h50.42.296_micResp_recorded\recording_micResp_2023-06-12_10h54.42.007.wav,,,,,,,"[1.9120419999817386, 2.1300887999823317, 2.230029199970886, 2.564992200001143, 2.68181519996142, 2.8083425000077114]",,,3,001,2023-06-12_10h50.42.296,REPSWITCH_1,2022.2.5,59.983720426992804,
REPSWITCH1/PICTURE_178.png,puente,speak,yellow,switch,2,T,3,Stim1_Set3,0,49,49,49,,251.5016128999996,,,,,252.00169239996467,247.2862363999593,248.50339209998492,248.50339209998492,248.50339209998492,248.50339209998492,248.50339209998492,248.50339209998492,248.50339209998492,0.002795899985358119,1.9996696999878623,None,0,,D:\GitHub\experiment1\data/3_REPSWITCH_1_2023-06-12_10h50.42.296_micResp_recorded\recording_micResp_2023-06-12_10h54.46.723.wav,251.5016128999996,251.5016128999996,251.5016128999996,251.5016128999996,251.5016128999996,251.5016128999996,,,,3,001,2023-06-12_10h50.42.296,REPSWITCH_1,2022.2.5,59.983720426992804,
REPSWITCH1/PICTURE_242.png,cartero,speak,yellow,nontarget,2,NT,3,Stim2_Set3,0,50,50,50,,256.18394369998714,,,,,256.68402489996515,252.00169239996467,253.18570169998566,253.18570169998566,253.18570169998566,253.18570169998566,253.18570169998566,253.18570169998566,253.18570169998566,0.006755699985660613,1.9998825999791734,None,0,,D:\GitHub\experiment1\data/3_REPSWITCH_1_2023-06-12_10h50.42.296_micResp_recorded\recording_micResp_2023-06-12_10h54.51.405.wav,,,,,,,,,,3,001,2023-06-12_10h50.42.296,REPSWITCH_1,2022.2.5,59.983720426992804,
REPSWITCH1/PICTURE_242.png,cartero,type,blue,switch,1,T,3,Stim2_Set3,0,51,51,51,,260.81627179996576,,,,,,256.68402489996515,257.80140339996433,257.80140339996433,257.80140339996433,257.80140339996433,257.80140339996433,257.80140339996433,257.80140339996433,0.002439200005028397,2.000146100006532,"['p', 'o', 's', 't', 'm', 'a', 'n']",0,postman,D:\GitHub\experiment1\data/3_REPSWITCH_1_2023-06-12_10h50.42.296_micResp_recorded\recording_micResp_2023-06-12_10h54.56.037.wav,,,,,,,"[0.6805302000138909, 0.7981857000268064, 0.802615099994, 0.9536151000065729, 1.1099991999799386, 1.1389341999893077, 1.310991499980446]",,,3,001,2023-06-12_10h50.42.296,REPSWITCH_1,2022.2.5,59.983720426992804,
REPSWITCH1/PICTURE_16.png,cazador,type,blue,filler,1,F,3,Stim1_Set2,0,52,52,52,,265.5481706999708,,,,,266.04821739997715,261.31577379995724,262.54992679995485,262.54992679995485,262.54992679995485,262.54992679995485,262.54992679995485,262.54992679995485,262.54992679995485,0.002817499975208193,1.9998184000141919,"['c', 'a', 'z', 'a', 'd', 'o', 'r']",0,cazador,D:\GitHub\experiment1\data/3_REPSWITCH_1_2023-06-12_10h50.42.296_micResp_recorded\recording_micResp_2023-06-12_10h55.00.770.wav,265.5481706999708,265.5481706999708,265.5481706999708,265.5481706999708,265.5481706999708,265.5481706999708,"[1.1177451999974437, 1.2314449999830686, 1.5497934999875724, 1.7588170999661088, 1.9443549999850802, 2.0677929999656044, 2.214477200002875]",,,3,001,2023-06-12_10h50.42.296,REPSWITCH_1,2022.2.5,59.983720426992804,
REPSWITCH1/PICTURE_48.png,bombero,type,blue,nontarget,1,NT,3,Stim3_Set3,0,53,53,53,,270.09712260001106,,,,,,266.04821739997715,267.09762449999107,267.09762449999107,267.09762449999107,267.09762449999107,267.09762449999107,267.09762449999107,267.09762449999107,0.008309600001666695,2.0164374000160024,"['b', 'o', 'm', 'b', 'e', 'r', 'o']",0,bombero,D:\GitHub\experiment1\data/3_REPSWITCH_1_2023-06-12_10h50.42.296_micResp_recorded\recording_micResp_2023-06-12_10h55.05.318.wav,,,,,,,"[1.125312100048177, 1.2080184000078589, 1.4245302000199445, 1.4710643000435084, 1.5635417000157759, 1.752732900029514, 1.8762839999981225]",,,3,001,2023-06-12_10h50.42.296,REPSWITCH_1,2022.2.5,59.983720426992804,
REPSWITCH1/PICTURE_48.png,bombero,speak,yellow,switch,2,T,3,Stim3_Set3,0,54,54,54,,274.74635520001175,,,,,275.2462864999543,270.5971162999631,271.7476680999971,271.7476680999971,271.7476680999971,271.7476680999971,271.7476680999971,271.7476680999971,271.7476680999971,0.002611399977467954,1.9994622999802232,None,0,,D:\GitHub\experiment1\data/3_REPSWITCH_1_2023-06-12_10h50.42.296_micResp_recorded\recording_micResp_2023-06-12_10h55.09.967.wav,274.74635520001175,274.74635520001175,274.74635520001175,274.74635520001175,274.74635520001175,274.74635520001175,,,,3,001,2023-06-12_10h50.42.296,REPSWITCH_1,2022.2.5,59.983720426992804,
REPSWITCH1/PICTURE_175.png,pintor,type,blue,filler,1,F,3,Stim2_Set2,0,55,55,55,,279.3945826999843,,,,,279.8945250000106,275.2462864999543,276.39654369995696,276.39654369995696,276.39654369995696,276.39654369995696,276.39654369995696,276.39654369995696,276.39654369995696,0.0026289999950677156,2.001202400017064,"['p', 'i', 'n', 't', 'o', 'r']",0,pintor,D:\GitHub\experiment1\data/3_REPSWITCH_1_2023-06-12_10h50.42.296_micResp_recorded\recording_micResp_2023-06-12_10h55.14.616.wav,279.3945826999843,279.3945826999843,279.3945826999843,279.3945826999843,279.3945826999843,279.3945826999843,"[0.9304355000494979, 1.087874400021974, 1.3021836000261828, 1.3531626000185497, 1.4904037000378594, 1.5868792000110261]",,,3,001,2023-06-12_10h50.42.296,REPSWITCH_1,2022.2.5,59.983720426992804,
REPSWITCH1/PICTURE_728.png,pulpo,speak,yellow,nontarget,2,NT,3,Stim4_Set3,0,56,56,56,,284.0603729999857,,,,,,279.8945250000106,281.06103959999746,281.06103959999746,281.06103959999746,281.06103959999746,281.06103959999746,281.06103959999746,281.06103959999746,0.015825600014068186,2.016290100000333,None,0,,D:\GitHub\experiment1\data/3_REPSWITCH_1_2023-06-12_10h50.42.296_micResp_recorded\recording_micResp_2023-06-12_10h55.19.282.wav,,,,,,,,,,3,001,2023-06-12_10h50.42.296,REPSWITCH_1,2022.2.5,59.983720426992804,
REPSWITCH1/PICTURE_728.png,pulpo,speak,yellow,repeat,2,T,3,Stim4_Set3,0,57,57,57,,288.7262993999757,,,,,289.2260660000029,284.5602278999868,285.72896330000367,285.72896330000367,285.72896330000367,285.72896330000367,285.72896330000367,285.72896330000367,285.72896330000367,0.002387200016528368,2.0171154999989085,None,0,,D:\GitHub\experiment1\data/3_REPSWITCH_1_2023-06-12_10h50.42.296_micResp_recorded\recording_micResp_2023-06-12_10h55.23.948.wav,,,,,,,,,,3,001,2023-06-12_10h50.42.296,REPSWITCH_1,2022.2.5,59.983720426992804,
REPSWITCH1/PICTURE_30.png,granja,speak,yellow,filler,2,F,3,Stim3_Set2,0,58,58,58,,293.39150199998403,,,,,,289.2260660000029,290.37678739998955,290.37678739998955,290.37678739998955,290.37678739998955,290.37678739998955,290.37678739998955,290.37678739998955,0.0035124000278301537,1.9999051000340842,None,0,,D:\GitHub\experiment1\data/3_REPSWITCH_1_2023-06-12_10h50.42.296_micResp_recorded\recording_micResp_2023-06-12_10h55.28.613.wav,,,,,,,,,,3,001,2023-06-12_10h50.42.296,REPSWITCH_1,2022.2.5,59.983720426992804,
REPSWITCH1/PICTURE_319.png,vaca,type,blue,filler,1,F,3,Stim4_Set2,0,59,59,59,,298.0070718000061,,,,,298.5077806999907,293.8912556999712,295.0096171000041,295.0096171000041,295.0096171000041,295.0096171000041,295.0096171000041,295.0096171000041,295.0096171000041,0.002501400012988597,2.0003155000158586,"['v', 'a', 'c', 'a']",0,vaca,D:\GitHub\experiment1\data/3_REPSWITCH_1_2023-06-12_10h50.42.296_micResp_recorded\recording_micResp_2023-06-12_10h55.33.228.wav,,,,,,,"[0.8476676999707706, 1.0628102999762632, 1.2610214999876916, 1.4070025999681093]",,,3,001,2023-06-12_10h50.42.296,REPSWITCH_1,2022.2.5,59.983720426992804,
REPSWITCH1/PICTURE_320.png,iglesia,type,blue,filler,1,F,3,Stim5_Set2,0,60,60,60,,302.6061556999921,,,,,303.10600879997946,298.5077806999907,299.60757619998185,299.60757619998185,299.60757619998185,299.60757619998185,299.60757619998185,299.60757619998185,299.60757619998185,0.002712499990593642,1.9993352000019513,"['i', 'g', 'l', 'e', 's', 'i', 'a']",0,iglesia,D:\GitHub\experiment1\data/3_REPSWITCH_1_2023-06-12_10h50.42.296_micResp_recorded\recording_micResp_2023-06-12_10h55.37.827.wav,302.6061556999921,302.6061556999921,302.6061556999921,302.6061556999921,302.6061556999921,302.6061556999921,"[0.918151999998372, 1.1727734000305645, 1.3754805999924429, 1.556606099999044, 1.733606600027997, 1.7863870000001043, 1.9242466000141576]",,,3,001,2023-06-12_10h50.42.296,REPSWITCH_1,2022.2.5,59.983720426992804,
REPSWITCH1/PICTURE_552.png,manzana,speak,yellow,nontarget,2,NT,3,Stim5_Set3,0,61,61,61,,307.371657199983,,,,,,303.10600879997946,304.3723716000095,304.3723716000095,304.3723716000095,304.3723716000095,304.3723716000095,304.3723716000095,304.3723716000095,0.007291499990969896,2.016706999973394,None,0,,D:\GitHub\experiment1\data/3_REPSWITCH_1_2023-06-12_10h50.42.296_micResp_recorded\recording_micResp_2023-06-12_10h55.42.592.wav,,,,,,,,,,3,001,2023-06-12_10h50.42.296,REPSWITCH_1,2022.2.5,59.983720426992804,
REPSWITCH1/PICTURE_552.png,manzana,speak,yellow,repeat,2,T,3,Stim5_Set3,0,62,62,62,,312.07014109997544,,,,,312.57039000000805,307.87137479998637,309.07214539998677,309.07214539998677,309.07214539998677,309.07214539998677,309.07214539998677,309.07214539998677,309.07214539998677,0.0027407000306993723,1.9998574000201188,None,0,,D:\GitHub\experiment1\data/3_REPSWITCH_1_2023-06-12_10h50.42.296_micResp_recorded\recording_micResp_2023-06-12_10h55.47.292.wav,312.07014109997544,312.07014109997544,312.07014109997544,312.07014109997544,312.07014109997544,312.07014109997544,,,,3,001,2023-06-12_10h50.42.296,REPSWITCH_1,2022.2.5,59.983720426992804,
REPSWITCH1/PICTURE_576.png,guante,speak,yellow,nontarget,2,NT,3,Stim6_Set3,0,63,63,63,,316.65098739997484,,,,,,312.57039000000805,313.65320649999194,313.65320649999194,313.65320649999194,313.65320649999194,313.65320649999194,313.65320649999194,313.65320649999194,0.007932800042908639,2.0172017000149935,None,0,,D:\GitHub\experiment1\data/3_REPSWITCH_1_2023-06-12_10h50.42.296_micResp_recorded\recording_micResp_2023-06-12_10h55.51.857.wav,,,,,,,,,,3,001,2023-06-12_10h50.42.296,REPSWITCH_1,2022.2.5,59.983720426992804,
REPSWITCH1/PICTURE_576.png,guante,type,blue,switch,1,T,3,Stim6_Set3,0,64,64,64,,321.435323099955,,,,,,317.1523258999805,318.43641219998244,318.43641219998244,318.43641219998244,318.43641219998244,318.43641219998244,318.43641219998244,318.43641219998244,0.0025157000054605305,1.9997920999885537,"['g', 'l', 'o', 'b', 'e']",0,globe,D:\GitHub\experiment1\data/3_REPSWITCH_1_2023-06-12_10h50.42.296_micResp_recorded\recording_micResp_2023-06-12_10h55.56.656.wav,,,,,,,"[0.8050900000380352, 0.8415900000254624, 1.0293195000267588, 1.2943693000124767, 1.4199969000183046]",,,3,001,2023-06-12_10h50.42.296,REPSWITCH_1,2022.2.5,59.983720426992804,
REPSWITCH1/PICTURE_517.png,cuerda,speak,yellow,filler,2,F,3,Stim6_Set2,0,65,65,65,,326.11704869999085,,,,,,321.9511863999651,323.10235479997937,323.10235479997937,323.10235479997937,323.10235479997937,323.10235479997937,323.10235479997937,323.10235479997937,0.0027265999815426767,1.9999918999965303,None,0,,D:\GitHub\experiment1\data/3_REPSWITCH_1_2023-06-12_10h50.42.296_micResp_recorded\recording_micResp_2023-06-12_10h56.01.338.wav,,,,,,,,,,3,001,2023-06-12_10h50.42.296,REPSWITCH_1,2022.2.5,59.983720426992804,
REPSWITCH1/PICTURE_687.png,camisa,type,blue,nontarget,1,NT,3,Stim7_Set3,0,66,66,66,,330.7828229999868,,,,,,326.61721429997124,327.7830692999996,327.7830692999996,327.7830692999996,327.7830692999996,327.7830692999996,327.7830692999996,327.7830692999996,0.01047510001808405,2.0166754000238143,"['c', 'a', 'm', 'i', 's', 'a']",0,camisa,D:\GitHub\experiment1\data/3_REPSWITCH_1_2023-06-12_10h50.42.296_micResp_recorded\recording_micResp_2023-06-12_10h56.06.004.wav,,,,,,,"[1.5869871000177227, 1.7101895000087097, 1.767078600008972, 1.8838848000159487, 1.9734845000202768, 2.0767753000254743]",,,3,001,2023-06-12_10h50.42.296,REPSWITCH_1,2022.2.5,59.983720426992804,
REPSWITCH1/PICTURE_687.png,camisa,type,blue,repeat,1,T,3,Stim7_Set3,0,67,67,67,,335.5317215999821,,,,,336.03155539999716,331.28230959997745,332.53327749995515,332.53327749995515,332.53327749995515,332.53327749995515,332.53327749995515,332.53327749995515,332.53327749995515,0.0024850000045262277,1.9997655000188388,"['c', 'a', 'm', 'i', 's', 'a']",0,camisa,D:\GitHub\experiment1\data/3_REPSWITCH_1_2023-06-12_10h50.42.296_micResp_recorded\recording_micResp_2023-06-12_10h56.10.753.wav,335.5317215999821,335.5317215999821,335.5317215999821,335.5317215999821,335.5317215999821,335.5317215999821,"[0.9361064999829978, 1.100818100036122, 1.1585416999878362, 1.5000852000084706, 1.797083700017538, 1.901433699997142]",,,3,001,2023-06-12_10h50.42.296,REPSWITCH_1,2022.2.5,59.983720426992804,
REPSWITCH1/PICTURE_610.png,miel,speak,yellow,filler,2,F,3,Stim7_Set2,0,68,68,68,,340.26383660000283,,,,,,336.03155539999716,337.24901829997543,337.24901829997543,337.24901829997543,337.24901829997543,337.24901829997543,337.24901829997543,337.24901829997543,0.0024521000450477004,2.000013300043065,None,0,,D:\GitHub\experiment1\data/3_REPSWITCH_1_2023-06-12_10h50.42.296_micResp_recorded\recording_micResp_2023-06-12_10h56.15.485.wav,,,,,,,,,,3,001,2023-06-12_10h50.42.296,REPSWITCH_1,2022.2.5,59.983720426992804,
REPSWITCH1/PICTURE_35.png,oreja,speak,yellow,filler,2,F,3,Stim8_Set2,0,69,69,69,,344.89609799999744,,,,,345.3958887999761,340.7636725999764,341.89785889995983,341.89785889995983,341.89785889995983,341.89785889995983,341.89785889995983,341.89785889995983,341.89785889995983,0.002385700005106628,2.0000006000045687,None,0,,D:\GitHub\experiment1\data/3_REPSWITCH_1_2023-06-12_10h50.42.296_micResp_recorded\recording_micResp_2023-06-12_10h56.20.118.wav,344.89609799999744,344.89609799999744,344.89609799999744,344.89609799999744,344.89609799999744,344.89609799999744,,,,3,001,2023-06-12_10h50.42.296,REPSWITCH_1,2022.2.5,59.983720426992804,
REPSWITCH1/PICTURE_719.png,baño,type,blue,nontarget,1,NT,3,Stim8_Set3,0,70,70,70,,349.47795089997817,,,,,,345.3958887999761,346.4786421000026,346.4786421000026,346.4786421000026,346.4786421000026,346.4786421000026,346.4786421000026,346.4786421000026,0.00981399999000132,2.0166310000349768,"['b', 'a', 'o']",0,bao,D:\GitHub\experiment1\data/3_REPSWITCH_1_2023-06-12_10h50.42.296_micResp_recorded\recording_micResp_2023-06-12_10h56.24.699.wav,,,,,,,"[1.093625899986364, 1.1943231000332162, 1.8625730000203475]",,,3,001,2023-06-12_10h50.42.296,REPSWITCH_1,2022.2.5,59.983720426992804,
REPSWITCH1/PICTURE_719.png,baño,type,blue,repeat,1,T,3,Stim8_Set3,0,71,71,71,,354.0936001999653,,,,,354.5938682999695,349.97803219995694,351.09538089996204,351.09538089996204,351.09538089996204,351.09538089996204,351.09538089996204,351.09538089996204,351.09538089996204,0.003039899980649352,1.9999703000066802,"['b', 'a', 'n', 'o']",0,bano,D:\GitHub\experiment1\data/3_REPSWITCH_1_2023-06-12_10h50.42.296_micResp_recorded\recording_micResp_2023-06-12_10h56.29.315.wav,354.0936001999653,354.0936001999653,354.0936001999653,354.0936001999653,354.0936001999653,354.0936001999653,"[0.9981367999571376, 1.0841232999810018, 1.261864100000821, 1.4257847999688238]",,,3,001,2023-06-12_10h50.42.296,REPSWITCH_1,2022.2.5,59.983720426992804,
REPSWITCH1/PICTURE_178.png,puente,speak,yellow,filler,2,F,4,Stim1_Set3,0,72,72,72,,358.72577169997385,,,,,359.225993799977,354.5938682999695,355.7276417000103,355.7276417000103,355.7276417000103,355.7276417000103,355.7276417000103,355.7276417000103,355.7276417000103,0.0027616999577730894,2.000372599984985,None,0,,D:\GitHub\experiment1\data/3_REPSWITCH_1_2023-06-12_10h50.42.296_micResp_recorded\recording_micResp_2023-06-12_10h56.33.948.wav,,,,,,,,,,3,001,2023-06-12_10h50.42.296,REPSWITCH_1,2022.2.5,59.983720426992804,
REPSWITCH1/PICTURE_135.png,traje,type,blue,nontarget,1,NT,4,Stim1_Set4,0,73,73,73,,363.3413015999831,,,,,,359.225993799977,360.32712199998787,360.32712199998787,360.32712199998787,360.32712199998787,360.32712199998787,360.32712199998787,360.32712199998787,0.0037432999815791845,2.000080599973444,"['t', 'r', 'a', 'j', 'e']",0,traje,D:\GitHub\experiment1\data/3_REPSWITCH_1_2023-06-12_10h50.42.296_micResp_recorded\recording_micResp_2023-06-12_10h56.38.562.wav,,,,,,,"[1.0698572000255808, 1.1235904000350274, 1.346594400005415, 1.4863689000485465, 1.5852909000241198]",,,3,001,2023-06-12_10h50.42.296,REPSWITCH_1,2022.2.5,59.983720426992804,
REPSWITCH1/PICTURE_135.png,traje,type,blue,repeat,1,T,4,Stim1_Set4,0,74,74,74,,368.00737720000325,,,,,368.5077462999616,363.84152199997334,365.0092300999677,365.0092300999677,365.0092300999677,365.0092300999677,365.0092300999677,365.0092300999677,365.0092300999677,0.0023745999787934124,2.016133599972818,"['t', 'r', 'a', 'j', 'e']",0,traje,D:\GitHub\experiment1\data/3_REPSWITCH_1_2023-06-12_10h50.42.296_micResp_recorded\recording_micResp_2023-06-12_10h56.43.229.wav,,,,,,,"[0.6825226000510156, 0.8054552000248805, 1.0091827000142075, 1.1930759000242688, 1.3174087000079453]",,,3,001,2023-06-12_10h50.42.296,REPSWITCH_1,2022.2.5,59.983720426992804,
REPSWITCH1/PICTURE_464.png,goma,type,blue,nontarget,1,NT,4,Stim2_Set4,0,75,75,75,,372.6057770999614,,,,,373.10569840000244,368.5077462999616,369.6075382999843,369.6075382999843,369.6075382999843,369.6075382999843,369.6075382999843,369.6075382999843,369.6075382999843,0.0022800000151619315,1.999891400046181,"['g', 'o', 'm', 'a']",0,goma,D:\GitHub\experiment1\data/3_REPSWITCH_1_2023-06-12_10h50.42.296_micResp_recorded\recording_micResp_2023-06-12_10h56.47.828.wav,372.6057770999614,372.6057770999614,372.6057770999614,372.6057770999614,372.6057770999614,372.6057770999614,"[0.9376440999913029, 1.0570455000270158, 1.2575887000421062, 1.3278977000154555]",,,3,001,2023-06-12_10h50.42.296,REPSWITCH_1,2022.2.5,59.983720426992804,
REPSWITCH1/PICTURE_464.png,goma,speak,yellow,switch,2,T,4,Stim2_Set4,0,76,76,76,,377.2212340999977,,,,,377.7215902999742,373.10569840000244,374.2228799999575,374.2228799999575,374.2228799999575,374.2228799999575,374.2228799999575,374.2228799999575,374.2228799999575,0.002373900031670928,2.000956700008828,None,0,,D:\GitHub\experiment1\data/3_REPSWITCH_1_2023-06-12_10h50.42.296_micResp_recorded\recording_micResp_2023-06-12_10h56.52.443.wav,377.2212340999977,377.2212340999977,377.2212340999977,377.2212340999977,377.2212340999977,377.2212340999977,,,,3,001,2023-06-12_10h50.42.296,REPSWITCH_1,2022.2.5,59.983720426992804,
REPSWITCH1/PICTURE_242.png,cartero,type,blue,filler,1,F,4,Stim2_Set3,0,77,77,77,,381.8202001999598,,,,,382.3205348000047,377.7215902999742,378.8218402999919,378.8218402999919,378.8218402999919,378.8218402999919,378.8218402999919,378.8218402999919,378.8218402999919,0.002523800008930266,1.999598199967295,"['p', 'o', 's', 't', 's', 'm', 'a', 'n']",0,postsman,D:\GitHub\experiment1\data/3_REPSWITCH_1_2023-06-12_10h50.42.296_micResp_recorded\recording_micResp_2023-06-12_10h56.57.042.wav,381.8202001999598,381.8202001999598,381.8202001999598,381.8202001999598,381.8202001999598,381.8202001999598,"[0.9723257000441663, 1.0860329000279307, 1.2490345000405796, 1.3492947000195272, 1.4338646000251174, 1.5935218000086024, 1.7268403000198305, 2.2191975000314415]",,,3,001,2023-06-12_10h50.42.296,REPSWITCH_1,2022.2.5,59.983720426992804,
REPSWITCH1/PICTURE_48.png,bombero,type,blue,filler,1,F,4,Stim3_Set3,0,78,78,78,,386.63562650000677,,,,,387.1356059999671,382.3205348000047,383.6374136999948,383.6374136999948,383.6374136999948,383.6374136999948,383.6374136999948,383.6374136999948,383.6374136999948,0.002713099995162338,2.000097799987998,"['b', 'o', 'm', 'b', 'e', 'r', 'o']",0,bombero,D:\GitHub\experiment1\data/3_REPSWITCH_1_2023-06-12_10h50.42.296_micResp_recorded\recording_micResp_2023-06-12_10h57.01.858.wav,386.63562650000677,386.63562650000677,386.63562650000677,386.63562650000677,386.63562650000677,386.63562650000677,"[1.0318376999930479, 1.1113998999935575, 1.3237408000277355, 1.3751797000295483, 1.4744481000234373, 1.6278088000253774, 1.6617642000201158]",,,3,001,2023-06-12_10h50.42.296,REPSWITCH_1,2022.2.5,59.983720426992804,
REPSWITCH1/PICTURE_381.png,fresa,speak,yellow,nontarget,2,NT,4,Stim3_Set4,0,79,79,79,,391.2014701999724,,,,,,387.1356059999671,388.18697049998445,388.18697049998445,388.18697049998445,388.18697049998445,388.18697049998445,388.18697049998445,388.18697049998445,0.003077999979723245,1.9997217999771237,None,0,,D:\GitHub\experiment1\data/3_REPSWITCH_1_2023-06-12_10h50.42.296_micResp_recorded\recording_micResp_2023-06-12_10h57.06.422.wav,,,,,,,,,,3,001,2023-06-12_10h50.42.296,REPSWITCH_1,2022.2.5,59.983720426992804,
REPSWITCH1/PICTURE_381.png,fresa,speak,yellow,repeat,2,T,4,Stim3_Set4,0,80,80,80,,395.783605500008,,,,,,391.70123279996915,392.7690952999983,392.7690952999983,392.7690952999983,392.7690952999983,392.7690952999983,392.7690952999983,392.7690952999983,0.0028226000140421093,2.000016500009224,None,0,,D:\GitHub\experiment1\data/3_REPSWITCH_1_2023-06-12_10h50.42.296_micResp_recorded\recording_micResp_2023-06-12_10h57.11.005.wav,,,,,,,,,,3,001,2023-06-12_10h50.42.296,REPSWITCH_1,2022.2.5,59.983720426992804,
REPSWITCH1/PICTURE_546.png,puerta,speak,yellow,nontarget,2,NT,4,Stim4_Set4,0,81,81,81,,400.46621869999217,,,,,,396.28356760001043,397.4510691000032,397.4510691000032,397.4510691000032,397.4510691000032,397.4510691000032,397.4510691000032,397.4510691000032,0.0022876999573782086,2.000058599980548,None,0,,D:\GitHub\experiment1\data/3_REPSWITCH_1_2023-06-12_10h50.42.296_micResp_recorded\recording_micResp_2023-06-12_10h57.15.687.wav,,,,,,,,,,3,001,2023-06-12_10h50.42.296,REPSWITCH_1,2022.2.5,59.983720426992804,
REPSWITCH1/PICTURE_546.png,puerta,type,blue,switch,1,T,4,Stim4_Set4,0,82,82,82,,405.06540039996617,,,,,405.5644583000103,400.9657676999923,402.06659030000446,402.06659030000446,402.06659030000446,402.06659030000446,402.06659030000446,402.06659030000446,402.06659030000446,0.0021938999998383224,2.000698499963619,"['p', 'u', 'e', 'r', 't', 'a']",0,puerta,D:\GitHub\experiment1\data/3_REPSWITCH_1_2023-06-12_10h50.42.296_micResp_recorded\recording_micResp_2023-06-12_10h57.20.286.wav,,,,,,,"[1.1161917999852449, 1.3740747999981977, 1.409425400022883, 1.5540987999993376, 1.7340844999998808, 1.8975588000030257]",,,3,001,2023-06-12_10h50.42.296,REPSWITCH_1,2022.2.5,59.983720426992804,
REPSWITCH1/PICTURE_728.png,pulpo,speak,yellow,filler,2,F,4,Stim4_Set3,0,83,83,83,,409.74704359995667,,,,,410.2470956000034,405.5644583000103,406.7489353999845,406.7489353999845,406.7489353999845,406.7489353999845,406.7489353999845,406.7489353999845,406.7489353999845,0.002522299997508526,2.000250999990385,None,0,,D:\GitHub\experiment1\data/3_REPSWITCH_1_2023-06-12_10h50.42.296_micResp_recorded\recording_micResp_2023-06-12_10h57.24.968.wav,,,,,,,,,,3,001,2023-06-12_10h50.42.296,REPSWITCH_1,2022.2.5,59.983720426992804,
REPSWITCH1/PICTURE_636.png,oveja,type,blue,nontarget,1,NT,4,Stim5_Set4,0,84,84,84,,414.3127742999932,,,,,414.8127579999855,410.2470956000034,411.3142521000118,411.3142521000118,411.3142521000118,411.3142521000118,411.3142521000118,411.3142521000118,411.3142521000118,0.0027006000163964927,1.9995744000189006,"['o', 'v', 'e', 'j', 'a']",0,oveja,D:\GitHub\experiment1\data/3_REPSWITCH_1_2023-06-12_10h50.42.296_micResp_recorded\recording_micResp_2023-06-12_10h57.29.534.wav,414.3127742999932,414.3127742999932,414.3127742999932,414.3127742999932,414.3127742999932,414.3127742999932,"[1.0254127999651246, 1.2139272000058554, 1.3173691999982111, 1.4508639000123367, 1.6068823999958113]",,,3,001,2023-06-12_10h50.42.296,REPSWITCH_1,2022.2.5,59.983720426992804,
REPSWITCH1/PICTURE_636.png,oveja,speak,yellow,switch,2,T,4,Stim5_Set4,0,85,85,85,,418.97815350000747,,,,,419.4778423999669,414.8127579999855,415.97961689997464,415.97961689997464,415.97961689997464,415.97961689997464,415.97961689997464,415.97961689997464,415.97961689997464,0.0025535000022500753,1.9999397000065073,None,0,,D:\GitHub\experiment1\data/3_REPSWITCH_1_2023-06-12_10h50.42.296_micResp_recorded\recording_micResp_2023-06-12_10h57.34.199.wav,418.97815350000747,418.97815350000747,418.97815350000747,418.97815350000747,418.97815350000747,418.97815350000747,,,,3,001,2023-06-12_10h50.42.296,REPSWITCH_1,2022.2.5,59.983720426992804,
REPSWITCH1/PICTURE_545.png,braga,speak,yellow,nontarget,2,NT,4,Stim6_Set4,0,86,86,86,,423.74358790001133,,,,,424.24403569998685,419.4778423999669,420.7456931999768,420.7456931999768,420.7456931999768,420.7456931999768,420.7456931999768,420.7456931999768,420.7456931999768,0.002421800047159195,2.00070410000626,None,0,,D:\GitHub\experiment1\data/3_REPSWITCH_1_2023-06-12_10h50.42.296_micResp_recorded\recording_micResp_2023-06-12_10h57.38.965.wav,,,,,,,,,,3,001,2023-06-12_10h50.42.296,REPSWITCH_1,2022.2.5,59.983720426992804,
REPSWITCH1/PICTURE_545.png,braga,speak,yellow,repeat,2,T,4,Stim6_Set4,0,87,87,87,,428.3759720000089,,,,,,424.24403569998685,425.36134399997536,425.36134399997536,425.36134399997536,425.36134399997536,425.36134399997536,425.36134399997536,425.36134399997536,0.0024110000231303275,2.000375500007067,None,0,,D:\GitHub\experiment1\data/3_REPSWITCH_1_2023-06-12_10h50.42.296_micResp_recorded\recording_micResp_2023-06-12_10h57.43.597.wav,,,,,,,,,,3,001,2023-06-12_10h50.42.296,REPSWITCH_1,2022.2.5,59.983720426992804,
REPSWITCH1/PICTURE_552.png,manzana,type,blue,filler,1,F,4,Stim5_Set3,0,88,88,88,,433.0081174999941,,,,,,428.8761302999919,429.99357519997284,429.99357519997284,429.99357519997284,429.99357519997284,429.99357519997284,429.99357519997284,429.99357519997284,0.002632100018672645,2.0167305000359192,"['m', 'a', 'n', 'z', 'n', 'backspace']",0,manz,D:\GitHub\experiment1\data/3_REPSWITCH_1_2023-06-12_10h50.42.296_micResp_recorded\recording_micResp_2023-06-12_10h57.48.230.wav,,,,,,,"[1.0906532000517473, 1.2236931000370532, 1.4238229000475258, 1.832029900047928, 2.08390570001211, 2.917892800003756]",,,3,001,2023-06-12_10h50.42.296,REPSWITCH_1,2022.2.5,59.983720426992804,
REPSWITCH1/PICTURE_576.png,guante,speak,yellow,filler,2,F,4,Stim6_Set3,0,89,89,89,,437.72368709999137,,,,,438.2237244999851,433.5079761999659,434.7252600999782,434.7252600999782,434.7252600999782,434.7252600999782,434.7252600999782,434.7252600999782,434.7252600999782,0.0024551000096835196,2.000461500021629,None,0,,D:\GitHub\experiment1\data/3_REPSWITCH_1_2023-06-12_10h50.42.296_micResp_recorded\recording_micResp_2023-06-12_10h57.52.945.wav,,,,,,,,,,3,001,2023-06-12_10h50.42.296,REPSWITCH_1,2022.2.5,59.983720426992804,
REPSWITCH1/PICTURE_687.png,camisa,type,blue,filler,1,F,4,Stim7_Set3,0,90,90,90,,442.28902659995947,,,,,,438.2237244999851,439.2744501999696,439.2744501999696,439.2744501999696,439.2744501999696,439.2744501999696,439.2744501999696,439.2744501999696,0.002283399982843548,1.9999794000177644,"['c', 'a', 'm', 'i', 'a', 'backspace', 's', 'a']",0,camisa,D:\GitHub\experiment1\data/3_REPSWITCH_1_2023-06-12_10h50.42.296_micResp_recorded\recording_micResp_2023-06-12_10h57.57.511.wav,,,,,,,"[1.1564693999825977, 1.3029393999604508, 1.370247799961362, 1.494195299979765, 1.7111892999964766, 2.2939213999779895, 2.425534299982246, 2.645451999967918]",,,3,001,2023-06-12_10h50.42.296,REPSWITCH_1,2022.2.5,59.983720426992804,
REPSWITCH1/PICTURE_8.png,pierna,speak,yellow,nontarget,2,NT,4,Stim7_Set4,0,91,91,91,,447.0380850000074,,,,,,442.7888424999546,444.02358149999054,444.02358149999054,444.02358149999054,444.02358149999054,444.02358149999054,444.02358149999054,444.02358149999054,0.002360299986321479,2.0166827000211924,None,0,,D:\GitHub\experiment1\data/3_REPSWITCH_1_2023-06-12_10h50.42.296_micResp_recorded\recording_micResp_2023-06-12_10h58.02.259.wav,,,,,,,,,,3,001,2023-06-12_10h50.42.296,REPSWITCH_1,2022.2.5,59.983720426992804,
REPSWITCH1/PICTURE_8.png,pierna,type,blue,switch,1,T,4,Stim7_Set4,0,92,92,92,,451.8535527999629,,,,,452.3535773999756,447.5377179000061,448.85515789996134,448.85515789996134,448.85515789996134,448.85515789996134,448.85515789996134,448.85515789996134,448.85515789996134,0.002301700005773455,1.9992344000493176,"['p', 'i', 'e', 'r', 'n', 'a']",0,pierna,D:\GitHub\experiment1\data/3_REPSWITCH_1_2023-06-12_10h50.42.296_micResp_recorded\recording_micResp_2023-06-12_10h58.07.075.wav,451.8535527999629,451.8535527999629,451.8535527999629,451.8535527999629,451.8535527999629,451.8535527999629,"[0.9085122999968007, 1.0841366999666207, 1.1180556999752298, 1.2761992999585345, 1.3827693999628536, 1.8749521999852732]",,,3,001,2023-06-12_10h50.42.296,REPSWITCH_1,2022.2.5,59.983720426992804,
REPSWITCH1/PICTURE_719.png,baño,speak,yellow,filler,1,F,4,Stim8_Set3,0,93,93,93,,456.4024821000057,,,,,456.9027347000083,452.3535773999756,453.4041216999758,453.4041216999758,453.4041216999758,453.4041216999758,453.4041216999758,453.4041216999758,453.4041216999758,0.002968000015243888,1.9994651000015438,None,0,,D:\GitHub\experiment1\data/3_REPSWITCH_1_2023-06-12_10h50.42.296_micResp_recorded\recording_micResp_2023-06-12_10h58.11.625.wav,456.4024821000057,456.4024821000057,456.4024821000057,456.4024821000057,456.4024821000057,456.4024821000057,,,,3,001,2023-06-12_10h50.42.296,REPSWITCH_1,2022.2.5,59.983720426992804,
REPSWITCH1/PICTURE_91.png,boca,type,blue,nontarget,1,NT,4,Stim8_Set4,0,94,94,94,,460.9680640999577,,,,,461.46795069996733,456.9027347000083,457.97001920000184,457.97001920000184,457.97001920000184,457.97001920000184,457.97001920000184,457.97001920000184,457.97001920000184,0.0028452000115066767,2.000026000023354,"['b', 'o', 'c', 'a']",0,boca,D:\GitHub\experiment1\data/3_REPSWITCH_1_2023-06-12_10h50.42.296_micResp_recorded\recording_micResp_2023-06-12_10h58.16.190.wav,460.9680640999577,460.9680640999577,460.9680640999577,460.9680640999577,460.9680640999577,460.9680640999577,"[0.9581179000088014, 1.0938140000216663, 1.2893851000117138, 1.431075000029523]",,,3,001,2023-06-12_10h50.42.296,REPSWITCH_1,2022.2.5,59.983720426992804,
REPSWITCH1/PICTURE_91.png,boca,type,blue,repeat,1,T,4,Stim8_Set4,0,95,95,95,,465.7831623000093,,,,,,461.46795069996733,462.7686884999857,462.7686884999857,462.7686884999857,462.7686884999857,462.7686884999857,462.7686884999857,462.7686884999857,0.0026919000083580613,2.0000677999923937,"['v', 'o', 'a', 'b', 'backspace', 'backspace', 'backspace', 'backspace', 'b', 'o']",0,bo,D:\GitHub\experiment1\data/3_REPSWITCH_1_2023-06-12_10h50.42.296_micResp_recorded\recording_micResp_2023-06-12_10h58.21.005.wav,,,,,,,"[0.6872628999990411, 0.8602763000526465, 1.1577324999962002, 1.4248110000044107, 1.9665312000433914, 2.1138018000056036, 2.2702389000332914, 2.417931400006637, 2.869400100025814, 2.9400213000481017]",,,3,001,2023-06-12_10h50.42.296,REPSWITCH_1,2022.2.5,59.983720426992804,
,,,,,,,,,,,,,,486.778581999999,,,,,,,,,,,,,,,,,,,,,,,,,,,466.78472900000634,487.2787810000009,,,,,,,
