image,correctAns,respModal,frameColor,repSwitch,sequence,target,set,stimulus,order,psychopy_order,trialsREPSWITCH.thisRepN,trialsREPSWITCH.thisTrialN,trialsREPSWITCH.thisN,trialsREPSWITCH.thisIndex,textWelcome.started,textBlank500.started,textboxInstrMain1.started,textboxInstrMain1_2.started,textboxInstrMain1_3.started,keyInstrMain.started,keyInstrMain.keys,keyInstrMain.rt,textboxInstrMain2.started,textboxInstrMain2_2.started,textboxInstrMain2_3.started,textboxInstrMain2_4.started,textboxInstrMain2_5.started,textboxInstrMain2_6.started,textboxInstrMain2_7.started,textboxInstrMain2_8.started,textboxInstrMain2_9.started,textboxInstrMain2_10.started,textboxInstrMain2_11.started,textboxInstrMain2_12.started,keyInstrMain2.started,keyInstrMain2.keys,keyInstrMain2.rt,textBlank500.stopped,fixationITI.started,fixationITI.stopped,polygonColour.started,polygonWhite.started,imageObject.started,polygonType.started,textInput.started,keyResp.started,micResp.started,keyResp.keys,keyResp.corr,subjResponse,keyPause.keys,keyResp.rt,polygonColour.stopped,polygonWhite.stopped,imageObject.stopped,polygonType.stopped,textInput.stopped,keyResp.stopped,micResp.stopped,textboxPause.started,keyPause.started,textboxPause.stopped,keyPause.rt,participant,session,date,expName,psychopyVersion,frameRate,
,,,,,,,,,,,,,,,12.69898460013792,14.71277890005149,15.213018600130454,15.213018600130454,15.213018600130454,15.213018600130454,space,0.533613899955526,,,,,,,,,,,,,,,,,,,,,,,,,,,,,,,,,,,,,,,,,,585247,001,2023-07-03_15h44.23.767,REPSWITCH1_v2022.2.4,2022.2.4,60.00081604525178,
,,,,,,,,,,,,,,,,,,,,,,,15.794918300118297,15.794918300118297,15.794918300118297,15.794918300118297,15.794918300118297,15.794918300118297,15.794918300118297,15.794918300118297,15.794918300118297,15.794918300118297,15.794918300118297,15.794918300118297,15.794918300118297,space,0.6863961999770254,,,,,,,,,,,,,,,,,,,,,,,,,,,585247,001,2023-07-03_15h44.23.767,REPSWITCH1_v2022.2.4,2022.2.4,60.00081604525178,
REPSWITCH1/PICTURE_178.png,puente,speak,yellow,nontarget,2,NT,1,Stim1_Set1,1,0,0,0,0,0,,21.477683100150898,,,,,,,,,,,,,,,,,,,,,,17.127630000002682,17.127630000002682,18.495112400036305,18.495112400036305,18.495112400036305,18.495112400036305,18.495112400036305,18.495112400036305,18.495112400036305,0.0034532998688519,None,0,,None,,,,,,,,,,,,,585247,001,2023-07-03_15h44.23.767,REPSWITCH1_v2022.2.4,2022.2.4,60.00081604525178,
REPSWITCH1/PICTURE_178.png,puente,speak,yellow,repeat,2,T,1,Stim1_Set1,2,1,0,1,1,1,,26.110229500103742,,,,,,,,,,,,,,,,,,,,,,,21.978043999988586,23.110916499979794,23.110916499979794,23.110916499979794,23.110916499979794,23.110916499979794,23.110916499979794,23.110916499979794,0.002668699948117137,None,0,,None,,,,,,,,,,,,,585247,001,2023-07-03_15h44.23.767,REPSWITCH1_v2022.2.4,2022.2.4,60.00081604525178,
REPSWITCH1/PICTURE_319.png,vaca,type,darkblue,filler,1,F,1,Stim1_Set4,3,2,0,2,2,2,,30.859023500001058,,,,,,,,,,,,,,,,,,,,,,,26.61010539997369,27.85973470006138,27.85973470006138,27.85973470006138,27.85973470006138,27.85973470006138,27.85973470006138,27.85973470006138,0.0022984000388532877,"['v', 'v', 'a', 'c', 'a']",0,vvaca,None,"[1.0357878999784589, 1.1158636999316514, 1.3764716999139637, 1.5054683000780642, 1.621727199992165]",,,,,,,,,,,,585247,001,2023-07-03_15h44.23.767,REPSWITCH1_v2022.2.4,2022.2.4,60.00081604525178,
REPSWITCH1/PICTURE_142.png,vaso,speak,yellow,nontarget,2,NT,1,Stim2_Set1,4,3,0,3,3,3,,35.541433500126004,,,,,,,,,,,,,,,,,,,,,,,31.358978900127113,32.542089299997315,32.542089299997315,32.542089299997315,32.542089299997315,32.542089299997315,32.542089299997315,32.542089299997315,0.0022197000216692686,None,0,,None,,,,,,,,,,,,,585247,001,2023-07-03_15h44.23.767,REPSWITCH1_v2022.2.4,2022.2.4,60.00081604525178,
REPSWITCH1/PICTURE_142.png,vaso,speak,yellow,repeat,2,T,1,Stim2_Set1,5,4,0,4,4,4,,40.2403216001112,,,,,,,,,,,,,,,,,,,,,,40.740020600147545,36.040794000029564,37.24219619994983,37.24219619994983,37.24219619994983,37.24219619994983,37.24219619994983,37.24219619994983,37.24219619994983,0.0021738000214099884,None,0,,None,,,,,,,,,,,,,585247,001,2023-07-03_15h44.23.767,REPSWITCH1_v2022.2.4,2022.2.4,60.00081604525178,
REPSWITCH1/PICTURE_719.png,baño,type,darkblue,filler,1,F,1,Stim2_Set4,6,5,0,5,5,5,,44.855884599965066,,,,,,,,,,,,,,,,,,,,,,,40.740020600147545,41.8565156001132,41.8565156001132,41.8565156001132,41.8565156001132,41.8565156001132,41.8565156001132,41.8565156001132,0.0029018998611718416,"['b', 'a', 'n', 'o']",0,bano,None,"[0.8907812999095768, 0.974239100003615, 1.128855599788949, 1.5185882998630404]",,,,,,,,,,,,585247,001,2023-07-03_15h44.23.767,REPSWITCH1_v2022.2.4,2022.2.4,60.00081604525178,
REPSWITCH1/PICTURE_135.png,traje,speak,yellow,nontarget,2,NT,1,Stim3_Set1,7,6,0,6,6,6,,49.48806839995086,,,,,,,,,,,,,,,,,,,,,,49.98768260003999,45.35566519992426,46.48974089999683,46.48974089999683,46.48974089999683,46.48974089999683,46.48974089999683,46.48974089999683,46.48974089999683,0.002404300030320883,None,0,,None,,,,,,,,,,,,,585247,001,2023-07-03_15h44.23.767,REPSWITCH1_v2022.2.4,2022.2.4,60.00081604525178,
REPSWITCH1/PICTURE_135.png,traje,type,darkblue,switch,1,T,1,Stim3_Set1,8,7,0,7,7,7,,54.15331039996818,,,,,,,,,,,,,,,,,,,,,,54.653437700122595,49.98768260003999,51.17076859995723,51.17076859995723,51.17076859995723,51.17076859995723,51.17076859995723,51.17076859995723,51.17076859995723,0.002301800064742565,"['t', 'r', 'h', 'backspace', 'a', 'j', 'e']",0,traje,None,"[0.3859260999597609, 0.4663257000502199, 0.6556751001626253, 1.177507400047034, 1.3609311999753118, 1.5389805999584496, 1.670541699975729]",,,,,,,,,,,,585247,001,2023-07-03_15h44.23.767,REPSWITCH1_v2022.2.4,2022.2.4,60.00081604525178,
REPSWITCH1/PICTURE_128.png,muñeca,type,darkblue,nontarget,1,NT,1,Stim4_Set1,9,8,0,8,8,8,,58.936138099990785,,,,,,,,,,,,,,,,,,,,,,,54.653437700122595,55.9362580999732,55.9362580999732,55.9362580999732,55.9362580999732,55.9362580999732,55.9362580999732,55.9362580999732,0.0023979998659342527,"['m', 'u', 'n', 'e', 'c', 'a']",0,muneca,None,"[0.7825172999873757, 0.9959728999529034, 1.173613099846989, 1.2875663999002427, 1.4685714000370353, 1.5800736998207867]",,,,,,,,,,,,585247,001,2023-07-03_15h44.23.767,REPSWITCH1_v2022.2.4,2022.2.4,60.00081604525178,
REPSWITCH1/PICTURE_128.png,muñeca,speak,yellow,switch,2,T,1,Stim4_Set1,10,9,0,9,9,9,,63.56783690000884,,,,,,,,,,,,,,,,,,,,,,,59.43554019997828,60.56871860008687,60.56871860008687,60.56871860008687,60.56871860008687,60.56871860008687,60.56871860008687,60.56871860008687,0.0025349000934511423,None,0,,None,,,,,,,,,,,,,585247,001,2023-07-03_15h44.23.767,REPSWITCH1_v2022.2.4,2022.2.4,60.00081604525178,
REPSWITCH1/PICTURE_8.png,pierna,speak,yellow,filler,2,F,1,Stim3_Set4,11,10,0,10,10,10,,68.2501079000067,,,,,,,,,,,,,,,,,,,,,,68.74970080005005,64.06779829994775,65.26752580003813,65.26752580003813,65.26752580003813,65.26752580003813,65.26752580003813,65.26752580003813,65.26752580003813,0.0021522000897675753,None,0,,None,,,,,,,,,,,,,585247,001,2023-07-03_15h44.23.767,REPSWITCH1_v2022.2.4,2022.2.4,60.00081604525178,
REPSWITCH1/PICTURE_19.png,pavo,speak,yellow,nontarget,2,NT,1,Stim5_Set1,12,11,0,11,11,11,,72.89874009997584,,,,,,,,,,,,,,,,,,,,,,,68.74970080005005,69.89947780012153,69.89947780012153,69.89947780012153,69.89947780012153,69.89947780012153,69.89947780012153,69.89947780012153,0.0032776000443845987,None,0,,None,,,,,,,,,,,,,585247,001,2023-07-03_15h44.23.767,REPSWITCH1_v2022.2.4,2022.2.4,60.00081604525178,
REPSWITCH1/PICTURE_19.png,pavo,type,darkblue,switch,1,T,1,Stim5_Set1,13,12,0,12,12,12,,77.6479325001128,,,,,,,,,,,,,,,,,,,,,,,73.39942610007711,74.64833050011657,74.64833050011657,74.64833050011657,74.64833050011657,74.64833050011657,74.64833050011657,74.64833050011657,0.0044450000859797,"['p', 'a', 'v', 'o']",0,pavo,None,"[0.8677697998937219, 1.1417133999057114, 1.3721349998377264, 1.4977891000453383]",,,,,,,,,,,,585247,001,2023-07-03_15h44.23.767,REPSWITCH1_v2022.2.4,2022.2.4,60.00081604525178,
REPSWITCH1/PICTURE_498.png,taza,speak,yellow,filler,2,F,1,Stim4_Set4,14,13,0,13,13,13,,82.29673580010422,,,,,,,,,,,,,,,,,,,,,,,78.14800560008734,79.29715150012635,79.29715150012635,79.29715150012635,79.29715150012635,79.29715150012635,79.29715150012635,79.29715150012635,0.002323700115084648,None,0,,None,,,,,,,,,,,,,585247,001,2023-07-03_15h44.23.767,REPSWITCH1_v2022.2.4,2022.2.4,60.00081604525178,
REPSWITCH1/PICTURE_16.png,cazador,type,darkblue,nontarget,1,NT,1,Stim6_Set1,15,14,0,14,14,14,,87.0289003001526,,,,,,,,,,,,,,,,,,,,,,,82.79676460009068,84.02962650009431,84.02962650009431,84.02962650009431,84.02962650009431,84.02962650009431,84.02962650009431,84.02962650009431,0.004182400181889534,"['c', 'a', 'z', 'a', 'd', 'o', 'r']",0,cazador,None,"[0.9923477000556886, 1.0648893001489341, 1.3529246000107378, 1.5759410001337528, 1.7055651999544352, 2.0696266000159085, 2.4374158000573516]",,,,,,,,,,,,585247,001,2023-07-03_15h44.23.767,REPSWITCH1_v2022.2.4,2022.2.4,60.00081604525178,
REPSWITCH1/PICTURE_16.png,cazador,type,darkblue,repeat,1,T,1,Stim6_Set1,16,15,0,15,15,15,,91.67774330009706,,,,,,,,,,,,,,,,,,,,,,,87.52850110013969,88.6783295001369,88.6783295001369,88.6783295001369,88.6783295001369,88.6783295001369,88.6783295001369,88.6783295001369,0.002704800106585026,"['c', 'a', 'z', 'a', 'd', 'o', 'r']",0,cazador,None,"[0.7520542999263853, 0.8696348001249135, 1.3106400999240577, 1.4433389001060277, 1.634366299957037, 1.8131599000189453, 1.9917707000859082]",,,,,,,,,,,,585247,001,2023-07-03_15h44.23.767,REPSWITCH1_v2022.2.4,2022.2.4,60.00081604525178,
REPSWITCH1/PICTURE_687.png,camisa,speak,yellow,filler,2,F,1,Stim5_Set4,17,16,0,16,16,16,,96.39333270001225,,,,,,,,,,,,,,,,,,,,,,,92.17733450001106,93.3788676999975,93.3788676999975,93.3788676999975,93.3788676999975,93.3788676999975,93.3788676999975,93.3788676999975,0.0023699000012129545,None,0,,None,,,,,,,,,,,,,585247,001,2023-07-03_15h44.23.767,REPSWITCH1_v2022.2.4,2022.2.4,60.00081604525178,
REPSWITCH1/PICTURE_142.png,vaso,type,darkblue,nontarget,1,NT,1,Stim7_Set1,18,17,0,17,17,17,,101.05892039998434,,,,,,,,,,,,,,,,,,,,,,,96.89343519997783,98.05986139993183,98.05986139993183,98.05986139993183,98.05986139993183,98.05986139993183,98.05986139993183,98.05986139993183,0.002229600213468075,"['v', 'a', 's', 'o']",0,vaso,None,"[0.7905198000371456, 0.9175414000637829, 1.1624646000564098, 1.2990220000501722]",,,,,,,,,,,,585247,001,2023-07-03_15h44.23.767,REPSWITCH1_v2022.2.4,2022.2.4,60.00081604525178,
REPSWITCH1/PICTURE_142.png,vaso,type,darkblue,repeat,1,T,1,Stim7_Set1,19,18,0,18,18,18,,105.78983679995872,,,,,,,,,,,,,,,,,,,,,,,101.55906790005974,102.776161900023,102.776161900023,102.776161900023,102.776161900023,102.776161900023,102.776161900023,102.776161900023,0.002490099985152483,"['v', 'a', 's', 'o']",0,vaso,None,"[0.6271477998234332, 0.7844758999999613, 0.9248323999345303, 1.0628549999091774]",105.78983679995872,105.78983679995872,105.78983679995872,105.78983679995872,105.78983679995872,105.78983679995872,2.9998178998939693,,,,,585247,001,2023-07-03_15h44.23.767,REPSWITCH1_v2022.2.4,2022.2.4,60.00081604525178,
REPSWITCH1/PICTURE_338.png,regalo,speak,yellow,filler,2,F,1,Stim6_Set4,20,19,0,19,19,19,,110.35699809994549,,,,,,,,,,,,,,,,,,,,,,,106.29064869997092,107.3419067999348,107.3419067999348,107.3419067999348,107.3419067999348,107.3419067999348,107.3419067999348,107.3419067999348,0.0027179999742656946,None,0,,None,,,,,,,,,,,,,585247,001,2023-07-03_15h44.23.767,REPSWITCH1_v2022.2.4,2022.2.4,60.00081604525178,
REPSWITCH1/PICTURE_169.png,espalda,type,darkblue,nontarget,1,NT,1,Stim8_Set1,21,20,0,20,20,20,,114.92218929994851,,,,,,,,,,,,,,,,,,,,,,,110.85652010003105,111.92264669993892,111.92264669993892,111.92264669993892,111.92264669993892,111.92264669993892,111.92264669993892,111.92264669993892,0.0022698999382555485,"['e', 's', 'p', 'a', 'l', 'd', 'a']",0,espalda,None,"[1.0772273000329733, 1.252790000056848, 1.3910809999797493, 1.440829100087285, 1.6347228998783976, 1.8101915998850018, 1.8834442000370473]",,,,,,,,,,,,585247,001,2023-07-03_15h44.23.767,REPSWITCH1_v2022.2.4,2022.2.4,60.00081604525178,
REPSWITCH1/PICTURE_169.png,espalda,speak,yellow,switch,2,T,1,Stim8_Set1,22,21,0,21,21,21,,119.55441710003652,,,,,,,,,,,,,,,,,,,,,,120.05450710002333,115.42206520005129,116.55642200005241,116.55642200005241,116.55642200005241,116.55642200005241,116.55642200005241,116.55642200005241,116.55642200005241,0.002293699886649847,None,0,,None,,,,,,,,,,,,,585247,001,2023-07-03_15h44.23.767,REPSWITCH1_v2022.2.4,2022.2.4,60.00081604525178,
REPSWITCH1/PICTURE_48.png,bombero,type,darkblue,filler,1,F,1,Stim7_Set4,23,22,0,22,22,22,,124.25183740002103,,,,,,,,,,,,,,,,,,,,,,,120.05450710002333,121.23849090002477,121.23849090002477,121.23849090002477,121.23849090002477,121.23849090002477,121.23849090002477,121.23849090002477,0.002450800035148859,"['b', 'o', 'm', 'b', 'e', 'r', 'o']",0,bombero,None,"[0.9907160000875592, 1.0980276002082974, 1.3345237001776695, 1.4331203000620008, 1.4915859000757337, 1.639105300186202, 1.7076470002066344]",124.25183740002103,124.25183740002103,124.25183740002103,124.25183740002103,124.25183740002103,124.25183740002103,2.999931500060484,,,,,585247,001,2023-07-03_15h44.23.767,REPSWITCH1_v2022.2.4,2022.2.4,60.00081604525178,
REPSWITCH1/PICTURE_728.png,pulpo,type,darkblue,filler,1,F,1,Stim8_Set4,24,23,0,23,23,23,,128.8521630000323,,,,,,,,,,,,,,,,,,,,,,,124.75292630004697,125.83747859997675,125.83747859997675,125.83747859997675,125.83747859997675,125.83747859997675,125.83747859997675,125.83747859997675,0.002332399832084775,"['p', 'u', 'l', 'p', 'o']",0,pulpo,None,"[0.8445662001613528, 1.0766547000966966, 1.4479755000211298, 1.5911934000905603, 1.710795700084418]",,,,,,,,,,,,585247,001,2023-07-03_15h44.23.767,REPSWITCH1_v2022.2.4,2022.2.4,60.00081604525178,
REPSWITCH1/PICTURE_178.png,puente,speak,yellow,filler,2,F,2,Stim1_Set1,25,24,0,24,24,24,,133.69981279992498,,,,,,,,,,,,,,,,,,,,,,,129.3523146000225,130.68638440012,130.68638440012,130.68638440012,130.68638440012,130.68638440012,130.68638440012,130.68638440012,0.002669599838554859,"['p', 'u', 'n', 'e', 'backspace', 'backspace', 'e', 'n', 't', 'e']",0,puente,None,"[0.7878131999168545, 0.9829172999598086, 1.228670199867338, 1.608839499996975, 1.8996392998378724, 2.056172699900344, 2.261521899839863, 2.4008344998583198, 2.5069068998564035, 2.599265499971807]",133.69981279992498,133.69981279992498,133.69981279992498,133.69981279992498,133.69981279992498,133.69981279992498,2.9998920999933034,,,,,585247,001,2023-07-03_15h44.23.767,REPSWITCH1_v2022.2.4,2022.2.4,60.00081604525178,
REPSWITCH1/PICTURE_175.png,pintor,type,darkblue,nontarget,1,NT,2,Stim1_Set2,26,25,0,25,25,25,,138.31635039998218,,,,,,,,,,,,,,,,,,,,,,138.81629410013556,134.20107990014367,135.31855650013313,135.31855650013313,135.31855650013313,135.31855650013313,135.31855650013313,135.31855650013313,135.31855650013313,0.002791900187730789,"['i', 'n', 't', 'o', 'r']",0,intor,None,"[0.9419956998899579, 1.1991401999257505, 1.3345067000482231, 1.5265474000480026, 1.6417902999091893]",,,,,,,,,,,,585247,001,2023-07-03_15h44.23.767,REPSWITCH1_v2022.2.4,2022.2.4,60.00081604525178,
REPSWITCH1/PICTURE_175.png,pintor,type,darkblue,repeat,1,T,2,Stim1_Set2,27,26,0,26,26,26,,142.94881440000609,,,,,,,,,,,,,,,,,,,,,,143.4485218001064,138.81629410013556,139.96607200009748,139.96607200009748,139.96607200009748,139.96607200009748,139.96607200009748,139.96607200009748,139.96607200009748,0.0030115998815745115,"['p', 'i', 'n', 't', 'o', 'r']",0,pintor,None,"[0.43724519992247224, 0.9325987999327481, 1.128202199935913, 1.225309900008142, 1.3403729998972267, 1.4369568000547588]",,,,,,,,,,,,585247,001,2023-07-03_15h44.23.767,REPSWITCH1_v2022.2.4,2022.2.4,60.00081604525178,
REPSWITCH1/PICTURE_142.png,vaso,speak,yellow,filler,2,F,2,Stim2_Set1,28,27,0,27,27,27,,147.71443920000456,,,,,,,,,,,,,,,,,,,,,,,143.4485218001064,144.7148204999976,144.7148204999976,144.7148204999976,144.7148204999976,144.7148204999976,144.7148204999976,144.7148204999976,0.0024892999790608883,None,0,,None,,,,,,,,,,,,,585247,001,2023-07-03_15h44.23.767,REPSWITCH1_v2022.2.4,2022.2.4,60.00081604525178,
REPSWITCH1/PICTURE_152.png,caracol,type,darkblue,nontarget,1,NT,2,Stim2_Set2,29,28,0,28,28,28,,152.37997770006768,,,,,,,,,,,,,,,,,,,,,,,148.21390450000763,149.38025139993988,149.38025139993988,149.38025139993988,149.38025139993988,149.38025139993988,149.38025139993988,149.38025139993988,0.002742899814620614,"['c', 'a', 's', 'a', 'd', 'o', 'r']",0,casador,None,"[1.038096300093457, 1.1238672998733819, 2.205710999900475, 2.3008437999524176, 2.432734499918297, 2.5509770999196917, 2.6706014999654144]",,,,,,,,,,,,585247,001,2023-07-03_15h44.23.767,REPSWITCH1_v2022.2.4,2022.2.4,60.00081604525178,
REPSWITCH1/PICTURE_152.png,caracol,type,darkblue,repeat,1,T,2,Stim2_Set2,30,29,0,29,29,29,,157.09414530009963,,,,,,,,,,,,,,,,,,,,,,,152.87993529997766,154.08074240013957,154.08074240013957,154.08074240013957,154.08074240013957,154.08074240013957,154.08074240013957,154.08074240013957,0.002580700209364295,"['c', 'a', 'r', 'a', 'c', 'l', 'o', 'backspace', 'backspace', 'o']",0,caraco,None,"[0.8383637999650091, 0.8947034999728203, 1.073357200017199, 1.166470899945125, 1.3504113999661058, 1.6738962000235915, 1.8117953001055866, 2.3133960999548435, 2.577803800115362, 2.892128000035882]",157.09414530009963,157.09414530009963,157.09414530009963,157.09414530009963,157.09414530009963,157.09414530009963,2.999900900060311,,,,,585247,001,2023-07-03_15h44.23.767,REPSWITCH1_v2022.2.4,2022.2.4,60.00081604525178,
REPSWITCH1/PICTURE_264.png,mano,type,darkblue,nontarget,1,NT,2,Stim3_Set2,31,30,0,30,30,30,,161.77758190012537,,,,,,,,,,,,,,,,,,,,,,,157.5952614999842,158.7632784000598,158.7632784000598,158.7632784000598,158.7632784000598,158.7632784000598,158.7632784000598,158.7632784000598,0.0026718999724835157,"['m', 'a', 'n', 'o']",0,mano,None,"[0.7510174999479204, 0.8655504998750985, 1.0214136999566108, 1.1256083000916988]",,,,,,,,,,,,585247,001,2023-07-03_15h44.23.767,REPSWITCH1_v2022.2.4,2022.2.4,60.00081604525178,
REPSWITCH1/PICTURE_264.png,mano,speak,yellow,switch,2,T,2,Stim3_Set2,32,31,0,31,31,31,,166.34336469997652,,,,,,,,,,,,,,,,,,,,,,,162.27752320002764,163.3438667000737,163.3438667000737,163.3438667000737,163.3438667000737,163.3438667000737,163.3438667000737,163.3438667000737,0.002585700014606118,None,0,,None,,,,,,,,,,,,,585247,001,2023-07-03_15h44.23.767,REPSWITCH1_v2022.2.4,2022.2.4,60.00081604525178,
REPSWITCH1/PICTURE_517.png,cuerda,speak,yellow,nontarget,2,NT,2,Stim4_Set2,33,32,0,32,32,32,,171.04203899996355,,,,,,,,,,,,,,,,,,,,,,171.54171789996326,166.84341720002703,168.0598675000947,168.0598675000947,168.0598675000947,168.0598675000947,168.0598675000947,168.0598675000947,168.0598675000947,0.0025472999550402164,"['c', 'u', 'backspace', 'backspace']",0,,None,"[0.9886227999813855, 1.1294925999827683, 1.607085700146854, 1.767903900006786]",,,,,,,,,,,,585247,001,2023-07-03_15h44.23.767,REPSWITCH1_v2022.2.4,2022.2.4,60.00081604525178,
REPSWITCH1/PICTURE_517.png,cuerda,type,darkblue,switch,1,T,2,Stim4_Set2,34,33,0,33,33,33,,175.67282340000384,,,,,,,,,,,,,,,,,,,,,,,171.54171789996326,172.65961050009355,172.65961050009355,172.65961050009355,172.65961050009355,172.65961050009355,172.65961050009355,172.65961050009355,0.002549300203099847,"['c', 'u', 'e', 'r', 'd', 'a']",0,cuerda,None,"[0.7676153001375496, 0.9371202001348138, 1.0534912999719381, 1.142905900022015, 1.348241199972108, 1.4125292000826448]",175.67282340000384,175.67282340000384,175.67282340000384,175.67282340000384,175.67282340000384,175.67282340000384,2.9997180001810193,,,,,585247,001,2023-07-03_15h44.23.767,REPSWITCH1_v2022.2.4,2022.2.4,60.00081604525178,
REPSWITCH1/PICTURE_135.png,traje,speak,yellow,filler,2,F,2,Stim3_Set1,35,34,0,34,34,34,,180.40625580004416,,,,,,,,,,,,,,,,,,,,,,180.906457999954,176.17414000001736,177.4081276000943,177.4081276000943,177.4081276000943,177.4081276000943,177.4081276000943,177.4081276000943,177.4081276000943,0.0024351999163627625,None,0,,None,,180.40625580004416,180.40625580004416,180.40625580004416,180.40625580004416,180.40625580004416,180.40625580004416,2.999238000018522,,,,,585247,001,2023-07-03_15h44.23.767,REPSWITCH1_v2022.2.4,2022.2.4,60.00081604525178,
REPSWITCH1/PICTURE_30.png,granja,type,darkblue,nontarget,1,NT,2,Stim5_Set2,36,35,0,35,35,35,,185.1888208000455,,,,,,,,,,,,,,,,,,,,,,,180.906457999954,182.52228139992803,182.52228139992803,182.52228139992803,182.52228139992803,182.52228139992803,182.52228139992803,182.52228139992803,0.35412689996883273,"['g', 'r', 'n', 'a', 'backspace', 'backspace']",0,gr,None,"[0.9038545000366867, 1.03588470001705, 1.3754642000421882, 1.8347118999809027, 2.1582895999308676, 2.314968999940902]",,,,,,,,,,,,585247,001,2023-07-03_15h44.23.767,REPSWITCH1_v2022.2.4,2022.2.4,60.00081604525178,
REPSWITCH1/PICTURE_30.png,granja,speak,yellow,switch,2,T,2,Stim5_Set2,37,36,0,36,36,36,,189.85423530009575,,,,,,,,,,,,,,,,,,,,,,190.35385129996575,185.68858060007915,186.87174710002728,186.87174710002728,186.87174710002728,186.87174710002728,186.87174710002728,186.87174710002728,186.87174710002728,0.0033813000191003084,None,0,,None,,,,,,,,,,,,,585247,001,2023-07-03_15h44.23.767,REPSWITCH1_v2022.2.4,2022.2.4,60.00081604525178,
REPSWITCH1/PICTURE_128.png,muñeca,type,darkblue,filler,1,F,2,Stim4_Set1,38,37,0,37,37,37,,194.55309440009296,,,,,,,,,,,,,,,,,,,,,,195.05281680007465,190.35385129996575,191.56998950010166,191.56998950010166,191.56998950010166,191.56998950010166,191.56998950010166,191.56998950010166,191.56998950010166,0.002623999956995249,"['m', 'u', 'n', 'e', 'a', 'c']",0,muneac,None,"[0.7682236998807639, 0.9753775000572205, 1.1829557998571545, 1.2549888000357896, 1.5098889998625964, 1.5855549999978393]",,,,,,,,,,,,585247,001,2023-07-03_15h44.23.767,REPSWITCH1_v2022.2.4,2022.2.4,60.00081604525178,
REPSWITCH1/PICTURE_19.png,pavo,type,darkblue,filler,1,F,2,Stim5_Set1,39,38,0,38,38,38,,199.1021294000093,,,,,,,,,,,,,,,,,,,,,,199.60195740009658,195.05281680007465,196.119066900108,196.119066900108,196.119066900108,196.119066900108,196.119066900108,196.119066900108,196.119066900108,0.003199000144377351,"['p', 'a', 'v', 'o']",0,pavo,None,"[1.310241000028327, 1.4295254000462592, 1.6378172000404447, 1.7267680999357253]",,,,,,,,,,,,585247,001,2023-07-03_15h44.23.767,REPSWITCH1_v2022.2.4,2022.2.4,60.00081604525178,
REPSWITCH1/PICTURE_552.png,manzana,speak,yellow,nontarget,2,NT,2,Stim6_Set2,40,39,0,39,39,39,,203.90088879992254,,,,,,,,,,,,,,,,,,,,,,,199.60195740009658,201.13457150012255,201.13457150012255,201.13457150012255,201.13457150012255,201.13457150012255,201.13457150012255,201.13457150012255,0.23916850006207824,"['m', 'a', 'n', 'z', 'a', 'n', 'a']",0,manzana,None,"[0.8035514999646693, 0.9191000000573695, 1.0526475999504328, 1.301990000065416, 1.4536985999438912, 1.5265293000265956, 2.1510850000195205]",,,,,,,,,,,,585247,001,2023-07-03_15h44.23.767,REPSWITCH1_v2022.2.4,2022.2.4,60.00081604525178,
REPSWITCH1/PICTURE_552.png,manzana,speak,yellow,repeat,2,T,2,Stim6_Set2,41,40,0,40,40,40,,208.58331890008412,,,,,,,,,,,,,,,,,,,,,,,204.400968400063,205.5838403000962,205.5838403000962,205.5838403000962,205.5838403000962,205.5838403000962,205.5838403000962,205.5838403000962,0.004273399943485856,"['m', 'a', 'backspace', 'backspace']",0,,None,"[0.5710150001104921, 0.7046769000589848, 1.2602154000196606, 1.4437033999711275]",,,,,,,,,,,,585247,001,2023-07-03_15h44.23.767,REPSWITCH1_v2022.2.4,2022.2.4,60.00081604525178,
REPSWITCH1/PICTURE_16.png,cazador,type,darkblue,filler,1,F,2,Stim6_Set1,42,41,0,41,41,41,,213.31535769999027,,,,,,,,,,,,,,,,,,,,,,,209.08279080013745,210.3158834001515,210.3158834001515,210.3158834001515,210.3158834001515,210.3158834001515,210.3158834001515,210.3158834001515,0.003366099903360009,"['x', 'backspace', 'c', 'a', 'z', 'a', 'd', 'o', 'r']",0,cazador,None,"[0.7635657999198884, 1.129538199864328, 1.3006100999191403, 1.3734355999622494, 1.5792803999502212, 1.7258284999988973, 1.8451333998236805, 1.9928591998759657, 2.092097799992189]",,,,,,,,,,,,585247,001,2023-07-03_15h44.23.767,REPSWITCH1_v2022.2.4,2022.2.4,60.00081604525178,
REPSWITCH1/PICTURE_446.png,cerdo,speak,yellow,nontarget,2,NT,2,Stim7_Set2,43,42,0,42,42,42,,217.96404200000688,,,,,,,,,,,,,,,,,,,,,,,213.8150887999218,215.06447560014203,215.06447560014203,215.06447560014203,215.06447560014203,215.06447560014203,215.06447560014203,215.06447560014203,0.10833470011129975,None,0,,None,,,,,,,,,,,,,585247,001,2023-07-03_15h44.23.767,REPSWITCH1_v2022.2.4,2022.2.4,60.00081604525178,
REPSWITCH1/PICTURE_446.png,cerdo,speak,yellow,repeat,2,T,2,Stim7_Set2,44,43,0,43,43,43,,222.56170970015228,,,,,,,,,,,,,,,,,,,,,,,218.46396160009317,219.54815690009855,219.54815690009855,219.54815690009855,219.54815690009855,219.54815690009855,219.54815690009855,219.54815690009855,0.0026010998990386724,None,0,,None,,222.56170970015228,222.56170970015228,222.56170970015228,222.56170970015228,222.56170970015228,222.56170970015228,2.999834799906239,,,,,585247,001,2023-07-03_15h44.23.767,REPSWITCH1_v2022.2.4,2022.2.4,60.00081604525178,
REPSWITCH1/PICTURE_142.png,vaso,speak,yellow,filler,2,F,2,Stim7_Set1,45,44,0,44,44,44,,227.2284740000032,,,,,,,,,,,,,,,,,,,,,,227.7284842999652,223.06276000011712,224.23064110009,224.23064110009,224.23064110009,224.23064110009,224.23064110009,224.23064110009,224.23064110009,0.0021741001401096582,None,0,,None,,227.2284740000032,227.2284740000032,227.2284740000032,227.2284740000032,227.2284740000032,227.2284740000032,2.9997849001083523,,,,,585247,001,2023-07-03_15h44.23.767,REPSWITCH1_v2022.2.4,2022.2.4,60.00081604525178,
REPSWITCH1/PICTURE_169.png,espalda,type,darkblue,filler,1,F,2,Stim8_Set1,46,45,0,45,45,45,,231.97760660015047,,,,,,,,,,,,,,,,,,,,,,232.47733550006524,227.7284842999652,228.97931369999424,228.97931369999424,228.97931369999424,228.97931369999424,228.97931369999424,228.97931369999424,228.97931369999424,0.002212800085544586,"['e', 's', 'p', 'a', 'l', 'd', 'a']",0,espalda,None,"[0.8257226999849081, 1.028767199954018, 1.1505666999146342, 1.3136501999106258, 1.4663909000810236, 1.5767636999953538, 1.6506686999928206]",231.97760660015047,231.97760660015047,231.97760660015047,231.97760660015047,231.97760660015047,231.97760660015047,2.999494400108233,,,,,585247,001,2023-07-03_15h44.23.767,REPSWITCH1_v2022.2.4,2022.2.4,60.00081604525178,
REPSWITCH1/PICTURE_199.png,falda,speak,yellow,nontarget,2,NT,2,Stim8_Set2,47,46,0,46,46,46,,236.6595682001207,,,,,,,,,,,,,,,,,,,,,,237.15961650013924,232.47733550006524,233.77677210001275,233.77677210001275,233.77677210001275,233.77677210001275,233.77677210001275,233.77677210001275,233.77677210001275,0.10746040008962154,None,0,,None,,,,,,,,,,,,,585247,001,2023-07-03_15h44.23.767,REPSWITCH1_v2022.2.4,2022.2.4,60.00081604525178,
REPSWITCH1/PICTURE_199.png,falda,type,darkblue,switch,1,T,2,Stim8_Set2,48,47,0,47,47,47,,241.35820539994165,,,,,,,,,,,,,,,,,,,,,,241.858457100112,237.15961650013924,238.375567200128,238.375567200128,238.375567200128,238.375567200128,238.375567200128,238.375567200128,238.375567200128,0.002502900082617998,"['f', 'a', 'l', 'd', 'a']",0,falda,None,"[0.8285622999537736, 1.0660850999411196, 1.2332830999512225, 1.5444596000015736, 1.6136101000010967]",,,,,,,,,,,,585247,001,2023-07-03_15h44.23.767,REPSWITCH1_v2022.2.4,2022.2.4,60.00081604525178,
REPSWITCH1/PICTURE_576.png,guante,type,darkblue,nontarget,1,NT,3,Stim1_Set3,49,48,0,48,48,48,,245.99074749997817,,,,,,,,,,,,,,,,,,,,,,,241.858457100112,243.1078180000186,243.1078180000186,243.1078180000186,243.1078180000186,243.1078180000186,243.1078180000186,243.1078180000186,0.12313170009292662,"['g', 'u', 'a', 'n', 't', 'e']",0,guante,None,"[1.0080547002144158, 1.2076198002323508, 1.3276686000172049, 1.5190778002142906, 1.6374323000200093, 1.7177934001665562]",,,,,,,,,,,,585247,001,2023-07-03_15h44.23.767,REPSWITCH1_v2022.2.4,2022.2.4,60.00081604525178,
REPSWITCH1/PICTURE_576.png,guante,speak,yellow,switch,2,T,3,Stim1_Set3,50,49,0,49,49,49,,250.7060165000148,,,,,,,,,,,,,,,,,,,,,,,246.4907666000072,247.70668740011752,247.70668740011752,247.70668740011752,247.70668740011752,247.70668740011752,247.70668740011752,247.70668740011752,0.0024373000487685204,None,0,,None,,,,,,,,,,,,,585247,001,2023-07-03_15h44.23.767,REPSWITCH1_v2022.2.4,2022.2.4,60.00081604525178,
REPSWITCH1/PICTURE_610.png,miel,speak,yellow,nontarget,2,NT,3,Stim2_Set3,51,50,0,50,50,50,,255.305163100129,,,,,,,,,,,,,,,,,,,,,,,251.20566889992915,252.32183600007556,252.32183600007556,252.32183600007556,252.32183600007556,252.32183600007556,252.32183600007556,252.32183600007556,0.012043400201946497,None,0,,None,,,,,,,,,,,,,585247,001,2023-07-03_15h44.23.767,REPSWITCH1_v2022.2.4,2022.2.4,60.00081604525178,
REPSWITCH1/PICTURE_610.png,miel,type,darkblue,switch,1,T,3,Stim2_Set3,52,51,0,51,51,51,,260.0540153000038,,,,,,,,,,,,,,,,,,,,,,,255.8051575999707,257.0546536000911,257.0546536000911,257.0546536000911,257.0546536000911,257.0546536000911,257.0546536000911,257.0546536000911,0.002454100176692009,"['m', 'i', 'e', 'l']",0,miel,None,"[0.7194963998626918, 0.8808168999385089, 0.9804274998605251, 1.1421252998989075]",,,,,,,,,,,,585247,001,2023-07-03_15h44.23.767,REPSWITCH1_v2022.2.4,2022.2.4,60.00081604525178,
REPSWITCH1/PICTURE_175.png,pintor,type,darkblue,filler,1,F,3,Stim1_Set2,53,52,0,52,52,52,,264.8023900000844,,,,,,,,,,,,,,,,,,,,,,,260.5536120000761,261.8035091999918,261.8035091999918,261.8035091999918,261.8035091999918,261.8035091999918,261.8035091999918,261.8035091999918,0.0026932000182569027,"['p', 'i', 'n', 't', 'o', 'r']",0,pintor,None,"[0.7766088999342173, 1.0127350999973714, 1.2111635999754071, 1.3122586000245064, 1.4720964999869466, 1.6380159000400454]",,,,,,,,,,,,585247,001,2023-07-03_15h44.23.767,REPSWITCH1_v2022.2.4,2022.2.4,60.00081604525178,
REPSWITCH1/PICTURE_242.png,cartero,type,darkblue,nontarget,1,NT,3,Stim3_Set3,54,53,0,53,53,53,,269.3684934999328,,,,,,,,,,,,,,,,,,,,,,,265.3028293000534,266.46899459999986,266.46899459999986,266.46899459999986,266.46899459999986,266.46899459999986,266.46899459999986,266.46899459999986,0.10801990004256368,"['c', 'a', 'r', 't', 'e']",0,carte,None,"[1.1855407999828458, 1.2637229000683874, 2.396508200094104, 2.5795871999580413, 2.683991099940613]",,,,,,,,,,,,585247,001,2023-07-03_15h44.23.767,REPSWITCH1_v2022.2.4,2022.2.4,60.00081604525178,
REPSWITCH1/PICTURE_242.png,cartero,speak,yellow,switch,2,T,3,Stim3_Set3,55,54,0,54,54,54,,274.3838450999465,,,,,,,,,,,,,,,,,,,,,,,269.86818350013345,271.3847487999592,271.3847487999592,271.3847487999592,271.3847487999592,271.3847487999592,271.3847487999592,271.3847487999592,0.002529700053855777,None,0,,None,,,,,,,,,,,,,585247,001,2023-07-03_15h44.23.767,REPSWITCH1_v2022.2.4,2022.2.4,60.00081604525178,
REPSWITCH1/PICTURE_152.png,caracol,type,darkblue,filler,1,F,3,Stim2_Set2,56,55,0,55,55,55,,278.9663464000914,,,,,,,,,,,,,,,,,,,,,,,274.8837500999216,275.9665576000698,275.9665576000698,275.9665576000698,275.9665576000698,275.9665576000698,275.9665576000698,275.9665576000698,0.002611899981275201,"['c', 'a', 'r', 'a', 'c', 'o', 'l']",0,caracol,None,"[0.998868000227958, 1.0944882000330836, 1.408435300225392, 1.4863085001707077, 1.6769174002110958, 1.7902295000385493, 2.04222990013659]",,,,,,,,,,,,585247,001,2023-07-03_15h44.23.767,REPSWITCH1_v2022.2.4,2022.2.4,60.00081604525178,
REPSWITCH1/PICTURE_235.png,aguja,speak,yellow,nontarget,2,NT,3,Stim4_Set3,57,56,0,56,56,56,,283.68178720003925,,,,,,,,,,,,,,,,,,,,,,,279.4656702000648,280.78228270006366,280.78228270006366,280.78228270006366,280.78228270006366,280.78228270006366,280.78228270006366,280.78228270006366,0.10761730000376701,None,0,,None,,,,,,,,,,,,,585247,001,2023-07-03_15h44.23.767,REPSWITCH1_v2022.2.4,2022.2.4,60.00081604525178,
REPSWITCH1/PICTURE_235.png,aguja,speak,yellow,repeat,2,T,3,Stim4_Set3,58,57,0,57,57,57,,288.3634794000536,,,,,,,,,,,,,,,,,,,,,,,284.18128270003945,285.36432490008883,285.36432490008883,285.36432490008883,285.36432490008883,285.36432490008883,285.36432490008883,285.36432490008883,0.0023231999948620796,None,0,,None,,,,,,,,,,,,,585247,001,2023-07-03_15h44.23.767,REPSWITCH1_v2022.2.4,2022.2.4,60.00081604525178,
REPSWITCH1/PICTURE_264.png,mano,speak,yellow,filler,2,F,3,Stim3_Set2,59,58,0,58,58,58,,293.07923980010673,,,,,,,,,,,,,,,,,,,,,,293.57887149997987,288.8636445000302,290.081279899925,290.081279899925,290.081279899925,290.081279899925,290.081279899925,290.081279899925,290.081279899925,0.002635400043800473,None,0,,None,,,,,,,,,,,,,585247,001,2023-07-03_15h44.23.767,REPSWITCH1_v2022.2.4,2022.2.4,60.00081604525178,
REPSWITCH1/PICTURE_517.png,cuerda,type,darkblue,filler,1,F,3,Stim4_Set2,60,59,0,59,59,59,,297.71123100002296,,,,,,,,,,,,,,,,,,,,,,,293.57887149997987,294.7122170000803,294.7122170000803,294.7122170000803,294.7122170000803,294.7122170000803,294.7122170000803,294.7122170000803,0.004103400046005845,"['c', 'u', 'e', 'r', 'd', 'a']",0,cuerda,None,"[1.0813912998419255, 1.1777375999372452, 1.292959599988535, 1.3832497999537736, 1.560566599946469, 1.6295795999467373]",,,,,,,,,,,,585247,001,2023-07-03_15h44.23.767,REPSWITCH1_v2022.2.4,2022.2.4,60.00081604525178,
REPSWITCH1/PICTURE_30.png,granja,type,darkblue,filler,1,F,3,Stim5_Set2,61,60,0,60,60,60,,302.37710039992817,,,,,,,,,,,,,,,,,,,,,,,298.2112296000123,299.37764409999363,299.37764409999363,299.37764409999363,299.37764409999363,299.37764409999363,299.37764409999363,299.37764409999363,0.003478500060737133,"['g', 'r', 'a', 'n', 'j', 'a']",0,granja,None,"[0.9893510001711547, 1.074512200197205, 1.2793714001309127, 1.382587700150907, 1.5446668001823127, 1.7132983000483364]",,,,,,,,,,,,585247,001,2023-07-03_15h44.23.767,REPSWITCH1_v2022.2.4,2022.2.4,60.00081604525178,
REPSWITCH1/PICTURE_35.png,oreja,speak,yellow,nontarget,2,NT,3,Stim5_Set3,62,61,0,61,61,61,,307.00943510001525,,,,,,,,,,,,,,,,,,,,,,307.5092746000737,302.8771536001004,304.37629900011234,304.37629900011234,304.37629900011234,304.37629900011234,304.37629900011234,304.37629900011234,304.37629900011234,0.35907689994201064,None,0,,None,,,,,,,,,,,,,585247,001,2023-07-03_15h44.23.767,REPSWITCH1_v2022.2.4,2022.2.4,60.00081604525178,
REPSWITCH1/PICTURE_35.png,oreja,speak,yellow,repeat,2,T,3,Stim5_Set3,63,62,0,62,62,62,,311.54175309999846,,,,,,,,,,,,,,,,,,,,,,312.04146849992685,307.5092746000737,308.55895350011997,308.55895350011997,308.55895350011997,308.55895350011997,308.55895350011997,308.55895350011997,308.55895350011997,0.00269059999845922,None,0,,None,,,,,,,,,,,,,585247,001,2023-07-03_15h44.23.767,REPSWITCH1_v2022.2.4,2022.2.4,60.00081604525178,
REPSWITCH1/PICTURE_464.png,goma,speak,yellow,nontarget,2,NT,3,Stim6_Set3,64,63,0,63,63,63,,316.2738940999843,,,,,,,,,,,,,,,,,,,,,,,312.04146849992685,313.3741566000972,313.3741566000972,313.3741566000972,313.3741566000972,313.3741566000972,313.3741566000972,313.3741566000972,0.10071270004846156,None,0,,None,,,,,,,,,,,,,585247,001,2023-07-03_15h44.23.767,REPSWITCH1_v2022.2.4,2022.2.4,60.00081604525178,
REPSWITCH1/PICTURE_464.png,goma,type,darkblue,switch,1,T,3,Stim6_Set3,65,64,0,64,64,64,,321.00599070009775,,,,,,,,,,,,,,,,,,,,,,,316.7736696000211,318.00656839995645,318.00656839995645,318.00656839995645,318.00656839995645,318.00656839995645,318.00656839995645,318.00656839995645,0.002277999883517623,"['g', 'o', 'm', 'a']",0,goma,None,"[0.6783833999652416, 0.7687685999553651, 0.956935300026089, 1.0743865000549704]",,,,,,,,,,,,585247,001,2023-07-03_15h44.23.767,REPSWITCH1_v2022.2.4,2022.2.4,60.00081604525178,
REPSWITCH1/PICTURE_552.png,manzana,speak,yellow,filler,2,F,3,Stim6_Set2,66,65,0,65,65,65,,325.6382023000624,,,,,,,,,,,,,,,,,,,,,,326.13806220004335,321.505963700125,322.6554348000791,322.6554348000791,322.6554348000791,322.6554348000791,322.6554348000791,322.6554348000791,322.6554348000791,0.0025545000098645687,None,0,,None,,,,,,,,,,,,,585247,001,2023-07-03_15h44.23.767,REPSWITCH1_v2022.2.4,2022.2.4,60.00081604525178,
REPSWITCH1/PICTURE_271.png,conejo,type,darkblue,nontarget,1,NT,3,Stim7_Set3,67,66,0,66,66,66,,330.3205128000118,,,,,,,,,,,,,,,,,,,,,,,326.13806220004335,327.4372819000855,327.4372819000855,327.4372819000855,327.4372819000855,327.4372819000855,327.4372819000855,327.4372819000855,0.11963959992863238,"['v', 'c', 'o', 'n', 'e', 'j', 'o']",0,vconejo,None,"[1.1008666001725942, 1.340491000097245, 2.0694542001001537, 2.2870292000006884, 2.3637961000204086, 2.5634447000920773, 2.6621789999771863]",,,,,,,,,,,,585247,001,2023-07-03_15h44.23.767,REPSWITCH1_v2022.2.4,2022.2.4,60.00081604525178,
REPSWITCH1/PICTURE_271.png,conejo,type,darkblue,repeat,1,T,3,Stim7_Set3,68,67,0,67,67,67,,334.886000999948,,,,,,,,,,,,,,,,,,,,,,,330.8203441000078,331.8864861000329,331.8864861000329,331.8864861000329,331.8864861000329,331.8864861000329,331.8864861000329,331.8864861000329,0.0031794998794794083,"['c', 'o', 'n', 'e', 'j', 'o']",0,conejo,None,"[0.8861744999885559, 1.2518743998371065, 1.4889338999055326, 1.5959071998950094, 1.6984592999797314, 1.7869565999135375]",,,,,,,,,,,,585247,001,2023-07-03_15h44.23.767,REPSWITCH1_v2022.2.4,2022.2.4,60.00081604525178,
REPSWITCH1/PICTURE_446.png,cerdo,speak,yellow,filler,2,F,3,Stim7_Set2,69,68,0,68,68,68,,339.58481370005757,,,,,,,,,,,,,,,,,,,,,,340.08476820006035,335.38584590004757,336.60220369999297,336.60220369999297,336.60220369999297,336.60220369999297,336.60220369999297,336.60220369999297,336.60220369999297,0.00310120009817183,None,0,,None,,,,,,,,,,,,,585247,001,2023-07-03_15h44.23.767,REPSWITCH1_v2022.2.4,2022.2.4,60.00081604525178,
REPSWITCH1/PICTURE_199.png,falda,speak,yellow,filler,2,F,3,Stim8_Set2,70,69,0,69,69,69,,344.3669036999345,,,,,,,,,,,,,,,,,,,,,,,340.08476820006035,341.3675417001359,341.3675417001359,341.3675417001359,341.3675417001359,341.3675417001359,341.3675417001359,341.3675417001359,0.0037175000179558992,None,0,,None,,,,,,,,,,,,,585247,001,2023-07-03_15h44.23.767,REPSWITCH1_v2022.2.4,2022.2.4,60.00081604525178,
REPSWITCH1/PICTURE_320.png,iglesia,type,darkblue,nontarget,1,NT,3,Stim8_Set3,71,70,0,70,70,70,,348.9991639999207,,,,,,,,,,,,,,,,,,,,,,,344.866772999987,346.1163353000302,346.1163353000302,346.1163353000302,346.1163353000302,346.1163353000302,346.1163353000302,346.1163353000302,0.11082880012691021,"['i', 'g', 'l', 'e', 's', 'i', 'a']",0,iglesia,None,"[0.8416082002222538, 1.0875177001580596, 1.3203700000885874, 1.5127161000855267, 1.6985779001843184, 1.7837327001616359, 1.873783600050956]",,,,,,,,,,,,585247,001,2023-07-03_15h44.23.767,REPSWITCH1_v2022.2.4,2022.2.4,60.00081604525178,
REPSWITCH1/PICTURE_320.png,iglesia,type,darkblue,repeat,1,T,3,Stim8_Set3,72,71,0,71,71,71,,353.6145317000337,,,,,,,,,,,,,,,,,,,,,,,349.4992347001098,350.6155284999404,350.6155284999404,350.6155284999404,350.6155284999404,350.6155284999404,350.6155284999404,350.6155284999404,0.0026914000045508146,"['i', 'g', 'l', 'e', 's', 'i', 'a']",0,iglesia,None,"[0.7304670999292284, 0.8919518999755383, 1.0343164999503642, 1.1126644001342356, 1.2788828001357615, 1.3608323000371456, 1.4603653999511153]",,,,,,,,,,,,585247,001,2023-07-03_15h44.23.767,REPSWITCH1_v2022.2.4,2022.2.4,60.00081604525178,
REPSWITCH1/PICTURE_576.png,guante,speak,yellow,filler,2,F,4,Stim1_Set3,73,72,0,72,72,72,,358.2968538000714,,,,,,,,,,,,,,,,,,,,,,358.7966601001099,354.1147423000075,355.2990323000122,355.2990323000122,355.2990323000122,355.2990323000122,355.2990323000122,355.2990323000122,355.2990323000122,0.00252770003862679,"['g', 'u', 'n', 't', 'e']",0,gunte,None,"[0.9742765000555664, 1.0565071001183242, 1.2790288000833243, 1.3638367000967264, 1.4469534000381827]",,,,,,,,,,,,585247,001,2023-07-03_15h44.23.767,REPSWITCH1_v2022.2.4,2022.2.4,60.00081604525178,
REPSWITCH1/PICTURE_319.png,vaca,type,darkblue,nontarget,1,NT,4,Stim1_Set4,74,73,0,73,73,73,,362.94566510012373,,,,,,,,,,,,,,,,,,,,,,,358.7966601001099,359.9463585000485,359.9463585000485,359.9463585000485,359.9463585000485,359.9463585000485,359.9463585000485,359.9463585000485,0.002497500041499734,"['v', 'a', 'c', 'a']",0,vaca,None,"[1.4959124000743032, 1.6382738999091089, 1.830420000012964, 1.9175809998996556]",,,,,,,,,,,,585247,001,2023-07-03_15h44.23.767,REPSWITCH1_v2022.2.4,2022.2.4,60.00081604525178,
REPSWITCH1/PICTURE_319.png,vaca,type,darkblue,repeat,1,T,4,Stim1_Set4,75,74,0,74,74,74,,367.777865299955,,,,,,,,,,,,,,,,,,,,,,,363.4461044999771,364.7784047999885,364.7784047999885,364.7784047999885,364.7784047999885,364.7784047999885,364.7784047999885,364.7784047999885,0.0025335000827908516,"['v', 'a', 'c', 'a']",0,vaca,None,"[0.7029760999139398, 0.8014908998738974, 0.9688609999138862, 1.067779399920255]",,,,,,,,,,,,585247,001,2023-07-03_15h44.23.767,REPSWITCH1_v2022.2.4,2022.2.4,60.00081604525178,
REPSWITCH1/PICTURE_719.png,baño,type,darkblue,nontarget,1,NT,4,Stim2_Set4,76,75,0,75,75,75,,372.52694360003807,,,,,,,,,,,,,,,,,,,,,,,368.2782103000209,369.52756820013747,369.52756820013747,369.52756820013747,369.52756820013747,369.52756820013747,369.52756820013747,369.52756820013747,0.002974499948322773,"['b', 'a', 'n', 'o']",0,bano,None,"[0.8842921000905335, 1.1329137000720948, 1.234017699956894, 1.3606825000606477]",,,,,,,,,,,,585247,001,2023-07-03_15h44.23.767,REPSWITCH1_v2022.2.4,2022.2.4,60.00081604525178,
REPSWITCH1/PICTURE_719.png,baño,speak,yellow,switch,2,T,4,Stim2_Set4,77,76,0,76,76,76,,377.24243140011095,,,,,,,,,,,,,,,,,,,,,,377.7422649001237,373.0267748001497,374.2599566001445,374.2599566001445,374.2599566001445,374.2599566001445,374.2599566001445,374.2599566001445,374.2599566001445,0.0033450000919401646,None,0,,None,,,,,,,,,,,,,585247,001,2023-07-03_15h44.23.767,REPSWITCH1_v2022.2.4,2022.2.4,60.00081604525178,
REPSWITCH1/PICTURE_610.png,miel,type,darkblue,filler,1,F,4,Stim2_Set3,78,77,0,77,77,77,,381.9080018000677,,,,,,,,,,,,,,,,,,,,,,,377.7422649001237,378.90926089999266,378.90926089999266,378.90926089999266,378.90926089999266,378.90926089999266,378.90926089999266,378.90926089999266,0.003177700098603964,"['m', 'i', 'e', 'l']",0,miel,None,"[0.8719766999129206, 1.0519967000000179, 1.164642299991101, 1.3163421000353992]",,,,,,,,,,,,585247,001,2023-07-03_15h44.23.767,REPSWITCH1_v2022.2.4,2022.2.4,60.00081604525178,
REPSWITCH1/PICTURE_242.png,cartero,type,darkblue,filler,1,F,4,Stim3_Set3,79,78,0,78,78,78,,386.57336300006136,,,,,,,,,,,,,,,,,,,,,,,382.4079390000552,383.5740368999541,383.5740368999541,383.5740368999541,383.5740368999541,383.5740368999541,383.5740368999541,383.5740368999541,0.0036162000615149736,"['c', 'a', 'r', 't', 'e', 'r', 'o']",0,cartero,None,"[0.8543960000388324, 0.9451304001267999, 1.1609203000552952, 1.2973883000668138, 1.40165950008668, 1.5474589001387358, 1.6304916001390666]",,,,,,,,,,,,585247,001,2023-07-03_15h44.23.767,REPSWITCH1_v2022.2.4,2022.2.4,60.00081604525178,
REPSWITCH1/PICTURE_8.png,pierna,speak,yellow,nontarget,2,NT,4,Stim3_Set4,80,79,0,79,79,79,,391.2721305000596,,,,,,,,,,,,,,,,,,,,,,391.7719596000388,387.07322219992056,388.2745310999453,388.2745310999453,388.2745310999453,388.2745310999453,388.2745310999453,388.2745310999453,388.2745310999453,0.002236599801108241,None,0,,None,,,,,,,,,,,,,585247,001,2023-07-03_15h44.23.767,REPSWITCH1_v2022.2.4,2022.2.4,60.00081604525178,
REPSWITCH1/PICTURE_8.png,pierna,speak,yellow,repeat,2,T,4,Stim3_Set4,81,80,0,80,80,80,,395.9878565999679,,,,,,,,,,,,,,,,,,,,,,,391.7719596000388,392.9888534999918,392.9888534999918,392.9888534999918,392.9888534999918,392.9888534999918,392.9888534999918,392.9888534999918,0.002135799964889884,None,0,,None,,,,,,,,,,,,,585247,001,2023-07-03_15h44.23.767,REPSWITCH1_v2022.2.4,2022.2.4,60.00081604525178,
REPSWITCH1/PICTURE_498.png,taza,speak,yellow,nontarget,2,NT,4,Stim4_Set4,82,81,0,81,81,81,,400.66999029996805,,,,,,,,,,,,,,,,,,,,,,401.1701581000816,396.4878082999494,397.6719621999655,397.6719621999655,397.6719621999655,397.6719621999655,397.6719621999655,397.6719621999655,397.6719621999655,0.0023225999902933836,None,0,,None,,400.66999029996805,400.66999029996805,400.66999029996805,400.66999029996805,400.66999029996805,400.66999029996805,2.999612599844113,,,,,585247,001,2023-07-03_15h44.23.767,REPSWITCH1_v2022.2.4,2022.2.4,60.00081604525178,
REPSWITCH1/PICTURE_498.png,taza,type,darkblue,switch,1,T,4,Stim4_Set4,83,82,0,82,82,82,,405.3024478999432,,,,,,,,,,,,,,,,,,,,,,405.8023914000951,401.1701581000816,402.3044114999939,402.3044114999939,402.3044114999939,402.3044114999939,402.3044114999939,402.3044114999939,402.3044114999939,0.0022944998927414417,"['t', 'a', 'z', 'a']",0,taza,None,"[0.6329425000585616, 0.773061600048095, 1.0090230000205338, 1.219378100009635]",405.3024478999432,405.3024478999432,405.3024478999432,405.3024478999432,405.3024478999432,405.3024478999432,2.999915400054306,,,,,585247,001,2023-07-03_15h44.23.767,REPSWITCH1_v2022.2.4,2022.2.4,60.00081604525178,
REPSWITCH1/PICTURE_235.png,aguja,speak,yellow,filler,2,F,4,Stim4_Set3,84,83,0,83,83,83,,409.86773120006546,,,,,,,,,,,,,,,,,,,,,,410.36789550003596,405.8023914000951,406.87015160010196,406.87015160010196,406.87015160010196,406.87015160010196,406.87015160010196,406.87015160010196,406.87015160010196,0.0024019998963922262,None,0,,None,,,,,,,,,,,,,585247,001,2023-07-03_15h44.23.767,REPSWITCH1_v2022.2.4,2022.2.4,60.00081604525178,
REPSWITCH1/PICTURE_687.png,camisa,type,darkblue,nontarget,1,NT,4,Stim5_Set4,85,84,0,84,84,84,,414.5002486000303,,,,,,,,,,,,,,,,,,,,,,,410.36789550003596,411.5003325000871,411.5003325000871,411.5003325000871,411.5003325000871,411.5003325000871,411.5003325000871,411.5003325000871,0.002341700019314885,"['c', 'a', 'm', 'i', 's', 'a']",0,camisa,None,"[0.8499797999393195, 0.942132500000298, 1.0711785000748932, 1.187774799996987, 1.3417374000418931, 1.4079867000691593]",,,,,,,,,,,,585247,001,2023-07-03_15h44.23.767,REPSWITCH1_v2022.2.4,2022.2.4,60.00081604525178,
REPSWITCH1/PICTURE_687.png,camisa,speak,yellow,switch,2,T,4,Stim5_Set4,86,85,0,85,85,85,,419.1337530000601,,,,,,,,,,,,,,,,,,,,,,,414.99994920007885,416.1496119000949,416.1496119000949,416.1496119000949,416.1496119000949,416.1496119000949,416.1496119000949,416.1496119000949,0.002334299962967634,None,0,,None,,,,,,,,,,,,,585247,001,2023-07-03_15h44.23.767,REPSWITCH1_v2022.2.4,2022.2.4,60.00081604525178,
REPSWITCH1/PICTURE_338.png,regalo,speak,yellow,nontarget,2,NT,4,Stim6_Set4,87,86,0,86,86,86,,423.8643938000314,,,,,,,,,,,,,,,,,,,,,,,419.64918039995246,420.865359300049,420.865359300049,420.865359300049,420.865359300049,420.865359300049,420.865359300049,420.865359300049,0.0025276001542806625,None,0,,None,,,,,,,,,,,,,585247,001,2023-07-03_15h44.23.767,REPSWITCH1_v2022.2.4,2022.2.4,60.00081604525178,
REPSWITCH1/PICTURE_338.png,regalo,speak,yellow,repeat,2,T,4,Stim6_Set4,88,87,0,87,87,87,,428.4634148001205,,,,,,,,,,,,,,,,,,,,,,428.9635592000559,424.36447310005315,425.4808938000351,425.4808938000351,425.4808938000351,425.4808938000351,425.4808938000351,425.4808938000351,425.4808938000351,0.002694699913263321,None,0,,None,,,,,,,,,,,,,585247,001,2023-07-03_15h44.23.767,REPSWITCH1_v2022.2.4,2022.2.4,60.00081604525178,
REPSWITCH1/PICTURE_35.png,oreja,type,darkblue,filler,1,F,4,Stim5_Set3,89,88,0,88,88,88,,433.0123165999539,,,,,,,,,,,,,,,,,,,,,,,428.9635592000559,430.01277390006,430.01277390006,430.01277390006,430.01277390006,430.01277390006,430.01277390006,430.01277390006,0.002462400123476982,"['o', 'r', 'e', 'j', 'a']",0,oreja,None,"[0.9704258998390287, 1.149564899969846, 1.2178444999735802, 1.3251331998035312, 1.4344515998382121]",,,,,,,,,,,,585247,001,2023-07-03_15h44.23.767,REPSWITCH1_v2022.2.4,2022.2.4,60.00081604525178,
REPSWITCH1/PICTURE_464.png,goma,speak,yellow,filler,2,F,4,Stim6_Set3,90,89,0,89,89,89,,437.67782200011425,,,,,,,,,,,,,,,,,,,,,,,433.512167399982,434.67860769992694,434.67860769992694,434.67860769992694,434.67860769992694,434.67860769992694,434.67860769992694,434.67860769992694,0.002448400016874075,None,0,,None,,,,,,,,,,,,,585247,001,2023-07-03_15h44.23.767,REPSWITCH1_v2022.2.4,2022.2.4,60.00081604525178,
REPSWITCH1/PICTURE_271.png,conejo,type,darkblue,filler,1,F,4,Stim7_Set3,91,90,0,90,90,90,,442.3432843000628,,,,,,,,,,,,,,,,,,,,,,,438.17797690001316,439.34435939998366,439.34435939998366,439.34435939998366,439.34435939998366,439.34435939998366,439.34435939998366,439.34435939998366,0.0028617000207304955,"['c', 'o', 'n', 'e', 'j', 'o']",0,conejo,None,"[1.0187621000222862, 1.0822002000641078, 1.3595129000023007, 1.4796702999155968, 1.5946503998711705, 1.7227071998640895]",,,,,,,,,,,,585247,001,2023-07-03_15h44.23.767,REPSWITCH1_v2022.2.4,2022.2.4,60.00081604525178,
REPSWITCH1/PICTURE_48.png,bombero,speak,yellow,nontarget,2,NT,4,Stim7_Set4,92,91,0,91,91,91,,447.00905140000395,,,,,,,,,,,,,,,,,,,,,,447.50905240001157,442.8434144000057,444.02653000014834,444.02653000014834,444.02653000014834,444.02653000014834,444.02653000014834,444.02653000014834,444.02653000014834,0.0024802000261843204,None,0,,None,,,,,,,,,,,,,585247,001,2023-07-03_15h44.23.767,REPSWITCH1_v2022.2.4,2022.2.4,60.00081604525178,
REPSWITCH1/PICTURE_48.png,bombero,type,darkblue,switch,1,T,4,Stim7_Set4,93,92,0,92,92,92,,451.69134010002017,,,,,,,,,,,,,,,,,,,,,,,447.50905240001157,448.69160130014643,448.69160130014643,448.69160130014643,448.69160130014643,448.69160130014643,448.69160130014643,448.69160130014643,0.002513499930500984,"['b', 'o', 'm', 'b', 'e', 'r', 'o']",0,bombero,None,"[0.927716399775818, 0.9935255998279899, 1.2241909999866039, 1.2974755999166518, 1.3632965998258442, 1.5139149997849017, 1.5641502998769283]",,,,,,,,,,,,585247,001,2023-07-03_15h44.23.767,REPSWITCH1_v2022.2.4,2022.2.4,60.00081604525178,
REPSWITCH1/PICTURE_320.png,iglesia,speak,yellow,filler,1,F,4,Stim8_Set3,94,93,0,93,93,93,,456.4065426001325,,,,,,,,,,,,,,,,,,,,,,,452.1910147999879,453.40757380006835,453.40757380006835,453.40757380006835,453.40757380006835,453.40757380006835,453.40757380006835,453.40757380006835,0.002646500011906028,None,0,,None,,,,,,,,,,,,,585247,001,2023-07-03_15h44.23.767,REPSWITCH1_v2022.2.4,2022.2.4,60.00081604525178,
REPSWITCH1/PICTURE_728.png,pulpo,type,darkblue,nontarget,1,NT,4,Stim8_Set4,95,94,0,94,94,94,,461.0891001999844,,,,,,,,,,,,,,,,,,,,,,,456.90670010005124,458.08939290000126,458.08939290000126,458.08939290000126,458.08939290000126,458.08939290000126,458.08939290000126,458.08939290000126,0.00230229995213449,"['p', 'u', 'p', 'backspace', 'l', 'p', 'o']",0,pulpo,None,"[0.7577367001213133, 1.090612400090322, 1.4609642000868917, 1.8281376000959426, 2.110875600017607, 2.300713400123641, 2.486662199953571]",,,,,,,,,,,,585247,001,2023-07-03_15h44.23.767,REPSWITCH1_v2022.2.4,2022.2.4,60.00081604525178,
REPSWITCH1/PICTURE_728.png,pulpo,type,darkblue,repeat,1,T,4,Stim8_Set4,96,95,0,95,95,95,,465.7379173999652,,,,,,,,,,,,,,,,,,,,,,,461.5889743999578,462.7391063000541,462.7391063000541,462.7391063000541,462.7391063000541,462.7391063000541,462.7391063000541,462.7391063000541,0.002284799935296178,"['p', 'u', 'l', 'p', 'o']",0,pulpo,space,"[0.82982790004462, 1.2271398999728262, 1.5691804999951273, 1.6928584999404848, 1.8334431999828666]",,,,,,,,466.23781160009094,466.23781160009094,467.2373248001095,5.579039100091904,585247,001,2023-07-03_15h44.23.767,REPSWITCH1_v2022.2.4,2022.2.4,60.00081604525178,
REPSWITCH1/PICTURE_128.png,muñeca,speak,yellow,nontarget,2,NT,1,Stim4_Set1,97,96,0,96,96,96,,475.85204149992205,,,,,,,,,,,,,,,,,,,,,,476.35201329994015,471.8365883999504,472.8695187000558,472.8695187000558,472.8695187000558,472.8695187000558,472.8695187000558,472.8695187000558,472.8695187000558,0.002415599999949336,"['m', 'backspace']",0,,None,"[0.876401900080964, 1.357705800095573]",,,,,,,,,,,,585247,001,2023-07-03_15h44.23.767,REPSWITCH1_v2022.2.4,2022.2.4,60.00081604525178,
REPSWITCH1/PICTURE_128.png,muñeca,speak,yellow,repeat,2,T,1,Stim4_Set1,98,97,0,97,97,97,,480.68429410015233,,,,,,,,,,,,,,,,,,,,,,,476.35201329994015,477.6697335001081,477.6697335001081,477.6697335001081,477.6697335001081,477.6697335001081,477.6697335001081,477.6697335001081,0.002426800085231662,None,0,,None,,,,,,,,,,,,,585247,001,2023-07-03_15h44.23.767,REPSWITCH1_v2022.2.4,2022.2.4,60.00081604525178,
,,,,,,,,,,,,,,,,485.2833765000105,,,,,,,,,,,,,,,,,,,,,,,481.18419830012135,482.3004644999746,482.3004644999746,482.3004644999746,482.3004644999746,482.3004644999746,482.3004644999746,482.3004644999746,0.0025641999673098326,"['p', 'i', 'e', 'r', 'n', 'a']",0,pierna,,"[0.9064269000664353, 1.2723551001399755, 1.465769900009036, 1.5985324999783188, 1.728815000038594, 1.8149407000746578]",,,,,,,,,,,,,,,,,,
