image,correctAns,famTrials.thisRepN,famTrials.thisTrialN,famTrials.thisN,famTrials.thisIndex,textWelcomeFam.started,textBlank500.started,textboxInstrFam.started,keyInstrFam.started,keyInstrFam.keys,keyInstrFam.rt,textBlank500.stopped,fixationITI.started,fixationITI.stopped,polygonWhiteFam.started,imageFam.started,micFam.started,textFam.started,textFam.stopped,micFam.clip,polygonWhiteFam.stopped,imageFam.stopped,textboxEndFam.started,keyEndFam.started,keyEndFam.keys,keyEndFam.rt,participant,session,date,expName,psychopyVersion,frameRate,
,,,,,,12.176254799996968,14.169321299996227,14.684464799996931,14.684464799996931,space,0.6215739000035683,,,,,,,,,,,,,,,,90,001,2023-07-05_15h38.54.771,Fam,2022.2.4,60.09070090378212,
REPSWITCH1_Practice/PICTURE_614.png,reina,0,0,0,36,,23.19943589999457,,,,,15.884531799994875,15.884531799994875,17.36855660000583,17.36855660000583,17.36855660000583,0.1220171000022674,20.634342199991806,23.19943589999457,D:\GitHub\experiment1\data/90_Fam_2023-07-05_15h38.54.771_micFam_recorded\recording_micFam_2023-07-05_15h39.11.139.wav,,,,,,,90,001,2023-07-05_15h38.54.771,Fam,2022.2.4,60.09070090378212,
REPSWITCH1_Practice/PICTURE_612.png,rana,0,1,1,32,,30.8646035999991,,,,,,23.701096499993582,24.900589800003218,24.900589800003218,24.900589800003218,0.10516150000330526,28.299069500004407,30.8646035999991,D:\GitHub\experiment1\data/90_Fam_2023-07-05_15h38.54.771_micFam_recorded\recording_micFam_2023-07-05_15h39.18.806.wav,,,,,,,90,001,2023-07-05_15h38.54.771,Fam,2022.2.4,60.09070090378212,
REPSWITCH1_Practice/PICTURE_570.png,toro,0,2,2,34,,38.529115700002876,,,,,,31.366026599993347,32.5650381000014,32.5650381000014,32.5650381000014,0.11468329999479465,35.963875400004326,38.529115700002876,D:\GitHub\experiment1\data/90_Fam_2023-07-05_15h38.54.771_micFam_recorded\recording_micFam_2023-07-05_15h39.26.469.wav,,,,,,,90,001,2023-07-05_15h38.54.771,Fam,2022.2.4,60.09070090378212,
REPSWITCH1_Fam/PICTURE_169.png,espalda,0,3,3,5,,46.27725260000443,,,,,46.77900860000227,39.03124260000186,40.36314719999791,40.36314719999791,40.36314719999791,0.1508204999990994,43.72865180000372,,D:\GitHub\experiment1\data/90_Fam_2023-07-05_15h38.54.771_micFam_recorded\recording_micFam_2023-07-05_15h39.34.226.wav,,,,,,,90,001,2023-07-05_15h38.54.771,Fam,2022.2.4,60.09070090378212,
REPSWITCH1_Fam/PICTURE_271.png,conejo,0,4,4,13,,54.04214219999267,,,,,,46.77900860000227,48.12872310000239,48.12872310000239,48.12872310000239,0.16330359999847133,51.47705440000573,54.04214219999267,D:\GitHub\experiment1\data/90_Fam_2023-07-05_15h38.54.771_micFam_recorded\recording_micFam_2023-07-05_15h39.41.982.wav,,,,,,,90,001,2023-07-05_15h38.54.771,Fam,2022.2.4,60.09070090378212,
REPSWITCH1_Practice/PICTURE_110.png,mesa,0,5,5,37,,61.69040569999197,,,,,62.19157229999837,54.54383729999245,55.62675880000461,55.62675880000461,55.62675880000461,0.008591600009822287,59.125297599995974,61.69040569999197,D:\GitHub\experiment1\data/90_Fam_2023-07-05_15h38.54.771_micFam_recorded\recording_micFam_2023-07-05_15h39.49.635.wav,61.69040569999197,61.69040569999197,,,,,90,001,2023-07-05_15h38.54.771,Fam,2022.2.4,60.09070090378212,
REPSWITCH1_Practice/PICTURE_733.png,gafas,0,6,6,35,,69.47165130000212,,,,,,62.19157229999837,63.47437149999314,63.47437149999314,63.47437149999314,0.1006372999981977,66.90668519999599,,D:\GitHub\experiment1\data/90_Fam_2023-07-05_15h38.54.771_micFam_recorded\recording_micFam_2023-07-05_15h39.57.403.wav,,,,,,,90,001,2023-07-05_15h38.54.771,Fam,2022.2.4,60.09070090378212,
REPSWITCH1_Fam/PICTURE_610.png,miel,0,7,7,27,,77.15306009999767,,,,,,69.97312450000027,71.22252369999478,71.22252369999478,71.22252369999478,0.14567270000407007,74.58816519999527,77.15306009999767,D:\GitHub\experiment1\data/90_Fam_2023-07-05_15h38.54.771_micFam_recorded\recording_micFam_2023-07-05_15h40.05.094.wav,,,,,,,90,001,2023-07-05_15h38.54.771,Fam,2022.2.4,60.09070090378212,
REPSWITCH1_Fam/PICTURE_8.png,pierna,0,8,8,31,,84.95137840000098,,,,,85.45289299999422,77.65485429999535,79.03723230000469,79.03723230000469,79.03723230000469,0.16263600000820588,82.3863158000022,84.95137840000098,D:\GitHub\experiment1\data/90_Fam_2023-07-05_15h38.54.771_micFam_recorded\recording_micFam_2023-07-05_15h40.12.901.wav,,,,,,,90,001,2023-07-05_15h38.54.771,Fam,2022.2.4,60.09070090378212,
REPSWITCH1_Fam/PICTURE_381.png,fresa,0,9,9,19,,92.61573689999932,,,,,93.1176059999998,85.45289299999422,86.68528560000414,86.68528560000414,86.68528560000414,0.14965849999862257,90.05099400000472,92.61573689999932,D:\GitHub\experiment1\data/90_Fam_2023-07-05_15h38.54.771_micFam_recorded\recording_micFam_2023-07-05_15h40.20.561.wav,,,,,,,90,001,2023-07-05_15h38.54.771,Fam,2022.2.4,60.09070090378212,
REPSWITCH1_Fam/PICTURE_319.png,vaca,0,10,10,15,,100.38080600000103,,,,,100.88246700000309,93.1176059999998,94.43351370000164,94.43351370000164,94.43351370000164,0.13185109999903943,97.81591289999778,100.38080600000103,D:\GitHub\experiment1\data/90_Fam_2023-07-05_15h38.54.771_micFam_recorded\recording_micFam_2023-07-05_15h40.28.329.wav,,,,,,,90,001,2023-07-05_15h38.54.771,Fam,2022.2.4,60.09070090378212,
REPSWITCH1_Fam/PICTURE_320.png,iglesia,0,11,11,16,,107.97918159999244,,,,,108.48080639999534,100.88246700000309,101.94856019999133,101.94856019999133,101.94856019999133,0.049270900010014884,105.41427300000214,107.97918159999244,D:\GitHub\experiment1\data/90_Fam_2023-07-05_15h38.54.771_micFam_recorded\recording_micFam_2023-07-05_15h40.35.926.wav,,,,,,,90,001,2023-07-05_15h38.54.771,Fam,2022.2.4,60.09070090378212,
REPSWITCH1_Fam/PICTURE_517.png,cuerda,0,12,12,24,,115.7115383999917,,,,,,108.48080639999534,109.72999269999855,109.72999269999855,109.72999269999855,0.15076190000399947,113.09550349999336,115.7115383999917,D:\GitHub\experiment1\data/90_Fam_2023-07-05_15h38.54.771_micFam_recorded\recording_micFam_2023-07-05_15h40.43.608.wav,,,,,,,90,001,2023-07-05_15h38.54.771,Fam,2022.2.4,60.09070090378212,
REPSWITCH1_Fam/PICTURE_135.png,traje,0,13,13,1,,123.35871220000263,,,,,,116.21209709999675,117.31118089999654,117.31118089999654,117.31118089999654,0.04989850000129081,120.77683639999304,123.35871220000263,D:\GitHub\experiment1\data/90_Fam_2023-07-05_15h38.54.771_micFam_recorded\recording_micFam_2023-07-05_15h40.51.289.wav,,,,,,,90,001,2023-07-05_15h38.54.771,Fam,2022.2.4,60.09070090378212,
REPSWITCH1_Fam/PICTURE_264.png,mano,0,14,14,12,,131.12361120000423,,,,,131.62582060000568,123.8604262000008,125.17604920000304,125.17604920000304,125.17604920000304,0.13218760000017937,128.55856839999615,131.12361120000423,D:\GitHub\experiment1\data/90_Fam_2023-07-05_15h38.54.771_micFam_recorded\recording_micFam_2023-07-05_15h40.59.072.wav,,,,,,,90,001,2023-07-05_15h38.54.771,Fam,2022.2.4,60.09070090378212,
REPSWITCH1_Fam/PICTURE_446.png,cerdo,0,15,15,20,,138.80503289999615,,,,,,131.62582060000568,132.85768289999396,132.85768289999396,132.85768289999396,0.13077059999341145,136.2398882999987,138.80503289999615,D:\GitHub\experiment1\data/90_Fam_2023-07-05_15h38.54.771_micFam_recorded\recording_micFam_2023-07-05_15h41.06.752.wav,,,,,,,90,001,2023-07-05_15h38.54.771,Fam,2022.2.4,60.09070090378212,
REPSWITCH1_Fam/PICTURE_30.png,granja,0,16,16,14,,146.62004850000085,,,,,147.12197579999338,139.3066020999977,140.7057621999993,140.7057621999993,140.7057621999993,0.15360750000400003,144.05475399999705,146.62004850000085,D:\GitHub\experiment1\data/90_Fam_2023-07-05_15h38.54.771_micFam_recorded\recording_micFam_2023-07-05_15h41.14.570.wav,,,,,,,90,001,2023-07-05_15h38.54.771,Fam,2022.2.4,60.09070090378212,
REPSWITCH1_Fam/PICTURE_498.png,taza,0,17,17,23,,154.2509457999986,,,,,154.75269649999973,147.12197579999338,148.22066089999862,148.22066089999862,148.22066089999862,0.02669550001155585,151.68710450000071,154.18698569999833,D:\GitHub\experiment1\data/90_Fam_2023-07-05_15h38.54.771_micFam_recorded\recording_micFam_2023-07-05_15h41.22.208.wav,,,,,,,90,001,2023-07-05_15h38.54.771,Fam,2022.2.4,60.09070090378212,
REPSWITCH1_Fam/PICTURE_338.png,regalo,0,18,18,17,,162.14953799999785,,,,,162.65123249999306,154.75269649999973,156.10151330000372,156.10151330000372,156.10151330000372,0.026006599990068935,159.56763849999697,162.06858680000005,D:\GitHub\experiment1\data/90_Fam_2023-07-05_15h38.54.771_micFam_recorded\recording_micFam_2023-07-05_15h41.30.091.wav,,,,,,,90,001,2023-07-05_15h38.54.771,Fam,2022.2.4,60.09070090378212,
REPSWITCH1_Fam/PICTURE_242.png,cartero,0,19,19,11,,169.9972695000033,,,,,170.49895829999878,162.65123249999306,163.9493705999921,163.9493705999921,163.9493705999921,0.017474299995228648,167.43384810000134,169.93311670000548,D:\GitHub\experiment1\data/90_Fam_2023-07-05_15h38.54.771_micFam_recorded\recording_micFam_2023-07-05_15h41.37.953.wav,169.9972695000033,169.9972695000033,,,,,90,001,2023-07-05_15h38.54.771,Fam,2022.2.4,60.09070090378212,
REPSWITCH1_Fam/PICTURE_464.png,goma,0,20,20,21,,177.7956581000035,,,,,178.29745949999779,170.49895829999878,171.8479163000011,171.8479163000011,171.8479163000011,0.11932330000854563,175.2304937000008,177.7956581000035,D:\GitHub\experiment1\data/90_Fam_2023-07-05_15h38.54.771_micFam_recorded\recording_micFam_2023-07-05_15h41.45.743.wav,,,,,,,90,001,2023-07-05_15h38.54.771,Fam,2022.2.4,60.09070090378212,
REPSWITCH1_Fam/PICTURE_142.png,vaso,0,21,21,2,,185.47728690000076,,,,,,178.29745949999779,179.49647790000017,179.49647790000017,179.49647790000017,0.08564699999988079,182.912101599999,185.47728690000076,D:\GitHub\experiment1\data/90_Fam_2023-07-05_15h38.54.771_micFam_recorded\recording_micFam_2023-07-05_15h41.53.418.wav,,,,,,,90,001,2023-07-05_15h38.54.771,Fam,2022.2.4,60.09070090378212,
REPSWITCH1_Fam/PICTURE_576.png,guante,0,22,22,26,,193.24179869999352,,,,,193.7438789000007,185.9789288000029,187.2114137000026,187.2114137000026,187.2114137000026,0.04715339999529533,190.67716920000385,193.24179869999352,D:\GitHub\experiment1\data/90_Fam_2023-07-05_15h38.54.771_micFam_recorded\recording_micFam_2023-07-05_15h42.01.188.wav,,,,,,,90,001,2023-07-05_15h38.54.771,Fam,2022.2.4,60.09070090378212,
REPSWITCH1_Fam/PICTURE_175.png,pintor,0,23,23,6,,200.89021699999284,,,,,,193.7438789000007,194.94262410000374,194.94262410000374,194.94262410000374,0.14224349999858532,198.30847439999343,200.89021699999284,D:\GitHub\experiment1\data/90_Fam_2023-07-05_15h38.54.771_micFam_recorded\recording_micFam_2023-07-05_15h42.08.822.wav,,,,,,,90,001,2023-07-05_15h38.54.771,Fam,2022.2.4,60.09070090378212,
REPSWITCH1_Practice/PICTURE_599.png,nube,0,24,24,33,,208.63807570000063,,,,,209.1391203999956,201.39159970000037,202.59092760000203,202.59092760000203,202.59092760000203,0.02641859999857843,206.07326750000357,208.63807570000063,D:\GitHub\experiment1\data/90_Fam_2023-07-05_15h38.54.771_micFam_recorded\recording_micFam_2023-07-05_15h42.16.580.wav,,,,,,,90,001,2023-07-05_15h38.54.771,Fam,2022.2.4,60.09070090378212,
REPSWITCH1_Fam/PICTURE_728.png,pulpo,0,25,25,30,,216.31994639999175,,,,,216.82130399999733,209.1391203999956,210.35483789999853,210.35483789999853,210.35483789999853,0.10708870000962634,213.7382948000013,216.238981100003,D:\GitHub\experiment1\data/90_Fam_2023-07-05_15h38.54.771_micFam_recorded\recording_micFam_2023-07-05_15h42.24.261.wav,,,,,,,90,001,2023-07-05_15h38.54.771,Fam,2022.2.4,60.09070090378212,
REPSWITCH1_Fam/PICTURE_152.png,caracol,0,26,26,3,,224.10084060000372,,,,,224.60408000000461,216.82130399999733,218.15440220000164,218.15440220000164,218.15440220000164,0.12724940000043716,221.53618789999746,224.10084060000372,D:\GitHub\experiment1\data/90_Fam_2023-07-05_15h38.54.771_micFam_recorded\recording_micFam_2023-07-05_15h42.32.046.wav,,,,,,,90,001,2023-07-05_15h38.54.771,Fam,2022.2.4,60.09070090378212,
REPSWITCH1_Fam/PICTURE_552.png,manzana,0,27,27,25,,231.8830994000018,,,,,,224.60408000000461,225.93605599999137,225.93605599999137,225.93605599999137,0.14124559999618214,229.30116930000077,231.8830994000018,D:\GitHub\experiment1\data/90_Fam_2023-07-05_15h38.54.771_micFam_recorded\recording_micFam_2023-07-05_15h42.39.815.wav,,,,,,,90,001,2023-07-05_15h38.54.771,Fam,2022.2.4,60.09070090378212,
REPSWITCH1_Fam/PICTURE_687.png,camisa,0,28,28,28,,239.4976164999971,,,,,,232.38457140000537,233.46703420000267,233.46703420000267,233.46703420000267,0.05735229999118019,236.9158138000057,239.4976164999971,D:\GitHub\experiment1\data/90_Fam_2023-07-05_15h38.54.771_micFam_recorded\recording_micFam_2023-07-05_15h42.47.427.wav,,,,,,,90,001,2023-07-05_15h38.54.771,Fam,2022.2.4,60.09070090378212,
REPSWITCH1_Practice/PICTURE_12.png,sirena,0,29,29,38,,247.26243149999937,,,,,247.76372750000155,239.99937069999578,241.28166310000233,241.28166310000233,241.28166310000233,0.10215019999304786,244.68068229999335,247.26243149999937,D:\GitHub\experiment1\data/90_Fam_2023-07-05_15h38.54.771_micFam_recorded\recording_micFam_2023-07-05_15h42.55.197.wav,,,,,,,90,001,2023-07-05_15h38.54.771,Fam,2022.2.4,60.09070090378212,
REPSWITCH1_Fam/PICTURE_235.png,aguja,0,30,30,10,,254.99408869999752,,,,,255.4959588000056,247.76372750000155,248.94626209999842,248.94626209999842,248.94626209999842,0.033080499997595325,252.42875880000065,254.99408869999752,D:\GitHub\experiment1\data/90_Fam_2023-07-05_15h38.54.771_micFam_recorded\recording_micFam_2023-07-05_15h43.02.933.wav,,,,,,,90,001,2023-07-05_15h38.54.771,Fam,2022.2.4,60.09070090378212,
REPSWITCH1_Fam/PICTURE_719.png,baño,0,31,31,29,,262.6419878000015,,,,,,255.4959588000056,256.6945878999977,256.6945878999977,256.6945878999977,0.14127369999187067,260.0769663999963,,D:\GitHub\experiment1\data/90_Fam_2023-07-05_15h38.54.771_micFam_recorded\recording_micFam_2023-07-05_15h43.10.575.wav,,,,,,,90,001,2023-07-05_15h38.54.771,Fam,2022.2.4,60.09070090378212,
REPSWITCH1_Fam/PICTURE_48.png,bombero,0,32,32,22,,270.3734359999944,,,,,,263.1437823000015,264.3092561999947,264.3092561999947,264.3092561999947,0.03258510000887327,267.79185409999627,270.3734359999944,D:\GitHub\experiment1\data/90_Fam_2023-07-05_15h38.54.771_micFam_recorded\recording_micFam_2023-07-05_15h43.18.308.wav,,,,,,,90,001,2023-07-05_15h38.54.771,Fam,2022.2.4,60.09070090378212,
REPSWITCH1_Fam/PICTURE_178.png,puente,0,33,33,7,,278.27164409999386,,,,,278.7730891999963,270.87478860000556,272.1906611000013,272.1906611000013,272.1906611000013,0.030273600001237355,275.6730979999993,278.27164409999386,D:\GitHub\experiment1\data/90_Fam_2023-07-05_15h38.54.771_micFam_recorded\recording_micFam_2023-07-05_15h43.26.185.wav,,,,,,,90,001,2023-07-05_15h38.54.771,Fam,2022.2.4,60.09070090378212,
REPSWITCH1_Fam/PICTURE_199.png,falda,0,34,34,9,,286.15237559999514,,,,,286.6547059000004,278.7730891999963,280.18879089999245,280.18879089999245,280.18879089999245,0.11465870001120493,283.5878492000047,286.15237559999514,D:\GitHub\experiment1\data/90_Fam_2023-07-05_15h38.54.771_micFam_recorded\recording_micFam_2023-07-05_15h43.34.097.wav,,,,,,,90,001,2023-07-05_15h38.54.771,Fam,2022.2.4,60.09070090378212,
REPSWITCH1_Fam/PICTURE_35.png,oreja,0,35,35,18,,293.83447269999306,,,,,294.33630280000216,286.6547059000004,287.903392799999,287.903392799999,287.903392799999,0.13579400000162423,291.2692198000004,293.83447269999306,D:\GitHub\experiment1\data/90_Fam_2023-07-05_15h38.54.771_micFam_recorded\recording_micFam_2023-07-05_15h43.41.775.wav,,,,,,,90,001,2023-07-05_15h38.54.771,Fam,2022.2.4,60.09070090378212,
REPSWITCH1_Fam/PICTURE_19.png,pavo,0,36,36,8,,301.5828079999919,,,,,,294.33630280000216,295.61853079999855,295.61853079999855,295.61853079999855,0.13028170001052786,299.00089759999537,301.5828079999919,D:\GitHub\experiment1\data/90_Fam_2023-07-05_15h38.54.771_micFam_recorded\recording_micFam_2023-07-05_15h43.49.515.wav,,,,,,,90,001,2023-07-05_15h38.54.771,Fam,2022.2.4,60.09070090378212,
REPSWITCH1_Fam/PICTURE_16.png,cazador,0,37,37,4,,309.28078590000223,,,,,309.7853860000032,302.0843010999961,303.3332093999925,303.3332093999925,303.3332093999925,0.11907889999565668,306.71566679999523,309.28078590000223,D:\GitHub\experiment1\data/90_Fam_2023-07-05_15h38.54.771_micFam_recorded\recording_micFam_2023-07-05_15h43.57.227.wav,,,,,,,90,001,2023-07-05_15h38.54.771,Fam,2022.2.4,60.09070090378212,
REPSWITCH1_Fam/PICTURE_128.png,muñeca,0,38,38,0,,316.96232930000406,,,,,317.46415659999184,309.7853860000032,310.91556649999984,310.91556649999984,310.91556649999984,0.025766899998416193,314.39737940000487,316.96232930000406,D:\GitHub\experiment1\data/90_Fam_2023-07-05_15h38.54.771_micFam_recorded\recording_micFam_2023-07-05_15h44.04.905.wav,,,,,,,90,001,2023-07-05_15h38.54.771,Fam,2022.2.4,60.09070090378212,
,,,,,,,317.46415659999184,,,,,317.97922349999135,,,,,,,,,,,317.97922349999135,317.97922349999135,space,1.7011818000028143,90,001,2023-07-05_15h38.54.771,Fam,2022.2.4,60.09070090378212,
