image,correctAns,respModal,frameColor,repSwitch,sequence,target,set,block,list,exp_version,stimulus,baseline,baseline_condition,trial_no,psychopy_trial,Column1,trialsREPSWITCH.thisRepN,trialsREPSWITCH.thisTrialN,trialsREPSWITCH.thisN,trialsREPSWITCH.thisIndex,textWelcome.started,textboxInstrMain1.started,textboxInstrMain1_2.started,textboxInstrMain1_3.started,keyInstrMain.started,keyInstrMain.keys,keyInstrMain.rt,textboxInstrMain2.started,textboxInstrMain2_2.started,textboxInstrMain2_3.started,textboxInstrMain2_4.started,textboxInstrMain2_5.started,textboxInstrMain2_6.started,textboxInstrMain2_7.started,textboxInstrMain2_8.started,textboxInstrMain2_9.started,textboxInstrMain2_10.started,textboxInstrMain2_11.started,textboxInstrMain2_12.started,keyInstrMain2.started,keyInstrMain2.keys,keyInstrMain2.rt,fixationITI.started,fixationITI.stopped,polygonColour.started,polygonWhite.started,imageObject.started,polygonType.started,textInput.started,keyResp.started,micRespv1l1.started,keyResp.keys,keyResp.corr,keyResp.rt,subjResponse,micRespv1l1.clip,textBlankLoop.started,textBlankLoop.stopped,keyPause.keys,polygonColour.stopped,polygonWhite.stopped,imageObject.stopped,polygonType.stopped,textInput.stopped,keyResp.stopped,textboxPause.started,keyPause.started,keyPause.rt,textboxGoodbye.started,textboxGoodbye.stopped,participant,session,date,expName,psychopyVersion,frameRate,
,,,,,,,,,,,,,,,,,,,,,9.091509599995334,11.587729499995476,11.587729499995476,11.587729499995476,11.587729499995476,space,8.783499100012705,,,,,,,,,,,,,,,,,,,,,,,,,,,,,,,,,,,,,,,,,,,,010101,001,2023-11-10_13h54.48.695,REPSWITCH1_version1_list1,2022.2.4,143.9951156551907,
,,,,,,,,,,,,,,,,,,,,,,,,,,,,20.38743329999852,20.38743329999852,20.38743329999852,20.38743329999852,20.38743329999852,20.38743329999852,20.38743329999852,20.38743329999852,20.38743329999852,20.38743329999852,20.38743329999852,20.38743329999852,20.38743329999852,space,4.898779400013154,,,,,,,,,,,,,,,,,,,,,,,,,,,,,010101,001,2023-11-10_13h54.48.695,REPSWITCH1_version1_list1,2022.2.4,143.9951156551907,
REPSWITCH1/PICTURE_340.png,espejo,type,darkblue,filler,1,F,1,1,1,1,Extra1,0,None,1,0,1,0,0,0,0,,,,,,,,,,,,,,,,,,,,,,,25.38114750001114,26.534111800021492,26.534111800021492,26.534111800021492,26.534111800021492,26.534111800021492,26.534111800021492,26.534111800021492,26.534111800021492,"['s', 'p', 'e', 'j', 'o']",0,"[1.5486688000091817, 1.929457399994135, 2.1230640999856405, 2.5258161000092514, 2.5945866999973077]",spejo,C:\2023\REPSWITCH21092023\REPSWITCH_excgange\REPSWITCH_excgange\data/010101_REPSWITCH1_version1_list1_2023-11-10_13h54.48.695_micRespv1l1_recorded\recording_micRespv1l1_2023-11-10_13h55.10.928.wav,29.555302499997197,30.055382200021995,None,,,,,,,,,,,,010101,001,2023-11-10_13h54.48.695,REPSWITCH1_version1_list1,2022.2.4,143.9951156551907,
REPSWITCH1/PICTURE_391.png,cadena,speak,gold,filler,2,F,1,1,1,1,Extra2,0,None,2,1,2,0,1,1,1,,,,,,,,,,,,,,,,,,,,,,,30.055382200021995,31.194432999996934,31.194432999996934,31.194432999996934,31.194432999996934,31.194432999996934,31.194432999996934,31.194432999996934,31.194432999996934,None,0,,,C:\2023\REPSWITCH21092023\REPSWITCH_excgange\REPSWITCH_excgange\data/010101_REPSWITCH1_version1_list1_2023-11-10_13h54.48.695_micRespv1l1_recorded\recording_micRespv1l1_2023-11-10_13h55.15.592.wav,34.222625499998685,34.722686000022804,None,34.222625499998685,34.222625499998685,34.222625499998685,34.222625499998685,34.222625499998685,34.222625499998685,,,,,,010101,001,2023-11-10_13h54.48.695,REPSWITCH1_version1_list1,2022.2.4,143.9951156551907,
REPSWITCH1/PICTURE_178.png,puente,speak,gold,nontarget,2,NT,1,1,1,1,Stim1_Set1,1,repeat,3,2,3,0,2,2,2,,,,,,,,,,,,,,,,,,,,,,,34.722686000022804,35.88252770001418,35.88252770001418,35.88252770001418,35.88252770001418,35.88252770001418,35.88252770001418,35.88252770001418,35.88252770001418,None,0,,,C:\2023\REPSWITCH21092023\REPSWITCH_excgange\REPSWITCH_excgange\data/010101_REPSWITCH1_version1_list1_2023-11-10_13h54.48.695_micRespv1l1_recorded\recording_micRespv1l1_2023-11-10_13h55.20.279.wav,38.91072919999715,39.410792500013486,None,38.91072919999715,38.91072919999715,38.91072919999715,38.91072919999715,38.91072919999715,38.91072919999715,,,,,,010101,001,2023-11-10_13h54.48.695,REPSWITCH1_version1_list1,2022.2.4,143.9951156551907,
REPSWITCH1/PICTURE_178.png,puente,speak,gold,repeat,2,T,1,1,1,1,Stim1_Set1,0,None,4,3,4,0,3,3,3,,,,,,,,,,,,,,,,,,,,,,,39.410792500013486,40.57066940001096,40.57066940001096,40.57066940001096,40.57066940001096,40.57066940001096,40.57066940001096,40.57066940001096,40.57066940001096,None,0,,,C:\2023\REPSWITCH21092023\REPSWITCH_excgange\REPSWITCH_excgange\data/010101_REPSWITCH1_version1_list1_2023-11-10_13h54.48.695_micRespv1l1_recorded\recording_micRespv1l1_2023-11-10_13h55.24.966.wav,43.59187900001416,44.09193819999928,None,43.59187900001416,43.59187900001416,43.59187900001416,43.59187900001416,43.59187900001416,43.59187900001416,,,,,,010101,001,2023-11-10_13h54.48.695,REPSWITCH1_version1_list1,2022.2.4,143.9951156551907,
REPSWITCH1/PICTURE_319.png,vaca,type,darkblue,filler,1,F,1,1,1,1,Stim1_Set4,0,None,5,4,5,0,4,4,4,,,,,,,,,,,,,,,,,,,,,,,44.09193819999928,45.161517400003504,45.161517400003504,45.161517400003504,45.161517400003504,45.161517400003504,45.161517400003504,45.161517400003504,45.161517400003504,"['v', 'a', 'c', 'a']",0,"[1.2281668999930844, 1.3786553000099957, 1.5205078000144567, 1.6620326999982353]",vaca,C:\2023\REPSWITCH21092023\REPSWITCH_excgange\REPSWITCH_excgange\data/010101_REPSWITCH1_version1_list1_2023-11-10_13h54.48.695_micRespv1l1_recorded\recording_micRespv1l1_2023-11-10_13h55.29.559.wav,48.189685599994846,48.689784700021846,None,48.189685599994846,48.189685599994846,48.189685599994846,48.189685599994846,48.189685599994846,48.189685599994846,,,,,,010101,001,2023-11-10_13h54.48.695,REPSWITCH1_version1_list1,2022.2.4,143.9951156551907,
REPSWITCH1/PICTURE_381.png,fresa,speak,gold,nontarget,2,NT,1,1,1,1,Stim2_Set1,1,switch,6,5,6,0,5,5,5,,,,,,,,,,,,,,,,,,,,,,,48.689784700021846,49.81494680000469,49.81494680000469,49.81494680000469,49.81494680000469,49.81494680000469,49.81494680000469,49.81494680000469,49.81494680000469,None,0,,,C:\2023\REPSWITCH21092023\REPSWITCH_excgange\REPSWITCH_excgange\data/010101_REPSWITCH1_version1_list1_2023-11-10_13h54.48.695_micRespv1l1_recorded\recording_micRespv1l1_2023-11-10_13h55.34.212.wav,52.843109900015406,,None,52.843109900015406,52.843109900015406,52.843109900015406,52.843109900015406,52.843109900015406,52.843109900015406,,,,,,010101,001,2023-11-10_13h54.48.695,REPSWITCH1_version1_list1,2022.2.4,143.9951156551907,
REPSWITCH1/PICTURE_381.png,fresa,speak,gold,repeat,2,T,1,1,1,1,Stim2_Set1,0,None,7,6,7,0,6,6,6,,,,,,,,,,,,,,,,,,,,,,,53.34316899999976,54.41275940000196,54.41275940000196,54.41275940000196,54.41275940000196,54.41275940000196,54.41275940000196,54.41275940000196,54.41275940000196,None,0,,,C:\2023\REPSWITCH21092023\REPSWITCH_excgange\REPSWITCH_excgange\data/010101_REPSWITCH1_version1_list1_2023-11-10_13h54.48.695_micRespv1l1_recorded\recording_micRespv1l1_2023-11-10_13h55.38.809.wav,57.433972900005756,57.93404880000162,None,57.433972900005756,57.433972900005756,57.433972900005756,57.433972900005756,57.433972900005756,57.433972900005756,,,,,,010101,001,2023-11-10_13h54.48.695,REPSWITCH1_version1_list1,2022.2.4,143.9951156551907,
REPSWITCH1/PICTURE_719.png,baño,type,darkblue,filler,1,F,1,1,1,1,Stim2_Set4,1,switch,8,7,8,0,7,7,7,,,,,,,,,,,,,,,,,,,,,,,57.93404880000162,59.05221039999742,59.05221039999742,59.05221039999742,59.05221039999742,59.05221039999742,59.05221039999742,59.05221039999742,59.05221039999742,"['b', 'a', 'n', 'o']",0,"[1.3170134000247344, 1.5053740000003017, 2.753269000008004, 2.822257300023921]",bano,C:\2023\REPSWITCH21092023\REPSWITCH_excgange\REPSWITCH_excgange\data/010101_REPSWITCH1_version1_list1_2023-11-10_13h54.48.695_micRespv1l1_recorded\recording_micRespv1l1_2023-11-10_13h55.43.449.wav,62.08041220001178,,None,62.08041220001178,62.08041220001178,62.08041220001178,62.08041220001178,62.08041220001178,62.08041220001178,,,,,,010101,001,2023-11-10_13h54.48.695,REPSWITCH1_version1_list1,2022.2.4,143.9951156551907,
REPSWITCH1/PICTURE_135.png,traje,speak,gold,nontarget,2,NT,1,1,1,1,Stim3_Set1,0,None,9,8,9,0,8,8,8,,,,,,,,,,,,,,,,,,,,,,,62.58053780000773,63.68484880001051,63.68484880001051,63.68484880001051,63.68484880001051,63.68484880001051,63.68484880001051,63.68484880001051,63.68484880001051,None,0,,,C:\2023\REPSWITCH21092023\REPSWITCH_excgange\REPSWITCH_excgange\data/010101_REPSWITCH1_version1_list1_2023-11-10_13h54.48.695_micRespv1l1_recorded\recording_micRespv1l1_2023-11-10_13h55.48.082.wav,66.71300499999779,67.21311670000432,None,66.71300499999779,66.71300499999779,66.71300499999779,66.71300499999779,66.71300499999779,66.71300499999779,,,,,,010101,001,2023-11-10_13h54.48.695,REPSWITCH1_version1_list1,2022.2.4,143.9951156551907,
REPSWITCH1/PICTURE_135.png,traje,type,darkblue,switch,1,T,1,1,1,1,Stim3_Set1,0,None,10,9,10,0,9,9,9,,,,,,,,,,,,,,,,,,,,,,,67.21311670000432,68.27569400001084,68.27569400001084,68.27569400001084,68.27569400001084,68.27569400001084,68.27569400001084,68.27569400001084,68.27569400001084,"['t', 'r', 'a', 'j', 'e']",0,"[1.2480166000023019, 1.4064944000274409, 1.590841300028842, 1.8154232000233606, 1.933024000027217]",traje,C:\2023\REPSWITCH21092023\REPSWITCH_excgange\REPSWITCH_excgange\data/010101_REPSWITCH1_version1_list1_2023-11-10_13h54.48.695_micRespv1l1_recorded\recording_micRespv1l1_2023-11-10_13h55.52.671.wav,71.29691299999831,71.79697840000154,None,71.29691299999831,71.29691299999831,71.29691299999831,71.29691299999831,71.29691299999831,71.29691299999831,,,,,,010101,001,2023-11-10_13h54.48.695,REPSWITCH1_version1_list1,2022.2.4,143.9951156551907,
REPSWITCH1/PICTURE_687.png,camisa,speak,gold,filler,2,F,1,1,1,1,Stim5_Set4,0,None,11,10,11,0,10,10,10,,,,,,,,,,,,,,,,,,,,,,,71.79697840000154,72.936045200011,72.936045200011,72.936045200011,72.936045200011,72.936045200011,72.936045200011,72.936045200011,72.936045200011,None,0,,,C:\2023\REPSWITCH21092023\REPSWITCH_excgange\REPSWITCH_excgange\data/010101_REPSWITCH1_version1_list1_2023-11-10_13h54.48.695_micRespv1l1_recorded\recording_micRespv1l1_2023-11-10_13h55.57.334.wav,75.96418609999819,76.46423900002264,None,75.96418609999819,75.96418609999819,75.96418609999819,75.96418609999819,75.96418609999819,75.96418609999819,,,,,,010101,001,2023-11-10_13h54.48.695,REPSWITCH1_version1_list1,2022.2.4,143.9951156551907,
REPSWITCH1/PICTURE_128.png,muñeca,type,darkblue,nontarget,1,NT,1,1,1,1,Stim4_Set1,1,switch,12,11,12,0,11,11,11,,,,,,,,,,,,,,,,,,,,,,,76.46423900002264,77.58244440000271,77.58244440000271,77.58244440000271,77.58244440000271,77.58244440000271,77.58244440000271,77.58244440000271,77.58244440000271,"['m', 'u', 'n', 'e', 'c', 'a']",0,"[1.039519800018752, 1.2557876000064425, 1.5528557000216097, 1.748435600020457, 2.343440800003009, 2.43051900001592]",muneca,C:\2023\REPSWITCH21092023\REPSWITCH_excgange\REPSWITCH_excgange\data/010101_REPSWITCH1_version1_list1_2023-11-10_13h54.48.695_micRespv1l1_recorded\recording_micRespv1l1_2023-11-10_13h56.01.979.wav,80.61070700001437,,None,80.61070700001437,80.61070700001437,80.61070700001437,80.61070700001437,80.61070700001437,80.61070700001437,,,,,,010101,001,2023-11-10_13h54.48.695,REPSWITCH1_version1_list1,2022.2.4,143.9951156551907,
REPSWITCH1/PICTURE_128.png,muñeca,speak,gold,switch,2,T,1,1,1,1,Stim4_Set1,0,None,13,12,13,0,12,12,12,,,,,,,,,,,,,,,,,,,,,,,81.1107742000022,82.21502510001301,82.21502510001301,82.21502510001301,82.21502510001301,82.21502510001301,82.21502510001301,82.21502510001301,82.21502510001301,None,0,,,C:\2023\REPSWITCH21092023\REPSWITCH_excgange\REPSWITCH_excgange\data/010101_REPSWITCH1_version1_list1_2023-11-10_13h54.48.695_micRespv1l1_recorded\recording_micRespv1l1_2023-11-10_13h56.06.612.wav,85.23621630002162,85.73634770000353,None,85.23621630002162,85.23621630002162,85.23621630002162,85.23621630002162,85.23621630002162,85.23621630002162,,,,,,010101,001,2023-11-10_13h54.48.695,REPSWITCH1_version1_list1,2022.2.4,143.9951156551907,
REPSWITCH1/PICTURE_8.png,pierna,speak,gold,filler,2,F,1,1,1,1,Stim3_Set4,0,None,14,13,14,0,13,13,13,,,,,,,,,,,,,,,,,,,,,,,85.73634770000353,86.84755470001255,86.84755470001255,86.84755470001255,86.84755470001255,86.84755470001255,86.84755470001255,86.84755470001255,86.84755470001255,None,0,,,C:\2023\REPSWITCH21092023\REPSWITCH_excgange\REPSWITCH_excgange\data/010101_REPSWITCH1_version1_list1_2023-11-10_13h54.48.695_micRespv1l1_recorded\recording_micRespv1l1_2023-11-10_13h56.11.244.wav,89.87575790000847,,None,89.87575790000847,89.87575790000847,89.87575790000847,89.87575790000847,89.87575790000847,89.87575790000847,,,,,,010101,001,2023-11-10_13h54.48.695,REPSWITCH1_version1_list1,2022.2.4,143.9951156551907,
REPSWITCH1/PICTURE_19.png,pavo,speak,gold,nontarget,2,NT,1,1,1,1,Stim5_Set1,0,None,15,14,15,0,14,14,14,,,,,,,,,,,,,,,,,,,,,,,90.37579459999688,91.4593126999971,91.4593126999971,91.4593126999971,91.4593126999971,91.4593126999971,91.4593126999971,91.4593126999971,91.4593126999971,None,0,,,C:\2023\REPSWITCH21092023\REPSWITCH_excgange\REPSWITCH_excgange\data/010101_REPSWITCH1_version1_list1_2023-11-10_13h54.48.695_micRespv1l1_recorded\recording_micRespv1l1_2023-11-10_13h56.15.857.wav,94.48742380001931,94.98749080000562,None,94.48742380001931,94.48742380001931,94.48742380001931,94.48742380001931,94.48742380001931,94.48742380001931,,,,,,010101,001,2023-11-10_13h54.48.695,REPSWITCH1_version1_list1,2022.2.4,143.9951156551907,
REPSWITCH1/PICTURE_19.png,pavo,type,darkblue,switch,1,T,1,1,1,1,Stim5_Set1,0,None,16,15,16,0,15,15,15,,,,,,,,,,,,,,,,,,,,,,,94.98749080000562,96.16820280000684,96.16820280000684,96.16820280000684,96.16820280000684,96.16820280000684,96.16820280000684,96.16820280000684,96.16820280000684,"['p', 'a', 'v', 'o']",0,"[0.9589226999960374, 1.0675898999907076, 1.302794699993683, 1.4672124999924563]",pavo,C:\2023\REPSWITCH21092023\REPSWITCH_excgange\REPSWITCH_excgange\data/010101_REPSWITCH1_version1_list1_2023-11-10_13h54.48.695_micRespv1l1_recorded\recording_micRespv1l1_2023-11-10_13h56.20.564.wav,99.19643380001071,,None,99.19643380001071,99.19643380001071,99.19643380001071,99.19643380001071,99.19643380001071,99.19643380001071,,,,,,010101,001,2023-11-10_13h54.48.695,REPSWITCH1_version1_list1,2022.2.4,143.9951156551907,
REPSWITCH1/PICTURE_16.png,cazador,type,darkblue,nontarget,1,NT,1,1,1,1,Stim6_Set1,1,switch,17,16,17,0,16,16,16,,,,,,,,,,,,,,,,,,,,,,,99.69643430001452,100.83548820001306,100.83548820001306,100.83548820001306,100.83548820001306,100.83548820001306,100.83548820001306,100.83548820001306,100.83548820001306,"['c', 'a', 'z', 'a', 'd', 'o', 'r']",0,"[1.4858970000059344, 1.6078211000130977, 1.8709146000037435, 1.9722669000038877, 2.2066914000024553, 2.403036100004101, 2.589416100003291]",cazador,C:\2023\REPSWITCH21092023\REPSWITCH_excgange\REPSWITCH_excgange\data/010101_REPSWITCH1_version1_list1_2023-11-10_13h54.48.695_micRespv1l1_recorded\recording_micRespv1l1_2023-11-10_13h56.25.232.wav,103.86367360001896,104.36372449999908,None,103.86367360001896,103.86367360001896,103.86367360001896,103.86367360001896,103.86367360001896,103.86367360001896,,,,,,010101,001,2023-11-10_13h54.48.695,REPSWITCH1_version1_list1,2022.2.4,143.9951156551907,
REPSWITCH1/PICTURE_16.png,cazador,type,darkblue,repeat,1,T,1,1,1,1,Stim6_Set1,0,None,18,17,18,0,17,17,17,,,,,,,,,,,,,,,,,,,,,,,104.36372449999908,105.44033760001184,105.44033760001184,105.44033760001184,105.44033760001184,105.44033760001184,105.44033760001184,105.44033760001184,105.44033760001184,"['c', 'a', 'z', 'a', 'd', 'o', 'r']",0,"[1.021748099999968, 1.192201700003352, 1.3795816999918316, 1.485860999993747, 1.7605604999989737, 1.8861129000142682, 2.02367699999013]",cazador,C:\2023\REPSWITCH21092023\REPSWITCH_excgange\REPSWITCH_excgange\data/010101_REPSWITCH1_version1_list1_2023-11-10_13h54.48.695_micRespv1l1_recorded\recording_micRespv1l1_2023-11-10_13h56.29.836.wav,108.468477300019,,None,108.468477300019,108.468477300019,108.468477300019,108.468477300019,108.468477300019,108.468477300019,,,,,,010101,001,2023-11-10_13h54.48.695,REPSWITCH1_version1_list1,2022.2.4,143.9951156551907,
REPSWITCH1/PICTURE_498.png,taza,speak,gold,filler,2,F,1,1,1,1,Stim4_Set4,0,None,19,18,19,0,18,18,18,,,,,,,,,,,,,,,,,,,,,,,108.96849910001038,110.06587180000497,110.06587180000497,110.06587180000497,110.06587180000497,110.06587180000497,110.06587180000497,110.06587180000497,110.06587180000497,None,0,,,C:\2023\REPSWITCH21092023\REPSWITCH_excgange\REPSWITCH_excgange\data/010101_REPSWITCH1_version1_list1_2023-11-10_13h54.48.695_micRespv1l1_recorded\recording_micRespv1l1_2023-11-10_13h56.34.462.wav,113.08706940000411,113.58716210001148,None,113.08706940000411,113.08706940000411,113.08706940000411,113.08706940000411,113.08706940000411,113.08706940000411,,,,,,010101,001,2023-11-10_13h54.48.695,REPSWITCH1_version1_list1,2022.2.4,143.9951156551907,
REPSWITCH1/PICTURE_48.png,bombero,type,darkblue,filler,1,F,1,1,1,1,Stim7_Set4,0,None,20,19,20,0,19,19,19,,,,,,,,,,,,,,,,,,,,,,,113.58716210001148,114.72620440000901,114.72620440000901,114.72620440000901,114.72620440000901,114.72620440000901,114.72620440000901,114.72620440000901,114.72620440000901,"['b', 'o', 'm', 'b', 'e', 'r', 'o']",0,"[1.0675634000217542, 1.206191500008572, 1.4109263000136707, 1.5823957000102382, 1.68733010001597, 2.1918421000009403, 2.341199900023639]",bombero,C:\2023\REPSWITCH21092023\REPSWITCH_excgange\REPSWITCH_excgange\data/010101_REPSWITCH1_version1_list1_2023-11-10_13h54.48.695_micRespv1l1_recorded\recording_micRespv1l1_2023-11-10_13h56.39.123.wav,117.75435870001093,118.25442030001432,None,117.75435870001093,117.75435870001093,117.75435870001093,117.75435870001093,117.75435870001093,117.75435870001093,,,,,,010101,001,2023-11-10_13h54.48.695,REPSWITCH1_version1_list1,2022.2.4,143.9951156551907,
REPSWITCH1/PICTURE_142.png,vaso,type,darkblue,nontarget,1,NT,1,1,1,1,Stim7_Set1,1,repeat,21,20,21,0,20,20,20,,,,,,,,,,,,,,,,,,,,,,,118.25442030001432,119.33097110001836,119.33097110001836,119.33097110001836,119.33097110001836,119.33097110001836,119.33097110001836,119.33097110001836,119.33097110001836,"['v', 'a', 's', 'o']",0,"[1.0627853999903891, 1.164423899987014, 1.375958399992669, 1.599290199985262]",vaso,C:\2023\REPSWITCH21092023\REPSWITCH_excgange\REPSWITCH_excgange\data/010101_REPSWITCH1_version1_list1_2023-11-10_13h54.48.695_micRespv1l1_recorded\recording_micRespv1l1_2023-11-10_13h56.43.728.wav,122.35915720000048,122.85920420000912,None,122.35915720000048,122.35915720000048,122.35915720000048,122.35915720000048,122.35915720000048,122.35915720000048,,,,,,010101,001,2023-11-10_13h54.48.695,REPSWITCH1_version1_list1,2022.2.4,143.9951156551907,
REPSWITCH1/PICTURE_142.png,vaso,type,darkblue,repeat,1,T,1,1,1,1,Stim7_Set1,0,None,22,21,22,0,21,21,21,,,,,,,,,,,,,,,,,,,,,,,122.85920420000912,123.94267099999706,123.94267099999706,123.94267099999706,123.94267099999706,123.94267099999706,123.94267099999706,123.94267099999706,123.94267099999706,"['v', 'a', 's', 'o']",0,"[1.0650230000028387, 1.1603085999959148, 1.349694999982603, 1.5181274999922607]",vaso,C:\2023\REPSWITCH21092023\REPSWITCH_excgange\REPSWITCH_excgange\data/010101_REPSWITCH1_version1_list1_2023-11-10_13h54.48.695_micRespv1l1_recorded\recording_micRespv1l1_2023-11-10_13h56.48.339.wav,126.97086370000034,,None,126.97086370000034,126.97086370000034,126.97086370000034,126.97086370000034,126.97086370000034,126.97086370000034,,,,,,010101,001,2023-11-10_13h54.48.695,REPSWITCH1_version1_list1,2022.2.4,143.9951156551907,
REPSWITCH1/PICTURE_338.png,regalo,speak,gold,filler,2,F,1,1,1,1,Stim6_Set4,1,switch,23,22,23,0,22,22,22,,,,,,,,,,,,,,,,,,,,,,,127.47091679999721,128.57521000000997,128.57521000000997,128.57521000000997,128.57521000000997,128.57521000000997,128.57521000000997,128.57521000000997,128.57521000000997,None,0,,,C:\2023\REPSWITCH21092023\REPSWITCH_excgange\REPSWITCH_excgange\data/010101_REPSWITCH1_version1_list1_2023-11-10_13h54.48.695_micRespv1l1_recorded\recording_micRespv1l1_2023-11-10_13h56.52.973.wav,131.60339460000978,132.10350739999558,None,131.60339460000978,131.60339460000978,131.60339460000978,131.60339460000978,131.60339460000978,131.60339460000978,,,,,,010101,001,2023-11-10_13h54.48.695,REPSWITCH1_version1_list1,2022.2.4,143.9951156551907,
REPSWITCH1/PICTURE_728.png,pulpo,type,darkblue,filler,1,F,1,1,1,1,Stim8_Set4,1,switch,24,23,24,0,23,23,23,,,,,,,,,,,,,,,,,,,,,,,132.10350739999558,133.2008068000141,133.2008068000141,133.2008068000141,133.2008068000141,133.2008068000141,133.2008068000141,133.2008068000141,133.2008068000141,"['p', 'u', 'l', 'p', 'o']",0,"[1.5634233000164386, 1.8593495000095572, 2.1178367000247817, 2.6420494000194594, 2.7958161999995355]",pulpo,C:\2023\REPSWITCH21092023\REPSWITCH_excgange\REPSWITCH_excgange\data/010101_REPSWITCH1_version1_list1_2023-11-10_13h54.48.695_micRespv1l1_recorded\recording_micRespv1l1_2023-11-10_13h56.57.597.wav,136.22902190001332,,None,136.22902190001332,136.22902190001332,136.22902190001332,136.22902190001332,136.22902190001332,136.22902190001332,,,,,,010101,001,2023-11-10_13h54.48.695,REPSWITCH1_version1_list1,2022.2.4,143.9951156551907,
REPSWITCH1/PICTURE_169.png,espalda,type,darkblue,nontarget,1,NT,1,1,1,1,Stim8_Set1,1,repeat,25,24,25,0,24,24,24,,,,,,,,,,,,,,,,,,,,,,,136.72916060002171,137.80561540002236,137.80561540002236,137.80561540002236,137.80561540002236,137.80561540002236,137.80561540002236,137.80561540002236,137.80561540002236,"['e', 's', 'p', 'a', 'l', 'd', 'a']",0,"[0.9870307999954093, 1.1877146000042558, 1.3432091000140645, 1.4837020999984816, 1.6167405000014696, 2.082681200001389, 2.188310099998489]",espalda,C:\2023\REPSWITCH21092023\REPSWITCH_excgange\REPSWITCH_excgange\data/010101_REPSWITCH1_version1_list1_2023-11-10_13h54.48.695_micRespv1l1_recorded\recording_micRespv1l1_2023-11-10_13h57.02.204.wav,140.83379610002157,141.33385730002192,None,140.83379610002157,140.83379610002157,140.83379610002157,140.83379610002157,140.83379610002157,140.83379610002157,,,,,,010101,001,2023-11-10_13h54.48.695,REPSWITCH1_version1_list1,2022.2.4,143.9951156551907,
REPSWITCH1/PICTURE_169.png,espalda,speak,gold,switch,2,T,1,1,1,1,Stim8_Set1,0,None,26,25,26,0,25,25,25,,,,,,,,,,,,,,,,,,,,,,,141.33385730002192,142.47989060002146,142.47989060002146,142.47989060002146,142.47989060002146,142.47989060002146,142.47989060002146,142.47989060002146,142.47989060002146,None,0,,,C:\2023\REPSWITCH21092023\REPSWITCH_excgange\REPSWITCH_excgange\data/010101_REPSWITCH1_version1_list1_2023-11-10_13h54.48.695_micRespv1l1_recorded\recording_micRespv1l1_2023-11-10_13h57.06.876.wav,145.50107560001197,146.0011917000229,None,145.50107560001197,145.50107560001197,145.50107560001197,145.50107560001197,145.50107560001197,145.50107560001197,,,,,,010101,001,2023-11-10_13h54.48.695,REPSWITCH1_version1_list1,2022.2.4,143.9951156551907,
REPSWITCH1/PICTURE_178.png,puente,speak,gold,filler,2,F,2,1,1,1,Stim1_Set1,0,None,27,26,27,0,26,26,26,,,,,,,,,,,,,,,,,,,,,,,146.0011917000229,147.18192410000484,147.18192410000484,147.18192410000484,147.18192410000484,147.18192410000484,147.18192410000484,147.18192410000484,147.18192410000484,None,0,,,C:\2023\REPSWITCH21092023\REPSWITCH_excgange\REPSWITCH_excgange\data/010101_REPSWITCH1_version1_list1_2023-11-10_13h54.48.695_micRespv1l1_recorded\recording_micRespv1l1_2023-11-10_13h57.11.578.wav,150.20309640001506,150.70313270000042,None,150.20309640001506,150.20309640001506,150.20309640001506,150.20309640001506,150.20309640001506,150.20309640001506,,,,,,010101,001,2023-11-10_13h54.48.695,REPSWITCH1_version1_list1,2022.2.4,143.9951156551907,
REPSWITCH1/PICTURE_175.png,pintor,type,darkblue,nontarget,1,NT,2,1,1,1,Stim1_Set2,1,switch,28,27,28,0,27,27,27,,,,,,,,,,,,,,,,,,,,,,,150.70313270000042,151.80050400001346,151.80050400001346,151.80050400001346,151.80050400001346,151.80050400001346,151.80050400001346,151.80050400001346,151.80050400001346,"['p', 'i', 'n', 't', 'o', 'r']",0,"[1.165097400022205, 1.3845587000250816, 1.565263300028164, 1.7276738000218756, 1.8747473000257742, 1.9924247000017203]",pintor,C:\2023\REPSWITCH21092023\REPSWITCH_excgange\REPSWITCH_excgange\data/010101_REPSWITCH1_version1_list1_2023-11-10_13h54.48.695_micRespv1l1_recorded\recording_micRespv1l1_2023-11-10_13h57.16.197.wav,154.82868200002122,155.32874029999948,None,154.82868200002122,154.82868200002122,154.82868200002122,154.82868200002122,154.82868200002122,154.82868200002122,,,,,,010101,001,2023-11-10_13h54.48.695,REPSWITCH1_version1_list1,2022.2.4,143.9951156551907,
REPSWITCH1/PICTURE_175.png,pintor,type,darkblue,repeat,1,T,2,1,1,1,Stim1_Set2,0,None,29,28,29,0,28,28,28,,,,,,,,,,,,,,,,,,,,,,,155.32874029999948,156.39832979999483,156.39832979999483,156.39832979999483,156.39832979999483,156.39832979999483,156.39832979999483,156.39832979999483,156.39832979999483,"['p', 'i', 'n', 't', 'o', 'r']",0,"[1.3767351999995299, 1.6407671999768354, 1.8401629999862053, 2.100288699992234, 2.2149221999861766, 2.320516999985557]",pintor,C:\2023\REPSWITCH21092023\REPSWITCH_excgange\REPSWITCH_excgange\data/010101_REPSWITCH1_version1_list1_2023-11-10_13h54.48.695_micRespv1l1_recorded\recording_micRespv1l1_2023-11-10_13h57.20.795.wav,159.42650400000275,,None,159.42650400000275,159.42650400000275,159.42650400000275,159.42650400000275,159.42650400000275,159.42650400000275,,,,,,010101,001,2023-11-10_13h54.48.695,REPSWITCH1_version1_list1,2022.2.4,143.9951156551907,
REPSWITCH1/PICTURE_381.png,fresa,speak,gold,filler,2,F,2,1,1,1,Stim2_Set1,0,None,30,29,30,0,29,29,29,,,,,,,,,,,,,,,,,,,,,,,159.92656330001773,161.05871000001207,161.05871000001207,161.05871000001207,161.05871000001207,161.05871000001207,161.05871000001207,161.05871000001207,161.05871000001207,None,0,,,C:\2023\REPSWITCH21092023\REPSWITCH_excgange\REPSWITCH_excgange\data/010101_REPSWITCH1_version1_list1_2023-11-10_13h54.48.695_micRespv1l1_recorded\recording_micRespv1l1_2023-11-10_13h57.25.454.wav,164.07988910001586,164.57995700000902,None,164.07988910001586,164.07988910001586,164.07988910001586,164.07988910001586,164.07988910001586,164.07988910001586,,,,,,010101,001,2023-11-10_13h54.48.695,REPSWITCH1_version1_list1,2022.2.4,143.9951156551907,
REPSWITCH1/PICTURE_152.png,caracol,type,darkblue,nontarget,1,NT,2,1,1,1,Stim2_Set2,1,switch,31,30,31,0,30,30,30,,,,,,,,,,,,,,,,,,,,,,,164.57995700000902,165.64953769999556,165.64953769999556,165.64953769999556,165.64953769999556,165.64953769999556,165.64953769999556,165.64953769999556,165.64953769999556,"['c', 'a', 'r', 'a', 'c', 'o', 'l']",0,"[1.1384986000193749, 1.1952903000055812, 1.416399800014915, 1.5393692000070587, 1.707080499996664, 1.919976700010011, 2.118340500019258]",caracol,C:\2023\REPSWITCH21092023\REPSWITCH_excgange\REPSWITCH_excgange\data/010101_REPSWITCH1_version1_list1_2023-11-10_13h54.48.695_micRespv1l1_recorded\recording_micRespv1l1_2023-11-10_13h57.30.047.wav,168.67771400001948,169.1777773000067,None,168.67771400001948,168.67771400001948,168.67771400001948,168.67771400001948,168.67771400001948,168.67771400001948,,,,,,010101,001,2023-11-10_13h54.48.695,REPSWITCH1_version1_list1,2022.2.4,143.9951156551907,
REPSWITCH1/PICTURE_152.png,caracol,type,darkblue,repeat,1,T,2,1,1,1,Stim2_Set2,0,None,32,31,32,0,31,31,31,,,,,,,,,,,,,,,,,,,,,,,169.1777773000067,170.19882099999813,170.19882099999813,170.19882099999813,170.19882099999813,170.19882099999813,170.19882099999813,170.19882099999813,170.19882099999813,"['c', 'a', 'r', 'a', 'c', 'o', 'l']",0,"[1.3278826999885496, 1.4379032999859191, 1.6761369000014383, 1.783783199993195, 2.0810600999975577, 2.2713801999925636, 2.4278870999987703]",caracol,C:\2023\REPSWITCH21092023\REPSWITCH_excgange\REPSWITCH_excgange\data/010101_REPSWITCH1_version1_list1_2023-11-10_13h54.48.695_micRespv1l1_recorded\recording_micRespv1l1_2023-11-10_13h57.34.595.wav,173.22692310001003,,None,173.22692310001003,173.22692310001003,173.22692310001003,173.22692310001003,173.22692310001003,173.22692310001003,,,,,,010101,001,2023-11-10_13h54.48.695,REPSWITCH1_version1_list1,2022.2.4,143.9951156551907,
REPSWITCH1/PICTURE_128.png,muñeca,speak,gold,filler,2,F,2,1,1,1,Stim4_Set1,0,None,33,32,33,0,32,32,32,,,,,,,,,,,,,,,,,,,,,,,173.72698430001037,174.7618644000031,174.7618644000031,174.7618644000031,174.7618644000031,174.7618644000031,174.7618644000031,174.7618644000031,174.7618644000031,None,0,,,C:\2023\REPSWITCH21092023\REPSWITCH_excgange\REPSWITCH_excgange\data/010101_REPSWITCH1_version1_list1_2023-11-10_13h54.48.695_micRespv1l1_recorded\recording_micRespv1l1_2023-11-10_13h57.39.158.wav,177.79001870000502,,None,177.79001870000502,177.79001870000502,177.79001870000502,177.79001870000502,177.79001870000502,177.79001870000502,,,,,,010101,001,2023-11-10_13h54.48.695,REPSWITCH1_version1_list1,2022.2.4,143.9951156551907,
REPSWITCH1/PICTURE_264.png,mano,type,darkblue,nontarget,1,NT,2,1,1,1,Stim3_Set2,0,None,34,33,34,0,33,33,33,,,,,,,,,,,,,,,,,,,,,,,178.29006470000604,179.4082875000022,179.4082875000022,179.4082875000022,179.4082875000022,179.4082875000022,179.4082875000022,179.4082875000022,179.4082875000022,"['m', 'a', 'n', 'o']",0,"[0.8509941000083927, 0.9766084000002593, 1.1400583000213373, 1.226729999994859]",mano,C:\2023\REPSWITCH21092023\REPSWITCH_excgange\REPSWITCH_excgange\data/010101_REPSWITCH1_version1_list1_2023-11-10_13h54.48.695_micRespv1l1_recorded\recording_micRespv1l1_2023-11-10_13h57.43.806.wav,182.43652040002053,182.93651550001232,None,182.43652040002053,182.43652040002053,182.43652040002053,182.43652040002053,182.43652040002053,182.43652040002053,,,,,,010101,001,2023-11-10_13h54.48.695,REPSWITCH1_version1_list1,2022.2.4,143.9951156551907,
REPSWITCH1/PICTURE_264.png,mano,speak,gold,switch,2,T,2,1,1,1,Stim3_Set2,0,None,35,34,35,0,34,34,34,,,,,,,,,,,,,,,,,,,,,,,182.93651550001232,184.06169349999982,184.06169349999982,184.06169349999982,184.06169349999982,184.06169349999982,184.06169349999982,184.06169349999982,184.06169349999982,None,0,,,C:\2023\REPSWITCH21092023\REPSWITCH_excgange\REPSWITCH_excgange\data/010101_REPSWITCH1_version1_list1_2023-11-10_13h54.48.695_micRespv1l1_recorded\recording_micRespv1l1_2023-11-10_13h57.48.457.wav,187.08296930001234,187.5829619000142,None,187.08296930001234,187.08296930001234,187.08296930001234,187.08296930001234,187.08296930001234,187.08296930001234,,,,,,010101,001,2023-11-10_13h54.48.695,REPSWITCH1_version1_list1,2022.2.4,143.9951156551907,
REPSWITCH1/PICTURE_517.png,cuerda,speak,gold,nontarget,2,NT,2,1,1,1,Stim4_Set2,1,repeat,36,35,36,0,35,35,35,,,,,,,,,,,,,,,,,,,,,,,187.5829619000142,188.6386248000199,188.6386248000199,188.6386248000199,188.6386248000199,188.6386248000199,188.6386248000199,188.6386248000199,188.6386248000199,None,0,,,C:\2023\REPSWITCH21092023\REPSWITCH_excgange\REPSWITCH_excgange\data/010101_REPSWITCH1_version1_list1_2023-11-10_13h54.48.695_micRespv1l1_recorded\recording_micRespv1l1_2023-11-10_13h57.53.035.wav,191.6668529000017,,None,191.6668529000017,191.6668529000017,191.6668529000017,191.6668529000017,191.6668529000017,191.6668529000017,,,,,,010101,001,2023-11-10_13h54.48.695,REPSWITCH1_version1_list1,2022.2.4,143.9951156551907,
REPSWITCH1/PICTURE_517.png,cuerda,type,darkblue,switch,1,T,2,1,1,1,Stim4_Set2,0,None,37,36,37,0,36,36,36,,,,,,,,,,,,,,,,,,,,,,,192.16688370000338,193.28515670000343,193.28515670000343,193.28515670000343,193.28515670000343,193.28515670000343,193.28515670000343,193.28515670000343,193.28515670000343,"['c', 'u', 'e', 'r', 'd', 'a']",0,"[1.2200647000281606, 1.3637368000054266, 1.4544293000071775, 1.6487804000207689, 1.886603400023887, 2.0899215000099503]",cuerda,C:\2023\REPSWITCH21092023\REPSWITCH_excgange\REPSWITCH_excgange\data/010101_REPSWITCH1_version1_list1_2023-11-10_13h54.48.695_micRespv1l1_recorded\recording_micRespv1l1_2023-11-10_13h57.57.680.wav,196.30632610002067,196.80635400000028,None,196.30632610002067,196.30632610002067,196.30632610002067,196.30632610002067,196.30632610002067,196.30632610002067,,,,,,010101,001,2023-11-10_13h54.48.695,REPSWITCH1_version1_list1,2022.2.4,143.9951156551907,
REPSWITCH1/PICTURE_135.png,traje,type,darkblue,filler,1,F,2,1,1,1,Stim3_Set1,0,None,38,37,38,0,37,37,37,,,,,,,,,,,,,,,,,,,,,,,196.80635400000028,197.94541480002226,197.94541480002226,197.94541480002226,197.94541480002226,197.94541480002226,197.94541480002226,197.94541480002226,197.94541480002226,"['t', 'r', 'a', 'j', 'e']",0,"[1.0008628999930806, 1.1774045999918599, 1.3817280999792274, 1.6860273999918718, 1.8091776999935973]",traje,C:\2023\REPSWITCH21092023\REPSWITCH_excgange\REPSWITCH_excgange\data/010101_REPSWITCH1_version1_list1_2023-11-10_13h54.48.695_micRespv1l1_recorded\recording_micRespv1l1_2023-11-10_13h58.02.342.wav,200.97368009999627,,None,200.97368009999627,200.97368009999627,200.97368009999627,200.97368009999627,200.97368009999627,200.97368009999627,,,,,,010101,001,2023-11-10_13h54.48.695,REPSWITCH1_version1_list1,2022.2.4,143.9951156551907,
REPSWITCH1/PICTURE_30.png,granja,type,darkblue,nontarget,1,NT,2,1,1,1,Stim5_Set2,1,repeat,39,38,39,0,38,38,38,,,,,,,,,,,,,,,,,,,,,,,201.47374560000026,202.53629899999942,202.53629899999942,202.53629899999942,202.53629899999942,202.53629899999942,202.53629899999942,202.53629899999942,202.53629899999942,"['g', 'r', 'a', 'n', 'j', 'a']",0,"[2.1991522000171244, 2.376200600003358, 2.4609104999981355, 2.7111080000177026, 2.872509800014086, 2.9552138000144623]",granja,C:\2023\REPSWITCH21092023\REPSWITCH_excgange\REPSWITCH_excgange\data/010101_REPSWITCH1_version1_list1_2023-11-10_13h54.48.695_micRespv1l1_recorded\recording_micRespv1l1_2023-11-10_13h58.06.934.wav,205.564474600018,206.0645341000054,None,205.564474600018,205.564474600018,205.564474600018,205.564474600018,205.564474600018,205.564474600018,,,,,,010101,001,2023-11-10_13h54.48.695,REPSWITCH1_version1_list1,2022.2.4,143.9951156551907,
REPSWITCH1/PICTURE_30.png,granja,speak,gold,switch,2,T,2,1,1,1,Stim5_Set2,0,None,40,39,40,0,39,39,39,,,,,,,,,,,,,,,,,,,,,,,206.0645341000054,207.21750690002227,207.21750690002227,207.21750690002227,207.21750690002227,207.21750690002227,207.21750690002227,207.21750690002227,207.21750690002227,None,0,,,C:\2023\REPSWITCH21092023\REPSWITCH_excgange\REPSWITCH_excgange\data/010101_REPSWITCH1_version1_list1_2023-11-10_13h54.48.695_micRespv1l1_recorded\recording_micRespv1l1_2023-11-10_13h58.11.613.wav,210.23868420001236,210.73878070001956,None,210.23868420001236,210.23868420001236,210.23868420001236,210.23868420001236,210.23868420001236,210.23868420001236,,,,,,010101,001,2023-11-10_13h54.48.695,REPSWITCH1_version1_list1,2022.2.4,143.9951156551907,
REPSWITCH1/PICTURE_142.png,vaso,type,darkblue,filler,1,F,2,1,1,1,Stim7_Set1,0,None,41,40,41,0,40,40,40,,,,,,,,,,,,,,,,,,,,,,,210.73878070001956,211.8708503000089,211.8708503000089,211.8708503000089,211.8708503000089,211.8708503000089,211.8708503000089,211.8708503000089,211.8708503000089,"['v', 'a', 's', 'o']",0,"[1.1518602999858558, 1.2677624999778345, 1.4867015999916475, 1.6252753000007942]",vaso,C:\2023\REPSWITCH21092023\REPSWITCH_excgange\REPSWITCH_excgange\data/010101_REPSWITCH1_version1_list1_2023-11-10_13h54.48.695_micRespv1l1_recorded\recording_micRespv1l1_2023-11-10_13h58.16.267.wav,214.8920979000104,215.392144500016,None,214.8920979000104,214.8920979000104,214.8920979000104,214.8920979000104,214.8920979000104,214.8920979000104,,,,,,010101,001,2023-11-10_13h54.48.695,REPSWITCH1_version1_list1,2022.2.4,143.9951156551907,
REPSWITCH1/PICTURE_19.png,pavo,speak,gold,filler,2,F,2,1,1,1,Stim5_Set1,1,switch,42,41,42,0,41,41,41,,,,,,,,,,,,,,,,,,,,,,,215.392144500016,216.4478291000123,216.4478291000123,216.4478291000123,216.4478291000123,216.4478291000123,216.4478291000123,216.4478291000123,216.4478291000123,None,0,,,C:\2023\REPSWITCH21092023\REPSWITCH_excgange\REPSWITCH_excgange\data/010101_REPSWITCH1_version1_list1_2023-11-10_13h54.48.695_micRespv1l1_recorded\recording_micRespv1l1_2023-11-10_13h58.20.844.wav,219.47609390001162,,None,219.47609390001162,219.47609390001162,219.47609390001162,219.47609390001162,219.47609390001162,219.47609390001162,,,,,,010101,001,2023-11-10_13h54.48.695,REPSWITCH1_version1_list1,2022.2.4,143.9951156551907,
REPSWITCH1/PICTURE_552.png,manzana,speak,gold,nontarget,2,NT,2,1,1,1,Stim6_Set2,1,repeat,43,42,43,0,42,42,42,,,,,,,,,,,,,,,,,,,,,,,219.97613570000976,221.1081701000221,221.1081701000221,221.1081701000221,221.1081701000221,221.1081701000221,221.1081701000221,221.1081701000221,221.1081701000221,None,0,,,C:\2023\REPSWITCH21092023\REPSWITCH_excgange\REPSWITCH_excgange\data/010101_REPSWITCH1_version1_list1_2023-11-10_13h54.48.695_micRespv1l1_recorded\recording_micRespv1l1_2023-11-10_13h58.25.505.wav,224.13633589999517,,None,224.13633589999517,224.13633589999517,224.13633589999517,224.13633589999517,224.13633589999517,224.13633589999517,,,,,,010101,001,2023-11-10_13h54.48.695,REPSWITCH1_version1_list1,2022.2.4,143.9951156551907,
REPSWITCH1/PICTURE_552.png,manzana,speak,gold,repeat,2,T,2,1,1,1,Stim6_Set2,0,None,44,43,44,0,43,43,43,,,,,,,,,,,,,,,,,,,,,,,224.63640109999687,225.77551000000676,225.77551000000676,225.77551000000676,225.77551000000676,225.77551000000676,225.77551000000676,225.77551000000676,225.77551000000676,None,0,,,C:\2023\REPSWITCH21092023\REPSWITCH_excgange\REPSWITCH_excgange\data/010101_REPSWITCH1_version1_list1_2023-11-10_13h54.48.695_micRespv1l1_recorded\recording_micRespv1l1_2023-11-10_13h58.30.171.wav,228.7967673999956,229.29676060000202,None,228.7967673999956,228.7967673999956,228.7967673999956,228.7967673999956,228.7967673999956,228.7967673999956,,,,,,010101,001,2023-11-10_13h54.48.695,REPSWITCH1_version1_list1,2022.2.4,143.9951156551907,
REPSWITCH1/PICTURE_16.png,cazador,type,darkblue,filler,1,F,2,1,1,1,Stim6_Set1,0,None,45,44,45,0,44,44,44,,,,,,,,,,,,,,,,,,,,,,,229.29676060000202,230.35946020000847,230.35946020000847,230.35946020000847,230.35946020000847,230.35946020000847,230.35946020000847,230.35946020000847,230.35946020000847,"['c', 'a', 'z', 'a', 'd', 'o', 'r']",0,"[1.0380085000069812, 1.1695609000162221, 1.4386802000226453, 1.544304800016107, 1.7845126000174787, 2.004798900015885, 2.1453244000149425]",cazador,C:\2023\REPSWITCH21092023\REPSWITCH_excgange\REPSWITCH_excgange\data/010101_REPSWITCH1_version1_list1_2023-11-10_13h54.48.695_micRespv1l1_recorded\recording_micRespv1l1_2023-11-10_13h58.34.755.wav,233.38063950001379,233.88069520000136,None,233.38063950001379,233.38063950001379,233.38063950001379,233.38063950001379,233.38063950001379,233.38063950001379,,,,,,010101,001,2023-11-10_13h54.48.695,REPSWITCH1_version1_list1,2022.2.4,143.9951156551907,
REPSWITCH1/PICTURE_446.png,cerdo,speak,gold,nontarget,2,NT,2,1,1,1,Stim7_Set2,1,switch,46,45,46,0,45,45,45,,,,,,,,,,,,,,,,,,,,,,,233.88069520000136,235.06139849999454,235.06139849999454,235.06139849999454,235.06139849999454,235.06139849999454,235.06139849999454,235.06139849999454,235.06139849999454,None,0,,,C:\2023\REPSWITCH21092023\REPSWITCH_excgange\REPSWITCH_excgange\data/010101_REPSWITCH1_version1_list1_2023-11-10_13h54.48.695_micRespv1l1_recorded\recording_micRespv1l1_2023-11-10_13h58.39.459.wav,238.08954820001964,238.5896391000133,None,238.08954820001964,238.08954820001964,238.08954820001964,238.08954820001964,238.08954820001964,238.08954820001964,,,,,,010101,001,2023-11-10_13h54.48.695,REPSWITCH1_version1_list1,2022.2.4,143.9951156551907,
REPSWITCH1/PICTURE_446.png,cerdo,speak,gold,repeat,2,T,2,1,1,1,Stim7_Set2,0,None,47,46,47,0,46,46,46,,,,,,,,,,,,,,,,,,,,,,,238.5896391000133,239.6662604000012,239.6662604000012,239.6662604000012,239.6662604000012,239.6662604000012,239.6662604000012,239.6662604000012,239.6662604000012,None,0,,,C:\2023\REPSWITCH21092023\REPSWITCH_excgange\REPSWITCH_excgange\data/010101_REPSWITCH1_version1_list1_2023-11-10_13h54.48.695_micRespv1l1_recorded\recording_micRespv1l1_2023-11-10_13h58.44.061.wav,242.68737640001928,243.1874589000072,None,242.68737640001928,242.68737640001928,242.68737640001928,242.68737640001928,242.68737640001928,242.68737640001928,,,,,,010101,001,2023-11-10_13h54.48.695,REPSWITCH1_version1_list1,2022.2.4,143.9951156551907,
REPSWITCH1/PICTURE_590.png,escoba,type,darkblue,filler,1,F,2,1,1,1,Extra3,0,None,48,47,48,0,47,47,47,,,,,,,,,,,,,,,,,,,,,,,243.1874589000072,244.31259230000433,244.31259230000433,244.31259230000433,244.31259230000433,244.31259230000433,244.31259230000433,244.31259230000433,244.31259230000433,"['e', 's', 'c', 'o', 'b', 'a']",0,"[0.9151315999915823, 1.165528199984692, 1.477521099994192, 1.7060555999923963, 2.0550617999979295, 2.192644199996721]",escoba,C:\2023\REPSWITCH21092023\REPSWITCH_excgange\REPSWITCH_excgange\data/010101_REPSWITCH1_version1_list1_2023-11-10_13h54.48.695_micRespv1l1_recorded\recording_micRespv1l1_2023-11-10_13h58.48.708.wav,247.33383400001912,247.83390789999976,None,247.33383400001912,247.33383400001912,247.33383400001912,247.33383400001912,247.33383400001912,247.33383400001912,,,,,,010101,001,2023-11-10_13h54.48.695,REPSWITCH1_version1_list1,2022.2.4,143.9951156551907,
REPSWITCH1/PICTURE_169.png,espalda,speak,gold,filler,2,F,2,1,1,1,Stim8_Set1,0,None,49,48,49,0,48,48,48,,,,,,,,,,,,,,,,,,,,,,,247.83390789999976,248.88958660000935,248.88958660000935,248.88958660000935,248.88958660000935,248.88958660000935,248.88958660000935,248.88958660000935,248.88958660000935,None,0,,,C:\2023\REPSWITCH21092023\REPSWITCH_excgange\REPSWITCH_excgange\data/010101_REPSWITCH1_version1_list1_2023-11-10_13h54.48.695_micRespv1l1_recorded\recording_micRespv1l1_2023-11-10_13h58.53.285.wav,251.91083010000875,252.41089450000436,None,251.91083010000875,251.91083010000875,251.91083010000875,251.91083010000875,251.91083010000875,251.91083010000875,,,,,,010101,001,2023-11-10_13h54.48.695,REPSWITCH1_version1_list1,2022.2.4,143.9951156551907,
REPSWITCH1/PICTURE_199.png,falda,speak,gold,nontarget,2,NT,2,1,1,1,Stim8_Set2,1,repeat,50,49,50,0,49,49,49,,,,,,,,,,,,,,,,,,,,,,,252.41089450000436,253.43880910001462,253.43880910001462,253.43880910001462,253.43880910001462,253.43880910001462,253.43880910001462,253.43880910001462,253.43880910001462,None,0,,,C:\2023\REPSWITCH21092023\REPSWITCH_excgange\REPSWITCH_excgange\data/010101_REPSWITCH1_version1_list1_2023-11-10_13h54.48.695_micRespv1l1_recorded\recording_micRespv1l1_2023-11-10_13h58.57.835.wav,256.4669847000041,,None,256.4669847000041,256.4669847000041,256.4669847000041,256.4669847000041,256.4669847000041,256.4669847000041,,,,,,010101,001,2023-11-10_13h54.48.695,REPSWITCH1_version1_list1,2022.2.4,143.9951156551907,
REPSWITCH1/PICTURE_199.png,falda,type,darkblue,switch,1,T,2,1,1,1,Stim8_Set2,0,None,51,50,51,0,50,50,50,,,,,,,,,,,,,,,,,,,,,,,256.96712090002256,258.0852635000192,258.0852635000192,258.0852635000192,258.0852635000192,258.0852635000192,258.0852635000192,258.0852635000192,258.0852635000192,"['f', 'a', 'l', 'd', 'a']",0,"[1.2895913000102155, 1.3896053000062238, 1.6657199999899603, 1.8102300000027753, 1.897155799990287]",falda,C:\2023\REPSWITCH21092023\REPSWITCH_excgange\REPSWITCH_excgange\data/010101_REPSWITCH1_version1_list1_2023-11-10_13h54.48.695_micRespv1l1_recorded\recording_micRespv1l1_2023-11-10_13h59.02.480.wav,261.1064891999995,261.6065446000139,space,261.1064891999995,261.1064891999995,261.1064891999995,261.1064891999995,261.1064891999995,261.1064891999995,261.6065446000139,261.6065446000139,75.12271290001809,,,010101,001,2023-11-10_13h54.48.695,REPSWITCH1_version1_list1,2022.2.4,143.9951156551907,
REPSWITCH1/PICTURE_576.png,guante,type,darkblue,nontarget,1,NT,3,1,1,1,Stim1_Set3,0,None,52,51,52,0,51,51,51,,,,,,,,,,,,,,,,,,,,,,,336.7413487000158,337.7762150000199,337.7762150000199,337.7762150000199,337.7762150000199,337.7762150000199,337.7762150000199,337.7762150000199,337.7762150000199,"['g', 'u', 'a', 'n', 't', 'e']",0,"[1.6609010000247508, 1.755486700014444, 1.8770424000103958, 2.01263540002401, 2.2119342000223696, 2.3245802000164986]",guante,C:\2023\REPSWITCH21092023\REPSWITCH_excgange\REPSWITCH_excgange\data/010101_REPSWITCH1_version1_list1_2023-11-10_13h54.48.695_micRespv1l1_recorded\recording_micRespv1l1_2023-11-10_14h00.22.174.wav,340.8044244000048,,None,340.8044244000048,340.8044244000048,340.8044244000048,340.8044244000048,340.8044244000048,340.8044244000048,,,,,,010101,001,2023-11-10_13h54.48.695,REPSWITCH1_version1_list1,2022.2.4,143.9951156551907,
REPSWITCH1/PICTURE_576.png,guante,speak,gold,switch,2,T,3,1,1,1,Stim1_Set3,0,None,53,52,53,0,52,52,52,,,,,,,,,,,,,,,,,,,,,,,341.30448200000683,342.3254286000156,342.3254286000156,342.3254286000156,342.3254286000156,342.3254286000156,342.3254286000156,342.3254286000156,342.3254286000156,None,0,,,C:\2023\REPSWITCH21092023\REPSWITCH_excgange\REPSWITCH_excgange\data/010101_REPSWITCH1_version1_list1_2023-11-10_13h54.48.695_micRespv1l1_recorded\recording_micRespv1l1_2023-11-10_14h00.26.721.wav,345.3466808999947,345.8467464999994,None,345.3466808999947,345.3466808999947,345.3466808999947,345.3466808999947,345.3466808999947,345.3466808999947,,,,,,010101,001,2023-11-10_13h54.48.695,REPSWITCH1_version1_list1,2022.2.4,143.9951156551907,
REPSWITCH1/PICTURE_646.png,tronco,speak,gold,filler,2,F,3,1,1,1,Extra4,0,None,54,53,54,0,53,53,53,,,,,,,,,,,,,,,,,,,,,,,345.8467464999994,346.9510270000028,346.9510270000028,346.9510270000028,346.9510270000028,346.9510270000028,346.9510270000028,346.9510270000028,346.9510270000028,None,0,,,C:\2023\REPSWITCH21092023\REPSWITCH_excgange\REPSWITCH_excgange\data/010101_REPSWITCH1_version1_list1_2023-11-10_13h54.48.695_micRespv1l1_recorded\recording_micRespv1l1_2023-11-10_14h00.31.348.wav,349.97921119999955,350.4792714000214,None,349.97921119999955,349.97921119999955,349.97921119999955,349.97921119999955,349.97921119999955,349.97921119999955,,,,,,010101,001,2023-11-10_13h54.48.695,REPSWITCH1_version1_list1,2022.2.4,143.9951156551907,
REPSWITCH1/PICTURE_610.png,miel,speak,gold,nontarget,2,NT,3,1,1,1,Stim2_Set3,1,repeat,55,54,55,0,54,54,54,,,,,,,,,,,,,,,,,,,,,,,350.4792714000214,351.6182923000015,351.6182923000015,351.6182923000015,351.6182923000015,351.6182923000015,351.6182923000015,351.6182923000015,351.6182923000015,None,0,,,C:\2023\REPSWITCH21092023\REPSWITCH_excgange\REPSWITCH_excgange\data/010101_REPSWITCH1_version1_list1_2023-11-10_13h54.48.695_micRespv1l1_recorded\recording_micRespv1l1_2023-11-10_14h00.36.015.wav,354.64651300001424,,None,354.64651300001424,354.64651300001424,354.64651300001424,354.64651300001424,354.64651300001424,354.64651300001424,,,,,,010101,001,2023-11-10_13h54.48.695,REPSWITCH1_version1_list1,2022.2.4,143.9951156551907,
REPSWITCH1/PICTURE_610.png,miel,type,darkblue,switch,1,T,3,1,1,1,Stim2_Set3,0,None,56,55,56,0,55,55,55,,,,,,,,,,,,,,,,,,,,,,,355.1465809000074,356.1884030000074,356.1884030000074,356.1884030000074,356.1884030000074,356.1884030000074,356.1884030000074,356.1884030000074,356.1884030000074,"['m', 'i', 'e', 'l']",0,"[0.9075369000202045, 1.0550360000052024, 1.3054892000218388, 1.4264869000180624]",miel,C:\2023\REPSWITCH21092023\REPSWITCH_excgange\REPSWITCH_excgange\data/010101_REPSWITCH1_version1_list1_2023-11-10_13h54.48.695_micRespv1l1_recorded\recording_micRespv1l1_2023-11-10_14h00.40.584.wav,359.20957030000864,359.70967040001415,None,359.20957030000864,359.20957030000864,359.20957030000864,359.20957030000864,359.20957030000864,359.20957030000864,,,,,,010101,001,2023-11-10_13h54.48.695,REPSWITCH1_version1_list1,2022.2.4,143.9951156551907,
REPSWITCH1/PICTURE_175.png,pintor,type,darkblue,filler,1,F,3,1,1,1,Stim1_Set2,1,repeat,57,56,57,0,56,56,56,,,,,,,,,,,,,,,,,,,,,,,359.70967040001415,360.7792653000215,360.7792653000215,360.7792653000215,360.7792653000215,360.7792653000215,360.7792653000215,360.7792653000215,360.7792653000215,"['p', 'i', 'n', 't', 'o', 'r']",0,"[1.2843343999993522, 1.4852308999979869, 1.6428916000004392, 1.782634400005918, 1.9281493999878876, 2.0397040999960154]",pintor,C:\2023\REPSWITCH21092023\REPSWITCH_excgange\REPSWITCH_excgange\data/010101_REPSWITCH1_version1_list1_2023-11-10_13h54.48.695_micRespv1l1_recorded\recording_micRespv1l1_2023-11-10_14h00.45.175.wav,363.8004925000132,364.3005550999951,None,363.8004925000132,363.8004925000132,363.8004925000132,363.8004925000132,363.8004925000132,363.8004925000132,,,,,,010101,001,2023-11-10_13h54.48.695,REPSWITCH1_version1_list1,2022.2.4,143.9951156551907,
REPSWITCH1/PICTURE_242.png,cartero,type,darkblue,nontarget,1,NT,3,1,1,1,Stim3_Set3,1,repeat,58,57,58,0,57,57,57,,,,,,,,,,,,,,,,,,,,,,,364.3005550999951,365.3770652000094,365.3770652000094,365.3770652000094,365.3770652000094,365.3770652000094,365.3770652000094,365.3770652000094,365.3770652000094,"['c', 'a', 'r', 't', 'e', 'r', 'o']",0,"[1.35660289999214, 1.4503427000017837, 1.6117171999940183, 1.7721857999858912, 1.8700818000070285, 2.047112800006289, 2.1766746999928728]",cartero,C:\2023\REPSWITCH21092023\REPSWITCH_excgange\REPSWITCH_excgange\data/010101_REPSWITCH1_version1_list1_2023-11-10_13h54.48.695_micRespv1l1_recorded\recording_micRespv1l1_2023-11-10_14h00.49.774.wav,368.4052324000222,368.9053272000165,None,368.4052324000222,368.4052324000222,368.4052324000222,368.4052324000222,368.4052324000222,368.4052324000222,,,,,,010101,001,2023-11-10_13h54.48.695,REPSWITCH1_version1_list1,2022.2.4,143.9951156551907,
REPSWITCH1/PICTURE_242.png,cartero,speak,gold,switch,2,T,3,1,1,1,Stim3_Set3,0,None,59,58,59,0,58,58,58,,,,,,,,,,,,,,,,,,,,,,,368.9053272000165,369.9818801000074,369.9818801000074,369.9818801000074,369.9818801000074,369.9818801000074,369.9818801000074,369.9818801000074,369.9818801000074,None,0,,,C:\2023\REPSWITCH21092023\REPSWITCH_excgange\REPSWITCH_excgange\data/010101_REPSWITCH1_version1_list1_2023-11-10_13h54.48.695_micRespv1l1_recorded\recording_micRespv1l1_2023-11-10_14h00.54.377.wav,373.0030436000088,373.50311829999555,None,373.0030436000088,373.0030436000088,373.0030436000088,373.0030436000088,373.0030436000088,373.0030436000088,,,,,,010101,001,2023-11-10_13h54.48.695,REPSWITCH1_version1_list1,2022.2.4,143.9951156551907,
REPSWITCH1/PICTURE_152.png,caracol,speak,gold,filler,2,F,3,1,1,1,Stim2_Set2,0,None,60,59,60,0,59,59,59,,,,,,,,,,,,,,,,,,,,,,,373.50311829999555,374.6005025000195,374.6005025000195,374.6005025000195,374.6005025000195,374.6005025000195,374.6005025000195,374.6005025000195,374.6005025000195,None,0,,,C:\2023\REPSWITCH21092023\REPSWITCH_excgange\REPSWITCH_excgange\data/010101_REPSWITCH1_version1_list1_2023-11-10_13h54.48.695_micRespv1l1_recorded\recording_micRespv1l1_2023-11-10_14h00.58.996.wav,377.6217409000092,378.121816400002,None,377.6217409000092,377.6217409000092,377.6217409000092,377.6217409000092,377.6217409000092,377.6217409000092,,,,,,010101,001,2023-11-10_13h54.48.695,REPSWITCH1_version1_list1,2022.2.4,143.9951156551907,
REPSWITCH1/PICTURE_517.png,cuerda,type,darkblue,filler,1,F,3,1,1,1,Stim4_Set2,0,None,61,60,61,0,60,60,60,,,,,,,,,,,,,,,,,,,,,,,378.121816400002,379.3094791000185,379.3094791000185,379.3094791000185,379.3094791000185,379.3094791000185,379.3094791000185,379.3094791000185,379.3094791000185,"['c', 'u', 'e', 'r', 'd', 'a']",0,"[1.054319699993357, 1.2280608000000939, 1.3366276000160724, 1.5200269000197295, 1.7462387999985367, 1.942450500006089]",cuerda,C:\2023\REPSWITCH21092023\REPSWITCH_excgange\REPSWITCH_excgange\data/010101_REPSWITCH1_version1_list1_2023-11-10_13h54.48.695_micRespv1l1_recorded\recording_micRespv1l1_2023-11-10_14h01.03.705.wav,382.3306906000071,382.8308282000071,None,382.3306906000071,382.3306906000071,382.3306906000071,382.3306906000071,382.3306906000071,382.3306906000071,,,,,,010101,001,2023-11-10_13h54.48.695,REPSWITCH1_version1_list1,2022.2.4,143.9951156551907,
REPSWITCH1/PICTURE_235.png,aguja,speak,gold,nontarget,2,NT,3,1,1,1,Stim4_Set3,1,switch,62,61,62,0,61,61,61,,,,,,,,,,,,,,,,,,,,,,,382.8308282000071,383.93504920002306,383.93504920002306,383.93504920002306,383.93504920002306,383.93504920002306,383.93504920002306,383.93504920002306,383.93504920002306,None,0,,,C:\2023\REPSWITCH21092023\REPSWITCH_excgange\REPSWITCH_excgange\data/010101_REPSWITCH1_version1_list1_2023-11-10_13h54.48.695_micRespv1l1_recorded\recording_micRespv1l1_2023-11-10_14h01.08.332.wav,386.9632285000116,,None,386.9632285000116,386.9632285000116,386.9632285000116,386.9632285000116,386.9632285000116,386.9632285000116,,,,,,010101,001,2023-11-10_13h54.48.695,REPSWITCH1_version1_list1,2022.2.4,143.9951156551907,
REPSWITCH1/PICTURE_235.png,aguja,speak,gold,repeat,2,T,3,1,1,1,Stim4_Set3,0,None,63,62,63,0,62,62,62,,,,,,,,,,,,,,,,,,,,,,,387.4633558000205,388.6370898000023,388.6370898000023,388.6370898000023,388.6370898000023,388.6370898000023,388.6370898000023,388.6370898000023,388.6370898000023,None,0,,,C:\2023\REPSWITCH21092023\REPSWITCH_excgange\REPSWITCH_excgange\data/010101_REPSWITCH1_version1_list1_2023-11-10_13h54.48.695_micRespv1l1_recorded\recording_micRespv1l1_2023-11-10_14h01.13.032.wav,391.65827800001716,392.1583301000064,None,391.65827800001716,391.65827800001716,391.65827800001716,391.65827800001716,391.65827800001716,391.65827800001716,,,,,,010101,001,2023-11-10_13h54.48.695,REPSWITCH1_version1_list1,2022.2.4,143.9951156551907,
REPSWITCH1/PICTURE_30.png,granja,type,darkblue,filler,1,F,3,1,1,1,Stim5_Set2,0,None,64,63,64,0,63,63,63,,,,,,,,,,,,,,,,,,,,,,,392.1583301000064,393.3251791000075,393.3251791000075,393.3251791000075,393.3251791000075,393.3251791000075,393.3251791000075,393.3251791000075,393.3251791000075,"['g', 'r', 'a', 'n', 'j', 'a']",0,"[1.026982000010321, 1.2363375000131782, 1.3358986000239383, 1.602387600025395, 1.7873886000015773, 2.0116487000195775]",granja,C:\2023\REPSWITCH21092023\REPSWITCH_excgange\REPSWITCH_excgange\data/010101_REPSWITCH1_version1_list1_2023-11-10_13h54.48.695_micRespv1l1_recorded\recording_micRespv1l1_2023-11-10_14h01.17.721.wav,396.3464077000099,396.846480600012,None,396.3464077000099,396.3464077000099,396.3464077000099,396.3464077000099,396.3464077000099,396.3464077000099,,,,,,010101,001,2023-11-10_13h54.48.695,REPSWITCH1_version1_list1,2022.2.4,143.9951156551907,
REPSWITCH1/PICTURE_552.png,manzana,speak,gold,filler,2,F,3,1,1,1,Stim6_Set2,1,switch,65,64,65,0,64,64,64,,,,,,,,,,,,,,,,,,,,,,,396.846480600012,397.97857030000887,397.97857030000887,397.97857030000887,397.97857030000887,397.97857030000887,397.97857030000887,397.97857030000887,397.97857030000887,None,0,,,C:\2023\REPSWITCH21092023\REPSWITCH_excgange\REPSWITCH_excgange\data/010101_REPSWITCH1_version1_list1_2023-11-10_13h54.48.695_micRespv1l1_recorded\recording_micRespv1l1_2023-11-10_14h01.22.375.wav,400.9997798000113,401.49994270000025,None,400.9997798000113,400.9997798000113,400.9997798000113,400.9997798000113,400.9997798000113,400.9997798000113,,,,,,010101,001,2023-11-10_13h54.48.695,REPSWITCH1_version1_list1,2022.2.4,143.9951156551907,
REPSWITCH1/PICTURE_35.png,oreja,speak,gold,nontarget,2,NT,3,1,1,1,Stim5_Set3,1,repeat,66,65,66,0,65,65,65,,,,,,,,,,,,,,,,,,,,,,,401.49994270000025,402.6389140000101,402.6389140000101,402.6389140000101,402.6389140000101,402.6389140000101,402.6389140000101,402.6389140000101,402.6389140000101,None,0,,,C:\2023\REPSWITCH21092023\REPSWITCH_excgange\REPSWITCH_excgange\data/010101_REPSWITCH1_version1_list1_2023-11-10_13h54.48.695_micRespv1l1_recorded\recording_micRespv1l1_2023-11-10_14h01.27.037.wav,405.6670831000083,406.1671232000226,None,405.6670831000083,405.6670831000083,405.6670831000083,405.6670831000083,405.6670831000083,405.6670831000083,,,,,,010101,001,2023-11-10_13h54.48.695,REPSWITCH1_version1_list1,2022.2.4,143.9951156551907,
REPSWITCH1/PICTURE_35.png,oreja,speak,gold,repeat,2,T,3,1,1,1,Stim5_Set3,0,None,67,66,67,0,66,66,66,,,,,,,,,,,,,,,,,,,,,,,406.1671232000226,407.29930690000765,407.29930690000765,407.29930690000765,407.29930690000765,407.29930690000765,407.29930690000765,407.29930690000765,407.29930690000765,None,0,,,C:\2023\REPSWITCH21092023\REPSWITCH_excgange\REPSWITCH_excgange\data/010101_REPSWITCH1_version1_list1_2023-11-10_13h54.48.695_micRespv1l1_recorded\recording_micRespv1l1_2023-11-10_14h01.31.694.wav,410.32046940000146,410.8205381000007,None,410.32046940000146,410.32046940000146,410.32046940000146,410.32046940000146,410.32046940000146,410.32046940000146,,,,,,010101,001,2023-11-10_13h54.48.695,REPSWITCH1_version1_list1,2022.2.4,143.9951156551907,
REPSWITCH1/PICTURE_673.png,tenedor,type,darkblue,filler,1,F,3,1,1,1,Extra5,0,None,68,67,68,0,67,67,67,,,,,,,,,,,,,,,,,,,,,,,410.8205381000007,411.85546089999843,411.85546089999843,411.85546089999843,411.85546089999843,411.85546089999843,411.85546089999843,411.85546089999843,411.85546089999843,"['t', 'e', 'n', 'd', 'e', 'o', 'r']",0,"[0.9756815000146162, 1.1187223000160884, 1.331033499998739, 1.5051274000143167, 1.6107366000069305, 2.0100606000050902, 2.120592099992791]",tendeor,C:\2023\REPSWITCH21092023\REPSWITCH_excgange\REPSWITCH_excgange\data/010101_REPSWITCH1_version1_list1_2023-11-10_13h54.48.695_micRespv1l1_recorded\recording_micRespv1l1_2023-11-10_14h01.36.253.wav,414.8835737000045,,None,414.8835737000045,414.8835737000045,414.8835737000045,414.8835737000045,414.8835737000045,414.8835737000045,,,,,,010101,001,2023-11-10_13h54.48.695,REPSWITCH1_version1_list1,2022.2.4,143.9951156551907,
REPSWITCH1/PICTURE_464.png,goma,speak,gold,nontarget,2,NT,3,1,1,1,Stim6_Set3,0,None,69,68,69,0,68,68,68,,,,,,,,,,,,,,,,,,,,,,,415.38370259999647,416.44624509999994,416.44624509999994,416.44624509999994,416.44624509999994,416.44624509999994,416.44624509999994,416.44624509999994,416.44624509999994,None,0,,,C:\2023\REPSWITCH21092023\REPSWITCH_excgange\REPSWITCH_excgange\data/010101_REPSWITCH1_version1_list1_2023-11-10_13h54.48.695_micRespv1l1_recorded\recording_micRespv1l1_2023-11-10_14h01.40.844.wav,419.4744480000227,419.97449459999916,None,419.4744480000227,419.4744480000227,419.4744480000227,419.4744480000227,419.4744480000227,419.4744480000227,,,,,,010101,001,2023-11-10_13h54.48.695,REPSWITCH1_version1_list1,2022.2.4,143.9951156551907,
REPSWITCH1/PICTURE_464.png,goma,type,darkblue,switch,1,T,3,1,1,1,Stim6_Set3,0,None,70,69,70,0,69,69,69,,,,,,,,,,,,,,,,,,,,,,,419.97449459999916,421.0302094000217,421.0302094000217,421.0302094000217,421.0302094000217,421.0302094000217,421.0302094000217,421.0302094000217,421.0302094000217,"['g', 'o', 'm', 'a']",0,"[1.1229281999985687, 1.243411700008437, 1.4407977999944706, 1.5265086999861524]",goma,C:\2023\REPSWITCH21092023\REPSWITCH_excgange\REPSWITCH_excgange\data/010101_REPSWITCH1_version1_list1_2023-11-10_13h54.48.695_micRespv1l1_recorded\recording_micRespv1l1_2023-11-10_14h01.45.425.wav,424.0514364000119,424.55148750002263,None,424.0514364000119,424.0514364000119,424.0514364000119,424.0514364000119,424.0514364000119,424.0514364000119,,,,,,010101,001,2023-11-10_13h54.48.695,REPSWITCH1_version1_list1,2022.2.4,143.9951156551907,
REPSWITCH1/PICTURE_264.png,mano,speak,gold,filler,2,F,3,1,1,1,Stim3_Set2,0,None,71,70,71,0,70,70,70,,,,,,,,,,,,,,,,,,,,,,,424.55148750002263,425.6071917999943,425.6071917999943,425.6071917999943,425.6071917999943,425.6071917999943,425.6071917999943,425.6071917999943,425.6071917999943,None,0,,,C:\2023\REPSWITCH21092023\REPSWITCH_excgange\REPSWITCH_excgange\data/010101_REPSWITCH1_version1_list1_2023-11-10_13h54.48.695_micRespv1l1_recorded\recording_micRespv1l1_2023-11-10_14h01.50.002.wav,428.62842310001724,429.1284908000089,None,428.62842310001724,428.62842310001724,428.62842310001724,428.62842310001724,428.62842310001724,428.62842310001724,,,,,,010101,001,2023-11-10_13h54.48.695,REPSWITCH1_version1_list1,2022.2.4,143.9951156551907,
REPSWITCH1/PICTURE_271.png,conejo,type,darkblue,nontarget,1,NT,3,1,1,1,Stim7_Set3,1,switch,72,71,72,0,71,71,71,,,,,,,,,,,,,,,,,,,,,,,429.1284908000089,430.3022992000042,430.3022992000042,430.3022992000042,430.3022992000042,430.3022992000042,430.3022992000042,430.3022992000042,430.3022992000042,"['c', 'o', 'n', 'e', 'j', 'o']",0,"[1.0305898000078741, 1.1751550000044517, 1.3565502999990713, 1.4980656999978237, 1.6668735000130255, 1.7595763999852352]",conejo,C:\2023\REPSWITCH21092023\REPSWITCH_excgange\REPSWITCH_excgange\data/010101_REPSWITCH1_version1_list1_2023-11-10_13h54.48.695_micRespv1l1_recorded\recording_micRespv1l1_2023-11-10_14h01.54.700.wav,433.3304339000024,433.8304796000011,None,433.3304339000024,433.3304339000024,433.3304339000024,433.3304339000024,433.3304339000024,433.3304339000024,,,,,,010101,001,2023-11-10_13h54.48.695,REPSWITCH1_version1_list1,2022.2.4,143.9951156551907,
REPSWITCH1/PICTURE_271.png,conejo,type,darkblue,repeat,1,T,3,1,1,1,Stim7_Set3,0,None,73,72,73,0,72,72,72,,,,,,,,,,,,,,,,,,,,,,,433.8304796000011,434.94868020000285,434.94868020000285,434.94868020000285,434.94868020000285,434.94868020000285,434.94868020000285,434.94868020000285,434.94868020000285,"['c', 'o', 'n', 'e', 'j', 'o']",0,"[0.8144423000048846, 0.9443729999766219, 1.1586792999878526, 1.2606760999769904, 1.4413620999839623, 1.540080599981593]",conejo,C:\2023\REPSWITCH21092023\REPSWITCH_excgange\REPSWITCH_excgange\data/010101_REPSWITCH1_version1_list1_2023-11-10_13h54.48.695_micRespv1l1_recorded\recording_micRespv1l1_2023-11-10_14h01.59.345.wav,437.9769407999993,,None,437.9769407999993,437.9769407999993,437.9769407999993,437.9769407999993,437.9769407999993,437.9769407999993,,,,,,010101,001,2023-11-10_13h54.48.695,REPSWITCH1_version1_list1,2022.2.4,143.9951156551907,
REPSWITCH1/PICTURE_446.png,cerdo,speak,gold,filler,2,F,3,1,1,1,Stim7_Set2,0,None,74,73,74,0,73,73,73,,,,,,,,,,,,,,,,,,,,,,,438.47700250000344,439.6159883000073,439.6159883000073,439.6159883000073,439.6159883000073,439.6159883000073,439.6159883000073,439.6159883000073,439.6159883000073,None,0,,,C:\2023\REPSWITCH21092023\REPSWITCH_excgange\REPSWITCH_excgange\data/010101_REPSWITCH1_version1_list1_2023-11-10_13h54.48.695_micRespv1l1_recorded\recording_micRespv1l1_2023-11-10_14h02.04.012.wav,442.64412420001463,,None,442.64412420001463,442.64412420001463,442.64412420001463,442.64412420001463,442.64412420001463,442.64412420001463,,,,,,010101,001,2023-11-10_13h54.48.695,REPSWITCH1_version1_list1,2022.2.4,143.9951156551907,
REPSWITCH1/PICTURE_199.png,falda,type,darkblue,filler,1,F,3,1,1,1,Stim8_Set2,1,switch,75,74,75,0,74,74,74,,,,,,,,,,,,,,,,,,,,,,,443.14418000000296,444.21380870000576,444.21380870000576,444.21380870000576,444.21380870000576,444.21380870000576,444.21380870000576,444.21380870000576,444.21380870000576,"['f', 'a', 'l', 'd', 'a']",0,"[1.1675181000027806, 1.3100368000159506, 1.6346790000097826, 1.7683948000194505, 1.8501179000013508]",falda,C:\2023\REPSWITCH21092023\REPSWITCH_excgange\REPSWITCH_excgange\data/010101_REPSWITCH1_version1_list1_2023-11-10_13h54.48.695_micRespv1l1_recorded\recording_micRespv1l1_2023-11-10_14h02.08.609.wav,447.23509980001836,447.7350831000076,None,447.23509980001836,447.23509980001836,447.23509980001836,447.23509980001836,447.23509980001836,447.23509980001836,,,,,,010101,001,2023-11-10_13h54.48.695,REPSWITCH1_version1_list1,2022.2.4,143.9951156551907,
REPSWITCH1/PICTURE_320.png,iglesia,type,darkblue,nontarget,1,NT,3,1,1,1,Stim8_Set3,1,repeat,76,75,76,0,75,75,75,,,,,,,,,,,,,,,,,,,,,,,447.7350831000076,448.88803580001695,448.88803580001695,448.88803580001695,448.88803580001695,448.88803580001695,448.88803580001695,448.88803580001695,448.88803580001695,"['i', 'g', 'l', 'e', 's', 'i', 'a']",0,"[1.1409541000030003, 1.465823199978331, 1.7721326999890152, 1.8668327999766916, 2.073452999989968, 2.2233475999964867, 2.3499855999834836]",iglesia,C:\2023\REPSWITCH21092023\REPSWITCH_excgange\REPSWITCH_excgange\data/010101_REPSWITCH1_version1_list1_2023-11-10_13h54.48.695_micRespv1l1_recorded\recording_micRespv1l1_2023-11-10_14h02.13.286.wav,451.9161757999973,452.4163005000155,None,451.9161757999973,451.9161757999973,451.9161757999973,451.9161757999973,451.9161757999973,451.9161757999973,,,,,,010101,001,2023-11-10_13h54.48.695,REPSWITCH1_version1_list1,2022.2.4,143.9951156551907,
REPSWITCH1/PICTURE_320.png,iglesia,type,darkblue,repeat,1,T,3,1,1,1,Stim8_Set3,0,None,77,76,77,0,76,76,76,,,,,,,,,,,,,,,,,,,,,,,452.4163005000155,453.54148119999445,453.54148119999445,453.54148119999445,453.54148119999445,453.54148119999445,453.54148119999445,453.54148119999445,453.54148119999445,"['i', 'g', 'l', 'e', 's', 'i', 'a']",0,"[0.8997002999822143, 1.1881266999989748, 1.397460099979071, 1.5080875999992713, 1.7831717999943066, 1.953565699979663, 2.0771887000009883]",iglesia,C:\2023\REPSWITCH21092023\REPSWITCH_excgange\REPSWITCH_excgange\data/010101_REPSWITCH1_version1_list1_2023-11-10_13h54.48.695_micRespv1l1_recorded\recording_micRespv1l1_2023-11-10_14h02.17.937.wav,456.56262969999807,457.062705999997,None,456.56262969999807,456.56262969999807,456.56262969999807,456.56262969999807,456.56262969999807,456.56262969999807,,,,,,010101,001,2023-11-10_13h54.48.695,REPSWITCH1_version1_list1,2022.2.4,143.9951156551907,
REPSWITCH1/PICTURE_576.png,guante,speak,gold,filler,2,F,4,1,1,1,Stim1_Set3,0,None,78,77,78,0,77,77,77,,,,,,,,,,,,,,,,,,,,,,,457.062705999997,458.1392143999983,458.1392143999983,458.1392143999983,458.1392143999983,458.1392143999983,458.1392143999983,458.1392143999983,458.1392143999983,None,0,,,C:\2023\REPSWITCH21092023\REPSWITCH_excgange\REPSWITCH_excgange\data/010101_REPSWITCH1_version1_list1_2023-11-10_13h54.48.695_micRespv1l1_recorded\recording_micRespv1l1_2023-11-10_14h02.22.535.wav,461.1604287000082,461.66052900001523,None,461.1604287000082,461.1604287000082,461.1604287000082,461.1604287000082,461.1604287000082,461.1604287000082,,,,,,010101,001,2023-11-10_13h54.48.695,REPSWITCH1_version1_list1,2022.2.4,143.9951156551907,
REPSWITCH1/PICTURE_319.png,vaca,type,darkblue,nontarget,1,NT,4,1,1,1,Stim1_Set4,1,switch,79,78,79,0,78,78,78,,,,,,,,,,,,,,,,,,,,,,,461.66052900001523,462.79269309999654,462.79269309999654,462.79269309999654,462.79269309999654,462.79269309999654,462.79269309999654,462.79269309999654,462.79269309999654,"['v', 'a', 'c', 'a']",0,"[1.0898631000018213, 1.2223068000166677, 1.3468774000066333, 1.4578050000127405]",vaca,C:\2023\REPSWITCH21092023\REPSWITCH_excgange\REPSWITCH_excgange\data/010101_REPSWITCH1_version1_list1_2023-11-10_13h54.48.695_micRespv1l1_recorded\recording_micRespv1l1_2023-11-10_14h02.27.188.wav,465.8139033000043,466.31390170002123,None,465.8139033000043,465.8139033000043,465.8139033000043,465.8139033000043,465.8139033000043,465.8139033000043,,,,,,010101,001,2023-11-10_13h54.48.695,REPSWITCH1_version1_list1,2022.2.4,143.9951156551907,
REPSWITCH1/PICTURE_319.png,vaca,type,darkblue,repeat,1,T,4,1,1,1,Stim1_Set4,0,None,80,79,80,0,79,79,79,,,,,,,,,,,,,,,,,,,,,,,466.31390170002123,467.39740430001984,467.39740430001984,467.39740430001984,467.39740430001984,467.39740430001984,467.39740430001984,467.39740430001984,467.39740430001984,"['v', 'a', 'c', 'a']",0,"[0.9132591999950819, 1.067102300003171, 1.2019132999994326, 1.352372800000012]",vaca,C:\2023\REPSWITCH21092023\REPSWITCH_excgange\REPSWITCH_excgange\data/010101_REPSWITCH1_version1_list1_2023-11-10_13h54.48.695_micRespv1l1_recorded\recording_micRespv1l1_2023-11-10_14h02.31.794.wav,470.42556920001516,,None,470.42556920001516,470.42556920001516,470.42556920001516,470.42556920001516,470.42556920001516,470.42556920001516,,,,,,010101,001,2023-11-10_13h54.48.695,REPSWITCH1_version1_list1,2022.2.4,143.9951156551907,
REPSWITCH1/PICTURE_719.png,baño,type,darkblue,nontarget,1,NT,4,1,1,1,Stim2_Set4,0,None,81,80,81,0,80,80,80,,,,,,,,,,,,,,,,,,,,,,,470.92563360001077,472.02993920000154,472.02993920000154,472.02993920000154,472.02993920000154,472.02993920000154,472.02993920000154,472.02993920000154,472.02993920000154,"['b', 'a', 'ñ', 'o']",0,"[0.9747752000112087, 1.1876116000057664, 1.8458399999944959, 2.0930267999938224]",baño,C:\2023\REPSWITCH21092023\REPSWITCH_excgange\REPSWITCH_excgange\data/010101_REPSWITCH1_version1_list1_2023-11-10_13h54.48.695_micRespv1l1_recorded\recording_micRespv1l1_2023-11-10_14h02.36.425.wav,475.05118090001633,475.5512024000054,None,475.05118090001633,475.05118090001633,475.05118090001633,475.05118090001633,475.05118090001633,475.05118090001633,,,,,,010101,001,2023-11-10_13h54.48.695,REPSWITCH1_version1_list1,2022.2.4,143.9951156551907,
REPSWITCH1/PICTURE_719.png,baño,speak,gold,switch,2,T,4,1,1,1,Stim2_Set4,0,None,82,81,82,0,81,81,81,,,,,,,,,,,,,,,,,,,,,,,475.5512024000054,476.63470470000175,476.63470470000175,476.63470470000175,476.63470470000175,476.63470470000175,476.63470470000175,476.63470470000175,476.63470470000175,None,0,,,C:\2023\REPSWITCH21092023\REPSWITCH_excgange\REPSWITCH_excgange\data/010101_REPSWITCH1_version1_list1_2023-11-10_13h54.48.695_micRespv1l1_recorded\recording_micRespv1l1_2023-11-10_14h02.41.030.wav,479.6559582000191,480.15600919999997,None,479.6559582000191,479.6559582000191,479.6559582000191,479.6559582000191,479.6559582000191,479.6559582000191,,,,,,010101,001,2023-11-10_13h54.48.695,REPSWITCH1_version1_list1,2022.2.4,143.9951156551907,
REPSWITCH1/PICTURE_242.png,cartero,speak,gold,filler,2,F,4,1,1,1,Stim3_Set3,1,repeat,83,82,83,0,82,82,82,,,,,,,,,,,,,,,,,,,,,,,480.15600919999997,481.35060740000335,481.35060740000335,481.35060740000335,481.35060740000335,481.35060740000335,481.35060740000335,481.35060740000335,481.35060740000335,None,0,,,C:\2023\REPSWITCH21092023\REPSWITCH_excgange\REPSWITCH_excgange\data/010101_REPSWITCH1_version1_list1_2023-11-10_13h54.48.695_micRespv1l1_recorded\recording_micRespv1l1_2023-11-10_14h02.45.746.wav,484.3719180000189,484.87197020000895,None,484.3719180000189,484.3719180000189,484.3719180000189,484.3719180000189,484.3719180000189,484.3719180000189,,,,,,010101,001,2023-11-10_13h54.48.695,REPSWITCH1_version1_list1,2022.2.4,143.9951156551907,
REPSWITCH1/PICTURE_610.png,miel,type,darkblue,filler,1,F,4,1,1,1,Stim2_Set3,0,None,84,83,84,0,83,83,83,,,,,,,,,,,,,,,,,,,,,,,484.87197020000895,486.01788180001313,486.01788180001313,486.01788180001313,486.01788180001313,486.01788180001313,486.01788180001313,486.01788180001313,486.01788180001313,"['m', 'i', 'e', 'l']",0,"[0.9076241000148002, 1.076012300007278, 1.2135925000184216, 1.368073200021172]",miel,C:\2023\REPSWITCH21092023\REPSWITCH_excgange\REPSWITCH_excgange\data/010101_REPSWITCH1_version1_list1_2023-11-10_13h54.48.695_micRespv1l1_recorded\recording_micRespv1l1_2023-11-10_14h02.50.414.wav,489.03908070002217,489.53916220000247,None,489.03908070002217,489.03908070002217,489.03908070002217,489.03908070002217,489.03908070002217,489.03908070002217,,,,,,010101,001,2023-11-10_13h54.48.695,REPSWITCH1_version1_list1,2022.2.4,143.9951156551907,
REPSWITCH1/PICTURE_8.png,pierna,speak,gold,nontarget,2,NT,4,1,1,1,Stim3_Set4,1,switch,85,84,85,0,84,84,84,,,,,,,,,,,,,,,,,,,,,,,489.53916220000247,490.62274640001124,490.62274640001124,490.62274640001124,490.62274640001124,490.62274640001124,490.62274640001124,490.62274640001124,490.62274640001124,None,0,,,C:\2023\REPSWITCH21092023\REPSWITCH_excgange\REPSWITCH_excgange\data/010101_REPSWITCH1_version1_list1_2023-11-10_13h54.48.695_micRespv1l1_recorded\recording_micRespv1l1_2023-11-10_14h02.55.018.wav,493.64389100001426,494.14395749999676,None,493.64389100001426,493.64389100001426,493.64389100001426,493.64389100001426,493.64389100001426,493.64389100001426,,,,,,010101,001,2023-11-10_13h54.48.695,REPSWITCH1_version1_list1,2022.2.4,143.9951156551907,
REPSWITCH1/PICTURE_8.png,pierna,speak,gold,repeat,2,T,4,1,1,1,Stim3_Set4,0,None,86,85,86,0,85,85,85,,,,,,,,,,,,,,,,,,,,,,,494.14395749999676,495.21353030001046,495.21353030001046,495.21353030001046,495.21353030001046,495.21353030001046,495.21353030001046,495.21353030001046,495.21353030001046,None,0,,,C:\2023\REPSWITCH21092023\REPSWITCH_excgange\REPSWITCH_excgange\data/010101_REPSWITCH1_version1_list1_2023-11-10_13h54.48.695_micRespv1l1_recorded\recording_micRespv1l1_2023-11-10_14h02.59.609.wav,498.23484400002053,498.7348280000151,None,498.23484400002053,498.23484400002053,498.23484400002053,498.23484400002053,498.23484400002053,498.23484400002053,,,,,,010101,001,2023-11-10_13h54.48.695,REPSWITCH1_version1_list1,2022.2.4,143.9951156551907,
REPSWITCH1/PICTURE_498.png,taza,speak,gold,nontarget,2,NT,4,1,1,1,Stim4_Set4,1,repeat,87,86,87,0,86,86,86,,,,,,,,,,,,,,,,,,,,,,,498.7348280000151,499.8044645000191,499.8044645000191,499.8044645000191,499.8044645000191,499.8044645000191,499.8044645000191,499.8044645000191,499.8044645000191,None,0,,,C:\2023\REPSWITCH21092023\REPSWITCH_excgange\REPSWITCH_excgange\data/010101_REPSWITCH1_version1_list1_2023-11-10_13h54.48.695_micRespv1l1_recorded\recording_micRespv1l1_2023-11-10_14h03.04.200.wav,502.82561290002195,503.32571560001816,None,502.82561290002195,502.82561290002195,502.82561290002195,502.82561290002195,502.82561290002195,502.82561290002195,,,,,,010101,001,2023-11-10_13h54.48.695,REPSWITCH1_version1_list1,2022.2.4,143.9951156551907,
REPSWITCH1/PICTURE_498.png,taza,type,darkblue,switch,1,T,4,1,1,1,Stim4_Set4,0,None,88,87,88,0,87,87,87,,,,,,,,,,,,,,,,,,,,,,,503.32571560001816,504.4231011000229,504.4231011000229,504.4231011000229,504.4231011000229,504.4231011000229,504.4231011000229,504.4231011000229,504.4231011000229,"['t', 'a', 'z', 'a']",0,"[1.128629800019553, 1.268130700016627, 1.5260584000207018, 1.6584708000009414]",taza,C:\2023\REPSWITCH21092023\REPSWITCH_excgange\REPSWITCH_excgange\data/010101_REPSWITCH1_version1_list1_2023-11-10_13h54.48.695_micRespv1l1_recorded\recording_micRespv1l1_2023-11-10_14h03.08.818.wav,507.44427330000326,507.94437450001715,None,507.44427330000326,507.44427330000326,507.44427330000326,507.44427330000326,507.44427330000326,507.44427330000326,,,,,,010101,001,2023-11-10_13h54.48.695,REPSWITCH1_version1_list1,2022.2.4,143.9951156551907,
REPSWITCH1/PICTURE_235.png,aguja,speak,gold,filler,2,F,4,1,1,1,Stim4_Set3,0,None,89,88,89,0,88,88,88,,,,,,,,,,,,,,,,,,,,,,,507.94437450001715,509.041810499999,509.041810499999,509.041810499999,509.041810499999,509.041810499999,509.041810499999,509.041810499999,509.041810499999,None,0,,,C:\2023\REPSWITCH21092023\REPSWITCH_excgange\REPSWITCH_excgange\data/010101_REPSWITCH1_version1_list1_2023-11-10_13h54.48.695_micRespv1l1_recorded\recording_micRespv1l1_2023-11-10_14h03.13.437.wav,512.0630117999972,512.5630157999985,None,512.0630117999972,512.0630117999972,512.0630117999972,512.0630117999972,512.0630117999972,512.0630117999972,,,,,,010101,001,2023-11-10_13h54.48.695,REPSWITCH1_version1_list1,2022.2.4,143.9951156551907,
REPSWITCH1/PICTURE_35.png,oreja,type,darkblue,filler,1,F,4,1,1,1,Stim5_Set3,0,None,90,89,90,0,89,89,89,,,,,,,,,,,,,,,,,,,,,,,512.5630157999985,513.6881670000148,513.6881670000148,513.6881670000148,513.6881670000148,513.6881670000148,513.6881670000148,513.6881670000148,513.6881670000148,"['o', 'r', 'e', 'j', 'a']",0,"[1.2334886000026017, 1.4477679000119679, 1.4886438000248745, 1.698652300023241, 1.8062429999990854]",oreja,C:\2023\REPSWITCH21092023\REPSWITCH_excgange\REPSWITCH_excgange\data/010101_REPSWITCH1_version1_list1_2023-11-10_13h54.48.695_micRespv1l1_recorded\recording_micRespv1l1_2023-11-10_14h03.18.084.wav,516.7094122999988,517.2094745000068,None,516.7094122999988,516.7094122999988,516.7094122999988,516.7094122999988,516.7094122999988,516.7094122999988,,,,,,010101,001,2023-11-10_13h54.48.695,REPSWITCH1_version1_list1,2022.2.4,143.9951156551907,
REPSWITCH1/PICTURE_687.png,camisa,type,darkblue,nontarget,1,NT,4,1,1,1,Stim5_Set4,1,repeat,91,90,91,0,90,90,90,,,,,,,,,,,,,,,,,,,,,,,517.2094745000068,518.3069138000137,518.3069138000137,518.3069138000137,518.3069138000137,518.3069138000137,518.3069138000137,518.3069138000137,518.3069138000137,"['c', 'a', 'm', 'i', 's', 'a']",0,"[1.1169621000008192, 1.1757665000041015, 1.384065999998711, 1.453823599993484, 1.6242588000022806, 1.688011100020958]",camisa,C:\2023\REPSWITCH21092023\REPSWITCH_excgange\REPSWITCH_excgange\data/010101_REPSWITCH1_version1_list1_2023-11-10_13h54.48.695_micRespv1l1_recorded\recording_micRespv1l1_2023-11-10_14h03.22.702.wav,521.3280436000205,521.8281142000051,None,521.3280436000205,521.3280436000205,521.3280436000205,521.3280436000205,521.3280436000205,521.3280436000205,,,,,,010101,001,2023-11-10_13h54.48.695,REPSWITCH1_version1_list1,2022.2.4,143.9951156551907,
REPSWITCH1/PICTURE_687.png,camisa,speak,gold,switch,2,T,4,1,1,1,Stim5_Set4,0,None,92,91,92,0,91,91,91,,,,,,,,,,,,,,,,,,,,,,,521.8281142000051,522.9394528999983,522.9394528999983,522.9394528999983,522.9394528999983,522.9394528999983,522.9394528999983,522.9394528999983,522.9394528999983,None,0,,,C:\2023\REPSWITCH21092023\REPSWITCH_excgange\REPSWITCH_excgange\data/010101_REPSWITCH1_version1_list1_2023-11-10_13h54.48.695_micRespv1l1_recorded\recording_micRespv1l1_2023-11-10_14h03.27.335.wav,525.9606290000083,526.4606921000232,None,525.9606290000083,525.9606290000083,525.9606290000083,525.9606290000083,525.9606290000083,525.9606290000083,,,,,,010101,001,2023-11-10_13h54.48.695,REPSWITCH1_version1_list1,2022.2.4,143.9951156551907,
REPSWITCH1/PICTURE_338.png,regalo,speak,gold,nontarget,2,NT,4,1,1,1,Stim6_Set4,0,None,93,92,93,0,92,92,92,,,,,,,,,,,,,,,,,,,,,,,526.4606921000232,527.5233487000223,527.5233487000223,527.5233487000223,527.5233487000223,527.5233487000223,527.5233487000223,527.5233487000223,527.5233487000223,None,0,,,C:\2023\REPSWITCH21092023\REPSWITCH_excgange\REPSWITCH_excgange\data/010101_REPSWITCH1_version1_list1_2023-11-10_13h54.48.695_micRespv1l1_recorded\recording_micRespv1l1_2023-11-10_14h03.31.919.wav,530.544559300004,531.0446111000201,None,530.544559300004,530.544559300004,530.544559300004,530.544559300004,530.544559300004,530.544559300004,,,,,,010101,001,2023-11-10_13h54.48.695,REPSWITCH1_version1_list1,2022.2.4,143.9951156551907,
REPSWITCH1/PICTURE_338.png,regalo,speak,gold,repeat,2,T,4,1,1,1,Stim6_Set4,0,None,94,93,94,0,93,93,93,,,,,,,,,,,,,,,,,,,,,,,531.0446111000201,532.1350670999964,532.1350670999964,532.1350670999964,532.1350670999964,532.1350670999964,532.1350670999964,532.1350670999964,532.1350670999964,None,0,,,C:\2023\REPSWITCH21092023\REPSWITCH_excgange\REPSWITCH_excgange\data/010101_REPSWITCH1_version1_list1_2023-11-10_13h54.48.695_micRespv1l1_recorded\recording_micRespv1l1_2023-11-10_14h03.36.531.wav,535.1563080000051,535.6563845000055,None,535.1563080000051,535.1563080000051,535.1563080000051,535.1563080000051,535.1563080000051,535.1563080000051,,,,,,010101,001,2023-11-10_13h54.48.695,REPSWITCH1_version1_list1,2022.2.4,143.9951156551907,
REPSWITCH1/PICTURE_663.png,columna,type,darkblue,filler,1,F,4,1,1,1,Extra6,0,None,95,94,95,0,94,94,94,,,,,,,,,,,,,,,,,,,,,,,535.6563845000055,536.7884058000054,536.7884058000054,536.7884058000054,536.7884058000054,536.7884058000054,536.7884058000054,536.7884058000054,536.7884058000054,"['c', 'o', 'l', 'u', 'm', 'n', 'a']",0,"[1.6220009999815375, 1.787439199979417, 2.014638199994806, 2.2161882999935187, 2.4243884999887086, 2.6038215000007767, 2.766339199995855]",columna,C:\2023\REPSWITCH21092023\REPSWITCH_excgange\REPSWITCH_excgange\data/010101_REPSWITCH1_version1_list1_2023-11-10_13h54.48.695_micRespv1l1_recorded\recording_micRespv1l1_2023-11-10_14h03.41.185.wav,539.8166572000191,,None,539.8166572000191,539.8166572000191,539.8166572000191,539.8166572000191,539.8166572000191,539.8166572000191,,,,,,010101,001,2023-11-10_13h54.48.695,REPSWITCH1_version1_list1,2022.2.4,143.9951156551907,
REPSWITCH1/PICTURE_271.png,conejo,speak,gold,filler,2,F,4,1,1,1,Stim7_Set3,0,None,96,95,96,0,95,95,95,,,,,,,,,,,,,,,,,,,,,,,540.3166750000091,541.4210872999975,541.4210872999975,541.4210872999975,541.4210872999975,541.4210872999975,541.4210872999975,541.4210872999975,541.4210872999975,None,0,,,C:\2023\REPSWITCH21092023\REPSWITCH_excgange\REPSWITCH_excgange\data/010101_REPSWITCH1_version1_list1_2023-11-10_13h54.48.695_micRespv1l1_recorded\recording_micRespv1l1_2023-11-10_14h03.45.817.wav,544.4421904000046,544.9422552000033,None,544.4421904000046,544.4421904000046,544.4421904000046,544.4421904000046,544.4421904000046,544.4421904000046,,,,,,010101,001,2023-11-10_13h54.48.695,REPSWITCH1_version1_list1,2022.2.4,143.9951156551907,
REPSWITCH1/PICTURE_48.png,bombero,speak,gold,nontarget,2,NT,4,1,1,1,Stim7_Set4,0,None,97,96,97,0,96,96,96,,,,,,,,,,,,,,,,,,,,,,,544.9422552000033,545.9979578000202,545.9979578000202,545.9979578000202,545.9979578000202,545.9979578000202,545.9979578000202,545.9979578000202,545.9979578000202,None,0,,,C:\2023\REPSWITCH21092023\REPSWITCH_excgange\REPSWITCH_excgange\data/010101_REPSWITCH1_version1_list1_2023-11-10_13h54.48.695_micRespv1l1_recorded\recording_micRespv1l1_2023-11-10_14h03.50.393.wav,549.0192008000158,549.519244199997,None,549.0192008000158,549.0192008000158,549.0192008000158,549.0192008000158,549.0192008000158,549.0192008000158,,,,,,010101,001,2023-11-10_13h54.48.695,REPSWITCH1_version1_list1,2022.2.4,143.9951156551907,
REPSWITCH1/PICTURE_48.png,bombero,type,darkblue,switch,1,T,4,1,1,1,Stim7_Set4,0,None,98,97,98,0,97,97,97,,,,,,,,,,,,,,,,,,,,,,,549.519244199997,550.5332793999987,550.5332793999987,550.5332793999987,550.5332793999987,550.5332793999987,550.5332793999987,550.5332793999987,550.5332793999987,"['b', 'o', 'm', 'b', 'e', 'r', 'o']",0,"[1.1714234999963082, 1.2979680999997072, 1.4874367000011262, 1.59500040000421, 1.7547142999828793, 1.9749885999772232, 2.12973939999938]",bombero,C:\2023\REPSWITCH21092023\REPSWITCH_excgange\REPSWITCH_excgange\data/010101_REPSWITCH1_version1_list1_2023-11-10_13h54.48.695_micRespv1l1_recorded\recording_micRespv1l1_2023-11-10_14h03.54.929.wav,553.5614475000184,,None,553.5614475000184,553.5614475000184,553.5614475000184,553.5614475000184,553.5614475000184,553.5614475000184,,,,,,010101,001,2023-11-10_13h54.48.695,REPSWITCH1_version1_list1,2022.2.4,143.9951156551907,
REPSWITCH1/PICTURE_728.png,pulpo,type,darkblue,nontarget,1,NT,4,1,1,1,Stim8_Set4,0,None,99,98,99,0,98,98,98,,,,,,,,,,,,,,,,,,,,,,,554.0615302000078,555.2283526000101,555.2283526000101,555.2283526000101,555.2283526000101,555.2283526000101,555.2283526000101,555.2283526000101,555.2283526000101,"['p', 'u', 'l', 'p', 'o']",0,"[0.9536843000096269, 1.2436901000037324, 1.4849986000044737, 1.6813030000193976, 1.8578120000020135]",pulpo,C:\2023\REPSWITCH21092023\REPSWITCH_excgange\REPSWITCH_excgange\data/010101_REPSWITCH1_version1_list1_2023-11-10_13h54.48.695_micRespv1l1_recorded\recording_micRespv1l1_2023-11-10_14h03.59.624.wav,558.2495848000108,558.7496271000127,None,558.2495848000108,558.2495848000108,558.2495848000108,558.2495848000108,558.2495848000108,558.2495848000108,,,,,,010101,001,2023-11-10_13h54.48.695,REPSWITCH1_version1_list1,2022.2.4,143.9951156551907,
REPSWITCH1/PICTURE_728.png,pulpo,type,darkblue,repeat,1,T,4,1,1,1,Stim8_Set4,0,None,100,99,100,0,99,99,99,,,,,,,,,,,,,,,,,,,,,,,558.7496271000127,559.847035200015,559.847035200015,559.847035200015,559.847035200015,559.847035200015,559.847035200015,559.847035200015,559.847035200015,"['o', 'u', 'l', 'p', 'o']",0,"[0.8870504999940749, 1.1940171000023838, 1.4649459999927785, 1.654240400006529, 1.8455232999986038]",oulpo,C:\2023\REPSWITCH21092023\REPSWITCH_excgange\REPSWITCH_excgange\data/010101_REPSWITCH1_version1_list1_2023-11-10_13h54.48.695_micRespv1l1_recorded\recording_micRespv1l1_2023-11-10_14h04.04.242.wav,562.8682116999989,563.3682793000189,None,562.8682116999989,562.8682116999989,562.8682116999989,562.8682116999989,562.8682116999989,562.8682116999989,,,,,,010101,001,2023-11-10_13h54.48.695,REPSWITCH1_version1_list1,2022.2.4,143.9951156551907,
REPSWITCH1/PICTURE_320.png,iglesia,speak,gold,filler,1,F,4,1,1,1,Stim8_Set3,0,None,101,100,101,0,100,100,100,,,,,,,,,,,,,,,,,,,,,,,563.3682793000189,564.4587569000141,564.4587569000141,564.4587569000141,564.4587569000141,564.4587569000141,564.4587569000141,564.4587569000141,564.4587569000141,None,0,,,C:\2023\REPSWITCH21092023\REPSWITCH_excgange\REPSWITCH_excgange\data/010101_REPSWITCH1_version1_list1_2023-11-10_13h54.48.695_micRespv1l1_recorded\recording_micRespv1l1_2023-11-10_14h04.08.855.wav,567.4800165000197,567.9800169999944,None,567.4800165000197,567.4800165000197,567.4800165000197,567.4800165000197,567.4800165000197,567.4800165000197,,,,,,010101,001,2023-11-10_13h54.48.695,REPSWITCH1_version1_list1,2022.2.4,143.9951156551907,
REPSWITCH1/PICTURE_464.png,goma,type,darkblue,filler,1,F,4,1,1,1,Stim6_Set3,0,None,102,101,102,0,101,101,101,,,,,,,,,,,,,,,,,,,,,,,567.9800169999944,569.1538530999969,569.1538530999969,569.1538530999969,569.1538530999969,569.1538530999969,569.1538530999969,569.1538530999969,569.1538530999969,"['g', 'o', 'm', 'a']",0,"[1.4031998999998905, 1.537773499992909, 1.714153200009605, 1.8458886000153143]",goma,C:\2023\REPSWITCH21092023\REPSWITCH_excgange\REPSWITCH_excgange\data/010101_REPSWITCH1_version1_list1_2023-11-10_13h54.48.695_micRespv1l1_recorded\recording_micRespv1l1_2023-11-10_14h04.13.550.wav,572.1750162999961,572.6750430999964,space,572.1750162999961,572.1750162999961,572.1750162999961,572.1750162999961,572.1750162999961,572.1750162999961,572.6750430999964,572.6750430999964,15.742068399995333,,,010101,001,2023-11-10_13h54.48.695,REPSWITCH1_version1_list1,2022.2.4,143.9951156551907,
REPSWITCH1/PICTURE_663.png,columna,type,darkblue,filler,1,F,1,2,1,1,Extra6,0,None,103,102,1,0,102,102,102,,,,,,,,,,,,,,,,,,,,,,,588.4271025000198,589.5106248999946,589.5106248999946,589.5106248999946,589.5106248999946,589.5106248999946,589.5106248999946,589.5106248999946,589.5106248999946,"['c', 'o', 'l', 'u', 'm', 'n', 'a']",0,"[1.0919016000116244, 1.240400899987435, 1.727053899987368, 1.9751827000000048, 2.172530400013784, 2.3519527000025846, 2.459563000011258]",columna,C:\2023\REPSWITCH21092023\REPSWITCH_excgange\REPSWITCH_excgange\data/010101_REPSWITCH1_version1_list1_2023-11-10_13h54.48.695_micRespv1l1_recorded\recording_micRespv1l1_2023-11-10_14h04.33.906.wav,592.531916100008,593.0318972000096,None,592.531916100008,592.531916100008,592.531916100008,592.531916100008,592.531916100008,592.531916100008,,,,,,010101,001,2023-11-10_13h54.48.695,REPSWITCH1_version1_list1,2022.2.4,143.9951156551907,
REPSWITCH1/PICTURE_128.png,muñeca,speak,gold,nontarget,2,NT,1,2,1,1,Stim4_Set1,1,switch,104,103,2,0,103,103,103,,,,,,,,,,,,,,,,,,,,,,,593.0318972000096,594.1709355000057,594.1709355000057,594.1709355000057,594.1709355000057,594.1709355000057,594.1709355000057,594.1709355000057,594.1709355000057,None,0,,,C:\2023\REPSWITCH21092023\REPSWITCH_excgange\REPSWITCH_excgange\data/010101_REPSWITCH1_version1_list1_2023-11-10_13h54.48.695_micRespv1l1_recorded\recording_micRespv1l1_2023-11-10_14h04.38.567.wav,597.1991005000018,,None,597.1991005000018,597.1991005000018,597.1991005000018,597.1991005000018,597.1991005000018,597.1991005000018,,,,,,010101,001,2023-11-10_13h54.48.695,REPSWITCH1_version1_list1,2022.2.4,143.9951156551907,
REPSWITCH1/PICTURE_128.png,muñeca,speak,gold,repeat,2,T,1,2,1,1,Stim4_Set1,0,None,105,104,3,0,104,104,104,,,,,,,,,,,,,,,,,,,,,,,597.6991707000125,598.8244057999982,598.8244057999982,598.8244057999982,598.8244057999982,598.8244057999982,598.8244057999982,598.8244057999982,598.8244057999982,None,0,,,C:\2023\REPSWITCH21092023\REPSWITCH_excgange\REPSWITCH_excgange\data/010101_REPSWITCH1_version1_list1_2023-11-10_13h54.48.695_micRespv1l1_recorded\recording_micRespv1l1_2023-11-10_14h04.43.221.wav,601.8525135999953,,None,601.8525135999953,601.8525135999953,601.8525135999953,601.8525135999953,601.8525135999953,601.8525135999953,,,,,,010101,001,2023-11-10_13h54.48.695,REPSWITCH1_version1_list1,2022.2.4,143.9951156551907,
REPSWITCH1/PICTURE_8.png,pierna,type,darkblue,filler,1,F,1,2,1,1,Stim3_Set4,0,None,106,105,4,0,105,105,105,,,,,,,,,,,,,,,,,,,,,,,602.3526053999958,603.4430304999987,603.4430304999987,603.4430304999987,603.4430304999987,603.4430304999987,603.4430304999987,603.4430304999987,603.4430304999987,"['p', 'i', 'e', 'r', 'n', 'a']",0,"[1.2335439000162296, 1.4956660000025295, 1.6531091000069864, 1.857453800010262, 2.0354637000127696, 2.2029416000004858]",pierna,C:\2023\REPSWITCH21092023\REPSWITCH_excgange\REPSWITCH_excgange\data/010101_REPSWITCH1_version1_list1_2023-11-10_13h54.48.695_micRespv1l1_recorded\recording_micRespv1l1_2023-11-10_14h04.47.838.wav,606.4642057000019,606.9642874000128,None,606.4642057000019,606.4642057000019,606.4642057000019,606.4642057000019,606.4642057000019,606.4642057000019,,,,,,010101,001,2023-11-10_13h54.48.695,REPSWITCH1_version1_list1,2022.2.4,143.9951156551907,
REPSWITCH1/PICTURE_135.png,traje,speak,gold,nontarget,2,NT,1,2,1,1,Stim3_Set1,1,switch,107,106,5,0,106,106,106,,,,,,,,,,,,,,,,,,,,,,,606.9642874000128,607.9853257000213,607.9853257000213,607.9853257000213,607.9853257000213,607.9853257000213,607.9853257000213,607.9853257000213,607.9853257000213,None,0,,,C:\2023\REPSWITCH21092023\REPSWITCH_excgange\REPSWITCH_excgange\data/010101_REPSWITCH1_version1_list1_2023-11-10_13h54.48.695_micRespv1l1_recorded\recording_micRespv1l1_2023-11-10_14h04.52.381.wav,611.0065303000156,611.5065423000196,None,611.0065303000156,611.0065303000156,611.0065303000156,611.0065303000156,611.0065303000156,611.0065303000156,,,,,,010101,001,2023-11-10_13h54.48.695,REPSWITCH1_version1_list1,2022.2.4,143.9951156551907,
REPSWITCH1/PICTURE_135.png,traje,speak,gold,repeat,2,T,1,2,1,1,Stim3_Set1,0,None,108,107,6,0,107,107,107,,,,,,,,,,,,,,,,,,,,,,,611.5065423000196,612.6039189000148,612.6039189000148,612.6039189000148,612.6039189000148,612.6039189000148,612.6039189000148,612.6039189000148,612.6039189000148,None,0,,,C:\2023\REPSWITCH21092023\REPSWITCH_excgange\REPSWITCH_excgange\data/010101_REPSWITCH1_version1_list1_2023-11-10_13h54.48.695_micRespv1l1_recorded\recording_micRespv1l1_2023-11-10_14h04.56.999.wav,615.6251306000049,616.125193600019,None,615.6251306000049,615.6251306000049,615.6251306000049,615.6251306000049,615.6251306000049,615.6251306000049,,,,,,010101,001,2023-11-10_13h54.48.695,REPSWITCH1_version1_list1,2022.2.4,143.9951156551907,
REPSWITCH1/PICTURE_673.png,tenedor,type,darkblue,filler,1,F,1,2,1,1,Extra5,0,None,109,108,7,0,108,108,108,,,,,,,,,,,,,,,,,,,,,,,616.125193600019,617.2295162000228,617.2295162000228,617.2295162000228,617.2295162000228,617.2295162000228,617.2295162000228,617.2295162000228,617.2295162000228,"['t', 'e', 'n', 'e', 'd', 'o', 'r']",0,"[0.981012100004591, 1.139444700005697, 1.364190399996005, 1.496753199986415, 1.7594351999869104, 1.9696264000085648, 2.0913105999934487]",tenedor,C:\2023\REPSWITCH21092023\REPSWITCH_excgange\REPSWITCH_excgange\data/010101_REPSWITCH1_version1_list1_2023-11-10_13h54.48.695_micRespv1l1_recorded\recording_micRespv1l1_2023-11-10_14h05.01.625.wav,620.2507603999984,620.7507990000013,None,620.2507603999984,620.2507603999984,620.2507603999984,620.2507603999984,620.2507603999984,620.2507603999984,,,,,,010101,001,2023-11-10_13h54.48.695,REPSWITCH1_version1_list1,2022.2.4,143.9951156551907,
REPSWITCH1/PICTURE_728.png,pulpo,speak,gold,filler,2,F,1,2,1,1,Stim8_Set4,0,None,110,109,8,0,109,109,109,,,,,,,,,,,,,,,,,,,,,,,620.7507990000013,621.8413078000012,621.8413078000012,621.8413078000012,621.8413078000012,621.8413078000012,621.8413078000012,621.8413078000012,621.8413078000012,None,0,,,C:\2023\REPSWITCH21092023\REPSWITCH_excgange\REPSWITCH_excgange\data/010101_REPSWITCH1_version1_list1_2023-11-10_13h54.48.695_micRespv1l1_recorded\recording_micRespv1l1_2023-11-10_14h05.06.237.wav,624.8624786,625.3625058000034,None,624.8624786,624.8624786,624.8624786,624.8624786,624.8624786,624.8624786,,,,,,010101,001,2023-11-10_13h54.48.695,REPSWITCH1_version1_list1,2022.2.4,143.9951156551907,
REPSWITCH1/PICTURE_16.png,cazador,speak,gold,nontarget,2,NT,1,2,1,1,Stim6_Set1,1,repeat,111,110,9,0,110,110,110,,,,,,,,,,,,,,,,,,,,,,,625.3625058000034,626.4251712000114,626.4251712000114,626.4251712000114,626.4251712000114,626.4251712000114,626.4251712000114,626.4251712000114,626.4251712000114,None,0,,,C:\2023\REPSWITCH21092023\REPSWITCH_excgange\REPSWITCH_excgange\data/010101_REPSWITCH1_version1_list1_2023-11-10_13h54.48.695_micRespv1l1_recorded\recording_micRespv1l1_2023-11-10_14h05.10.821.wav,629.4464010999945,629.9464732000197,None,629.4464010999945,629.4464010999945,629.4464010999945,629.4464010999945,629.4464010999945,629.4464010999945,,,,,,010101,001,2023-11-10_13h54.48.695,REPSWITCH1_version1_list1,2022.2.4,143.9951156551907,
REPSWITCH1/PICTURE_16.png,cazador,type,darkblue,switch,1,T,1,2,1,1,Stim6_Set1,0,None,112,111,10,0,111,111,111,,,,,,,,,,,,,,,,,,,,,,,629.9464732000197,630.9604760000075,630.9604760000075,630.9604760000075,630.9604760000075,630.9604760000075,630.9604760000075,630.9604760000075,630.9604760000075,"['c', 'a', 'z', 'a', 'd', 'o', 'r']",0,"[1.2132066000194754, 1.351165600004606, 1.5859363000199664, 1.6825723000220023, 1.9179761000268627, 2.0645602000295185, 2.2129805000149645]",cazador,C:\2023\REPSWITCH21092023\REPSWITCH_excgange\REPSWITCH_excgange\data/010101_REPSWITCH1_version1_list1_2023-11-10_13h54.48.695_micRespv1l1_recorded\recording_micRespv1l1_2023-11-10_14h05.15.357.wav,633.9886903000006,,None,633.9886903000006,633.9886903000006,633.9886903000006,633.9886903000006,633.9886903000006,633.9886903000006,,,,,,010101,001,2023-11-10_13h54.48.695,REPSWITCH1_version1_list1,2022.2.4,143.9951156551907,
REPSWITCH1/PICTURE_498.png,taza,type,darkblue,filler,1,F,1,2,1,1,Stim4_Set4,1,repeat,113,112,11,0,112,112,112,,,,,,,,,,,,,,,,,,,,,,,634.48871960002,635.6208941000223,635.6208941000223,635.6208941000223,635.6208941000223,635.6208941000223,635.6208941000223,635.6208941000223,635.6208941000223,"['t', 'a', 'z', 'a']",0,"[0.9451738999923691, 1.0660100000095554, 1.2924735999840777, 1.4987781000090763]",taza,C:\2023\REPSWITCH21092023\REPSWITCH_excgange\REPSWITCH_excgange\data/010101_REPSWITCH1_version1_list1_2023-11-10_13h54.48.695_micRespv1l1_recorded\recording_micRespv1l1_2023-11-10_14h05.20.017.wav,638.6420361000055,639.1421683000226,None,638.6420361000055,638.6420361000055,638.6420361000055,638.6420361000055,638.6420361000055,638.6420361000055,,,,,,010101,001,2023-11-10_13h54.48.695,REPSWITCH1_version1_list1,2022.2.4,143.9951156551907,
REPSWITCH1/PICTURE_381.png,fresa,type,darkblue,nontarget,1,NT,1,2,1,1,Stim2_Set1,1,repeat,114,113,12,0,113,113,113,,,,,,,,,,,,,,,,,,,,,,,639.1421683000226,640.2186985000153,640.2186985000153,640.2186985000153,640.2186985000153,640.2186985000153,640.2186985000153,640.2186985000153,640.2186985000153,"['f', 'r', 'e', 's', 'a']",0,"[1.0868194000213407, 1.2662144000059925, 1.3658660000073723, 1.5960703000018839, 1.7509521000029054]",fresa,C:\2023\REPSWITCH21092023\REPSWITCH_excgange\REPSWITCH_excgange\data/010101_REPSWITCH1_version1_list1_2023-11-10_13h54.48.695_micRespv1l1_recorded\recording_micRespv1l1_2023-11-10_14h05.24.615.wav,643.2468880000233,,None,643.2468880000233,643.2468880000233,643.2468880000233,643.2468880000233,643.2468880000233,643.2468880000233,,,,,,010101,001,2023-11-10_13h54.48.695,REPSWITCH1_version1_list1,2022.2.4,143.9951156551907,
REPSWITCH1/PICTURE_381.png,fresa,speak,gold,switch,2,T,1,2,1,1,Stim2_Set1,0,None,115,114,13,0,114,114,114,,,,,,,,,,,,,,,,,,,,,,,643.7468967000023,644.8026067000173,644.8026067000173,644.8026067000173,644.8026067000173,644.8026067000173,644.8026067000173,644.8026067000173,644.8026067000173,None,0,,,C:\2023\REPSWITCH21092023\REPSWITCH_excgange\REPSWITCH_excgange\data/010101_REPSWITCH1_version1_list1_2023-11-10_13h54.48.695_micRespv1l1_recorded\recording_micRespv1l1_2023-11-10_14h05.29.198.wav,647.8238221000065,648.323885699996,None,647.8238221000065,647.8238221000065,647.8238221000065,647.8238221000065,647.8238221000065,647.8238221000065,,,,,,010101,001,2023-11-10_13h54.48.695,REPSWITCH1_version1_list1,2022.2.4,143.9951156551907,
REPSWITCH1/PICTURE_178.png,puente,speak,gold,nontarget,2,NT,1,2,1,1,Stim1_Set1,0,None,116,115,14,0,115,115,115,,,,,,,,,,,,,,,,,,,,,,,648.323885699996,649.421256200003,649.421256200003,649.421256200003,649.421256200003,649.421256200003,649.421256200003,649.421256200003,649.421256200003,None,0,,,C:\2023\REPSWITCH21092023\REPSWITCH_excgange\REPSWITCH_excgange\data/010101_REPSWITCH1_version1_list1_2023-11-10_13h54.48.695_micRespv1l1_recorded\recording_micRespv1l1_2023-11-10_14h05.33.817.wav,652.4424826000177,652.9425459000049,None,652.4424826000177,652.4424826000177,652.4424826000177,652.4424826000177,652.4424826000177,652.4424826000177,,,,,,010101,001,2023-11-10_13h54.48.695,REPSWITCH1_version1_list1,2022.2.4,143.9951156551907,
REPSWITCH1/PICTURE_178.png,puente,type,darkblue,switch,1,T,1,2,1,1,Stim1_Set1,0,None,117,116,15,0,116,116,116,,,,,,,,,,,,,,,,,,,,,,,652.9425459000049,654.0676696000155,654.0676696000155,654.0676696000155,654.0676696000155,654.0676696000155,654.0676696000155,654.0676696000155,654.0676696000155,"['p', 'u', 'e', 'n', 't', 'e']",0,"[1.3360657000157516, 1.6061545000120532, 1.7805716000148095, 1.9011513000004925, 2.1463005999976303, 2.2659938000142574]",puente,C:\2023\REPSWITCH21092023\REPSWITCH_excgange\REPSWITCH_excgange\data/010101_REPSWITCH1_version1_list1_2023-11-10_13h54.48.695_micRespv1l1_recorded\recording_micRespv1l1_2023-11-10_14h05.38.463.wav,657.0889248000167,657.5890436000191,None,657.0889248000167,657.0889248000167,657.0889248000167,657.0889248000167,657.0889248000167,657.0889248000167,,,,,,010101,001,2023-11-10_13h54.48.695,REPSWITCH1_version1_list1,2022.2.4,143.9951156551907,
REPSWITCH1/PICTURE_719.png,baño,speak,gold,filler,2,F,1,2,1,1,Stim2_Set4,0,None,118,117,16,0,117,117,117,,,,,,,,,,,,,,,,,,,,,,,657.5890436000191,658.6308063000033,658.6308063000033,658.6308063000033,658.6308063000033,658.6308063000033,658.6308063000033,658.6308063000033,658.6308063000033,None,0,,,C:\2023\REPSWITCH21092023\REPSWITCH_excgange\REPSWITCH_excgange\data/010101_REPSWITCH1_version1_list1_2023-11-10_13h54.48.695_micRespv1l1_recorded\recording_micRespv1l1_2023-11-10_14h05.43.027.wav,661.6589871000033,,None,661.6589871000033,661.6589871000033,661.6589871000033,661.6589871000033,661.6589871000033,661.6589871000033,,,,,,010101,001,2023-11-10_13h54.48.695,REPSWITCH1_version1_list1,2022.2.4,143.9951156551907,
REPSWITCH1/PICTURE_169.png,espalda,type,darkblue,nontarget,1,NT,1,2,1,1,Stim8_Set1,1,switch,119,118,17,0,118,118,118,,,,,,,,,,,,,,,,,,,,,,,662.159003400011,663.2147210999974,663.2147210999974,663.2147210999974,663.2147210999974,663.2147210999974,663.2147210999974,663.2147210999974,663.2147210999974,"['e', 's', 'p', 'a', 'l', 'd', 'a']",0,"[0.9051396999857388, 1.14369369999622, 1.3679398999956902, 1.5053414999856614, 1.6439292000140995, 1.8193046000087634, 1.881113200011896]",espalda,C:\2023\REPSWITCH21092023\REPSWITCH_excgange\REPSWITCH_excgange\data/010101_REPSWITCH1_version1_list1_2023-11-10_13h54.48.695_micRespv1l1_recorded\recording_micRespv1l1_2023-11-10_14h05.47.610.wav,666.2360340000014,666.7359956,None,666.2360340000014,666.2360340000014,666.2360340000014,666.2360340000014,666.2360340000014,666.2360340000014,,,,,,010101,001,2023-11-10_13h54.48.695,REPSWITCH1_version1_list1,2022.2.4,143.9951156551907,
REPSWITCH1/PICTURE_169.png,espalda,type,darkblue,repeat,1,T,1,2,1,1,Stim8_Set1,0,None,120,119,18,0,119,119,119,,,,,,,,,,,,,,,,,,,,,,,666.7359956,667.7917251000181,667.7917251000181,667.7917251000181,667.7917251000181,667.7917251000181,667.7917251000181,667.7917251000181,667.7917251000181,"['e', 's', 'p', 'a', 'l', 'd', 'a']",0,"[0.975616900017485, 1.1738980000081938, 1.3533010999963153, 1.4679488000110723, 1.609445100009907, 1.73705520000658, 1.8147987000120338]",espalda,C:\2023\REPSWITCH21092023\REPSWITCH_excgange\REPSWITCH_excgange\data/010101_REPSWITCH1_version1_list1_2023-11-10_13h54.48.695_micRespv1l1_recorded\recording_micRespv1l1_2023-11-10_14h05.52.187.wav,670.8129400000034,671.3130642000178,None,670.8129400000034,670.8129400000034,670.8129400000034,670.8129400000034,670.8129400000034,670.8129400000034,,,,,,010101,001,2023-11-10_13h54.48.695,REPSWITCH1_version1_list1,2022.2.4,143.9951156551907,
REPSWITCH1/PICTURE_48.png,bombero,speak,gold,filler,2,F,1,2,1,1,Stim7_Set4,1,switch,121,120,19,0,120,120,120,,,,,,,,,,,,,,,,,,,,,,,671.3130642000178,672.4103681000124,672.4103681000124,672.4103681000124,672.4103681000124,672.4103681000124,672.4103681000124,672.4103681000124,672.4103681000124,None,0,,,C:\2023\REPSWITCH21092023\REPSWITCH_excgange\REPSWITCH_excgange\data/010101_REPSWITCH1_version1_list1_2023-11-10_13h54.48.695_micRespv1l1_recorded\recording_micRespv1l1_2023-11-10_14h05.56.806.wav,675.4386110000196,,None,675.4386110000196,675.4386110000196,675.4386110000196,675.4386110000196,675.4386110000196,675.4386110000196,,,,,,010101,001,2023-11-10_13h54.48.695,REPSWITCH1_version1_list1,2022.2.4,143.9951156551907,
