image,correctAns,famTrials.thisRepN,famTrials.thisTrialN,famTrials.thisN,famTrials.thisIndex,textWelcomeFam.started,textBlank500.started,textboxInstrFam.started,keyInstrFam.started,keyInstrFam.keys,keyInstrFam.rt,fixationITI.started,fixationITI.stopped,polygonWhiteFam.started,imageFam.started,micFam.started,textFam.started,textFam.stopped,micFam.clip,polygonWhiteFam.stopped,imageFam.stopped,textBlank500.stopped,textboxEndFam.started,keyEndFam.started,keyEndFam.keys,keyEndFam.rt,participant,session,date,expName,psychopyVersion,frameRate,
,,,,,,9.590669400058687,11.579279200173914,12.086280600167811,12.086280600167811,space,18.18609660025686,,,,,,,,,,,,,,,,010100,001,2023-07-17_16h13.45.961,Fam,2022.2.4,143.94764987299934,
REPSWITCH1_Practice/PICTURE_599.png,nube,0,0,0,33,,37.94275910034776,,,,,30.789965299889445,31.922421600669622,31.922421600669622,31.922421600669622,0.006415200419723988,35.40081290062517,37.90109320078045,C:\Users\Experimental User\Desktop\experiment\data/010100_Fam_2023-07-17_16h13.45.961_micFam_recorded\recording_micFam_2023-07-17_16h14.16.034.wav,,,,,,,,010100,001,2023-07-17_16h13.45.961,Fam,2022.2.4,143.94764987299934,
REPSWITCH1_Practice/PICTURE_12.png,sirena,0,1,1,38,,45.64508880022913,,,,,38.44281330052763,39.61054820008576,39.61054820008576,39.61054820008576,0.0013871993869543076,43.096151400357485,45.59640400018543,C:\Users\Experimental User\Desktop\experiment\data/010100_Fam_2023-07-17_16h13.45.961_micFam_recorded\recording_micFam_2023-07-17_16h14.23.734.wav,45.64508880022913,45.64508880022913,,,,,,010100,001,2023-07-17_16h13.45.961,Fam,2022.2.4,143.94764987299934,
REPSWITCH1_Fam/PICTURE_169.png,espalda,0,2,2,5,,53.28560160007328,,,,,46.14576580002904,47.25738830026239,47.25738830026239,47.25738830026239,0.003513699397444725,50.742851400747895,53.24380729999393,C:\Users\Experimental User\Desktop\experiment\data/010100_Fam_2023-07-17_16h13.45.961_micFam_recorded\recording_micFam_2023-07-17_16h14.31.373.wav,,,,,,,,010100,001,2023-07-17_16h13.45.961,Fam,2022.2.4,143.94764987299934,
REPSWITCH1_Practice/PICTURE_614.png,reina,0,3,3,36,,61.00793940015137,,,,,53.785669500008225,54.97342730034143,54.97342730034143,54.97342730034143,0.0038216998800635338,58.45966070052236,60.95929630007595,C:\Users\Experimental User\Desktop\experiment\data/010100_Fam_2023-07-17_16h13.45.961_micFam_recorded\recording_micFam_2023-07-17_16h14.39.099.wav,61.00793940015137,61.00793940015137,,,,,,010100,001,2023-07-17_16h13.45.961,Fam,2022.2.4,143.94764987299934,
REPSWITCH1_Fam/PICTURE_610.png,miel,0,4,4,27,,68.57208940014243,,,,,61.5089023001492,62.54399420041591,62.54399420041591,62.54399420041591,0.004567599855363369,66.02932290080935,68.53071309998631,C:\Users\Experimental User\Desktop\experiment\data/010100_Fam_2023-07-17_16h13.45.961_micFam_recorded\recording_micFam_2023-07-17_16h14.46.660.wav,,,,,,,,010100,001,2023-07-17_16h13.45.961,Fam,2022.2.4,143.94764987299934,
REPSWITCH1_Fam/PICTURE_142.png,vaso,0,5,5,2,,76.26681510079652,,,,,69.0721394000575,70.23211270011961,70.23211270011961,70.23211270011961,0.004030000418424606,73.71774760074914,76.21801610011607,C:\Users\Experimental User\Desktop\experiment\data/010100_Fam_2023-07-17_16h13.45.961_micFam_recorded\recording_micFam_2023-07-17_16h14.54.358.wav,76.26681510079652,76.26681510079652,76.76669710036367,,,,,010100,001,2023-07-17_16h13.45.961,Fam,2022.2.4,143.94764987299934,
REPSWITCH1_Fam/PICTURE_135.png,traje,0,6,6,1,,83.8794298004359,,,,,76.76669710036367,77.85110540036112,77.85110540036112,77.85110540036112,0.0034525003284215927,81.33710420038551,83.83763130009174,C:\Users\Experimental User\Desktop\experiment\data/010100_Fam_2023-07-17_16h13.45.961_micFam_recorded\recording_micFam_2023-07-17_16h15.01.967.wav,,,,,,,,010100,001,2023-07-17_16h13.45.961,Fam,2022.2.4,143.94764987299934,
REPSWITCH1_Fam/PICTURE_517.png,cuerda,0,7,7,24,,91.57472079992294,,,,,84.37936530075967,85.54642149992287,85.54642149992287,85.54642149992287,0.003658900037407875,89.03261810075492,91.53294380009174,C:\Users\Experimental User\Desktop\experiment\data/010100_Fam_2023-07-17_16h13.45.961_micFam_recorded\recording_micFam_2023-07-17_16h15.09.662.wav,,,,,,,,010100,001,2023-07-17_16h13.45.961,Fam,2022.2.4,143.94764987299934,
REPSWITCH1_Fam/PICTURE_264.png,mano,0,8,8,12,,99.17204620037228,,,,,92.07469730079174,93.13795290049165,93.13795290049165,93.13795290049165,0.003751399926841259,96.62315919995308,99.1234338004142,C:\Users\Experimental User\Desktop\experiment\data/010100_Fam_2023-07-17_16h13.45.961_micFam_recorded\recording_micFam_2023-07-17_16h15.17.264.wav,99.17204620037228,99.17204620037228,99.67229270003736,,,,,010100,001,2023-07-17_16h13.45.961,Fam,2022.2.4,143.94764987299934,
REPSWITCH1_Fam/PICTURE_552.png,manzana,0,9,9,25,,106.74932960048318,,,,,99.67229270003736,100.71497840061784,100.71497840061784,100.71497840061784,0.0036709001287817955,104.20106090046465,106.7007172005251,C:\Users\Experimental User\Desktop\experiment\data/010100_Fam_2023-07-17_16h13.45.961_micFam_recorded\recording_micFam_2023-07-17_16h15.24.841.wav,106.74932960048318,106.74932960048318,107.2500626007095,,,,,010100,001,2023-07-17_16h13.45.961,Fam,2022.2.4,143.94764987299934,
REPSWITCH1_Practice/PICTURE_110.png,mesa,0,10,10,37,,114.32738160062581,,,,,107.2500626007095,108.29907010030001,108.29907010030001,108.29907010030001,0.003461499698460102,111.78463579993695,114.28571230079979,C:\Users\Experimental User\Desktop\experiment\data/010100_Fam_2023-07-17_16h13.45.961_micFam_recorded\recording_micFam_2023-07-17_16h15.32.415.wav,,,,,,,,010100,001,2023-07-17_16h13.45.961,Fam,2022.2.4,143.94764987299934,
REPSWITCH1_Fam/PICTURE_728.png,pulpo,0,11,11,30,,121.94550039991736,,,,,114.8273130999878,115.9110551001504,115.9110551001504,115.9110551001504,0.003521299920976162,119.39663519989699,121.89690170064569,C:\Users\Experimental User\Desktop\experiment\data/010100_Fam_2023-07-17_16h13.45.961_micFam_recorded\recording_micFam_2023-07-17_16h15.40.037.wav,121.94550039991736,121.94550039991736,122.445587400347,,,,,010100,001,2023-07-17_16h13.45.961,Fam,2022.2.4,143.94764987299934,
REPSWITCH1_Practice/PICTURE_612.png,rana,0,12,12,32,,129.68949040025473,,,,,122.445587400347,123.65500450041145,123.65500450041145,123.65500450041145,0.0013522002846002579,127.14060309994966,129.64083420019597,C:\Users\Experimental User\Desktop\experiment\data/010100_Fam_2023-07-17_16h13.45.961_micFam_recorded\recording_micFam_2023-07-17_16h15.47.778.wav,129.68949040025473,129.68949040025473,,,,,,010100,001,2023-07-17_16h13.45.961,Fam,2022.2.4,143.94764987299934,
REPSWITCH1_Fam/PICTURE_381.png,fresa,0,13,13,19,,137.36395180039108,,,,,130.1895254002884,131.32958310004324,131.32958310004324,131.32958310004324,0.004322700202465057,134.81508130021393,137.31532170064747,C:\Users\Experimental User\Desktop\experiment\data/010100_Fam_2023-07-17_16h13.45.961_micFam_recorded\recording_micFam_2023-07-17_16h15.55.456.wav,137.36395180039108,137.36395180039108,137.86403609998524,,,,,010100,001,2023-07-17_16h13.45.961,Fam,2022.2.4,143.94764987299934,
REPSWITCH1_Fam/PICTURE_576.png,guante,0,14,14,26,,144.92033920064569,,,,,137.86403609998524,138.88587910030037,138.88587910030037,138.88587910030037,0.0040132999420166016,142.37151900026947,144.87179809994996,C:\Users\Experimental User\Desktop\experiment\data/010100_Fam_2023-07-17_16h13.45.961_micFam_recorded\recording_micFam_2023-07-17_16h16.03.012.wav,144.92033920064569,144.92033920064569,145.42063280008733,,,,,010100,001,2023-07-17_16h13.45.961,Fam,2022.2.4,143.94764987299934,
REPSWITCH1_Fam/PICTURE_199.png,falda,0,15,15,9,,152.56725800037384,,,,,145.42063280008733,146.54558050073683,146.54558050073683,146.54558050073683,0.00361619982868433,150.03209850005805,152.53237490076572,C:\Users\Experimental User\Desktop\experiment\data/010100_Fam_2023-07-17_16h13.45.961_micFam_recorded\recording_micFam_2023-07-17_16h16.10.661.wav,,,153.06784720066935,,,,,010100,001,2023-07-17_16h13.45.961,Fam,2022.2.4,143.94764987299934,
REPSWITCH1_Fam/PICTURE_338.png,regalo,0,16,16,17,,160.21397980023175,,,,,153.06784720066935,154.17935760039836,154.17935760039836,154.17935760039836,0.0035638995468616486,157.66557450033724,160.16520510055125,C:\Users\Experimental User\Desktop\experiment\data/010100_Fam_2023-07-17_16h13.45.961_micFam_recorded\recording_micFam_2023-07-17_16h16.18.306.wav,160.21397980023175,160.21397980023175,160.71457390021533,,,,,010100,001,2023-07-17_16h13.45.961,Fam,2022.2.4,143.94764987299934,
REPSWITCH1_Fam/PICTURE_175.png,pintor,0,17,17,6,,167.88109649997205,,,,,160.71457390021533,161.84699420072138,161.84699420072138,161.84699420072138,0.0036670994013547897,165.33249120041728,167.8327550003305,C:\Users\Experimental User\Desktop\experiment\data/010100_Fam_2023-07-17_16h13.45.961_micFam_recorded\recording_micFam_2023-07-17_16h16.25.973.wav,167.88109649997205,167.88109649997205,168.38161050062627,,,,,010100,001,2023-07-17_16h13.45.961,Fam,2022.2.4,143.94764987299934,
REPSWITCH1_Fam/PICTURE_8.png,pierna,0,18,18,31,,175.54894710052758,,,,,168.38161050062627,169.5144591005519,169.5144591005519,169.5144591005519,0.0035776998847723007,173.00065710023046,175.5003201002255,C:\Users\Experimental User\Desktop\experiment\data/010100_Fam_2023-07-17_16h13.45.961_micFam_recorded\recording_micFam_2023-07-17_16h16.33.641.wav,175.54894710052758,175.54894710052758,176.04967450071126,,,,,010100,001,2023-07-17_16h13.45.961,Fam,2022.2.4,143.94764987299934,
REPSWITCH1_Fam/PICTURE_719.png,baño,0,19,19,29,,183.18255840055645,,,,,176.04967450071126,177.15436880011111,177.15436880011111,177.15436880011111,0.0038168001919984818,180.6404453003779,183.14072090014815,C:\Users\Experimental User\Desktop\experiment\data/010100_Fam_2023-07-17_16h13.45.961_micFam_recorded\recording_micFam_2023-07-17_16h16.41.271.wav,,,,,,,,010100,001,2023-07-17_16h13.45.961,Fam,2022.2.4,143.94764987299934,
REPSWITCH1_Fam/PICTURE_30.png,granja,0,20,20,14,,190.84312919992954,,,,,183.68250290025026,184.80797880049795,184.80797880049795,184.80797880049795,0.004454299807548523,188.29433840047568,190.7938588000834,C:\Users\Experimental User\Desktop\experiment\data/010100_Fam_2023-07-17_16h13.45.961_micFam_recorded\recording_micFam_2023-07-17_16h16.48.935.wav,190.84312919992954,190.84312919992954,191.34309950005263,,,,,010100,001,2023-07-17_16h13.45.961,Fam,2022.2.4,143.94764987299934,
REPSWITCH1_Fam/PICTURE_16.png,cazador,0,21,21,4,,198.4892244003713,,,,,191.34309950005263,192.45472230017185,192.45472230017185,192.45472230017185,0.004416599869728088,195.94016440026462,198.4404982002452,C:\Users\Experimental User\Desktop\experiment\data/010100_Fam_2023-07-17_16h13.45.961_micFam_recorded\recording_micFam_2023-07-17_16h16.56.580.wav,198.4892244003713,198.4892244003713,198.98912589997053,,,,,010100,001,2023-07-17_16h13.45.961,Fam,2022.2.4,143.94764987299934,
REPSWITCH1_Fam/PICTURE_235.png,aguja,0,22,22,10,,206.11589140072465,,,,,198.98912589997053,200.0864614006132,200.0864614006132,200.0864614006132,0.003989999182522297,203.57364890072495,206.07344880048186,C:\Users\Experimental User\Desktop\experiment\data/010100_Fam_2023-07-17_16h13.45.961_micFam_recorded\recording_micFam_2023-07-17_16h17.04.203.wav,,,,,,,,010100,001,2023-07-17_16h13.45.961,Fam,2022.2.4,143.94764987299934,
REPSWITCH1_Practice/PICTURE_733.png,gafas,0,23,23,35,,213.77632590010762,,,,,206.61586720030755,207.7481559999287,207.7481559999287,207.7481559999287,0.003568800166249275,211.23423210065812,213.7345726005733,C:\Users\Experimental User\Desktop\experiment\data/010100_Fam_2023-07-17_16h13.45.961_micFam_recorded\recording_micFam_2023-07-17_16h17.11.864.wav,,,,,,,,010100,001,2023-07-17_16h13.45.961,Fam,2022.2.4,143.94764987299934,
REPSWITCH1_Fam/PICTURE_48.png,bombero,0,24,24,22,,221.44403280038387,,,,,214.27630050014704,215.41571150068194,215.41571150068194,215.41571150068194,0.0036059003323316574,218.90192180033773,221.40175760071725,C:\Users\Experimental User\Desktop\experiment\data/010100_Fam_2023-07-17_16h13.45.961_micFam_recorded\recording_micFam_2023-07-17_16h17.19.531.wav,,,,,,,,010100,001,2023-07-17_16h13.45.961,Fam,2022.2.4,143.94764987299934,
REPSWITCH1_Fam/PICTURE_446.png,cerdo,0,25,25,20,,229.1314874999225,,,,,221.9440873004496,223.09701890032738,223.09701890032738,223.09701890032738,0.0035993997007608414,226.5826024999842,229.08286500070244,C:\Users\Experimental User\Desktop\experiment\data/010100_Fam_2023-07-17_16h13.45.961_micFam_recorded\recording_micFam_2023-07-17_16h17.27.223.wav,229.1314874999225,229.1314874999225,229.63157150056213,,,,,010100,001,2023-07-17_16h13.45.961,Fam,2022.2.4,143.94764987299934,
REPSWITCH1_Fam/PICTURE_19.png,pavo,0,26,26,8,,236.71597080025822,,,,,229.63157150056213,230.68123640026897,230.68123640026897,230.68123640026897,0.003917899914085865,234.16745030041784,236.6670774007216,C:\Users\Experimental User\Desktop\experiment\data/010100_Fam_2023-07-17_16h13.45.961_micFam_recorded\recording_micFam_2023-07-17_16h17.34.807.wav,236.71597080025822,236.71597080025822,237.21645850036293,,,,,010100,001,2023-07-17_16h13.45.961,Fam,2022.2.4,143.94764987299934,
REPSWITCH1_Fam/PICTURE_498.png,taza,0,27,27,23,,244.34855780005455,,,,,237.21645850036293,238.31419100053608,238.31419100053608,238.31419100053608,0.0010467004030942917,241.79963350016624,244.29992660041898,C:\Users\Experimental User\Desktop\experiment\data/010100_Fam_2023-07-17_16h13.45.961_micFam_recorded\recording_micFam_2023-07-17_16h17.42.438.wav,244.34855780005455,244.34855780005455,,,,,,010100,001,2023-07-17_16h13.45.961,Fam,2022.2.4,143.94764987299934,
REPSWITCH1_Fam/PICTURE_687.png,camisa,0,28,28,28,,251.98830730002373,,,,,244.84877840057015,245.95384090021253,245.95384090021253,245.95384090021253,0.0034589003771543503,249.4401889005676,251.93968740012497,C:\Users\Experimental User\Desktop\experiment\data/010100_Fam_2023-07-17_16h13.45.961_micFam_recorded\recording_micFam_2023-07-17_16h17.50.079.wav,251.98830730002373,251.98830730002373,252.48916800040752,,,,,010100,001,2023-07-17_16h13.45.961,Fam,2022.2.4,143.94764987299934,
REPSWITCH1_Fam/PICTURE_271.png,conejo,0,29,29,13,,259.64971090015024,,,,,252.48916800040752,253.6214773003012,253.6214773003012,253.6214773003012,0.0043390002101659775,257.1075331000611,259.60790390055627,C:\Users\Experimental User\Desktop\experiment\data/010100_Fam_2023-07-17_16h13.45.961_micFam_recorded\recording_micFam_2023-07-17_16h17.57.739.wav,,,,,,,,010100,001,2023-07-17_16h13.45.961,Fam,2022.2.4,143.94764987299934,
REPSWITCH1_Fam/PICTURE_320.png,iglesia,0,30,30,16,,267.2200346002355,,,,,260.1496435003355,261.1916812006384,261.1916812006384,261.1916812006384,0.00420290045440197,264.67789920046926,267.17824720032513,C:\Users\Experimental User\Desktop\experiment\data/010100_Fam_2023-07-17_16h13.45.961_micFam_recorded\recording_micFam_2023-07-17_16h18.05.309.wav,,,,,,,,010100,001,2023-07-17_16h13.45.961,Fam,2022.2.4,143.94764987299934,
REPSWITCH1_Fam/PICTURE_464.png,goma,0,31,31,21,,274.8320211004466,,,,,267.72010120004416,268.80382020026445,268.80382020026445,268.80382020026445,0.003410499542951584,272.28926909994334,274.79023359995335,C:\Users\Experimental User\Desktop\experiment\data/010100_Fam_2023-07-17_16h13.45.961_micFam_recorded\recording_micFam_2023-07-17_16h18.12.920.wav,,,,,,,,010100,001,2023-07-17_16h13.45.961,Fam,2022.2.4,143.94764987299934,
REPSWITCH1_Fam/PICTURE_242.png,cartero,0,32,32,11,,282.6237660003826,,,,,275.3320700004697,276.5893184999004,276.5893184999004,276.5893184999004,0.003633500076830387,280.0748840998858,282.5751553000882,C:\Users\Experimental User\Desktop\experiment\data/010100_Fam_2023-07-17_16h13.45.961_micFam_recorded\recording_micFam_2023-07-17_16h18.20.716.wav,282.6237660003826,282.6237660003826,283.12386150006205,,,,,010100,001,2023-07-17_16h13.45.961,Fam,2022.2.4,143.94764987299934,
REPSWITCH1_Fam/PICTURE_152.png,caracol,0,33,33,3,,290.3408743003383,,,,,283.12386150006205,284.31243710033596,284.31243710033596,284.31243710033596,0.003754299134016037,287.79861390031874,290.29896080028266,C:\Users\Experimental User\Desktop\experiment\data/010100_Fam_2023-07-17_16h13.45.961_micFam_recorded\recording_micFam_2023-07-17_16h18.28.429.wav,,,,,,,,010100,001,2023-07-17_16h13.45.961,Fam,2022.2.4,143.94764987299934,
REPSWITCH1_Fam/PICTURE_35.png,oreja,0,34,34,18,,297.91810510028154,,,,,290.8407989004627,291.88969339989126,291.88969339989126,291.88969339989126,0.003508400171995163,295.37602780014277,297.87635920010507,C:\Users\Experimental User\Desktop\experiment\data/010100_Fam_2023-07-17_16h13.45.961_micFam_recorded\recording_micFam_2023-07-17_16h18.36.006.wav,,,,,,,,010100,001,2023-07-17_16h13.45.961,Fam,2022.2.4,143.94764987299934,
REPSWITCH1_Fam/PICTURE_178.png,puente,0,35,35,7,,305.46748980041593,,,,,298.4182149004191,299.43916910048574,299.43916910048574,299.43916910048574,0.0035760998725891113,302.9247536007315,305.4257001001388,C:\Users\Experimental User\Desktop\experiment\data/010100_Fam_2023-07-17_16h13.45.961_micFam_recorded\recording_micFam_2023-07-17_16h18.43.555.wav,,,,,,,,010100,001,2023-07-17_16h13.45.961,Fam,2022.2.4,143.94764987299934,
REPSWITCH1_Practice/PICTURE_570.png,toro,0,36,36,34,,313.0509267002344,,,,,305.9674308001995,307.01643930003047,307.01643930003047,307.01643930003047,0.0036598993465304375,310.50264650024474,313.00226750038564,C:\Users\Experimental User\Desktop\experiment\data/010100_Fam_2023-07-17_16h13.45.961_micFam_recorded\recording_micFam_2023-07-17_16h18.51.142.wav,313.0509267002344,313.0509267002344,313.5509601999074,,,,,010100,001,2023-07-17_16h13.45.961,Fam,2022.2.4,143.94764987299934,
REPSWITCH1_Fam/PICTURE_319.png,vaca,0,37,37,15,,320.7045600004494,,,,,313.5509601999074,314.6701688002795,314.6701688002795,314.6701688002795,0.004328800365328789,318.15566520020366,320.6559498999268,C:\Users\Experimental User\Desktop\experiment\data/010100_Fam_2023-07-17_16h13.45.961_micFam_recorded\recording_micFam_2023-07-17_16h18.58.797.wav,320.7045600004494,320.7045600004494,321.2046346999705,,,,,010100,001,2023-07-17_16h13.45.961,Fam,2022.2.4,143.94764987299934,
REPSWITCH1_Fam/PICTURE_128.png,muñeca,0,38,38,0,,328.3242496000603,,,,,321.2046346999705,322.29593800008297,322.29593800008297,322.29593800008297,0.004200199618935585,325.7815568000078,328.28249750006944,C:\Users\Experimental User\Desktop\experiment\data/010100_Fam_2023-07-17_16h13.45.961_micFam_recorded\recording_micFam_2023-07-17_16h19.06.412.wav,,,,,,,,010100,001,2023-07-17_16h13.45.961,Fam,2022.2.4,143.94764987299934,
,,,,,,,328.8242267007008,,,,,,,,,,,,,,,,329.3243780005723,329.3243780005723,space,5.763167900033295,010100,001,2023-07-17_16h13.45.961,Fam,2022.2.4,143.94764987299934,
