image,correctAns,respModal,frameColor,repSwitch,sequence,target,set,stimulus,order,psychopy_order,trialsREPSWITCH.thisRepN,trialsREPSWITCH.thisTrialN,trialsREPSWITCH.thisN,trialsREPSWITCH.thisIndex,textWelcome.started,textBlank500.started,textboxInstrMain1.started,textboxInstrMain1_2.started,textboxInstrMain1_3.started,keyInstrMain.started,keyInstrMain.keys,keyInstrMain.rt,textboxInstrMain2.started,textboxInstrMain2_2.started,textboxInstrMain2_3.started,textboxInstrMain2_4.started,textboxInstrMain2_5.started,textboxInstrMain2_6.started,textboxInstrMain2_7.started,textboxInstrMain2_8.started,textboxInstrMain2_9.started,textboxInstrMain2_10.started,textboxInstrMain2_11.started,textboxInstrMain2_12.started,keyInstrMain2.started,keyInstrMain2.keys,keyInstrMain2.rt,textBlank500.stopped,fixationITI.started,fixationITI.stopped,polygonColour.started,polygonWhite.started,imageObject.started,polygonType.started,textInput.started,keyResp.started,micResp.started,keyResp.keys,keyResp.corr,subjResponse,micResp.clip,keyPause.keys,polygonColour.stopped,polygonWhite.stopped,imageObject.stopped,polygonType.stopped,textInput.stopped,keyResp.stopped,keyResp.rt,textboxPause.started,keyPause.started,keyPause.rt,textboxGoodbye.started,textboxGoodbye.stopped,participant,session,date,expName,psychopyVersion,frameRate,
,,,,,,,,,,,,,,,8.72219350002706,11.21535800024867,11.722585600800812,11.722585600800812,11.722585600800812,11.722585600800812,space,26.604586998932064,,,,,,,,,,,,,,,,,,,,,,,,,,,,,,,,,,,,,,,,,,,010100,001,2023-07-17_16h27.34.455,REPSWITCH1_v2022.2.4,2022.2.4,144.06917648733958,
,,,,,,,,,,,,,,,,,,,,,,,38.350098800845444,38.350098800845444,38.350098800845444,38.350098800845444,38.350098800845444,38.350098800845444,38.350098800845444,38.350098800845444,38.350098800845444,38.350098800845444,38.350098800845444,38.350098800845444,38.350098800845444,space,9.033872899599373,,,,,,,,,,,,,,,,,,,,,,,,,,,,010100,001,2023-07-17_16h27.34.455,REPSWITCH1_v2022.2.4,2022.2.4,144.06917648733958,
REPSWITCH1/PICTURE_178.png,puente,speak,gold,nontarget,2,NT,1,Stim1_Set1,1,0,0,0,0,0,,52.08823430072516,,,,,,,,,,,,,,,,,,,,,,47.95614970009774,47.95614970009774,49.06745620071888,49.06745620071888,49.06745620071888,49.06745620071888,49.06745620071888,49.06745620071888,49.06745620071888,0.006547099910676479,None,0,,C:\Users\Experimental User\Desktop\experiment\data/010100_REPSWITCH1_v2022.2.4_2023-07-17_16h27.34.455_micResp_recorded\recording_micResp_2023-07-17_16h28.19.611.wav,None,,,,,,,,,,,,,010100,001,2023-07-17_16h27.34.455,REPSWITCH1_v2022.2.4,2022.2.4,144.06917648733958,
REPSWITCH1/PICTURE_178.png,puente,speak,gold,repeat,2,T,1,Stim1_Set1,2,1,0,1,1,1,,56.70677770022303,,,,,,,,,,,,,,,,,,,,,,,52.588157000020146,53.68577040079981,53.68577040079981,53.68577040079981,53.68577040079981,53.68577040079981,53.68577040079981,53.68577040079981,0.0014473004266619682,None,0,,C:\Users\Experimental User\Desktop\experiment\data/010100_REPSWITCH1_v2022.2.4_2023-07-17_16h27.34.455_micResp_recorded\recording_micResp_2023-07-17_16h28.24.230.wav,None,,,,,,,,,,,,,010100,001,2023-07-17_16h27.34.455,REPSWITCH1_v2022.2.4,2022.2.4,144.06917648733958,
REPSWITCH1/PICTURE_319.png,vaca,type,darkblue,filler,1,F,1,Stim1_Set4,3,2,0,2,2,2,,61.28308680001646,,,,,,,,,,,,,,,,,,,,,,61.78300190065056,57.206876900047064,58.25582660082728,58.25582660082728,58.25582660082728,58.25582660082728,58.25582660082728,58.25582660082728,58.25582660082728,0.004192600026726723,"['v', 'a', 'c', 'a']",0,vaca,C:\Users\Experimental User\Desktop\experiment\data/010100_REPSWITCH1_v2022.2.4_2023-07-17_16h27.34.455_micResp_recorded\recording_micResp_2023-07-17_16h28.28.814.wav,None,61.28308680001646,61.28308680001646,61.28308680001646,61.28308680001646,61.28308680001646,61.28308680001646,"[0.9352080998942256, 1.1914514992386103, 1.4154546996578574, 1.6235749991610646]",,,,,,010100,001,2023-07-17_16h27.34.455,REPSWITCH1_v2022.2.4,2022.2.4,144.06917648733958,
REPSWITCH1/PICTURE_142.png,vaso,speak,gold,nontarget,2,NT,1,Stim2_Set1,4,3,0,3,3,3,,65.94409830030054,,,,,,,,,,,,,,,,,,,,,,66.44392010010779,61.78300190065056,62.92304620053619,62.92304620053619,62.92304620053619,62.92304620053619,62.92304620053619,62.92304620053619,62.92304620053619,0.003664500080049038,None,0,,C:\Users\Experimental User\Desktop\experiment\data/010100_REPSWITCH1_v2022.2.4_2023-07-17_16h27.34.455_micResp_recorded\recording_micResp_2023-07-17_16h28.33.471.wav,None,,,,,,,,,,,,,010100,001,2023-07-17_16h27.34.455,REPSWITCH1_v2022.2.4,2022.2.4,144.06917648733958,
REPSWITCH1/PICTURE_142.png,vaso,speak,gold,repeat,2,T,1,Stim2_Set1,5,4,0,4,4,4,,70.56178860086948,,,,,,,,,,,,,,,,,,,,,,71.06201290059835,66.44392010010779,67.53458350058645,67.53458350058645,67.53458350058645,67.53458350058645,67.53458350058645,67.53458350058645,67.53458350058645,0.0011989995837211609,None,0,,C:\Users\Experimental User\Desktop\experiment\data/010100_REPSWITCH1_v2022.2.4_2023-07-17_16h27.34.455_micResp_recorded\recording_micResp_2023-07-17_16h28.38.090.wav,None,70.56178860086948,70.56178860086948,70.56178860086948,70.56178860086948,70.56178860086948,70.56178860086948,,,,,,,010100,001,2023-07-17_16h27.34.455,REPSWITCH1_v2022.2.4,2022.2.4,144.06917648733958,
REPSWITCH1/PICTURE_719.png,baño,type,darkblue,filler,1,F,1,Stim2_Set4,6,5,0,5,5,5,,75.15337620023638,,,,,,,,,,,,,,,,,,,,,,75.65331040043384,71.06201290059835,72.13232140056789,72.13232140056789,72.13232140056789,72.13232140056789,72.13232140056789,72.13232140056789,72.13232140056789,0.003905300050973892,"['b', 'a', 'ñ', 'o']",0,baño,C:\Users\Experimental User\Desktop\experiment\data/010100_REPSWITCH1_v2022.2.4_2023-07-17_16h27.34.455_micResp_recorded\recording_micResp_2023-07-17_16h28.42.680.wav,None,,,,,,,"[1.3950960002839565, 1.6667865999042988, 2.61260399967432, 2.8192491997033358]",,,,,,010100,001,2023-07-17_16h27.34.455,REPSWITCH1_v2022.2.4,2022.2.4,144.06917648733958,
REPSWITCH1/PICTURE_135.png,traje,speak,gold,nontarget,2,NT,1,Stim3_Set1,7,6,0,6,6,6,,79.8484823005274,,,,,,,,,,,,,,,,,,,,,,80.34829320013523,75.65331040043384,76.8271601004526,76.8271601004526,76.8271601004526,76.8271601004526,76.8271601004526,76.8271601004526,76.8271601004526,0.0035983994603157043,None,0,,C:\Users\Experimental User\Desktop\experiment\data/010100_REPSWITCH1_v2022.2.4_2023-07-17_16h27.34.455_micResp_recorded\recording_micResp_2023-07-17_16h28.47.375.wav,None,,,,,,,,,,,,,010100,001,2023-07-17_16h27.34.455,REPSWITCH1_v2022.2.4,2022.2.4,144.06917648733958,
REPSWITCH1/PICTURE_135.png,traje,type,darkblue,switch,1,T,1,Stim3_Set1,8,7,0,7,7,7,,84.49473919998854,,,,,,,,,,,,,,,,,,,,,,,80.34829320013523,81.47368960082531,81.47368960082531,81.47368960082531,81.47368960082531,81.47368960082531,81.47368960082531,81.47368960082531,0.001255999319255352,"['t', 'r', 'a', 'j', 'e']",0,traje,C:\Users\Experimental User\Desktop\experiment\data/010100_REPSWITCH1_v2022.2.4_2023-07-17_16h27.34.455_micResp_recorded\recording_micResp_2023-07-17_16h28.52.018.wav,None,,,,,,,"[1.1260260995477438, 1.301485899835825, 1.4940759995952249, 1.6700702998787165, 1.8454183991998434]",,,,,,010100,001,2023-07-17_16h27.34.455,REPSWITCH1_v2022.2.4,2022.2.4,144.06917648733958,
REPSWITCH1/PICTURE_128.png,muñeca,type,darkblue,nontarget,1,NT,1,Stim4_Set1,9,8,0,8,8,8,,89.0994004001841,,,,,,,,,,,,,,,,,,,,,,89.5993607006967,84.99479650054127,86.07872590050101,86.07872590050101,86.07872590050101,86.07872590050101,86.07872590050101,86.07872590050101,86.07872590050101,0.003961499780416489,"['n', 'backspace', 'm', 'u']",0,mu,C:\Users\Experimental User\Desktop\experiment\data/010100_REPSWITCH1_v2022.2.4_2023-07-17_16h27.34.455_micResp_recorded\recording_micResp_2023-07-17_16h28.56.627.wav,None,,,,,,,"[1.2741719987243414, 2.1532774986699224, 2.729181499220431, 2.936428398825228]",,,,,,010100,001,2023-07-17_16h27.34.455,REPSWITCH1_v2022.2.4,2022.2.4,144.06917648733958,
REPSWITCH1/PICTURE_128.png,muñeca,speak,gold,switch,2,T,1,Stim4_Set1,10,9,0,9,9,9,,93.76659830007702,,,,,,,,,,,,,,,,,,,,,,,89.5993607006967,90.7458313005045,90.7458313005045,90.7458313005045,90.7458313005045,90.7458313005045,90.7458313005045,90.7458313005045,0.0013603996485471725,None,0,,C:\Users\Experimental User\Desktop\experiment\data/010100_REPSWITCH1_v2022.2.4_2023-07-17_16h27.34.455_micResp_recorded\recording_micResp_2023-07-17_16h29.01.290.wav,None,,,,,,,,,,,,,010100,001,2023-07-17_16h27.34.455,REPSWITCH1_v2022.2.4,2022.2.4,144.06917648733958,
REPSWITCH1/PICTURE_8.png,pierna,speak,gold,filler,2,F,1,Stim3_Set4,11,10,0,10,10,10,,98.43396200053394,,,,,,,,,,,,,,,,,,,,,,98.93376820068806,94.26656830031425,95.41293430048972,95.41293430048972,95.41293430048972,95.41293430048972,95.41293430048972,95.41293430048972,95.41293430048972,0.0035221995785832405,None,0,,C:\Users\Experimental User\Desktop\experiment\data/010100_REPSWITCH1_v2022.2.4_2023-07-17_16h27.34.455_micResp_recorded\recording_micResp_2023-07-17_16h29.05.961.wav,None,,,,,,,,,,,,,010100,001,2023-07-17_16h27.34.455,REPSWITCH1_v2022.2.4,2022.2.4,144.06917648733958,
REPSWITCH1/PICTURE_19.png,pavo,speak,gold,nontarget,2,NT,1,Stim5_Set1,12,11,0,11,11,11,,103.03034310042858,,,,,,,,,,,,,,,,,,,,,,103.53086910024285,98.93376820068806,100.00343530066311,100.00343530066311,100.00343530066311,100.00343530066311,100.00343530066311,100.00343530066311,100.00343530066311,0.004085799679160118,None,0,,C:\Users\Experimental User\Desktop\experiment\data/010100_REPSWITCH1_v2022.2.4_2023-07-17_16h27.34.455_micResp_recorded\recording_micResp_2023-07-17_16h29.10.561.wav,None,103.03034310042858,103.03034310042858,103.03034310042858,103.03034310042858,103.03034310042858,103.03034310042858,,,,,,,010100,001,2023-07-17_16h27.34.455,REPSWITCH1_v2022.2.4,2022.2.4,144.06917648733958,
REPSWITCH1/PICTURE_19.png,pavo,type,darkblue,switch,1,T,1,Stim5_Set1,13,12,0,12,12,12,,107.68413550034165,,,,,,,,,,,,,,,,,,,,,,108.18417110014707,103.53086910024285,104.65694130025804,104.65694130025804,104.65694130025804,104.65694130025804,104.65694130025804,104.65694130025804,104.65694130025804,0.0017782002687454224,"['p', 'a', 'v', 'o']",0,pavo,C:\Users\Experimental User\Desktop\experiment\data/010100_REPSWITCH1_v2022.2.4_2023-07-17_16h27.34.455_micResp_recorded\recording_micResp_2023-07-17_16h29.15.212.wav,None,107.68413550034165,107.68413550034165,107.68413550034165,107.68413550034165,107.68413550034165,107.68413550034165,"[1.1268621990457177, 1.590583698824048, 1.8142437990754843, 1.9105699993669987]",,,,,,010100,001,2023-07-17_16h27.34.455,REPSWITCH1_v2022.2.4,2022.2.4,144.06917648733958,
REPSWITCH1/PICTURE_498.png,taza,speak,gold,filler,2,F,1,Stim4_Set4,14,13,0,13,13,13,,112.3381684999913,,,,,,,,,,,,,,,,,,,,,,112.83814790006727,108.18417110014707,109.31727730017155,109.31727730017155,109.31727730017155,109.31727730017155,109.31727730017155,109.31727730017155,109.31727730017155,0.004393400624394417,None,0,,C:\Users\Experimental User\Desktop\experiment\data/010100_REPSWITCH1_v2022.2.4_2023-07-17_16h27.34.455_micResp_recorded\recording_micResp_2023-07-17_16h29.19.866.wav,None,,,,,,,,,,,,,010100,001,2023-07-17_16h27.34.455,REPSWITCH1_v2022.2.4,2022.2.4,144.06917648733958,
REPSWITCH1/PICTURE_16.png,cazador,type,darkblue,nontarget,1,NT,1,Stim6_Set1,15,14,0,14,14,14,,116.93608540017158,,,,,,,,,,,,,,,,,,,,,,117.4358552005142,112.83814790006727,113.91504970006645,113.91504970006645,113.91504970006645,113.91504970006645,113.91504970006645,113.91504970006645,113.91504970006645,0.00443279929459095,"['c', 'c', 'z']",0,ccz,C:\Users\Experimental User\Desktop\experiment\data/010100_REPSWITCH1_v2022.2.4_2023-07-17_16h27.34.455_micResp_recorded\recording_micResp_2023-07-17_16h29.24.463.wav,None,,,,,,,"[1.0045992992818356, 1.5326180988922715, 2.077182998880744]",,,,,,010100,001,2023-07-17_16h27.34.455,REPSWITCH1_v2022.2.4,2022.2.4,144.06917648733958,
REPSWITCH1/PICTURE_16.png,cazador,type,darkblue,repeat,1,T,1,Stim6_Set1,16,15,0,15,15,15,,121.50511700008065,,,,,,,,,,,,,,,,,,,,,,122.00521990004927,117.4358552005142,118.47806820087135,118.47806820087135,118.47806820087135,118.47806820087135,118.47806820087135,118.47806820087135,118.47806820087135,0.0014928998425602913,"['v', 'backspace', 'c', 'a', 'z']",0,caz,C:\Users\Experimental User\Desktop\experiment\data/010100_REPSWITCH1_v2022.2.4_2023-07-17_16h27.34.455_micResp_recorded\recording_micResp_2023-07-17_16h29.29.034.wav,None,121.50511700008065,121.50511700008065,121.50511700008065,121.50511700008065,121.50511700008065,121.50511700008065,"[1.529590499587357, 1.8495879992842674, 2.5374034997075796, 2.745456799864769, 2.90522029902786]",,,,,,010100,001,2023-07-17_16h27.34.455,REPSWITCH1_v2022.2.4,2022.2.4,144.06917648733958,
REPSWITCH1/PICTURE_687.png,camisa,speak,gold,filler,2,F,1,Stim5_Set4,17,16,0,16,16,16,,126.18008680082858,,,,,,,,,,,,,,,,,,,,,,,122.00521990004927,123.15913720056415,123.15913720056415,123.15913720056415,123.15913720056415,123.15913720056415,123.15913720056415,123.15913720056415,0.003621700219810009,None,0,,C:\Users\Experimental User\Desktop\experiment\data/010100_REPSWITCH1_v2022.2.4_2023-07-17_16h27.34.455_micResp_recorded\recording_micResp_2023-07-17_16h29.33.707.wav,None,,,,,,,,,,,,,010100,001,2023-07-17_16h27.34.455,REPSWITCH1_v2022.2.4,2022.2.4,144.06917648733958,
REPSWITCH1/PICTURE_142.png,vaso,type,darkblue,nontarget,1,NT,1,Stim7_Set1,18,17,0,17,17,17,,130.83957570046186,,,,,,,,,,,,,,,,,,,,,,131.33960070088506,126.68025790061802,127.81234920024872,127.81234920024872,127.81234920024872,127.81234920024872,127.81234920024872,127.81234920024872,127.81234920024872,0.0012330003082752228,"['v', 'a', 's', 'o']",0,vaso,C:\Users\Experimental User\Desktop\experiment\data/010100_REPSWITCH1_v2022.2.4_2023-07-17_16h27.34.455_micResp_recorded\recording_micResp_2023-07-17_16h29.38.367.wav,None,130.83957570046186,130.83957570046186,130.83957570046186,130.83957570046186,130.83957570046186,130.83957570046186,"[1.0754102999344468, 1.3314006999135017, 1.4914064994081855, 1.6522704996168613]",,,,,,010100,001,2023-07-17_16h27.34.455,REPSWITCH1_v2022.2.4,2022.2.4,144.06917648733958,
REPSWITCH1/PICTURE_142.png,vaso,type,darkblue,repeat,1,T,1,Stim7_Set1,19,18,0,18,18,18,,135.4729003002867,,,,,,,,,,,,,,,,,,,,,,,131.33960070088506,132.45181060023606,132.45181060023606,132.45181060023606,132.45181060023606,132.45181060023606,132.45181060023606,132.45181060023606,0.0012462995946407318,"['v', 'a', 's', 'o']",0,vaso,C:\Users\Experimental User\Desktop\experiment\data/010100_REPSWITCH1_v2022.2.4_2023-07-17_16h27.34.455_micResp_recorded\recording_micResp_2023-07-17_16h29.42.996.wav,None,,,,,,,"[1.1231926996260881, 1.3632174003869295, 1.5071823000907898, 1.6359229004010558]",,,,,,010100,001,2023-07-17_16h27.34.455,REPSWITCH1_v2022.2.4,2022.2.4,144.06917648733958,
REPSWITCH1/PICTURE_338.png,regalo,speak,gold,filler,2,F,1,Stim6_Set4,20,19,0,19,19,19,,140.10402710083872,,,,,,,,,,,,,,,,,,,,,,140.60455729998648,135.9728379007429,137.07722480036318,137.07722480036318,137.07722480036318,137.07722480036318,137.07722480036318,137.07722480036318,137.07722480036318,0.0038256999105215073,None,0,,C:\Users\Experimental User\Desktop\experiment\data/010100_REPSWITCH1_v2022.2.4_2023-07-17_16h27.34.455_micResp_recorded\recording_micResp_2023-07-17_16h29.47.636.wav,None,140.10402710083872,140.10402710083872,140.10402710083872,140.10402710083872,140.10402710083872,140.10402710083872,,,,,,,010100,001,2023-07-17_16h27.34.455,REPSWITCH1_v2022.2.4,2022.2.4,144.06917648733958,
REPSWITCH1/PICTURE_169.png,espalda,type,darkblue,nontarget,1,NT,1,Stim8_Set1,21,20,0,20,20,20,,144.67525660060346,,,,,,,,,,,,,,,,,,,,,,,140.60455729998648,141.65336610004306,141.65336610004306,141.65336610004306,141.65336610004306,141.65336610004306,141.65336610004306,141.65336610004306,0.003607499413192272,"['s', 'p', 'a', 'l']",0,spal,C:\Users\Experimental User\Desktop\experiment\data/010100_REPSWITCH1_v2022.2.4_2023-07-17_16h27.34.455_micResp_recorded\recording_micResp_2023-07-17_16h29.52.201.wav,None,,,,,,,"[1.362453198991716, 2.5301762986928225, 2.722607798874378, 2.8345748987048864]",,,,,,010100,001,2023-07-17_16h27.34.455,REPSWITCH1_v2022.2.4,2022.2.4,144.06917648733958,
REPSWITCH1/PICTURE_169.png,espalda,speak,gold,switch,2,T,1,Stim8_Set1,22,21,0,21,21,21,,149.2237573005259,,,,,,,,,,,,,,,,,,,,,,149.72384680062532,145.17519530002028,146.1964139007032,146.1964139007032,146.1964139007032,146.1964139007032,146.1964139007032,146.1964139007032,146.1964139007032,0.0013536997139453888,None,0,,C:\Users\Experimental User\Desktop\experiment\data/010100_REPSWITCH1_v2022.2.4_2023-07-17_16h27.34.455_micResp_recorded\recording_micResp_2023-07-17_16h29.56.752.wav,None,149.2237573005259,149.2237573005259,149.2237573005259,149.2237573005259,149.2237573005259,149.2237573005259,,,,,,,010100,001,2023-07-17_16h27.34.455,REPSWITCH1_v2022.2.4,2022.2.4,144.06917648733958,
REPSWITCH1/PICTURE_48.png,bombero,type,darkblue,filler,1,F,1,Stim7_Set4,23,22,0,22,22,22,,154.0027299001813,,,,,,,,,,,,,,,,,,,,,,,149.72384680062532,150.9817808000371,150.9817808000371,150.9817808000371,150.9817808000371,150.9817808000371,150.9817808000371,150.9817808000371,0.0038231005892157555,"['b', 'o', 'm', 'b', 'e', 'r', 'o']",0,bombero,C:\Users\Experimental User\Desktop\experiment\data/010100_REPSWITCH1_v2022.2.4_2023-07-17_16h27.34.455_micResp_recorded\recording_micResp_2023-07-17_16h30.01.529.wav,None,,,,,,,"[1.505966898985207, 1.5859691994264722, 1.7772952988743782, 2.001286598853767, 2.2252920996397734, 2.3695810995996, 2.466578599065542]",,,,,,010100,001,2023-07-17_16h27.34.455,REPSWITCH1_v2022.2.4,2022.2.4,144.06917648733958,
REPSWITCH1/PICTURE_728.png,pulpo,type,darkblue,filler,1,F,1,Stim8_Set4,24,23,0,23,23,23,,158.7387296007946,,,,,,,,,,,,,,,,,,,,,,159.23866850044578,154.50266340002418,155.71135440003127,155.71135440003127,155.71135440003127,155.71135440003127,155.71135440003127,155.71135440003127,155.71135440003127,0.0037893997505307198,"['p', 'u', 'l', 'p', 'o']",0,pulpo,C:\Users\Experimental User\Desktop\experiment\data/010100_REPSWITCH1_v2022.2.4_2023-07-17_16h27.34.455_micResp_recorded\recording_micResp_2023-07-17_16h30.06.269.wav,None,158.7387296007946,158.7387296007946,158.7387296007946,158.7387296007946,158.7387296007946,158.7387296007946,"[1.6240207990631461, 2.087954799644649, 2.3278881991282105, 2.583849499002099, 2.7603660989552736]",,,,,,010100,001,2023-07-17_16h27.34.455,REPSWITCH1_v2022.2.4,2022.2.4,144.06917648733958,
REPSWITCH1/PICTURE_178.png,puente,speak,gold,filler,2,F,2,Stim1_Set1,25,24,0,24,24,24,,163.37880680058151,,,,,,,,,,,,,,,,,,,,,,,159.23866850044578,160.35083680041134,160.35083680041134,160.35083680041134,160.35083680041134,160.35083680041134,160.35083680041134,160.35083680041134,0.001325800083577633,None,0,,C:\Users\Experimental User\Desktop\experiment\data/010100_REPSWITCH1_v2022.2.4_2023-07-17_16h27.34.455_micResp_recorded\recording_micResp_2023-07-17_16h30.10.905.wav,None,,,,,,,,,,,,,010100,001,2023-07-17_16h27.34.455,REPSWITCH1_v2022.2.4,2022.2.4,144.06917648733958,
REPSWITCH1/PICTURE_175.png,pintor,type,darkblue,nontarget,1,NT,2,Stim1_Set2,26,25,0,25,25,25,,167.9753297008574,,,,,,,,,,,,,,,,,,,,,,168.4758312003687,163.87884130049497,164.94866050034761,164.94866050034761,164.94866050034761,164.94866050034761,164.94866050034761,164.94866050034761,164.94866050034761,0.00378239993005991,"['p', 'n', 'backspace', 'i', 'n', 't', 'o']",0,pinto,C:\Users\Experimental User\Desktop\experiment\data/010100_REPSWITCH1_v2022.2.4_2023-07-17_16h27.34.455_micResp_recorded\recording_micResp_2023-07-17_16h30.15.506.wav,None,167.9753297008574,167.9753297008574,167.9753297008574,167.9753297008574,167.9753297008574,167.9753297008574,"[1.2664624992758036, 1.6504226988181472, 2.163106099702418, 2.4506176989525557, 2.594320999458432, 2.7387392995879054, 2.8347353991121054]",,,,,,010100,001,2023-07-17_16h27.34.455,REPSWITCH1_v2022.2.4,2022.2.4,144.06917648733958,
REPSWITCH1/PICTURE_175.png,pintor,type,darkblue,repeat,1,T,2,Stim1_Set2,27,26,0,26,26,26,,172.60903220064938,,,,,,,,,,,,,,,,,,,,,,,168.4758312003687,169.58826680015773,169.58826680015773,169.58826680015773,169.58826680015773,169.58826680015773,169.58826680015773,169.58826680015773,0.001409200020134449,"['p', 'i', 'n', 't', 'o', 'r']",0,pintor,C:\Users\Experimental User\Desktop\experiment\data/010100_REPSWITCH1_v2022.2.4_2023-07-17_16h27.34.455_micResp_recorded\recording_micResp_2023-07-17_16h30.20.133.wav,None,,,,,,,"[1.4108200995251536, 1.634807899594307, 1.7788071995601058, 1.9548038002103567, 2.0835910998284817, 2.7868483001366258]",,,,,,010100,001,2023-07-17_16h27.34.455,REPSWITCH1_v2022.2.4,2022.2.4,144.06917648733958,
REPSWITCH1/PICTURE_142.png,vaso,speak,gold,filler,2,F,2,Stim2_Set1,28,27,0,27,27,27,,177.26849230006337,,,,,,,,,,,,,,,,,,,,,,177.768540000543,173.108969300054,174.2415310004726,174.2415310004726,174.2415310004726,174.2415310004726,174.2415310004726,174.2415310004726,174.2415310004726,0.0012532994151115417,None,0,,C:\Users\Experimental User\Desktop\experiment\data/010100_REPSWITCH1_v2022.2.4_2023-07-17_16h27.34.455_micResp_recorded\recording_micResp_2023-07-17_16h30.24.796.wav,None,177.26849230006337,177.26849230006337,177.26849230006337,177.26849230006337,177.26849230006337,177.26849230006337,,,,,,,010100,001,2023-07-17_16h27.34.455,REPSWITCH1_v2022.2.4,2022.2.4,144.06917648733958,
REPSWITCH1/PICTURE_152.png,caracol,type,darkblue,nontarget,1,NT,2,Stim2_Set2,29,28,0,28,28,28,,181.82550060003996,,,,,,,,,,,,,,,,,,,,,,182.32530360016972,177.768540000543,178.80343280080706,178.80343280080706,178.80343280080706,178.80343280080706,178.80343280080706,178.80343280080706,178.80343280080706,0.004465299658477306,"['c', 'a', 'r', 'a', 'c', 'o', 'l']",0,caracol,C:\Users\Experimental User\Desktop\experiment\data/010100_REPSWITCH1_v2022.2.4_2023-07-17_16h27.34.455_micResp_recorded\recording_micResp_2023-07-17_16h30.29.352.wav,None,,,,,,,"[1.2843643995001912, 1.524232399649918, 1.747770399786532, 1.9399044001474977, 2.163906999863684, 2.227899800054729, 2.403891899622977]",,,,,,010100,001,2023-07-17_16h27.34.455,REPSWITCH1_v2022.2.4,2022.2.4,144.06917648733958,
REPSWITCH1/PICTURE_152.png,caracol,type,darkblue,repeat,1,T,2,Stim2_Set2,30,29,0,29,29,29,,186.41491940058768,,,,,,,,,,,,,,,,,,,,,,186.91543749999255,182.32530360016972,183.3882005000487,183.3882005000487,183.3882005000487,183.3882005000487,183.3882005000487,183.3882005000487,183.3882005000487,0.0014915000647306442,"['c', 'a', 'r', 'a', 'c', 'o', 'l']",0,caracol,C:\Users\Experimental User\Desktop\experiment\data/010100_REPSWITCH1_v2022.2.4_2023-07-17_16h27.34.455_micResp_recorded\recording_micResp_2023-07-17_16h30.33.944.wav,None,186.41491940058768,186.41491940058768,186.41491940058768,186.41491940058768,186.41491940058768,186.41491940058768,"[0.7315365988761187, 0.922970999032259, 1.1315721990540624, 1.3229380995035172, 1.5149483988061547, 1.5950096994638443, 1.7869089990854263]",,,,,,010100,001,2023-07-17_16h27.34.455,REPSWITCH1_v2022.2.4,2022.2.4,144.06917648733958,
REPSWITCH1/PICTURE_264.png,mano,type,darkblue,nontarget,1,NT,2,Stim3_Set2,31,30,0,30,30,30,,191.00621170084924,,,,,,,,,,,,,,,,,,,,,,,186.91543749999255,187.9722768003121,187.9722768003121,187.9722768003121,187.9722768003121,187.9722768003121,187.9722768003121,187.9722768003121,0.004294899292290211,"['m', 'a', 'n', 'o']",0,mano,C:\Users\Experimental User\Desktop\experiment\data/010100_REPSWITCH1_v2022.2.4_2023-07-17_16h27.34.455_micResp_recorded\recording_micResp_2023-07-17_16h30.38.531.wav,None,191.00621170084924,191.00621170084924,191.00621170084924,191.00621170084924,191.00621170084924,191.00621170084924,"[0.8672851994633675, 0.9633006993681192, 1.0599804995581508, 1.2195034995675087]",,,,,,010100,001,2023-07-17_16h27.34.455,REPSWITCH1_v2022.2.4,2022.2.4,144.06917648733958,
REPSWITCH1/PICTURE_264.png,mano,speak,gold,switch,2,T,2,Stim3_Set2,32,31,0,31,31,31,,195.77142010070384,,,,,,,,,,,,,,,,,,,,,,,191.50626600068063,192.74252060055733,192.74252060055733,192.74252060055733,192.74252060055733,192.74252060055733,192.74252060055733,192.74252060055733,0.0013943994417786598,None,0,,C:\Users\Experimental User\Desktop\experiment\data/010100_REPSWITCH1_v2022.2.4_2023-07-17_16h27.34.455_micResp_recorded\recording_micResp_2023-07-17_16h30.43.295.wav,None,195.77142010070384,195.77142010070384,195.77142010070384,195.77142010070384,195.77142010070384,195.77142010070384,,,,,,,010100,001,2023-07-17_16h27.34.455,REPSWITCH1_v2022.2.4,2022.2.4,144.06917648733958,
REPSWITCH1/PICTURE_517.png,cuerda,speak,gold,nontarget,2,NT,2,Stim4_Set2,33,32,0,32,32,32,,200.36221960000694,,,,,,,,,,,,,,,,,,,,,,,196.2713531004265,197.34119520056993,197.34119520056993,197.34119520056993,197.34119520056993,197.34119520056993,197.34119520056993,197.34119520056993,0.0038128001615405083,None,0,,C:\Users\Experimental User\Desktop\experiment\data/010100_REPSWITCH1_v2022.2.4_2023-07-17_16h27.34.455_micResp_recorded\recording_micResp_2023-07-17_16h30.47.888.wav,None,,,,,,,,,,,,,010100,001,2023-07-17_16h27.34.455,REPSWITCH1_v2022.2.4,2022.2.4,144.06917648733958,
REPSWITCH1/PICTURE_517.png,cuerda,type,darkblue,switch,1,T,2,Stim4_Set2,34,33,0,33,33,33,,205.0772704007104,,,,,,,,,,,,,,,,,,,,,,,200.86215050052851,202.05713550001383,202.05713550001383,202.05713550001383,202.05713550001383,202.05713550001383,202.05713550001383,202.05713550001383,0.0014566006138920784,"['c', 'u', 'e', 'r', 'd', 'a']",0,cuerda,C:\Users\Experimental User\Desktop\experiment\data/010100_REPSWITCH1_v2022.2.4_2023-07-17_16h27.34.455_micResp_recorded\recording_micResp_2023-07-17_16h30.52.603.wav,None,,,,,,,"[1.005949699319899, 1.133937600068748, 1.2779105994850397, 1.4379755994305015, 1.5983133995905519, 1.790515199303627]",,,,,,010100,001,2023-07-17_16h27.34.455,REPSWITCH1_v2022.2.4,2022.2.4,144.06917648733958,
REPSWITCH1/PICTURE_135.png,traje,speak,gold,filler,2,F,2,Stim3_Set1,35,34,0,34,34,34,,209.70367450080812,,,,,,,,,,,,,,,,,,,,,,,205.5773151004687,206.67468630056828,206.67468630056828,206.67468630056828,206.67468630056828,206.67468630056828,206.67468630056828,206.67468630056828,0.0013035004958510399,None,0,,C:\Users\Experimental User\Desktop\experiment\data/010100_REPSWITCH1_v2022.2.4_2023-07-17_16h27.34.455_micResp_recorded\recording_micResp_2023-07-17_16h30.57.227.wav,None,209.70367450080812,209.70367450080812,209.70367450080812,209.70367450080812,209.70367450080812,209.70367450080812,,,,,,,010100,001,2023-07-17_16h27.34.455,REPSWITCH1_v2022.2.4,2022.2.4,144.06917648733958,
REPSWITCH1/PICTURE_30.png,granja,type,darkblue,nontarget,1,NT,2,Stim5_Set2,36,35,0,35,35,35,,214.33527850080281,,,,,,,,,,,,,,,,,,,,,,214.83529540058225,210.20350890047848,211.3006621003151,211.3006621003151,211.3006621003151,211.3006621003151,211.3006621003151,211.3006621003151,211.3006621003151,0.004341199994087219,"['g', 'r', 'a', 'n', 'j', 'a']",0,granja,C:\Users\Experimental User\Desktop\experiment\data/010100_REPSWITCH1_v2022.2.4_2023-07-17_16h27.34.455_micResp_recorded\recording_micResp_2023-07-17_16h31.01.860.wav,None,214.33527850080281,214.33527850080281,214.33527850080281,214.33527850080281,214.33527850080281,214.33527850080281,"[1.1866432996466756, 1.3630756996572018, 1.538711099885404, 1.683042399585247, 1.938994700089097, 2.018984599970281]",,,,,,010100,001,2023-07-17_16h27.34.455,REPSWITCH1_v2022.2.4,2022.2.4,144.06917648733958,
REPSWITCH1/PICTURE_30.png,granja,speak,gold,switch,2,T,2,Stim5_Set2,37,36,0,36,36,36,,219.05803030077368,,,,,,,,,,,,,,,,,,,,,,219.55809610057622,214.83529540058225,216.0309791006148,216.0309791006148,216.0309791006148,216.0309791006148,216.0309791006148,216.0309791006148,216.0309791006148,0.0019356999546289444,None,0,,C:\Users\Experimental User\Desktop\experiment\data/010100_REPSWITCH1_v2022.2.4_2023-07-17_16h27.34.455_micResp_recorded\recording_micResp_2023-07-17_16h31.06.587.wav,None,219.05803030077368,219.05803030077368,219.05803030077368,219.05803030077368,219.05803030077368,219.05803030077368,,,,,,,010100,001,2023-07-17_16h27.34.455,REPSWITCH1_v2022.2.4,2022.2.4,144.06917648733958,
REPSWITCH1/PICTURE_128.png,muñeca,type,darkblue,filler,1,F,2,Stim4_Set1,38,37,0,37,37,37,,223.64962100051343,,,,,,,,,,,,,,,,,,,,,,,219.55809610057622,220.6287278002128,220.6287278002128,220.6287278002128,220.6287278002128,220.6287278002128,220.6287278002128,220.6287278002128,0.0013722004368901253,"['m', 'u', 'ñ', 'e', 'c', 'a']",0,muñeca,C:\Users\Experimental User\Desktop\experiment\data/010100_REPSWITCH1_v2022.2.4_2023-07-17_16h27.34.455_micResp_recorded\recording_micResp_2023-07-17_16h31.11.173.wav,None,,,,,,,"[1.0744558991864324, 1.299023998901248, 2.0187016995623708, 2.242454999126494, 2.4348586993291974, 2.642226099036634]",,,,,,010100,001,2023-07-17_16h27.34.455,REPSWITCH1_v2022.2.4,2022.2.4,144.06917648733958,
REPSWITCH1/PICTURE_19.png,pavo,type,darkblue,filler,1,F,2,Stim5_Set1,39,38,0,38,38,38,,228.26738390047103,,,,,,,,,,,,,,,,,,,,,,228.7674715006724,224.14955670014024,225.24023670051247,225.24023670051247,225.24023670051247,225.24023670051247,225.24023670051247,225.24023670051247,225.24023670051247,0.0017509004101157188,"['p', 'a', 'v', 'o']",0,pavo,C:\Users\Experimental User\Desktop\experiment\data/010100_REPSWITCH1_v2022.2.4_2023-07-17_16h27.34.455_micResp_recorded\recording_micResp_2023-07-17_16h31.15.796.wav,None,228.26738390047103,228.26738390047103,228.26738390047103,228.26738390047103,228.26738390047103,228.26738390047103,"[1.0554990991950035, 1.1675284998491406, 1.3912592995911837, 1.4713263995945454]",,,,,,010100,001,2023-07-17_16h27.34.455,REPSWITCH1_v2022.2.4,2022.2.4,144.06917648733958,
REPSWITCH1/PICTURE_552.png,manzana,speak,gold,nontarget,2,NT,2,Stim6_Set2,40,39,0,39,39,39,,232.89992440026253,,,,,,,,,,,,,,,,,,,,,,,228.7674715006724,229.86598750017583,229.86598750017583,229.86598750017583,229.86598750017583,229.86598750017583,229.86598750017583,229.86598750017583,0.0038729002699255943,None,0,,C:\Users\Experimental User\Desktop\experiment\data/010100_REPSWITCH1_v2022.2.4_2023-07-17_16h27.34.455_micResp_recorded\recording_micResp_2023-07-17_16h31.20.425.wav,None,232.89992440026253,232.89992440026253,232.89992440026253,232.89992440026253,232.89992440026253,232.89992440026253,,,,,,,010100,001,2023-07-17_16h27.34.455,REPSWITCH1_v2022.2.4,2022.2.4,144.06917648733958,
REPSWITCH1/PICTURE_552.png,manzana,speak,gold,repeat,2,T,2,Stim6_Set2,41,40,0,40,40,40,,237.53240100014955,,,,,,,,,,,,,,,,,,,,,,238.03240670077503,233.3999689007178,234.50515030045062,234.50515030045062,234.50515030045062,234.50515030045062,234.50515030045062,234.50515030045062,234.50515030045062,0.0015040002763271332,None,0,,C:\Users\Experimental User\Desktop\experiment\data/010100_REPSWITCH1_v2022.2.4_2023-07-17_16h27.34.455_micResp_recorded\recording_micResp_2023-07-17_16h31.25.060.wav,None,237.53240100014955,237.53240100014955,237.53240100014955,237.53240100014955,237.53240100014955,237.53240100014955,,,,,,,010100,001,2023-07-17_16h27.34.455,REPSWITCH1_v2022.2.4,2022.2.4,144.06917648733958,
REPSWITCH1/PICTURE_16.png,cazador,type,darkblue,filler,1,F,2,Stim6_Set1,42,41,0,41,41,41,,242.16560550034046,,,,,,,,,,,,,,,,,,,,,,242.6655743001029,238.03240670077503,239.13767960015684,239.13767960015684,239.13767960015684,239.13767960015684,239.13767960015684,239.13767960015684,239.13767960015684,0.0015126001089811325,"['c', 'a', 'z', 'a', 'd', 'o', 'r']",0,cazador,C:\Users\Experimental User\Desktop\experiment\data/010100_REPSWITCH1_v2022.2.4_2023-07-17_16h27.34.455_micResp_recorded\recording_micResp_2023-07-17_16h31.29.693.wav,None,242.16560550034046,242.16560550034046,242.16560550034046,242.16560550034046,242.16560550034046,242.16560550034046,"[1.02954759914428, 1.2380499988794327, 1.414049499668181, 1.5734808994457126, 1.749805899336934, 1.862093299627304, 1.9580996995791793]",,,,,,010100,001,2023-07-17_16h27.34.455,REPSWITCH1_v2022.2.4,2022.2.4,144.06917648733958,
REPSWITCH1/PICTURE_446.png,cerdo,speak,gold,nontarget,2,NT,2,Stim7_Set2,43,42,0,42,42,42,,246.88760670088232,,,,,,,,,,,,,,,,,,,,,,,242.6655743001029,243.8535749008879,243.8535749008879,243.8535749008879,243.8535749008879,243.8535749008879,243.8535749008879,243.8535749008879,0.004534699954092503,None,0,,C:\Users\Experimental User\Desktop\experiment\data/010100_REPSWITCH1_v2022.2.4_2023-07-17_16h27.34.455_micResp_recorded\recording_micResp_2023-07-17_16h31.34.412.wav,None,246.88760670088232,246.88760670088232,246.88760670088232,246.88760670088232,246.88760670088232,246.88760670088232,,,,,,,010100,001,2023-07-17_16h27.34.455,REPSWITCH1_v2022.2.4,2022.2.4,144.06917648733958,
REPSWITCH1/PICTURE_446.png,cerdo,speak,gold,repeat,2,T,2,Stim7_Set2,44,43,0,43,43,43,,251.53473300021142,,,,,,,,,,,,,,,,,,,,,,,247.3878260999918,248.5137625001371,248.5137625001371,248.5137625001371,248.5137625001371,248.5137625001371,248.5137625001371,248.5137625001371,0.0014164000749588013,None,0,,C:\Users\Experimental User\Desktop\experiment\data/010100_REPSWITCH1_v2022.2.4_2023-07-17_16h27.34.455_micResp_recorded\recording_micResp_2023-07-17_16h31.39.059.wav,None,,,,,,,,,,,,,010100,001,2023-07-17_16h27.34.455,REPSWITCH1_v2022.2.4,2022.2.4,144.06917648733958,
REPSWITCH1/PICTURE_142.png,vaso,speak,gold,filler,2,F,2,Stim7_Set1,45,44,0,44,44,44,,256.1317712003365,,,,,,,,,,,,,,,,,,,,,,256.6318032005802,252.03470840025693,253.10455270018429,253.10455270018429,253.10455270018429,253.10455270018429,253.10455270018429,253.10455270018429,253.10455270018429,0.0012576999142765999,None,0,,C:\Users\Experimental User\Desktop\experiment\data/010100_REPSWITCH1_v2022.2.4_2023-07-17_16h27.34.455_micResp_recorded\recording_micResp_2023-07-17_16h31.43.659.wav,None,256.1317712003365,256.1317712003365,256.1317712003365,256.1317712003365,256.1317712003365,256.1317712003365,,,,,,,010100,001,2023-07-17_16h27.34.455,REPSWITCH1_v2022.2.4,2022.2.4,144.06917648733958,
REPSWITCH1/PICTURE_169.png,espalda,type,darkblue,filler,1,F,2,Stim8_Set1,46,45,0,45,45,45,,260.81361840013415,,,,,,,,,,,,,,,,,,,,,,,256.6318032005802,257.7847154000774,257.7847154000774,257.7847154000774,257.7847154000774,257.7847154000774,257.7847154000774,257.7847154000774,0.0012699998915195465,"['e', 's', 'p', 'a', 'l', 'a', 'backspace', 'd']",0,espald,C:\Users\Experimental User\Desktop\experiment\data/010100_REPSWITCH1_v2022.2.4_2023-07-17_16h27.34.455_micResp_recorded\recording_micResp_2023-07-17_16h31.48.337.wav,None,260.81361840013415,260.81361840013415,260.81361840013415,260.81361840013415,260.81361840013415,260.81361840013415,"[1.3746565990149975, 1.534554598852992, 1.6783065991476178, 1.8549901992082596, 1.966987798921764, 2.0469865994527936, 2.8782914988696575, 2.9422968989238143]",,,,,,010100,001,2023-07-17_16h27.34.455,REPSWITCH1_v2022.2.4,2022.2.4,144.06917648733958,
REPSWITCH1/PICTURE_199.png,falda,speak,gold,nontarget,2,NT,2,Stim8_Set2,47,46,0,46,46,46,,265.4244437003508,,,,,,,,,,,,,,,,,,,,,,,261.31355190090835,262.3904149001464,262.3904149001464,262.3904149001464,262.3904149001464,262.3904149001464,262.3904149001464,262.3904149001464,0.004393500275909901,None,0,,C:\Users\Experimental User\Desktop\experiment\data/010100_REPSWITCH1_v2022.2.4_2023-07-17_16h27.34.455_micResp_recorded\recording_micResp_2023-07-17_16h31.52.949.wav,None,265.4244437003508,265.4244437003508,265.4244437003508,265.4244437003508,265.4244437003508,265.4244437003508,,,,,,,010100,001,2023-07-17_16h27.34.455,REPSWITCH1_v2022.2.4,2022.2.4,144.06917648733958,
REPSWITCH1/PICTURE_199.png,falda,type,darkblue,switch,1,T,2,Stim8_Set2,48,47,0,47,47,47,,270.0361295007169,,,,,,,,,,,,,,,,,,,,,,270.53621990047395,265.92451990023255,267.0090666003525,267.0090666003525,267.0090666003525,267.0090666003525,267.0090666003525,267.0090666003525,267.0090666003525,0.0013971999287605286,"['f', 'a', 'l', 'd', 'a']",0,falda,C:\Users\Experimental User\Desktop\experiment\data/010100_REPSWITCH1_v2022.2.4_2023-07-17_16h27.34.455_micResp_recorded\recording_micResp_2023-07-17_16h31.57.564.wav,None,270.0361295007169,270.0361295007169,270.0361295007169,270.0361295007169,270.0361295007169,270.0361295007169,"[0.98223099950701, 1.1582228988409042, 1.254225199110806, 1.3819177988916636, 1.5419177990406752]",,,,,,010100,001,2023-07-17_16h27.34.455,REPSWITCH1_v2022.2.4,2022.2.4,144.06917648733958,
REPSWITCH1/PICTURE_576.png,guante,type,darkblue,nontarget,1,NT,3,Stim1_Set3,49,48,0,48,48,48,,274.68326790072024,,,,,,,,,,,,,,,,,,,,,,,270.53621990047395,271.66134160012007,271.66134160012007,271.66134160012007,271.66134160012007,271.66134160012007,271.66134160012007,271.66134160012007,0.003718600608408451,"['g', 'u', 'a', 'n', 't', 'e']",0,guante,C:\Users\Experimental User\Desktop\experiment\data/010100_REPSWITCH1_v2022.2.4_2023-07-17_16h27.34.455_micResp_recorded\recording_micResp_2023-07-17_16h32.02.209.wav,None,,,,,,,"[1.241694999858737, 1.3385840002447367, 1.4665455995127559, 1.6098531996831298, 1.770304299890995, 1.945911199785769]",,,,,,010100,001,2023-07-17_16h27.34.455,REPSWITCH1_v2022.2.4,2022.2.4,144.06917648733958,
REPSWITCH1/PICTURE_576.png,guante,speak,gold,switch,2,T,3,Stim1_Set3,50,49,0,49,49,49,,279.25939100049436,,,,,,,,,,,,,,,,,,,,,,279.7594351004809,275.1832009004429,276.23218930047005,276.23218930047005,276.23218930047005,276.23218930047005,276.23218930047005,276.23218930047005,276.23218930047005,0.001326199620962143,None,0,,C:\Users\Experimental User\Desktop\experiment\data/010100_REPSWITCH1_v2022.2.4_2023-07-17_16h27.34.455_micResp_recorded\recording_micResp_2023-07-17_16h32.06.786.wav,None,279.25939100049436,279.25939100049436,279.25939100049436,279.25939100049436,279.25939100049436,279.25939100049436,,,,,,,010100,001,2023-07-17_16h27.34.455,REPSWITCH1_v2022.2.4,2022.2.4,144.06917648733958,
REPSWITCH1/PICTURE_610.png,miel,speak,gold,nontarget,2,NT,3,Stim2_Set3,51,50,0,50,50,50,,283.8301479006186,,,,,,,,,,,,,,,,,,,,,,,279.7594351004809,280.80918680038303,280.80918680038303,280.80918680038303,280.80918680038303,280.80918680038303,280.80918680038303,280.80918680038303,0.003756199963390827,None,0,,C:\Users\Experimental User\Desktop\experiment\data/010100_REPSWITCH1_v2022.2.4_2023-07-17_16h27.34.455_micResp_recorded\recording_micResp_2023-07-17_16h32.11.356.wav,None,,,,,,,,,,,,,010100,001,2023-07-17_16h27.34.455,REPSWITCH1_v2022.2.4,2022.2.4,144.06917648733958,
REPSWITCH1/PICTURE_610.png,miel,type,darkblue,switch,1,T,3,Stim2_Set3,52,51,0,51,51,51,,288.4279789002612,,,,,,,,,,,,,,,,,,,,,,288.9278364004567,284.3300822004676,285.39992820005864,285.39992820005864,285.39992820005864,285.39992820005864,285.39992820005864,285.39992820005864,285.39992820005864,0.00139590073376894,"['m', 'i', 'e', 'l']",0,miel,C:\Users\Experimental User\Desktop\experiment\data/010100_REPSWITCH1_v2022.2.4_2023-07-17_16h27.34.455_micResp_recorded\recording_micResp_2023-07-17_16h32.15.956.wav,None,288.4279789002612,288.4279789002612,288.4279789002612,288.4279789002612,288.4279789002612,288.4279789002612,"[0.9274427993223071, 1.0554080000147223, 1.183509700000286, 1.3117641992866993]",,,,,,010100,001,2023-07-17_16h27.34.455,REPSWITCH1_v2022.2.4,2022.2.4,144.06917648733958,
REPSWITCH1/PICTURE_175.png,pintor,type,darkblue,filler,1,F,3,Stim1_Set2,53,52,0,52,52,52,,293.0464910008013,,,,,,,,,,,,,,,,,,,,,,,288.9278364004567,290.02545810025185,290.02545810025185,290.02545810025185,290.02545810025185,290.02545810025185,290.02545810025185,290.02545810025185,0.0014214999973773956,"['p', 'i', 'n', 't', 'o', 'r']",0,pintor,C:\Users\Experimental User\Desktop\experiment\data/010100_REPSWITCH1_v2022.2.4_2023-07-17_16h27.34.455_micResp_recorded\recording_micResp_2023-07-17_16h32.20.571.wav,None,,,,,,,"[0.9896766990423203, 1.2142062997445464, 1.3102628998458385, 1.4222622998058796, 1.5182281993329525, 1.5982303991913795]",,,,,,010100,001,2023-07-17_16h27.34.455,REPSWITCH1_v2022.2.4,2022.2.4,144.06917648733958,
REPSWITCH1/PICTURE_242.png,cartero,type,darkblue,nontarget,1,NT,3,Stim3_Set3,54,53,0,53,53,53,,297.762273600325,,,,,,,,,,,,,,,,,,,,,,298.2621989008039,293.54642390087247,294.7412279006094,294.7412279006094,294.7412279006094,294.7412279006094,294.7412279006094,294.7412279006094,294.7412279006094,0.0037925997748970985,"['c', 'a', 'r', 'e', 't', 'e', 'r']",0,caeter,C:\Users\Experimental User\Desktop\experiment\data/010100_REPSWITCH1_v2022.2.4_2023-07-17_16h27.34.455_micResp_recorded\recording_micResp_2023-07-17_16h32.25.290.wav,None,,,,,,,"[1.2505232999101281, 1.4420103002339602, 1.7783485995605588, 1.7793447999283671, 2.4182077003642917, 2.6099309995770454, 2.785791900008917]",,,,,,010100,001,2023-07-17_16h27.34.455,REPSWITCH1_v2022.2.4,2022.2.4,144.06917648733958,
REPSWITCH1/PICTURE_242.png,cartero,speak,gold,switch,2,T,3,Stim3_Set3,55,54,0,54,54,54,,302.42195670027286,,,,,,,,,,,,,,,,,,,,,,302.92184890061617,298.2621989008039,299.38640800025314,299.38640800025314,299.38640800025314,299.38640800025314,299.38640800025314,299.38640800025314,299.38640800025314,0.0013676006346940994,None,0,,C:\Users\Experimental User\Desktop\experiment\data/010100_REPSWITCH1_v2022.2.4_2023-07-17_16h27.34.455_micResp_recorded\recording_micResp_2023-07-17_16h32.29.950.wav,None,302.3870789008215,302.3870789008215,302.3870789008215,302.3870789008215,302.3870789008215,302.3870789008215,,,,,,,010100,001,2023-07-17_16h27.34.455,REPSWITCH1_v2022.2.4,2022.2.4,144.06917648733958,
REPSWITCH1/PICTURE_152.png,caracol,type,darkblue,filler,1,F,3,Stim2_Set2,56,55,0,55,55,55,,307.1105608008802,,,,,,,,,,,,,,,,,,,,,,,302.92184890061617,304.0895925005898,304.0895925005898,304.0895925005898,304.0895925005898,304.0895925005898,304.0895925005898,304.0895925005898,0.0014788992702960968,"['c', 'a', 'r', 'a', 'c', 'o', 'l']",0,caracol,C:\Users\Experimental User\Desktop\experiment\data/010100_REPSWITCH1_v2022.2.4_2023-07-17_16h27.34.455_micResp_recorded\recording_micResp_2023-07-17_16h32.34.635.wav,None,,,,,,,"[1.0219468995928764, 1.2299363994970918, 1.4694523001089692, 1.6775059001520276, 1.869450599886477, 1.9654188994318247, 2.1574502997100353]",,,,,,010100,001,2023-07-17_16h27.34.455,REPSWITCH1_v2022.2.4,2022.2.4,144.06917648733958,
REPSWITCH1/PICTURE_235.png,aguja,speak,gold,nontarget,2,NT,3,Stim4_Set3,57,56,0,56,56,56,,311.75707310065627,,,,,,,,,,,,,,,,,,,,,,312.2569027002901,307.6105434000492,308.7360105002299,308.7360105002299,308.7360105002299,308.7360105002299,308.7360105002299,308.7360105002299,308.7360105002299,0.004355600103735924,None,0,,C:\Users\Experimental User\Desktop\experiment\data/010100_REPSWITCH1_v2022.2.4_2023-07-17_16h27.34.455_micResp_recorded\recording_micResp_2023-07-17_16h32.39.285.wav,None,,,,,,,,,,,,,010100,001,2023-07-17_16h27.34.455,REPSWITCH1_v2022.2.4,2022.2.4,144.06917648733958,
REPSWITCH1/PICTURE_235.png,aguja,speak,gold,repeat,2,T,3,Stim4_Set3,58,57,0,57,57,57,,316.38250470068306,,,,,,,,,,,,,,,,,,,,,,,312.2569027002901,313.3545273002237,313.3545273002237,313.3545273002237,313.3545273002237,313.3545273002237,313.3545273002237,313.3545273002237,0.0013391999527812004,None,0,,C:\Users\Experimental User\Desktop\experiment\data/010100_REPSWITCH1_v2022.2.4_2023-07-17_16h27.34.455_micResp_recorded\recording_micResp_2023-07-17_16h32.43.909.wav,None,316.38250470068306,316.38250470068306,316.38250470068306,316.38250470068306,316.38250470068306,316.38250470068306,,,,,,,010100,001,2023-07-17_16h27.34.455,REPSWITCH1_v2022.2.4,2022.2.4,144.06917648733958,
REPSWITCH1/PICTURE_264.png,mano,speak,gold,filler,2,F,3,Stim3_Set2,59,58,0,58,58,58,,321.0218821000308,,,,,,,,,,,,,,,,,,,,,,,316.8824480008334,318.0009100008756,318.0009100008756,318.0009100008756,318.0009100008756,318.0009100008756,318.0009100008756,318.0009100008756,0.0014100000262260437,None,0,,C:\Users\Experimental User\Desktop\experiment\data/010100_REPSWITCH1_v2022.2.4_2023-07-17_16h27.34.455_micResp_recorded\recording_micResp_2023-07-17_16h32.48.546.wav,None,,,,,,,,,,,,,010100,001,2023-07-17_16h27.34.455,REPSWITCH1_v2022.2.4,2022.2.4,144.06917648733958,
REPSWITCH1/PICTURE_517.png,cuerda,type,darkblue,filler,1,F,3,Stim4_Set2,60,59,0,59,59,59,,325.58432840090245,,,,,,,,,,,,,,,,,,,,,,326.0842133006081,321.52185690030456,322.55698680039495,322.55698680039495,322.55698680039495,322.55698680039495,322.55698680039495,322.55698680039495,322.55698680039495,0.001435999758541584,"['c', 'u', 'i', 'e', 'r', 'd', 'a', 'backspace', 'backspace', 'backspace', 'backspace', 'backspace']",0,cu,C:\Users\Experimental User\Desktop\experiment\data/010100_REPSWITCH1_v2022.2.4_2023-07-17_16h27.34.455_micResp_recorded\recording_micResp_2023-07-17_16h32.53.112.wav,None,325.58432840090245,325.58432840090245,325.58432840090245,325.58432840090245,325.58432840090245,325.58432840090245,"[1.0179219990968704, 1.145906899124384, 1.1619119998067617, 1.2739110998809338, 1.4034934993833303, 1.6105319997295737, 1.78656189981848, 2.138316499069333, 2.2983576990664005, 2.5540164997801185, 2.6983366990461946, 2.8584408992901444]",,,,,,010100,001,2023-07-17_16h27.34.455,REPSWITCH1_v2022.2.4,2022.2.4,144.06917648733958,
REPSWITCH1/PICTURE_30.png,granja,type,darkblue,filler,1,F,3,Stim5_Set2,61,60,0,60,60,60,,330.20968070067465,,,,,,,,,,,,,,,,,,,,,,330.7097511002794,326.0842133006081,327.18252460006624,327.18252460006624,327.18252460006624,327.18252460006624,327.18252460006624,327.18252460006624,327.18252460006624,0.001977999694645405,"['g', 'r', 'a', 'n', 'j', 'a']",0,granja,C:\Users\Experimental User\Desktop\experiment\data/010100_REPSWITCH1_v2022.2.4_2023-07-17_16h27.34.455_micResp_recorded\recording_micResp_2023-07-17_16h32.57.738.wav,None,330.20968070067465,330.20968070067465,330.20968070067465,330.20968070067465,330.20968070067465,330.20968070067465,"[1.0810755994170904, 1.273077399469912, 1.4658541996032, 1.7208128990605474, 1.8488137992098927, 1.9288122989237309]",,,,,,010100,001,2023-07-17_16h27.34.455,REPSWITCH1_v2022.2.4,2022.2.4,144.06917648733958,
REPSWITCH1/PICTURE_35.png,oreja,speak,gold,nontarget,2,NT,3,Stim5_Set3,62,61,0,61,61,61,,334.88458610046655,,,,,,,,,,,,,,,,,,,,,,335.3845282001421,330.7097511002794,331.86358020082116,331.86358020082116,331.86358020082116,331.86358020082116,331.86358020082116,331.86358020082116,331.86358020082116,0.004294699989259243,None,0,,C:\Users\Experimental User\Desktop\experiment\data/010100_REPSWITCH1_v2022.2.4_2023-07-17_16h27.34.455_micResp_recorded\recording_micResp_2023-07-17_16h33.02.412.wav,None,,,,,,,,,,,,,010100,001,2023-07-17_16h27.34.455,REPSWITCH1_v2022.2.4,2022.2.4,144.06917648733958,
REPSWITCH1/PICTURE_35.png,oreja,speak,gold,repeat,2,T,3,Stim5_Set3,63,62,0,62,62,62,,339.44072020053864,,,,,,,,,,,,,,,,,,,,,,,335.3845282001421,336.4196777008474,336.4196777008474,336.4196777008474,336.4196777008474,336.4196777008474,336.4196777008474,336.4196777008474,0.0013234000653028488,None,0,,C:\Users\Experimental User\Desktop\experiment\data/010100_REPSWITCH1_v2022.2.4_2023-07-17_16h27.34.455_micResp_recorded\recording_micResp_2023-07-17_16h33.06.965.wav,None,,,,,,,,,,,,,010100,001,2023-07-17_16h27.34.455,REPSWITCH1_v2022.2.4,2022.2.4,144.06917648733958,
REPSWITCH1/PICTURE_464.png,goma,speak,gold,nontarget,2,NT,3,Stim6_Set3,64,63,0,63,63,63,,344.08708340022713,,,,,,,,,,,,,,,,,,,,,,,339.94064340088516,341.066053500399,341.066053500399,341.066053500399,341.066053500399,341.066053500399,341.066053500399,341.066053500399,0.003628700040280819,None,0,,C:\Users\Experimental User\Desktop\experiment\data/010100_REPSWITCH1_v2022.2.4_2023-07-17_16h27.34.455_micResp_recorded\recording_micResp_2023-07-17_16h33.11.613.wav,None,,,,,,,,,,,,,010100,001,2023-07-17_16h27.34.455,REPSWITCH1_v2022.2.4,2022.2.4,144.06917648733958,
REPSWITCH1/PICTURE_464.png,goma,type,darkblue,switch,1,T,3,Stim6_Set3,65,64,0,64,64,64,,348.7048796005547,,,,,,,,,,,,,,,,,,,,,,349.2049452001229,344.5870064999908,345.6778125008568,345.6778125008568,345.6778125008568,345.6778125008568,345.6778125008568,345.6778125008568,345.6778125008568,0.0011867005378007889,"['g', 'o', 'm', 'a']",0,goma,C:\Users\Experimental User\Desktop\experiment\data/010100_REPSWITCH1_v2022.2.4_2023-07-17_16h27.34.455_micResp_recorded\recording_micResp_2023-07-17_16h33.16.233.wav,None,348.7048796005547,348.7048796005547,348.7048796005547,348.7048796005547,348.7048796005547,348.7048796005547,"[1.0329558989033103, 1.1612314991652966, 1.2570971995592117, 1.4010933991521597]",,,,,,010100,001,2023-07-17_16h27.34.455,REPSWITCH1_v2022.2.4,2022.2.4,144.06917648733958,
REPSWITCH1/PICTURE_552.png,manzana,speak,gold,filler,2,F,3,Stim6_Set2,66,65,0,65,65,65,,353.30958840064704,,,,,,,,,,,,,,,,,,,,,,353.8095958000049,349.2049452001229,350.28239340055734,350.28239340055734,350.28239340055734,350.28239340055734,350.28239340055734,350.28239340055734,350.28239340055734,0.0015120003372430801,None,0,,C:\Users\Experimental User\Desktop\experiment\data/010100_REPSWITCH1_v2022.2.4_2023-07-17_16h27.34.455_micResp_recorded\recording_micResp_2023-07-17_16h33.20.838.wav,None,353.30958840064704,353.30958840064704,353.30958840064704,353.30958840064704,353.30958840064704,353.30958840064704,,,,,,,010100,001,2023-07-17_16h27.34.455,REPSWITCH1_v2022.2.4,2022.2.4,144.06917648733958,
REPSWITCH1/PICTURE_271.png,conejo,type,darkblue,nontarget,1,NT,3,Stim7_Set3,67,66,0,66,66,66,,358.0116715002805,,,,,,,,,,,,,,,,,,,,,,,353.8095958000049,354.97734160069376,354.97734160069376,354.97734160069376,354.97734160069376,354.97734160069376,354.97734160069376,354.97734160069376,0.00413880031555891,"['c', 'o', 'n', 'e', 'j', 'o']",0,conejo,C:\Users\Experimental User\Desktop\experiment\data/010100_REPSWITCH1_v2022.2.4_2023-07-17_16h27.34.455_micResp_recorded\recording_micResp_2023-07-17_16h33.25.535.wav,None,358.0116715002805,358.0116715002805,358.0116715002805,358.0116715002805,358.0116715002805,358.0116715002805,"[1.061337299644947, 1.205427199602127, 1.413906299509108, 1.5259061995893717, 1.6539046997204423, 1.9423261992633343]",,,,,,010100,001,2023-07-17_16h27.34.455,REPSWITCH1_v2022.2.4,2022.2.4,144.06917648733958,
REPSWITCH1/PICTURE_271.png,conejo,type,darkblue,repeat,1,T,3,Stim7_Set3,68,67,0,67,67,67,,362.63717520050704,,,,,,,,,,,,,,,,,,,,,,363.1371020004153,358.51155750080943,359.60989410057664,359.60989410057664,359.60989410057664,359.60989410057664,359.60989410057664,359.60989410057664,359.60989410057664,0.0016013998538255692,"['c', 'o', 'n', 'e', 'k', 'o']",0,coneko,C:\Users\Experimental User\Desktop\experiment\data/010100_REPSWITCH1_v2022.2.4_2023-07-17_16h27.34.455_micResp_recorded\recording_micResp_2023-07-17_16h33.30.166.wav,None,362.63717520050704,362.63717520050704,362.63717520050704,362.63717520050704,362.63717520050704,362.63717520050704,"[1.1971652992069721, 1.2458606995642185, 1.4378418996930122, 1.5167954992502928, 1.7410741997882724, 1.8530719997361302]",,,,,,010100,001,2023-07-17_16h27.34.455,REPSWITCH1_v2022.2.4,2022.2.4,144.06917648733958,
REPSWITCH1/PICTURE_446.png,cerdo,speak,gold,filler,2,F,3,Stim7_Set2,69,68,0,68,68,68,,367.2772401003167,,,,,,,,,,,,,,,,,,,,,,,363.1371020004153,364.2562195006758,364.2562195006758,364.2562195006758,364.2562195006758,364.2562195006758,364.2562195006758,364.2562195006758,0.0014294004067778587,None,0,,C:\Users\Experimental User\Desktop\experiment\data/010100_REPSWITCH1_v2022.2.4_2023-07-17_16h27.34.455_micResp_recorded\recording_micResp_2023-07-17_16h33.34.802.wav,None,,,,,,,,,,,,,010100,001,2023-07-17_16h27.34.455,REPSWITCH1_v2022.2.4,2022.2.4,144.06917648733958,
REPSWITCH1/PICTURE_199.png,falda,speak,gold,filler,2,F,3,Stim8_Set2,70,69,0,69,69,69,,371.9436406008899,,,,,,,,,,,,,,,,,,,,,,372.4437286006287,367.77717550005764,368.91647220030427,368.91647220030427,368.91647220030427,368.91647220030427,368.91647220030427,368.91647220030427,368.91647220030427,0.0014118999242782593,None,0,,C:\Users\Experimental User\Desktop\experiment\data/010100_REPSWITCH1_v2022.2.4_2023-07-17_16h27.34.455_micResp_recorded\recording_micResp_2023-07-17_16h33.39.471.wav,None,371.9436406008899,371.9436406008899,371.9436406008899,371.9436406008899,371.9436406008899,371.9436406008899,,,,,,,010100,001,2023-07-17_16h27.34.455,REPSWITCH1_v2022.2.4,2022.2.4,144.06917648733958,
REPSWITCH1/PICTURE_320.png,iglesia,type,darkblue,nontarget,1,NT,3,Stim8_Set3,71,70,0,70,70,70,,376.50076520070434,,,,,,,,,,,,,,,,,,,,,,377.00046400073916,372.4437286006287,373.47972260043025,373.47972260043025,373.47972260043025,373.47972260043025,373.47972260043025,373.47972260043025,373.47972260043025,0.0046814000234007835,"['i', 'g', 'l', 'e', 's', 'i', 'a']",0,iglesia,C:\Users\Experimental User\Desktop\experiment\data/010100_REPSWITCH1_v2022.2.4_2023-07-17_16h27.34.455_micResp_recorded\recording_micResp_2023-07-17_16h33.44.028.wav,None,,,,,,,"[1.152038099244237, 1.4567922996357083, 1.6159499995410442, 1.7909088991582394, 1.9669702993705869, 2.0630242992192507, 2.158945999108255]",,,,,,010100,001,2023-07-17_16h27.34.455,REPSWITCH1_v2022.2.4,2022.2.4,144.06917648733958,
REPSWITCH1/PICTURE_320.png,iglesia,type,darkblue,repeat,1,T,3,Stim8_Set3,72,71,0,71,71,71,,381.06972050014883,,,,,,,,,,,,,,,,,,,,,,381.5697768004611,377.00046400073916,378.0425173006952,378.0425173006952,378.0425173006952,378.0425173006952,378.0425173006952,378.0425173006952,378.0425173006952,0.0015115998685359955,"['i', 'g', 'l', 'e', 's', 'i', 'a']",0,iglesia,C:\Users\Experimental User\Desktop\experiment\data/010100_REPSWITCH1_v2022.2.4_2023-07-17_16h27.34.455_micResp_recorded\recording_micResp_2023-07-17_16h33.48.598.wav,None,381.06972050014883,381.06972050014883,381.06972050014883,381.06972050014883,381.06972050014883,381.06972050014883,"[0.9409774001687765, 1.180702599696815, 1.2766992999240756, 1.6447067996487021, 1.8210869999602437, 1.9326010001823306, 1.996593900024891]",,,,,,010100,001,2023-07-17_16h27.34.455,REPSWITCH1_v2022.2.4,2022.2.4,144.06917648733958,
REPSWITCH1/PICTURE_576.png,guante,speak,gold,filler,2,F,4,Stim1_Set3,73,72,0,72,72,72,,385.66129720024765,,,,,,,,,,,,,,,,,,,,,,,381.5697768004611,382.6403992008418,382.6403992008418,382.6403992008418,382.6403992008418,382.6403992008418,382.6403992008418,382.6403992008418,0.0013186000287532806,None,0,,C:\Users\Experimental User\Desktop\experiment\data/010100_REPSWITCH1_v2022.2.4_2023-07-17_16h27.34.455_micResp_recorded\recording_micResp_2023-07-17_16h33.53.185.wav,None,,,,,,,,,,,,,010100,001,2023-07-17_16h27.34.455,REPSWITCH1_v2022.2.4,2022.2.4,144.06917648733958,
REPSWITCH1/PICTURE_319.png,vaca,type,darkblue,nontarget,1,NT,4,Stim1_Set4,74,73,0,73,73,73,,390.31399790011346,,,,,,,,,,,,,,,,,,,,,,390.8138233004138,386.1612343005836,387.28659100085497,387.28659100085497,387.28659100085497,387.28659100085497,387.28659100085497,387.28659100085497,387.28659100085497,0.0012517999857664108,"['v', 'a', 'c', 'a']",0,vaca,C:\Users\Experimental User\Desktop\experiment\data/010100_REPSWITCH1_v2022.2.4_2023-07-17_16h27.34.455_micResp_recorded\recording_micResp_2023-07-17_16h33.57.842.wav,None,390.31399790011346,390.31399790011346,390.31399790011346,390.31399790011346,390.31399790011346,390.31399790011346,"[0.8488188991323113, 1.1200592992827296, 1.3440748993307352, 1.552181899547577]",,,,,,010100,001,2023-07-17_16h27.34.455,REPSWITCH1_v2022.2.4,2022.2.4,144.06917648733958,
REPSWITCH1/PICTURE_319.png,vaca,type,darkblue,repeat,1,T,4,Stim1_Set4,75,74,0,74,74,74,,395.0443188007921,,,,,,,,,,,,,,,,,,,,,,,390.8138233004138,392.02330140024424,392.02330140024424,392.02330140024424,392.02330140024424,392.02330140024424,392.02330140024424,392.02330140024424,0.0012848004698753357,"['v', 'a', 'c', 'a']",0,vaca,C:\Users\Experimental User\Desktop\experiment\data/010100_REPSWITCH1_v2022.2.4_2023-07-17_16h27.34.455_micResp_recorded\recording_micResp_2023-07-17_16h34.02.569.wav,None,,,,,,,"[0.8794405991211534, 1.103597299195826, 1.3275201991200447, 1.5202298993244767]",,,,,,010100,001,2023-07-17_16h27.34.455,REPSWITCH1_v2022.2.4,2022.2.4,144.06917648733958,
REPSWITCH1/PICTURE_719.png,baño,type,darkblue,nontarget,1,NT,4,Stim2_Set4,76,75,0,75,75,75,,399.7801964003593,,,,,,,,,,,,,,,,,,,,,,400.2802378004417,395.544258100912,396.753017000854,396.753017000854,396.753017000854,396.753017000854,396.753017000854,396.753017000854,396.753017000854,0.0016068005934357643,"['b', 'a', 'ñ', 'o']",0,baño,C:\Users\Experimental User\Desktop\experiment\data/010100_REPSWITCH1_v2022.2.4_2023-07-17_16h27.34.455_micResp_recorded\recording_micResp_2023-07-17_16h34.07.308.wav,None,399.7801964003593,399.7801964003593,399.7801964003593,399.7801964003593,399.7801964003593,399.7801964003593,"[1.062292299233377, 1.1901178993284702, 1.8297070991247892, 2.086159098893404]",,,,,,010100,001,2023-07-17_16h27.34.455,REPSWITCH1_v2022.2.4,2022.2.4,144.06917648733958,
REPSWITCH1/PICTURE_719.png,baño,speak,gold,switch,2,T,4,Stim2_Set4,77,76,0,76,76,76,,404.39965030085295,,,,,,,,,,,,,,,,,,,,,,,400.2802378004417,401.3706717006862,401.3706717006862,401.3706717006862,401.3706717006862,401.3706717006862,401.3706717006862,401.3706717006862,0.0015713004395365715,None,0,,C:\Users\Experimental User\Desktop\experiment\data/010100_REPSWITCH1_v2022.2.4_2023-07-17_16h27.34.455_micResp_recorded\recording_micResp_2023-07-17_16h34.11.923.wav,None,404.39965030085295,404.39965030085295,404.39965030085295,404.39965030085295,404.39965030085295,404.39965030085295,,,,,,,010100,001,2023-07-17_16h27.34.455,REPSWITCH1_v2022.2.4,2022.2.4,144.06917648733958,
REPSWITCH1/PICTURE_610.png,miel,type,darkblue,filler,1,F,4,Stim2_Set3,78,77,0,77,77,77,,408.9903647005558,,,,,,,,,,,,,,,,,,,,,,,404.8995077004656,405.9693489000201,405.9693489000201,405.9693489000201,405.9693489000201,405.9693489000201,405.9693489000201,405.9693489000201,0.0014156000688672066,"['m', 'i', 'e', 'l']",0,miel,C:\Users\Experimental User\Desktop\experiment\data/010100_REPSWITCH1_v2022.2.4_2023-07-17_16h27.34.455_micResp_recorded\recording_micResp_2023-07-17_16h34.16.515.wav,None,,,,,,,"[0.9815279990434647, 1.1414239993318915, 1.2544582998380065, 1.3654226996004581]",,,,,,010100,001,2023-07-17_16h27.34.455,REPSWITCH1_v2022.2.4,2022.2.4,144.06917648733958,
REPSWITCH1/PICTURE_242.png,cartero,type,darkblue,filler,1,F,4,Stim3_Set3,79,78,0,78,78,78,,413.61526130046695,,,,,,,,,,,,,,,,,,,,,,414.11516050063074,409.49030050076544,410.5879107005894,410.5879107005894,410.5879107005894,410.5879107005894,410.5879107005894,410.5879107005894,410.5879107005894,0.00137339998036623,"['c', 'a', 'r', 't', 'e', 'r', 'o']",0,cartero,C:\Users\Experimental User\Desktop\experiment\data/010100_REPSWITCH1_v2022.2.4_2023-07-17_16h27.34.455_micResp_recorded\recording_micResp_2023-07-17_16h34.21.143.wav,None,413.61526130046695,413.61526130046695,413.61526130046695,413.61526130046695,413.61526130046695,413.61526130046695,"[0.8270030999556184, 1.0354010993614793, 1.243427800014615, 1.41906030010432, 1.578928799368441, 1.7239908995106816, 1.8352455999702215]",,,,,,010100,001,2023-07-17_16h27.34.455,REPSWITCH1_v2022.2.4,2022.2.4,144.06917648733958,
REPSWITCH1/PICTURE_8.png,pierna,speak,gold,nontarget,2,NT,4,Stim3_Set4,80,79,0,79,79,79,,418.1511464007199,,,,,,,,,,,,,,,,,,,,,,,414.11516050063074,415.1222383007407,415.1222383007407,415.1222383007407,415.1222383007407,415.1222383007407,415.1222383007407,415.1222383007407,0.0011748000979423523,None,0,,C:\Users\Experimental User\Desktop\experiment\data/010100_REPSWITCH1_v2022.2.4_2023-07-17_16h27.34.455_micResp_recorded\recording_micResp_2023-07-17_16h34.25.674.wav,None,418.1511464007199,418.1511464007199,418.1511464007199,418.1511464007199,418.1511464007199,418.1511464007199,,,,,,,010100,001,2023-07-17_16h27.34.455,REPSWITCH1_v2022.2.4,2022.2.4,144.06917648733958,
REPSWITCH1/PICTURE_8.png,pierna,speak,gold,repeat,2,T,4,Stim3_Set4,81,80,0,80,80,80,,422.8947409000248,,,,,,,,,,,,,,,,,,,,,,,418.65108240023255,419.87384440004826,419.87384440004826,419.87384440004826,419.87384440004826,419.87384440004826,419.87384440004826,419.87384440004826,0.0012005995959043503,None,0,,C:\Users\Experimental User\Desktop\experiment\data/010100_REPSWITCH1_v2022.2.4_2023-07-17_16h27.34.455_micResp_recorded\recording_micResp_2023-07-17_16h34.30.419.wav,None,,,,,,,,,,,,,010100,001,2023-07-17_16h27.34.455,REPSWITCH1_v2022.2.4,2022.2.4,144.06917648733958,
REPSWITCH1/PICTURE_498.png,taza,speak,gold,nontarget,2,NT,4,Stim4_Set4,82,81,0,81,81,81,,427.58274060022086,,,,,,,,,,,,,,,,,,,,,,,423.3946797000244,424.5619997000322,424.5619997000322,424.5619997000322,424.5619997000322,424.5619997000322,424.5619997000322,424.5619997000322,0.0012638997286558151,None,0,,C:\Users\Experimental User\Desktop\experiment\data/010100_REPSWITCH1_v2022.2.4_2023-07-17_16h27.34.455_micResp_recorded\recording_micResp_2023-07-17_16h34.35.107.wav,None,,,,,,,,,,,,,010100,001,2023-07-17_16h27.34.455,REPSWITCH1_v2022.2.4,2022.2.4,144.06917648733958,
REPSWITCH1/PICTURE_498.png,taza,type,darkblue,switch,1,T,4,Stim4_Set4,83,82,0,82,82,82,,432.20753740053624,,,,,,,,,,,,,,,,,,,,,,432.7077319007367,428.0827199006453,429.18046030029655,429.18046030029655,429.18046030029655,429.18046030029655,429.18046030029655,429.18046030029655,429.18046030029655,0.001223200000822544,"['t', 'a', 'z', 'a']",0,taza,C:\Users\Experimental User\Desktop\experiment\data/010100_REPSWITCH1_v2022.2.4_2023-07-17_16h27.34.455_micResp_recorded\recording_micResp_2023-07-17_16h34.39.734.wav,None,432.20753740053624,432.20753740053624,432.20753740053624,432.20753740053624,432.20753740053624,432.20753740053624,"[1.2109754988923669, 1.3549704989418387, 1.4989665988832712, 1.6588461995124817]",,,,,,010100,001,2023-07-17_16h27.34.455,REPSWITCH1_v2022.2.4,2022.2.4,144.06917648733958,
REPSWITCH1/PICTURE_235.png,aguja,speak,gold,filler,2,F,4,Stim4_Set3,84,83,0,83,83,83,,436.7852360000834,,,,,,,,,,,,,,,,,,,,,,,432.7077319007367,433.7642137007788,433.7642137007788,433.7642137007788,433.7642137007788,433.7642137007788,433.7642137007788,433.7642137007788,0.0012630000710487366,None,0,,C:\Users\Experimental User\Desktop\experiment\data/010100_REPSWITCH1_v2022.2.4_2023-07-17_16h27.34.455_micResp_recorded\recording_micResp_2023-07-17_16h34.44.309.wav,None,,,,,,,,,,,,,010100,001,2023-07-17_16h27.34.455,REPSWITCH1_v2022.2.4,2022.2.4,144.06917648733958,
REPSWITCH1/PICTURE_687.png,camisa,type,darkblue,nontarget,1,NT,4,Stim5_Set4,85,84,0,84,84,84,,441.40301970019937,,,,,,,,,,,,,,,,,,,,,,441.9030757006258,437.28516260068864,438.37595630064607,438.37595630064607,438.37595630064607,438.37595630064607,438.37595630064607,438.37595630064607,438.37595630064607,0.001263500191271305,"['c', 'a', 'm', 'i', 's', 'a']",0,camisa,C:\Users\Experimental User\Desktop\experiment\data/010100_REPSWITCH1_v2022.2.4_2023-07-17_16h27.34.455_micResp_recorded\recording_micResp_2023-07-17_16h34.48.930.wav,None,441.40301970019937,441.40301970019937,441.40301970019937,441.40301970019937,441.40301970019937,441.40301970019937,"[1.1833383990451694, 1.3913323991000652, 1.4873308995738626, 1.632268499583006, 1.7269034991040826, 1.8706464990973473]",,,,,,010100,001,2023-07-17_16h27.34.455,REPSWITCH1_v2022.2.4,2022.2.4,144.06917648733958,
REPSWITCH1/PICTURE_687.png,camisa,speak,gold,switch,2,T,4,Stim5_Set4,86,85,0,85,85,85,,446.05018680077046,,,,,,,,,,,,,,,,,,,,,,,441.9030757006258,443.02911650016904,443.02911650016904,443.02911650016904,443.02911650016904,443.02911650016904,443.02911650016904,443.02911650016904,0.0012560002505779266,None,0,,C:\Users\Experimental User\Desktop\experiment\data/010100_REPSWITCH1_v2022.2.4_2023-07-17_16h27.34.455_micResp_recorded\recording_micResp_2023-07-17_16h34.53.574.wav,None,,,,,,,,,,,,,010100,001,2023-07-17_16h27.34.455,REPSWITCH1_v2022.2.4,2022.2.4,144.06917648733958,
REPSWITCH1/PICTURE_338.png,regalo,speak,gold,nontarget,2,NT,4,Stim6_Set4,87,86,0,86,86,86,,450.68188820034266,,,,,,,,,,,,,,,,,,,,,,451.18191480077803,446.55011570081115,447.65494730044156,447.65494730044156,447.65494730044156,447.65494730044156,447.65494730044156,447.65494730044156,447.65494730044156,0.001440499909222126,None,0,,C:\Users\Experimental User\Desktop\experiment\data/010100_REPSWITCH1_v2022.2.4_2023-07-17_16h27.34.455_micResp_recorded\recording_micResp_2023-07-17_16h34.58.209.wav,None,450.68188820034266,450.68188820034266,450.68188820034266,450.68188820034266,450.68188820034266,450.68188820034266,,,,,,,010100,001,2023-07-17_16h27.34.455,REPSWITCH1_v2022.2.4,2022.2.4,144.06917648733958,
REPSWITCH1/PICTURE_338.png,regalo,speak,gold,repeat,2,T,4,Stim6_Set4,88,87,0,87,87,87,,455.3637037007138,,,,,,,,,,,,,,,,,,,,,,,451.18191480077803,452.34274520073086,452.34274520073086,452.34274520073086,452.34274520073086,452.34274520073086,452.34274520073086,452.34274520073086,0.0014174003154039383,None,0,,C:\Users\Experimental User\Desktop\experiment\data/010100_REPSWITCH1_v2022.2.4_2023-07-17_16h27.34.455_micResp_recorded\recording_micResp_2023-07-17_16h35.02.887.wav,None,,,,,,,,,,,,,010100,001,2023-07-17_16h27.34.455,REPSWITCH1_v2022.2.4,2022.2.4,144.06917648733958,
REPSWITCH1/PICTURE_35.png,oreja,type,darkblue,filler,1,F,4,Stim5_Set3,89,88,0,88,88,88,,460.00241290032864,,,,,,,,,,,,,,,,,,,,,,460.50244970060885,455.8636694001034,456.97518410068005,456.97518410068005,456.97518410068005,456.97518410068005,456.97518410068005,456.97518410068005,456.97518410068005,0.0013303998857736588,"['o', 'r', 'e', 'j', 'a']",0,oreja,C:\Users\Experimental User\Desktop\experiment\data/010100_REPSWITCH1_v2022.2.4_2023-07-17_16h27.34.455_micResp_recorded\recording_micResp_2023-07-17_16h35.07.531.wav,None,460.00241290032864,460.00241290032864,460.00241290032864,460.00241290032864,460.00241290032864,460.00241290032864,"[1.1436559995636344, 1.2556659001857042, 1.3996660001575947, 1.5916753001511097, 1.720664999447763]",,,,,,010100,001,2023-07-17_16h27.34.455,REPSWITCH1_v2022.2.4,2022.2.4,144.06917648733958,
REPSWITCH1/PICTURE_464.png,goma,speak,gold,filler,2,F,4,Stim6_Set3,90,89,0,89,89,89,,464.60091700032353,,,,,,,,,,,,,,,,,,,,,,,460.50244970060885,461.5799108007923,461.5799108007923,461.5799108007923,461.5799108007923,461.5799108007923,461.5799108007923,461.5799108007923,0.0012363996356725693,None,0,,C:\Users\Experimental User\Desktop\experiment\data/010100_REPSWITCH1_v2022.2.4_2023-07-17_16h27.34.455_micResp_recorded\recording_micResp_2023-07-17_16h35.12.125.wav,None,,,,,,,,,,,,,010100,001,2023-07-17_16h27.34.455,REPSWITCH1_v2022.2.4,2022.2.4,144.06917648733958,
REPSWITCH1/PICTURE_271.png,conejo,type,darkblue,filler,1,F,4,Stim7_Set3,91,90,0,90,90,90,,469.2673433003947,,,,,,,,,,,,,,,,,,,,,,469.76736220065504,465.10085270088166,466.24013849999756,466.24013849999756,466.24013849999756,466.24013849999756,466.24013849999756,466.24013849999756,466.24013849999756,0.0015986999496817589,"['c', 'o', 'n', 'e', 'j', 'o']",0,conejo,C:\Users\Experimental User\Desktop\experiment\data/010100_REPSWITCH1_v2022.2.4_2023-07-17_16h27.34.455_micResp_recorded\recording_micResp_2023-07-17_16h35.16.795.wav,None,469.2673433003947,469.2673433003947,469.2673433003947,469.2673433003947,469.2673433003947,469.2673433003947,"[0.9185066996142268, 1.031500899232924, 1.2548788990825415, 1.3683353997766972, 1.5425271997228265, 1.7025253996253014]",,,,,,010100,001,2023-07-17_16h27.34.455,REPSWITCH1_v2022.2.4,2022.2.4,144.06917648733958,
REPSWITCH1/PICTURE_48.png,bombero,speak,gold,nontarget,2,NT,4,Stim7_Set4,92,91,0,91,91,91,,473.87989260070026,,,,,,,,,,,,,,,,,,,,,,,469.76736220065504,470.85875460039824,470.85875460039824,470.85875460039824,470.85875460039824,470.85875460039824,470.85875460039824,470.85875460039824,0.001436399295926094,None,0,,C:\Users\Experimental User\Desktop\experiment\data/010100_REPSWITCH1_v2022.2.4_2023-07-17_16h27.34.455_micResp_recorded\recording_micResp_2023-07-17_16h35.21.405.wav,None,,,,,,,,,,,,,010100,001,2023-07-17_16h27.34.455,REPSWITCH1_v2022.2.4,2022.2.4,144.06917648733958,
REPSWITCH1/PICTURE_48.png,bombero,type,darkblue,switch,1,T,4,Stim7_Set4,93,92,0,92,92,92,,478.4636374004185,,,,,,,,,,,,,,,,,,,,,,,474.37970839999616,475.4427341008559,475.4427341008559,475.4427341008559,475.4427341008559,475.4427341008559,475.4427341008559,475.4427341008559,0.0013785995543003082,"['b', 'o', 'm', 'b', 'e', 'r', 'o']",0,bombero,C:\Users\Experimental User\Desktop\experiment\data/010100_REPSWITCH1_v2022.2.4_2023-07-17_16h27.34.455_micResp_recorded\recording_micResp_2023-07-17_16h35.25.987.wav,None,,,,,,,"[1.2678869003430009, 1.3478798996657133, 1.491805199533701, 1.7158097000792623, 1.908479600213468, 2.0685658995062113, 2.148310899734497]",,,,,,010100,001,2023-07-17_16h27.34.455,REPSWITCH1_v2022.2.4,2022.2.4,144.06917648733958,
REPSWITCH1/PICTURE_320.png,iglesia,speak,gold,filler,1,F,4,Stim8_Set3,94,93,0,93,93,93,,483.185655400157,,,,,,,,,,,,,,,,,,,,,,483.68567869998515,478.96357360016555,480.15853430051357,480.15853430051357,480.15853430051357,480.15853430051357,480.15853430051357,480.15853430051357,480.15853430051357,0.0014848001301288605,None,0,,C:\Users\Experimental User\Desktop\experiment\data/010100_REPSWITCH1_v2022.2.4_2023-07-17_16h27.34.455_micResp_recorded\recording_micResp_2023-07-17_16h35.30.714.wav,None,483.185655400157,483.185655400157,483.185655400157,483.185655400157,483.185655400157,483.185655400157,,,,,,,010100,001,2023-07-17_16h27.34.455,REPSWITCH1_v2022.2.4,2022.2.4,144.06917648733958,
REPSWITCH1/PICTURE_728.png,pulpo,type,darkblue,nontarget,1,NT,4,Stim8_Set4,95,94,0,94,94,94,,487.79104380030185,,,,,,,,,,,,,,,,,,,,,,,483.68567869998515,484.7700619008392,484.7700619008392,484.7700619008392,484.7700619008392,484.7700619008392,484.7700619008392,484.7700619008392,0.0013431999832391739,"['p', 'u', 'l', 'o', 'p', 'backspace', 'backspace']",0,pulp,C:\Users\Experimental User\Desktop\experiment\data/010100_REPSWITCH1_v2022.2.4_2023-07-17_16h27.34.455_micResp_recorded\recording_micResp_2023-07-17_16h35.35.314.wav,None,,,,,,,"[1.2207011003047228, 1.4605962000787258, 1.7165944995358586, 1.9885973995551467, 2.228595199994743, 2.693320400081575, 2.837041400372982, 2.9805770004168153]",,,,,,010100,001,2023-07-17_16h27.34.455,REPSWITCH1_v2022.2.4,2022.2.4,144.06917648733958,
REPSWITCH1/PICTURE_728.png,pulpo,type,darkblue,repeat,1,T,4,Stim8_Set4,96,95,0,95,95,95,,492.4513395000249,,,,,,,,,,,,,,,,,,,,,,,488.2914130007848,489.4301921008155,489.4301921008155,489.4301921008155,489.4301921008155,489.4301921008155,489.4301921008155,489.4301921008155,0.001314699649810791,"['p', 'u', 'l', 'p', 'o']",0,pulpo,C:\Users\Experimental User\Desktop\experiment\data/010100_REPSWITCH1_v2022.2.4_2023-07-17_16h27.34.455_micResp_recorded\recording_micResp_2023-07-17_16h35.39.975.wav,space,,,,,,,"[1.1207105992361903, 1.425242398865521, 1.665684498846531, 1.8403310989961028, 2.0163210993632674]",492.95128650031984,492.95128650031984,76.63938120007515,,,010100,001,2023-07-17_16h27.34.455,REPSWITCH1_v2022.2.4,2022.2.4,144.06917648733958,
REPSWITCH1/PICTURE_128.png,muñeca,speak,gold,nontarget,2,NT,1,Stim4_Set1,97,96,0,96,96,96,,573.7593080000952,,,,,,,,,,,,,,,,,,,,,,,569.5989437000826,570.7385250004008,570.7385250004008,570.7385250004008,570.7385250004008,570.7385250004008,570.7385250004008,570.7385250004008,0.001375899650156498,None,0,,C:\Users\Experimental User\Desktop\experiment\data/010100_REPSWITCH1_v2022.2.4_2023-07-17_16h27.34.455_micResp_recorded\recording_micResp_2023-07-17_16h37.01.284.wav,None,,,,,,,,,,,,,010100,001,2023-07-17_16h27.34.455,REPSWITCH1_v2022.2.4,2022.2.4,144.06917648733958,
REPSWITCH1/PICTURE_128.png,muñeca,speak,gold,repeat,2,T,1,Stim4_Set1,98,97,0,97,97,97,,578.4265020005405,,,,,,,,,,,,,,,,,,,,,,,574.2592415008694,575.4056037003174,575.4056037003174,575.4056037003174,575.4056037003174,575.4056037003174,575.4056037003174,575.4056037003174,0.0013562003150582314,None,0,,C:\Users\Experimental User\Desktop\experiment\data/010100_REPSWITCH1_v2022.2.4_2023-07-17_16h27.34.455_micResp_recorded\recording_micResp_2023-07-17_16h37.05.950.wav,None,,,,,,,,,,,,,010100,001,2023-07-17_16h27.34.455,REPSWITCH1_v2022.2.4,2022.2.4,144.06917648733958,
REPSWITCH1/PICTURE_8.png,pierna,type,darkblue,filler,1,F,1,Stim3_Set4,99,98,0,98,98,98,,583.0728616006672,,,,,,,,,,,,,,,,,,,,,,,578.9265702003613,580.0519582005218,580.0519582005218,580.0519582005218,580.0519582005218,580.0519582005218,580.0519582005218,580.0519582005218,0.0011590998619794846,"['p', 'i', 'e', 'r', 'n', 'a']",0,pierna,C:\Users\Experimental User\Desktop\experiment\data/010100_REPSWITCH1_v2022.2.4_2023-07-17_16h27.34.455_micResp_recorded\recording_micResp_2023-07-17_16h37.10.597.wav,None,,,,,,,"[0.9146819990128279, 1.1066727992147207, 1.2513821991160512, 1.4113813992589712, 1.5233797989785671, 1.6674234988167882]",,,,,,010100,001,2023-07-17_16h27.34.455,REPSWITCH1_v2022.2.4,2022.2.4,144.06917648733958,
REPSWITCH1/PICTURE_728.png,pulpo,type,darkblue,filler,1,F,1,Stim8_Set4,100,99,0,99,99,99,,587.6705780001357,,,,,,,,,,,,,,,,,,,,,,,583.5729311006144,584.6496954001486,584.6496954001486,584.6496954001486,584.6496954001486,584.6496954001486,584.6496954001486,584.6496954001486,0.001434500329196453,"['p', 'u', 'l', 'p', 'o']",0,pulpo,C:\Users\Experimental User\Desktop\experiment\data/010100_REPSWITCH1_v2022.2.4_2023-07-17_16h27.34.455_micResp_recorded\recording_micResp_2023-07-17_16h37.15.194.wav,None,,,,,,,"[0.9409371996298432, 1.1813113000243902, 1.6131965992972255, 1.789656599983573, 1.9175812993198633]",,,,,,010100,001,2023-07-17_16h27.34.455,REPSWITCH1_v2022.2.4,2022.2.4,144.06917648733958,
REPSWITCH1/PICTURE_135.png,traje,speak,gold,nontarget,2,NT,1,Stim3_Set1,101,100,0,100,100,100,,592.2893261006102,,,,,,,,,,,,,,,,,,,,,,,588.1705484008417,589.2679835008457,589.2679835008457,589.2679835008457,589.2679835008457,589.2679835008457,589.2679835008457,589.2679835008457,0.0012568999081850052,None,0,,C:\Users\Experimental User\Desktop\experiment\data/010100_REPSWITCH1_v2022.2.4_2023-07-17_16h27.34.455_micResp_recorded\recording_micResp_2023-07-17_16h37.19.813.wav,None,,,,,,,,,,,,,010100,001,2023-07-17_16h27.34.455,REPSWITCH1_v2022.2.4,2022.2.4,144.06917648733958,
REPSWITCH1/PICTURE_135.png,traje,speak,gold,repeat,2,T,1,Stim3_Set1,102,101,0,101,101,101,,596.9077820004895,,,,,,,,,,,,,,,,,,,,,,,592.789139200002,593.8868790008128,593.8868790008128,593.8868790008128,593.8868790008128,593.8868790008128,593.8868790008128,593.8868790008128,0.0012515000998973846,None,0,,C:\Users\Experimental User\Desktop\experiment\data/010100_REPSWITCH1_v2022.2.4_2023-07-17_16h27.34.455_micResp_recorded\recording_micResp_2023-07-17_16h37.24.432.wav,None,,,,,,,,,,,,,010100,001,2023-07-17_16h27.34.455,REPSWITCH1_v2022.2.4,2022.2.4,144.06917648733958,
REPSWITCH1/PICTURE_16.png,cazador,speak,gold,nontarget,2,NT,1,Stim6_Set1,103,102,0,102,102,102,,601.4985950002447,,,,,,,,,,,,,,,,,,,,,,,597.4077212000266,598.477563100867,598.477563100867,598.477563100867,598.477563100867,598.477563100867,598.477563100867,598.477563100867,0.0015090005472302437,None,0,,C:\Users\Experimental User\Desktop\experiment\data/010100_REPSWITCH1_v2022.2.4_2023-07-17_16h27.34.455_micResp_recorded\recording_micResp_2023-07-17_16h37.29.022.wav,None,,,,,,,,,,,,,010100,001,2023-07-17_16h27.34.455,REPSWITCH1_v2022.2.4,2022.2.4,144.06917648733958,
REPSWITCH1/PICTURE_16.png,cazador,type,darkblue,switch,1,T,1,Stim6_Set1,104,103,0,103,103,103,,606.0747048007324,,,,,,,,,,,,,,,,,,,,,,606.574791200459,601.9985286006704,603.0475387005135,603.0475387005135,603.0475387005135,603.0475387005135,603.0475387005135,603.0475387005135,603.0475387005135,0.0015756003558635712,"['c', 'a', 'x', 'a', 'd', 'o', 'r']",0,caxador,C:\Users\Experimental User\Desktop\experiment\data/010100_REPSWITCH1_v2022.2.4_2023-07-17_16h27.34.455_micResp_recorded\recording_micResp_2023-07-17_16h37.33.603.wav,None,606.0747048007324,606.0747048007324,606.0747048007324,606.0747048007324,606.0747048007324,606.0747048007324,"[0.8790526995435357, 1.15107879973948, 1.4550490994006395, 1.6638020994141698, 2.303173399530351, 2.39913069922477, 2.527152099646628]",,,,,,010100,001,2023-07-17_16h27.34.455,REPSWITCH1_v2022.2.4,2022.2.4,144.06917648733958,
REPSWITCH1/PICTURE_498.png,taza,speak,gold,filler,2,F,1,Stim4_Set4,105,104,0,104,104,104,,610.6663538999856,,,,,,,,,,,,,,,,,,,,,,,606.574791200459,607.6374247008935,607.6374247008935,607.6374247008935,607.6374247008935,607.6374247008935,607.6374247008935,607.6374247008935,0.0012692995369434357,None,0,,C:\Users\Experimental User\Desktop\experiment\data/010100_REPSWITCH1_v2022.2.4_2023-07-17_16h27.34.455_micResp_recorded\recording_micResp_2023-07-17_16h37.38.190.wav,None,610.6663538999856,610.6663538999856,610.6663538999856,610.6663538999856,610.6663538999856,610.6663538999856,,,,,,,010100,001,2023-07-17_16h27.34.455,REPSWITCH1_v2022.2.4,2022.2.4,144.06917648733958,
REPSWITCH1/PICTURE_142.png,vaso,type,darkblue,nontarget,1,NT,1,Stim2_Set1,106,105,0,105,105,105,,615.3195979008451,,,,,,,,,,,,,,,,,,,,,,,611.1662490004674,612.2986090006307,612.2986090006307,612.2986090006307,612.2986090006307,612.2986090006307,612.2986090006307,612.2986090006307,0.0012887995690107346,"['v', 'a', 's', 'o']",0,vaso,C:\Users\Experimental User\Desktop\experiment\data/010100_REPSWITCH1_v2022.2.4_2023-07-17_16h27.34.455_micResp_recorded\recording_micResp_2023-07-17_16h37.42.843.wav,None,,,,,,,"[0.9240929000079632, 1.1320596998557448, 1.292090899311006, 1.3560977997258306]",,,,,,010100,001,2023-07-17_16h27.34.455,REPSWITCH1_v2022.2.4,2022.2.4,144.06917648733958,
REPSWITCH1/PICTURE_142.png,vaso,speak,gold,switch,2,T,1,Stim2_Set1,107,106,0,106,106,106,,620.0416206000373,,,,,,,,,,,,,,,,,,,,,,620.5416772002354,615.8196389004588,617.0146810002625,617.0146810002625,617.0146810002625,617.0146810002625,617.0146810002625,617.0146810002625,617.0146810002625,0.0012210002169013023,None,0,,C:\Users\Experimental User\Desktop\experiment\data/010100_REPSWITCH1_v2022.2.4_2023-07-17_16h27.34.455_micResp_recorded\recording_micResp_2023-07-17_16h37.47.570.wav,None,620.0416206000373,620.0416206000373,620.0416206000373,620.0416206000373,620.0416206000373,620.0416206000373,,,,,,,010100,001,2023-07-17_16h27.34.455,REPSWITCH1_v2022.2.4,2022.2.4,144.06917648733958,
REPSWITCH1/PICTURE_178.png,puente,speak,gold,nontarget,2,NT,1,Stim1_Set1,108,107,0,107,107,107,,624.5984692005441,,,,,,,,,,,,,,,,,,,,,,,620.5416772002354,621.5775766000152,621.5775766000152,621.5775766000152,621.5775766000152,621.5775766000152,621.5775766000152,621.5775766000152,0.0013362998142838478,None,0,,C:\Users\Experimental User\Desktop\experiment\data/010100_REPSWITCH1_v2022.2.4_2023-07-17_16h27.34.455_micResp_recorded\recording_micResp_2023-07-17_16h37.52.122.wav,None,,,,,,,,,,,,,010100,001,2023-07-17_16h27.34.455,REPSWITCH1_v2022.2.4,2022.2.4,144.06917648733958,
REPSWITCH1/PICTURE_178.png,puente,type,darkblue,switch,1,T,1,Stim1_Set1,109,108,0,108,108,108,,629.2509871004149,,,,,,,,,,,,,,,,,,,,,,,625.0984050007537,626.223791600205,626.223791600205,626.223791600205,626.223791600205,626.223791600205,626.223791600205,626.223791600205,0.00132020004093647,"['p', 'u', 'e', 'n', 't', 'e']",0,puente,C:\Users\Experimental User\Desktop\experiment\data/010100_REPSWITCH1_v2022.2.4_2023-07-17_16h27.34.455_micResp_recorded\recording_micResp_2023-07-17_16h37.56.778.wav,None,629.2509871004149,629.2509871004149,629.2509871004149,629.2509871004149,629.2509871004149,629.2509871004149,"[1.4154268996790051, 1.718835199251771, 1.8794171996414661, 1.9753305995836854, 2.1026728991419077, 2.262638899497688]",,,,,,010100,001,2023-07-17_16h27.34.455,REPSWITCH1_v2022.2.4,2022.2.4,144.06917648733958,
REPSWITCH1/PICTURE_719.png,baño,speak,gold,filler,2,F,1,Stim2_Set4,110,109,0,109,109,109,,633.8912030002102,,,,,,,,,,,,,,,,,,,,,,,629.751041800715,630.8702271003276,630.8702271003276,630.8702271003276,630.8702271003276,630.8702271003276,630.8702271003276,630.8702271003276,0.0016077002510428429,None,0,,C:\Users\Experimental User\Desktop\experiment\data/010100_REPSWITCH1_v2022.2.4_2023-07-17_16h27.34.455_micResp_recorded\recording_micResp_2023-07-17_16h38.01.417.wav,None,,,,,,,,,,,,,010100,001,2023-07-17_16h27.34.455,REPSWITCH1_v2022.2.4,2022.2.4,144.06917648733958,
REPSWITCH1/PICTURE_169.png,espalda,type,darkblue,nontarget,1,NT,1,Stim8_Set1,111,110,0,110,110,110,,638.5159440003335,,,,,,,,,,,,,,,,,,,,,,639.0159964002669,634.3911391003057,635.4887477001175,635.4887477001175,635.4887477001175,635.4887477001175,635.4887477001175,635.4887477001175,635.4887477001175,0.0013104993849992752,"['e', 's', 'p', 'a', 'l', 'a', 'backspace', 'd', 'a']",0,espalda,C:\Users\Experimental User\Desktop\experiment\data/010100_REPSWITCH1_v2022.2.4_2023-07-17_16h27.34.455_micResp_recorded\recording_micResp_2023-07-17_16h38.06.043.wav,None,638.5159440003335,638.5159440003335,638.5159440003335,638.5159440003335,638.5159440003335,638.5159440003335,"[1.1098361993208528, 1.2858343990519643, 1.3818093994632363, 1.4777973992750049, 1.6058279993012547, 1.6858431994915009, 2.1026145992800593, 2.198675399646163, 2.3576635997742414]",,,,,,010100,001,2023-07-17_16h27.34.455,REPSWITCH1_v2022.2.4,2022.2.4,144.06917648733958,
REPSWITCH1/PICTURE_169.png,espalda,type,darkblue,repeat,1,T,1,Stim8_Set1,112,111,0,111,111,111,,643.1561564002186,,,,,,,,,,,,,,,,,,,,,,,639.0159964002669,640.1351396003738,640.1351396003738,640.1351396003738,640.1351396003738,640.1351396003738,640.1351396003738,640.1351396003738,0.0012555001303553581,"['e', 'l', 'p', 'a', 'l', 'd', 'a']",0,elpalda,C:\Users\Experimental User\Desktop\experiment\data/010100_REPSWITCH1_v2022.2.4_2023-07-17_16h27.34.455_micResp_recorded\recording_micResp_2023-07-17_16h38.10.680.wav,None,,,,,,,"[0.799291399307549, 0.8954816991463304, 1.0717400992289186, 1.2477356987074018, 1.7757931994274259, 1.9033391987904906, 2.0473006991669536]",,,,,,010100,001,2023-07-17_16h27.34.455,REPSWITCH1_v2022.2.4,2022.2.4,144.06917648733958,
REPSWITCH1/PICTURE_48.png,bombero,speak,gold,filler,2,F,1,Stim7_Set4,113,112,0,112,112,112,,647.8233549008146,,,,,,,,,,,,,,,,,,,,,,,643.6562123000622,644.8023274000734,644.8023274000734,644.8023274000734,644.8023274000734,644.8023274000734,644.8023274000734,644.8023274000734,0.0013986006379127502,None,0,,C:\Users\Experimental User\Desktop\experiment\data/010100_REPSWITCH1_v2022.2.4_2023-07-17_16h27.34.455_micResp_recorded\recording_micResp_2023-07-17_16h38.15.348.wav,None,,,,,,,,,,,,,010100,001,2023-07-17_16h27.34.455,REPSWITCH1_v2022.2.4,2022.2.4,144.06917648733958,
REPSWITCH1/PICTURE_19.png,pavo,type,darkblue,nontarget,1,NT,1,Stim5_Set1,114,113,0,113,113,113,,652.3925608005375,,,,,,,,,,,,,,,,,,,,,,652.8926160000265,648.3232614006847,649.3653570003808,649.3653570003808,649.3653570003808,649.3653570003808,649.3653570003808,649.3653570003808,649.3653570003808,0.0016823001205921173,"['a', 'backspace', 'a', 'backspace', 'p', 'a', 'v', 'o']",0,pavo,C:\Users\Experimental User\Desktop\experiment\data/010100_REPSWITCH1_v2022.2.4_2023-07-17_16h27.34.455_micResp_recorded\recording_micResp_2023-07-17_16h38.19.921.wav,None,652.3925608005375,652.3925608005375,652.3925608005375,652.3925608005375,652.3925608005375,652.3925608005375,"[1.0891717988997698, 1.4413969991728663, 1.7130283992737532, 2.1292000990360975, 2.593074799515307, 2.6742686992511153, 2.8654898991808295, 2.8814692990854383]",,,,,,010100,001,2023-07-17_16h27.34.455,REPSWITCH1_v2022.2.4,2022.2.4,144.06917648733958,
REPSWITCH1/PICTURE_19.png,pavo,type,darkblue,repeat,1,T,1,Stim5_Set1,115,114,0,114,114,114,,656.9833624009043,,,,,,,,,,,,,,,,,,,,,,657.4834223007783,652.8926160000265,653.9562996001914,653.9562996001914,653.9562996001914,653.9562996001914,653.9562996001914,653.9562996001914,653.9562996001914,0.0016664005815982819,"['p', 'a', 'v', 'o']",0,pavo,C:\Users\Experimental User\Desktop\experiment\data/010100_REPSWITCH1_v2022.2.4_2023-07-17_16h27.34.455_micResp_recorded\recording_micResp_2023-07-17_16h38.24.511.wav,None,656.9833624009043,656.9833624009043,656.9833624009043,656.9833624009043,656.9833624009043,656.9833624009043,"[0.8668681001290679, 0.9941720003262162, 1.218172200024128, 1.3141713002696633]",,,,,,010100,001,2023-07-17_16h27.34.455,REPSWITCH1_v2022.2.4,2022.2.4,144.06917648733958,
REPSWITCH1/PICTURE_319.png,vaca,type,darkblue,filler,1,F,1,Stim1_Set4,116,115,0,115,115,115,,661.6096699004993,,,,,,,,,,,,,,,,,,,,,,,657.4834223007783,658.5809289002791,658.5809289002791,658.5809289002791,658.5809289002791,658.5809289002791,658.5809289002791,658.5809289002791,0.0012400001287460327,"['v', 'a', 'c', 'a']",0,vaca,C:\Users\Experimental User\Desktop\experiment\data/010100_REPSWITCH1_v2022.2.4_2023-07-17_16h27.34.455_micResp_recorded\recording_micResp_2023-07-17_16h38.29.133.wav,None,661.6096699004993,661.6096699004993,661.6096699004993,661.6096699004993,661.6096699004993,661.6096699004993,"[0.9620607001706958, 1.1540074003860354, 1.3616864997893572, 1.5216717002913356]",,,,,,010100,001,2023-07-17_16h27.34.455,REPSWITCH1_v2022.2.4,2022.2.4,144.06917648733958,
REPSWITCH1/PICTURE_338.png,regalo,speak,gold,filler,2,F,1,Stim6_Set4,117,116,0,116,116,116,,666.2135908007622,,,,,,,,,,,,,,,,,,,,,,666.7136478004977,662.1095996005461,663.1863954002038,663.1863954002038,663.1863954002038,663.1863954002038,663.1863954002038,663.1863954002038,663.1863954002038,0.001395699568092823,None,0,,C:\Users\Experimental User\Desktop\experiment\data/010100_REPSWITCH1_v2022.2.4_2023-07-17_16h27.34.455_micResp_recorded\recording_micResp_2023-07-17_16h38.33.742.wav,None,666.2135908007622,666.2135908007622,666.2135908007622,666.2135908007622,666.2135908007622,666.2135908007622,,,,,,,010100,001,2023-07-17_16h27.34.455,REPSWITCH1_v2022.2.4,2022.2.4,144.06917648733958,
REPSWITCH1/PICTURE_142.png,vaso,type,darkblue,nontarget,1,NT,1,Stim7_Set1,118,117,0,117,117,117,,670.7844542004168,,,,,,,,,,,,,,,,,,,,,,,666.7136478004977,667.7553172009066,667.7553172009066,667.7553172009066,667.7553172009066,667.7553172009066,667.7553172009066,667.7553172009066,0.0013124998658895493,"['v', 'a', 's', 'o']",0,vaso,C:\Users\Experimental User\Desktop\experiment\data/010100_REPSWITCH1_v2022.2.4_2023-07-17_16h27.34.455_micResp_recorded\recording_micResp_2023-07-17_16h38.38.307.wav,None,670.7844542004168,670.7844542004168,670.7844542004168,670.7844542004168,670.7844542004168,670.7844542004168,"[0.8432925995439291, 1.0678782993927598, 1.2277536997571588, 1.3238820992410183]",,,,,,010100,001,2023-07-17_16h27.34.455,REPSWITCH1_v2022.2.4,2022.2.4,144.06917648733958,
REPSWITCH1/PICTURE_142.png,vaso,speak,gold,switch,2,T,1,Stim7_Set1,119,118,0,118,118,118,,675.3951704008505,,,,,,,,,,,,,,,,,,,,,,675.8954196004197,671.284267200157,672.3680108003318,672.3680108003318,672.3680108003318,672.3680108003318,672.3680108003318,672.3680108003318,672.3680108003318,0.001232699491083622,None,0,,C:\Users\Experimental User\Desktop\experiment\data/010100_REPSWITCH1_v2022.2.4_2023-07-17_16h27.34.455_micResp_recorded\recording_micResp_2023-07-17_16h38.42.923.wav,None,675.3951704008505,675.3951704008505,675.3951704008505,675.3951704008505,675.3951704008505,675.3951704008505,,,,,,,010100,001,2023-07-17_16h27.34.455,REPSWITCH1_v2022.2.4,2022.2.4,144.06917648733958,
REPSWITCH1/PICTURE_687.png,camisa,type,darkblue,filler,1,F,1,Stim5_Set4,120,119,0,119,119,119,,680.0277123004198,,,,,,,,,,,,,,,,,,,,,,680.5277251005173,675.8954196004197,677.0004875008017,677.0004875008017,677.0004875008017,677.0004875008017,677.0004875008017,677.0004875008017,677.0004875008017,0.0012592999264597893,"['c', 'a', 'i', 'backspace', 'm', 'i', 's', 'a']",0,camisa,C:\Users\Experimental User\Desktop\experiment\data/010100_REPSWITCH1_v2022.2.4_2023-07-17_16h27.34.455_micResp_recorded\recording_micResp_2023-07-17_16h38.47.555.wav,None,680.0277123004198,680.0277123004198,680.0277123004198,680.0277123004198,680.0277123004198,680.0277123004198,"[1.00592349935323, 1.197936199605465, 1.4539353996515274, 1.7418799996376038, 1.9499074993655086, 2.045908799394965, 2.1898727994412184, 2.3338417997583747]",,,,,,010100,001,2023-07-17_16h27.34.455,REPSWITCH1_v2022.2.4,2022.2.4,144.06917648733958,
REPSWITCH1/PICTURE_30.png,granja,type,darkblue,nontarget,1,NT,2,Stim5_Set2,121,120,0,120,120,120,,684.5907121002674,,,,,,,,,,,,,,,,,,,,,,,680.5277251005173,681.5625172005966,681.5625172005966,681.5625172005966,681.5625172005966,681.5625172005966,681.5625172005966,681.5625172005966,0.0019658003002405167,"['g', 'r', 'a', 'n', 'j', 'a']",0,granja,C:\Users\Experimental User\Desktop\experiment\data/010100_REPSWITCH1_v2022.2.4_2023-07-17_16h27.34.455_micResp_recorded\recording_micResp_2023-07-17_16h38.52.115.wav,None,684.5907121002674,684.5907121002674,684.5907121002674,684.5907121002674,684.5907121002674,684.5907121002674,"[0.9884601002559066, 1.1481542997062206, 1.340603600256145, 1.4525976004078984, 1.788692300207913, 1.883916700258851]",,,,,,010100,001,2023-07-17_16h27.34.455,REPSWITCH1_v2022.2.4,2022.2.4,144.06917648733958,
REPSWITCH1/PICTURE_30.png,granja,type,darkblue,repeat,1,T,2,Stim5_Set2,122,121,0,121,121,121,,689.1469124006107,,,,,,,,,,,,,,,,,,,,,,,685.0907362001017,686.118360100314,686.118360100314,686.118360100314,686.118360100314,686.118360100314,686.118360100314,686.118360100314,0.0019383002072572708,"['g', 'r', 'a', 'n', 'backspace', 'n', 'backspace', 'n']",0,gran,C:\Users\Experimental User\Desktop\experiment\data/010100_REPSWITCH1_v2022.2.4_2023-07-17_16h27.34.455_micResp_recorded\recording_micResp_2023-07-17_16h38.56.671.wav,None,689.1469124006107,689.1469124006107,689.1469124006107,689.1469124006107,689.1469124006107,689.1469124006107,"[0.8804497988894582, 1.056441099382937, 1.24991209898144, 1.328460599295795, 1.8245965987443924, 2.2886371994391084, 2.6082575991749763, 2.9602533988654613]",,,,,,010100,001,2023-07-17_16h27.34.455,REPSWITCH1_v2022.2.4,2022.2.4,144.06917648733958,
REPSWITCH1/PICTURE_128.png,muñeca,speak,gold,filler,2,F,2,Stim4_Set1,123,122,0,122,122,122,,693.8286423003301,,,,,,,,,,,,,,,,,,,,,,,689.6468074005097,690.8076310008764,690.8076310008764,690.8076310008764,690.8076310008764,690.8076310008764,690.8076310008764,690.8076310008764,0.0013829004019498825,None,0,,C:\Users\Experimental User\Desktop\experiment\data/010100_REPSWITCH1_v2022.2.4_2023-07-17_16h27.34.455_micResp_recorded\recording_micResp_2023-07-17_16h39.01.353.wav,None,,,,,,,,,,,,,010100,001,2023-07-17_16h27.34.455,REPSWITCH1_v2022.2.4,2022.2.4,144.06917648733958,
REPSWITCH1/PICTURE_264.png,mano,type,darkblue,nontarget,1,NT,2,Stim3_Set2,124,123,0,123,123,123,,698.4186903005466,,,,,,,,,,,,,,,,,,,,,,698.9187220009044,694.3285757005215,695.3914894005284,695.3914894005284,695.3914894005284,695.3914894005284,695.3914894005284,695.3914894005284,695.3914894005284,0.0013979002833366394,"['m', 'a', 'n', 'o']",0,mano,C:\Users\Experimental User\Desktop\experiment\data/010100_REPSWITCH1_v2022.2.4_2023-07-17_16h27.34.455_micResp_recorded\recording_micResp_2023-07-17_16h39.05.946.wav,None,698.4186903005466,698.4186903005466,698.4186903005466,698.4186903005466,698.4186903005466,698.4186903005466,"[1.2875030990689993, 1.4475906994193792, 1.5435333997011185, 1.9109489992260933]",,,,,,010100,001,2023-07-17_16h27.34.455,REPSWITCH1_v2022.2.4,2022.2.4,144.06917648733958,
REPSWITCH1/PICTURE_264.png,mano,type,darkblue,repeat,1,T,2,Stim3_Set2,125,124,0,124,124,124,,703.0449813008308,,,,,,,,,,,,,,,,,,,,,,,698.9187220009044,700.0160465007648,700.0160465007648,700.0160465007648,700.0160465007648,700.0160465007648,700.0160465007648,700.0160465007648,0.001371600665152073,"['m', 'a', 'n', 'o']",0,mano,C:\Users\Experimental User\Desktop\experiment\data/010100_REPSWITCH1_v2022.2.4_2023-07-17_16h27.34.455_micResp_recorded\recording_micResp_2023-07-17_16h39.10.567.wav,None,703.0449813008308,703.0449813008308,703.0449813008308,703.0449813008308,703.0449813008308,703.0449813008308,"[0.85491699911654, 0.9828696986660361, 1.0468642991036177, 1.1428691986948252]",,,,,,010100,001,2023-07-17_16h27.34.455,REPSWITCH1_v2022.2.4,2022.2.4,144.06917648733958,
REPSWITCH1/PICTURE_175.png,pintor,type,darkblue,nontarget,1,NT,2,Stim1_Set2,126,125,0,125,125,125,,707.6419211002067,,,,,,,,,,,,,,,,,,,,,,708.1419757008553,703.5449136001989,704.6147394999862,704.6147394999862,704.6147394999862,704.6147394999862,704.6147394999862,704.6147394999862,704.6147394999862,0.0013888999819755554,"['p', 'i', 'n', 't', 'o', 'r']",0,pintor,C:\Users\Experimental User\Desktop\experiment\data/010100_REPSWITCH1_v2022.2.4_2023-07-17_16h27.34.455_micResp_recorded\recording_micResp_2023-07-17_16h39.15.170.wav,None,707.6419211002067,707.6419211002067,707.6419211002067,707.6419211002067,707.6419211002067,707.6419211002067,"[1.0238270992413163, 1.2485092990100384, 1.359727798961103, 1.5199112994596362, 1.6168692987412214, 1.96808709949255]",,,,,,010100,001,2023-07-17_16h27.34.455,REPSWITCH1_v2022.2.4,2022.2.4,144.06917648733958,
REPSWITCH1/PICTURE_175.png,pintor,speak,gold,switch,2,T,2,Stim1_Set2,127,126,0,126,126,126,,712.3169557005167,,,,,,,,,,,,,,,,,,,,,,,708.1419757008553,709.29586520046,709.29586520046,709.29586520046,709.29586520046,709.29586520046,709.29586520046,709.29586520046,0.0013689994812011719,None,0,,C:\Users\Experimental User\Desktop\experiment\data/010100_REPSWITCH1_v2022.2.4_2023-07-17_16h27.34.455_micResp_recorded\recording_micResp_2023-07-17_16h39.19.841.wav,None,,,,,,,,,,,,,010100,001,2023-07-17_16h27.34.455,REPSWITCH1_v2022.2.4,2022.2.4,144.06917648733958,
REPSWITCH1/PICTURE_135.png,traje,speak,gold,filler,2,F,2,Stim3_Set1,128,127,0,127,127,127,,716.9840757008642,,,,,,,,,,,,,,,,,,,,,,,712.816811800003,713.9630594002083,713.9630594002083,713.9630594002083,713.9630594002083,713.9630594002083,713.9630594002083,713.9630594002083,0.001257999800145626,None,0,,C:\Users\Experimental User\Desktop\experiment\data/010100_REPSWITCH1_v2022.2.4_2023-07-17_16h27.34.455_micResp_recorded\recording_micResp_2023-07-17_16h39.24.508.wav,None,,,,,,,,,,,,,010100,001,2023-07-17_16h27.34.455,REPSWITCH1_v2022.2.4,2022.2.4,144.06917648733958,
REPSWITCH1/PICTURE_446.png,cerdo,speak,gold,nontarget,2,NT,2,Stim7_Set2,129,128,0,128,128,128,,721.5888541005552,,,,,,,,,,,,,,,,,,,,,,,717.4841392003,718.5678563006222,718.5678563006222,718.5678563006222,718.5678563006222,718.5678563006222,718.5678563006222,718.5678563006222,0.0013728998601436615,None,0,,C:\Users\Experimental User\Desktop\experiment\data/010100_REPSWITCH1_v2022.2.4_2023-07-17_16h27.34.455_micResp_recorded\recording_micResp_2023-07-17_16h39.29.112.wav,None,,,,,,,,,,,,,010100,001,2023-07-17_16h27.34.455,REPSWITCH1_v2022.2.4,2022.2.4,144.06917648733958,
REPSWITCH1/PICTURE_446.png,cerdo,type,darkblue,switch,1,T,2,Stim7_Set2,130,129,0,129,129,129,,726.2135379007086,,,,,,,,,,,,,,,,,,,,,,726.7135930005461,722.0887111006305,723.1864738008007,723.1864738008007,723.1864738008007,723.1864738008007,723.1864738008007,723.1864738008007,723.1864738008007,0.001383400522172451,"['c', 'e', 'r', 'd', 'o']",0,cerdo,C:\Users\Experimental User\Desktop\experiment\data/010100_REPSWITCH1_v2022.2.4_2023-07-17_16h27.34.455_micResp_recorded\recording_micResp_2023-07-17_16h39.33.741.wav,None,726.2135379007086,726.2135379007086,726.2135379007086,726.2135379007086,726.2135379007086,726.2135379007086,"[0.9640328995883465, 1.1560188997536898, 1.3159868996590376, 1.459990699775517, 1.5239808997139335]",,,,,,010100,001,2023-07-17_16h27.34.455,REPSWITCH1_v2022.2.4,2022.2.4,144.06917648733958,
REPSWITCH1/PICTURE_152.png,caracol,type,darkblue,nontarget,1,NT,2,Stim2_Set2,131,130,0,130,130,130,,730.9440204007551,,,,,,,,,,,,,,,,,,,,,,,726.7135930005461,727.9229961000383,727.9229961000383,727.9229961000383,727.9229961000383,727.9229961000383,727.9229961000383,727.9229961000383,0.001537899486720562,"['c', 'a', 'r', 'a', 'c', 'o', 'l']",0,caracol,C:\Users\Experimental User\Desktop\experiment\data/010100_REPSWITCH1_v2022.2.4_2023-07-17_16h27.34.455_micResp_recorded\recording_micResp_2023-07-17_16h39.38.469.wav,None,,,,,,,"[0.9322478994727135, 1.1717647993937135, 1.39527059905231, 1.555601299740374, 1.7478922996670008, 1.8278893996030092, 1.971451299265027]",,,,,,010100,001,2023-07-17_16h27.34.455,REPSWITCH1_v2022.2.4,2022.2.4,144.06917648733958,
REPSWITCH1/PICTURE_152.png,caracol,speak,gold,switch,2,T,2,Stim2_Set2,132,131,0,131,131,131,,735.4923857999966,,,,,,,,,,,,,,,,,,,,,,735.9924371000379,731.4439594000578,732.4651725003496,732.4651725003496,732.4651725003496,732.4651725003496,732.4651725003496,732.4651725003496,732.4651725003496,0.001520100049674511,None,0,,C:\Users\Experimental User\Desktop\experiment\data/010100_REPSWITCH1_v2022.2.4_2023-07-17_16h27.34.455_micResp_recorded\recording_micResp_2023-07-17_16h39.43.020.wav,None,735.4923857999966,735.4923857999966,735.4923857999966,735.4923857999966,735.4923857999966,735.4923857999966,,,,,,,010100,001,2023-07-17_16h27.34.455,REPSWITCH1_v2022.2.4,2022.2.4,144.06917648733958,
REPSWITCH1/PICTURE_16.png,cazador,type,darkblue,filler,1,F,2,Stim6_Set1,133,132,0,132,132,132,,740.0770120006055,,,,,,,,,,,,,,,,,,,,,,,735.9924371000379,737.0560544002801,737.0560544002801,737.0560544002801,737.0560544002801,737.0560544002801,737.0560544002801,737.0560544002801,0.0014860006049275398,"['c', 'a', 'z', 'a', 'd', 'o', 'r']",0,cazador,C:\Users\Experimental User\Desktop\experiment\data/010100_REPSWITCH1_v2022.2.4_2023-07-17_16h27.34.455_micResp_recorded\recording_micResp_2023-07-17_16h39.47.601.wav,None,,,,,,,"[0.9034115998074412, 1.1428578002378345, 1.3668432999402285, 1.5268489001318812, 1.7824489995837212, 1.9741952000185847, 2.1511913994327188]",,,,,,010100,001,2023-07-17_16h27.34.455,REPSWITCH1_v2022.2.4,2022.2.4,144.06917648733958,
REPSWITCH1/PICTURE_142.png,vaso,type,darkblue,filler,1,F,2,Stim2_Set1,134,133,0,133,133,133,,744.7227350007743,,,,,,,,,,,,,,,,,,,,,,745.2226618006825,740.5769437002018,741.6953934002668,741.6953934002668,741.6953934002668,741.6953934002668,741.6953934002668,741.6953934002668,741.6953934002668,0.001221800222992897,"['v', 'a', 's', 'o']",0,vaso,C:\Users\Experimental User\Desktop\experiment\data/010100_REPSWITCH1_v2022.2.4_2023-07-17_16h27.34.455_micResp_recorded\recording_micResp_2023-07-17_16h39.52.251.wav,None,744.7227350007743,744.7227350007743,744.7227350007743,744.7227350007743,744.7227350007743,744.7227350007743,"[0.9195909993723035, 1.1276714988052845, 1.3033351991325617, 1.3835334992036223]",,,,,,010100,001,2023-07-17_16h27.34.455,REPSWITCH1_v2022.2.4,2022.2.4,144.06917648733958,
REPSWITCH1/PICTURE_517.png,cuerda,speak,gold,nontarget,2,NT,2,Stim4_Set2,135,134,0,134,134,134,,749.2586216004565,,,,,,,,,,,,,,,,,,,,,,,745.2226618006825,746.2297318000346,746.2297318000346,746.2297318000346,746.2297318000346,746.2297318000346,746.2297318000346,746.2297318000346,0.0014056991785764694,None,0,,C:\Users\Experimental User\Desktop\experiment\data/010100_REPSWITCH1_v2022.2.4_2023-07-17_16h27.34.455_micResp_recorded\recording_micResp_2023-07-17_16h39.56.783.wav,None,749.2586216004565,749.2586216004565,749.2586216004565,749.2586216004565,749.2586216004565,749.2586216004565,,,,,,,010100,001,2023-07-17_16h27.34.455,REPSWITCH1_v2022.2.4,2022.2.4,144.06917648733958,
REPSWITCH1/PICTURE_517.png,cuerda,speak,gold,repeat,2,T,2,Stim4_Set2,136,135,0,135,135,135,,753.8980115000159,,,,,,,,,,,,,,,,,,,,,,,749.7585594002157,750.8770179999992,750.8770179999992,750.8770179999992,750.8770179999992,750.8770179999992,750.8770179999992,750.8770179999992,0.0014247996732592583,None,0,,C:\Users\Experimental User\Desktop\experiment\data/010100_REPSWITCH1_v2022.2.4_2023-07-17_16h27.34.455_micResp_recorded\recording_micResp_2023-07-17_16h40.01.422.wav,None,,,,,,,,,,,,,010100,001,2023-07-17_16h27.34.455,REPSWITCH1_v2022.2.4,2022.2.4,144.06917648733958,
REPSWITCH1/PICTURE_178.png,puente,type,darkblue,filler,1,F,2,Stim1_Set1,137,136,0,136,136,136,,758.4882052000612,,,,,,,,,,,,,,,,,,,,,,758.9881163006648,754.3979819007218,755.4608045006171,755.4608045006171,755.4608045006171,755.4608045006171,755.4608045006171,755.4608045006171,755.4608045006171,0.001321599818766117,"['p', 'u', 'n', 't', 'e']",0,punte,C:\Users\Experimental User\Desktop\experiment\data/010100_REPSWITCH1_v2022.2.4_2023-07-17_16h27.34.455_micResp_recorded\recording_micResp_2023-07-17_16h40.06.016.wav,None,758.4882052000612,758.4882052000612,758.4882052000612,758.4882052000612,758.4882052000612,758.4882052000612,"[0.8981515998020768, 1.1059293998405337, 1.233924999833107, 1.3789045996963978, 1.537911699153483]",,,,,,010100,001,2023-07-17_16h27.34.455,REPSWITCH1_v2022.2.4,2022.2.4,144.06917648733958,
