image,correctAns,famTrials.thisRepN,famTrials.thisTrialN,famTrials.thisN,famTrials.thisIndex,textWelcomeFam.started,textBlank500.started,textInstrFam.started,keyInstrFam.started,keyInstrFam.keys,keyInstrFam.rt,textBlank500.stopped,fixationITI.started,fixationITI.stopped,polygonWhiteFam.started,imageFam.started,micFam.started,textFam.started,textFam.stopped,micFam.clip,textEndFam.started,participant,session,date,expName,psychopyVersion,frameRate,
,,,,,,26.891486699925736,28.904985099914484,29.405798699939623,29.405798699939623,space,0.5954034000169486,,,,,,,,,,,01,001,2023-06-26_12h14.35.745,Fam,2022.2.4,59.844261306791566,
REPSWITCH1_Fam/PICTURE_576.png,guante,0,0,0,18,,38.78478449990507,,,,,30.536498799920082,30.536498799920082,31.820589300012216,31.820589300012216,31.820589300012216,0.10765360004734248,36.15400449989829,38.653496099985205,D:\GitHub\experiment1\data/01_Fam_2023-06-26_12h14.35.745_micFam_recorded\recording_micFam_2023-06-26_12h14.52.583.wav,,01,001,2023-06-26_12h14.35.745,Fam,2022.2.4,59.844261306791566,
REPSWITCH1_Fam/PICTURE_175.png,pintor,0,1,1,4,,47.36588860000484,,,,,,39.18615269998554,40.43516230001114,40.43516230001114,40.43516230001114,0.1183541000355035,44.818768199998885,47.31793869996909,D:\GitHub\experiment1\data/01_Fam_2023-06-26_12h14.35.745_micFam_recorded\recording_micFam_2023-06-26_12h15.01.230.wav,,01,001,2023-06-26_12h14.35.745,Fam,2022.2.4,59.844261306791566,
REPSWITCH1_Fam/PICTURE_319.png,vaca,0,2,2,12,,56.04717959999107,,,,,,47.83415349991992,49.132804499939084,49.132804499939084,49.132804499939084,0.11849669995717704,53.49981269997079,55.99893699993845,D:\GitHub\experiment1\data/01_Fam_2023-06-26_12h14.35.745_micFam_recorded\recording_micFam_2023-06-26_12h15.09.928.wav,,01,001,2023-06-26_12h14.35.745,Fam,2022.2.4,59.844261306791566,
REPSWITCH1_Fam/PICTURE_8.png,pierna,0,3,3,23,,64.66214599995874,,,,,,56.53187369997613,57.647714699967764,57.647714699967764,57.647714699967764,0.00956080004107207,62.131260499940254,64.6303255999228,D:\GitHub\experiment1\data/01_Fam_2023-06-26_12h14.35.745_micFam_recorded\recording_micFam_2023-06-26_12h15.18.543.wav,,01,001,2023-06-26_12h14.35.745,Fam,2022.2.4,59.844261306791566,
REPSWITCH1_Fam/PICTURE_142.png,vaso,0,4,4,1,,73.20993739995174,,,,,,65.14614679990336,66.27871649991721,66.27871649991721,66.27871649991721,0.09901539993006736,70.67909459990915,73.1784318999853,D:\GitHub\experiment1\data/01_Fam_2023-06-26_12h14.35.745_micFam_recorded\recording_micFam_2023-06-26_12h15.27.092.wav,,01,001,2023-06-26_12h14.35.745,Fam,2022.2.4,59.844261306791566,
REPSWITCH1_Fam/PICTURE_16.png,cazador,0,5,5,3,,81.90734999999404,,,,,,73.69417379994411,74.97682969993912,74.97682969993912,74.97682969993912,0.11698789999354631,79.34358939994127,81.84306330000982,D:\GitHub\experiment1\data/01_Fam_2023-06-26_12h14.35.745_micFam_recorded\recording_micFam_2023-06-26_12h15.35.774.wav,,01,001,2023-06-26_12h14.35.745,Fam,2022.2.4,59.844261306791566,
REPSWITCH1_Practice/PICTURE_110.png,mesa,0,6,6,37,,90.62228809995577,,,,,,82.37556019995827,83.67462999990676,83.67462999990676,83.67462999990676,0.10340710007585585,88.05831399990711,90.55761009990238,D:\GitHub\experiment1\data/01_Fam_2023-06-26_12h14.35.745_micFam_recorded\recording_micFam_2023-06-26_12h15.44.491.wav,,01,001,2023-06-26_12h14.35.745,Fam,2022.2.4,59.844261306791566,
REPSWITCH1_Fam/PICTURE_464.png,goma,0,7,7,27,,99.2701844999101,,,,,,91.08987899997737,92.35592289990745,92.35592289990745,92.35592289990745,0.1187840000493452,96.72264159994666,99.22217429999728,D:\GitHub\experiment1\data/01_Fam_2023-06-26_12h14.35.745_micFam_recorded\recording_micFam_2023-06-26_12h15.53.150.wav,,01,001,2023-06-26_12h14.35.745,Fam,2022.2.4,59.844261306791566,
REPSWITCH1_Fam/PICTURE_687.png,camisa,0,8,8,21,,107.9016536999261,,,,,,99.75455369998235,100.87045479996596,100.87045479996596,100.87045479996596,0.01154610002413392,105.35431610001251,107.85371059994213,D:\GitHub\experiment1\data/01_Fam_2023-06-26_12h14.35.745_micFam_recorded\recording_micFam_2023-06-26_12h16.01.770.wav,,01,001,2023-06-26_12h14.35.745,Fam,2022.2.4,59.844261306791566,
REPSWITCH1_Fam/PICTURE_135.png,traje,0,9,9,26,,116.54938439989928,,,,,,108.36941809998825,109.55178029998206,109.55178029998206,109.55178029998206,0.025619199965149164,114.0016609999584,116.5015138000017,D:\GitHub\experiment1\data/01_Fam_2023-06-26_12h14.35.745_micFam_recorded\recording_micFam_2023-06-26_12h16.10.427.wav,,01,001,2023-06-26_12h14.35.745,Fam,2022.2.4,59.844261306791566,
REPSWITCH1_Practice/PICTURE_599.png,nube,0,10,10,33,,125.29729009990115,,,,,,117.0339999999851,118.34940349997487,118.34940349997487,118.34940349997487,0.10350490000564605,122.73321539990138,125.23252239997964,D:\GitHub\experiment1\data/01_Fam_2023-06-26_12h14.35.745_micFam_recorded\recording_micFam_2023-06-26_12h16.19.166.wav,,01,001,2023-06-26_12h14.35.745,Fam,2022.2.4,59.844261306791566,
REPSWITCH1_Fam/PICTURE_552.png,manzana,0,11,11,17,,134.061812800006,,,,,,125.76538489991799,127.03120219998527,127.03120219998527,127.03120219998527,0.011643299949355423,131.5145628999453,134.01378899998963,D:\GitHub\experiment1\data/01_Fam_2023-06-26_12h14.35.745_micFam_recorded\recording_micFam_2023-06-26_12h16.27.930.wav,,01,001,2023-06-26_12h14.35.745,Fam,2022.2.4,59.844261306791566,
REPSWITCH1_Practice/PICTURE_570.png,toro,0,12,12,34,,142.66004170000087,,,,,,134.52959709998686,135.61362269998062,135.61362269998062,135.61362269998062,0.0024380000540986657,140.09570820000954,142.59508879994974,D:\GitHub\experiment1\data/01_Fam_2023-06-26_12h14.35.745_micFam_recorded\recording_micFam_2023-06-26_12h16.36.527.wav,,01,001,2023-06-26_12h14.35.745,Fam,2022.2.4,59.844261306791566,
REPSWITCH1_Practice/PICTURE_733.png,gafas,0,13,13,35,,151.29103409999516,,,,,,143.12781769991852,144.35979449993465,144.35979449993465,144.35979449993465,0.11779010004829615,148.72695949999616,151.22637859999668,D:\GitHub\experiment1\data/01_Fam_2023-06-26_12h14.35.745_micFam_recorded\recording_micFam_2023-06-26_12h16.45.155.wav,,01,001,2023-06-26_12h14.35.745,Fam,2022.2.4,59.844261306791566,
REPSWITCH1_Practice/PICTURE_612.png,rana,0,14,14,32,,160.05582369992044,,,,,,151.7588078000117,153.04188059992157,153.04188059992157,153.04188059992157,0.009896000032313168,157.50808549998328,160.0075632999651,D:\GitHub\experiment1\data/01_Fam_2023-06-26_12h14.35.745_micFam_recorded\recording_micFam_2023-06-26_12h16.53.937.wav,,01,001,2023-06-26_12h14.35.745,Fam,2022.2.4,59.844261306791566,
REPSWITCH1_Fam/PICTURE_546.png,puerta,0,15,15,30,,168.7535359999165,,,,,,160.54023909999523,161.7557197000133,161.7557197000133,161.7557197000133,0.02737829997204244,166.222536199959,168.72235970001202,D:\GitHub\experiment1\data/01_Fam_2023-06-26_12h14.35.745_micFam_recorded\recording_micFam_2023-06-26_12h17.02.633.wav,,01,001,2023-06-26_12h14.35.745,Fam,2022.2.4,59.844261306791566,
REPSWITCH1_Fam/PICTURE_178.png,puente,0,16,16,5,,177.4011610999005,,,,,,169.23790329997428,170.37071980000474,170.37071980000474,170.37071980000474,0.009702600073069334,174.83719270001166,177.33673270000145,D:\GitHub\experiment1\data/01_Fam_2023-06-26_12h14.35.745_micFam_recorded\recording_micFam_2023-06-26_12h17.11.267.wav,,01,001,2023-06-26_12h14.35.745,Fam,2022.2.4,59.844261306791566,
REPSWITCH1_Fam/PICTURE_517.png,cuerda,0,17,17,16,,185.96590589999687,,,,,,177.87030519999098,179.01814659999218,179.01814659999218,179.01814659999218,0.10193400003481656,183.41856539994478,185.91836519993376,D:\GitHub\experiment1\data/01_Fam_2023-06-26_12h14.35.745_micFam_recorded\recording_micFam_2023-06-26_12h17.19.834.wav,,01,001,2023-06-26_12h14.35.745,Fam,2022.2.4,59.844261306791566,
REPSWITCH1_Practice/PICTURE_614.png,reina,0,18,18,36,,194.59729979990516,,,,,,186.433864899911,187.55151219991967,187.55151219991967,187.55151219991967,0.003033700049854815,192.03318209992722,194.53257599996869,D:\GitHub\experiment1\data/01_Fam_2023-06-26_12h14.35.745_micFam_recorded\recording_micFam_2023-06-26_12h17.28.465.wav,,01,001,2023-06-26_12h14.35.745,Fam,2022.2.4,59.844261306791566,
REPSWITCH1_Fam/PICTURE_719.png,baño,0,19,19,22,,203.24485039990395,,,,,,195.06505949993152,196.21433369989973,196.21433369989973,196.21433369989973,0.010551100014708936,200.6968531999737,203.19691910000984,D:\GitHub\experiment1\data/01_Fam_2023-06-26_12h14.35.745_micFam_recorded\recording_micFam_2023-06-26_12h17.37.112.wav,,01,001,2023-06-26_12h14.35.745,Fam,2022.2.4,59.844261306791566,
REPSWITCH1_Fam/PICTURE_545.png,braga,0,20,20,28,,211.992730799946,,,,,,203.71322169993073,204.96242949995212,204.96242949995212,204.96242949995212,0.009058599942363799,209.42908219993114,211.92838109994773,D:\GitHub\experiment1\data/01_Fam_2023-06-26_12h14.35.745_micFam_recorded\recording_micFam_2023-06-26_12h17.45.856.wav,,01,001,2023-06-26_12h14.35.745,Fam,2022.2.4,59.844261306791566,
REPSWITCH1_Fam/PICTURE_728.png,pulpo,0,21,21,29,,220.69144439999945,,,,,,212.46077929995954,213.67694129992742,213.67694129992742,213.67694129992742,0.009763200068846345,218.1601983999135,220.6595468999585,D:\GitHub\experiment1\data/01_Fam_2023-06-26_12h14.35.745_micFam_recorded\recording_micFam_2023-06-26_12h17.54.573.wav,,01,001,2023-06-26_12h14.35.745,Fam,2022.2.4,59.844261306791566,
REPSWITCH1_Fam/PICTURE_35.png,oreja,0,22,22,25,,229.4224635999417,,,,,,221.17543149995618,222.4908609999111,222.4908609999111,222.4908609999111,0.11192639998625964,226.8581656999886,229.35756229993422,D:\GitHub\experiment1\data/01_Fam_2023-06-26_12h14.35.745_micFam_recorded\recording_micFam_2023-06-26_12h18.03.289.wav,,01,001,2023-06-26_12h14.35.745,Fam,2022.2.4,59.844261306791566,
REPSWITCH1_Practice/PICTURE_12.png,sirena,0,23,23,38,,238.18663279991597,,,,,,229.89015859994106,231.15591769991443,231.15591769991443,231.15591769991443,0.00979919999372214,235.62251969997305,238.12276970001403,D:\GitHub\experiment1\data/01_Fam_2023-06-26_12h14.35.745_micFam_recorded\recording_micFam_2023-06-26_12h18.12.053.wav,,01,001,2023-06-26_12h14.35.745,Fam,2022.2.4,59.844261306791566,
REPSWITCH1_Fam/PICTURE_271.png,conejo,0,24,24,10,,246.886171799968,,,,,,238.65500069991685,239.92035229993053,239.92035229993053,239.92035229993053,0.058202699990943074,244.353953099926,246.85348139994312,D:\GitHub\experiment1\data/01_Fam_2023-06-26_12h14.35.745_micFam_recorded\recording_micFam_2023-06-26_12h18.20.766.wav,,01,001,2023-06-26_12h14.35.745,Fam,2022.2.4,59.844261306791566,
REPSWITCH1_Fam/PICTURE_91.png,boca,0,25,25,24,,255.54928149993066,,,,,,247.3694228999084,248.6184189999476,248.6184189999476,248.6184189999476,0.11174159997608513,253.00172870000824,255.50153179990593,D:\GitHub\experiment1\data/01_Fam_2023-06-26_12h14.35.745_micFam_recorded\recording_micFam_2023-06-26_12h18.29.418.wav,,01,001,2023-06-26_12h14.35.745,Fam,2022.2.4,59.844261306791566,
REPSWITCH1_Fam/PICTURE_320.png,iglesia,0,26,26,13,,264.28021599992644,,,,,,256.01718450000044,257.3326896999497,257.3326896999497,257.3326896999497,0.10049319989047945,261.7333112999331,264.2322572999401,D:\GitHub\experiment1\data/01_Fam_2023-06-26_12h14.35.745_micFam_recorded\recording_micFam_2023-06-26_12h18.38.146.wav,,01,001,2023-06-26_12h14.35.745,Fam,2022.2.4,59.844261306791566,
REPSWITCH1_Fam/PICTURE_242.png,cartero,0,27,27,8,,272.8796409999486,,,,,,264.7489704999607,265.8475490999408,265.8475490999408,265.8475490999408,0.009796499973163009,270.33133899990935,,D:\GitHub\experiment1\data/01_Fam_2023-06-26_12h14.35.745_micFam_recorded\recording_micFam_2023-06-26_12h18.46.744.wav,,01,001,2023-06-26_12h14.35.745,Fam,2022.2.4,59.844261306791566,
REPSWITCH1_Fam/PICTURE_636.png,oveja,0,28,28,20,,281.6433485999005,,,,,,273.3465902999742,274.59694719989784,274.59694719989784,274.59694719989784,0.008149900007992983,279.0955829999875,281.5950999999186,D:\GitHub\experiment1\data/01_Fam_2023-06-26_12h14.35.745_micFam_recorded\recording_micFam_2023-06-26_12h18.55.506.wav,,01,001,2023-06-26_12h14.35.745,Fam,2022.2.4,59.844261306791566,
REPSWITCH1_Fam/PICTURE_264.png,mano,0,29,29,9,,290.3079831999494,,,,,,282.11095669993665,283.39349469996523,283.39349469996523,283.39349469996523,0.11487930000294,287.76057219994254,290.27596789994277,D:\GitHub\experiment1\data/01_Fam_2023-06-26_12h14.35.745_micFam_recorded\recording_micFam_2023-06-26_12h19.04.186.wav,,01,001,2023-06-26_12h14.35.745,Fam,2022.2.4,59.844261306791566,
REPSWITCH1_Fam/PICTURE_19.png,pavo,0,30,30,6,,299.0053099999204,,,,,,290.7917474999558,292.07467389991507,292.07467389991507,292.07467389991507,0.11161390005145222,296.4581576999044,298.95743319997564,D:\GitHub\experiment1\data/01_Fam_2023-06-26_12h14.35.745_micFam_recorded\recording_micFam_2023-06-26_12h19.12.873.wav,,01,001,2023-06-26_12h14.35.745,Fam,2022.2.4,59.844261306791566,
REPSWITCH1_Fam/PICTURE_381.png,fresa,0,31,31,14,,307.60379959992133,,,,,,299.4734812999377,300.5893200999126,300.5893200999126,300.5893200999126,0.01011789997573942,305.07270429993514,307.5721375999274,D:\GitHub\experiment1\data/01_Fam_2023-06-26_12h14.35.745_micFam_recorded\recording_micFam_2023-06-26_12h19.21.485.wav,,01,001,2023-06-26_12h14.35.745,Fam,2022.2.4,59.844261306791566,
REPSWITCH1_Fam/PICTURE_610.png,miel,0,32,32,19,,316.3351033999352,,,,,,308.08812619990204,309.3036832999205,309.3036832999205,309.3036832999205,0.02251459995750338,313.787319199997,316.2866534999339,D:\GitHub\experiment1\data/01_Fam_2023-06-26_12h14.35.745_micFam_recorded\recording_micFam_2023-06-26_12h19.30.203.wav,,01,001,2023-06-26_12h14.35.745,Fam,2022.2.4,59.844261306791566,
REPSWITCH1_Fam/PICTURE_128.png,muñeca,0,33,33,0,,325.01635189994704,,,,,,316.80247699993197,318.08479069999885,318.08479069999885,318.08479069999885,0.10560409992467612,322.48514579993207,324.9843452000059,D:\GitHub\experiment1\data/01_Fam_2023-06-26_12h14.35.745_micFam_recorded\recording_micFam_2023-06-26_12h19.38.894.wav,,01,001,2023-06-26_12h14.35.745,Fam,2022.2.4,59.844261306791566,
REPSWITCH1_Fam/PICTURE_199.png,falda,0,34,34,31,,333.7138296999037,,,,,,325.5005546999164,326.6998015999561,326.6998015999561,326.6998015999561,0.009463399997912347,331.1828658999875,333.682184199919,D:\GitHub\experiment1\data/01_Fam_2023-06-26_12h14.35.745_micFam_recorded\recording_micFam_2023-06-26_12h19.47.595.wav,,01,001,2023-06-26_12h14.35.745,Fam,2022.2.4,59.844261306791566,
REPSWITCH1_Fam/PICTURE_30.png,granja,0,35,35,11,,342.27834999992047,,,,,,334.1984132999787,335.24761339998804,335.24761339998804,335.24761339998804,0.011197700048796833,339.71428809990175,342.21357299992815,D:\GitHub\experiment1\data/01_Fam_2023-06-26_12h14.35.745_micFam_recorded\recording_micFam_2023-06-26_12h19.56.146.wav,,01,001,2023-06-26_12h14.35.745,Fam,2022.2.4,59.844261306791566,
REPSWITCH1_Fam/PICTURE_152.png,caracol,0,36,36,2,,350.9099101999309,,,,,,342.74661599996034,343.8791601000121,343.8791601000121,343.8791601000121,0.009956499910913408,348.3456942999037,350.8450135999592,D:\GitHub\experiment1\data/01_Fam_2023-06-26_12h14.35.745_micFam_recorded\recording_micFam_2023-06-26_12h20.04.775.wav,,01,001,2023-06-26_12h14.35.745,Fam,2022.2.4,59.844261306791566,
REPSWITCH1_Fam/PICTURE_235.png,aguja,0,37,37,7,,359.7410660999594,,,,,,351.37756829999853,352.7431521000108,352.7431521000108,352.7431521000108,0.03775290003977716,357.2100972000044,359.7094057999784,D:\GitHub\experiment1\data/01_Fam_2023-06-26_12h14.35.745_micFam_recorded\recording_micFam_2023-06-26_12h20.13.621.wav,,01,001,2023-06-26_12h14.35.745,Fam,2022.2.4,59.844261306791566,
REPSWITCH1_Fam/PICTURE_48.png,bombero,0,38,38,15,,368.4888949999586,,,,,,360.22529589990154,361.557794699911,361.557794699911,361.557794699911,0.09839170007035136,365.9417525999015,368.44078599999193,D:\GitHub\experiment1\data/01_Fam_2023-06-26_12h14.35.745_micFam_recorded\recording_micFam_2023-06-26_12h20.22.368.wav,,01,001,2023-06-26_12h14.35.745,Fam,2022.2.4,59.844261306791566,
,,,,,,,368.9732957999222,,,,,,,,,,,,,,369.47335929994006,,,,,,,
