image,correctAns,respModal,frameColor,repSwitch,sequence,target,set,block,list,exp_version,stimulus,baseline,baseline_condition,trial_no,psychopy_trial,Column1,trialsREPSWITCH.thisRepN,trialsREPSWITCH.thisTrialN,trialsREPSWITCH.thisN,trialsREPSWITCH.thisIndex,textWelcome.started,textboxInstrMain1.started,textboxInstrMain1_2.started,textboxInstrMain1_3.started,keyInstrMain.started,keyInstrMain.keys,keyInstrMain.rt,textboxInstrMain2.started,textboxInstrMain2_2.started,textboxInstrMain2_3.started,textboxInstrMain2_4.started,textboxInstrMain2_5.started,textboxInstrMain2_6.started,textboxInstrMain2_7.started,textboxInstrMain2_8.started,textboxInstrMain2_9.started,textboxInstrMain2_10.started,textboxInstrMain2_11.started,textboxInstrMain2_12.started,keyInstrMain2.started,keyInstrMain2.keys,keyInstrMain2.rt,fixationITI.started,fixationITI.stopped,polygonColour.started,polygonWhite.started,imageObject.started,polygonType.started,textInput.started,keyResp.started,micRespv2l1.started,keyResp.keys,keyResp.corr,keyResp.rt,subjResponse,micRespv2l1.clip,textBlankLoop.started,textBlankLoop.stopped,keyPause.keys,polygonColour.stopped,polygonWhite.stopped,imageObject.stopped,polygonType.stopped,textInput.stopped,keyResp.stopped,textboxPause.started,keyPause.started,keyPause.rt,textboxGoodbye.started,textboxGoodbye.stopped,participant,session,date,expName,psychopyVersion,frameRate,
,,,,,,,,,,,,,,,,,,,,,10.337624300038442,12.836262700031511,12.836262700031511,12.836262700031511,12.836262700031511,space,12.80863419995876,,,,,,,,,,,,,,,,,,,,,,,,,,,,,,,,,,,,,,,,,,,,02.02.01,001,2023-11-10_15h41.55.444,REPSWITCH1_version2_list1,2022.2.4,144.00258061295042,
,,,,,,,,,,,,,,,,,,,,,,,,,,,,25.6643308000057,25.6643308000057,25.6643308000057,25.6643308000057,25.6643308000057,25.6643308000057,25.6643308000057,25.6643308000057,25.6643308000057,25.6643308000057,25.6643308000057,25.6643308000057,25.6643308000057,space,0.01536580000538379,,,,,,,,,,,,,,,,,,,,,,,,,,,,,02.02.01,001,2023-11-10_15h41.55.444,REPSWITCH1_version2_list1,2022.2.4,144.00258061295042,
REPSWITCH1/PICTURE_340.png,espejo,type,gold,filler,1,F,1,1,1,2,Extra1,0,None,1,0,1,0,0,0,0,,,,,,,,,,,,,,,,,,,,,,,25.775418900011573,26.845076000026893,26.845076000026893,26.845076000026893,26.845076000026893,26.845076000026893,26.845076000026893,26.845076000026893,26.845076000026893,"['e', 's', 'p', 'e', 'j', 'o']",0,"[1.175958499952685, 1.4175215999712236, 1.658853699977044, 1.787695899954997, 2.0969793999684043, 2.326984099985566]",espejo,C:\2023\REPSWITCH21092023\REPSWITCH_excgange\REPSWITCH_excgange\data/02.02.01_REPSWITCH1_version2_list1_2023-11-10_15h41.55.444_micRespv2l1_recorded\recording_micRespv2l1_2023-11-10_15h42.16.712.wav,29.866283000039402,30.366402000014205,None,,,,,,,,,,,,02.02.01,001,2023-11-10_15h41.55.444,REPSWITCH1_version2_list1,2022.2.4,144.00258061295042,
REPSWITCH1/PICTURE_391.png,cadena,speak,darkblue,filler,2,F,1,1,1,2,Extra2,0,None,2,1,2,0,1,1,1,,,,,,,,,,,,,,,,,,,,,,,30.366402000014205,31.428954800008796,31.428954800008796,31.428954800008796,31.428954800008796,31.428954800008796,31.428954800008796,31.428954800008796,31.428954800008796,None,0,,,C:\2023\REPSWITCH21092023\REPSWITCH_excgange\REPSWITCH_excgange\data/02.02.01_REPSWITCH1_version2_list1_2023-11-10_15h41.55.444_micRespv2l1_recorded\recording_micRespv2l1_2023-11-10_15h42.21.300.wav,34.457155200012494,34.95728150004288,None,34.457155200012494,34.457155200012494,34.457155200012494,34.457155200012494,34.457155200012494,34.457155200012494,,,,,,02.02.01,001,2023-11-10_15h41.55.444,REPSWITCH1_version2_list1,2022.2.4,144.00258061295042,
REPSWITCH1/PICTURE_178.png,puente,speak,darkblue,nontarget,2,NT,1,1,1,2,Stim1_Set1,1,repeat,3,2,3,0,2,2,2,,,,,,,,,,,,,,,,,,,,,,,34.95728150004288,35.99904200003948,35.99904200003948,35.99904200003948,35.99904200003948,35.99904200003948,35.99904200003948,35.99904200003948,35.99904200003948,None,0,,,C:\2023\REPSWITCH21092023\REPSWITCH_excgange\REPSWITCH_excgange\data/02.02.01_REPSWITCH1_version2_list1_2023-11-10_15h41.55.444_micRespv2l1_recorded\recording_micRespv2l1_2023-11-10_15h42.25.868.wav,39.027243500051554,,None,39.027243500051554,39.027243500051554,39.027243500051554,39.027243500051554,39.027243500051554,39.027243500051554,,,,,,02.02.01,001,2023-11-10_15h41.55.444,REPSWITCH1_version2_list1,2022.2.4,144.00258061295042,
REPSWITCH1/PICTURE_178.png,puente,speak,darkblue,repeat,2,T,1,1,1,2,Stim1_Set1,0,None,4,3,4,0,3,3,3,,,,,,,,,,,,,,,,,,,,,,,39.5272576000425,40.65241989999777,40.65241989999777,40.65241989999777,40.65241989999777,40.65241989999777,40.65241989999777,40.65241989999777,40.65241989999777,None,0,,,C:\2023\REPSWITCH21092023\REPSWITCH_excgange\REPSWITCH_excgange\data/02.02.01_REPSWITCH1_version2_list1_2023-11-10_15h41.55.444_micRespv2l1_recorded\recording_micRespv2l1_2023-11-10_15h42.30.522.wav,43.68055570003344,44.180644000007305,None,43.68055570003344,43.68055570003344,43.68055570003344,43.68055570003344,43.68055570003344,43.68055570003344,,,,,,02.02.01,001,2023-11-10_15h41.55.444,REPSWITCH1_version2_list1,2022.2.4,144.00258061295042,
REPSWITCH1/PICTURE_319.png,vaca,type,gold,filler,1,F,1,1,1,2,Stim1_Set4,0,None,5,4,5,0,4,4,4,,,,,,,,,,,,,,,,,,,,,,,44.180644000007305,45.23631950002164,45.23631950002164,45.23631950002164,45.23631950002164,45.23631950002164,45.23631950002164,45.23631950002164,45.23631950002164,"['v', 'a', 'c', 'a']",0,"[1.1340914000174962, 1.3473652999964543, 1.578925000037998, 1.7449228000477888]",vaca,C:\2023\REPSWITCH21092023\REPSWITCH_excgange\REPSWITCH_excgange\data/02.02.01_REPSWITCH1_version2_list1_2023-11-10_15h41.55.444_micRespv2l1_recorded\recording_micRespv2l1_2023-11-10_15h42.35.106.wav,48.257530500006396,48.7576120000449,None,48.257530500006396,48.257530500006396,48.257530500006396,48.257530500006396,48.257530500006396,48.257530500006396,,,,,,02.02.01,001,2023-11-10_15h41.55.444,REPSWITCH1_version2_list1,2022.2.4,144.00258061295042,
REPSWITCH1/PICTURE_381.png,fresa,speak,darkblue,nontarget,2,NT,1,1,1,2,Stim2_Set1,1,switch,6,5,6,0,5,5,5,,,,,,,,,,,,,,,,,,,,,,,48.7576120000449,49.83420760004083,49.83420760004083,49.83420760004083,49.83420760004083,49.83420760004083,49.83420760004083,49.83420760004083,49.83420760004083,None,0,,,C:\2023\REPSWITCH21092023\REPSWITCH_excgange\REPSWITCH_excgange\data/02.02.01_REPSWITCH1_version2_list1_2023-11-10_15h41.55.444_micRespv2l1_recorded\recording_micRespv2l1_2023-11-10_15h42.39.704.wav,52.85536139999749,53.35542680002982,None,52.85536139999749,52.85536139999749,52.85536139999749,52.85536139999749,52.85536139999749,52.85536139999749,,,,,,02.02.01,001,2023-11-10_15h41.55.444,REPSWITCH1_version2_list1,2022.2.4,144.00258061295042,
REPSWITCH1/PICTURE_381.png,fresa,speak,darkblue,repeat,2,T,1,1,1,2,Stim2_Set1,0,None,7,6,7,0,6,6,6,,,,,,,,,,,,,,,,,,,,,,,53.35542680002982,54.58484580001095,54.58484580001095,54.58484580001095,54.58484580001095,54.58484580001095,54.58484580001095,54.58484580001095,54.58484580001095,None,0,,,C:\2023\REPSWITCH21092023\REPSWITCH_excgange\REPSWITCH_excgange\data/02.02.01_REPSWITCH1_version2_list1_2023-11-10_15h41.55.444_micRespv2l1_recorded\recording_micRespv2l1_2023-11-10_15h42.44.454.wav,57.606073800008744,58.106072499998845,None,57.606073800008744,57.606073800008744,57.606073800008744,57.606073800008744,57.606073800008744,57.606073800008744,,,,,,02.02.01,001,2023-11-10_15h41.55.444,REPSWITCH1_version2_list1,2022.2.4,144.00258061295042,
REPSWITCH1/PICTURE_719.png,baño,type,gold,filler,1,F,1,1,1,2,Stim2_Set4,1,switch,8,7,8,0,7,7,7,,,,,,,,,,,,,,,,,,,,,,,58.106072499998845,59.19650950003415,59.19650950003415,59.19650950003415,59.19650950003415,59.19650950003415,59.19650950003415,59.19650950003415,59.19650950003415,"['b', 'a', 'ñ', 'o']",0,"[1.0924952999921516, 1.278869499976281, 1.6865098000271246, 1.9094106000266038]",baño,C:\2023\REPSWITCH21092023\REPSWITCH_excgange\REPSWITCH_excgange\data/02.02.01_REPSWITCH1_version2_list1_2023-11-10_15h41.55.444_micRespv2l1_recorded\recording_micRespv2l1_2023-11-10_15h42.49.066.wav,62.21779820002848,62.717772000003606,None,62.21779820002848,62.21779820002848,62.21779820002848,62.21779820002848,62.21779820002848,62.21779820002848,,,,,,02.02.01,001,2023-11-10_15h41.55.444,REPSWITCH1_version2_list1,2022.2.4,144.00258061295042,
REPSWITCH1/PICTURE_135.png,traje,speak,darkblue,nontarget,2,NT,1,1,1,2,Stim3_Set1,0,None,9,8,9,0,8,8,8,,,,,,,,,,,,,,,,,,,,,,,62.717772000003606,63.84991170000285,63.84991170000285,63.84991170000285,63.84991170000285,63.84991170000285,63.84991170000285,63.84991170000285,63.84991170000285,None,0,,,C:\2023\REPSWITCH21092023\REPSWITCH_excgange\REPSWITCH_excgange\data/02.02.01_REPSWITCH1_version2_list1_2023-11-10_15h41.55.444_micRespv2l1_recorded\recording_micRespv2l1_2023-11-10_15h42.53.720.wav,66.87807900004555,,None,66.87807900004555,66.87807900004555,66.87807900004555,66.87807900004555,66.87807900004555,66.87807900004555,,,,,,02.02.01,001,2023-11-10_15h41.55.444,REPSWITCH1_version2_list1,2022.2.4,144.00258061295042,
REPSWITCH1/PICTURE_135.png,traje,type,gold,switch,1,T,1,1,1,2,Stim3_Set1,0,None,10,9,10,0,9,9,9,,,,,,,,,,,,,,,,,,,,,,,67.378122300026,68.4963336000219,68.4963336000219,68.4963336000219,68.4963336000219,68.4963336000219,68.4963336000219,68.4963336000219,68.4963336000219,"['t', 'r', 'a', 'j', 'e']",0,"[1.0325067000230774, 1.2537669999874197, 1.429063000017777, 1.7692509000189602, 1.970903699984774]",traje,C:\2023\REPSWITCH21092023\REPSWITCH_excgange\REPSWITCH_excgange\data/02.02.01_REPSWITCH1_version2_list1_2023-11-10_15h41.55.444_micRespv2l1_recorded\recording_micRespv2l1_2023-11-10_15h42.58.366.wav,71.51751560001867,72.01761350000743,None,71.51751560001867,71.51751560001867,71.51751560001867,71.51751560001867,71.51751560001867,71.51751560001867,,,,,,02.02.01,001,2023-11-10_15h41.55.444,REPSWITCH1_version2_list1,2022.2.4,144.00258061295042,
REPSWITCH1/PICTURE_687.png,camisa,speak,darkblue,filler,2,F,1,1,1,2,Stim5_Set4,0,None,11,10,11,0,10,10,10,,,,,,,,,,,,,,,,,,,,,,,72.01761350000743,73.15664790000301,73.15664790000301,73.15664790000301,73.15664790000301,73.15664790000301,73.15664790000301,73.15664790000301,73.15664790000301,None,0,,,C:\2023\REPSWITCH21092023\REPSWITCH_excgange\REPSWITCH_excgange\data/02.02.01_REPSWITCH1_version2_list1_2023-11-10_15h41.55.444_micRespv2l1_recorded\recording_micRespv2l1_2023-11-10_15h43.03.028.wav,76.18483120005112,,None,76.18483120005112,76.18483120005112,76.18483120005112,76.18483120005112,76.18483120005112,76.18483120005112,,,,,,02.02.01,001,2023-11-10_15h41.55.444,REPSWITCH1_version2_list1,2022.2.4,144.00258061295042,
REPSWITCH1/PICTURE_128.png,muñeca,type,gold,nontarget,1,NT,1,1,1,2,Stim4_Set1,1,switch,12,11,12,0,11,11,11,,,,,,,,,,,,,,,,,,,,,,,76.68495070002973,77.90031430003,77.90031430003,77.90031430003,77.90031430003,77.90031430003,77.90031430003,77.90031430003,77.90031430003,"['m', 'u', 'ñ', 'e', 'c', 'a']",0,"[1.3044340999913402, 1.5258615000057034, 1.9332502000033855, 2.0917071999865584, 2.4722861000336707, 2.607809300010558]",muñeca,C:\2023\REPSWITCH21092023\REPSWITCH_excgange\REPSWITCH_excgange\data/02.02.01_REPSWITCH1_version2_list1_2023-11-10_15h41.55.444_micRespv2l1_recorded\recording_micRespv2l1_2023-11-10_15h43.07.770.wav,80.92153360001976,81.42168100003619,None,80.92153360001976,80.92153360001976,80.92153360001976,80.92153360001976,80.92153360001976,80.92153360001976,,,,,,02.02.01,001,2023-11-10_15h41.55.444,REPSWITCH1_version2_list1,2022.2.4,144.00258061295042,
REPSWITCH1/PICTURE_128.png,muñeca,speak,darkblue,switch,2,T,1,1,1,2,Stim4_Set1,0,None,13,12,13,0,12,12,12,,,,,,,,,,,,,,,,,,,,,,,81.42168100003619,82.5190001000301,82.5190001000301,82.5190001000301,82.5190001000301,82.5190001000301,82.5190001000301,82.5190001000301,82.5190001000301,None,0,,,C:\2023\REPSWITCH21092023\REPSWITCH_excgange\REPSWITCH_excgange\data/02.02.01_REPSWITCH1_version2_list1_2023-11-10_15h41.55.444_micRespv2l1_recorded\recording_micRespv2l1_2023-11-10_15h43.12.388.wav,85.54022720002104,86.04028160002781,None,85.54022720002104,85.54022720002104,85.54022720002104,85.54022720002104,85.54022720002104,85.54022720002104,,,,,,02.02.01,001,2023-11-10_15h41.55.444,REPSWITCH1_version2_list1,2022.2.4,144.00258061295042,
REPSWITCH1/PICTURE_8.png,pierna,speak,darkblue,filler,2,F,1,1,1,2,Stim3_Set4,0,None,14,13,14,0,13,13,13,,,,,,,,,,,,,,,,,,,,,,,86.04028160002781,87.12380689999554,87.12380689999554,87.12380689999554,87.12380689999554,87.12380689999554,87.12380689999554,87.12380689999554,87.12380689999554,None,0,,,C:\2023\REPSWITCH21092023\REPSWITCH_excgange\REPSWITCH_excgange\data/02.02.01_REPSWITCH1_version2_list1_2023-11-10_15h41.55.444_micRespv2l1_recorded\recording_micRespv2l1_2023-11-10_15h43.16.993.wav,90.15191980003146,,None,90.15191980003146,90.15191980003146,90.15191980003146,90.15191980003146,90.15191980003146,90.15191980003146,,,,,,02.02.01,001,2023-11-10_15h41.55.444,REPSWITCH1_version2_list1,2022.2.4,144.00258061295042,
REPSWITCH1/PICTURE_19.png,pavo,speak,darkblue,nontarget,2,NT,1,1,1,2,Stim5_Set1,0,None,15,14,15,0,14,14,14,,,,,,,,,,,,,,,,,,,,,,,90.6519955000258,91.7840815000236,91.7840815000236,91.7840815000236,91.7840815000236,91.7840815000236,91.7840815000236,91.7840815000236,91.7840815000236,None,0,,,C:\2023\REPSWITCH21092023\REPSWITCH_excgange\REPSWITCH_excgange\data/02.02.01_REPSWITCH1_version2_list1_2023-11-10_15h41.55.444_micRespv2l1_recorded\recording_micRespv2l1_2023-11-10_15h43.21.654.wav,94.80530090001412,95.30543510004645,None,94.80530090001412,94.80530090001412,94.80530090001412,94.80530090001412,94.80530090001412,94.80530090001412,,,,,,02.02.01,001,2023-11-10_15h41.55.444,REPSWITCH1_version2_list1,2022.2.4,144.00258061295042,
REPSWITCH1/PICTURE_19.png,pavo,type,gold,switch,1,T,1,1,1,2,Stim5_Set1,0,None,16,15,16,0,15,15,15,,,,,,,,,,,,,,,,,,,,,,,95.30543510004645,96.34724040003493,96.34724040003493,96.34724040003493,96.34724040003493,96.34724040003493,96.34724040003493,96.34724040003493,96.34724040003493,"['p', 'a', 'v', 'o']",0,"[1.3202079000184312, 1.4421067999792285, 1.7815029000048526, 1.93895139999222]",pavo,C:\2023\REPSWITCH21092023\REPSWITCH_excgange\REPSWITCH_excgange\data/02.02.01_REPSWITCH1_version2_list1_2023-11-10_15h41.55.444_micRespv2l1_recorded\recording_micRespv2l1_2023-11-10_15h43.26.217.wav,99.37535830005072,,None,99.37535830005072,99.37535830005072,99.37535830005072,99.37535830005072,99.37535830005072,99.37535830005072,,,,,,02.02.01,001,2023-11-10_15h41.55.444,REPSWITCH1_version2_list1,2022.2.4,144.00258061295042,
REPSWITCH1/PICTURE_16.png,cazador,type,gold,nontarget,1,NT,1,1,1,2,Stim6_Set1,1,switch,17,16,17,0,16,16,16,,,,,,,,,,,,,,,,,,,,,,,99.87539910001215,100.93114370002877,100.93114370002877,100.93114370002877,100.93114370002877,100.93114370002877,100.93114370002877,100.93114370002877,100.93114370002877,"['c', 'a', 'z', 'a', 'd', 'o', 'r']",0,"[1.0515481000184081, 1.204283899976872, 1.6651182000059634, 1.9320708999875933, 2.2559818000299856, 2.4403386000194587, 2.617769500007853]",cazador,C:\2023\REPSWITCH21092023\REPSWITCH_excgange\REPSWITCH_excgange\data/02.02.01_REPSWITCH1_version2_list1_2023-11-10_15h41.55.444_micRespv2l1_recorded\recording_micRespv2l1_2023-11-10_15h43.30.801.wav,103.95232690003468,104.4523778000148,None,103.95232690003468,103.95232690003468,103.95232690003468,103.95232690003468,103.95232690003468,103.95232690003468,,,,,,02.02.01,001,2023-11-10_15h41.55.444,REPSWITCH1_version2_list1,2022.2.4,144.00258061295042,
REPSWITCH1/PICTURE_16.png,cazador,type,gold,repeat,1,T,1,1,1,2,Stim6_Set1,0,None,18,17,18,0,17,17,17,,,,,,,,,,,,,,,,,,,,,,,104.4523778000148,105.53590710001299,105.53590710001299,105.53590710001299,105.53590710001299,105.53590710001299,105.53590710001299,105.53590710001299,105.53590710001299,"['c', 'a', 'z', 'a', 'd', 'o', 'r']",0,"[0.9800879000104032, 1.092704100010451, 1.6651037000119686, 1.8016341000329703, 2.121823100023903, 2.2991930000134744, 2.4816237000050023]",cazador,C:\2023\REPSWITCH21092023\REPSWITCH_excgange\REPSWITCH_excgange\data/02.02.01_REPSWITCH1_version2_list1_2023-11-10_15h41.55.444_micRespv2l1_recorded\recording_micRespv2l1_2023-11-10_15h43.35.406.wav,108.56406280002557,,None,108.56406280002557,108.56406280002557,108.56406280002557,108.56406280002557,108.56406280002557,108.56406280002557,,,,,,02.02.01,001,2023-11-10_15h41.55.444,REPSWITCH1_version2_list1,2022.2.4,144.00258061295042,
REPSWITCH1/PICTURE_498.png,taza,speak,darkblue,filler,2,F,1,1,1,2,Stim4_Set4,0,None,19,18,19,0,18,18,18,,,,,,,,,,,,,,,,,,,,,,,109.06413450004766,110.22401240002364,110.22401240002364,110.22401240002364,110.22401240002364,110.22401240002364,110.22401240002364,110.22401240002364,110.22401240002364,None,0,,,C:\2023\REPSWITCH21092023\REPSWITCH_excgange\REPSWITCH_excgange\data/02.02.01_REPSWITCH1_version2_list1_2023-11-10_15h41.55.444_micRespv2l1_recorded\recording_micRespv2l1_2023-11-10_15h43.40.095.wav,113.25215610000305,113.75223189999815,None,113.25215610000305,113.25215610000305,113.25215610000305,113.25215610000305,113.25215610000305,113.25215610000305,,,,,,02.02.01,001,2023-11-10_15h41.55.444,REPSWITCH1_version2_list1,2022.2.4,144.00258061295042,
REPSWITCH1/PICTURE_48.png,bombero,type,gold,filler,1,F,1,1,1,2,Stim7_Set4,0,None,20,19,20,0,19,19,19,,,,,,,,,,,,,,,,,,,,,,,113.75223189999815,114.82878199999686,114.82878199999686,114.82878199999686,114.82878199999686,114.82878199999686,114.82878199999686,114.82878199999686,114.82878199999686,"['b', 'o', 'm', 'b', 'e', 'r', 'o']",0,"[1.238722299982328, 1.3673486999468878, 1.615712099999655, 1.768222299986519, 2.00546769995708, 2.29665389994625, 2.4604860999970697]",bombero,C:\2023\REPSWITCH21092023\REPSWITCH_excgange\REPSWITCH_excgange\data/02.02.01_REPSWITCH1_version2_list1_2023-11-10_15h41.55.444_micRespv2l1_recorded\recording_micRespv2l1_2023-11-10_15h43.44.698.wav,117.850017400051,118.35008190001827,None,117.850017400051,117.850017400051,117.850017400051,117.850017400051,117.850017400051,117.850017400051,,,,,,02.02.01,001,2023-11-10_15h41.55.444,REPSWITCH1_version2_list1,2022.2.4,144.00258061295042,
REPSWITCH1/PICTURE_142.png,vaso,type,gold,nontarget,1,NT,1,1,1,2,Stim7_Set1,1,repeat,21,20,21,0,20,20,20,,,,,,,,,,,,,,,,,,,,,,,118.35008190001827,119.4961054000305,119.4961054000305,119.4961054000305,119.4961054000305,119.4961054000305,119.4961054000305,119.4961054000305,119.4961054000305,"['v', 'a', 's', 'o']",0,"[1.4640132000204176, 1.5368067999952473, 1.7842692999984138, 1.9590582000091672]",vaso,C:\2023\REPSWITCH21092023\REPSWITCH_excgange\REPSWITCH_excgange\data/02.02.01_REPSWITCH1_version2_list1_2023-11-10_15h41.55.444_micRespv2l1_recorded\recording_micRespv2l1_2023-11-10_15h43.49.366.wav,122.5242975000292,,None,122.5242975000292,122.5242975000292,122.5242975000292,122.5242975000292,122.5242975000292,122.5242975000292,,,,,,02.02.01,001,2023-11-10_15h41.55.444,REPSWITCH1_version2_list1,2022.2.4,144.00258061295042,
REPSWITCH1/PICTURE_142.png,vaso,type,gold,repeat,1,T,1,1,1,2,Stim7_Set1,0,None,22,21,22,0,21,21,21,,,,,,,,,,,,,,,,,,,,,,,123.02428300003521,124.10082940000575,124.10082940000575,124.10082940000575,124.10082940000575,124.10082940000575,124.10082940000575,124.10082940000575,124.10082940000575,"['v', 'a', 's', 'o']",0,"[0.9946514000184834, 1.0823874000343494, 1.307597600040026, 1.5069745000218973]",vaso,C:\2023\REPSWITCH21092023\REPSWITCH_excgange\REPSWITCH_excgange\data/02.02.01_REPSWITCH1_version2_list1_2023-11-10_15h41.55.444_micRespv2l1_recorded\recording_micRespv2l1_2023-11-10_15h43.53.970.wav,127.12204859999474,127.622075900028,None,127.12204859999474,127.12204859999474,127.12204859999474,127.12204859999474,127.12204859999474,127.12204859999474,,,,,,02.02.01,001,2023-11-10_15h41.55.444,REPSWITCH1_version2_list1,2022.2.4,144.00258061295042,
REPSWITCH1/PICTURE_338.png,regalo,speak,darkblue,filler,2,F,1,1,1,2,Stim6_Set4,1,switch,23,22,23,0,22,22,22,,,,,,,,,,,,,,,,,,,,,,,127.622075900028,128.65699270000914,128.65699270000914,128.65699270000914,128.65699270000914,128.65699270000914,128.65699270000914,128.65699270000914,128.65699270000914,None,0,,,C:\2023\REPSWITCH21092023\REPSWITCH_excgange\REPSWITCH_excgange\data/02.02.01_REPSWITCH1_version2_list1_2023-11-10_15h41.55.444_micRespv2l1_recorded\recording_micRespv2l1_2023-11-10_15h43.58.527.wav,131.6851554000168,,None,131.6851554000168,131.6851554000168,131.6851554000168,131.6851554000168,131.6851554000168,131.6851554000168,,,,,,02.02.01,001,2023-11-10_15h41.55.444,REPSWITCH1_version2_list1,2022.2.4,144.00258061295042,
REPSWITCH1/PICTURE_728.png,pulpo,type,gold,filler,1,F,1,1,1,2,Stim8_Set4,1,switch,24,23,24,0,23,23,23,,,,,,,,,,,,,,,,,,,,,,,132.18521110003348,133.25478400004795,133.25478400004795,133.25478400004795,133.25478400004795,133.25478400004795,133.25478400004795,133.25478400004795,133.25478400004795,"['p', 'u', 'l', 'p', 'o']",0,"[1.4232424999936484, 1.7318396999617107, 2.0278893999638967, 2.295654299960006, 2.6063362999702804]",pulpo,C:\2023\REPSWITCH21092023\REPSWITCH_excgange\REPSWITCH_excgange\data/02.02.01_REPSWITCH1_version2_list1_2023-11-10_15h41.55.444_micRespv2l1_recorded\recording_micRespv2l1_2023-11-10_15h44.03.125.wav,136.27602420002222,136.77609040000243,None,136.27602420002222,136.27602420002222,136.27602420002222,136.27602420002222,136.27602420002222,136.27602420002222,,,,,,02.02.01,001,2023-11-10_15h41.55.444,REPSWITCH1_version2_list1,2022.2.4,144.00258061295042,
REPSWITCH1/PICTURE_169.png,espalda,type,gold,nontarget,1,NT,1,1,1,2,Stim8_Set1,1,repeat,25,24,25,0,24,24,24,,,,,,,,,,,,,,,,,,,,,,,136.77609040000243,137.8109614000423,137.8109614000423,137.8109614000423,137.8109614000423,137.8109614000423,137.8109614000423,137.8109614000423,137.8109614000423,"['e', 's', 'p', 'a', 'l', 'd', 'a']",0,"[1.1914302000077441, 1.423713099968154, 1.6469054999761283, 1.7505707999807782, 1.9412757999962196, 2.1651734999613836, 2.279806899954565]",espalda,C:\2023\REPSWITCH21092023\REPSWITCH_excgange\REPSWITCH_excgange\data/02.02.01_REPSWITCH1_version2_list1_2023-11-10_15h41.55.444_micRespv2l1_recorded\recording_micRespv2l1_2023-11-10_15h44.07.680.wav,140.83224950003205,141.33226070000092,None,140.83224950003205,140.83224950003205,140.83224950003205,140.83224950003205,140.83224950003205,140.83224950003205,,,,,,02.02.01,001,2023-11-10_15h41.55.444,REPSWITCH1_version2_list1,2022.2.4,144.00258061295042,
REPSWITCH1/PICTURE_169.png,espalda,speak,darkblue,switch,2,T,1,1,1,2,Stim8_Set1,0,None,26,25,26,0,25,25,25,,,,,,,,,,,,,,,,,,,,,,,141.33226070000092,142.3879956000019,142.3879956000019,142.3879956000019,142.3879956000019,142.3879956000019,142.3879956000019,142.3879956000019,142.3879956000019,None,0,,,C:\2023\REPSWITCH21092023\REPSWITCH_excgange\REPSWITCH_excgange\data/02.02.01_REPSWITCH1_version2_list1_2023-11-10_15h41.55.444_micRespv2l1_recorded\recording_micRespv2l1_2023-11-10_15h44.12.257.wav,145.40916540002218,145.90923220000695,None,145.40916540002218,145.40916540002218,145.40916540002218,145.40916540002218,145.40916540002218,145.40916540002218,,,,,,02.02.01,001,2023-11-10_15h41.55.444,REPSWITCH1_version2_list1,2022.2.4,144.00258061295042,
REPSWITCH1/PICTURE_178.png,puente,speak,darkblue,filler,2,F,2,1,1,2,Stim1_Set1,0,None,27,26,27,0,26,26,26,,,,,,,,,,,,,,,,,,,,,,,145.90923220000695,147.02742050000234,147.02742050000234,147.02742050000234,147.02742050000234,147.02742050000234,147.02742050000234,147.02742050000234,147.02742050000234,None,0,,,C:\2023\REPSWITCH21092023\REPSWITCH_excgange\REPSWITCH_excgange\data/02.02.01_REPSWITCH1_version2_list1_2023-11-10_15h41.55.444_micRespv2l1_recorded\recording_micRespv2l1_2023-11-10_15h44.16.897.wav,150.04868460004218,150.54872150003212,None,150.04868460004218,150.04868460004218,150.04868460004218,150.04868460004218,150.04868460004218,150.04868460004218,,,,,,02.02.01,001,2023-11-10_15h41.55.444,REPSWITCH1_version2_list1,2022.2.4,144.00258061295042,
REPSWITCH1/PICTURE_175.png,pintor,type,gold,nontarget,1,NT,2,1,1,2,Stim1_Set2,1,switch,28,27,28,0,27,27,27,,,,,,,,,,,,,,,,,,,,,,,150.54872150003212,151.64615129999584,151.64615129999584,151.64615129999584,151.64615129999584,151.64615129999584,151.64615129999584,151.64615129999584,151.64615129999584,"['p', 'i', 'n', 't', 'o', 'r']",0,"[1.483890000032261, 1.7231037000310607, 1.9592751000309363, 2.124970000004396, 2.357932200015057, 2.571534899994731]",pintor,C:\2023\REPSWITCH21092023\REPSWITCH_excgange\REPSWITCH_excgange\data/02.02.01_REPSWITCH1_version2_list1_2023-11-10_15h41.55.444_micRespv2l1_recorded\recording_micRespv2l1_2023-11-10_15h44.21.516.wav,154.66729370004032,155.1674208000186,None,154.66729370004032,154.66729370004032,154.66729370004032,154.66729370004032,154.66729370004032,154.66729370004032,,,,,,02.02.01,001,2023-11-10_15h41.55.444,REPSWITCH1_version2_list1,2022.2.4,144.00258061295042,
REPSWITCH1/PICTURE_175.png,pintor,type,gold,repeat,1,T,2,1,1,2,Stim1_Set2,0,None,29,28,29,0,28,28,28,,,,,,,,,,,,,,,,,,,,,,,155.1674208000186,156.3342576000141,156.3342576000141,156.3342576000141,156.3342576000141,156.3342576000141,156.3342576000141,156.3342576000141,156.3342576000141,"['p', 'i', 'n', 't', 'o', 'r']",0,"[1.0381535000051372, 1.30121380003402, 1.5397040999960154, 1.8878735000034794, 2.0749473000178114, 2.200400600035209]",pintor,C:\2023\REPSWITCH21092023\REPSWITCH_excgange\REPSWITCH_excgange\data/02.02.01_REPSWITCH1_version2_list1_2023-11-10_15h41.55.444_micRespv2l1_recorded\recording_micRespv2l1_2023-11-10_15h44.26.204.wav,159.3554126000381,159.85554710001452,None,159.3554126000381,159.3554126000381,159.3554126000381,159.3554126000381,159.3554126000381,159.3554126000381,,,,,,02.02.01,001,2023-11-10_15h41.55.444,REPSWITCH1_version2_list1,2022.2.4,144.00258061295042,
REPSWITCH1/PICTURE_381.png,fresa,speak,darkblue,filler,2,F,2,1,1,2,Stim2_Set1,0,None,30,29,30,0,29,29,29,,,,,,,,,,,,,,,,,,,,,,,159.85554710001452,160.9181768000126,160.9181768000126,160.9181768000126,160.9181768000126,160.9181768000126,160.9181768000126,160.9181768000126,160.9181768000126,None,0,,,C:\2023\REPSWITCH21092023\REPSWITCH_excgange\REPSWITCH_excgange\data/02.02.01_REPSWITCH1_version2_list1_2023-11-10_15h41.55.444_micRespv2l1_recorded\recording_micRespv2l1_2023-11-10_15h44.30.788.wav,163.93934130005073,164.43940730002942,None,163.93934130005073,163.93934130005073,163.93934130005073,163.93934130005073,163.93934130005073,163.93934130005073,,,,,,02.02.01,001,2023-11-10_15h41.55.444,REPSWITCH1_version2_list1,2022.2.4,144.00258061295042,
REPSWITCH1/PICTURE_152.png,caracol,type,gold,nontarget,1,NT,2,1,1,2,Stim2_Set2,1,switch,31,30,31,0,30,30,30,,,,,,,,,,,,,,,,,,,,,,,164.43940730002942,165.45345710002584,165.45345710002584,165.45345710002584,165.45345710002584,165.45345710002584,165.45345710002584,165.45345710002584,165.45345710002584,"['c', 'a', 'r', 'a', 'c', 'o', 'l']",0,"[1.1593524999916553, 1.2319402000284754, 1.5040685000130907, 1.623668499989435, 1.9259448000229895, 2.6761063000303693, 2.8554630000144243]",caracol,C:\2023\REPSWITCH21092023\REPSWITCH_excgange\REPSWITCH_excgange\data/02.02.01_REPSWITCH1_version2_list1_2023-11-10_15h41.55.444_micRespv2l1_recorded\recording_micRespv2l1_2023-11-10_15h44.35.323.wav,168.47468410001602,168.9747465000255,None,168.47468410001602,168.47468410001602,168.47468410001602,168.47468410001602,168.47468410001602,168.47468410001602,,,,,,02.02.01,001,2023-11-10_15h41.55.444,REPSWITCH1_version2_list1,2022.2.4,144.00258061295042,
REPSWITCH1/PICTURE_152.png,caracol,type,gold,repeat,1,T,2,1,1,2,Stim2_Set2,0,None,32,31,32,0,31,31,31,,,,,,,,,,,,,,,,,,,,,,,168.9747465000255,170.12769120000303,170.12769120000303,170.12769120000303,170.12769120000303,170.12769120000303,170.12769120000303,170.12769120000303,170.12769120000303,"['c', 'a', 'r', 'a', 'c', 'o', 'l']",0,"[0.8909112999681383, 0.9676541999797337, 1.4732065999996848, 1.6452539999736473, 2.235954199975822, 2.370464399980847, 2.544877099979203]",caracol,C:\2023\REPSWITCH21092023\REPSWITCH_excgange\REPSWITCH_excgange\data/02.02.01_REPSWITCH1_version2_list1_2023-11-10_15h41.55.444_micRespv2l1_recorded\recording_micRespv2l1_2023-11-10_15h44.39.997.wav,173.14890730002662,173.64901690004626,None,173.14890730002662,173.14890730002662,173.14890730002662,173.14890730002662,173.14890730002662,173.14890730002662,,,,,,02.02.01,001,2023-11-10_15h41.55.444,REPSWITCH1_version2_list1,2022.2.4,144.00258061295042,
REPSWITCH1/PICTURE_128.png,muñeca,speak,darkblue,filler,2,F,2,1,1,2,Stim4_Set1,0,None,33,32,33,0,32,32,32,,,,,,,,,,,,,,,,,,,,,,,173.64901690004626,174.69079030002467,174.69079030002467,174.69079030002467,174.69079030002467,174.69079030002467,174.69079030002467,174.69079030002467,174.69079030002467,None,0,,,C:\2023\REPSWITCH21092023\REPSWITCH_excgange\REPSWITCH_excgange\data/02.02.01_REPSWITCH1_version2_list1_2023-11-10_15h41.55.444_micRespv2l1_recorded\recording_micRespv2l1_2023-11-10_15h44.44.561.wav,177.71895110001788,,None,177.71895110001788,177.71895110001788,177.71895110001788,177.71895110001788,177.71895110001788,177.71895110001788,,,,,,02.02.01,001,2023-11-10_15h41.55.444,REPSWITCH1_version2_list1,2022.2.4,144.00258061295042,
REPSWITCH1/PICTURE_264.png,mano,type,gold,nontarget,1,NT,2,1,1,2,Stim3_Set2,0,None,34,33,34,0,33,33,33,,,,,,,,,,,,,,,,,,,,,,,178.21908500004793,179.42054690001532,179.42054690001532,179.42054690001532,179.42054690001532,179.42054690001532,179.42054690001532,179.42054690001532,179.42054690001532,"['m', 'a', 'n', 'o']",0,"[1.3396506999852136, 1.45239930000389, 1.5917984999832697, 1.8230283000157215]",mano,C:\2023\REPSWITCH21092023\REPSWITCH_excgange\REPSWITCH_excgange\data/02.02.01_REPSWITCH1_version2_list1_2023-11-10_15h41.55.444_micRespv2l1_recorded\recording_micRespv2l1_2023-11-10_15h44.49.291.wav,182.441799000022,182.94185170001583,None,182.441799000022,182.441799000022,182.441799000022,182.441799000022,182.441799000022,182.441799000022,,,,,,02.02.01,001,2023-11-10_15h41.55.444,REPSWITCH1_version2_list1,2022.2.4,144.00258061295042,
REPSWITCH1/PICTURE_264.png,mano,speak,darkblue,switch,2,T,2,1,1,2,Stim3_Set2,0,None,35,34,35,0,34,34,34,,,,,,,,,,,,,,,,,,,,,,,182.94185170001583,184.01839169999585,184.01839169999585,184.01839169999585,184.01839169999585,184.01839169999585,184.01839169999585,184.01839169999585,184.01839169999585,None,0,,,C:\2023\REPSWITCH21092023\REPSWITCH_excgange\REPSWITCH_excgange\data/02.02.01_REPSWITCH1_version2_list1_2023-11-10_15h41.55.444_micRespv2l1_recorded\recording_micRespv2l1_2023-11-10_15h44.53.889.wav,187.04657920001773,187.5466075000004,None,187.04657920001773,187.04657920001773,187.04657920001773,187.04657920001773,187.04657920001773,187.04657920001773,,,,,,02.02.01,001,2023-11-10_15h41.55.444,REPSWITCH1_version2_list1,2022.2.4,144.00258061295042,
REPSWITCH1/PICTURE_517.png,cuerda,speak,darkblue,nontarget,2,NT,2,1,1,2,Stim4_Set2,1,repeat,36,35,36,0,35,35,35,,,,,,,,,,,,,,,,,,,,,,,187.5466075000004,188.62316080002347,188.62316080002347,188.62316080002347,188.62316080002347,188.62316080002347,188.62316080002347,188.62316080002347,188.62316080002347,None,0,,,C:\2023\REPSWITCH21092023\REPSWITCH_excgange\REPSWITCH_excgange\data/02.02.01_REPSWITCH1_version2_list1_2023-11-10_15h41.55.444_micRespv2l1_recorded\recording_micRespv2l1_2023-11-10_15h44.58.493.wav,191.6444249000051,192.14441990002524,None,191.6444249000051,191.6444249000051,191.6444249000051,191.6444249000051,191.6444249000051,191.6444249000051,,,,,,02.02.01,001,2023-11-10_15h41.55.444,REPSWITCH1_version2_list1,2022.2.4,144.00258061295042,
REPSWITCH1/PICTURE_517.png,cuerda,type,gold,switch,1,T,2,1,1,2,Stim4_Set2,0,None,37,36,37,0,36,36,36,,,,,,,,,,,,,,,,,,,,,,,192.14441990002524,193.16543210000964,193.16543210000964,193.16543210000964,193.16543210000964,193.16543210000964,193.16543210000964,193.16543210000964,193.16543210000964,"['c', 'u', 'e', 'r', 'd', 'a']",0,"[1.0203337999992073, 1.1799635000061244, 1.3348211999982595, 1.5285481000319123, 1.7431848000269383, 1.8867036000010557]",cuerda,C:\2023\REPSWITCH21092023\REPSWITCH_excgange\REPSWITCH_excgange\data/02.02.01_REPSWITCH1_version2_list1_2023-11-10_15h41.55.444_micRespv2l1_recorded\recording_micRespv2l1_2023-11-10_15h45.03.036.wav,196.19359280000208,,None,196.19359280000208,196.19359280000208,196.19359280000208,196.19359280000208,196.19359280000208,196.19359280000208,,,,,,02.02.01,001,2023-11-10_15h41.55.444,REPSWITCH1_version2_list1,2022.2.4,144.00258061295042,
REPSWITCH1/PICTURE_135.png,traje,type,gold,filler,1,F,2,1,1,2,Stim3_Set1,0,None,38,37,38,0,37,37,37,,,,,,,,,,,,,,,,,,,,,,,196.69361660000868,197.7910358000081,197.7910358000081,197.7910358000081,197.7910358000081,197.7910358000081,197.7910358000081,197.7910358000081,197.7910358000081,"['t', 'r', 'a', 'j', 'e']",0,"[1.124839800002519, 1.3112584000336938, 1.441060799988918, 1.746428799990099, 1.875899400038179]",traje,C:\2023\REPSWITCH21092023\REPSWITCH_excgange\REPSWITCH_excgange\data/02.02.01_REPSWITCH1_version2_list1_2023-11-10_15h41.55.444_micRespv2l1_recorded\recording_micRespv2l1_2023-11-10_15h45.07.660.wav,200.81231120001758,201.3122907000361,None,200.81231120001758,200.81231120001758,200.81231120001758,200.81231120001758,200.81231120001758,200.81231120001758,,,,,,02.02.01,001,2023-11-10_15h41.55.444,REPSWITCH1_version2_list1,2022.2.4,144.00258061295042,
REPSWITCH1/PICTURE_30.png,granja,type,gold,nontarget,1,NT,2,1,1,2,Stim5_Set2,1,repeat,39,38,39,0,38,38,38,,,,,,,,,,,,,,,,,,,,,,,201.3122907000361,202.41663920000428,202.41663920000428,202.41663920000428,202.41663920000428,202.41663920000428,202.41663920000428,202.41663920000428,202.41663920000428,"['g', 'r', 'a', 'n', 'j', 'a']",0,"[1.1499793999828398, 1.345317100000102, 1.4828484999598004, 1.8783543999888934, 2.0518072999548167, 2.135931500000879]",granja,C:\2023\REPSWITCH21092023\REPSWITCH_excgange\REPSWITCH_excgange\data/02.02.01_REPSWITCH1_version2_list1_2023-11-10_15h41.55.444_micRespv2l1_recorded\recording_micRespv2l1_2023-11-10_15h45.12.286.wav,205.44479630002752,,None,205.44479630002752,205.44479630002752,205.44479630002752,205.44479630002752,205.44479630002752,205.44479630002752,,,,,,02.02.01,001,2023-11-10_15h41.55.444,REPSWITCH1_version2_list1,2022.2.4,144.00258061295042,
REPSWITCH1/PICTURE_30.png,granja,speak,darkblue,switch,2,T,2,1,1,2,Stim5_Set2,0,None,40,39,40,0,39,39,39,,,,,,,,,,,,,,,,,,,,,,,205.94486240000697,207.0699922000058,207.0699922000058,207.0699922000058,207.0699922000058,207.0699922000058,207.0699922000058,207.0699922000058,207.0699922000058,None,0,,,C:\2023\REPSWITCH21092023\REPSWITCH_excgange\REPSWITCH_excgange\data/02.02.01_REPSWITCH1_version2_list1_2023-11-10_15h41.55.444_micRespv2l1_recorded\recording_micRespv2l1_2023-11-10_15h45.16.941.wav,210.09819480002625,,None,210.09819480002625,210.09819480002625,210.09819480002625,210.09819480002625,210.09819480002625,210.09819480002625,,,,,,02.02.01,001,2023-11-10_15h41.55.444,REPSWITCH1_version2_list1,2022.2.4,144.00258061295042,
REPSWITCH1/PICTURE_142.png,vaso,type,gold,filler,1,F,2,1,1,2,Stim7_Set1,0,None,41,40,41,0,40,40,40,,,,,,,,,,,,,,,,,,,,,,,210.59824680001475,211.7581054000184,211.7581054000184,211.7581054000184,211.7581054000184,211.7581054000184,211.7581054000184,211.7581054000184,211.7581054000184,"['v', 'a', 's', 'o']",0,"[1.5877112000016496, 1.6743605000083335, 1.908880400005728, 2.0673565000179224]",vaso,C:\2023\REPSWITCH21092023\REPSWITCH_excgange\REPSWITCH_excgange\data/02.02.01_REPSWITCH1_version2_list1_2023-11-10_15h41.55.444_micRespv2l1_recorded\recording_micRespv2l1_2023-11-10_15h45.21.628.wav,214.78625500004273,,None,214.78625500004273,214.78625500004273,214.78625500004273,214.78625500004273,214.78625500004273,214.78625500004273,,,,,,02.02.01,001,2023-11-10_15h41.55.444,REPSWITCH1_version2_list1,2022.2.4,144.00258061295042,
REPSWITCH1/PICTURE_19.png,pavo,speak,darkblue,filler,2,F,2,1,1,2,Stim5_Set1,1,switch,42,41,42,0,41,41,41,,,,,,,,,,,,,,,,,,,,,,,215.28634730004705,216.34901649999665,216.34901649999665,216.34901649999665,216.34901649999665,216.34901649999665,216.34901649999665,216.34901649999665,216.34901649999665,None,0,,,C:\2023\REPSWITCH21092023\REPSWITCH_excgange\REPSWITCH_excgange\data/02.02.01_REPSWITCH1_version2_list1_2023-11-10_15h41.55.444_micRespv2l1_recorded\recording_micRespv2l1_2023-11-10_15h45.26.219.wav,219.37717220000923,,None,219.37717220000923,219.37717220000923,219.37717220000923,219.37717220000923,219.37717220000923,219.37717220000923,,,,,,02.02.01,001,2023-11-10_15h41.55.444,REPSWITCH1_version2_list1,2022.2.4,144.00258061295042,
REPSWITCH1/PICTURE_552.png,manzana,speak,darkblue,nontarget,2,NT,2,1,1,2,Stim6_Set2,1,repeat,43,42,43,0,42,42,42,,,,,,,,,,,,,,,,,,,,,,,219.87723830004688,220.90517120005097,220.90517120005097,220.90517120005097,220.90517120005097,220.90517120005097,220.90517120005097,220.90517120005097,220.90517120005097,None,0,,,C:\2023\REPSWITCH21092023\REPSWITCH_excgange\REPSWITCH_excgange\data/02.02.01_REPSWITCH1_version2_list1_2023-11-10_15h41.55.444_micRespv2l1_recorded\recording_micRespv2l1_2023-11-10_15h45.30.775.wav,223.93330360000255,,None,223.93330360000255,223.93330360000255,223.93330360000255,223.93330360000255,223.93330360000255,223.93330360000255,,,,,,02.02.01,001,2023-11-10_15h41.55.444,REPSWITCH1_version2_list1,2022.2.4,144.00258061295042,
REPSWITCH1/PICTURE_552.png,manzana,speak,darkblue,repeat,2,T,2,1,1,2,Stim6_Set2,0,None,44,43,44,0,43,43,43,,,,,,,,,,,,,,,,,,,,,,,224.43344650004292,225.50304050004343,225.50304050004343,225.50304050004343,225.50304050004343,225.50304050004343,225.50304050004343,225.50304050004343,225.50304050004343,None,0,,,C:\2023\REPSWITCH21092023\REPSWITCH_excgange\REPSWITCH_excgange\data/02.02.01_REPSWITCH1_version2_list1_2023-11-10_15h41.55.444_micRespv2l1_recorded\recording_micRespv2l1_2023-11-10_15h45.35.373.wav,228.53120520000812,,None,228.53120520000812,228.53120520000812,228.53120520000812,228.53120520000812,228.53120520000812,228.53120520000812,,,,,,02.02.01,001,2023-11-10_15h41.55.444,REPSWITCH1_version2_list1,2022.2.4,144.00258061295042,
REPSWITCH1/PICTURE_16.png,cazador,type,gold,filler,1,F,2,1,1,2,Stim6_Set1,0,None,45,44,45,0,44,44,44,,,,,,,,,,,,,,,,,,,,,,,229.0312151000253,230.17719800001942,230.17719800001942,230.17719800001942,230.17719800001942,230.17719800001942,230.17719800001942,230.17719800001942,230.17719800001942,"['c', 'a', 'z', 'a', 'd', 'o', 'r']",0,"[1.1533661000430584, 1.2620300000417046, 1.5231502000242472, 1.648769400024321, 1.8932483000098728, 2.1971510000294074, 2.355090500030201]",cazador,C:\2023\REPSWITCH21092023\REPSWITCH_excgange\REPSWITCH_excgange\data/02.02.01_REPSWITCH1_version2_list1_2023-11-10_15h41.55.444_micRespv2l1_recorded\recording_micRespv2l1_2023-11-10_15h45.40.048.wav,233.20534889999544,,None,233.20534889999544,233.20534889999544,233.20534889999544,233.20534889999544,233.20534889999544,233.20534889999544,,,,,,02.02.01,001,2023-11-10_15h41.55.444,REPSWITCH1_version2_list1,2022.2.4,144.00258061295042,
REPSWITCH1/PICTURE_446.png,cerdo,speak,darkblue,nontarget,2,NT,2,1,1,2,Stim7_Set2,1,switch,46,45,46,0,45,45,45,,,,,,,,,,,,,,,,,,,,,,,233.70540249999613,234.87922080000862,234.87922080000862,234.87922080000862,234.87922080000862,234.87922080000862,234.87922080000862,234.87922080000862,234.87922080000862,None,0,,,C:\2023\REPSWITCH21092023\REPSWITCH_excgange\REPSWITCH_excgange\data/02.02.01_REPSWITCH1_version2_list1_2023-11-10_15h41.55.444_micRespv2l1_recorded\recording_micRespv2l1_2023-11-10_15h45.44.749.wav,237.9073545000283,,None,237.9073545000283,237.9073545000283,237.9073545000283,237.9073545000283,237.9073545000283,237.9073545000283,,,,,,02.02.01,001,2023-11-10_15h41.55.444,REPSWITCH1_version2_list1,2022.2.4,144.00258061295042,
REPSWITCH1/PICTURE_446.png,cerdo,speak,darkblue,repeat,2,T,2,1,1,2,Stim7_Set2,0,None,47,46,47,0,46,46,46,,,,,,,,,,,,,,,,,,,,,,,238.40742430003593,239.49788110004738,239.49788110004738,239.49788110004738,239.49788110004738,239.49788110004738,239.49788110004738,239.49788110004738,239.49788110004738,None,0,,,C:\2023\REPSWITCH21092023\REPSWITCH_excgange\REPSWITCH_excgange\data/02.02.01_REPSWITCH1_version2_list1_2023-11-10_15h41.55.444_micRespv2l1_recorded\recording_micRespv2l1_2023-11-10_15h45.49.367.wav,242.51909180002986,243.01914360001683,None,242.51909180002986,242.51909180002986,242.51909180002986,242.51909180002986,242.51909180002986,242.51909180002986,,,,,,02.02.01,001,2023-11-10_15h41.55.444,REPSWITCH1_version2_list1,2022.2.4,144.00258061295042,
REPSWITCH1/PICTURE_590.png,escoba,type,gold,filler,1,F,2,1,1,2,Extra3,0,None,48,47,48,0,47,47,47,,,,,,,,,,,,,,,,,,,,,,,243.01914360001683,244.08180810004706,244.08180810004706,244.08180810004706,244.08180810004706,244.08180810004706,244.08180810004706,244.08180810004706,244.08180810004706,"['e', 's', 'c', 'o', 'b', 'a']",0,"[0.9598552999668755, 1.19301639997866, 1.4750683999736793, 1.6189211999881081, 1.8840397999738343, 2.0424715999979526]",escoba,C:\2023\REPSWITCH21092023\REPSWITCH_excgange\REPSWITCH_excgange\data/02.02.01_REPSWITCH1_version2_list1_2023-11-10_15h41.55.444_micRespv2l1_recorded\recording_micRespv2l1_2023-11-10_15h45.53.951.wav,247.10300400003325,247.6030587000423,None,247.10300400003325,247.10300400003325,247.10300400003325,247.10300400003325,247.10300400003325,247.10300400003325,,,,,,02.02.01,001,2023-11-10_15h41.55.444,REPSWITCH1_version2_list1,2022.2.4,144.00258061295042,
REPSWITCH1/PICTURE_169.png,espalda,speak,darkblue,filler,2,F,2,1,1,2,Stim8_Set1,0,None,49,48,49,0,48,48,48,,,,,,,,,,,,,,,,,,,,,,,247.6030587000423,248.651905500039,248.651905500039,248.651905500039,248.651905500039,248.651905500039,248.651905500039,248.651905500039,248.651905500039,None,0,,,C:\2023\REPSWITCH21092023\REPSWITCH_excgange\REPSWITCH_excgange\data/02.02.01_REPSWITCH1_version2_list1_2023-11-10_15h41.55.444_micRespv2l1_recorded\recording_micRespv2l1_2023-11-10_15h45.58.522.wav,251.67303450003965,252.17320700001437,None,251.67303450003965,251.67303450003965,251.67303450003965,251.67303450003965,251.67303450003965,251.67303450003965,,,,,,02.02.01,001,2023-11-10_15h41.55.444,REPSWITCH1_version2_list1,2022.2.4,144.00258061295042,
REPSWITCH1/PICTURE_199.png,falda,speak,darkblue,nontarget,2,NT,2,1,1,2,Stim8_Set2,1,repeat,50,49,50,0,49,49,49,,,,,,,,,,,,,,,,,,,,,,,252.17320700001437,253.2010782000143,253.2010782000143,253.2010782000143,253.2010782000143,253.2010782000143,253.2010782000143,253.2010782000143,253.2010782000143,None,0,,,C:\2023\REPSWITCH21092023\REPSWITCH_excgange\REPSWITCH_excgange\data/02.02.01_REPSWITCH1_version2_list1_2023-11-10_15h41.55.444_micRespv2l1_recorded\recording_micRespv2l1_2023-11-10_15h46.03.071.wav,256.22225510003045,256.7223199,None,256.22225510003045,256.22225510003045,256.22225510003045,256.22225510003045,256.22225510003045,256.22225510003045,,,,,,02.02.01,001,2023-11-10_15h41.55.444,REPSWITCH1_version2_list1,2022.2.4,144.00258061295042,
REPSWITCH1/PICTURE_199.png,falda,type,gold,switch,1,T,2,1,1,2,Stim8_Set2,0,None,51,50,51,0,50,50,50,,,,,,,,,,,,,,,,,,,,,,,256.7223199,257.84062710002763,257.84062710002763,257.84062710002763,257.84062710002763,257.84062710002763,257.84062710002763,257.84062710002763,257.84062710002763,"['f', 'a', 'l', 'd', 'a']",0,"[1.0368075000005774, 1.1793266999884509, 1.3965745000168681, 1.5361846000305377, 1.6706742999958806]",falda,C:\2023\REPSWITCH21092023\REPSWITCH_excgange\REPSWITCH_excgange\data/02.02.01_REPSWITCH1_version2_list1_2023-11-10_15h41.55.444_micRespv2l1_recorded\recording_micRespv2l1_2023-11-10_15h46.07.710.wav,260.8617700000177,261.36183070001425,space,260.8617700000177,260.8617700000177,260.8617700000177,260.8617700000177,260.8617700000177,260.8617700000177,261.36183070001425,261.36183070001425,8.561211200023536,,,02.02.01,001,2023-11-10_15h41.55.444,REPSWITCH1_version2_list1,2022.2.4,144.00258061295042,
REPSWITCH1/PICTURE_576.png,guante,type,gold,nontarget,1,NT,3,1,1,2,Stim1_Set3,0,None,52,51,52,0,51,51,51,,,,,,,,,,,,,,,,,,,,,,,269.93241950002266,270.9534401000128,270.9534401000128,270.9534401000128,270.9534401000128,270.9534401000128,270.9534401000128,270.9534401000128,270.9534401000128,"['g', 'u', 'a', 'n', 't', 'e']",0,"[1.1724523999728262, 1.358819000015501, 1.4505973000195809, 1.6238548000110313, 1.8481076000025496, 1.9160518000135198]",guante,C:\2023\REPSWITCH21092023\REPSWITCH_excgange\REPSWITCH_excgange\data/02.02.01_REPSWITCH1_version2_list1_2023-11-10_15h41.55.444_micRespv2l1_recorded\recording_micRespv2l1_2023-11-10_15h46.20.823.wav,273.98151800001506,,None,273.98151800001506,273.98151800001506,273.98151800001506,273.98151800001506,273.98151800001506,273.98151800001506,,,,,,02.02.01,001,2023-11-10_15h41.55.444,REPSWITCH1_version2_list1,2022.2.4,144.00258061295042,
REPSWITCH1/PICTURE_576.png,guante,speak,darkblue,switch,2,T,3,1,1,2,Stim1_Set3,0,None,53,52,53,0,52,52,52,,,,,,,,,,,,,,,,,,,,,,,274.481613400043,275.5859416000312,275.5859416000312,275.5859416000312,275.5859416000312,275.5859416000312,275.5859416000312,275.5859416000312,275.5859416000312,None,0,,,C:\2023\REPSWITCH21092023\REPSWITCH_excgange\REPSWITCH_excgange\data/02.02.01_REPSWITCH1_version2_list1_2023-11-10_15h41.55.444_micRespv2l1_recorded\recording_micRespv2l1_2023-11-10_15h46.25.456.wav,278.6071559000411,279.1072108000517,None,278.6071559000411,278.6071559000411,278.6071559000411,278.6071559000411,278.6071559000411,278.6071559000411,,,,,,02.02.01,001,2023-11-10_15h41.55.444,REPSWITCH1_version2_list1,2022.2.4,144.00258061295042,
REPSWITCH1/PICTURE_646.png,tronco,speak,darkblue,filler,2,F,3,1,1,2,Extra4,0,None,54,53,54,0,53,53,53,,,,,,,,,,,,,,,,,,,,,,,279.1072108000517,280.2392910000053,280.2392910000053,280.2392910000053,280.2392910000053,280.2392910000053,280.2392910000053,280.2392910000053,280.2392910000053,None,0,,,C:\2023\REPSWITCH21092023\REPSWITCH_excgange\REPSWITCH_excgange\data/02.02.01_REPSWITCH1_version2_list1_2023-11-10_15h41.55.444_micRespv2l1_recorded\recording_micRespv2l1_2023-11-10_15h46.30.110.wav,283.2605617000372,283.76060300000245,None,283.2605617000372,283.2605617000372,283.2605617000372,283.2605617000372,283.2605617000372,283.2605617000372,,,,,,02.02.01,001,2023-11-10_15h41.55.444,REPSWITCH1_version2_list1,2022.2.4,144.00258061295042,
REPSWITCH1/PICTURE_610.png,miel,speak,darkblue,nontarget,2,NT,3,1,1,2,Stim2_Set3,1,repeat,55,54,55,0,54,54,54,,,,,,,,,,,,,,,,,,,,,,,283.76060300000245,284.8163255000254,284.8163255000254,284.8163255000254,284.8163255000254,284.8163255000254,284.8163255000254,284.8163255000254,284.8163255000254,None,0,,,C:\2023\REPSWITCH21092023\REPSWITCH_excgange\REPSWITCH_excgange\data/02.02.01_REPSWITCH1_version2_list1_2023-11-10_15h41.55.444_micRespv2l1_recorded\recording_micRespv2l1_2023-11-10_15h46.34.686.wav,287.84444820001954,,None,287.84444820001954,287.84444820001954,287.84444820001954,287.84444820001954,287.84444820001954,287.84444820001954,,,,,,02.02.01,001,2023-11-10_15h41.55.444,REPSWITCH1_version2_list1,2022.2.4,144.00258061295042,
REPSWITCH1/PICTURE_610.png,miel,type,gold,switch,1,T,3,1,1,2,Stim2_Set3,0,None,56,55,56,0,55,55,55,,,,,,,,,,,,,,,,,,,,,,,288.34453980001854,289.41413380001904,289.41413380001904,289.41413380001904,289.41413380001904,289.41413380001904,289.41413380001904,289.41413380001904,289.41413380001904,"['m', 'i', 'e', 'l']",0,"[0.9746444000047632, 1.2315597000415437, 1.4030791000113823, 1.5763754000072367]",miel,C:\2023\REPSWITCH21092023\REPSWITCH_excgange\REPSWITCH_excgange\data/02.02.01_REPSWITCH1_version2_list1_2023-11-10_15h41.55.444_micRespv2l1_recorded\recording_micRespv2l1_2023-11-10_15h46.39.284.wav,292.4353289999999,292.935396600049,None,292.4353289999999,292.4353289999999,292.4353289999999,292.4353289999999,292.4353289999999,292.4353289999999,,,,,,02.02.01,001,2023-11-10_15h41.55.444,REPSWITCH1_version2_list1,2022.2.4,144.00258061295042,
REPSWITCH1/PICTURE_175.png,pintor,type,gold,filler,1,F,3,1,1,2,Stim1_Set2,1,repeat,57,56,57,0,56,56,56,,,,,,,,,,,,,,,,,,,,,,,292.935396600049,293.9633563000243,293.9633563000243,293.9633563000243,293.9633563000243,293.9633563000243,293.9633563000243,293.9633563000243,293.9633563000243,"['p', 'i', 'n', 't', 'o', 'r']",0,"[1.0808335999608971, 1.368219899944961, 1.5705578999477439, 1.7402101999614388, 1.8807245999923907, 2.009658099967055]",pintor,C:\2023\REPSWITCH21092023\REPSWITCH_excgange\REPSWITCH_excgange\data/02.02.01_REPSWITCH1_version2_list1_2023-11-10_15h41.55.444_micRespv2l1_recorded\recording_micRespv2l1_2023-11-10_15h46.43.833.wav,296.9845642000437,297.4846288000117,None,296.9845642000437,296.9845642000437,296.9845642000437,296.9845642000437,296.9845642000437,296.9845642000437,,,,,,02.02.01,001,2023-11-10_15h41.55.444,REPSWITCH1_version2_list1,2022.2.4,144.00258061295042,
REPSWITCH1/PICTURE_242.png,cartero,type,gold,nontarget,1,NT,3,1,1,2,Stim3_Set3,1,repeat,58,57,58,0,57,57,57,,,,,,,,,,,,,,,,,,,,,,,297.4846288000117,298.5681106999982,298.5681106999982,298.5681106999982,298.5681106999982,298.5681106999982,298.5681106999982,298.5681106999982,298.5681106999982,"['c', 'a', 'r', 't', 'e', 'r', 'o']",0,"[1.3835549999494106, 1.5129349999479018, 1.6952224999549799, 1.8706275000004098, 1.9802518999786116, 2.2226607999764383, 2.3797969999723136]",cartero,C:\2023\REPSWITCH21092023\REPSWITCH_excgange\REPSWITCH_excgange\data/02.02.01_REPSWITCH1_version2_list1_2023-11-10_15h41.55.444_micRespv2l1_recorded\recording_micRespv2l1_2023-11-10_15h46.48.438.wav,301.5893054000335,302.089372300019,None,301.5893054000335,301.5893054000335,301.5893054000335,301.5893054000335,301.5893054000335,301.5893054000335,,,,,,02.02.01,001,2023-11-10_15h41.55.444,REPSWITCH1_version2_list1,2022.2.4,144.00258061295042,
REPSWITCH1/PICTURE_242.png,cartero,speak,darkblue,switch,2,T,3,1,1,2,Stim3_Set3,0,None,59,58,59,0,58,58,58,,,,,,,,,,,,,,,,,,,,,,,302.089372300019,303.20760630001314,303.20760630001314,303.20760630001314,303.20760630001314,303.20760630001314,303.20760630001314,303.20760630001314,303.20760630001314,None,0,,,C:\2023\REPSWITCH21092023\REPSWITCH_excgange\REPSWITCH_excgange\data/02.02.01_REPSWITCH1_version2_list1_2023-11-10_15h41.55.444_micRespv2l1_recorded\recording_micRespv2l1_2023-11-10_15h46.53.078.wav,306.23577050003223,,None,306.23577050003223,306.23577050003223,306.23577050003223,306.23577050003223,306.23577050003223,306.23577050003223,,,,,,02.02.01,001,2023-11-10_15h41.55.444,REPSWITCH1_version2_list1,2022.2.4,144.00258061295042,
REPSWITCH1/PICTURE_152.png,caracol,speak,darkblue,filler,2,F,3,1,1,2,Stim2_Set2,0,None,60,59,60,0,59,59,59,,,,,,,,,,,,,,,,,,,,,,,306.73584259999916,307.80542320001405,307.80542320001405,307.80542320001405,307.80542320001405,307.80542320001405,307.80542320001405,307.80542320001405,307.80542320001405,None,0,,,C:\2023\REPSWITCH21092023\REPSWITCH_excgange\REPSWITCH_excgange\data/02.02.01_REPSWITCH1_version2_list1_2023-11-10_15h41.55.444_micRespv2l1_recorded\recording_micRespv2l1_2023-11-10_15h46.57.675.wav,310.82664939999813,311.3267204000149,None,310.82664939999813,310.82664939999813,310.82664939999813,310.82664939999813,310.82664939999813,310.82664939999813,,,,,,02.02.01,001,2023-11-10_15h41.55.444,REPSWITCH1_version2_list1,2022.2.4,144.00258061295042,
REPSWITCH1/PICTURE_517.png,cuerda,type,gold,filler,1,F,3,1,1,2,Stim4_Set2,0,None,61,60,61,0,60,60,60,,,,,,,,,,,,,,,,,,,,,,,311.3267204000149,312.49360700004036,312.49360700004036,312.49360700004036,312.49360700004036,312.49360700004036,312.49360700004036,312.49360700004036,312.49360700004036,"['c', 'u', 'e', 'r', 'd', 'a']",0,"[1.1984078999958, 1.4126414000056684, 1.5544391000294127, 1.7069254000089131, 1.8395481000188738, 1.9898333000019193]",cuerda,C:\2023\REPSWITCH21092023\REPSWITCH_excgange\REPSWITCH_excgange\data/02.02.01_REPSWITCH1_version2_list1_2023-11-10_15h41.55.444_micRespv2l1_recorded\recording_micRespv2l1_2023-11-10_15h47.02.364.wav,315.5217157000443,,None,315.5217157000443,315.5217157000443,315.5217157000443,315.5217157000443,315.5217157000443,315.5217157000443,,,,,,02.02.01,001,2023-11-10_15h41.55.444,REPSWITCH1_version2_list1,2022.2.4,144.00258061295042,
REPSWITCH1/PICTURE_235.png,aguja,speak,darkblue,nontarget,2,NT,3,1,1,2,Stim4_Set3,1,switch,62,61,62,0,61,61,61,,,,,,,,,,,,,,,,,,,,,,,316.0218440000317,317.14690440002596,317.14690440002596,317.14690440002596,317.14690440002596,317.14690440002596,317.14690440002596,317.14690440002596,317.14690440002596,None,0,,,C:\2023\REPSWITCH21092023\REPSWITCH_excgange\REPSWITCH_excgange\data/02.02.01_REPSWITCH1_version2_list1_2023-11-10_15h41.55.444_micRespv2l1_recorded\recording_micRespv2l1_2023-11-10_15h47.07.016.wav,320.1681152000092,320.66819779999787,None,320.1681152000092,320.1681152000092,320.1681152000092,320.1681152000092,320.1681152000092,320.1681152000092,,,,,,02.02.01,001,2023-11-10_15h41.55.444,REPSWITCH1_version2_list1,2022.2.4,144.00258061295042,
REPSWITCH1/PICTURE_235.png,aguja,speak,darkblue,repeat,2,T,3,1,1,2,Stim4_Set3,0,None,63,62,63,0,62,62,62,,,,,,,,,,,,,,,,,,,,,,,320.66819779999787,321.7100190000492,321.7100190000492,321.7100190000492,321.7100190000492,321.7100190000492,321.7100190000492,321.7100190000492,321.7100190000492,None,0,,,C:\2023\REPSWITCH21092023\REPSWITCH_excgange\REPSWITCH_excgange\data/02.02.01_REPSWITCH1_version2_list1_2023-11-10_15h41.55.444_micRespv2l1_recorded\recording_micRespv2l1_2023-11-10_15h47.11.579.wav,324.73123210004997,325.2313639000058,None,324.73123210004997,324.73123210004997,324.73123210004997,324.73123210004997,324.73123210004997,324.73123210004997,,,,,,02.02.01,001,2023-11-10_15h41.55.444,REPSWITCH1_version2_list1,2022.2.4,144.00258061295042,
REPSWITCH1/PICTURE_30.png,granja,type,gold,filler,1,F,3,1,1,2,Stim5_Set2,0,None,64,63,64,0,63,63,63,,,,,,,,,,,,,,,,,,,,,,,325.2313639000058,326.3287703000242,326.3287703000242,326.3287703000242,326.3287703000242,326.3287703000242,326.3287703000242,326.3287703000242,326.3287703000242,"['g', 'r', 'a', 'n', 'j', 'a']",0,"[1.1656687000067905, 1.3769593999604695, 1.5185354999848641, 1.842458600003738, 2.033170699956827, 2.1703960999730043]",granja,C:\2023\REPSWITCH21092023\REPSWITCH_excgange\REPSWITCH_excgange\data/02.02.01_REPSWITCH1_version2_list1_2023-11-10_15h41.55.444_micRespv2l1_recorded\recording_micRespv2l1_2023-11-10_15h47.16.199.wav,329.356867399998,,None,329.356867399998,329.356867399998,329.356867399998,329.356867399998,329.356867399998,329.356867399998,,,,,,02.02.01,001,2023-11-10_15h41.55.444,REPSWITCH1_version2_list1,2022.2.4,144.00258061295042,
REPSWITCH1/PICTURE_552.png,manzana,speak,darkblue,filler,2,F,3,1,1,2,Stim6_Set2,1,switch,65,64,65,0,64,64,64,,,,,,,,,,,,,,,,,,,,,,,329.85689960001037,330.9820840000175,330.9820840000175,330.9820840000175,330.9820840000175,330.9820840000175,330.9820840000175,330.9820840000175,330.9820840000175,None,0,,,C:\2023\REPSWITCH21092023\REPSWITCH_excgange\REPSWITCH_excgange\data/02.02.01_REPSWITCH1_version2_list1_2023-11-10_15h41.55.444_micRespv2l1_recorded\recording_micRespv2l1_2023-11-10_15h47.20.852.wav,334.0102939000353,,None,334.0102939000353,334.0102939000353,334.0102939000353,334.0102939000353,334.0102939000353,334.0102939000353,,,,,,02.02.01,001,2023-11-10_15h41.55.444,REPSWITCH1_version2_list1,2022.2.4,144.00258061295042,
REPSWITCH1/PICTURE_35.png,oreja,speak,darkblue,nontarget,2,NT,3,1,1,2,Stim5_Set3,1,repeat,66,65,66,0,65,65,65,,,,,,,,,,,,,,,,,,,,,,,334.5103589000064,335.68409170000814,335.68409170000814,335.68409170000814,335.68409170000814,335.68409170000814,335.68409170000814,335.68409170000814,335.68409170000814,None,0,,,C:\2023\REPSWITCH21092023\REPSWITCH_excgange\REPSWITCH_excgange\data/02.02.01_REPSWITCH1_version2_list1_2023-11-10_15h41.55.444_micRespv2l1_recorded\recording_micRespv2l1_2023-11-10_15h47.25.554.wav,338.70528260001447,339.20534680003766,None,338.70528260001447,338.70528260001447,338.70528260001447,338.70528260001447,338.70528260001447,338.70528260001447,,,,,,02.02.01,001,2023-11-10_15h41.55.444,REPSWITCH1_version2_list1,2022.2.4,144.00258061295042,
REPSWITCH1/PICTURE_35.png,oreja,speak,darkblue,repeat,2,T,3,1,1,2,Stim5_Set3,0,None,67,66,67,0,66,66,66,,,,,,,,,,,,,,,,,,,,,,,339.20534680003766,340.28189149999525,340.28189149999525,340.28189149999525,340.28189149999525,340.28189149999525,340.28189149999525,340.28189149999525,340.28189149999525,None,0,,,C:\2023\REPSWITCH21092023\REPSWITCH_excgange\REPSWITCH_excgange\data/02.02.01_REPSWITCH1_version2_list1_2023-11-10_15h41.55.444_micRespv2l1_recorded\recording_micRespv2l1_2023-11-10_15h47.30.151.wav,343.30313290003687,343.8031908000121,None,343.30313290003687,343.30313290003687,343.30313290003687,343.30313290003687,343.30313290003687,343.30313290003687,,,,,,02.02.01,001,2023-11-10_15h41.55.444,REPSWITCH1_version2_list1,2022.2.4,144.00258061295042,
REPSWITCH1/PICTURE_673.png,tenedor,type,gold,filler,1,F,3,1,1,2,Extra5,0,None,68,67,68,0,67,67,67,,,,,,,,,,,,,,,,,,,,,,,343.8031908000121,344.8658424000023,344.8658424000023,344.8658424000023,344.8658424000023,344.8658424000023,344.8658424000023,344.8658424000023,344.8658424000023,"['t', 'e', 'n', 'e', 'd', 'o', 'r']",0,"[0.9921827999642119, 1.134120799950324, 1.313484399986919, 1.408199799945578, 1.6396825999836437, 1.794535499997437, 1.991111799958162]",tenedor,C:\2023\REPSWITCH21092023\REPSWITCH_excgange\REPSWITCH_excgange\data/02.02.01_REPSWITCH1_version2_list1_2023-11-10_15h41.55.444_micRespv2l1_recorded\recording_micRespv2l1_2023-11-10_15h47.34.735.wav,347.8871400000062,348.387196900032,None,347.8871400000062,347.8871400000062,347.8871400000062,347.8871400000062,347.8871400000062,347.8871400000062,,,,,,02.02.01,001,2023-11-10_15h41.55.444,REPSWITCH1_version2_list1,2022.2.4,144.00258061295042,
REPSWITCH1/PICTURE_464.png,goma,speak,darkblue,nontarget,2,NT,3,1,1,2,Stim6_Set3,0,None,69,68,69,0,68,68,68,,,,,,,,,,,,,,,,,,,,,,,348.387196900032,349.4984017999959,349.4984017999959,349.4984017999959,349.4984017999959,349.4984017999959,349.4984017999959,349.4984017999959,349.4984017999959,None,0,,,C:\2023\REPSWITCH21092023\REPSWITCH_excgange\REPSWITCH_excgange\data/02.02.01_REPSWITCH1_version2_list1_2023-11-10_15h41.55.444_micRespv2l1_recorded\recording_micRespv2l1_2023-11-10_15h47.39.368.wav,352.52658300002804,,None,352.52658300002804,352.52658300002804,352.52658300002804,352.52658300002804,352.52658300002804,352.52658300002804,,,,,,02.02.01,001,2023-11-10_15h41.55.444,REPSWITCH1_version2_list1,2022.2.4,144.00258061295042,
REPSWITCH1/PICTURE_464.png,goma,type,gold,switch,1,T,3,1,1,2,Stim6_Set3,0,None,70,69,70,0,69,69,69,,,,,,,,,,,,,,,,,,,,,,,353.0266287000268,354.2212339999969,354.2212339999969,354.2212339999969,354.2212339999969,354.2212339999969,354.2212339999969,354.2212339999969,354.2212339999969,"['g', 'o', 'm', 'a']",0,"[0.826020399981644, 1.0242983999778517, 1.3122598999761976, 1.4448511999798939]",goma,C:\2023\REPSWITCH21092023\REPSWITCH_excgange\REPSWITCH_excgange\data/02.02.01_REPSWITCH1_version2_list1_2023-11-10_15h41.55.444_micRespv2l1_recorded\recording_micRespv2l1_2023-11-10_15h47.44.090.wav,357.2424547999981,357.74252550001256,None,357.2424547999981,357.2424547999981,357.2424547999981,357.2424547999981,357.2424547999981,357.2424547999981,,,,,,02.02.01,001,2023-11-10_15h41.55.444,REPSWITCH1_version2_list1,2022.2.4,144.00258061295042,
REPSWITCH1/PICTURE_264.png,mano,speak,darkblue,filler,2,F,3,1,1,2,Stim3_Set2,0,None,71,70,71,0,70,70,70,,,,,,,,,,,,,,,,,,,,,,,357.74252550001256,358.9023714000359,358.9023714000359,358.9023714000359,358.9023714000359,358.9023714000359,358.9023714000359,358.9023714000359,358.9023714000359,None,0,,,C:\2023\REPSWITCH21092023\REPSWITCH_excgange\REPSWITCH_excgange\data/02.02.01_REPSWITCH1_version2_list1_2023-11-10_15h41.55.444_micRespv2l1_recorded\recording_micRespv2l1_2023-11-10_15h47.48.773.wav,361.93056890001753,,None,361.93056890001753,361.93056890001753,361.93056890001753,361.93056890001753,361.93056890001753,361.93056890001753,,,,,,02.02.01,001,2023-11-10_15h41.55.444,REPSWITCH1_version2_list1,2022.2.4,144.00258061295042,
REPSWITCH1/PICTURE_271.png,conejo,type,gold,nontarget,1,NT,3,1,1,2,Stim7_Set3,1,switch,72,71,72,0,71,71,71,,,,,,,,,,,,,,,,,,,,,,,362.4306212000083,363.5350062000216,363.5350062000216,363.5350062000216,363.5350062000216,363.5350062000216,363.5350062000216,363.5350062000216,363.5350062000216,"['c', 'o', 'n', 'e', 'j', 'o']",0,"[1.2017913999734446, 1.3843320999876596, 1.6305221999646164, 1.7873550999793224, 1.9371274000150152, 2.14546440000413]",conejo,C:\2023\REPSWITCH21092023\REPSWITCH_excgange\REPSWITCH_excgange\data/02.02.01_REPSWITCH1_version2_list1_2023-11-10_15h41.55.444_micRespv2l1_recorded\recording_micRespv2l1_2023-11-10_15h47.53.405.wav,366.556184999994,367.0562887000269,None,366.556184999994,366.556184999994,366.556184999994,366.556184999994,366.556184999994,366.556184999994,,,,,,02.02.01,001,2023-11-10_15h41.55.444,REPSWITCH1_version2_list1,2022.2.4,144.00258061295042,
REPSWITCH1/PICTURE_271.png,conejo,type,gold,repeat,1,T,3,1,1,2,Stim7_Set3,0,None,73,72,73,0,72,72,72,,,,,,,,,,,,,,,,,,,,,,,367.0562887000269,368.0702923000208,368.0702923000208,368.0702923000208,368.0702923000208,368.0702923000208,368.0702923000208,368.0702923000208,368.0702923000208,"['c', 'o', 'n', 'e', 'j', 'o']",0,"[0.9033567999722436, 1.0658525999751873, 1.323992699966766, 1.447012199962046, 1.591928799985908, 1.819437799975276]",conejo,C:\2023\REPSWITCH21092023\REPSWITCH_excgange\REPSWITCH_excgange\data/02.02.01_REPSWITCH1_version2_list1_2023-11-10_15h41.55.444_micRespv2l1_recorded\recording_micRespv2l1_2023-11-10_15h47.57.940.wav,371.0914678000263,371.5915568000055,None,371.0914678000263,371.0914678000263,371.0914678000263,371.0914678000263,371.0914678000263,371.0914678000263,,,,,,02.02.01,001,2023-11-10_15h41.55.444,REPSWITCH1_version2_list1,2022.2.4,144.00258061295042,
REPSWITCH1/PICTURE_446.png,cerdo,speak,darkblue,filler,2,F,3,1,1,2,Stim7_Set2,0,None,74,73,74,0,73,73,73,,,,,,,,,,,,,,,,,,,,,,,371.5915568000055,372.6542175000068,372.6542175000068,372.6542175000068,372.6542175000068,372.6542175000068,372.6542175000068,372.6542175000068,372.6542175000068,None,0,,,C:\2023\REPSWITCH21092023\REPSWITCH_excgange\REPSWITCH_excgange\data/02.02.01_REPSWITCH1_version2_list1_2023-11-10_15h41.55.444_micRespv2l1_recorded\recording_micRespv2l1_2023-11-10_15h48.02.525.wav,375.6823989000404,,None,375.6823989000404,375.6823989000404,375.6823989000404,375.6823989000404,375.6823989000404,375.6823989000404,,,,,,02.02.01,001,2023-11-10_15h41.55.444,REPSWITCH1_version2_list1,2022.2.4,144.00258061295042,
REPSWITCH1/PICTURE_199.png,falda,type,gold,filler,1,F,3,1,1,2,Stim8_Set2,1,switch,75,74,75,0,74,74,74,,,,,,,,,,,,,,,,,,,,,,,376.1824892000295,377.252009799995,377.252009799995,377.252009799995,377.252009799995,377.252009799995,377.252009799995,377.252009799995,377.252009799995,"['f', 'a', 'l', 'd', 'a']",0,"[1.0349767000298016, 1.190486800041981, 1.366701400023885, 1.5052032000385225, 1.6976073000114411]",falda,C:\2023\REPSWITCH21092023\REPSWITCH_excgange\REPSWITCH_excgange\data/02.02.01_REPSWITCH1_version2_list1_2023-11-10_15h41.55.444_micRespv2l1_recorded\recording_micRespv2l1_2023-11-10_15h48.07.121.wav,380.2732181000174,380.77328960003797,None,380.2732181000174,380.2732181000174,380.2732181000174,380.2732181000174,380.2732181000174,380.2732181000174,,,,,,02.02.01,001,2023-11-10_15h41.55.444,REPSWITCH1_version2_list1,2022.2.4,144.00258061295042,
REPSWITCH1/PICTURE_320.png,iglesia,type,gold,nontarget,1,NT,3,1,1,2,Stim8_Set3,1,repeat,76,75,76,0,75,75,75,,,,,,,,,,,,,,,,,,,,,,,380.77328960003797,381.84989559999667,381.84989559999667,381.84989559999667,381.84989559999667,381.84989559999667,381.84989559999667,381.84989559999667,381.84989559999667,"['i', 'g', 'l', 'e', 's', 'i', 'a']",0,"[1.2528721999842674, 1.4895423999987543, 1.6519950999645516, 1.781562699994538, 2.025119799945969, 2.17170399997849, 2.2594089999911375]",iglesia,C:\2023\REPSWITCH21092023\REPSWITCH_excgange\REPSWITCH_excgange\data/02.02.01_REPSWITCH1_version2_list1_2023-11-10_15h41.55.444_micRespv2l1_recorded\recording_micRespv2l1_2023-11-10_15h48.11.720.wav,384.87801790004596,,None,384.87801790004596,384.87801790004596,384.87801790004596,384.87801790004596,384.87801790004596,384.87801790004596,,,,,,02.02.01,001,2023-11-10_15h41.55.444,REPSWITCH1_version2_list1,2022.2.4,144.00258061295042,
REPSWITCH1/PICTURE_320.png,iglesia,type,gold,repeat,1,T,3,1,1,2,Stim8_Set3,0,None,77,76,77,0,76,76,76,,,,,,,,,,,,,,,,,,,,,,,385.37815350003075,386.45462700002827,386.45462700002827,386.45462700002827,386.45462700002827,386.45462700002827,386.45462700002827,386.45462700002827,386.45462700002827,"['i', 'g', 'l', 'e', 's', 'i', 'a']",0,"[0.9392377000185661, 1.4366193999885581, 1.6088553000008687, 1.750068299996201, 2.0598715000087395, 2.323107899981551, 2.4472289999830537]",iglesia,C:\2023\REPSWITCH21092023\REPSWITCH_excgange\REPSWITCH_excgange\data/02.02.01_REPSWITCH1_version2_list1_2023-11-10_15h41.55.444_micRespv2l1_recorded\recording_micRespv2l1_2023-11-10_15h48.16.325.wav,389.4759059000062,389.97590620000847,None,389.4759059000062,389.4759059000062,389.4759059000062,389.4759059000062,389.4759059000062,389.4759059000062,,,,,,02.02.01,001,2023-11-10_15h41.55.444,REPSWITCH1_version2_list1,2022.2.4,144.00258061295042,
REPSWITCH1/PICTURE_576.png,guante,speak,darkblue,filler,2,F,4,1,1,2,Stim1_Set3,0,None,78,77,78,0,77,77,77,,,,,,,,,,,,,,,,,,,,,,,389.97590620000847,391.0038856000174,391.0038856000174,391.0038856000174,391.0038856000174,391.0038856000174,391.0038856000174,391.0038856000174,391.0038856000174,None,0,,,C:\2023\REPSWITCH21092023\REPSWITCH_excgange\REPSWITCH_excgange\data/02.02.01_REPSWITCH1_version2_list1_2023-11-10_15h41.55.444_micRespv2l1_recorded\recording_micRespv2l1_2023-11-10_15h48.20.873.wav,394.02505420002853,394.52510329999495,None,394.02505420002853,394.02505420002853,394.02505420002853,394.02505420002853,394.02505420002853,394.02505420002853,,,,,,02.02.01,001,2023-11-10_15h41.55.444,REPSWITCH1_version2_list1,2022.2.4,144.00258061295042,
REPSWITCH1/PICTURE_319.png,vaca,type,gold,nontarget,1,NT,4,1,1,2,Stim1_Set4,1,switch,79,78,79,0,78,78,78,,,,,,,,,,,,,,,,,,,,,,,394.52510329999495,395.57386600004975,395.57386600004975,395.57386600004975,395.57386600004975,395.57386600004975,395.57386600004975,395.57386600004975,395.57386600004975,"['v', 'a', 'c', 'a']",0,"[1.0213088999735191, 1.1389749000081792, 1.3611911999760196, 1.5147623000084423]",vaca,C:\2023\REPSWITCH21092023\REPSWITCH_excgange\REPSWITCH_excgange\data/02.02.01_REPSWITCH1_version2_list1_2023-11-10_15h41.55.444_micRespv2l1_recorded\recording_micRespv2l1_2023-11-10_15h48.25.443.wav,398.59517050004797,399.09514049999416,None,398.59517050004797,398.59517050004797,398.59517050004797,398.59517050004797,398.59517050004797,398.59517050004797,,,,,,02.02.01,001,2023-11-10_15h41.55.444,REPSWITCH1_version2_list1,2022.2.4,144.00258061295042,
REPSWITCH1/PICTURE_319.png,vaca,type,gold,repeat,1,T,4,1,1,2,Stim1_Set4,0,None,80,79,80,0,79,79,79,,,,,,,,,,,,,,,,,,,,,,,399.09514049999416,400.16476020001573,400.16476020001573,400.16476020001573,400.16476020001573,400.16476020001573,400.16476020001573,400.16476020001573,400.16476020001573,"['v', 'a', 'c', 'a']",0,"[0.8703884999849834, 1.013323399994988, 1.2555897000129335, 1.4079968000296503]",vaca,C:\2023\REPSWITCH21092023\REPSWITCH_excgange\REPSWITCH_excgange\data/02.02.01_REPSWITCH1_version2_list1_2023-11-10_15h41.55.444_micRespv2l1_recorded\recording_micRespv2l1_2023-11-10_15h48.30.035.wav,403.1859516000259,403.6860424000188,None,403.1859516000259,403.1859516000259,403.1859516000259,403.1859516000259,403.1859516000259,403.1859516000259,,,,,,02.02.01,001,2023-11-10_15h41.55.444,REPSWITCH1_version2_list1,2022.2.4,144.00258061295042,
REPSWITCH1/PICTURE_719.png,baño,type,gold,nontarget,1,NT,4,1,1,2,Stim2_Set4,0,None,81,80,81,0,80,80,80,,,,,,,,,,,,,,,,,,,,,,,403.6860424000188,404.7139339999994,404.7139339999994,404.7139339999994,404.7139339999994,404.7139339999994,404.7139339999994,404.7139339999994,404.7139339999994,"['b', 'a', 'ñ', 'o']",0,"[1.0725182000314817, 1.1911106000188738, 1.5000754000502639, 2.09712730004685]",baño,C:\2023\REPSWITCH21092023\REPSWITCH_excgange\REPSWITCH_excgange\data/02.02.01_REPSWITCH1_version2_list1_2023-11-10_15h41.55.444_micRespv2l1_recorded\recording_micRespv2l1_2023-11-10_15h48.34.584.wav,407.73515050002607,408.235218900023,None,407.73515050002607,407.73515050002607,407.73515050002607,407.73515050002607,407.73515050002607,407.73515050002607,,,,,,02.02.01,001,2023-11-10_15h41.55.444,REPSWITCH1_version2_list1,2022.2.4,144.00258061295042,
REPSWITCH1/PICTURE_719.png,baño,speak,darkblue,switch,2,T,4,1,1,2,Stim2_Set4,0,None,82,81,82,0,81,81,81,,,,,,,,,,,,,,,,,,,,,,,408.235218900023,409.4229255000246,409.4229255000246,409.4229255000246,409.4229255000246,409.4229255000246,409.4229255000246,409.4229255000246,409.4229255000246,None,0,,,C:\2023\REPSWITCH21092023\REPSWITCH_excgange\REPSWITCH_excgange\data/02.02.01_REPSWITCH1_version2_list1_2023-11-10_15h41.55.444_micRespv2l1_recorded\recording_micRespv2l1_2023-11-10_15h48.39.293.wav,412.45107270003064,,None,412.45107270003064,412.45107270003064,412.45107270003064,412.45107270003064,412.45107270003064,412.45107270003064,,,,,,02.02.01,001,2023-11-10_15h41.55.444,REPSWITCH1_version2_list1,2022.2.4,144.00258061295042,
REPSWITCH1/PICTURE_242.png,cartero,speak,darkblue,filler,2,F,4,1,1,2,Stim3_Set3,1,repeat,83,82,83,0,82,82,82,,,,,,,,,,,,,,,,,,,,,,,412.9511293999967,413.9999015000067,413.9999015000067,413.9999015000067,413.9999015000067,413.9999015000067,413.9999015000067,413.9999015000067,413.9999015000067,None,0,,,C:\2023\REPSWITCH21092023\REPSWITCH_excgange\REPSWITCH_excgange\data/02.02.01_REPSWITCH1_version2_list1_2023-11-10_15h41.55.444_micRespv2l1_recorded\recording_micRespv2l1_2023-11-10_15h48.43.869.wav,417.02112849999685,417.5211750000017,None,417.02112849999685,417.02112849999685,417.02112849999685,417.02112849999685,417.02112849999685,417.02112849999685,,,,,,02.02.01,001,2023-11-10_15h41.55.444,REPSWITCH1_version2_list1,2022.2.4,144.00258061295042,
REPSWITCH1/PICTURE_610.png,miel,type,gold,filler,1,F,4,1,1,2,Stim2_Set3,0,None,84,83,84,0,83,83,83,,,,,,,,,,,,,,,,,,,,,,,417.5211750000017,418.5699187000282,418.5699187000282,418.5699187000282,418.5699187000282,418.5699187000282,418.5699187000282,418.5699187000282,418.5699187000282,"['m', 'i', 'e', 'l']",0,"[1.0891747000277974, 1.3344908999861218, 1.517871499992907, 1.6587897000135854]",miel,C:\2023\REPSWITCH21092023\REPSWITCH_excgange\REPSWITCH_excgange\data/02.02.01_REPSWITCH1_version2_list1_2023-11-10_15h41.55.444_micRespv2l1_recorded\recording_micRespv2l1_2023-11-10_15h48.48.440.wav,421.5912256000447,422.09119180002017,None,421.5912256000447,421.5912256000447,421.5912256000447,421.5912256000447,421.5912256000447,421.5912256000447,,,,,,02.02.01,001,2023-11-10_15h41.55.444,REPSWITCH1_version2_list1,2022.2.4,144.00258061295042,
REPSWITCH1/PICTURE_8.png,pierna,speak,darkblue,nontarget,2,NT,4,1,1,2,Stim3_Set4,1,switch,85,84,85,0,84,84,84,,,,,,,,,,,,,,,,,,,,,,,422.09119180002017,423.24422170000616,423.24422170000616,423.24422170000616,423.24422170000616,423.24422170000616,423.24422170000616,423.24422170000616,423.24422170000616,None,0,,,C:\2023\REPSWITCH21092023\REPSWITCH_excgange\REPSWITCH_excgange\data/02.02.01_REPSWITCH1_version2_list1_2023-11-10_15h41.55.444_micRespv2l1_recorded\recording_micRespv2l1_2023-11-10_15h48.53.114.wav,426.2653510000091,426.7654587000143,None,426.2653510000091,426.2653510000091,426.2653510000091,426.2653510000091,426.2653510000091,426.2653510000091,,,,,,02.02.01,001,2023-11-10_15h41.55.444,REPSWITCH1_version2_list1,2022.2.4,144.00258061295042,
REPSWITCH1/PICTURE_8.png,pierna,speak,darkblue,repeat,2,T,4,1,1,2,Stim3_Set4,0,None,86,85,86,0,85,85,85,,,,,,,,,,,,,,,,,,,,,,,426.7654587000143,427.8072911000345,427.8072911000345,427.8072911000345,427.8072911000345,427.8072911000345,427.8072911000345,427.8072911000345,427.8072911000345,None,0,,,C:\2023\REPSWITCH21092023\REPSWITCH_excgange\REPSWITCH_excgange\data/02.02.01_REPSWITCH1_version2_list1_2023-11-10_15h41.55.444_micRespv2l1_recorded\recording_micRespv2l1_2023-11-10_15h48.57.676.wav,430.82853600004455,431.3285603999975,None,430.82853600004455,430.82853600004455,430.82853600004455,430.82853600004455,430.82853600004455,430.82853600004455,,,,,,02.02.01,001,2023-11-10_15h41.55.444,REPSWITCH1_version2_list1,2022.2.4,144.00258061295042,
REPSWITCH1/PICTURE_498.png,taza,speak,darkblue,nontarget,2,NT,4,1,1,2,Stim4_Set4,1,repeat,87,86,87,0,86,86,86,,,,,,,,,,,,,,,,,,,,,,,431.3285603999975,432.36343820003094,432.36343820003094,432.36343820003094,432.36343820003094,432.36343820003094,432.36343820003094,432.36343820003094,432.36343820003094,None,0,,,C:\2023\REPSWITCH21092023\REPSWITCH_excgange\REPSWITCH_excgange\data/02.02.01_REPSWITCH1_version2_list1_2023-11-10_15h41.55.444_micRespv2l1_recorded\recording_micRespv2l1_2023-11-10_15h49.02.233.wav,435.38464230002137,435.8847028000164,None,435.38464230002137,435.38464230002137,435.38464230002137,435.38464230002137,435.38464230002137,435.38464230002137,,,,,,02.02.01,001,2023-11-10_15h41.55.444,REPSWITCH1_version2_list1,2022.2.4,144.00258061295042,
REPSWITCH1/PICTURE_498.png,taza,type,gold,switch,1,T,4,1,1,2,Stim4_Set4,0,None,88,87,88,0,87,87,87,,,,,,,,,,,,,,,,,,,,,,,435.8847028000164,436.95437610003864,436.95437610003864,436.95437610003864,436.95437610003864,436.95437610003864,436.95437610003864,436.95437610003864,436.95437610003864,"['t', 'a', 'z', 'a']",0,"[1.0106458999798633, 1.1076290999772027, 1.513681299984455, 1.6892281000036746]",taza,C:\2023\REPSWITCH21092023\REPSWITCH_excgange\REPSWITCH_excgange\data/02.02.01_REPSWITCH1_version2_list1_2023-11-10_15h41.55.444_micRespv2l1_recorded\recording_micRespv2l1_2023-11-10_15h49.06.823.wav,439.9755199000356,440.4755693000043,None,439.9755199000356,439.9755199000356,439.9755199000356,439.9755199000356,439.9755199000356,439.9755199000356,,,,,,02.02.01,001,2023-11-10_15h41.55.444,REPSWITCH1_version2_list1,2022.2.4,144.00258061295042,
REPSWITCH1/PICTURE_235.png,aguja,speak,darkblue,filler,2,F,4,1,1,2,Stim4_Set3,0,None,89,88,89,0,88,88,88,,,,,,,,,,,,,,,,,,,,,,,440.4755693000043,441.5312911000219,441.5312911000219,441.5312911000219,441.5312911000219,441.5312911000219,441.5312911000219,441.5312911000219,441.5312911000219,None,0,,,C:\2023\REPSWITCH21092023\REPSWITCH_excgange\REPSWITCH_excgange\data/02.02.01_REPSWITCH1_version2_list1_2023-11-10_15h41.55.444_micRespv2l1_recorded\recording_micRespv2l1_2023-11-10_15h49.11.401.wav,444.5594450000208,,None,444.5594450000208,444.5594450000208,444.5594450000208,444.5594450000208,444.5594450000208,444.5594450000208,,,,,,02.02.01,001,2023-11-10_15h41.55.444,REPSWITCH1_version2_list1,2022.2.4,144.00258061295042,
REPSWITCH1/PICTURE_35.png,oreja,type,gold,filler,1,F,4,1,1,2,Stim5_Set3,0,None,90,89,90,0,89,89,89,,,,,,,,,,,,,,,,,,,,,,,445.05952190002427,446.1291288000066,446.1291288000066,446.1291288000066,446.1291288000066,446.1291288000066,446.1291288000066,446.1291288000066,446.1291288000066,"['o', 'r', 'e', 'j', 'a']",0,"[1.1877735999878496, 1.611044299963396, 1.7150426000007428, 1.8705116999917664, 1.9821430000010878]",oreja,C:\2023\REPSWITCH21092023\REPSWITCH_excgange\REPSWITCH_excgange\data/02.02.01_REPSWITCH1_version2_list1_2023-11-10_15h41.55.444_micRespv2l1_recorded\recording_micRespv2l1_2023-11-10_15h49.15.998.wav,449.1503050000174,449.6503700000467,None,449.1503050000174,449.1503050000174,449.1503050000174,449.1503050000174,449.1503050000174,449.1503050000174,,,,,,02.02.01,001,2023-11-10_15h41.55.444,REPSWITCH1_version2_list1,2022.2.4,144.00258061295042,
REPSWITCH1/PICTURE_687.png,camisa,type,gold,nontarget,1,NT,4,1,1,2,Stim5_Set4,1,repeat,91,90,91,0,90,90,90,,,,,,,,,,,,,,,,,,,,,,,449.6503700000467,450.7200318000396,450.7200318000396,450.7200318000396,450.7200318000396,450.7200318000396,450.7200318000396,450.7200318000396,450.7200318000396,"['c', 'a', 'm', 'i', 's', 'a']",0,"[0.978613100014627, 1.0670686999801546, 1.303268300020136, 1.5069442000240088, 1.6165779000148177, 1.7531159999780357]",camisa,C:\2023\REPSWITCH21092023\REPSWITCH_excgange\REPSWITCH_excgange\data/02.02.01_REPSWITCH1_version2_list1_2023-11-10_15h41.55.444_micRespv2l1_recorded\recording_micRespv2l1_2023-11-10_15h49.20.589.wav,453.74125780002214,454.24125050002476,None,453.74125780002214,453.74125780002214,453.74125780002214,453.74125780002214,453.74125780002214,453.74125780002214,,,,,,02.02.01,001,2023-11-10_15h41.55.444,REPSWITCH1_version2_list1,2022.2.4,144.00258061295042,
REPSWITCH1/PICTURE_687.png,camisa,speak,darkblue,switch,2,T,4,1,1,2,Stim5_Set4,0,None,92,91,92,0,91,91,91,,,,,,,,,,,,,,,,,,,,,,,454.24125050002476,455.47757480002474,455.47757480002474,455.47757480002474,455.47757480002474,455.47757480002474,455.47757480002474,455.47757480002474,455.47757480002474,None,0,,,C:\2023\REPSWITCH21092023\REPSWITCH_excgange\REPSWITCH_excgange\data/02.02.01_REPSWITCH1_version2_list1_2023-11-10_15h41.55.444_micRespv2l1_recorded\recording_micRespv2l1_2023-11-10_15h49.25.347.wav,458.4987444000435,458.9988464000053,None,458.4987444000435,458.4987444000435,458.4987444000435,458.4987444000435,458.4987444000435,458.4987444000435,,,,,,02.02.01,001,2023-11-10_15h41.55.444,REPSWITCH1_version2_list1,2022.2.4,144.00258061295042,
REPSWITCH1/PICTURE_338.png,regalo,speak,darkblue,nontarget,2,NT,4,1,1,2,Stim6_Set4,0,None,93,92,93,0,92,92,92,,,,,,,,,,,,,,,,,,,,,,,458.9988464000053,460.17953780002426,460.17953780002426,460.17953780002426,460.17953780002426,460.17953780002426,460.17953780002426,460.17953780002426,460.17953780002426,None,0,,,C:\2023\REPSWITCH21092023\REPSWITCH_excgange\REPSWITCH_excgange\data/02.02.01_REPSWITCH1_version2_list1_2023-11-10_15h41.55.444_micRespv2l1_recorded\recording_micRespv2l1_2023-11-10_15h49.30.049.wav,463.2008607000462,463.7008526000427,None,463.2008607000462,463.2008607000462,463.2008607000462,463.2008607000462,463.2008607000462,463.2008607000462,,,,,,02.02.01,001,2023-11-10_15h41.55.444,REPSWITCH1_version2_list1,2022.2.4,144.00258061295042,
REPSWITCH1/PICTURE_338.png,regalo,speak,darkblue,repeat,2,T,4,1,1,2,Stim6_Set4,0,None,94,93,94,0,93,93,93,,,,,,,,,,,,,,,,,,,,,,,463.7008526000427,464.82599530002335,464.82599530002335,464.82599530002335,464.82599530002335,464.82599530002335,464.82599530002335,464.82599530002335,464.82599530002335,None,0,,,C:\2023\REPSWITCH21092023\REPSWITCH_excgange\REPSWITCH_excgange\data/02.02.01_REPSWITCH1_version2_list1_2023-11-10_15h41.55.444_micRespv2l1_recorded\recording_micRespv2l1_2023-11-10_15h49.34.696.wav,467.8472430999973,468.34727190004196,None,467.8472430999973,467.8472430999973,467.8472430999973,467.8472430999973,467.8472430999973,467.8472430999973,,,,,,02.02.01,001,2023-11-10_15h41.55.444,REPSWITCH1_version2_list1,2022.2.4,144.00258061295042,
REPSWITCH1/PICTURE_663.png,columna,type,gold,filler,1,F,4,1,1,2,Extra6,0,None,95,94,95,0,94,94,94,,,,,,,,,,,,,,,,,,,,,,,468.34727190004196,469.54886920005083,469.54886920005083,469.54886920005083,469.54886920005083,469.54886920005083,469.54886920005083,469.54886920005083,469.54886920005083,"['c', 'o', 'l', 'u', 'm', 'n', 'a']",0,"[1.6153916000039317, 1.728999000042677, 1.9312975000357255, 2.145858300034888, 2.3442394000012428, 2.528362500015646, 2.5961617000284605]",columna,C:\2023\REPSWITCH21092023\REPSWITCH_excgange\REPSWITCH_excgange\data/02.02.01_REPSWITCH1_version2_list1_2023-11-10_15h41.55.444_micRespv2l1_recorded\recording_micRespv2l1_2023-11-10_15h49.39.418.wav,472.5700967000448,473.0701123000472,None,472.5700967000448,472.5700967000448,472.5700967000448,472.5700967000448,472.5700967000448,472.5700967000448,,,,,,02.02.01,001,2023-11-10_15h41.55.444,REPSWITCH1_version2_list1,2022.2.4,144.00258061295042,
REPSWITCH1/PICTURE_271.png,conejo,speak,darkblue,filler,2,F,4,1,1,2,Stim7_Set3,0,None,96,95,96,0,95,95,95,,,,,,,,,,,,,,,,,,,,,,,473.0701123000472,474.1189031000249,474.1189031000249,474.1189031000249,474.1189031000249,474.1189031000249,474.1189031000249,474.1189031000249,474.1189031000249,None,0,,,C:\2023\REPSWITCH21092023\REPSWITCH_excgange\REPSWITCH_excgange\data/02.02.01_REPSWITCH1_version2_list1_2023-11-10_15h41.55.444_micRespv2l1_recorded\recording_micRespv2l1_2023-11-10_15h49.43.988.wav,477.14705400000094,,None,477.14705400000094,477.14705400000094,477.14705400000094,477.14705400000094,477.14705400000094,477.14705400000094,,,,,,02.02.01,001,2023-11-10_15h41.55.444,REPSWITCH1_version2_list1,2022.2.4,144.00258061295042,
REPSWITCH1/PICTURE_48.png,bombero,speak,darkblue,nontarget,2,NT,4,1,1,2,Stim7_Set4,0,None,97,96,97,0,96,96,96,,,,,,,,,,,,,,,,,,,,,,,477.64711940003326,478.7583765000454,478.7583765000454,478.7583765000454,478.7583765000454,478.7583765000454,478.7583765000454,478.7583765000454,478.7583765000454,None,0,,,C:\2023\REPSWITCH21092023\REPSWITCH_excgange\REPSWITCH_excgange\data/02.02.01_REPSWITCH1_version2_list1_2023-11-10_15h41.55.444_micRespv2l1_recorded\recording_micRespv2l1_2023-11-10_15h49.48.629.wav,481.7796304000076,482.2796606000047,None,481.7796304000076,481.7796304000076,481.7796304000076,481.7796304000076,481.7796304000076,481.7796304000076,,,,,,02.02.01,001,2023-11-10_15h41.55.444,REPSWITCH1_version2_list1,2022.2.4,144.00258061295042,
REPSWITCH1/PICTURE_48.png,bombero,type,gold,switch,1,T,4,1,1,2,Stim7_Set4,0,None,98,97,98,0,97,97,97,,,,,,,,,,,,,,,,,,,,,,,482.2796606000047,483.4395424000104,483.4395424000104,483.4395424000104,483.4395424000104,483.4395424000104,483.4395424000104,483.4395424000104,483.4395424000104,"['c', 'o', 'm', 'c', 'backspace', 'backspace', 'backspace']",0,"[1.137697300000582, 1.297629400040023, 1.5395238000201061, 1.7472472000517882, 2.598302800033707, 2.7947027000482194, 2.969133200007491]",c,C:\2023\REPSWITCH21092023\REPSWITCH_excgange\REPSWITCH_excgange\data/02.02.01_REPSWITCH1_version2_list1_2023-11-10_15h41.55.444_micRespv2l1_recorded\recording_micRespv2l1_2023-11-10_15h49.53.309.wav,486.46078080002917,486.9608441000455,None,486.46078080002917,486.46078080002917,486.46078080002917,486.46078080002917,486.46078080002917,486.46078080002917,,,,,,02.02.01,001,2023-11-10_15h41.55.444,REPSWITCH1_version2_list1,2022.2.4,144.00258061295042,
REPSWITCH1/PICTURE_728.png,pulpo,type,gold,nontarget,1,NT,4,1,1,2,Stim8_Set4,0,None,99,98,99,0,98,98,98,,,,,,,,,,,,,,,,,,,,,,,486.9608441000455,487.9818711000262,487.9818711000262,487.9818711000262,487.9818711000262,487.9818711000262,487.9818711000262,487.9818711000262,487.9818711000262,"['p', 'u', 'l', 'p', 'o']",0,"[1.1603441999759525, 1.460592399991583, 1.708737199951429, 1.939990899991244, 2.1094186999835074]",pulpo,C:\2023\REPSWITCH21092023\REPSWITCH_excgange\REPSWITCH_excgange\data/02.02.01_REPSWITCH1_version2_list1_2023-11-10_15h41.55.444_micRespv2l1_recorded\recording_micRespv2l1_2023-11-10_15h49.57.851.wav,491.00311390002025,491.5031026000506,None,491.00311390002025,491.00311390002025,491.00311390002025,491.00311390002025,491.00311390002025,491.00311390002025,,,,,,02.02.01,001,2023-11-10_15h41.55.444,REPSWITCH1_version2_list1,2022.2.4,144.00258061295042,
REPSWITCH1/PICTURE_728.png,pulpo,type,gold,repeat,1,T,4,1,1,2,Stim8_Set4,0,None,100,99,100,0,99,99,99,,,,,,,,,,,,,,,,,,,,,,,491.5031026000506,492.51024000003235,492.51024000003235,492.51024000003235,492.51024000003235,492.51024000003235,492.51024000003235,492.51024000003235,492.51024000003235,"['p', 'u', 'l', 'p', 'o']",0,"[1.1205927000264637, 1.5205306999851018, 1.7694352000253275, 2.0066385000245646, 2.1973342999699526]",pulpo,C:\2023\REPSWITCH21092023\REPSWITCH_excgange\REPSWITCH_excgange\data/02.02.01_REPSWITCH1_version2_list1_2023-11-10_15h41.55.444_micRespv2l1_recorded\recording_micRespv2l1_2023-11-10_15h50.02.380.wav,495.5313837000285,496.0314629000495,None,495.5313837000285,495.5313837000285,495.5313837000285,495.5313837000285,495.5313837000285,495.5313837000285,,,,,,02.02.01,001,2023-11-10_15h41.55.444,REPSWITCH1_version2_list1,2022.2.4,144.00258061295042,
REPSWITCH1/PICTURE_320.png,iglesia,speak,darkblue,filler,1,F,4,1,1,2,Stim8_Set3,0,None,101,100,101,0,100,100,100,,,,,,,,,,,,,,,,,,,,,,,496.0314629000495,497.17053440003656,497.17053440003656,497.17053440003656,497.17053440003656,497.17053440003656,497.17053440003656,497.17053440003656,497.17053440003656,None,0,,,C:\2023\REPSWITCH21092023\REPSWITCH_excgange\REPSWITCH_excgange\data/02.02.01_REPSWITCH1_version2_list1_2023-11-10_15h41.55.444_micRespv2l1_recorded\recording_micRespv2l1_2023-11-10_15h50.07.041.wav,500.1917069000192,500.6917918000254,None,500.1917069000192,500.1917069000192,500.1917069000192,500.1917069000192,500.1917069000192,500.1917069000192,,,,,,02.02.01,001,2023-11-10_15h41.55.444,REPSWITCH1_version2_list1,2022.2.4,144.00258061295042,
REPSWITCH1/PICTURE_464.png,goma,type,gold,filler,1,F,4,1,1,2,Stim6_Set3,0,None,102,101,102,0,101,101,101,,,,,,,,,,,,,,,,,,,,,,,500.6917918000254,501.7544484999962,501.7544484999962,501.7544484999962,501.7544484999962,501.7544484999962,501.7544484999962,501.7544484999962,501.7544484999962,"['g', 'o', 'm', 'a']",0,"[1.1095139000099152, 1.243061899964232, 1.4628330999985337, 1.5993559999624267]",goma,C:\2023\REPSWITCH21092023\REPSWITCH_excgange\REPSWITCH_excgange\data/02.02.01_REPSWITCH1_version2_list1_2023-11-10_15h41.55.444_micRespv2l1_recorded\recording_micRespv2l1_2023-11-10_15h50.11.624.wav,504.7756752000423,505.2757401000126,space,504.7756752000423,504.7756752000423,504.7756752000423,504.7756752000423,504.7756752000423,504.7756752000423,505.2757401000126,505.2757401000126,14.193488300021272,,,02.02.01,001,2023-11-10_15h41.55.444,REPSWITCH1_version2_list1,2022.2.4,144.00258061295042,
REPSWITCH1/PICTURE_663.png,columna,type,gold,filler,1,F,1,2,1,2,Extra6,0,None,103,102,1,0,102,102,102,,,,,,,,,,,,,,,,,,,,,,,519.4789900000324,520.6458062000456,520.6458062000456,520.6458062000456,520.6458062000456,520.6458062000456,520.6458062000456,520.6458062000456,520.6458062000456,"['c', 'o', 'l', 'u', 'm', 'n', 'a']",0,"[1.0498406999977306, 1.1762119000195526, 1.367239699990023, 1.6392902999650687, 1.8399955999921076, 2.029084399982821, 2.135494899994228]",columna,C:\2023\REPSWITCH21092023\REPSWITCH_excgange\REPSWITCH_excgange\data/02.02.01_REPSWITCH1_version2_list1_2023-11-10_15h41.55.444_micRespv2l1_recorded\recording_micRespv2l1_2023-11-10_15h50.30.516.wav,523.673964400019,,None,523.673964400019,523.673964400019,523.673964400019,523.673964400019,523.673964400019,523.673964400019,,,,,,02.02.01,001,2023-11-10_15h41.55.444,REPSWITCH1_version2_list1,2022.2.4,144.00258061295042,
REPSWITCH1/PICTURE_128.png,muñeca,speak,darkblue,nontarget,2,NT,1,2,1,2,Stim4_Set1,1,switch,104,103,2,0,103,103,103,,,,,,,,,,,,,,,,,,,,,,,524.1740554000135,525.2783477000194,525.2783477000194,525.2783477000194,525.2783477000194,525.2783477000194,525.2783477000194,525.2783477000194,525.2783477000194,None,0,,,C:\2023\REPSWITCH21092023\REPSWITCH_excgange\REPSWITCH_excgange\data/02.02.01_REPSWITCH1_version2_list1_2023-11-10_15h41.55.444_micRespv2l1_recorded\recording_micRespv2l1_2023-11-10_15h50.35.148.wav,528.2996593000134,528.7996567999944,None,528.2996593000134,528.2996593000134,528.2996593000134,528.2996593000134,528.2996593000134,528.2996593000134,,,,,,02.02.01,001,2023-11-10_15h41.55.444,REPSWITCH1_version2_list1,2022.2.4,144.00258061295042,
REPSWITCH1/PICTURE_128.png,muñeca,speak,darkblue,repeat,2,T,1,2,1,2,Stim4_Set1,0,None,105,104,3,0,104,104,104,,,,,,,,,,,,,,,,,,,,,,,528.7996567999944,529.8761921999976,529.8761921999976,529.8761921999976,529.8761921999976,529.8761921999976,529.8761921999976,529.8761921999976,529.8761921999976,None,0,,,C:\2023\REPSWITCH21092023\REPSWITCH_excgange\REPSWITCH_excgange\data/02.02.01_REPSWITCH1_version2_list1_2023-11-10_15h41.55.444_micRespv2l1_recorded\recording_micRespv2l1_2023-11-10_15h50.39.746.wav,532.897392200015,533.3974820000003,None,532.897392200015,532.897392200015,532.897392200015,532.897392200015,532.897392200015,532.897392200015,,,,,,02.02.01,001,2023-11-10_15h41.55.444,REPSWITCH1_version2_list1,2022.2.4,144.00258061295042,
REPSWITCH1/PICTURE_8.png,pierna,type,gold,filler,1,F,1,2,1,2,Stim3_Set4,0,None,106,105,4,0,105,105,105,,,,,,,,,,,,,,,,,,,,,,,533.3974820000003,534.5504157000105,534.5504157000105,534.5504157000105,534.5504157000105,534.5504157000105,534.5504157000105,534.5504157000105,534.5504157000105,"['p', 'i', 'e', 'r', 'n', 'a']",0,"[1.1059483000426553, 1.3797792000113986, 1.5614751999964938, 1.7537984999944456, 2.0827003000304103, 2.2143057000357658]",pierna,C:\2023\REPSWITCH21092023\REPSWITCH_excgange\REPSWITCH_excgange\data/02.02.01_REPSWITCH1_version2_list1_2023-11-10_15h41.55.444_micRespv2l1_recorded\recording_micRespv2l1_2023-11-10_15h50.44.421.wav,537.5716444000136,538.0717142000212,None,537.5716444000136,537.5716444000136,537.5716444000136,537.5716444000136,537.5716444000136,537.5716444000136,,,,,,02.02.01,001,2023-11-10_15h41.55.444,REPSWITCH1_version2_list1,2022.2.4,144.00258061295042,
REPSWITCH1/PICTURE_135.png,traje,speak,darkblue,nontarget,2,NT,1,2,1,2,Stim3_Set1,1,switch,107,106,5,0,106,106,106,,,,,,,,,,,,,,,,,,,,,,,538.0717142000212,539.1066222999943,539.1066222999943,539.1066222999943,539.1066222999943,539.1066222999943,539.1066222999943,539.1066222999943,539.1066222999943,None,0,,,C:\2023\REPSWITCH21092023\REPSWITCH_excgange\REPSWITCH_excgange\data/02.02.01_REPSWITCH1_version2_list1_2023-11-10_15h41.55.444_micRespv2l1_recorded\recording_micRespv2l1_2023-11-10_15h50.48.976.wav,542.1277969000512,542.6278564000386,None,542.1277969000512,542.1277969000512,542.1277969000512,542.1277969000512,542.1277969000512,542.1277969000512,,,,,,02.02.01,001,2023-11-10_15h41.55.444,REPSWITCH1_version2_list1,2022.2.4,144.00258061295042,
REPSWITCH1/PICTURE_135.png,traje,speak,darkblue,repeat,2,T,1,2,1,2,Stim3_Set1,0,None,108,107,6,0,107,107,107,,,,,,,,,,,,,,,,,,,,,,,542.6278564000386,543.7183290999965,543.7183290999965,543.7183290999965,543.7183290999965,543.7183290999965,543.7183290999965,543.7183290999965,543.7183290999965,None,0,,,C:\2023\REPSWITCH21092023\REPSWITCH_excgange\REPSWITCH_excgange\data/02.02.01_REPSWITCH1_version2_list1_2023-11-10_15h41.55.444_micRespv2l1_recorded\recording_micRespv2l1_2023-11-10_15h50.53.587.wav,546.7395000000251,547.2395742000081,None,546.7395000000251,546.7395000000251,546.7395000000251,546.7395000000251,546.7395000000251,546.7395000000251,,,,,,02.02.01,001,2023-11-10_15h41.55.444,REPSWITCH1_version2_list1,2022.2.4,144.00258061295042,
REPSWITCH1/PICTURE_673.png,tenedor,type,gold,filler,1,F,1,2,1,2,Extra5,0,None,109,108,7,0,108,108,108,,,,,,,,,,,,,,,,,,,,,,,547.2395742000081,548.3855361000169,548.3855361000169,548.3855361000169,548.3855361000169,548.3855361000169,548.3855361000169,548.3855361000169,548.3855361000169,"['t', 'e', 'n', 'e', 'd', 'o', 'r']",0,"[1.0391428000293672, 1.162336300010793, 1.3121379000367597, 1.4098036999930628, 1.600168900040444, 1.746728300000541, 1.900824600015767]",tenedor,C:\2023\REPSWITCH21092023\REPSWITCH_excgange\REPSWITCH_excgange\data/02.02.01_REPSWITCH1_version2_list1_2023-11-10_15h41.55.444_micRespv2l1_recorded\recording_micRespv2l1_2023-11-10_15h50.58.256.wav,551.4067649000208,551.9068517000414,None,551.4067649000208,551.4067649000208,551.4067649000208,551.4067649000208,551.4067649000208,551.4067649000208,,,,,,02.02.01,001,2023-11-10_15h41.55.444,REPSWITCH1_version2_list1,2022.2.4,144.00258061295042,
REPSWITCH1/PICTURE_728.png,pulpo,speak,darkblue,filler,2,F,1,2,1,2,Stim8_Set4,0,None,110,109,8,0,109,109,109,,,,,,,,,,,,,,,,,,,,,,,551.9068517000414,553.0597668000264,553.0597668000264,553.0597668000264,553.0597668000264,553.0597668000264,553.0597668000264,553.0597668000264,553.0597668000264,None,0,,,C:\2023\REPSWITCH21092023\REPSWITCH_excgange\REPSWITCH_excgange\data/02.02.01_REPSWITCH1_version2_list1_2023-11-10_15h41.55.444_micRespv2l1_recorded\recording_micRespv2l1_2023-11-10_15h51.02.930.wav,556.0879674000316,,None,556.0879674000316,556.0879674000316,556.0879674000316,556.0879674000316,556.0879674000316,556.0879674000316,,,,,,02.02.01,001,2023-11-10_15h41.55.444,REPSWITCH1_version2_list1,2022.2.4,144.00258061295042,
REPSWITCH1/PICTURE_16.png,cazador,speak,darkblue,nontarget,2,NT,1,2,1,2,Stim6_Set1,1,repeat,111,110,9,0,110,110,110,,,,,,,,,,,,,,,,,,,,,,,556.5880244,557.7340220000478,557.7340220000478,557.7340220000478,557.7340220000478,557.7340220000478,557.7340220000478,557.7340220000478,557.7340220000478,None,0,,,C:\2023\REPSWITCH21092023\REPSWITCH_excgange\REPSWITCH_excgange\data/02.02.01_REPSWITCH1_version2_list1_2023-11-10_15h41.55.444_micRespv2l1_recorded\recording_micRespv2l1_2023-11-10_15h51.07.603.wav,560.7552146000089,561.2552748000016,None,560.7552146000089,560.7552146000089,560.7552146000089,560.7552146000089,560.7552146000089,560.7552146000089,,,,,,02.02.01,001,2023-11-10_15h41.55.444,REPSWITCH1_version2_list1,2022.2.4,144.00258061295042,
REPSWITCH1/PICTURE_16.png,cazador,type,gold,switch,1,T,1,2,1,2,Stim6_Set1,0,None,112,111,10,0,111,111,111,,,,,,,,,,,,,,,,,,,,,,,561.2552748000016,562.3804572999943,562.3804572999943,562.3804572999943,562.3804572999943,562.3804572999943,562.3804572999943,562.3804572999943,562.3804572999943,"['c', 'a', 'z', 'a', 'd', 'o', 'r']",0,"[1.3214269999880344, 1.4589360999525525, 1.7848469999735244, 1.9652321999892592, 2.2513233999488875, 2.434672999952454, 2.567503999976907]",cazador,C:\2023\REPSWITCH21092023\REPSWITCH_excgange\REPSWITCH_excgange\data/02.02.01_REPSWITCH1_version2_list1_2023-11-10_15h41.55.444_micRespv2l1_recorded\recording_micRespv2l1_2023-11-10_15h51.12.250.wav,565.4016830000328,565.9017375000403,None,565.4016830000328,565.4016830000328,565.4016830000328,565.4016830000328,565.4016830000328,565.4016830000328,,,,,,02.02.01,001,2023-11-10_15h41.55.444,REPSWITCH1_version2_list1,2022.2.4,144.00258061295042,
REPSWITCH1/PICTURE_498.png,taza,type,gold,filler,1,F,1,2,1,2,Stim4_Set4,1,repeat,113,112,11,0,112,112,112,,,,,,,,,,,,,,,,,,,,,,,565.9017375000403,566.9922292000265,566.9922292000265,566.9922292000265,566.9922292000265,566.9922292000265,566.9922292000265,566.9922292000265,566.9922292000265,"['t', 'a', 'z', 'a']",0,"[0.9343389000277966, 1.009489800024312, 1.3552966000279412, 1.6165220999973826]",taza,C:\2023\REPSWITCH21092023\REPSWITCH_excgange\REPSWITCH_excgange\data/02.02.01_REPSWITCH1_version2_list1_2023-11-10_15h41.55.444_micRespv2l1_recorded\recording_micRespv2l1_2023-11-10_15h51.16.861.wav,570.0133996000513,570.5134587000357,None,570.0133996000513,570.0133996000513,570.0133996000513,570.0133996000513,570.0133996000513,570.0133996000513,,,,,,02.02.01,001,2023-11-10_15h41.55.444,REPSWITCH1_version2_list1,2022.2.4,144.00258061295042,
REPSWITCH1/PICTURE_381.png,fresa,type,gold,nontarget,1,NT,1,2,1,2,Stim2_Set1,1,repeat,114,113,12,0,113,113,113,,,,,,,,,,,,,,,,,,,,,,,570.5134587000357,571.5621931000496,571.5621931000496,571.5621931000496,571.5621931000496,571.5621931000496,571.5621931000496,571.5621931000496,571.5621931000496,"['f', 'r', 'e', 's', 'a']",0,"[0.9747534999623895, 1.1490909999702126, 1.3254655000055209, 1.55701659998158, 1.7215001999866217]",fresa,C:\2023\REPSWITCH21092023\REPSWITCH_excgange\REPSWITCH_excgange\data/02.02.01_REPSWITCH1_version2_list1_2023-11-10_15h41.55.444_micRespv2l1_recorded\recording_micRespv2l1_2023-11-10_15h51.21.432.wav,574.5834046000382,575.0835128000472,None,574.5834046000382,574.5834046000382,574.5834046000382,574.5834046000382,574.5834046000382,574.5834046000382,,,,,,02.02.01,001,2023-11-10_15h41.55.444,REPSWITCH1_version2_list1,2022.2.4,144.00258061295042,
REPSWITCH1/PICTURE_381.png,fresa,speak,darkblue,switch,2,T,1,2,1,2,Stim2_Set1,0,None,115,114,13,0,114,114,114,,,,,,,,,,,,,,,,,,,,,,,575.0835128000472,576.3337198999943,576.3337198999943,576.3337198999943,576.3337198999943,576.3337198999943,576.3337198999943,576.3337198999943,576.3337198999943,None,0,,,C:\2023\REPSWITCH21092023\REPSWITCH_excgange\REPSWITCH_excgange\data/02.02.01_REPSWITCH1_version2_list1_2023-11-10_15h41.55.444_micRespv2l1_recorded\recording_micRespv2l1_2023-11-10_15h51.26.204.wav,579.3618400000269,,None,579.3618400000269,579.3618400000269,579.3618400000269,579.3618400000269,579.3618400000269,579.3618400000269,,,,,,02.02.01,001,2023-11-10_15h41.55.444,REPSWITCH1_version2_list1,2022.2.4,144.00258061295042,
REPSWITCH1/PICTURE_178.png,puente,speak,darkblue,nontarget,2,NT,1,2,1,2,Stim1_Set1,0,None,116,115,14,0,115,115,115,,,,,,,,,,,,,,,,,,,,,,,579.8618956000428,580.9314800000284,580.9314800000284,580.9314800000284,580.9314800000284,580.9314800000284,580.9314800000284,580.9314800000284,580.9314800000284,None,0,,,C:\2023\REPSWITCH21092023\REPSWITCH_excgange\REPSWITCH_excgange\data/02.02.01_REPSWITCH1_version2_list1_2023-11-10_15h41.55.444_micRespv2l1_recorded\recording_micRespv2l1_2023-11-10_15h51.30.802.wav,583.9527447000146,584.4527889000019,None,583.9527447000146,583.9527447000146,583.9527447000146,583.9527447000146,583.9527447000146,583.9527447000146,,,,,,02.02.01,001,2023-11-10_15h41.55.444,REPSWITCH1_version2_list1,2022.2.4,144.00258061295042,
REPSWITCH1/PICTURE_178.png,puente,type,gold,switch,1,T,1,2,1,2,Stim1_Set1,0,None,117,116,15,0,116,116,116,,,,,,,,,,,,,,,,,,,,,,,584.4527889000019,585.4806984000024,585.4806984000024,585.4806984000024,585.4806984000024,585.4806984000024,585.4806984000024,585.4806984000024,585.4806984000024,"['p', 'u', 'e', 'n', 't', 'e']",0,"[1.111388600023929, 1.3804168000351638, 1.5099013000144623, 1.6354388000327162, 1.8480667000403628, 2.0065241000265814]",puente,C:\2023\REPSWITCH21092023\REPSWITCH_excgange\REPSWITCH_excgange\data/02.02.01_REPSWITCH1_version2_list1_2023-11-10_15h41.55.444_micRespv2l1_recorded\recording_micRespv2l1_2023-11-10_15h51.35.350.wav,588.5019940000493,589.0019996000337,None,588.5019940000493,588.5019940000493,588.5019940000493,588.5019940000493,588.5019940000493,588.5019940000493,,,,,,02.02.01,001,2023-11-10_15h41.55.444,REPSWITCH1_version2_list1,2022.2.4,144.00258061295042,
REPSWITCH1/PICTURE_719.png,baño,speak,darkblue,filler,2,F,1,2,1,2,Stim2_Set4,0,None,118,117,16,0,117,117,117,,,,,,,,,,,,,,,,,,,,,,,589.0019996000337,590.078583399998,590.078583399998,590.078583399998,590.078583399998,590.078583399998,590.078583399998,590.078583399998,590.078583399998,None,0,,,C:\2023\REPSWITCH21092023\REPSWITCH_excgange\REPSWITCH_excgange\data/02.02.01_REPSWITCH1_version2_list1_2023-11-10_15h41.55.444_micRespv2l1_recorded\recording_micRespv2l1_2023-11-10_15h51.39.948.wav,593.0997430999996,593.5998221000191,None,593.0997430999996,593.0997430999996,593.0997430999996,593.0997430999996,593.0997430999996,593.0997430999996,,,,,,02.02.01,001,2023-11-10_15h41.55.444,REPSWITCH1_version2_list1,2022.2.4,144.00258061295042,
REPSWITCH1/PICTURE_169.png,espalda,type,gold,nontarget,1,NT,1,2,1,2,Stim8_Set1,1,switch,119,118,17,0,118,118,118,,,,,,,,,,,,,,,,,,,,,,,593.5998221000191,594.6693892000476,594.6693892000476,594.6693892000476,594.6693892000476,594.6693892000476,594.6693892000476,594.6693892000476,594.6693892000476,"['e', 's', 'p', 'a', 'l', 'd', 'a']",0,"[0.9011998000205494, 1.0748937000171281, 1.25113250000868, 1.3218975000199862, 1.5051558000268415, 1.6775819000322372, 1.8290690000285394]",espalda,C:\2023\REPSWITCH21092023\REPSWITCH_excgange\REPSWITCH_excgange\data/02.02.01_REPSWITCH1_version2_list1_2023-11-10_15h41.55.444_micRespv2l1_recorded\recording_micRespv2l1_2023-11-10_15h51.44.539.wav,597.6906396000413,598.1906606000266,None,597.6906396000413,597.6906396000413,597.6906396000413,597.6906396000413,597.6906396000413,597.6906396000413,,,,,,02.02.01,001,2023-11-10_15h41.55.444,REPSWITCH1_version2_list1,2022.2.4,144.00258061295042,
REPSWITCH1/PICTURE_169.png,espalda,type,gold,repeat,1,T,1,2,1,2,Stim8_Set1,0,None,120,119,18,0,119,119,119,,,,,,,,,,,,,,,,,,,,,,,598.1906606000266,599.2741764000384,599.2741764000384,599.2741764000384,599.2741764000384,599.2741764000384,599.2741764000384,599.2741764000384,599.2741764000384,"['e', 's', 'p', 'a', 'l', 'd', 'a']",0,"[0.7170595999923535, 0.9489010999677703, 1.1852188999764621, 1.2919491999782622, 1.4682529999990948, 1.6962463000090793, 1.8321751999901608]",espalda,C:\2023\REPSWITCH21092023\REPSWITCH_excgange\REPSWITCH_excgange\data/02.02.01_REPSWITCH1_version2_list1_2023-11-10_15h41.55.444_micRespv2l1_recorded\recording_micRespv2l1_2023-11-10_15h51.49.144.wav,602.3023787999991,,None,602.3023787999991,602.3023787999991,602.3023787999991,602.3023787999991,602.3023787999991,602.3023787999991,,,,,,02.02.01,001,2023-11-10_15h41.55.444,REPSWITCH1_version2_list1,2022.2.4,144.00258061295042,
