image,correctAns,respModal,frameColor,repSwitch,sequence,target,set,block,list,exp_version,stimulus,baseline,baseline_condition,trial_no,psychopy_trial,Column1,trialsREPSWITCH.thisRepN,trialsREPSWITCH.thisTrialN,trialsREPSWITCH.thisN,trialsREPSWITCH.thisIndex,textWelcome.started,textboxInstrMain1.started,textboxInstrMain1_2.started,textboxInstrMain1_3.started,keyInstrMain.started,keyInstrMain.keys,keyInstrMain.rt,textboxInstrMain2.started,textboxInstrMain2_2.started,textboxInstrMain2_3.started,textboxInstrMain2_4.started,textboxInstrMain2_5.started,textboxInstrMain2_6.started,textboxInstrMain2_7.started,textboxInstrMain2_8.started,textboxInstrMain2_9.started,textboxInstrMain2_10.started,textboxInstrMain2_11.started,textboxInstrMain2_12.started,keyInstrMain2.started,keyInstrMain2.keys,keyInstrMain2.rt,fixationITI.started,fixationITI.stopped,polygonColour.started,polygonWhite.started,imageObject.started,polygonType.started,textInput.started,keyResp.started,micRespv1l2.started,keyResp.keys,keyResp.corr,subjResponse,micRespv1l2.clip,textBlankLoop.started,textBlankLoop.stopped,keyPause.keys,polygonColour.stopped,polygonWhite.stopped,imageObject.stopped,polygonType.stopped,textInput.stopped,keyResp.stopped,keyResp.rt,textboxPause.started,keyPause.started,keyPause.rt,textboxGoodbye.started,textboxGoodbye.stopped,participant,session,date,expName,psychopyVersion,frameRate,
,,,,,,,,,,,,,,,,,,,,,31.62774460000219,34.12257020000834,34.12257020000834,34.12257020000834,34.12257020000834,space,9.71201060002204,,,,,,,,,,,,,,,,,,,,,,,,,,,,,,,,,,,,,,,,,,,,03.01.02,001,2023-11-10_16h53.17.642,REPSWITCH1_version1_list2,2022.2.4,143.91139662679473,
,,,,,,,,,,,,,,,,,,,,,,,,,,,,43.8530080000055,43.8530080000055,43.8530080000055,43.8530080000055,43.8530080000055,43.8530080000055,43.8530080000055,43.8530080000055,43.8530080000055,43.8530080000055,43.8530080000055,43.8530080000055,43.8530080000055,space,4.492527000023983,,,,,,,,,,,,,,,,,,,,,,,,,,,,,03.01.02,001,2023-11-10_16h53.17.642,REPSWITCH1_version1_list2,2022.2.4,143.91139662679473,
REPSWITCH1/PICTURE_646.png,tronco,speak,gold,filler,2,F,1,3,2,1,Extra4,0,None,1,0,1,0,0,0,0,,,,,,,,,,,,,,,,,,,,,,,48.43694580002921,49.464879300037865,49.464879300037865,49.464879300037865,49.464879300037865,49.464879300037865,49.464879300037865,49.464879300037865,49.464879300037865,None,0,,C:\2023\REPSWITCH21092023\REPSWITCH_excgange\REPSWITCH_excgange\data/03.01.02_REPSWITCH1_version1_list2_2023-11-10_16h53.17.642_micRespv1l2_recorded\recording_micRespv1l2_2023-11-10_16h53.40.355.wav,52.48607899999479,52.98615770001197,None,,,,,,,,,,,,,03.01.02,001,2023-11-10_16h53.17.642,REPSWITCH1_version1_list2,2022.2.4,143.91139662679473,
REPSWITCH1/PICTURE_340.png,espejo,type,darkblue,filler,1,F,1,3,2,1,Extra1,0,None,2,1,2,0,1,1,1,,,,,,,,,,,,,,,,,,,,,,,52.98615770001197,54.139069200027734,54.139069200027734,54.139069200027734,54.139069200027734,54.139069200027734,54.139069200027734,54.139069200027734,54.139069200027734,"['e', 's', 'p', 'e', 'j', 'o']",0,espejo,C:\2023\REPSWITCH21092023\REPSWITCH_excgange\REPSWITCH_excgange\data/03.01.02_REPSWITCH1_version1_list2_2023-11-10_16h53.17.642_micRespv1l2_recorded\recording_micRespv1l2_2023-11-10_16h53.45.033.wav,57.16028940002434,57.66033789998619,None,57.16028940002434,57.16028940002434,57.16028940002434,57.16028940002434,57.16028940002434,57.16028940002434,"[1.0623733999673277, 1.2927148999879137, 1.4986919999937527, 1.661145200021565, 2.0602268999791704, 2.1259731000172906]",,,,,,03.01.02,001,2023-11-10_16h53.17.642,REPSWITCH1_version1_list2,2022.2.4,143.91139662679473,
REPSWITCH1/PICTURE_338.png,regalo,speak,gold,filler,2,F,1,3,2,1,Stim6_Set4,0,None,3,2,3,0,2,2,2,,,,,,,,,,,,,,,,,,,,,,,57.66033789998619,58.757764300040435,58.757764300040435,58.757764300040435,58.757764300040435,58.757764300040435,58.757764300040435,58.757764300040435,58.757764300040435,None,0,,C:\2023\REPSWITCH21092023\REPSWITCH_excgange\REPSWITCH_excgange\data/03.01.02_REPSWITCH1_version1_list2_2023-11-10_16h53.17.642_micRespv1l2_recorded\recording_micRespv1l2_2023-11-10_16h53.49.652.wav,61.778933299996424,62.27903580002021,None,61.778933299996424,61.778933299996424,61.778933299996424,61.778933299996424,61.778933299996424,61.778933299996424,,,,,,,03.01.02,001,2023-11-10_16h53.17.642,REPSWITCH1_version1_list2,2022.2.4,143.91139662679473,
REPSWITCH1/PICTURE_142.png,vaso,speak,gold,nontarget,2,NT,1,3,2,1,Stim7_Set1,1,repeat,4,3,4,0,3,3,3,,,,,,,,,,,,,,,,,,,,,,,62.27903580002021,63.45975800004089,63.45975800004089,63.45975800004089,63.45975800004089,63.45975800004089,63.45975800004089,63.45975800004089,63.45975800004089,None,0,,C:\2023\REPSWITCH21092023\REPSWITCH_excgange\REPSWITCH_excgange\data/03.01.02_REPSWITCH1_version1_list2_2023-11-10_16h53.17.642_micRespv1l2_recorded\recording_micRespv1l2_2023-11-10_16h53.54.354.wav,66.48798060003901,,None,66.48798060003901,66.48798060003901,66.48798060003901,66.48798060003901,66.48798060003901,66.48798060003901,,,,,,,03.01.02,001,2023-11-10_16h53.17.642,REPSWITCH1_version1_list2,2022.2.4,143.91139662679473,
REPSWITCH1/PICTURE_142.png,vaso,speak,gold,repeat,2,T,1,3,2,1,Stim7_Set1,0,None,5,4,5,0,4,4,4,,,,,,,,,,,,,,,,,,,,,,,66.98806100001093,68.0228466000408,68.0228466000408,68.0228466000408,68.0228466000408,68.0228466000408,68.0228466000408,68.0228466000408,68.0228466000408,None,0,,C:\2023\REPSWITCH21092023\REPSWITCH_excgange\REPSWITCH_excgange\data/03.01.02_REPSWITCH1_version1_list2_2023-11-10_16h53.17.642_micRespv1l2_recorded\recording_micRespv1l2_2023-11-10_16h53.58.917.wav,71.04407760000322,71.54412050003884,None,71.04407760000322,71.04407760000322,71.04407760000322,71.04407760000322,71.04407760000322,71.04407760000322,,,,,,,03.01.02,001,2023-11-10_16h53.17.642,REPSWITCH1_version1_list2,2022.2.4,143.91139662679473,
REPSWITCH1/PICTURE_498.png,taza,type,darkblue,filler,1,F,1,3,2,1,Stim4_Set4,0,None,6,5,6,0,5,5,5,,,,,,,,,,,,,,,,,,,,,,,71.54412050003884,72.62065460003214,72.62065460003214,72.62065460003214,72.62065460003214,72.62065460003214,72.62065460003214,72.62065460003214,72.62065460003214,"['t', 'a', 'z', 'a']",0,taza,C:\2023\REPSWITCH21092023\REPSWITCH_excgange\REPSWITCH_excgange\data/03.01.02_REPSWITCH1_version1_list2_2023-11-10_16h53.17.642_micRespv1l2_recorded\recording_micRespv1l2_2023-11-10_16h54.03.515.wav,75.64196820004145,76.1419695999939,None,75.64196820004145,75.64196820004145,75.64196820004145,75.64196820004145,75.64196820004145,75.64196820004145,"[1.4252105000196025, 1.5189297000179067, 1.8638867000117898, 2.0111533000017516]",,,,,,03.01.02,001,2023-11-10_16h53.17.642,REPSWITCH1_version1_list2,2022.2.4,143.91139662679473,
REPSWITCH1/PICTURE_16.png,cazador,speak,gold,nontarget,2,NT,1,3,2,1,Stim6_Set1,1,switch,7,6,7,0,6,6,6,,,,,,,,,,,,,,,,,,,,,,,76.1419695999939,77.17683730000863,77.17683730000863,77.17683730000863,77.17683730000863,77.17683730000863,77.17683730000863,77.17683730000863,77.17683730000863,None,0,,C:\2023\REPSWITCH21092023\REPSWITCH_excgange\REPSWITCH_excgange\data/03.01.02_REPSWITCH1_version1_list2_2023-11-10_16h53.17.642_micRespv1l2_recorded\recording_micRespv1l2_2023-11-10_16h54.08.071.wav,80.2050458000158,,None,80.2050458000158,80.2050458000158,80.2050458000158,80.2050458000158,80.2050458000158,80.2050458000158,,,,,,,03.01.02,001,2023-11-10_16h53.17.642,REPSWITCH1_version1_list2,2022.2.4,143.91139662679473,
REPSWITCH1/PICTURE_16.png,cazador,speak,gold,repeat,2,T,1,3,2,1,Stim6_Set1,0,None,8,7,8,0,7,7,7,,,,,,,,,,,,,,,,,,,,,,,80.70505170000251,81.77470410004025,81.77470410004025,81.77470410004025,81.77470410004025,81.77470410004025,81.77470410004025,81.77470410004025,81.77470410004025,None,0,,C:\2023\REPSWITCH21092023\REPSWITCH_excgange\REPSWITCH_excgange\data/03.01.02_REPSWITCH1_version1_list2_2023-11-10_16h53.17.642_micRespv1l2_recorded\recording_micRespv1l2_2023-11-10_16h54.12.668.wav,84.79585480003152,85.29600959998788,None,84.79585480003152,84.79585480003152,84.79585480003152,84.79585480003152,84.79585480003152,84.79585480003152,,,,,,,03.01.02,001,2023-11-10_16h53.17.642,REPSWITCH1_version1_list2,2022.2.4,143.91139662679473,
REPSWITCH1/PICTURE_719.png,baño,type,darkblue,filler,1,F,1,3,2,1,Stim2_Set4,0,None,9,8,9,0,8,8,8,,,,,,,,,,,,,,,,,,,,,,,85.29600959998788,86.35161860001972,86.35161860001972,86.35161860001972,86.35161860001972,86.35161860001972,86.35161860001972,86.35161860001972,86.35161860001972,"['b', 'a', 'ñ', 'o']",0,baño,C:\2023\REPSWITCH21092023\REPSWITCH_excgange\REPSWITCH_excgange\data/03.01.02_REPSWITCH1_version1_list2_2023-11-10_16h53.17.642_micRespv1l2_recorded\recording_micRespv1l2_2023-11-10_16h54.17.246.wav,89.37284930003807,89.87292480003089,None,89.37284930003807,89.37284930003807,89.37284930003807,89.37284930003807,89.37284930003807,89.37284930003807,"[1.223103699972853, 1.3845017999992706, 1.8572112999972887, 1.9558755999896675]",,,,,,03.01.02,001,2023-11-10_16h53.17.642,REPSWITCH1_version1_list2,2022.2.4,143.91139662679473,
REPSWITCH1/PICTURE_169.png,espalda,speak,gold,nontarget,2,NT,1,3,2,1,Stim8_Set1,0,None,10,9,10,0,9,9,9,,,,,,,,,,,,,,,,,,,,,,,89.87292480003089,91.02590579999378,91.02590579999378,91.02590579999378,91.02590579999378,91.02590579999378,91.02590579999378,91.02590579999378,91.02590579999378,None,0,,C:\2023\REPSWITCH21092023\REPSWITCH_excgange\REPSWITCH_excgange\data/03.01.02_REPSWITCH1_version1_list2_2023-11-10_16h53.17.642_micRespv1l2_recorded\recording_micRespv1l2_2023-11-10_16h54.21.920.wav,94.04716310004005,94.54711759998463,None,94.04716310004005,94.04716310004005,94.04716310004005,94.04716310004005,94.04716310004005,94.04716310004005,,,,,,,03.01.02,001,2023-11-10_16h53.17.642,REPSWITCH1_version1_list2,2022.2.4,143.91139662679473,
REPSWITCH1/PICTURE_169.png,espalda,type,darkblue,switch,1,T,1,3,2,1,Stim8_Set1,0,None,11,10,11,0,10,10,10,,,,,,,,,,,,,,,,,,,,,,,94.54711759998463,95.71394729998428,95.71394729998428,95.71394729998428,95.71394729998428,95.71394729998428,95.71394729998428,95.71394729998428,95.71394729998428,"['e', 's', 'p', 'a', 'l', 'd', 'a']",0,espalda,C:\2023\REPSWITCH21092023\REPSWITCH_excgange\REPSWITCH_excgange\data/03.01.02_REPSWITCH1_version1_list2_2023-11-10_16h53.17.642_micRespv1l2_recorded\recording_micRespv1l2_2023-11-10_16h54.26.608.wav,98.7351675000391,99.23529550002422,None,98.7351675000391,98.7351675000391,98.7351675000391,98.7351675000391,98.7351675000391,98.7351675000391,"[1.0937374999630265, 1.2048707999638282, 1.4284256999962963, 1.5829091999912634, 1.6972643999615684, 1.8358011999516748, 1.9494185999501497]",,,,,,03.01.02,001,2023-11-10_16h53.17.642,REPSWITCH1_version1_list2,2022.2.4,143.91139662679473,
REPSWITCH1/PICTURE_687.png,camisa,type,darkblue,filler,1,F,1,3,2,1,Stim5_Set4,0,None,12,11,12,0,11,11,11,,,,,,,,,,,,,,,,,,,,,,,99.23529550002422,100.38121550000506,100.38121550000506,100.38121550000506,100.38121550000506,100.38121550000506,100.38121550000506,100.38121550000506,100.38121550000506,"['c', 'a', 'm', 'i', 's', 'a']",0,camisa,C:\2023\REPSWITCH21092023\REPSWITCH_excgange\REPSWITCH_excgange\data/03.01.02_REPSWITCH1_version1_list2_2023-11-10_16h53.17.642_micRespv1l2_recorded\recording_micRespv1l2_2023-11-10_16h54.31.275.wav,103.40248029999202,103.90260680002393,None,103.40248029999202,103.40248029999202,103.40248029999202,103.40248029999202,103.40248029999202,103.40248029999202,"[1.2146768000093289, 1.3820761000388302, 1.5048673000419512, 1.615767400013283, 1.725380900024902, 1.8381525000440888]",,,,,,03.01.02,001,2023-11-10_16h53.17.642,REPSWITCH1_version1_list2,2022.2.4,143.91139662679473,
REPSWITCH1/PICTURE_178.png,puente,type,darkblue,nontarget,1,NT,1,3,2,1,Stim1_Set1,1,repeat,13,12,13,0,12,12,12,,,,,,,,,,,,,,,,,,,,,,,103.90260680002393,105.0416150999954,105.0416150999954,105.0416150999954,105.0416150999954,105.0416150999954,105.0416150999954,105.0416150999954,105.0416150999954,"['p', 'u', 'e', 'n', 't', 'e']",0,puente,C:\2023\REPSWITCH21092023\REPSWITCH_excgange\REPSWITCH_excgange\data/03.01.02_REPSWITCH1_version1_list2_2023-11-10_16h53.17.642_micRespv1l2_recorded\recording_micRespv1l2_2023-11-10_16h54.35.936.wav,108.06979370000772,,None,108.06979370000772,108.06979370000772,108.06979370000772,108.06979370000772,108.06979370000772,108.06979370000772,"[1.1974367999937385, 1.5442653999780305, 1.6857713999925181, 1.911256899998989, 2.0976122000138275, 2.1654046999756247]",,,,,,03.01.02,001,2023-11-10_16h53.17.642,REPSWITCH1_version1_list2,2022.2.4,143.91139662679473,
REPSWITCH1/PICTURE_178.png,puente,speak,gold,switch,2,T,1,3,2,1,Stim1_Set1,0,None,14,13,14,0,13,13,13,,,,,,,,,,,,,,,,,,,,,,,108.56981190002989,109.72970070003066,109.72970070003066,109.72970070003066,109.72970070003066,109.72970070003066,109.72970070003066,109.72970070003066,109.72970070003066,None,0,,C:\2023\REPSWITCH21092023\REPSWITCH_excgange\REPSWITCH_excgange\data/03.01.02_REPSWITCH1_version1_list2_2023-11-10_16h53.17.642_micRespv1l2_recorded\recording_micRespv1l2_2023-11-10_16h54.40.624.wav,112.75791929999832,,None,112.75791929999832,112.75791929999832,112.75791929999832,112.75791929999832,112.75791929999832,112.75791929999832,,,,,,,03.01.02,001,2023-11-10_16h53.17.642,REPSWITCH1_version1_list2,2022.2.4,143.91139662679473,
REPSWITCH1/PICTURE_128.png,muñeca,speak,gold,nontarget,2,NT,1,3,2,1,Stim4_Set1,1,repeat,15,14,15,0,14,14,14,,,,,,,,,,,,,,,,,,,,,,,113.25790970004164,114.33451160002733,114.33451160002733,114.33451160002733,114.33451160002733,114.33451160002733,114.33451160002733,114.33451160002733,114.33451160002733,None,0,,C:\2023\REPSWITCH21092023\REPSWITCH_excgange\REPSWITCH_excgange\data/03.01.02_REPSWITCH1_version1_list2_2023-11-10_16h53.17.642_micRespv1l2_recorded\recording_micRespv1l2_2023-11-10_16h54.45.228.wav,117.35576619999483,117.85574850003468,None,117.35576619999483,117.35576619999483,117.35576619999483,117.35576619999483,117.35576619999483,117.35576619999483,,,,,,,03.01.02,001,2023-11-10_16h53.17.642,REPSWITCH1_version1_list2,2022.2.4,143.91139662679473,
REPSWITCH1/PICTURE_128.png,muñeca,type,darkblue,switch,1,T,1,3,2,1,Stim4_Set1,0,None,16,15,16,0,15,15,15,,,,,,,,,,,,,,,,,,,,,,,117.85574850003468,118.93228210002417,118.93228210002417,118.93228210002417,118.93228210002417,118.93228210002417,118.93228210002417,118.93228210002417,118.93228210002417,"['m', 'u', 'ñ', 'e', 'c', 'a']",0,muñeca,C:\2023\REPSWITCH21092023\REPSWITCH_excgange\REPSWITCH_excgange\data/03.01.02_REPSWITCH1_version1_list2_2023-11-10_16h53.17.642_micRespv1l2_recorded\recording_micRespv1l2_2023-11-10_16h54.49.827.wav,121.9535113000311,122.45363740000175,None,121.9535113000311,121.9535113000311,121.9535113000311,121.9535113000311,121.9535113000311,121.9535113000311,"[0.9748146000201814, 1.2799557999824174, 1.834444899985101, 2.096061899967026, 2.5824347999878228, 2.7071489000227302]",,,,,,03.01.02,001,2023-11-10_16h53.17.642,REPSWITCH1_version1_list2,2022.2.4,143.91139662679473,
REPSWITCH1/PICTURE_319.png,vaca,speak,gold,filler,2,F,1,3,2,1,Stim1_Set4,1,switch,17,16,17,0,16,16,16,,,,,,,,,,,,,,,,,,,,,,,122.45363740000175,123.46765860001324,123.46765860001324,123.46765860001324,123.46765860001324,123.46765860001324,123.46765860001324,123.46765860001324,123.46765860001324,None,0,,C:\2023\REPSWITCH21092023\REPSWITCH_excgange\REPSWITCH_excgange\data/03.01.02_REPSWITCH1_version1_list2_2023-11-10_16h53.17.642_micRespv1l2_recorded\recording_micRespv1l2_2023-11-10_16h54.54.361.wav,126.48883400001796,126.9888722000178,None,126.48883400001796,126.48883400001796,126.48883400001796,126.48883400001796,126.48883400001796,126.48883400001796,,,,,,,03.01.02,001,2023-11-10_16h53.17.642,REPSWITCH1_version1_list2,2022.2.4,143.91139662679473,
REPSWITCH1/PICTURE_728.png,pulpo,speak,gold,filler,2,F,1,3,2,1,Stim8_Set4,0,None,18,17,18,0,17,17,17,,,,,,,,,,,,,,,,,,,,,,,126.9888722000178,128.12097039999207,128.12097039999207,128.12097039999207,128.12097039999207,128.12097039999207,128.12097039999207,128.12097039999207,128.12097039999207,None,0,,C:\2023\REPSWITCH21092023\REPSWITCH_excgange\REPSWITCH_excgange\data/03.01.02_REPSWITCH1_version1_list2_2023-11-10_16h53.17.642_micRespv1l2_recorded\recording_micRespv1l2_2023-11-10_16h54.59.015.wav,131.14225740003167,131.64225540001644,None,131.14225740003167,131.14225740003167,131.14225740003167,131.14225740003167,131.14225740003167,131.14225740003167,,,,,,,03.01.02,001,2023-11-10_16h53.17.642,REPSWITCH1_version1_list2,2022.2.4,143.91139662679473,
REPSWITCH1/PICTURE_381.png,fresa,type,darkblue,nontarget,1,NT,1,3,2,1,Stim2_Set1,1,switch,19,18,19,0,18,18,18,,,,,,,,,,,,,,,,,,,,,,,131.64225540001644,132.73969980003312,132.73969980003312,132.73969980003312,132.73969980003312,132.73969980003312,132.73969980003312,132.73969980003312,132.73969980003312,"['f', 'e', 'r', 'e', 's', 'a']",0,fresa,C:\2023\REPSWITCH21092023\REPSWITCH_excgange\REPSWITCH_excgange\data/03.01.02_REPSWITCH1_version1_list2_2023-11-10_16h53.17.642_micRespv1l2_recorded\recording_micRespv1l2_2023-11-10_16h55.03.634.wav,135.76089820003835,136.2609330000123,None,135.76089820003835,135.76089820003835,135.76089820003835,135.76089820003835,135.76089820003835,135.76089820003835,"[1.0315187000087462, 1.221082000003662, 1.2220730999833904, 1.6264693000121042, 1.9848434000159614, 2.1142763000098057]",,,,,,03.01.02,001,2023-11-10_16h53.17.642,REPSWITCH1_version1_list2,2022.2.4,143.91139662679473,
REPSWITCH1/PICTURE_381.png,fresa,type,darkblue,repeat,1,T,1,3,2,1,Stim2_Set1,0,None,20,19,20,0,19,19,19,,,,,,,,,,,,,,,,,,,,,,,136.2609330000123,137.38609580002958,137.38609580002958,137.38609580002958,137.38609580002958,137.38609580002958,137.38609580002958,137.38609580002958,137.38609580002958,"['d', 'backspace', 'f', 'r', 'e', 's', 'a']",0,fresa,C:\2023\REPSWITCH21092023\REPSWITCH_excgange\REPSWITCH_excgange\data/03.01.02_REPSWITCH1_version1_list2_2023-11-10_16h53.17.642_micRespv1l2_recorded\recording_micRespv1l2_2023-11-10_16h55.08.280.wav,140.41422770003555,,None,140.41422770003555,140.41422770003555,140.41422770003555,140.41422770003555,140.41422770003555,140.41422770003555,"[1.1300726999761537, 1.8509839999605902, 2.0434146999614313, 2.2836441000108607, 2.3743463999708183, 2.6972608999931253, 2.8449925999739207]",,,,,,03.01.02,001,2023-11-10_16h53.17.642,REPSWITCH1_version1_list2,2022.2.4,143.91139662679473,
REPSWITCH1/PICTURE_8.png,pierna,speak,gold,filler,2,F,1,3,2,1,Stim3_Set4,0,None,21,20,21,0,20,20,20,,,,,,,,,,,,,,,,,,,,,,,140.91429600003175,142.01175150001654,142.01175150001654,142.01175150001654,142.01175150001654,142.01175150001654,142.01175150001654,142.01175150001654,142.01175150001654,None,0,,C:\2023\REPSWITCH21092023\REPSWITCH_excgange\REPSWITCH_excgange\data/03.01.02_REPSWITCH1_version1_list2_2023-11-10_16h53.17.642_micRespv1l2_recorded\recording_micRespv1l2_2023-11-10_16h55.12.905.wav,145.03291469998658,145.5330457999953,None,145.03291469998658,145.03291469998658,145.03291469998658,145.03291469998658,145.03291469998658,145.03291469998658,,,,,,,03.01.02,001,2023-11-10_16h53.17.642,REPSWITCH1_version1_list2,2022.2.4,143.91139662679473,
REPSWITCH1/PICTURE_48.png,bombero,speak,gold,filler,2,F,1,3,2,1,Stim7_Set4,0,None,22,21,22,0,21,21,21,,,,,,,,,,,,,,,,,,,,,,,145.5330457999953,146.64423000003444,146.64423000003444,146.64423000003444,146.64423000003444,146.64423000003444,146.64423000003444,146.64423000003444,146.64423000003444,None,0,,C:\2023\REPSWITCH21092023\REPSWITCH_excgange\REPSWITCH_excgange\data/03.01.02_REPSWITCH1_version1_list2_2023-11-10_16h53.17.642_micRespv1l2_recorded\recording_micRespv1l2_2023-11-10_16h55.17.538.wav,149.66545999998925,150.16553019999992,None,149.66545999998925,149.66545999998925,149.66545999998925,149.66545999998925,149.66545999998925,149.66545999998925,,,,,,,03.01.02,001,2023-11-10_16h53.17.642,REPSWITCH1_version1_list2,2022.2.4,143.91139662679473,
REPSWITCH1/PICTURE_135.png,traje,type,darkblue,nontarget,1,NT,1,3,2,1,Stim3_Set1,1,switch,23,22,23,0,22,22,22,,,,,,,,,,,,,,,,,,,,,,,150.16553019999992,151.17956600000616,151.17956600000616,151.17956600000616,151.17956600000616,151.17956600000616,151.17956600000616,151.17956600000616,151.17956600000616,"['t', 'r', 'a', 'j', 'e']",0,traje,C:\2023\REPSWITCH21092023\REPSWITCH_excgange\REPSWITCH_excgange\data/03.01.02_REPSWITCH1_version1_list2_2023-11-10_16h53.17.642_micRespv1l2_recorded\recording_micRespv1l2_2023-11-10_16h55.22.073.wav,154.20081090001622,154.7008420000202,None,154.20081090001622,154.20081090001622,154.20081090001622,154.20081090001622,154.20081090001622,154.20081090001622,"[1.2351815000292845, 1.2641579000046477, 1.4303020000224933, 1.881760700023733, 1.9684709000284784]",,,,,,03.01.02,001,2023-11-10_16h53.17.642,REPSWITCH1_version1_list2,2022.2.4,143.91139662679473,
REPSWITCH1/PICTURE_135.png,traje,type,darkblue,repeat,1,T,1,3,2,1,Stim3_Set1,0,None,24,23,24,0,23,23,23,,,,,,,,,,,,,,,,,,,,,,,154.7008420000202,155.76348990004044,155.76348990004044,155.76348990004044,155.76348990004044,155.76348990004044,155.76348990004044,155.76348990004044,155.76348990004044,"['t', 'r', 'a', 'j', 'e']",0,traje,C:\2023\REPSWITCH21092023\REPSWITCH_excgange\REPSWITCH_excgange\data/03.01.02_REPSWITCH1_version1_list2_2023-11-10_16h53.17.642_micRespv1l2_recorded\recording_micRespv1l2_2023-11-10_16h55.26.658.wav,158.79166560003068,,None,158.79166560003068,158.79166560003068,158.79166560003068,158.79166560003068,158.79166560003068,158.79166560003068,"[1.1605764999985695, 1.1866066999500617, 1.4169297999469563, 1.7729645999497734, 1.8616268999758177]",,,,,,03.01.02,001,2023-11-10_16h53.17.642,REPSWITCH1_version1_list2,2022.2.4,143.91139662679473,
REPSWITCH1/PICTURE_19.png,pavo,type,darkblue,nontarget,1,NT,1,3,2,1,Stim5_Set1,1,repeat,25,24,25,0,24,24,24,,,,,,,,,,,,,,,,,,,,,,,159.29171970003517,160.3196098000044,160.3196098000044,160.3196098000044,160.3196098000044,160.3196098000044,160.3196098000044,160.3196098000044,160.3196098000044,"['p', 'a', 'v', 'o']",0,pavo,C:\2023\REPSWITCH21092023\REPSWITCH_excgange\REPSWITCH_excgange\data/03.01.02_REPSWITCH1_version1_list2_2023-11-10_16h53.17.642_micRespv1l2_recorded\recording_micRespv1l2_2023-11-10_16h55.31.214.wav,163.34086460003164,163.84089580003638,None,163.34086460003164,163.34086460003164,163.34086460003164,163.34086460003164,163.34086460003164,163.34086460003164,"[1.2006601000321098, 1.330248299986124, 1.72711060004076, 1.7928917999961413]",,,,,,03.01.02,001,2023-11-10_16h53.17.642,REPSWITCH1_version1_list2,2022.2.4,143.91139662679473,
REPSWITCH1/PICTURE_19.png,pavo,speak,gold,switch,2,T,1,3,2,1,Stim5_Set1,0,None,26,25,26,0,25,25,25,,,,,,,,,,,,,,,,,,,,,,,163.84089580003638,164.9243839000119,164.9243839000119,164.9243839000119,164.9243839000119,164.9243839000119,164.9243839000119,164.9243839000119,164.9243839000119,None,0,,C:\2023\REPSWITCH21092023\REPSWITCH_excgange\REPSWITCH_excgange\data/03.01.02_REPSWITCH1_version1_list2_2023-11-10_16h53.17.642_micRespv1l2_recorded\recording_micRespv1l2_2023-11-10_16h55.35.819.wav,167.95267400000012,,None,167.95267400000012,167.95267400000012,167.95267400000012,167.95267400000012,167.95267400000012,167.95267400000012,,,,,,,03.01.02,001,2023-11-10_16h53.17.642,REPSWITCH1_version1_list2,2022.2.4,143.91139662679473,
REPSWITCH1/PICTURE_142.png,vaso,speak,gold,filler,2,F,2,3,2,1,Stim7_Set1,0,None,27,26,27,0,26,26,26,,,,,,,,,,,,,,,,,,,,,,,168.45265560003463,169.64728959999047,169.64728959999047,169.64728959999047,169.64728959999047,169.64728959999047,169.64728959999047,169.64728959999047,169.64728959999047,None,0,,C:\2023\REPSWITCH21092023\REPSWITCH_excgange\REPSWITCH_excgange\data/03.01.02_REPSWITCH1_version1_list2_2023-11-10_16h53.17.642_micRespv1l2_recorded\recording_micRespv1l2_2023-11-10_16h55.40.541.wav,172.66847750003217,173.16854109999258,None,172.66847750003217,172.66847750003217,172.66847750003217,172.66847750003217,172.66847750003217,172.66847750003217,,,,,,,03.01.02,001,2023-11-10_16h53.17.642,REPSWITCH1_version1_list2,2022.2.4,143.91139662679473,
REPSWITCH1/PICTURE_135.png,traje,type,darkblue,filler,1,F,2,3,2,1,Stim3_Set1,0,None,28,27,28,0,27,27,27,,,,,,,,,,,,,,,,,,,,,,,173.16854109999258,174.27979460003553,174.27979460003553,174.27979460003553,174.27979460003553,174.27979460003553,174.27979460003553,174.27979460003553,174.27979460003553,"['t', 'r', 'a', 'j', 'e']",0,traje,C:\2023\REPSWITCH21092023\REPSWITCH_excgange\REPSWITCH_excgange\data/03.01.02_REPSWITCH1_version1_list2_2023-11-10_16h53.17.642_micRespv1l2_recorded\recording_micRespv1l2_2023-11-10_16h55.45.173.wav,177.30110550002428,177.80107400001725,None,177.30110550002428,177.30110550002428,177.30110550002428,177.30110550002428,177.30110550002428,177.30110550002428,"[1.0881485000136308, 1.1010972000076436, 1.3071374999708496, 1.7408265999983996, 1.8255272000096738]",,,,,,03.01.02,001,2023-11-10_16h53.17.642,REPSWITCH1_version1_list2,2022.2.4,143.91139662679473,
REPSWITCH1/PICTURE_446.png,cerdo,type,darkblue,nontarget,1,NT,2,3,2,1,Stim7_Set2,0,None,29,28,29,0,28,28,28,,,,,,,,,,,,,,,,,,,,,,,177.80107400001725,178.9193518999964,178.9193518999964,178.9193518999964,178.9193518999964,178.9193518999964,178.9193518999964,178.9193518999964,178.9193518999964,"['c', 'e', 'r', 'd', 'o']",0,cerdo,C:\2023\REPSWITCH21092023\REPSWITCH_excgange\REPSWITCH_excgange\data/03.01.02_REPSWITCH1_version1_list2_2023-11-10_16h53.17.642_micRespv1l2_recorded\recording_micRespv1l2_2023-11-10_16h55.49.813.wav,181.94048809999367,182.44060979998903,None,181.94048809999367,181.94048809999367,181.94048809999367,181.94048809999367,181.94048809999367,181.94048809999367,"[1.021153100009542, 1.1587066000211053, 1.3141855000285432, 1.5663392000133172, 1.6514024000498466]",,,,,,03.01.02,001,2023-11-10_16h53.17.642,REPSWITCH1_version1_list2,2022.2.4,143.91139662679473,
REPSWITCH1/PICTURE_446.png,cerdo,type,darkblue,repeat,1,T,2,3,2,1,Stim7_Set2,0,None,30,29,30,0,29,29,29,,,,,,,,,,,,,,,,,,,,,,,182.44060979998903,183.6282434000168,183.6282434000168,183.6282434000168,183.6282434000168,183.6282434000168,183.6282434000168,183.6282434000168,183.6282434000168,"['c', 'e', 'r', 'd', 'd', 'o', 'backspace', 'backspace']",0,cerd,C:\2023\REPSWITCH21092023\REPSWITCH_excgange\REPSWITCH_excgange\data/03.01.02_REPSWITCH1_version1_list2_2023-11-10_16h53.17.642_micRespv1l2_recorded\recording_micRespv1l2_2023-11-10_16h55.54.523.wav,186.64949149999302,187.1496044000378,None,186.64949149999302,186.64949149999302,186.64949149999302,186.64949149999302,186.64949149999302,186.64949149999302,"[0.8658089999807999, 1.0165381000260822, 1.1530469999997877, 1.3737924000015482, 1.393770799972117, 1.504718000011053, 2.226885800017044, 2.4318805999937467]",,,,,,03.01.02,001,2023-11-10_16h53.17.642,REPSWITCH1_version1_list2,2022.2.4,143.91139662679473,
REPSWITCH1/PICTURE_16.png,cazador,speak,gold,filler,2,F,2,3,2,1,Stim6_Set1,0,None,31,30,31,0,30,30,30,,,,,,,,,,,,,,,,,,,,,,,187.1496044000378,188.2191422000178,188.2191422000178,188.2191422000178,188.2191422000178,188.2191422000178,188.2191422000178,188.2191422000178,188.2191422000178,None,0,,C:\2023\REPSWITCH21092023\REPSWITCH_excgange\REPSWITCH_excgange\data/03.01.02_REPSWITCH1_version1_list2_2023-11-10_16h53.17.642_micRespv1l2_recorded\recording_micRespv1l2_2023-11-10_16h55.59.113.wav,191.24726650002412,,None,191.24726650002412,191.24726650002412,191.24726650002412,191.24726650002412,191.24726650002412,191.24726650002412,,,,,,,03.01.02,001,2023-11-10_16h53.17.642,REPSWITCH1_version1_list2,2022.2.4,143.91139662679473,
REPSWITCH1/PICTURE_552.png,manzana,type,darkblue,nontarget,1,NT,2,3,2,1,Stim6_Set2,1,switch,32,31,32,0,31,31,31,,,,,,,,,,,,,,,,,,,,,,,191.74735680001322,192.86562629998662,192.86562629998662,192.86562629998662,192.86562629998662,192.86562629998662,192.86562629998662,192.86562629998662,192.86562629998662,"['m', 'a', 'n', 'z', 'a', 'n', 'a']",0,manzana,C:\2023\REPSWITCH21092023\REPSWITCH_excgange\REPSWITCH_excgange\data/03.01.02_REPSWITCH1_version1_list2_2023-11-10_16h53.17.642_micRespv1l2_recorded\recording_micRespv1l2_2023-11-10_16h56.03.760.wav,195.88676940003643,196.38685680000344,None,195.88676940003643,195.88676940003643,195.88676940003643,195.88676940003643,195.88676940003643,195.88676940003643,"[1.673205400002189, 1.7947805000003427, 1.9220855999737978, 2.1940695000230335, 2.3565136999823153, 2.5379210999817587, 2.6255898000090383]",,,,,,03.01.02,001,2023-11-10_16h53.17.642,REPSWITCH1_version1_list2,2022.2.4,143.91139662679473,
REPSWITCH1/PICTURE_552.png,manzana,type,darkblue,repeat,1,T,2,3,2,1,Stim6_Set2,0,None,33,32,33,0,32,32,32,,,,,,,,,,,,,,,,,,,,,,,196.38685680000344,197.47729920002166,197.47729920002166,197.47729920002166,197.47729920002166,197.47729920002166,197.47729920002166,197.47729920002166,197.47729920002166,"['m', 'a', 'n', 'z', 'a', 'n', 'a']",0,manzana,C:\2023\REPSWITCH21092023\REPSWITCH_excgange\REPSWITCH_excgange\data/03.01.02_REPSWITCH1_version1_list2_2023-11-10_16h53.17.642_micRespv1l2_recorded\recording_micRespv1l2_2023-11-10_16h56.08.372.wav,200.50548019999405,,None,200.50548019999405,200.50548019999405,200.50548019999405,200.50548019999405,200.50548019999405,200.50548019999405,"[0.8431869000196457, 0.9472744999802671, 1.0991119000245817, 1.5366536999936216, 1.6771789999911562, 1.9931345999939367, 2.0602055999916047]",,,,,,03.01.02,001,2023-11-10_16h53.17.642,REPSWITCH1_version1_list2,2022.2.4,143.91139662679473,
REPSWITCH1/PICTURE_517.png,cuerda,type,darkblue,nontarget,1,NT,2,3,2,1,Stim4_Set2,0,None,34,33,34,0,33,33,33,,,,,,,,,,,,,,,,,,,,,,,201.00551420002012,202.08202000003075,202.08202000003075,202.08202000003075,202.08202000003075,202.08202000003075,202.08202000003075,202.08202000003075,202.08202000003075,"['c', 'u', 'e', 'r', 'd', 'a']",0,cuerda,C:\2023\REPSWITCH21092023\REPSWITCH_excgange\REPSWITCH_excgange\data/03.01.02_REPSWITCH1_version1_list2_2023-11-10_16h53.17.642_micRespv1l2_recorded\recording_micRespv1l2_2023-11-10_16h56.12.977.wav,205.11020210001152,,None,205.11020210001152,205.11020210001152,205.11020210001152,205.11020210001152,205.11020210001152,205.11020210001152,"[1.025431899994146, 1.1629646999645047, 1.273588199983351, 1.4001319999806583, 1.6532886999775656, 1.73322090000147]",,,,,,03.01.02,001,2023-11-10_16h53.17.642,REPSWITCH1_version1_list2,2022.2.4,143.91139662679473,
REPSWITCH1/PICTURE_517.png,cuerda,speak,gold,switch,2,T,2,3,2,1,Stim4_Set2,0,None,35,34,35,0,34,34,34,,,,,,,,,,,,,,,,,,,,,,,205.6103253000183,206.77023560000816,206.77023560000816,206.77023560000816,206.77023560000816,206.77023560000816,206.77023560000816,206.77023560000816,206.77023560000816,None,0,,C:\2023\REPSWITCH21092023\REPSWITCH_excgange\REPSWITCH_excgange\data/03.01.02_REPSWITCH1_version1_list2_2023-11-10_16h53.17.642_micRespv1l2_recorded\recording_micRespv1l2_2023-11-10_16h56.17.664.wav,209.79139920003945,210.2915256000124,None,209.79139920003945,209.79139920003945,209.79139920003945,209.79139920003945,209.79139920003945,209.79139920003945,,,,,,,03.01.02,001,2023-11-10_16h53.17.642,REPSWITCH1_version1_list2,2022.2.4,143.91139662679473,
REPSWITCH1/PICTURE_169.png,espalda,speak,gold,filler,2,F,2,3,2,1,Stim8_Set1,1,repeat,36,35,36,0,35,35,35,,,,,,,,,,,,,,,,,,,,,,,210.2915256000124,211.35408970003482,211.35408970003482,211.35408970003482,211.35408970003482,211.35408970003482,211.35408970003482,211.35408970003482,211.35408970003482,None,0,,C:\2023\REPSWITCH21092023\REPSWITCH_excgange\REPSWITCH_excgange\data/03.01.02_REPSWITCH1_version1_list2_2023-11-10_16h53.17.642_micRespv1l2_recorded\recording_micRespv1l2_2023-11-10_16h56.22.249.wav,214.37531999999192,214.87539210001705,None,214.37531999999192,214.37531999999192,214.37531999999192,214.37531999999192,214.37531999999192,214.37531999999192,,,,,,,03.01.02,001,2023-11-10_16h53.17.642,REPSWITCH1_version1_list2,2022.2.4,143.91139662679473,
REPSWITCH1/PICTURE_30.png,granja,speak,gold,nontarget,2,NT,2,3,2,1,Stim5_Set2,1,repeat,37,36,37,0,36,36,36,,,,,,,,,,,,,,,,,,,,,,,214.87539210001705,215.9380987000186,215.9380987000186,215.9380987000186,215.9380987000186,215.9380987000186,215.9380987000186,215.9380987000186,215.9380987000186,None,0,,C:\2023\REPSWITCH21092023\REPSWITCH_excgange\REPSWITCH_excgange\data/03.01.02_REPSWITCH1_version1_list2_2023-11-10_16h53.17.642_micRespv1l2_recorded\recording_micRespv1l2_2023-11-10_16h56.26.833.wav,218.95923279999988,219.45938320003916,None,218.95923279999988,218.95923279999988,218.95923279999988,218.95923279999988,218.95923279999988,218.95923279999988,,,,,,,03.01.02,001,2023-11-10_16h53.17.642,REPSWITCH1_version1_list2,2022.2.4,143.91139662679473,
REPSWITCH1/PICTURE_30.png,granja,type,darkblue,switch,1,T,2,3,2,1,Stim5_Set2,0,None,38,37,38,0,37,37,37,,,,,,,,,,,,,,,,,,,,,,,219.45938320003916,220.56366390001494,220.56366390001494,220.56366390001494,220.56366390001494,220.56366390001494,220.56366390001494,220.56366390001494,220.56366390001494,"['g', 'r', 'a', 'n', 'j', 'a']",0,granja,C:\2023\REPSWITCH21092023\REPSWITCH_excgange\REPSWITCH_excgange\data/03.01.02_REPSWITCH1_version1_list2_2023-11-10_16h53.17.642_micRespv1l2_recorded\recording_micRespv1l2_2023-11-10_16h56.31.458.wav,223.5918815000332,,None,223.5918815000332,223.5918815000332,223.5918815000332,223.5918815000332,223.5918815000332,223.5918815000332,"[1.2161292000091635, 1.3088607999961823, 1.602846199995838, 1.7254259000183083, 2.023493900022004, 2.0872777000186034]",,,,,,03.01.02,001,2023-11-10_16h53.17.642,REPSWITCH1_version1_list2,2022.2.4,143.91139662679473,
REPSWITCH1/PICTURE_128.png,muñeca,type,darkblue,filler,1,F,2,3,2,1,Stim4_Set1,1,repeat,39,38,39,0,38,38,38,,,,,,,,,,,,,,,,,,,,,,,224.09187460003886,225.18230769998627,225.18230769998627,225.18230769998627,225.18230769998627,225.18230769998627,225.18230769998627,225.18230769998627,225.18230769998627,"['m', 'u', 'ñ', 'e', 'c', 'a']",0,muñeca,C:\2023\REPSWITCH21092023\REPSWITCH_excgange\REPSWITCH_excgange\data/03.01.02_REPSWITCH1_version1_list2_2023-11-10_16h53.17.642_micRespv1l2_recorded\recording_micRespv1l2_2023-11-10_16h56.36.077.wav,228.20359799999278,228.70366659999127,None,228.20359799999278,228.20359799999278,228.20359799999278,228.20359799999278,228.20359799999278,228.20359799999278,"[0.9186840000329539, 1.1997504000319168, 1.7229016000055708, 1.8604387000086717, 2.3474619000335224, 2.424169100006111]",,,,,,03.01.02,001,2023-11-10_16h53.17.642,REPSWITCH1_version1_list2,2022.2.4,143.91139662679473,
REPSWITCH1/PICTURE_199.png,falda,type,darkblue,nontarget,1,NT,2,3,2,1,Stim8_Set2,0,None,40,39,40,0,39,39,39,,,,,,,,,,,,,,,,,,,,,,,228.70366659999127,229.8843697999837,229.8843697999837,229.8843697999837,229.8843697999837,229.8843697999837,229.8843697999837,229.8843697999837,229.8843697999837,"['f', 'a', 'l', 'd', 'a']",0,falda,C:\2023\REPSWITCH21092023\REPSWITCH_excgange\REPSWITCH_excgange\data/03.01.02_REPSWITCH1_version1_list2_2023-11-10_16h53.17.642_micRespv1l2_recorded\recording_micRespv1l2_2023-11-10_16h56.40.778.wav,232.90553759998875,233.4056653000298,None,232.90553759998875,232.90553759998875,232.90553759998875,232.90553759998875,232.90553759998875,232.90553759998875,"[1.0515926000080071, 1.20806580001954, 1.3625390999950469, 1.539380100031849, 1.6489533000276424]",,,,,,03.01.02,001,2023-11-10_16h53.17.642,REPSWITCH1_version1_list2,2022.2.4,143.91139662679473,
REPSWITCH1/PICTURE_199.png,falda,speak,gold,switch,2,T,2,3,2,1,Stim8_Set2,0,None,41,40,41,0,40,40,40,,,,,,,,,,,,,,,,,,,,,,,233.4056653000298,234.537684000039,234.537684000039,234.537684000039,234.537684000039,234.537684000039,234.537684000039,234.537684000039,234.537684000039,None,0,,C:\2023\REPSWITCH21092023\REPSWITCH_excgange\REPSWITCH_excgange\data/03.01.02_REPSWITCH1_version1_list2_2023-11-10_16h53.17.642_micRespv1l2_recorded\recording_micRespv1l2_2023-11-10_16h56.45.431.wav,237.55892020004103,238.0589820999885,None,237.55892020004103,237.55892020004103,237.55892020004103,237.55892020004103,237.55892020004103,237.55892020004103,,,,,,,03.01.02,001,2023-11-10_16h53.17.642,REPSWITCH1_version1_list2,2022.2.4,143.91139662679473,
REPSWITCH1/PICTURE_152.png,caracol,speak,gold,nontarget,2,NT,2,3,2,1,Stim2_Set2,1,switch,42,41,42,0,41,41,41,,,,,,,,,,,,,,,,,,,,,,,238.0589820999885,239.21891590004088,239.21891590004088,239.21891590004088,239.21891590004088,239.21891590004088,239.21891590004088,239.21891590004088,239.21891590004088,None,0,,C:\2023\REPSWITCH21092023\REPSWITCH_excgange\REPSWITCH_excgange\data/03.01.02_REPSWITCH1_version1_list2_2023-11-10_16h53.17.642_micRespv1l2_recorded\recording_micRespv1l2_2023-11-10_16h56.50.112.wav,242.24005359999137,242.74011710000923,None,242.24005359999137,242.24005359999137,242.24005359999137,242.24005359999137,242.24005359999137,242.24005359999137,,,,,,,03.01.02,001,2023-11-10_16h53.17.642,REPSWITCH1_version1_list2,2022.2.4,143.91139662679473,
REPSWITCH1/PICTURE_152.png,caracol,speak,gold,repeat,2,T,2,3,2,1,Stim2_Set2,0,None,43,42,43,0,42,42,42,,,,,,,,,,,,,,,,,,,,,,,242.74011710000923,243.79582420003135,243.79582420003135,243.79582420003135,243.79582420003135,243.79582420003135,243.79582420003135,243.79582420003135,243.79582420003135,None,0,,C:\2023\REPSWITCH21092023\REPSWITCH_excgange\REPSWITCH_excgange\data/03.01.02_REPSWITCH1_version1_list2_2023-11-10_16h53.17.642_micRespv1l2_recorded\recording_micRespv1l2_2023-11-10_16h56.54.690.wav,246.8171172000002,247.31709640001645,None,246.8171172000002,246.8171172000002,246.8171172000002,246.8171172000002,246.8171172000002,246.8171172000002,,,,,,,03.01.02,001,2023-11-10_16h53.17.642,REPSWITCH1_version1_list2,2022.2.4,143.91139662679473,
REPSWITCH1/PICTURE_381.png,fresa,type,darkblue,filler,1,F,2,3,2,1,Stim2_Set1,0,None,44,43,44,0,43,43,43,,,,,,,,,,,,,,,,,,,,,,,247.31709640001645,248.4561670999974,248.4561670999974,248.4561670999974,248.4561670999974,248.4561670999974,248.4561670999974,248.4561670999974,248.4561670999974,"['f', 'r', 'e', 's', 'a']",0,fresa,C:\2023\REPSWITCH21092023\REPSWITCH_excgange\REPSWITCH_excgange\data/03.01.02_REPSWITCH1_version1_list2_2023-11-10_16h53.17.642_micRespv1l2_recorded\recording_micRespv1l2_2023-11-10_16h56.59.350.wav,251.47740680002607,251.97754659998463,None,251.47740680002607,251.47740680002607,251.47740680002607,251.47740680002607,251.47740680002607,251.47740680002607,"[0.9529637999949045, 1.1472413000301458, 1.7493168000364676, 2.144002899993211, 2.2179032000130974]",,,,,,03.01.02,001,2023-11-10_16h53.17.642,REPSWITCH1_version1_list2,2022.2.4,143.91139662679473,
REPSWITCH1/PICTURE_175.png,pintor,speak,gold,nontarget,2,NT,2,3,2,1,Stim1_Set2,1,switch,45,44,45,0,44,44,44,,,,,,,,,,,,,,,,,,,,,,,251.97754659998463,253.10965500003658,253.10965500003658,253.10965500003658,253.10965500003658,253.10965500003658,253.10965500003658,253.10965500003658,253.10965500003658,None,0,,C:\2023\REPSWITCH21092023\REPSWITCH_excgange\REPSWITCH_excgange\data/03.01.02_REPSWITCH1_version1_list2_2023-11-10_16h53.17.642_micRespv1l2_recorded\recording_micRespv1l2_2023-11-10_16h57.04.004.wav,256.1377199999988,,None,256.1377199999988,256.1377199999988,256.1377199999988,256.1377199999988,256.1377199999988,256.1377199999988,,,,,,,03.01.02,001,2023-11-10_16h53.17.642,REPSWITCH1_version1_list2,2022.2.4,143.91139662679473,
REPSWITCH1/PICTURE_175.png,pintor,speak,gold,repeat,2,T,2,3,2,1,Stim1_Set2,0,None,46,45,46,0,45,45,45,,,,,,,,,,,,,,,,,,,,,,,256.6377866000403,257.7143741000327,257.7143741000327,257.7143741000327,257.7143741000327,257.7143741000327,257.7143741000327,257.7143741000327,257.7143741000327,None,0,,C:\2023\REPSWITCH21092023\REPSWITCH_excgange\REPSWITCH_excgange\data/03.01.02_REPSWITCH1_version1_list2_2023-11-10_16h53.17.642_micRespv1l2_recorded\recording_micRespv1l2_2023-11-10_16h57.08.608.wav,260.73556599998847,261.23562560003484,None,260.73556599998847,260.73556599998847,260.73556599998847,260.73556599998847,260.73556599998847,260.73556599998847,,,,,,,03.01.02,001,2023-11-10_16h53.17.642,REPSWITCH1_version1_list2,2022.2.4,143.91139662679473,
REPSWITCH1/PICTURE_178.png,puente,type,darkblue,filler,1,F,2,3,2,1,Stim1_Set1,0,None,47,46,47,0,46,46,46,,,,,,,,,,,,,,,,,,,,,,,261.23562560003484,262.39552590000676,262.39552590000676,262.39552590000676,262.39552590000676,262.39552590000676,262.39552590000676,262.39552590000676,262.39552590000676,"['p', 'u', 'e', 'n', 't', 'e']",0,puente,C:\2023\REPSWITCH21092023\REPSWITCH_excgange\REPSWITCH_excgange\data/03.01.02_REPSWITCH1_version1_list2_2023-11-10_16h53.17.642_micRespv1l2_recorded\recording_micRespv1l2_2023-11-10_16h57.13.290.wav,265.4167358999839,265.9167974999873,None,265.4167358999839,265.4167358999839,265.4167358999839,265.4167358999839,265.4167358999839,265.4167358999839,"[0.9788416000083089, 1.294788700004574, 1.4572367999935523, 1.7751428000046872, 1.880815899989102, 1.9602745000156574]",,,,,,03.01.02,001,2023-11-10_16h53.17.642,REPSWITCH1_version1_list2,2022.2.4,143.91139662679473,
REPSWITCH1/PICTURE_19.png,pavo,speak,gold,filler,2,F,2,3,2,1,Stim5_Set1,0,None,48,47,48,0,47,47,47,,,,,,,,,,,,,,,,,,,,,,,265.9167974999873,267.0906184000196,267.0906184000196,267.0906184000196,267.0906184000196,267.0906184000196,267.0906184000196,267.0906184000196,267.0906184000196,None,0,,C:\2023\REPSWITCH21092023\REPSWITCH_excgange\REPSWITCH_excgange\data/03.01.02_REPSWITCH1_version1_list2_2023-11-10_16h53.17.642_micRespv1l2_recorded\recording_micRespv1l2_2023-11-10_16h57.17.985.wav,270.1186917999876,,None,270.1186917999876,270.1186917999876,270.1186917999876,270.1186917999876,270.1186917999876,270.1186917999876,,,,,,,03.01.02,001,2023-11-10_16h53.17.642,REPSWITCH1_version1_list2,2022.2.4,143.91139662679473,
REPSWITCH1/PICTURE_264.png,mano,speak,gold,nontarget,2,NT,2,3,2,1,Stim3_Set2,1,repeat,49,48,49,0,48,48,48,,,,,,,,,,,,,,,,,,,,,,,270.6187952000182,271.68836299999384,271.68836299999384,271.68836299999384,271.68836299999384,271.68836299999384,271.68836299999384,271.68836299999384,271.68836299999384,None,0,,C:\2023\REPSWITCH21092023\REPSWITCH_excgange\REPSWITCH_excgange\data/03.01.02_REPSWITCH1_version1_list2_2023-11-10_16h53.17.642_micRespv1l2_recorded\recording_micRespv1l2_2023-11-10_16h57.22.582.wav,274.7096831999952,275.209640200017,None,274.7096831999952,274.7096831999952,274.7096831999952,274.7096831999952,274.7096831999952,274.7096831999952,,,,,,,03.01.02,001,2023-11-10_16h53.17.642,REPSWITCH1_version1_list2,2022.2.4,143.91139662679473,
REPSWITCH1/PICTURE_264.png,mano,type,darkblue,switch,1,T,2,3,2,1,Stim3_Set2,0,None,50,49,50,0,49,49,49,,,,,,,,,,,,,,,,,,,,,,,275.209640200017,276.38342120003654,276.38342120003654,276.38342120003654,276.38342120003654,276.38342120003654,276.38342120003654,276.38342120003654,276.38342120003654,"['m', 'a', 'n', 'o']",0,mano,C:\2023\REPSWITCH21092023\REPSWITCH_excgange\REPSWITCH_excgange\data/03.01.02_REPSWITCH1_version1_list2_2023-11-10_16h53.17.642_micRespv1l2_recorded\recording_micRespv1l2_2023-11-10_16h57.27.277.wav,279.40467369998805,279.9047406000318,None,279.40467369998805,279.40467369998805,279.40467369998805,279.40467369998805,279.40467369998805,279.40467369998805,"[0.9767278999788687, 1.1053717999602668, 1.2357996999635361, 1.3184600999811664]",,,,,,03.01.02,001,2023-11-10_16h53.17.642,REPSWITCH1_version1_list2,2022.2.4,143.91139662679473,
REPSWITCH1/PICTURE_446.png,cerdo,type,darkblue,filler,1,F,3,3,2,1,Stim7_Set2,0,None,51,50,51,0,50,50,50,,,,,,,,,,,,,,,,,,,,,,,279.9047406000318,281.0854438000242,281.0854438000242,281.0854438000242,281.0854438000242,281.0854438000242,281.0854438000242,281.0854438000242,281.0854438000242,"['c', 'e', 'r', 'd', 'o']",0,cerdo,C:\2023\REPSWITCH21092023\REPSWITCH_excgange\REPSWITCH_excgange\data/03.01.02_REPSWITCH1_version1_list2_2023-11-10_16h53.17.642_micRespv1l2_recorded\recording_micRespv1l2_2023-11-10_16h57.31.980.wav,284.1067439999897,284.6067375999992,space,284.1067439999897,284.1067439999897,284.1067439999897,284.1067439999897,284.1067439999897,284.1067439999897,"[0.9937379999901168, 1.1245855999877676, 1.2691226999741048, 1.5373249999829568, 1.6310018000076525]",284.6067375999992,284.6067375999992,2.6089406000101008,,,03.01.02,001,2023-11-10_16h53.17.642,REPSWITCH1_version1_list2,2022.2.4,143.91139662679473,
REPSWITCH1/PICTURE_235.png,aguja,type,darkblue,nontarget,1,NT,3,3,2,1,Stim4_Set3,1,repeat,52,51,52,0,51,51,51,,,,,,,,,,,,,,,,,,,,,,,287.2251094999956,288.308629999985,288.308629999985,288.308629999985,288.308629999985,288.308629999985,288.308629999985,288.308629999985,288.308629999985,"['a', 'g', 'u', 'j', 'a']",0,aguja,C:\2023\REPSWITCH21092023\REPSWITCH_excgange\REPSWITCH_excgange\data/03.01.02_REPSWITCH1_version1_list2_2023-11-10_16h53.17.642_micRespv1l2_recorded\recording_micRespv1l2_2023-11-10_16h57.39.202.wav,291.3298354999861,291.8299826000002,None,291.3298354999861,291.3298354999861,291.3298354999861,291.3298354999861,291.3298354999861,291.3298354999861,"[1.824029299954418, 2.401597799966112, 2.471370699990075, 2.745408899965696, 2.9318121999967843]",,,,,,03.01.02,001,2023-11-10_16h53.17.642,REPSWITCH1_version1_list2,2022.2.4,143.91139662679473,
REPSWITCH1/PICTURE_235.png,aguja,speak,gold,switch,2,T,3,3,2,1,Stim4_Set3,0,None,53,52,53,0,52,52,52,,,,,,,,,,,,,,,,,,,,,,,291.8299826000002,292.9342361000017,292.9342361000017,292.9342361000017,292.9342361000017,292.9342361000017,292.9342361000017,292.9342361000017,292.9342361000017,None,0,,C:\2023\REPSWITCH21092023\REPSWITCH_excgange\REPSWITCH_excgange\data/03.01.02_REPSWITCH1_version1_list2_2023-11-10_16h53.17.642_micRespv1l2_recorded\recording_micRespv1l2_2023-11-10_16h57.43.828.wav,295.95549640001263,296.4555917000398,None,295.95549640001263,295.95549640001263,295.95549640001263,295.95549640001263,295.95549640001263,295.95549640001263,,,,,,,03.01.02,001,2023-11-10_16h53.17.642,REPSWITCH1_version1_list2,2022.2.4,143.91139662679473,
REPSWITCH1/PICTURE_552.png,manzana,speak,gold,filler,2,F,3,3,2,1,Stim6_Set2,0,None,54,53,54,0,53,53,53,,,,,,,,,,,,,,,,,,,,,,,296.4555917000398,297.63620890001766,297.63620890001766,297.63620890001766,297.63620890001766,297.63620890001766,297.63620890001766,297.63620890001766,297.63620890001766,None,0,,C:\2023\REPSWITCH21092023\REPSWITCH_excgange\REPSWITCH_excgange\data/03.01.02_REPSWITCH1_version1_list2_2023-11-10_16h53.17.642_micRespv1l2_recorded\recording_micRespv1l2_2023-11-10_16h57.48.530.wav,300.65745450003305,301.15752260002773,None,300.65745450003305,300.65745450003305,300.65745450003305,300.65745450003305,300.65745450003305,300.65745450003305,,,,,,,03.01.02,001,2023-11-10_16h53.17.642,REPSWITCH1_version1_list2,2022.2.4,143.91139662679473,
REPSWITCH1/PICTURE_271.png,conejo,speak,gold,nontarget,2,NT,3,3,2,1,Stim7_Set3,1,repeat,55,54,55,0,54,54,54,,,,,,,,,,,,,,,,,,,,,,,301.15752260002773,302.4354773000232,302.4354773000232,302.4354773000232,302.4354773000232,302.4354773000232,302.4354773000232,302.4354773000232,302.4354773000232,None,0,,C:\2023\REPSWITCH21092023\REPSWITCH_excgange\REPSWITCH_excgange\data/03.01.02_REPSWITCH1_version1_list2_2023-11-10_16h53.17.642_micRespv1l2_recorded\recording_micRespv1l2_2023-11-10_16h57.53.330.wav,305.45669630001066,305.9567546999897,None,305.45669630001066,305.45669630001066,305.45669630001066,305.45669630001066,305.45669630001066,305.45669630001066,,,,,,,03.01.02,001,2023-11-10_16h53.17.642,REPSWITCH1_version1_list2,2022.2.4,143.91139662679473,
REPSWITCH1/PICTURE_271.png,conejo,type,darkblue,switch,1,T,3,3,2,1,Stim7_Set3,0,None,56,55,56,0,55,55,55,,,,,,,,,,,,,,,,,,,,,,,305.9567546999897,307.01244880002923,307.01244880002923,307.01244880002923,307.01244880002923,307.01244880002923,307.01244880002923,307.01244880002923,307.01244880002923,"['c', 'o', 'n', 'e', 'j', 'o']",0,conejo,C:\2023\REPSWITCH21092023\REPSWITCH_excgange\REPSWITCH_excgange\data/03.01.02_REPSWITCH1_version1_list2_2023-11-10_16h53.17.642_micRespv1l2_recorded\recording_micRespv1l2_2023-11-10_16h57.57.907.wav,310.04062530002557,,None,310.04062530002557,310.04062530002557,310.04062530002557,310.04062530002557,310.04062530002557,310.04062530002557,"[0.9537704999675043, 1.2015865999856032, 1.3182652000105008, 1.5684264000155963, 1.6651717000058852, 1.7886468999786302]",,,,,,03.01.02,001,2023-11-10_16h53.17.642,REPSWITCH1_version1_list2,2022.2.4,143.91139662679473,
REPSWITCH1/PICTURE_610.png,miel,type,darkblue,nontarget,1,NT,3,3,2,1,Stim2_Set3,1,repeat,57,56,57,0,56,56,56,,,,,,,,,,,,,,,,,,,,,,,310.5407528000069,311.6311136999866,311.6311136999866,311.6311136999866,311.6311136999866,311.6311136999866,311.6311136999866,311.6311136999866,311.6311136999866,"['m', 'i', 'e', 'l']",0,miel,C:\2023\REPSWITCH21092023\REPSWITCH_excgange\REPSWITCH_excgange\data/03.01.02_REPSWITCH1_version1_list2_2023-11-10_16h53.17.642_micRespv1l2_recorded\recording_micRespv1l2_2023-11-10_16h58.02.525.wav,314.6593276000349,,None,314.6593276000349,314.6593276000349,314.6593276000349,314.6593276000349,314.6593276000349,314.6593276000349,"[0.9268116999883205, 1.078131399990525, 1.2714998999726959, 1.385487399995327]",,,,,,03.01.02,001,2023-11-10_16h53.17.642,REPSWITCH1_version1_list2,2022.2.4,143.91139662679473,
REPSWITCH1/PICTURE_610.png,miel,speak,gold,switch,2,T,3,3,2,1,Stim2_Set3,0,None,58,57,58,0,57,57,57,,,,,,,,,,,,,,,,,,,,,,,315.15935229999013,316.20809040003223,316.20809040003223,316.20809040003223,316.20809040003223,316.20809040003223,316.20809040003223,316.20809040003223,316.20809040003223,None,0,,C:\2023\REPSWITCH21092023\REPSWITCH_excgange\REPSWITCH_excgange\data/03.01.02_REPSWITCH1_version1_list2_2023-11-10_16h53.17.642_micRespv1l2_recorded\recording_micRespv1l2_2023-11-10_16h58.07.102.wav,319.2293909,319.72939900000347,None,319.2293909,319.2293909,319.2293909,319.2293909,319.2293909,319.2293909,,,,,,,03.01.02,001,2023-11-10_16h53.17.642,REPSWITCH1_version1_list2,2022.2.4,143.91139662679473,
REPSWITCH1/PICTURE_199.png,falda,type,darkblue,filler,1,F,3,3,2,1,Stim8_Set2,0,None,59,58,59,0,58,58,58,,,,,,,,,,,,,,,,,,,,,,,319.72939900000347,320.8198028000188,320.8198028000188,320.8198028000188,320.8198028000188,320.8198028000188,320.8198028000188,320.8198028000188,320.8198028000188,"['f', 'a', 'l', 'd', 'a']",0,falda,C:\2023\REPSWITCH21092023\REPSWITCH_excgange\REPSWITCH_excgange\data/03.01.02_REPSWITCH1_version1_list2_2023-11-10_16h53.17.642_micRespv1l2_recorded\recording_micRespv1l2_2023-11-10_16h58.11.714.wav,323.84100870002294,324.3410886999918,None,323.84100870002294,323.84100870002294,323.84100870002294,323.84100870002294,323.84100870002294,323.84100870002294,"[1.080208399973344, 1.2546199000207707, 1.3622311999788508, 1.4808599000098184, 1.6256876999977976]",,,,,,03.01.02,001,2023-11-10_16h53.17.642,REPSWITCH1_version1_list2,2022.2.4,143.91139662679473,
REPSWITCH1/PICTURE_464.png,goma,speak,gold,nontarget,2,NT,3,3,2,1,Stim6_Set3,1,switch,60,59,60,0,59,59,59,,,,,,,,,,,,,,,,,,,,,,,324.3410886999918,325.4870791999856,325.4870791999856,325.4870791999856,325.4870791999856,325.4870791999856,325.4870791999856,325.4870791999856,325.4870791999856,None,0,,C:\2023\REPSWITCH21092023\REPSWITCH_excgange\REPSWITCH_excgange\data/03.01.02_REPSWITCH1_version1_list2_2023-11-10_16h53.17.642_micRespv1l2_recorded\recording_micRespv1l2_2023-11-10_16h58.16.381.wav,328.5083018000005,329.00840200000675,None,328.5083018000005,328.5083018000005,328.5083018000005,328.5083018000005,328.5083018000005,328.5083018000005,,,,,,,03.01.02,001,2023-11-10_16h53.17.642,REPSWITCH1_version1_list2,2022.2.4,143.91139662679473,
REPSWITCH1/PICTURE_464.png,goma,speak,gold,repeat,2,T,3,3,2,1,Stim6_Set3,0,None,61,60,61,0,60,60,60,,,,,,,,,,,,,,,,,,,,,,,329.00840200000675,330.1543615999981,330.1543615999981,330.1543615999981,330.1543615999981,330.1543615999981,330.1543615999981,330.1543615999981,330.1543615999981,None,0,,C:\2023\REPSWITCH21092023\REPSWITCH_excgange\REPSWITCH_excgange\data/03.01.02_REPSWITCH1_version1_list2_2023-11-10_16h53.17.642_micRespv1l2_recorded\recording_micRespv1l2_2023-11-10_16h58.21.049.wav,333.17559910001,333.6756640000385,None,333.17559910001,333.17559910001,333.17559910001,333.17559910001,333.17559910001,333.17559910001,,,,,,,03.01.02,001,2023-11-10_16h53.17.642,REPSWITCH1_version1_list2,2022.2.4,143.91139662679473,
REPSWITCH1/PICTURE_152.png,caracol,type,darkblue,filler,1,F,3,3,2,1,Stim2_Set2,0,None,62,61,62,0,61,61,61,,,,,,,,,,,,,,,,,,,,,,,333.6756640000385,334.7243971999851,334.7243971999851,334.7243971999851,334.7243971999851,334.7243971999851,334.7243971999851,334.7243971999851,334.7243971999851,"['c', 'a', 'r', 'a', 'c', 'o', 'l']",0,caracol,C:\2023\REPSWITCH21092023\REPSWITCH_excgange\REPSWITCH_excgange\data/03.01.02_REPSWITCH1_version1_list2_2023-11-10_16h53.17.642_micRespv1l2_recorded\recording_micRespv1l2_2023-11-10_16h58.25.619.wav,337.74560850003036,338.2457155000302,None,337.74560850003036,337.74560850003036,337.74560850003036,337.74560850003036,337.74560850003036,337.74560850003036,"[0.9503039999981411, 1.0789948999881744, 1.4262303999857977, 1.5408470999682322, 1.7914860000018962, 1.9449396999552846, 2.1383247999474406]",,,,,,03.01.02,001,2023-11-10_16h53.17.642,REPSWITCH1_version1_list2,2022.2.4,143.91139662679473,
REPSWITCH1/PICTURE_320.png,iglesia,speak,gold,nontarget,2,NT,3,3,2,1,Stim8_Set3,1,switch,63,62,63,0,62,62,62,,,,,,,,,,,,,,,,,,,,,,,338.2457155000302,339.33612570003606,339.33612570003606,339.33612570003606,339.33612570003606,339.33612570003606,339.33612570003606,339.33612570003606,339.33612570003606,None,0,,C:\2023\REPSWITCH21092023\REPSWITCH_excgange\REPSWITCH_excgange\data/03.01.02_REPSWITCH1_version1_list2_2023-11-10_16h53.17.642_micRespv1l2_recorded\recording_micRespv1l2_2023-11-10_16h58.30.230.wav,342.35737600002903,342.85742330003995,None,342.35737600002903,342.35737600002903,342.35737600002903,342.35737600002903,342.35737600002903,342.35737600002903,,,,,,,03.01.02,001,2023-11-10_16h53.17.642,REPSWITCH1_version1_list2,2022.2.4,143.91139662679473,
REPSWITCH1/PICTURE_320.png,iglesia,speak,gold,repeat,2,T,3,3,2,1,Stim8_Set3,0,None,64,63,64,0,63,63,63,,,,,,,,,,,,,,,,,,,,,,,342.85742330003995,344.05208819999825,344.05208819999825,344.05208819999825,344.05208819999825,344.05208819999825,344.05208819999825,344.05208819999825,344.05208819999825,None,0,,C:\2023\REPSWITCH21092023\REPSWITCH_excgange\REPSWITCH_excgange\data/03.01.02_REPSWITCH1_version1_list2_2023-11-10_16h53.17.642_micRespv1l2_recorded\recording_micRespv1l2_2023-11-10_16h58.34.946.wav,347.07322359998943,347.5733174000052,None,347.07322359998943,347.07322359998943,347.07322359998943,347.07322359998943,347.07322359998943,347.07322359998943,,,,,,,03.01.02,001,2023-11-10_16h53.17.642,REPSWITCH1_version1_list2,2022.2.4,143.91139662679473,
REPSWITCH1/PICTURE_35.png,oreja,speak,gold,nontarget,2,NT,3,3,2,1,Stim5_Set3,0,None,65,64,65,0,64,64,64,,,,,,,,,,,,,,,,,,,,,,,347.5733174000052,348.6498682000092,348.6498682000092,348.6498682000092,348.6498682000092,348.6498682000092,348.6498682000092,348.6498682000092,348.6498682000092,None,0,,C:\2023\REPSWITCH21092023\REPSWITCH_excgange\REPSWITCH_excgange\data/03.01.02_REPSWITCH1_version1_list2_2023-11-10_16h53.17.642_micRespv1l2_recorded\recording_micRespv1l2_2023-11-10_16h58.39.544.wav,351.6711205000174,352.1711098999949,None,351.6711205000174,351.6711205000174,351.6711205000174,351.6711205000174,351.6711205000174,351.6711205000174,,,,,,,03.01.02,001,2023-11-10_16h53.17.642,REPSWITCH1_version1_list2,2022.2.4,143.91139662679473,
REPSWITCH1/PICTURE_35.png,oreja,type,darkblue,switch,1,T,3,3,2,1,Stim5_Set3,0,None,66,65,66,0,65,65,65,,,,,,,,,,,,,,,,,,,,,,,352.1711098999949,353.2198768000235,353.2198768000235,353.2198768000235,353.2198768000235,353.2198768000235,353.2198768000235,353.2198768000235,353.2198768000235,"['o', 'r', 'e', 'j', 'a']",0,oreja,C:\2023\REPSWITCH21092023\REPSWITCH_excgange\REPSWITCH_excgange\data/03.01.02_REPSWITCH1_version1_list2_2023-11-10_16h53.17.642_micRespv1l2_recorded\recording_micRespv1l2_2023-11-10_16h58.44.113.wav,356.2411013999954,356.7411598000326,None,356.2411013999954,356.2411013999954,356.2411013999954,356.2411013999954,356.2411013999954,356.2411013999954,"[1.1279920000233687, 1.3602062999852933, 1.4379173999768682, 1.6303687000181526, 1.7210112999891862]",,,,,,03.01.02,001,2023-11-10_16h53.17.642,REPSWITCH1_version1_list2,2022.2.4,143.91139662679473,
REPSWITCH1/PICTURE_517.png,cuerda,speak,gold,filler,2,F,3,3,2,1,Stim4_Set2,0,None,67,66,67,0,66,66,66,,,,,,,,,,,,,,,,,,,,,,,356.7411598000326,357.7969051999971,357.7969051999971,357.7969051999971,357.7969051999971,357.7969051999971,357.7969051999971,357.7969051999971,357.7969051999971,None,0,,C:\2023\REPSWITCH21092023\REPSWITCH_excgange\REPSWITCH_excgange\data/03.01.02_REPSWITCH1_version1_list2_2023-11-10_16h53.17.642_micRespv1l2_recorded\recording_micRespv1l2_2023-11-10_16h58.48.691.wav,360.81814560003113,361.31822519999696,None,360.81814560003113,360.81814560003113,360.81814560003113,360.81814560003113,360.81814560003113,360.81814560003113,,,,,,,03.01.02,001,2023-11-10_16h53.17.642,REPSWITCH1_version1_list2,2022.2.4,143.91139662679473,
REPSWITCH1/PICTURE_30.png,granja,type,darkblue,filler,1,F,3,3,2,1,Stim5_Set2,1,switch,68,67,68,0,67,67,67,,,,,,,,,,,,,,,,,,,,,,,361.31822519999696,362.41552420001244,362.41552420001244,362.41552420001244,362.41552420001244,362.41552420001244,362.41552420001244,362.41552420001244,362.41552420001244,"['g', 'r', 'a', 'n', 'j', 'a']",0,granja,C:\2023\REPSWITCH21092023\REPSWITCH_excgange\REPSWITCH_excgange\data/03.01.02_REPSWITCH1_version1_list2_2023-11-10_16h53.17.642_micRespv1l2_recorded\recording_micRespv1l2_2023-11-10_16h58.53.310.wav,365.43673560000025,365.9368345999974,None,365.43673560000025,365.43673560000025,365.43673560000025,365.43673560000025,365.43673560000025,365.43673560000025,"[1.1986546000116505, 1.2933615000220016, 1.5770134000340477, 1.76122280000709, 2.127395900024567, 2.2336476999917068]",,,,,,03.01.02,001,2023-11-10_16h53.17.642,REPSWITCH1_version1_list2,2022.2.4,143.91139662679473,
REPSWITCH1/PICTURE_242.png,cartero,type,darkblue,nontarget,1,NT,3,3,2,1,Stim3_Set3,0,None,69,68,69,0,68,68,68,,,,,,,,,,,,,,,,,,,,,,,365.9368345999974,366.9925382999936,366.9925382999936,366.9925382999936,366.9925382999936,366.9925382999936,366.9925382999936,366.9925382999936,366.9925382999936,"['c', 'a', 'r', 't', 'e', 'r', 'o']",0,cartero,C:\2023\REPSWITCH21092023\REPSWITCH_excgange\REPSWITCH_excgange\data/03.01.02_REPSWITCH1_version1_list2_2023-11-10_16h53.17.642_micRespv1l2_recorded\recording_micRespv1l2_2023-11-10_16h58.57.888.wav,370.02071200002683,,None,370.02071200002683,370.02071200002683,370.02071200002683,370.02071200002683,370.02071200002683,370.02071200002683,"[1.6706870999769308, 1.83009859995218, 2.021422599966172, 2.182907599955797, 2.3423709999769926, 2.4440283000003546, 2.6035034999949858]",,,,,,03.01.02,001,2023-11-10_16h53.17.642,REPSWITCH1_version1_list2,2022.2.4,143.91139662679473,
REPSWITCH1/PICTURE_242.png,cartero,type,darkblue,repeat,1,T,3,3,2,1,Stim3_Set3,0,None,70,69,70,0,69,69,69,,,,,,,,,,,,,,,,,,,,,,,370.52077170001576,371.6250992999994,371.6250992999994,371.6250992999994,371.6250992999994,371.6250992999994,371.6250992999994,371.6250992999994,371.6250992999994,"['c', 'a', 'r', 't', 'e', 'r', 'o']",0,cartero,C:\2023\REPSWITCH21092023\REPSWITCH_excgange\REPSWITCH_excgange\data/03.01.02_REPSWITCH1_version1_list2_2023-11-10_16h53.17.642_micRespv1l2_recorded\recording_micRespv1l2_2023-11-10_16h59.02.520.wav,374.6532632000162,,None,374.6532632000162,374.6532632000162,374.6532632000162,374.6532632000162,374.6532632000162,374.6532632000162,"[0.9539195999968797, 1.1014550999971107, 1.347900099994149, 1.581945700047072, 1.6686515000183135, 1.855169000045862, 2.002738400013186]",,,,,,03.01.02,001,2023-11-10_16h53.17.642,REPSWITCH1_version1_list2,2022.2.4,143.91139662679473,
REPSWITCH1/PICTURE_264.png,mano,speak,gold,filler,2,F,3,3,2,1,Stim3_Set2,1,switch,71,70,71,0,70,70,70,,,,,,,,,,,,,,,,,,,,,,,375.15330790000735,376.3062374999863,376.3062374999863,376.3062374999863,376.3062374999863,376.3062374999863,376.3062374999863,376.3062374999863,376.3062374999863,None,0,,C:\2023\REPSWITCH21092023\REPSWITCH_excgange\REPSWITCH_excgange\data/03.01.02_REPSWITCH1_version1_list2_2023-11-10_16h53.17.642_micRespv1l2_recorded\recording_micRespv1l2_2023-11-10_16h59.07.200.wav,379.32748070004163,379.82755079999333,None,379.32748070004163,379.32748070004163,379.32748070004163,379.32748070004163,379.32748070004163,379.32748070004163,,,,,,,03.01.02,001,2023-11-10_16h53.17.642,REPSWITCH1_version1_list2,2022.2.4,143.91139662679473,
REPSWITCH1/PICTURE_576.png,guante,type,darkblue,nontarget,1,NT,3,3,2,1,Stim1_Set3,1,switch,72,71,72,0,71,71,71,,,,,,,,,,,,,,,,,,,,,,,379.82755079999333,380.91101109999,380.91101109999,380.91101109999,380.91101109999,380.91101109999,380.91101109999,380.91101109999,380.91101109999,"['g', 'u', 'a', 'n', 't', 'e']",0,guante,C:\2023\REPSWITCH21092023\REPSWITCH_excgange\REPSWITCH_excgange\data/03.01.02_REPSWITCH1_version1_list2_2023-11-10_16h53.17.642_micRespv1l2_recorded\recording_micRespv1l2_2023-11-10_16h59.11.804.wav,383.9322460000403,384.43239309999626,None,383.9322460000403,383.9322460000403,383.9322460000403,383.9322460000403,383.9322460000403,383.9322460000403,"[1.0634177000029013, 1.2318541000131518, 1.3585796999977902, 1.4831097000278533, 1.63460990000749, 1.7093582000234164]",,,,,,03.01.02,001,2023-11-10_16h53.17.642,REPSWITCH1_version1_list2,2022.2.4,143.91139662679473,
REPSWITCH1/PICTURE_576.png,guante,type,darkblue,repeat,1,T,3,3,2,1,Stim1_Set3,0,None,73,72,73,0,72,72,72,,,,,,,,,,,,,,,,,,,,,,,384.43239309999626,385.5991925999988,385.5991925999988,385.5991925999988,385.5991925999988,385.5991925999988,385.5991925999988,385.5991925999988,385.5991925999988,"['g', 'u', 'a', 'n', 't', 'e']",0,guante,C:\2023\REPSWITCH21092023\REPSWITCH_excgange\REPSWITCH_excgange\data/03.01.02_REPSWITCH1_version1_list2_2023-11-10_16h53.17.642_micRespv1l2_recorded\recording_micRespv1l2_2023-11-10_16h59.16.494.wav,388.6203453000053,389.1205018000328,None,388.6203453000053,388.6203453000053,388.6203453000053,388.6203453000053,388.6203453000053,388.6203453000053,"[1.4311666000285186, 1.5691349999979138, 1.7305318000144325, 1.861106500029564, 2.0005918000242673, 2.0803562000510283]",,,,,,03.01.02,001,2023-11-10_16h53.17.642,REPSWITCH1_version1_list2,2022.2.4,143.91139662679473,
REPSWITCH1/PICTURE_175.png,pintor,speak,gold,filler,2,F,3,3,2,1,Stim1_Set2,0,None,74,73,74,0,73,73,73,,,,,,,,,,,,,,,,,,,,,,,389.1205018000328,390.1484122000402,390.1484122000402,390.1484122000402,390.1484122000402,390.1484122000402,390.1484122000402,390.1484122000402,390.1484122000402,None,0,,C:\2023\REPSWITCH21092023\REPSWITCH_excgange\REPSWITCH_excgange\data/03.01.02_REPSWITCH1_version1_list2_2023-11-10_16h53.17.642_micRespv1l2_recorded\recording_micRespv1l2_2023-11-10_16h59.21.042.wav,393.1695728999912,393.66962210001657,None,393.1695728999912,393.1695728999912,393.1695728999912,393.1695728999912,393.1695728999912,393.1695728999912,,,,,,,03.01.02,001,2023-11-10_16h53.17.642,REPSWITCH1_version1_list2,2022.2.4,143.91139662679473,
REPSWITCH1/PICTURE_498.png,taza,type,darkblue,nontarget,1,NT,4,3,2,1,Stim4_Set4,0,None,75,74,75,0,74,74,74,,,,,,,,,,,,,,,,,,,,,,,393.66962210001657,394.7530998000293,394.7530998000293,394.7530998000293,394.7530998000293,394.7530998000293,394.7530998000293,394.7530998000293,394.7530998000293,"['t', 'a', 'z', 'a']",0,taza,C:\2023\REPSWITCH21092023\REPSWITCH_excgange\REPSWITCH_excgange\data/03.01.02_REPSWITCH1_version1_list2_2023-11-10_16h53.17.642_micRespv1l2_recorded\recording_micRespv1l2_2023-11-10_16h59.25.646.wav,397.7743608999881,398.2744714000146,None,397.7743608999881,397.7743608999881,397.7743608999881,397.7743608999881,397.7743608999881,397.7743608999881,"[1.0970357999904081, 1.1960248000104912, 1.4013371000182815, 1.5368708000169136]",,,,,,03.01.02,001,2023-11-10_16h53.17.642,REPSWITCH1_version1_list2,2022.2.4,143.91139662679473,
REPSWITCH1/PICTURE_498.png,taza,type,darkblue,repeat,1,T,4,3,2,1,Stim4_Set4,0,None,76,75,76,0,75,75,75,,,,,,,,,,,,,,,,,,,,,,,398.2744714000146,399.34402020002017,399.34402020002017,399.34402020002017,399.34402020002017,399.34402020002017,399.34402020002017,399.34402020002017,399.34402020002017,"['t', 'a', 'z', 'a']",0,taza,C:\2023\REPSWITCH21092023\REPSWITCH_excgange\REPSWITCH_excgange\data/03.01.02_REPSWITCH1_version1_list2_2023-11-10_16h53.17.642_micRespv1l2_recorded\recording_micRespv1l2_2023-11-10_16h59.30.238.wav,402.36526400002185,402.86527509998996,None,402.36526400002185,402.36526400002185,402.36526400002185,402.36526400002185,402.36526400002185,402.36526400002185,"[0.9064123000134714, 1.0272964999894612, 1.2066960000083782, 1.3332674999837764]",,,,,,03.01.02,001,2023-11-10_16h53.17.642,REPSWITCH1_version1_list2,2022.2.4,143.91139662679473,
REPSWITCH1/PICTURE_235.png,aguja,speak,gold,filler,2,F,4,3,2,1,Stim4_Set3,0,None,77,76,77,0,76,76,76,,,,,,,,,,,,,,,,,,,,,,,402.86527509998996,403.9279348999844,403.9279348999844,403.9279348999844,403.9279348999844,403.9279348999844,403.9279348999844,403.9279348999844,403.9279348999844,None,0,,C:\2023\REPSWITCH21092023\REPSWITCH_excgange\REPSWITCH_excgange\data/03.01.02_REPSWITCH1_version1_list2_2023-11-10_16h53.17.642_micRespv1l2_recorded\recording_micRespv1l2_2023-11-10_16h59.34.822.wav,406.94911799998954,407.4491965000052,None,406.94911799998954,406.94911799998954,406.94911799998954,406.94911799998954,406.94911799998954,406.94911799998954,,,,,,,03.01.02,001,2023-11-10_16h53.17.642,REPSWITCH1_version1_list2,2022.2.4,143.91139662679473,
REPSWITCH1/PICTURE_338.png,regalo,type,darkblue,nontarget,1,NT,4,3,2,1,Stim6_Set4,1,switch,78,77,78,0,77,77,77,,,,,,,,,,,,,,,,,,,,,,,407.4491965000052,408.5326834000298,408.5326834000298,408.5326834000298,408.5326834000298,408.5326834000298,408.5326834000298,408.5326834000298,408.5326834000298,"['r', 'e', 'g', 'a', 'l', 'o']",0,regalo,C:\2023\REPSWITCH21092023\REPSWITCH_excgange\REPSWITCH_excgange\data/03.01.02_REPSWITCH1_version1_list2_2023-11-10_16h53.17.642_micRespv1l2_recorded\recording_micRespv1l2_2023-11-10_16h59.39.427.wav,411.5608852999867,,None,411.5608852999867,411.5608852999867,411.5608852999867,411.5608852999867,411.5608852999867,411.5608852999867,"[1.1847644000081345, 1.2704466999857686, 1.536209299985785, 1.6926161000155844, 1.9895465999725275, 2.1390671000117436]",,,,,,03.01.02,001,2023-11-10_16h53.17.642,REPSWITCH1_version1_list2,2022.2.4,143.91139662679473,
REPSWITCH1/PICTURE_338.png,regalo,speak,gold,switch,2,T,4,3,2,1,Stim6_Set4,0,None,79,78,79,0,78,78,78,,,,,,,,,,,,,,,,,,,,,,,412.0609403999988,413.199957200035,413.199957200035,413.199957200035,413.199957200035,413.199957200035,413.199957200035,413.199957200035,413.199957200035,None,0,,C:\2023\REPSWITCH21092023\REPSWITCH_excgange\REPSWITCH_excgange\data/03.01.02_REPSWITCH1_version1_list2_2023-11-10_16h53.17.642_micRespv1l2_recorded\recording_micRespv1l2_2023-11-10_16h59.44.094.wav,416.22120339999674,416.72133840003517,None,416.22120339999674,416.22120339999674,416.22120339999674,416.22120339999674,416.22120339999674,416.22120339999674,,,,,,,03.01.02,001,2023-11-10_16h53.17.642,REPSWITCH1_version1_list2,2022.2.4,143.91139662679473,
REPSWITCH1/PICTURE_719.png,baño,speak,gold,nontarget,2,NT,4,3,2,1,Stim2_Set4,1,repeat,80,79,80,0,79,79,79,,,,,,,,,,,,,,,,,,,,,,,416.72133840003517,417.79785650002304,417.79785650002304,417.79785650002304,417.79785650002304,417.79785650002304,417.79785650002304,417.79785650002304,417.79785650002304,None,0,,C:\2023\REPSWITCH21092023\REPSWITCH_excgange\REPSWITCH_excgange\data/03.01.02_REPSWITCH1_version1_list2_2023-11-10_16h53.17.642_micRespv1l2_recorded\recording_micRespv1l2_2023-11-10_16h59.48.692.wav,420.8190324000316,421.3190693000215,None,420.8190324000316,420.8190324000316,420.8190324000316,420.8190324000316,420.8190324000316,420.8190324000316,,,,,,,03.01.02,001,2023-11-10_16h53.17.642,REPSWITCH1_version1_list2,2022.2.4,143.91139662679473,
REPSWITCH1/PICTURE_719.png,baño,speak,gold,repeat,2,T,4,3,2,1,Stim2_Set4,0,None,81,80,81,0,80,80,80,,,,,,,,,,,,,,,,,,,,,,,421.3190693000215,422.4234665000113,422.4234665000113,422.4234665000113,422.4234665000113,422.4234665000113,422.4234665000113,422.4234665000113,422.4234665000113,None,0,,C:\2023\REPSWITCH21092023\REPSWITCH_excgange\REPSWITCH_excgange\data/03.01.02_REPSWITCH1_version1_list2_2023-11-10_16h53.17.642_micRespv1l2_recorded\recording_micRespv1l2_2023-11-10_16h59.53.318.wav,425.44463919999544,425.9446972000296,None,425.44463919999544,425.44463919999544,425.44463919999544,425.44463919999544,425.44463919999544,425.44463919999544,,,,,,,03.01.02,001,2023-11-10_16h53.17.642,REPSWITCH1_version1_list2,2022.2.4,143.91139662679473,
REPSWITCH1/PICTURE_271.png,conejo,type,darkblue,filler,1,F,4,3,2,1,Stim7_Set3,0,None,82,81,82,0,81,81,81,,,,,,,,,,,,,,,,,,,,,,,425.9446972000296,427.1115437000408,427.1115437000408,427.1115437000408,427.1115437000408,427.1115437000408,427.1115437000408,427.1115437000408,427.1115437000408,"['c', 'o', 'n', 'e', 'j', 'o']",0,conejo,C:\2023\REPSWITCH21092023\REPSWITCH_excgange\REPSWITCH_excgange\data/03.01.02_REPSWITCH1_version1_list2_2023-11-10_16h53.17.642_micRespv1l2_recorded\recording_micRespv1l2_2023-11-10_16h59.58.006.wav,430.1327714000363,430.63280670001404,None,430.1327714000363,430.1327714000363,430.1327714000363,430.1327714000363,430.1327714000363,430.1327714000363,"[1.1572150000138208, 1.378436800034251, 1.4869044999941252, 1.7432711000437848, 1.8339390000328422, 1.9276577000273392]",,,,,,03.01.02,001,2023-11-10_16h53.17.642,REPSWITCH1_version1_list2,2022.2.4,143.91139662679473,
REPSWITCH1/PICTURE_610.png,miel,speak,gold,filler,2,F,4,3,2,1,Stim2_Set3,0,None,83,82,83,0,82,82,82,,,,,,,,,,,,,,,,,,,,,,,430.63280670001404,431.71628090000013,431.71628090000013,431.71628090000013,431.71628090000013,431.71628090000013,431.71628090000013,431.71628090000013,431.71628090000013,None,0,,C:\2023\REPSWITCH21092023\REPSWITCH_excgange\REPSWITCH_excgange\data/03.01.02_REPSWITCH1_version1_list2_2023-11-10_16h53.17.642_micRespv1l2_recorded\recording_micRespv1l2_2023-11-10_17h00.02.610.wav,434.7374960000161,435.23764780000784,None,434.7374960000161,434.7374960000161,434.7374960000161,434.7374960000161,434.7374960000161,434.7374960000161,,,,,,,03.01.02,001,2023-11-10_16h53.17.642,REPSWITCH1_version1_list2,2022.2.4,143.91139662679473,
REPSWITCH1/PICTURE_687.png,camisa,speak,gold,nontarget,2,NT,4,3,2,1,Stim5_Set4,1,repeat,84,83,84,0,83,83,83,,,,,,,,,,,,,,,,,,,,,,,435.23764780000784,436.31409310002346,436.31409310002346,436.31409310002346,436.31409310002346,436.31409310002346,436.31409310002346,436.31409310002346,436.31409310002346,None,0,,C:\2023\REPSWITCH21092023\REPSWITCH_excgange\REPSWITCH_excgange\data/03.01.02_REPSWITCH1_version1_list2_2023-11-10_16h53.17.642_micRespv1l2_recorded\recording_micRespv1l2_2023-11-10_17h00.07.207.wav,439.33534180000424,439.8354921999853,None,439.33534180000424,439.33534180000424,439.33534180000424,439.33534180000424,439.33534180000424,439.33534180000424,,,,,,,03.01.02,001,2023-11-10_16h53.17.642,REPSWITCH1_version1_list2,2022.2.4,143.91139662679473,
REPSWITCH1/PICTURE_687.png,camisa,type,darkblue,switch,1,T,4,3,2,1,Stim5_Set4,0,None,85,84,85,0,84,84,84,,,,,,,,,,,,,,,,,,,,,,,439.8354921999853,440.94665570004145,440.94665570004145,440.94665570004145,440.94665570004145,440.94665570004145,440.94665570004145,440.94665570004145,440.94665570004145,"['c', 'a', 'm', 'i', 's', 'a']",0,camisa,C:\2023\REPSWITCH21092023\REPSWITCH_excgange\REPSWITCH_excgange\data/03.01.02_REPSWITCH1_version1_list2_2023-11-10_16h53.17.642_micRespv1l2_recorded\recording_micRespv1l2_2023-11-10_17h00.11.840.wav,443.96790099999635,444.467927300022,None,443.96790099999635,443.96790099999635,443.96790099999635,443.96790099999635,443.96790099999635,443.96790099999635,"[0.8953321999870241, 1.0518492999835871, 1.1864095999626443, 1.3080232999636792, 1.4459207999752834, 1.5346198999905027]",,,,,,03.01.02,001,2023-11-10_16h53.17.642,REPSWITCH1_version1_list2,2022.2.4,143.91139662679473,
REPSWITCH1/PICTURE_319.png,vaca,type,darkblue,nontarget,1,NT,4,3,2,1,Stim1_Set4,0,None,86,85,86,0,85,85,85,,,,,,,,,,,,,,,,,,,,,,,444.467927300022,445.54447650001384,445.54447650001384,445.54447650001384,445.54447650001384,445.54447650001384,445.54447650001384,445.54447650001384,445.54447650001384,"['v', 'a', 'c', 'a']",0,vaca,C:\2023\REPSWITCH21092023\REPSWITCH_excgange\REPSWITCH_excgange\data/03.01.02_REPSWITCH1_version1_list2_2023-11-10_16h53.17.642_micRespv1l2_recorded\recording_micRespv1l2_2023-11-10_17h00.16.439.wav,448.5657225000323,449.06578720000107,None,448.5657225000323,448.5657225000323,448.5657225000323,448.5657225000323,448.5657225000323,448.5657225000323,"[1.57845960004488, 1.915559699991718, 2.124123600020539, 2.2227617999888025]",,,,,,03.01.02,001,2023-11-10_16h53.17.642,REPSWITCH1_version1_list2,2022.2.4,143.91139662679473,
REPSWITCH1/PICTURE_319.png,vaca,speak,gold,switch,2,T,4,3,2,1,Stim1_Set4,0,None,87,86,87,0,86,86,86,,,,,,,,,,,,,,,,,,,,,,,449.06578720000107,450.16316739999456,450.16316739999456,450.16316739999456,450.16316739999456,450.16316739999456,450.16316739999456,450.16316739999456,450.16316739999456,None,0,,C:\2023\REPSWITCH21092023\REPSWITCH_excgange\REPSWITCH_excgange\data/03.01.02_REPSWITCH1_version1_list2_2023-11-10_16h53.17.642_micRespv1l2_recorded\recording_micRespv1l2_2023-11-10_17h00.21.058.wav,453.1913243000163,,None,453.1913243000163,453.1913243000163,453.1913243000163,453.1913243000163,453.1913243000163,453.1913243000163,,,,,,,03.01.02,001,2023-11-10_16h53.17.642,REPSWITCH1_version1_list2,2022.2.4,143.91139662679473,
REPSWITCH1/PICTURE_464.png,goma,type,darkblue,filler,1,F,4,3,2,1,Stim6_Set3,1,switch,88,87,88,0,87,87,87,,,,,,,,,,,,,,,,,,,,,,,453.691467800003,454.78180150000844,454.78180150000844,454.78180150000844,454.78180150000844,454.78180150000844,454.78180150000844,454.78180150000844,454.78180150000844,"['g', 'o', 'm', 'a']",0,goma,C:\2023\REPSWITCH21092023\REPSWITCH_excgange\REPSWITCH_excgange\data/03.01.02_REPSWITCH1_version1_list2_2023-11-10_16h53.17.642_micRespv1l2_recorded\recording_micRespv1l2_2023-11-10_17h00.25.676.wav,457.80301909998525,458.3030823000008,None,457.80301909998525,457.80301909998525,457.80301909998525,457.80301909998525,457.80301909998525,457.80301909998525,"[1.4074150000233203, 1.6225963999750093, 1.8558431999990717, 2.2415376999997534]",,,,,,03.01.02,001,2023-11-10_16h53.17.642,REPSWITCH1_version1_list2,2022.2.4,143.91139662679473,
REPSWITCH1/PICTURE_728.png,pulpo,speak,gold,nontarget,2,NT,4,3,2,1,Stim8_Set4,1,switch,89,88,89,0,88,88,88,,,,,,,,,,,,,,,,,,,,,,,458.3030823000008,459.3935133999912,459.3935133999912,459.3935133999912,459.3935133999912,459.3935133999912,459.3935133999912,459.3935133999912,459.3935133999912,None,0,,C:\2023\REPSWITCH21092023\REPSWITCH_excgange\REPSWITCH_excgange\data/03.01.02_REPSWITCH1_version1_list2_2023-11-10_16h53.17.642_micRespv1l2_recorded\recording_micRespv1l2_2023-11-10_17h00.30.288.wav,462.41473150003003,462.9148211000138,None,462.41473150003003,462.41473150003003,462.41473150003003,462.41473150003003,462.41473150003003,462.41473150003003,,,,,,,03.01.02,001,2023-11-10_16h53.17.642,REPSWITCH1_version1_list2,2022.2.4,143.91139662679473,
REPSWITCH1/PICTURE_728.png,pulpo,speak,gold,repeat,2,T,4,3,2,1,Stim8_Set4,0,None,90,89,90,0,89,89,89,,,,,,,,,,,,,,,,,,,,,,,462.9148211000138,463.99133930000244,463.99133930000244,463.99133930000244,463.99133930000244,463.99133930000244,463.99133930000244,463.99133930000244,463.99133930000244,None,0,,C:\2023\REPSWITCH21092023\REPSWITCH_excgange\REPSWITCH_excgange\data/03.01.02_REPSWITCH1_version1_list2_2023-11-10_16h53.17.642_micRespv1l2_recorded\recording_micRespv1l2_2023-11-10_17h00.34.885.wav,467.01265680004144,467.5126548000262,None,467.01265680004144,467.01265680004144,467.01265680004144,467.01265680004144,467.01265680004144,467.01265680004144,,,,,,,03.01.02,001,2023-11-10_16h53.17.642,REPSWITCH1_version1_list2,2022.2.4,143.91139662679473,
REPSWITCH1/PICTURE_320.png,iglesia,type,darkblue,filler,1,F,4,3,2,1,Stim8_Set3,0,None,91,90,91,0,90,90,90,,,,,,,,,,,,,,,,,,,,,,,467.5126548000262,468.7003699000343,468.7003699000343,468.7003699000343,468.7003699000343,468.7003699000343,468.7003699000343,468.7003699000343,468.7003699000343,"['i', 'g', 'l', 'e', 'i', 's']",0,igleis,C:\2023\REPSWITCH21092023\REPSWITCH_excgange\REPSWITCH_excgange\data/03.01.02_REPSWITCH1_version1_list2_2023-11-10_16h53.17.642_micRespv1l2_recorded\recording_micRespv1l2_2023-11-10_17h00.39.594.wav,471.7215303000412,472.22165820002556,None,471.7215303000412,471.7215303000412,471.7215303000412,471.7215303000412,471.7215303000412,471.7215303000412,"[1.2508574000094086, 1.669728100008797, 1.9845613000215963, 2.130107400007546, 2.5565868000267074, 2.576507700025104]",,,,,,03.01.02,001,2023-11-10_16h53.17.642,REPSWITCH1_version1_list2,2022.2.4,143.91139662679473,
REPSWITCH1/PICTURE_576.png,guante,speak,gold,filler,2,F,4,3,2,1,Stim1_Set3,0,None,92,91,92,0,91,91,91,,,,,,,,,,,,,,,,,,,,,,,472.22165820002556,473.36761040001875,473.36761040001875,473.36761040001875,473.36761040001875,473.36761040001875,473.36761040001875,473.36761040001875,473.36761040001875,None,0,,C:\2023\REPSWITCH21092023\REPSWITCH_excgange\REPSWITCH_excgange\data/03.01.02_REPSWITCH1_version1_list2_2023-11-10_16h53.17.642_micRespv1l2_recorded\recording_micRespv1l2_2023-11-10_17h00.44.262.wav,476.3887751000002,476.8888728999882,None,476.3887751000002,476.3887751000002,476.3887751000002,476.3887751000002,476.3887751000002,476.3887751000002,,,,,,,03.01.02,001,2023-11-10_16h53.17.642,REPSWITCH1_version1_list2,2022.2.4,143.91139662679473,
REPSWITCH1/PICTURE_8.png,pierna,speak,gold,nontarget,2,NT,4,3,2,1,Stim3_Set4,1,repeat,93,92,93,0,92,92,92,,,,,,,,,,,,,,,,,,,,,,,476.8888728999882,477.97235420002835,477.97235420002835,477.97235420002835,477.97235420002835,477.97235420002835,477.97235420002835,477.97235420002835,477.97235420002835,None,0,,C:\2023\REPSWITCH21092023\REPSWITCH_excgange\REPSWITCH_excgange\data/03.01.02_REPSWITCH1_version1_list2_2023-11-10_16h53.17.642_micRespv1l2_recorded\recording_micRespv1l2_2023-11-10_17h00.48.866.wav,480.9935842999839,481.49360829999205,None,480.9935842999839,480.9935842999839,480.9935842999839,480.9935842999839,480.9935842999839,480.9935842999839,,,,,,,03.01.02,001,2023-11-10_16h53.17.642,REPSWITCH1_version1_list2,2022.2.4,143.91139662679473,
REPSWITCH1/PICTURE_8.png,pierna,type,darkblue,switch,1,T,4,3,2,1,Stim3_Set4,0,None,94,93,94,0,93,93,93,,,,,,,,,,,,,,,,,,,,,,,481.49360829999205,482.5979569000192,482.5979569000192,482.5979569000192,482.5979569000192,482.5979569000192,482.5979569000192,482.5979569000192,482.5979569000192,"['p', 'i', 'e', 'r', 'n', 'a']",0,pierna,C:\2023\REPSWITCH21092023\REPSWITCH_excgange\REPSWITCH_excgange\data/03.01.02_REPSWITCH1_version1_list2_2023-11-10_16h53.17.642_micRespv1l2_recorded\recording_micRespv1l2_2023-11-10_17h00.53.491.wav,485.6191756000044,486.11925380001776,None,485.6191756000044,485.6191756000044,485.6191756000044,485.6191756000044,485.6191756000044,485.6191756000044,"[0.9483098000055179, 1.1798956000129692, 1.3684008999844082, 1.4730500999721698, 1.6664145999820903, 1.7638432999956422]",,,,,,03.01.02,001,2023-11-10_16h53.17.642,REPSWITCH1_version1_list2,2022.2.4,143.91139662679473,
REPSWITCH1/PICTURE_673.png,tenedor,speak,gold,filler,2,F,4,3,2,1,Extra5,0,None,95,94,95,0,94,94,94,,,,,,,,,,,,,,,,,,,,,,,486.11925380001776,487.23743670003023,487.23743670003023,487.23743670003023,487.23743670003023,487.23743670003023,487.23743670003023,487.23743670003023,487.23743670003023,None,0,,C:\2023\REPSWITCH21092023\REPSWITCH_excgange\REPSWITCH_excgange\data/03.01.02_REPSWITCH1_version1_list2_2023-11-10_16h53.17.642_micRespv1l2_recorded\recording_micRespv1l2_2023-11-10_17h00.58.132.wav,490.2587296999991,490.7588153000106,None,490.2587296999991,490.2587296999991,490.2587296999991,490.2587296999991,490.2587296999991,490.2587296999991,,,,,,,03.01.02,001,2023-11-10_16h53.17.642,REPSWITCH1_version1_list2,2022.2.4,143.91139662679473,
REPSWITCH1/PICTURE_35.png,oreja,type,darkblue,filler,1,F,4,3,2,1,Stim5_Set3,1,switch,96,95,96,0,95,95,95,,,,,,,,,,,,,,,,,,,,,,,490.7588153000106,491.8908617999987,491.8908617999987,491.8908617999987,491.8908617999987,491.8908617999987,491.8908617999987,491.8908617999987,491.8908617999987,"['o', 'r', 'e', 'j', 'a']",0,oreja,C:\2023\REPSWITCH21092023\REPSWITCH_excgange\REPSWITCH_excgange\data/03.01.02_REPSWITCH1_version1_list2_2023-11-10_16h53.17.642_micRespv1l2_recorded\recording_micRespv1l2_2023-11-10_17h01.02.784.wav,494.9121054999996,495.41210930002853,None,494.9121054999996,494.9121054999996,494.9121054999996,494.9121054999996,494.9121054999996,494.9121054999996,"[1.061135700030718, 1.3002178000169806, 1.3874948000302538, 1.5803712000488304, 1.6830250000348315]",,,,,,03.01.02,001,2023-11-10_16h53.17.642,REPSWITCH1_version1_list2,2022.2.4,143.91139662679473,
REPSWITCH1/PICTURE_663.png,columna,speak,gold,filler,2,F,4,3,2,1,Extra6,0,None,97,96,97,0,96,96,96,,,,,,,,,,,,,,,,,,,,,,,495.41210930002853,496.5095607000403,496.5095607000403,496.5095607000403,496.5095607000403,496.5095607000403,496.5095607000403,496.5095607000403,496.5095607000403,None,0,,C:\2023\REPSWITCH21092023\REPSWITCH_excgange\REPSWITCH_excgange\data/03.01.02_REPSWITCH1_version1_list2_2023-11-10_16h53.17.642_micRespv1l2_recorded\recording_micRespv1l2_2023-11-10_17h01.07.404.wav,499.53073840000434,500.0307938000187,None,499.53073840000434,499.53073840000434,499.53073840000434,499.53073840000434,499.53073840000434,499.53073840000434,,,,,,,03.01.02,001,2023-11-10_16h53.17.642,REPSWITCH1_version1_list2,2022.2.4,143.91139662679473,
REPSWITCH1/PICTURE_242.png,cartero,type,darkblue,filler,1,F,4,3,2,1,Stim3_Set3,1,switch,98,97,98,0,97,97,97,,,,,,,,,,,,,,,,,,,,,,,500.0307938000187,501.14905000000726,501.14905000000726,501.14905000000726,501.14905000000726,501.14905000000726,501.14905000000726,501.14905000000726,501.14905000000726,"['c', 'a', 'r', 't', 'e', 'r', 'o']",0,cartero,C:\2023\REPSWITCH21092023\REPSWITCH_excgange\REPSWITCH_excgange\data/03.01.02_REPSWITCH1_version1_list2_2023-11-10_16h53.17.642_micRespv1l2_recorded\recording_micRespv1l2_2023-11-10_17h01.12.043.wav,504.17712860001484,,None,504.17712860001484,504.17712860001484,504.17712860001484,504.17712860001484,504.17712860001484,504.17712860001484,"[1.194172499992419, 1.3257195000187494, 1.6125996999908239, 1.858805600029882, 1.9604709999985062, 2.1218812000006437, 2.222014200000558]",,,,,,03.01.02,001,2023-11-10_16h53.17.642,REPSWITCH1_version1_list2,2022.2.4,143.91139662679473,
REPSWITCH1/PICTURE_48.png,bombero,type,darkblue,nontarget,1,NT,4,3,2,1,Stim7_Set4,1,repeat,99,98,99,0,98,98,98,,,,,,,,,,,,,,,,,,,,,,,504.67723520001164,505.8580097000231,505.8580097000231,505.8580097000231,505.8580097000231,505.8580097000231,505.8580097000231,505.8580097000231,505.8580097000231,"['b', 'o', 'm', 'b', 'e', 'r', 'o']",0,bombero,C:\2023\REPSWITCH21092023\REPSWITCH_excgange\REPSWITCH_excgange\data/03.01.02_REPSWITCH1_version1_list2_2023-11-10_16h53.17.642_micRespv1l2_recorded\recording_micRespv1l2_2023-11-10_17h01.16.752.wav,508.8791601000121,509.3792450000183,None,508.8791601000121,508.8791601000121,508.8791601000121,508.8791601000121,508.8791601000121,508.8791601000121,"[1.1123971000197344, 1.3286646999767981, 1.416375499975402, 1.5902212000219151, 1.9019286999828182, 1.9749730000039563, 2.0945665999897756]",,,,,,03.01.02,001,2023-11-10_16h53.17.642,REPSWITCH1_version1_list2,2022.2.4,143.91139662679473,
REPSWITCH1/PICTURE_48.png,bombero,type,darkblue,repeat,1,T,4,3,2,1,Stim7_Set4,0,None,100,99,100,0,99,99,99,,,,,,,,,,,,,,,,,,,,,,,509.3792450000183,510.52522599999793,510.52522599999793,510.52522599999793,510.52522599999793,510.52522599999793,510.52522599999793,510.52522599999793,510.52522599999793,"['b', 'o', 'm', 'b', 'r', 'backspace', 'e', 'r']",0,bomber,C:\2023\REPSWITCH21092023\REPSWITCH_excgange\REPSWITCH_excgange\data/03.01.02_REPSWITCH1_version1_list2_2023-11-10_16h53.17.642_micRespv1l2_recorded\recording_micRespv1l2_2023-11-10_17h01.21.420.wav,513.5533875999972,,None,513.5533875999972,513.5533875999972,513.5533875999972,513.5533875999972,513.5533875999972,513.5533875999972,"[1.1748056000215001, 1.303515400039032, 1.4002028000541031, 1.6366523000178859, 1.8911127000465058, 2.5872400000225753, 2.712161500006914, 2.795747200027108]",,,,,,03.01.02,001,2023-11-10_16h53.17.642,REPSWITCH1_version1_list2,2022.2.4,143.91139662679473,
REPSWITCH1/PICTURE_391.png,cadena,speak,gold,filler,2,F,4,3,2,1,Extra2,0,None,101,100,101,0,100,100,100,,,,,,,,,,,,,,,,,,,,,,,514.0534688000334,515.1439265999943,515.1439265999943,515.1439265999943,515.1439265999943,515.1439265999943,515.1439265999943,515.1439265999943,515.1439265999943,None,0,,C:\2023\REPSWITCH21092023\REPSWITCH_excgange\REPSWITCH_excgange\data/03.01.02_REPSWITCH1_version1_list2_2023-11-10_16h53.17.642_micRespv1l2_recorded\recording_micRespv1l2_2023-11-10_17h01.26.038.wav,518.1650974000222,518.6651634000009,None,518.1650974000222,518.1650974000222,518.1650974000222,518.1650974000222,518.1650974000222,518.1650974000222,,,,,,,03.01.02,001,2023-11-10_16h53.17.642,REPSWITCH1_version1_list2,2022.2.4,143.91139662679473,
REPSWITCH1/PICTURE_590.png,escoba,type,darkblue,filler,1,F,4,3,2,1,Extra3,0,None,102,101,102,0,101,101,101,,,,,,,,,,,,,,,,,,,,,,,518.6651634000009,519.7139909000252,519.7139909000252,519.7139909000252,519.7139909000252,519.7139909000252,519.7139909000252,519.7139909000252,519.7139909000252,"['e', 's', 'c', 'o', 'b', 'a']",0,escoba,C:\2023\REPSWITCH21092023\REPSWITCH_excgange\REPSWITCH_excgange\data/03.01.02_REPSWITCH1_version1_list2_2023-11-10_16h53.17.642_micRespv1l2_recorded\recording_micRespv1l2_2023-11-10_17h01.30.608.wav,522.7351515000337,523.2352266000235,space,522.7351515000337,522.7351515000337,522.7351515000337,522.7351515000337,522.7351515000337,522.7351515000337,"[1.2020965999690816, 1.4243432999937795, 1.6625564999994822, 1.7960591999581084, 2.1163399999495596, 2.246905199950561]",523.2352266000235,523.2352266000235,12.736121799971443,,,03.01.02,001,2023-11-10_16h53.17.642,REPSWITCH1_version1_list2,2022.2.4,143.91139662679473,
REPSWITCH1/PICTURE_340.png,espejo,type,darkblue,filler,1,F,1,1,2,1,Extra1,0,None,103,102,1,0,102,102,102,,,,,,,,,,,,,,,,,,,,,,,535.9799482999952,537.0286846000236,537.0286846000236,537.0286846000236,537.0286846000236,537.0286846000236,537.0286846000236,537.0286846000236,537.0286846000236,"['e', 's', 'p', 'e', 'j', 'o']",0,espejo,C:\2023\REPSWITCH21092023\REPSWITCH_excgange\REPSWITCH_excgange\data/03.01.02_REPSWITCH1_version1_list2_2023-11-10_16h53.17.642_micRespv1l2_recorded\recording_micRespv1l2_2023-11-10_17h01.47.924.wav,540.056897100003,,None,540.056897100003,540.056897100003,540.056897100003,540.056897100003,540.056897100003,540.056897100003,"[1.185528899950441, 1.3898418999742717, 1.591264399990905, 1.7111922999611124, 1.906687599956058, 1.9948920999886468]",,,,,,03.01.02,001,2023-11-10_16h53.17.642,REPSWITCH1_version1_list2,2022.2.4,143.91139662679473,
REPSWITCH1/PICTURE_391.png,cadena,speak,gold,filler,2,F,1,1,2,1,Extra2,0,None,104,103,2,0,103,103,103,,,,,,,,,,,,,,,,,,,,,,,540.5569204000058,541.6057027000352,541.6057027000352,541.6057027000352,541.6057027000352,541.6057027000352,541.6057027000352,541.6057027000352,541.6057027000352,None,0,,C:\2023\REPSWITCH21092023\REPSWITCH_excgange\REPSWITCH_excgange\data/03.01.02_REPSWITCH1_version1_list2_2023-11-10_16h53.17.642_micRespv1l2_recorded\recording_micRespv1l2_2023-11-10_17h01.52.499.wav,544.6269076000317,545.1269454000285,None,544.6269076000317,544.6269076000317,544.6269076000317,544.6269076000317,544.6269076000317,544.6269076000317,,,,,,,03.01.02,001,2023-11-10_16h53.17.642,REPSWITCH1_version1_list2,2022.2.4,143.91139662679473,
REPSWITCH1/PICTURE_178.png,puente,speak,gold,nontarget,2,NT,1,1,2,1,Stim1_Set1,1,repeat,105,104,3,0,104,104,104,,,,,,,,,,,,,,,,,,,,,,,545.1269454000285,546.2173904000083,546.2173904000083,546.2173904000083,546.2173904000083,546.2173904000083,546.2173904000083,546.2173904000083,546.2173904000083,None,0,,C:\2023\REPSWITCH21092023\REPSWITCH_excgange\REPSWITCH_excgange\data/03.01.02_REPSWITCH1_version1_list2_2023-11-10_16h53.17.642_micRespv1l2_recorded\recording_micRespv1l2_2023-11-10_17h01.57.111.wav,549.2386353000184,549.7387614999898,None,549.2386353000184,549.2386353000184,549.2386353000184,549.2386353000184,549.2386353000184,549.2386353000184,,,,,,,03.01.02,001,2023-11-10_16h53.17.642,REPSWITCH1_version1_list2,2022.2.4,143.91139662679473,
REPSWITCH1/PICTURE_178.png,puente,speak,gold,repeat,2,T,1,1,2,1,Stim1_Set1,0,None,106,105,4,0,105,105,105,,,,,,,,,,,,,,,,,,,,,,,549.7387614999898,550.8013496000203,550.8013496000203,550.8013496000203,550.8013496000203,550.8013496000203,550.8013496000203,550.8013496000203,550.8013496000203,None,0,,C:\2023\REPSWITCH21092023\REPSWITCH_excgange\REPSWITCH_excgange\data/03.01.02_REPSWITCH1_version1_list2_2023-11-10_16h53.17.642_micRespv1l2_recorded\recording_micRespv1l2_2023-11-10_17h02.01.695.wav,553.8225467000157,554.3226935000275,None,553.8225467000157,553.8225467000157,553.8225467000157,553.8225467000157,553.8225467000157,553.8225467000157,,,,,,,03.01.02,001,2023-11-10_16h53.17.642,REPSWITCH1_version1_list2,2022.2.4,143.91139662679473,
REPSWITCH1/PICTURE_319.png,vaca,type,darkblue,filler,1,F,1,1,2,1,Stim1_Set4,0,None,107,106,5,0,106,106,106,,,,,,,,,,,,,,,,,,,,,,,554.3226935000275,555.3783919000416,555.3783919000416,555.3783919000416,555.3783919000416,555.3783919000416,555.3783919000416,555.3783919000416,555.3783919000416,"['v', 'a', 'c', 'a']",0,vaca,C:\2023\REPSWITCH21092023\REPSWITCH_excgange\REPSWITCH_excgange\data/03.01.02_REPSWITCH1_version1_list2_2023-11-10_16h53.17.642_micRespv1l2_recorded\recording_micRespv1l2_2023-11-10_17h02.06.272.wav,558.3995551000116,558.8996956000337,None,558.3995551000116,558.3995551000116,558.3995551000116,558.3995551000116,558.3995551000116,558.3995551000116,"[1.384282400016673, 1.5218280000262894, 1.6204870999790728, 1.7321181999868713]",,,,,,03.01.02,001,2023-11-10_16h53.17.642,REPSWITCH1_version1_list2,2022.2.4,143.91139662679473,
REPSWITCH1/PICTURE_381.png,fresa,speak,gold,nontarget,2,NT,1,1,2,1,Stim2_Set1,1,switch,108,107,6,0,107,107,107,,,,,,,,,,,,,,,,,,,,,,,558.8996956000337,559.9553409999935,559.9553409999935,559.9553409999935,559.9553409999935,559.9553409999935,559.9553409999935,559.9553409999935,559.9553409999935,None,0,,C:\2023\REPSWITCH21092023\REPSWITCH_excgange\REPSWITCH_excgange\data/03.01.02_REPSWITCH1_version1_list2_2023-11-10_16h53.17.642_micRespv1l2_recorded\recording_micRespv1l2_2023-11-10_17h02.10.849.wav,562.9765093000024,563.4766166000045,None,562.9765093000024,562.9765093000024,562.9765093000024,562.9765093000024,562.9765093000024,562.9765093000024,,,,,,,03.01.02,001,2023-11-10_16h53.17.642,REPSWITCH1_version1_list2,2022.2.4,143.91139662679473,
REPSWITCH1/PICTURE_381.png,fresa,speak,gold,repeat,2,T,1,1,2,1,Stim2_Set1,0,None,109,108,7,0,108,108,108,,,,,,,,,,,,,,,,,,,,,,,563.4766166000045,564.6087052000221,564.6087052000221,564.6087052000221,564.6087052000221,564.6087052000221,564.6087052000221,564.6087052000221,564.6087052000221,None,0,,C:\2023\REPSWITCH21092023\REPSWITCH_excgange\REPSWITCH_excgange\data/03.01.02_REPSWITCH1_version1_list2_2023-11-10_16h53.17.642_micRespv1l2_recorded\recording_micRespv1l2_2023-11-10_17h02.15.503.wav,567.6298949000193,568.1299801000278,None,567.6298949000193,567.6298949000193,567.6298949000193,567.6298949000193,567.6298949000193,567.6298949000193,,,,,,,03.01.02,001,2023-11-10_16h53.17.642,REPSWITCH1_version1_list2,2022.2.4,143.91139662679473,
REPSWITCH1/PICTURE_719.png,baño,type,darkblue,filler,1,F,1,1,2,1,Stim2_Set4,1,switch,110,109,8,0,109,109,109,,,,,,,,,,,,,,,,,,,,,,,568.1299801000278,569.2968380000093,569.2968380000093,569.2968380000093,569.2968380000093,569.2968380000093,569.2968380000093,569.2968380000093,569.2968380000093,"['b', 'a', 'ñ', 'o']",0,baño,C:\2023\REPSWITCH21092023\REPSWITCH_excgange\REPSWITCH_excgange\data/03.01.02_REPSWITCH1_version1_list2_2023-11-10_16h53.17.642_micRespv1l2_recorded\recording_micRespv1l2_2023-11-10_17h02.20.191.wav,572.3249833000009,,None,572.3249833000009,572.3249833000009,572.3249833000009,572.3249833000009,572.3249833000009,572.3249833000009,"[1.0412670000223443, 1.2026941999793053, 1.9188939000014216, 1.941809399984777]",,,,,,03.01.02,001,2023-11-10_16h53.17.642,REPSWITCH1_version1_list2,2022.2.4,143.91139662679473,
REPSWITCH1/PICTURE_135.png,traje,speak,gold,nontarget,2,NT,1,1,2,1,Stim3_Set1,0,None,111,110,9,0,110,110,110,,,,,,,,,,,,,,,,,,,,,,,572.8251109999837,573.9224562000018,573.9224562000018,573.9224562000018,573.9224562000018,573.9224562000018,573.9224562000018,573.9224562000018,573.9224562000018,None,0,,C:\2023\REPSWITCH21092023\REPSWITCH_excgange\REPSWITCH_excgange\data/03.01.02_REPSWITCH1_version1_list2_2023-11-10_16h53.17.642_micRespv1l2_recorded\recording_micRespv1l2_2023-11-10_17h02.24.816.wav,576.9436615000013,577.4437217999948,None,576.9436615000013,576.9436615000013,576.9436615000013,576.9436615000013,576.9436615000013,576.9436615000013,,,,,,,03.01.02,001,2023-11-10_16h53.17.642,REPSWITCH1_version1_list2,2022.2.4,143.91139662679473,
REPSWITCH1/PICTURE_135.png,traje,type,darkblue,switch,1,T,1,1,2,1,Stim3_Set1,0,None,112,111,10,0,111,111,111,,,,,,,,,,,,,,,,,,,,,,,577.4437217999948,578.5966666000313,578.5966666000313,578.5966666000313,578.5966666000313,578.5966666000313,578.5966666000313,578.5966666000313,578.5966666000313,"['t', 'r', 'a', 'j', 'e']",0,traje,C:\2023\REPSWITCH21092023\REPSWITCH_excgange\REPSWITCH_excgange\data/03.01.02_REPSWITCH1_version1_list2_2023-11-10_16h53.17.642_micRespv1l2_recorded\recording_micRespv1l2_2023-11-10_17h02.29.490.wav,581.6179482000298,582.1179427999887,None,581.6179482000298,581.6179482000298,581.6179482000298,581.6179482000298,581.6179482000298,581.6179482000298,"[1.0621174999978393, 1.2375275999656878, 1.3631021999754012, 1.8181434000143781, 1.8979130999650806]",,,,,,03.01.02,001,2023-11-10_16h53.17.642,REPSWITCH1_version1_list2,2022.2.4,143.91139662679473,
REPSWITCH1/PICTURE_687.png,camisa,speak,gold,filler,2,F,1,1,2,1,Stim5_Set4,0,None,113,112,11,0,112,112,112,,,,,,,,,,,,,,,,,,,,,,,582.1179427999887,583.2222812999971,583.2222812999971,583.2222812999971,583.2222812999971,583.2222812999971,583.2222812999971,583.2222812999971,583.2222812999971,None,0,,C:\2023\REPSWITCH21092023\REPSWITCH_excgange\REPSWITCH_excgange\data/03.01.02_REPSWITCH1_version1_list2_2023-11-10_16h53.17.642_micRespv1l2_recorded\recording_micRespv1l2_2023-11-10_17h02.34.116.wav,586.2434761000331,586.7435538999853,None,586.2434761000331,586.2434761000331,586.2434761000331,586.2434761000331,586.2434761000331,586.2434761000331,,,,,,,03.01.02,001,2023-11-10_16h53.17.642,REPSWITCH1_version1_list2,2022.2.4,143.91139662679473,
REPSWITCH1/PICTURE_128.png,muñeca,type,darkblue,nontarget,1,NT,1,1,2,1,Stim4_Set1,1,switch,114,113,12,0,113,113,113,,,,,,,,,,,,,,,,,,,,,,,586.7435538999853,587.7853617999936,587.7853617999936,587.7853617999936,587.7853617999936,587.7853617999936,587.7853617999936,587.7853617999936,587.7853617999936,"['m', 'u', 'ñ', 'e', 'c', 'a']",0,muñeca,C:\2023\REPSWITCH21092023\REPSWITCH_excgange\REPSWITCH_excgange\data/03.01.02_REPSWITCH1_version1_list2_2023-11-10_16h53.17.642_micRespv1l2_recorded\recording_micRespv1l2_2023-11-10_17h02.38.679.wav,590.8065942000248,591.3066441999981,None,590.8065942000248,590.8065942000248,590.8065942000248,590.8065942000248,590.8065942000248,590.8065942000248,"[1.3313021000358276, 1.6004921000567265, 2.1104266000329517, 2.2928053000359796, 2.6345975000294857, 2.7498851000564173]",,,,,,03.01.02,001,2023-11-10_16h53.17.642,REPSWITCH1_version1_list2,2022.2.4,143.91139662679473,
REPSWITCH1/PICTURE_128.png,muñeca,speak,gold,switch,2,T,1,1,2,1,Stim4_Set1,0,None,115,114,13,0,114,114,114,,,,,,,,,,,,,,,,,,,,,,,591.3066441999981,592.4526146000135,592.4526146000135,592.4526146000135,592.4526146000135,592.4526146000135,592.4526146000135,592.4526146000135,592.4526146000135,None,0,,C:\2023\REPSWITCH21092023\REPSWITCH_excgange\REPSWITCH_excgange\data/03.01.02_REPSWITCH1_version1_list2_2023-11-10_16h53.17.642_micRespv1l2_recorded\recording_micRespv1l2_2023-11-10_17h02.43.347.wav,595.4738686000346,595.9738892000169,None,595.4738686000346,595.4738686000346,595.4738686000346,595.4738686000346,595.4738686000346,595.4738686000346,,,,,,,03.01.02,001,2023-11-10_16h53.17.642,REPSWITCH1_version1_list2,2022.2.4,143.91139662679473,
REPSWITCH1/PICTURE_8.png,pierna,speak,gold,filler,2,F,1,1,2,1,Stim3_Set4,0,None,116,115,14,0,115,115,115,,,,,,,,,,,,,,,,,,,,,,,595.9738892000169,597.0921735999873,597.0921735999873,597.0921735999873,597.0921735999873,597.0921735999873,597.0921735999873,597.0921735999873,597.0921735999873,None,0,,C:\2023\REPSWITCH21092023\REPSWITCH_excgange\REPSWITCH_excgange\data/03.01.02_REPSWITCH1_version1_list2_2023-11-10_16h53.17.642_micRespv1l2_recorded\recording_micRespv1l2_2023-11-10_17h02.47.985.wav,600.1133734000032,600.6134325999883,None,600.1133734000032,600.1133734000032,600.1133734000032,600.1133734000032,600.1133734000032,600.1133734000032,,,,,,,03.01.02,001,2023-11-10_16h53.17.642,REPSWITCH1_version1_list2,2022.2.4,143.91139662679473,
REPSWITCH1/PICTURE_19.png,pavo,speak,gold,nontarget,2,NT,1,1,2,1,Stim5_Set1,0,None,117,116,15,0,116,116,116,,,,,,,,,,,,,,,,,,,,,,,600.6134325999883,601.7247028999845,601.7247028999845,601.7247028999845,601.7247028999845,601.7247028999845,601.7247028999845,601.7247028999845,601.7247028999845,None,0,,C:\2023\REPSWITCH21092023\REPSWITCH_excgange\REPSWITCH_excgange\data/03.01.02_REPSWITCH1_version1_list2_2023-11-10_16h53.17.642_micRespv1l2_recorded\recording_micRespv1l2_2023-11-10_17h02.52.619.wav,604.7458747000201,605.2459760000347,None,604.7458747000201,604.7458747000201,604.7458747000201,604.7458747000201,604.7458747000201,604.7458747000201,,,,,,,03.01.02,001,2023-11-10_16h53.17.642,REPSWITCH1_version1_list2,2022.2.4,143.91139662679473,
REPSWITCH1/PICTURE_19.png,pavo,type,darkblue,switch,1,T,1,1,2,1,Stim5_Set1,0,None,118,117,16,0,117,117,117,,,,,,,,,,,,,,,,,,,,,,,605.2459760000347,606.3641890999861,606.3641890999861,606.3641890999861,606.3641890999861,606.3641890999861,606.3641890999861,606.3641890999861,606.3641890999861,"['p', 'a', 'v', 'o']",0,pavo,C:\2023\REPSWITCH21092023\REPSWITCH_excgange\REPSWITCH_excgange\data/03.01.02_REPSWITCH1_version1_list2_2023-11-10_16h53.17.642_micRespv1l2_recorded\recording_micRespv1l2_2023-11-10_17h02.57.259.wav,609.3854053000105,609.8855447000242,None,609.3854053000105,609.3854053000105,609.3854053000105,609.3854053000105,609.3854053000105,609.3854053000105,"[1.0772865999606438, 1.2178529999800958, 1.5690628999727778, 1.6398173999623396]",,,,,,03.01.02,001,2023-11-10_16h53.17.642,REPSWITCH1_version1_list2,2022.2.4,143.91139662679473,
REPSWITCH1/PICTURE_16.png,cazador,type,darkblue,nontarget,1,NT,1,1,2,1,Stim6_Set1,1,switch,119,118,17,0,118,118,118,,,,,,,,,,,,,,,,,,,,,,,609.8855447000242,610.9619774000021,610.9619774000021,610.9619774000021,610.9619774000021,610.9619774000021,610.9619774000021,610.9619774000021,610.9619774000021,"['c', 'a', 'z', 'a', 'd', 'o', 'r']",0,cazador,C:\2023\REPSWITCH21092023\REPSWITCH_excgange\REPSWITCH_excgange\data/03.01.02_REPSWITCH1_version1_list2_2023-11-10_16h53.17.642_micRespv1l2_recorded\recording_micRespv1l2_2023-11-10_17h03.01.857.wav,613.9901724000229,,None,613.9901724000229,613.9901724000229,613.9901724000229,613.9901724000229,613.9901724000229,613.9901724000229,"[1.1776544000022113, 1.2693534000427462, 1.6513900000136346, 1.7615022000391036, 1.9558586000348441, 2.1158873000531457, 2.2225865000509657]",,,,,,03.01.02,001,2023-11-10_16h53.17.642,REPSWITCH1_version1_list2,2022.2.4,143.91139662679473,
REPSWITCH1/PICTURE_16.png,cazador,type,darkblue,repeat,1,T,1,1,2,1,Stim6_Set1,0,None,120,119,18,0,119,119,119,,,,,,,,,,,,,,,,,,,,,,,614.4902389000054,615.5112297000014,615.5112297000014,615.5112297000014,615.5112297000014,615.5112297000014,615.5112297000014,615.5112297000014,615.5112297000014,"['c', 'a', 'z', 'a', 'd', 'o', 'r']",0,cazador,C:\2023\REPSWITCH21092023\REPSWITCH_excgange\REPSWITCH_excgange\data/03.01.02_REPSWITCH1_version1_list2_2023-11-10_16h53.17.642_micRespv1l2_recorded\recording_micRespv1l2_2023-11-10_17h03.06.406.wav,618.5324025999871,619.0325124000083,None,618.5324025999871,618.5324025999871,618.5324025999871,618.5324025999871,618.5324025999871,618.5324025999871,"[0.8985237000160851, 1.0001465000095777, 1.4573264000355266, 1.568941400037147, 1.782574900018517, 1.9181366999982856, 2.0247745000524446]",,,,,,03.01.02,001,2023-11-10_16h53.17.642,REPSWITCH1_version1_list2,2022.2.4,143.91139662679473,
