image,correctAns,famTrials.thisRepN,famTrials.thisTrialN,famTrials.thisN,famTrials.thisIndex,textWelcomeFam.started,textboxInstrFam.started,keyInstrFam.started,keyInstrFam.keys,keyInstrFam.rt,fixationITI.started,fixationITI.stopped,polygonWhiteFam.started,imageFam.started,micFam.started,textFam.started,textFam.stopped,polygonWhiteFam.stopped,imageFam.stopped,micFam.clip,textBlankLoop.started,textBlankLoop.stopped,textboxEndFam.started,keyEndFam.started,keyEndFam.keys,keyEndFam.rt,participant,session,date,expName,psychopyVersion,frameRate,
,,,,,,14.113289100001566,16.110238299996126,16.110238299996126,space,11.836548899998888,,,,,,,,,,,,,,,,,030102,001,2023-11-10_16h39.05.738,REPSWITCH1_Fam,2022.2.4,143.9760423918443,
REPSWITCH1_Fam/PICTURE_12.png,sirena,0,0,0,38,,,,,,27.966011199983768,29.007769299962092,29.007769299962092,29.007769299962092,29.007769299962092,32.501280699972995,35.001604399993084,35.03632249997463,35.03632249997463,C:\2023\REPSWITCH21092023\REPSWITCH_excgange\REPSWITCH_excgange\data/030102_REPSWITCH1_Fam_2023-11-10_16h39.05.738_micFam_recorded\recording_micFam_2023-11-10_16h39.28.326.wav,35.03632249997463,35.53637270000763,,,,,030102,001,2023-11-10_16h39.05.738,REPSWITCH1_Fam,2022.2.4,143.9760423918443,
REPSWITCH1_Fam/PICTURE_48.png,bombero,0,1,1,22,,,,,,35.53637270000763,36.5573868000065,36.5573868000065,36.5573868000065,36.5573868000065,40.05086640000809,42.551263400004245,42.585908200009726,42.585908200009726,C:\2023\REPSWITCH21092023\REPSWITCH_excgange\REPSWITCH_excgange\data/030102_REPSWITCH1_Fam_2023-11-10_16h39.05.738_micFam_recorded\recording_micFam_2023-11-10_16h39.35.873.wav,42.585908200009726,43.085960199998226,,,,,030102,001,2023-11-10_16h39.05.738,REPSWITCH1_Fam,2022.2.4,143.9760423918443,
REPSWITCH1_Fam/PICTURE_728.png,pulpo,0,2,2,30,,,,,,43.085960199998226,44.238932400010526,44.238932400010526,44.238932400010526,44.238932400010526,47.7325012999936,50.23275189998094,50.26750959997298,50.26750959997298,C:\2023\REPSWITCH21092023\REPSWITCH_excgange\REPSWITCH_excgange\data/030102_REPSWITCH1_Fam_2023-11-10_16h39.05.738_micFam_recorded\recording_micFam_2023-11-10_16h39.43.555.wav,50.26750959997298,50.767556399980094,,,,,030102,001,2023-11-10_16h39.05.738,REPSWITCH1_Fam,2022.2.4,143.9760423918443,
REPSWITCH1_Fam/PICTURE_152.png,caracol,0,3,3,3,,,,,,50.767556399980094,51.878788299974985,51.878788299974985,51.878788299974985,51.878788299974985,55.37231679999968,57.87263840000378,57.907372699992266,57.907372699992266,C:\2023\REPSWITCH21092023\REPSWITCH_excgange\REPSWITCH_excgange\data/030102_REPSWITCH1_Fam_2023-11-10_16h39.05.738_micFam_recorded\recording_micFam_2023-11-10_16h39.51.195.wav,57.907372699992266,58.40742989996215,,,,,030102,001,2023-11-10_16h39.05.738,REPSWITCH1_Fam,2022.2.4,143.9760423918443,
REPSWITCH1_Fam/PICTURE_552.png,manzana,0,4,4,25,,,,,,58.40742989996215,59.5326007999829,59.5326007999829,59.5326007999829,59.5326007999829,63.02613610000117,65.52642700000433,65.56115560000762,65.56115560000762,C:\2023\REPSWITCH21092023\REPSWITCH_excgange\REPSWITCH_excgange\data/030102_REPSWITCH1_Fam_2023-11-10_16h39.05.738_micFam_recorded\recording_micFam_2023-11-10_16h39.58.848.wav,65.56115560000762,66.0611998999957,,,,,030102,001,2023-11-10_16h39.05.738,REPSWITCH1_Fam,2022.2.4,143.9760423918443,
REPSWITCH1_Fam/PICTURE_340.png,espejo,0,5,5,39,,,,,,66.0611998999957,67.24888510000892,67.24888510000892,67.24888510000892,67.24888510000892,70.7423628999968,73.24270369997248,73.27743079996435,73.27743079996435,C:\2023\REPSWITCH21092023\REPSWITCH_excgange\REPSWITCH_excgange\data/030102_REPSWITCH1_Fam_2023-11-10_16h39.05.738_micFam_recorded\recording_micFam_2023-11-10_16h40.06.564.wav,73.27743079996435,73.77749700000277,,,,,030102,001,2023-11-10_16h39.05.738,REPSWITCH1_Fam,2022.2.4,143.9760423918443,
REPSWITCH1_Fam/PICTURE_464.png,goma,0,6,6,21,,,,,,73.77749700000277,74.8957663999754,74.8957663999754,74.8957663999754,74.8957663999754,78.38920320000034,80.88953330001095,80.92432950000511,80.92432950000511,C:\2023\REPSWITCH21092023\REPSWITCH_excgange\REPSWITCH_excgange\data/030102_REPSWITCH1_Fam_2023-11-10_16h39.05.738_micFam_recorded\recording_micFam_2023-11-10_16h40.14.210.wav,80.92432950000511,81.42433129996061,,,,,030102,001,2023-11-10_16h39.05.738,REPSWITCH1_Fam,2022.2.4,143.9760423918443,
REPSWITCH1_Fam/PICTURE_446.png,cerdo,0,7,7,20,,,,,,81.42433129996061,82.53560309996828,82.53560309996828,82.53560309996828,82.53560309996828,86.02907679998316,88.52943049999885,88.5641437000013,88.5641437000013,C:\2023\REPSWITCH21092023\REPSWITCH_excgange\REPSWITCH_excgange\data/030102_REPSWITCH1_Fam_2023-11-10_16h39.05.738_micFam_recorded\recording_micFam_2023-11-10_16h40.21.850.wav,88.5641437000013,89.06422289996408,,,,,030102,001,2023-11-10_16h39.05.738,REPSWITCH1_Fam,2022.2.4,143.9760423918443,
REPSWITCH1_Fam/PICTURE_612.png,rana,0,8,8,32,,,,,,89.06422289996408,90.18239199998789,90.18239199998789,90.18239199998789,90.18239199998789,93.67591779999202,96.17625399999088,96.21103020000737,96.21103020000737,C:\2023\REPSWITCH21092023\REPSWITCH_excgange\REPSWITCH_excgange\data/030102_REPSWITCH1_Fam_2023-11-10_16h39.05.738_micFam_recorded\recording_micFam_2023-11-10_16h40.29.499.wav,96.21103020000737,96.71109539997997,,,,,030102,001,2023-11-10_16h39.05.738,REPSWITCH1_Fam,2022.2.4,143.9760423918443,
REPSWITCH1_Fam/PICTURE_128.png,muñeca,0,9,9,0,,,,,,96.71109539997997,97.7667757999734,97.7667757999734,97.7667757999734,97.7667757999734,101.26029010000639,103.76058090000879,103.79529450001428,103.79529450001428,C:\2023\REPSWITCH21092023\REPSWITCH_excgange\REPSWITCH_excgange\data/030102_REPSWITCH1_Fam_2023-11-10_16h39.05.738_micFam_recorded\recording_micFam_2023-11-10_16h40.37.082.wav,103.79529450001428,104.29535919998307,,,,,030102,001,2023-11-10_16h39.05.738,REPSWITCH1_Fam,2022.2.4,143.9760423918443,
REPSWITCH1_Fam/PICTURE_8.png,pierna,0,10,10,31,,,,,,104.29535919998307,105.43440829997417,105.43440829997417,105.43440829997417,105.43440829997417,108.92789950000588,111.42824259999907,111.46302450000076,111.46302450000076,C:\2023\REPSWITCH21092023\REPSWITCH_excgange\REPSWITCH_excgange\data/030102_REPSWITCH1_Fam_2023-11-10_16h39.05.738_micFam_recorded\recording_micFam_2023-11-10_16h40.44.750.wav,111.46302450000076,111.96301840001252,,,,,030102,001,2023-11-10_16h39.05.738,REPSWITCH1_Fam,2022.2.4,143.9760423918443,
REPSWITCH1_Fam/PICTURE_110.png,mesa,0,11,11,37,,,,,,111.96301840001252,113.0187653999892,113.0187653999892,113.0187653999892,113.0187653999892,116.51224959996762,119.01257640001131,119.04736739996588,119.04736739996588,C:\2023\REPSWITCH21092023\REPSWITCH_excgange\REPSWITCH_excgange\data/030102_REPSWITCH1_Fam_2023-11-10_16h39.05.738_micFam_recorded\recording_micFam_2023-11-10_16h40.52.334.wav,119.04736739996588,119.54736409999896,,,,,030102,001,2023-11-10_16h39.05.738,REPSWITCH1_Fam,2022.2.4,143.9760423918443,
REPSWITCH1_Fam/PICTURE_570.png,toro,0,12,12,34,,,,,,119.54736409999896,120.71419859997695,120.71419859997695,120.71419859997695,120.71419859997695,124.20768629998202,126.70804890000727,126.74275859998306,126.74275859998306,C:\2023\REPSWITCH21092023\REPSWITCH_excgange\REPSWITCH_excgange\data/030102_REPSWITCH1_Fam_2023-11-10_16h39.05.738_micFam_recorded\recording_micFam_2023-11-10_16h41.00.030.wav,126.74275859998306,127.2428254999686,,,,,030102,001,2023-11-10_16h39.05.738,REPSWITCH1_Fam,2022.2.4,143.9760423918443,
REPSWITCH1_Fam/PICTURE_16.png,cazador,0,13,13,4,,,,,,127.2428254999686,128.34018279996235,128.34018279996235,128.34018279996235,128.34018279996235,131.8337002999615,134.33399949996965,134.36875429999782,134.36875429999782,C:\2023\REPSWITCH21092023\REPSWITCH_excgange\REPSWITCH_excgange\data/030102_REPSWITCH1_Fam_2023-11-10_16h39.05.738_micFam_recorded\recording_micFam_2023-11-10_16h41.07.656.wav,134.36875429999782,134.86881630000426,,,,,030102,001,2023-11-10_16h39.05.738,REPSWITCH1_Fam,2022.2.4,143.9760423918443,
REPSWITCH1_Fam/PICTURE_576.png,guante,0,14,14,26,,,,,,134.86881630000426,135.97311429999536,135.97311429999536,135.97311429999536,135.97311429999536,139.46663679997437,141.96693729999242,142.00169469998218,142.00169469998218,C:\2023\REPSWITCH21092023\REPSWITCH_excgange\REPSWITCH_excgange\data/030102_REPSWITCH1_Fam_2023-11-10_16h39.05.738_micFam_recorded\recording_micFam_2023-11-10_16h41.15.289.wav,142.00169469998218,142.5018274000031,,,,,030102,001,2023-11-10_16h39.05.738,REPSWITCH1_Fam,2022.2.4,143.9760423918443,
REPSWITCH1_Fam/PICTURE_614.png,reina,0,15,15,36,,,,,,142.5018274000031,143.69634769996628,143.69634769996628,143.69634769996628,143.69634769996628,147.18993120000232,149.69018719997257,149.72489720000885,149.72489720000885,C:\2023\REPSWITCH21092023\REPSWITCH_excgange\REPSWITCH_excgange\data/030102_REPSWITCH1_Fam_2023-11-10_16h39.05.738_micFam_recorded\recording_micFam_2023-11-10_16h41.23.012.wav,149.72489720000885,150.2249645999982,,,,,030102,001,2023-11-10_16h39.05.738,REPSWITCH1_Fam,2022.2.4,143.9760423918443,
REPSWITCH1_Fam/PICTURE_719.png,baño,0,16,16,29,,,,,,150.2249645999982,151.34325390000595,151.34325390000595,151.34325390000595,151.34325390000595,154.83669099997496,157.33704549999675,157.3718160999706,157.3718160999706,C:\2023\REPSWITCH21092023\REPSWITCH_excgange\REPSWITCH_excgange\data/030102_REPSWITCH1_Fam_2023-11-10_16h39.05.738_micFam_recorded\recording_micFam_2023-11-10_16h41.30.659.wav,157.3718160999706,157.8718988999608,,,,,030102,001,2023-11-10_16h39.05.738,REPSWITCH1_Fam,2022.2.4,143.9760423918443,
REPSWITCH1_Fam/PICTURE_175.png,pintor,0,17,17,6,,,,,,157.8718988999608,158.98309749999316,158.98309749999316,158.98309749999316,158.98309749999316,162.47659649996785,164.97690949996468,165.0117233999772,165.0117233999772,C:\2023\REPSWITCH21092023\REPSWITCH_excgange\REPSWITCH_excgange\data/030102_REPSWITCH1_Fam_2023-11-10_16h39.05.738_micFam_recorded\recording_micFam_2023-11-10_16h41.38.299.wav,165.0117233999772,165.51171210000757,,,,,030102,001,2023-11-10_16h39.05.738,REPSWITCH1_Fam,2022.2.4,143.9760423918443,
REPSWITCH1_Fam/PICTURE_338.png,regalo,0,18,18,17,,,,,,165.51171210000757,166.65074710000772,166.65074710000772,166.65074710000772,166.65074710000772,170.14433009998174,172.64458059996832,172.67938429996138,172.67938429996138,C:\2023\REPSWITCH21092023\REPSWITCH_excgange\REPSWITCH_excgange\data/030102_REPSWITCH1_Fam_2023-11-10_16h39.05.738_micFam_recorded\recording_micFam_2023-11-10_16h41.45.966.wav,172.67938429996138,173.1793827000074,,,,,030102,001,2023-11-10_16h39.05.738,REPSWITCH1_Fam,2022.2.4,143.9760423918443,
REPSWITCH1_Fam/PICTURE_169.png,espalda,0,19,19,5,,,,,,173.1793827000074,174.32541549997404,174.32541549997404,174.32541549997404,174.32541549997404,177.81884769996395,180.31919879995985,180.35390290000942,180.35390290000942,C:\2023\REPSWITCH21092023\REPSWITCH_excgange\REPSWITCH_excgange\data/030102_REPSWITCH1_Fam_2023-11-10_16h39.05.738_micFam_recorded\recording_micFam_2023-11-10_16h41.53.640.wav,180.35390290000942,180.8540323000052,,,,,030102,001,2023-11-10_16h39.05.738,REPSWITCH1_Fam,2022.2.4,143.9760423918443,
REPSWITCH1_Fam/PICTURE_35.png,oreja,0,20,20,18,,,,,,180.8540323000052,181.95138149999548,181.95138149999548,181.95138149999548,181.95138149999548,185.44483389996458,187.94519339996623,187.97990589996334,187.97990589996334,C:\2023\REPSWITCH21092023\REPSWITCH_excgange\REPSWITCH_excgange\data/030102_REPSWITCH1_Fam_2023-11-10_16h39.05.738_micFam_recorded\recording_micFam_2023-11-10_16h42.01.266.wav,187.97990589996334,188.47995549999177,,,,,030102,001,2023-11-10_16h39.05.738,REPSWITCH1_Fam,2022.2.4,143.9760423918443,
REPSWITCH1_Fam/PICTURE_590.png,escoba,0,21,21,41,,,,,,188.47995549999177,189.64680139999837,189.64680139999837,189.64680139999837,189.64680139999837,193.14031569997314,195.64066669996828,195.67538609995972,195.67538609995972,C:\2023\REPSWITCH21092023\REPSWITCH_excgange\REPSWITCH_excgange\data/030102_REPSWITCH1_Fam_2023-11-10_16h39.05.738_micFam_recorded\recording_micFam_2023-11-10_16h42.08.963.wav,195.67538609995972,196.1754412999726,,,,,030102,001,2023-11-10_16h39.05.738,REPSWITCH1_Fam,2022.2.4,143.9760423918443,
REPSWITCH1_Fam/PICTURE_30.png,granja,0,22,22,14,,,,,,196.1754412999726,197.27973289997317,197.27973289997317,197.27973289997317,197.27973289997317,200.77328570000827,203.2735965999891,203.30832539999392,203.30832539999392,C:\2023\REPSWITCH21092023\REPSWITCH_excgange\REPSWITCH_excgange\data/030102_REPSWITCH1_Fam_2023-11-10_16h39.05.738_micFam_recorded\recording_micFam_2023-11-10_16h42.16.596.wav,203.30832539999392,203.80838760000188,,,,,030102,001,2023-11-10_16h39.05.738,REPSWITCH1_Fam,2022.2.4,143.9760423918443,
REPSWITCH1_Fam/PICTURE_178.png,puente,0,23,23,7,,,,,,203.80838760000188,204.89883600000758,204.89883600000758,204.89883600000758,204.89883600000758,208.39230369997676,210.89264500001445,210.92737930000294,210.92737930000294,C:\2023\REPSWITCH21092023\REPSWITCH_excgange\REPSWITCH_excgange\data/030102_REPSWITCH1_Fam_2023-11-10_16h39.05.738_micFam_recorded\recording_micFam_2023-11-10_16h42.24.213.wav,210.92737930000294,211.42742429999635,,,,,030102,001,2023-11-10_16h39.05.738,REPSWITCH1_Fam,2022.2.4,143.9760423918443,
REPSWITCH1_Fam/PICTURE_19.png,pavo,0,24,24,8,,,,,,211.42742429999635,212.51784789998783,212.51784789998783,212.51784789998783,212.51784789998783,216.0113730999874,218.51169379998464,218.54650779999793,218.54650779999793,C:\2023\REPSWITCH21092023\REPSWITCH_excgange\REPSWITCH_excgange\data/030102_REPSWITCH1_Fam_2023-11-10_16h39.05.738_micFam_recorded\recording_micFam_2023-11-10_16h42.31.834.wav,218.54650779999793,219.04649059998337,,,,,030102,001,2023-11-10_16h39.05.738,REPSWITCH1_Fam,2022.2.4,143.9760423918443,
REPSWITCH1_Fam/PICTURE_319.png,vaca,0,25,25,15,,,,,,219.04649059998337,220.1369013999938,220.1369013999938,220.1369013999938,220.1369013999938,223.63042459997814,226.13075849995948,226.16548179998063,226.16548179998063,C:\2023\REPSWITCH21092023\REPSWITCH_excgange\REPSWITCH_excgange\data/030102_REPSWITCH1_Fam_2023-11-10_16h39.05.738_micFam_recorded\recording_micFam_2023-11-10_16h42.39.452.wav,226.16548179998063,226.66554829996312,,,,,030102,001,2023-11-10_16h39.05.738,REPSWITCH1_Fam,2022.2.4,143.9760423918443,
REPSWITCH1_Fam/PICTURE_391.png,cadena,0,26,26,40,,,,,,226.66554829996312,227.72127430001274,227.72127430001274,227.72127430001274,227.72127430001274,231.2147114999825,233.7150566999917,233.74979989998974,233.74979989998974,C:\2023\REPSWITCH21092023\REPSWITCH_excgange\REPSWITCH_excgange\data/030102_REPSWITCH1_Fam_2023-11-10_16h39.05.738_micFam_recorded\recording_micFam_2023-11-10_16h42.47.037.wav,233.74979989998974,234.24991969997063,,,,,030102,001,2023-11-10_16h39.05.738,REPSWITCH1_Fam,2022.2.4,143.9760423918443,
REPSWITCH1_Fam/PICTURE_599.png,nube,0,27,27,33,,,,,,234.24991969997063,235.41669699997874,235.41669699997874,235.41669699997874,235.41669699997874,238.9101991999778,241.41051750001498,241.4452480999753,241.4452480999753,C:\2023\REPSWITCH21092023\REPSWITCH_excgange\REPSWITCH_excgange\data/030102_REPSWITCH1_Fam_2023-11-10_16h39.05.738_micFam_recorded\recording_micFam_2023-11-10_16h42.54.732.wav,241.4452480999753,241.94539439998334,,,,,030102,001,2023-11-10_16h39.05.738,REPSWITCH1_Fam,2022.2.4,143.9760423918443,
REPSWITCH1_Fam/PICTURE_673.png,tenedor,0,28,28,44,,,,,,241.94539439998334,243.03572360001272,243.03572360001272,243.03572360001272,243.03572360001272,246.5293211999815,249.02956890000496,249.0643032999942,249.0643032999942,C:\2023\REPSWITCH21092023\REPSWITCH_excgange\REPSWITCH_excgange\data/030102_REPSWITCH1_Fam_2023-11-10_16h39.05.738_micFam_recorded\recording_micFam_2023-11-10_16h43.02.352.wav,249.0643032999942,249.56437529996037,,,,,030102,001,2023-11-10_16h39.05.738,REPSWITCH1_Fam,2022.2.4,143.9760423918443,
REPSWITCH1_Fam/PICTURE_733.png,gafas,0,29,29,35,,,,,,249.56437529996037,250.73118639999302,250.73118639999302,250.73118639999302,250.73118639999302,254.2247003999655,256.7250080999802,256.7597684999928,256.7597684999928,C:\2023\REPSWITCH21092023\REPSWITCH_excgange\REPSWITCH_excgange\data/030102_REPSWITCH1_Fam_2023-11-10_16h39.05.738_micFam_recorded\recording_micFam_2023-11-10_16h43.10.046.wav,256.7597684999928,257.25980850000633,,,,,030102,001,2023-11-10_16h39.05.738,REPSWITCH1_Fam,2022.2.4,143.9760423918443,
REPSWITCH1_Fam/PICTURE_235.png,aguja,0,30,30,10,,,,,,257.25980850000633,258.3849973999895,258.3849973999895,258.3849973999895,258.3849973999895,261.87848449999,264.3787959999754,264.41354159999173,264.41354159999173,C:\2023\REPSWITCH21092023\REPSWITCH_excgange\REPSWITCH_excgange\data/030102_REPSWITCH1_Fam_2023-11-10_16h39.05.738_micFam_recorded\recording_micFam_2023-11-10_16h43.17.700.wav,264.41354159999173,264.9136001999723,,,,,030102,001,2023-11-10_16h39.05.738,REPSWITCH1_Fam,2022.2.4,143.9760423918443,
REPSWITCH1_Fam/PICTURE_381.png,fresa,0,31,31,19,,,,,,264.9136001999723,266.03187110001454,266.03187110001454,266.03187110001454,266.03187110001454,269.5253173999954,272.0256363999797,272.0604375000112,272.0604375000112,C:\2023\REPSWITCH21092023\REPSWITCH_excgange\REPSWITCH_excgange\data/030102_REPSWITCH1_Fam_2023-11-10_16h39.05.738_micFam_recorded\recording_micFam_2023-11-10_16h43.25.347.wav,272.0604375000112,272.56044119998114,,,,,030102,001,2023-11-10_16h39.05.738,REPSWITCH1_Fam,2022.2.4,143.9760423918443,
REPSWITCH1_Fam/PICTURE_687.png,camisa,0,32,32,28,,,,,,272.56044119998114,273.7898530999664,273.7898530999664,273.7898530999664,273.7898530999664,277.28328219999094,279.78358980000485,279.8183346000151,279.8183346000151,C:\2023\REPSWITCH21092023\REPSWITCH_excgange\REPSWITCH_excgange\data/030102_REPSWITCH1_Fam_2023-11-10_16h39.05.738_micFam_recorded\recording_micFam_2023-11-10_16h43.33.105.wav,279.8183346000151,280.3184023000067,,,,,030102,001,2023-11-10_16h39.05.738,REPSWITCH1_Fam,2022.2.4,143.9760423918443,
REPSWITCH1_Fam/PICTURE_610.png,miel,0,33,33,27,,,,,,280.3184023000067,281.44352430000436,281.44352430000436,281.44352430000436,281.44352430000436,284.9370557999937,287.4373850999982,287.4721164999646,287.4721164999646,C:\2023\REPSWITCH21092023\REPSWITCH_excgange\REPSWITCH_excgange\data/030102_REPSWITCH1_Fam_2023-11-10_16h39.05.738_micFam_recorded\recording_micFam_2023-11-10_16h43.40.759.wav,287.4721164999646,287.9721756000072,,,,,030102,001,2023-11-10_16h39.05.738,REPSWITCH1_Fam,2022.2.4,143.9760423918443,
REPSWITCH1_Fam/PICTURE_320.png,iglesia,0,34,34,16,,,,,,287.9721756000072,289.09730550000677,289.09730550000677,289.09730550000677,289.09730550000677,292.5908147000009,295.09116830001585,295.12592610000866,295.12592610000866,C:\2023\REPSWITCH21092023\REPSWITCH_excgange\REPSWITCH_excgange\data/030102_REPSWITCH1_Fam_2023-11-10_16h39.05.738_micFam_recorded\recording_micFam_2023-11-10_16h43.48.412.wav,295.12592610000866,295.62592869997025,,,,,030102,001,2023-11-10_16h39.05.738,REPSWITCH1_Fam,2022.2.4,143.9760423918443,
REPSWITCH1_Fam/PICTURE_142.png,vaso,0,35,35,2,,,,,,295.62592869997025,296.67471439996734,296.67471439996734,296.67471439996734,296.67471439996734,300.1682039999869,302.6685453999671,302.70331299997633,302.70331299997633,C:\2023\REPSWITCH21092023\REPSWITCH_excgange\REPSWITCH_excgange\data/030102_REPSWITCH1_Fam_2023-11-10_16h39.05.738_micFam_recorded\recording_micFam_2023-11-10_16h43.55.990.wav,302.70331299997633,303.20339939999394,,,,,030102,001,2023-11-10_16h39.05.738,REPSWITCH1_Fam,2022.2.4,143.9760423918443,
REPSWITCH1_Fam/PICTURE_646.png,tronco,0,36,36,42,,,,,,303.20339939999394,304.30765339999925,304.30765339999925,304.30765339999925,304.30765339999925,307.8011543999892,310.30148329999065,310.33618009998463,310.33618009998463,C:\2023\REPSWITCH21092023\REPSWITCH_excgange\REPSWITCH_excgange\data/030102_REPSWITCH1_Fam_2023-11-10_16h39.05.738_micFam_recorded\recording_micFam_2023-11-10_16h44.03.624.wav,310.33618009998463,310.83628099999623,,,,,030102,001,2023-11-10_16h39.05.738,REPSWITCH1_Fam,2022.2.4,143.9760423918443,
REPSWITCH1_Fam/PICTURE_663.png,columna,0,37,37,43,,,,,,310.83628099999623,311.8572572999983,311.8572572999983,311.8572572999983,311.8572572999983,315.3507565999753,317.851123099972,317.8857943000039,317.8857943000039,C:\2023\REPSWITCH21092023\REPSWITCH_excgange\REPSWITCH_excgange\data/030102_REPSWITCH1_Fam_2023-11-10_16h39.05.738_micFam_recorded\recording_micFam_2023-11-10_16h44.11.172.wav,317.8857943000039,318.38584000000264,,,,,030102,001,2023-11-10_16h39.05.738,REPSWITCH1_Fam,2022.2.4,143.9760423918443,
REPSWITCH1_Fam/PICTURE_264.png,mano,0,38,38,12,,,,,,318.38584000000264,319.5735921000014,319.5735921000014,319.5735921000014,319.5735921000014,323.0671158999903,325.5673740999773,325.60210979997646,325.60210979997646,C:\2023\REPSWITCH21092023\REPSWITCH_excgange\REPSWITCH_excgange\data/030102_REPSWITCH1_Fam_2023-11-10_16h39.05.738_micFam_recorded\recording_micFam_2023-11-10_16h44.18.889.wav,325.60210979997646,326.10224179999204,,,,,030102,001,2023-11-10_16h39.05.738,REPSWITCH1_Fam,2022.2.4,143.9760423918443,
REPSWITCH1_Fam/PICTURE_135.png,traje,0,39,39,1,,,,,,326.10224179999204,327.26213129999815,327.26213129999815,327.26213129999815,327.26213129999815,330.7555552999838,333.255865300016,333.2906818999909,333.2906818999909,C:\2023\REPSWITCH21092023\REPSWITCH_excgange\REPSWITCH_excgange\data/030102_REPSWITCH1_Fam_2023-11-10_16h39.05.738_micFam_recorded\recording_micFam_2023-11-10_16h44.26.577.wav,333.2906818999909,333.7906520999968,,,,,030102,001,2023-11-10_16h39.05.738,REPSWITCH1_Fam,2022.2.4,143.9760423918443,
REPSWITCH1_Fam/PICTURE_199.png,falda,0,40,40,9,,,,,,333.7906520999968,334.7977563999593,334.7977563999593,334.7977563999593,334.7977563999593,338.29124960000627,340.79160539997974,340.8263084999635,340.8263084999635,C:\2023\REPSWITCH21092023\REPSWITCH_excgange\REPSWITCH_excgange\data/030102_REPSWITCH1_Fam_2023-11-10_16h39.05.738_micFam_recorded\recording_micFam_2023-11-10_16h44.34.114.wav,340.8263084999635,341.3263883999898,,,,,030102,001,2023-11-10_16h39.05.738,REPSWITCH1_Fam,2022.2.4,143.9760423918443,
REPSWITCH1_Fam/PICTURE_517.png,cuerda,0,41,41,24,,,,,,341.3263883999898,342.43070099997567,342.43070099997567,342.43070099997567,342.43070099997567,345.924207700009,348.42460520000895,348.4593302999856,348.4593302999856,C:\2023\REPSWITCH21092023\REPSWITCH_excgange\REPSWITCH_excgange\data/030102_REPSWITCH1_Fam_2023-11-10_16h39.05.738_micFam_recorded\recording_micFam_2023-11-10_16h44.41.747.wav,348.4593302999856,348.9593312999932,,,,,030102,001,2023-11-10_16h39.05.738,REPSWITCH1_Fam,2022.2.4,143.9760423918443,
REPSWITCH1_Fam/PICTURE_242.png,cartero,0,42,42,11,,,,,,348.9593312999932,350.02194820001023,350.02194820001023,350.02194820001023,350.02194820001023,353.5154482999933,356.01578299998073,356.0505443000002,356.0505443000002,C:\2023\REPSWITCH21092023\REPSWITCH_excgange\REPSWITCH_excgange\data/030102_REPSWITCH1_Fam_2023-11-10_16h39.05.738_micFam_recorded\recording_micFam_2023-11-10_16h44.49.338.wav,356.0505443000002,356.5505613000132,,,,,030102,001,2023-11-10_16h39.05.738,REPSWITCH1_Fam,2022.2.4,143.9760423918443,
REPSWITCH1_Fam/PICTURE_271.png,conejo,0,43,43,13,,,,,,356.5505613000132,357.6549710999825,357.6549710999825,357.6549710999825,357.6549710999825,361.14842310000677,363.6488188999938,363.68347310001263,363.68347310001263,C:\2023\REPSWITCH21092023\REPSWITCH_excgange\REPSWITCH_excgange\data/030102_REPSWITCH1_Fam_2023-11-10_16h39.05.738_micFam_recorded\recording_micFam_2023-11-10_16h44.56.971.wav,363.68347310001263,364.1835434999666,,,,,030102,001,2023-11-10_16h39.05.738,REPSWITCH1_Fam,2022.2.4,143.9760423918443,
REPSWITCH1_Fam/PICTURE_498.png,taza,0,44,44,23,,,,,,364.1835434999666,365.3295999999973,365.3295999999973,365.3295999999973,365.3295999999973,368.8230418000021,371.32335809996584,371.3580970999901,371.3580970999901,C:\2023\REPSWITCH21092023\REPSWITCH_excgange\REPSWITCH_excgange\data/030102_REPSWITCH1_Fam_2023-11-10_16h39.05.738_micFam_recorded\recording_micFam_2023-11-10_16h45.04.645.wav,371.3580970999901,371.8581581999897,,,,,030102,001,2023-11-10_16h39.05.738,REPSWITCH1_Fam,2022.2.4,143.9760423918443,
,,,,,,,,,,,,,,,,,,,,,,,371.8581581999897,371.8581581999897,space,3.7342181999702007,030102,001,2023-11-10_16h39.05.738,REPSWITCH1_Fam,2022.2.4,143.9760423918443,
