image;correctAns;respModal;frameColor;repSwitch;sequence;target;set;block;list;exp_version;stimulus;baseline;baseline_condition;trial_no;psychopy_trial;Column1;trialsREPSWITCH.thisRepN;trialsREPSWITCH.thisTrialN;trialsREPSWITCH.thisN;trialsREPSWITCH.thisIndex;textWelcome.started;textboxInstrMain1.started;textboxInstrMain1_2.started;textboxInstrMain1_3.started;keyInstrMain.started;keyInstrMain.keys;keyInstrMain.rt;textboxInstrMain2.started;textboxInstrMain2_2.started;textboxInstrMain2_3.started;textboxInstrMain2_4.started;textboxInstrMain2_5.started;textboxInstrMain2_6.started;textboxInstrMain2_7.started;textboxInstrMain2_8.started;textboxInstrMain2_9.started;textboxInstrMain2_10.started;textboxInstrMain2_11.started;textboxInstrMain2_12.started;keyInstrMain2.started;keyInstrMain2.keys;keyInstrMain2.rt;fixationITI.started;fixationITI.stopped;polygonColour.started;polygonWhite.started;imageObject.started;polygonType.started;textInput.started;keyResp.started;micRespv1l3.started;keyResp.keys;keyResp.corr;keyResp.rt;subjResponse;micRespv1l3.clip;textBlankLoop.started;textBlankLoop.stopped;keyPause.keys;polygonColour.stopped;polygonWhite.stopped;imageObject.stopped;polygonType.stopped;textInput.stopped;keyResp.stopped;textboxPause.started;keyPause.started;keyPause.rt;textboxGoodbye.started;textboxGoodbye.stopped;participant;session;date;expName;psychopyVersion;frameRate;Column2
;;;;;;;;;;;;;;;;;;;;;10.211243099998683;12.709761900012381;12.709761900012381;12.709761900012381;12.709761900012381;space;2.6727399000665173;;;;;;;;;;;;;;;;;;;;;;;;;;;;;;;;;;;;;;;;;;;;050103;001;2023-11-16_13h44.09.201;REPSWITCH1_version1_list3;2022.2.4;143.94806357219196;
;;;;;;;;;;;;;;;;;;;;;;;;;;;;15.397540399921127;15.397540399921127;15.397540399921127;15.397540399921127;15.397540399921127;15.397540399921127;15.397540399921127;15.397540399921127;15.397540399921127;15.397540399921127;15.397540399921127;15.397540399921127;15.397540399921127;space;1.9444849999854341;;;;;;;;;;;;;;;;;;;;;;;;;;;;;050103;001;2023-11-16_13h44.09.201;REPSWITCH1_version1_list3;2022.2.4;143.94806357219196;
REPSWITCH1/PICTURE_663.png;columna;type;darkblue;filler;1;F;1;2;3;1;Extra6;0;None;1;0;1;0;0;0;0;;;;;;;;;;;;;;;;;;;;;;;17.432541199959815;18.536870099953376;18.536870099953376;18.536870099953376;18.536870099953376;18.536870099953376;18.536870099953376;18.536870099953376;18.536870099953376;['c', 'o', 'l', 'u', 'm', 'n', 'a'];0;[1.2833244999637827, 1.3792817000066862, 1.5517119000433013, 1.7673164999578148, 1.9819388999603689, 2.1618355000391603, 2.293399899965152];columna;C:\2023\REPSWITCH21092023\REPSWITCH_excgange\REPSWITCH_excgange\data/050103_REPSWITCH1_version1_list3_2023-11-16_13h44.09.201_micRespv1l3_recorded\recording_micRespv1l3_2023-11-16_13h44.22.409.wav;21.558060799958184;22.05812049994711;None;;;;;;;;;;;;050103;001;2023-11-16_13h44.09.201;REPSWITCH1_version1_list3;2022.2.4;143.94806357219196;
REPSWITCH1/PICTURE_128.png;muñeca;speak;gold;nontarget;2;NT;1;2;3;1;Stim4_Set1;1;switch;2;1;2;0;1;1;1;;;;;;;;;;;;;;;;;;;;;;;22.05812049994711;23.16941859992221;23.16941859992221;23.16941859992221;23.16941859992221;23.16941859992221;23.16941859992221;23.16941859992221;23.16941859992221;None;0;;;C:\2023\REPSWITCH21092023\REPSWITCH_excgange\REPSWITCH_excgange\data/050103_REPSWITCH1_version1_list3_2023-11-16_13h44.09.201_micRespv1l3_recorded\recording_micRespv1l3_2023-11-16_13h44.27.046.wav;26.19758259993978;;None;26.19758259993978;26.19758259993978;26.19758259993978;26.19758259993978;26.19758259993978;26.19758259993978;;;;;;050103;001;2023-11-16_13h44.09.201;REPSWITCH1_version1_list3;2022.2.4;143.94806357219196;
REPSWITCH1/PICTURE_128.png;muñeca;speak;gold;repeat;2;T;1;2;3;1;Stim4_Set1;0;None;3;2;3;0;2;2;2;;;;;;;;;;;;;;;;;;;;;;;26.697639900026843;27.774170399992727;27.774170399992727;27.774170399992727;27.774170399992727;27.774170399992727;27.774170399992727;27.774170399992727;27.774170399992727;None;0;;;C:\2023\REPSWITCH21092023\REPSWITCH_excgange\REPSWITCH_excgange\data/050103_REPSWITCH1_version1_list3_2023-11-16_13h44.09.201_micRespv1l3_recorded\recording_micRespv1l3_2023-11-16_13h44.31.651.wav;30.79542149999179;31.295463199960068;None;30.79542149999179;30.79542149999179;30.79542149999179;30.79542149999179;30.79542149999179;30.79542149999179;;;;;;050103;001;2023-11-16_13h44.09.201;REPSWITCH1_version1_list3;2022.2.4;143.94806357219196;
REPSWITCH1/PICTURE_8.png;pierna;type;darkblue;filler;1;F;1;2;3;1;Stim3_Set4;0;None;4;3;4;0;3;3;3;;;;;;;;;;;;;;;;;;;;;;;31.295463199960068;32.413673399947584;32.413673399947584;32.413673399947584;32.413673399947584;32.413673399947584;32.413673399947584;32.413673399947584;32.413673399947584;['p', 'i', 'e', 'r', 'n', 'a'];0;[0.8611621999880299, 1.0625602999934927, 1.2240124000236392, 1.3566528999945149, 1.644760400056839, 1.7865516000892967];pierna;C:\2023\REPSWITCH21092023\REPSWITCH_excgange\REPSWITCH_excgange\data/050103_REPSWITCH1_version1_list3_2023-11-16_13h44.09.201_micRespv1l3_recorded\recording_micRespv1l3_2023-11-16_13h44.36.290.wav;35.434855700004846;35.93495579995215;None;35.434855700004846;35.434855700004846;35.434855700004846;35.434855700004846;35.434855700004846;35.434855700004846;;;;;;050103;001;2023-11-16_13h44.09.201;REPSWITCH1_version1_list3;2022.2.4;143.94806357219196;
REPSWITCH1/PICTURE_135.png;traje;speak;gold;nontarget;2;NT;1;2;3;1;Stim3_Set1;1;switch;5;4;5;0;4;4;4;;;;;;;;;;;;;;;;;;;;;;;35.93495579995215;36.98379440000281;36.98379440000281;36.98379440000281;36.98379440000281;36.98379440000281;36.98379440000281;36.98379440000281;36.98379440000281;None;0;;;C:\2023\REPSWITCH21092023\REPSWITCH_excgange\REPSWITCH_excgange\data/050103_REPSWITCH1_version1_list3_2023-11-16_13h44.09.201_micRespv1l3_recorded\recording_micRespv1l3_2023-11-16_13h44.40.861.wav;40.01190569996834;;None;40.01190569996834;40.01190569996834;40.01190569996834;40.01190569996834;40.01190569996834;40.01190569996834;;;;;;050103;001;2023-11-16_13h44.09.201;REPSWITCH1_version1_list3;2022.2.4;143.94806357219196;
REPSWITCH1/PICTURE_135.png;traje;speak;gold;repeat;2;T;1;2;3;1;Stim3_Set1;0;None;6;5;6;0;5;5;5;;;;;;;;;;;;;;;;;;;;;;;40.5119383999845;41.6718195999274;41.6718195999274;41.6718195999274;41.6718195999274;41.6718195999274;41.6718195999274;41.6718195999274;41.6718195999274;None;0;;;C:\2023\REPSWITCH21092023\REPSWITCH_excgange\REPSWITCH_excgange\data/050103_REPSWITCH1_version1_list3_2023-11-16_13h44.09.201_micRespv1l3_recorded\recording_micRespv1l3_2023-11-16_13h44.45.548.wav;44.69301869999617;45.19308460003231;None;44.69301869999617;44.69301869999617;44.69301869999617;44.69301869999617;44.69301869999617;44.69301869999617;;;;;;050103;001;2023-11-16_13h44.09.201;REPSWITCH1_version1_list3;2022.2.4;143.94806357219196;
REPSWITCH1/PICTURE_673.png;tenedor;type;darkblue;filler;1;F;1;2;3;1;Extra5;0;None;7;6;7;0;6;6;6;;;;;;;;;;;;;;;;;;;;;;;45.19308460003231;46.325205000001006;46.325205000001006;46.325205000001006;46.325205000001006;46.325205000001006;46.325205000001006;46.325205000001006;46.325205000001006;['t', 'e', 'n', 'e', 'd', 'r', 'backspace', 'o', 'r'];0;[0.8955286999698728, 0.9972138999728486, 1.1427144999615848, 1.2583435999695212, 1.4906475000316277, 1.7598577999742702, 2.230800800025463, 2.7065266999416053, 2.840371900005266];tenedor;C:\2023\REPSWITCH21092023\REPSWITCH_excgange\REPSWITCH_excgange\data/050103_REPSWITCH1_version1_list3_2023-11-16_13h44.09.201_micRespv1l3_recorded\recording_micRespv1l3_2023-11-16_13h44.50.202.wav;49.35337949998211;;None;49.35337949998211;49.35337949998211;49.35337949998211;49.35337949998211;49.35337949998211;49.35337949998211;;;;;;050103;001;2023-11-16_13h44.09.201;REPSWITCH1_version1_list3;2022.2.4;143.94806357219196;
REPSWITCH1/PICTURE_728.png;pulpo;speak;gold;filler;2;F;1;2;3;1;Stim8_Set4;0;None;8;7;8;0;7;7;7;;;;;;;;;;;;;;;;;;;;;;;49.853444800013676;50.91608220001217;50.91608220001217;50.91608220001217;50.91608220001217;50.91608220001217;50.91608220001217;50.91608220001217;50.91608220001217;None;0;;;C:\2023\REPSWITCH21092023\REPSWITCH_excgange\REPSWITCH_excgange\data/050103_REPSWITCH1_version1_list3_2023-11-16_13h44.09.201_micRespv1l3_recorded\recording_micRespv1l3_2023-11-16_13h44.54.793.wav;53.94425269996282;;None;53.94425269996282;53.94425269996282;53.94425269996282;53.94425269996282;53.94425269996282;53.94425269996282;;;;;;050103;001;2023-11-16_13h44.09.201;REPSWITCH1_version1_list3;2022.2.4;143.94806357219196;
REPSWITCH1/PICTURE_16.png;cazador;speak;gold;nontarget;2;NT;1;2;3;1;Stim6_Set1;1;repeat;9;8;9;0;8;8;8;;;;;;;;;;;;;;;;;;;;;;;54.44431990000885;55.611158499959856;55.611158499959856;55.611158499959856;55.611158499959856;55.611158499959856;55.611158499959856;55.611158499959856;55.611158499959856;None;0;;;C:\2023\REPSWITCH21092023\REPSWITCH_excgange\REPSWITCH_excgange\data/050103_REPSWITCH1_version1_list3_2023-11-16_13h44.09.201_micRespv1l3_recorded\recording_micRespv1l3_2023-11-16_13h44.59.489.wav;58.63931869994849;59.13940560002811;None;58.63931869994849;58.63931869994849;58.63931869994849;58.63931869994849;58.63931869994849;58.63931869994849;;;;;;050103;001;2023-11-16_13h44.09.201;REPSWITCH1_version1_list3;2022.2.4;143.94806357219196;
REPSWITCH1/PICTURE_16.png;cazador;type;darkblue;switch;1;T;1;2;3;1;Stim6_Set1;0;None;10;9;10;0;9;9;9;;;;;;;;;;;;;;;;;;;;;;;59.13940560002811;60.24371569999494;60.24371569999494;60.24371569999494;60.24371569999494;60.24371569999494;60.24371569999494;60.24371569999494;60.24371569999494;['c', 'a', 'z', 'a', 'd', 'o', 'r'];0;[0.7643364999676123, 0.8760426000226289, 1.1580678999889642, 1.3065188999753445, 1.5996440999442711, 1.7745770999463275, 1.9311851999955252];cazador;C:\2023\REPSWITCH21092023\REPSWITCH_excgange\REPSWITCH_excgange\data/050103_REPSWITCH1_version1_list3_2023-11-16_13h44.09.201_micRespv1l3_recorded\recording_micRespv1l3_2023-11-16_13h45.04.121.wav;63.264895600033924;63.76497529994231;None;63.264895600033924;63.264895600033924;63.264895600033924;63.264895600033924;63.264895600033924;63.264895600033924;;;;;;050103;001;2023-11-16_13h44.09.201;REPSWITCH1_version1_list3;2022.2.4;143.94806357219196;
REPSWITCH1/PICTURE_498.png;taza;type;darkblue;filler;1;F;1;2;3;1;Stim4_Set4;1;repeat;11;10;11;0;10;10;10;;;;;;;;;;;;;;;;;;;;;;;63.76497529994231;64.82763309997972;64.82763309997972;64.82763309997972;64.82763309997972;64.82763309997972;64.82763309997972;64.82763309997972;64.82763309997972;['t', 'a', 'z', 'a'];0;[0.9658378000603989, 1.0774348999839276, 1.2941098000155762, 1.481482999981381];taza;C:\2023\REPSWITCH21092023\REPSWITCH_excgange\REPSWITCH_excgange\data/050103_REPSWITCH1_version1_list3_2023-11-16_13h44.09.201_micRespv1l3_recorded\recording_micRespv1l3_2023-11-16_13h45.08.704.wav;67.84882449998986;68.34891149995383;None;67.84882449998986;67.84882449998986;67.84882449998986;67.84882449998986;67.84882449998986;67.84882449998986;;;;;;050103;001;2023-11-16_13h44.09.201;REPSWITCH1_version1_list3;2022.2.4;143.94806357219196;
REPSWITCH1/PICTURE_381.png;fresa;type;darkblue;nontarget;1;NT;1;2;3;1;Stim2_Set1;1;repeat;12;11;12;0;11;11;11;;;;;;;;;;;;;;;;;;;;;;;68.34891149995383;69.37686189997476;69.37686189997476;69.37686189997476;69.37686189997476;69.37686189997476;69.37686189997476;69.37686189997476;69.37686189997476;['f', 'r', 'e', 's', 'a'];0;[0.9296039000619203, 1.089127500075847, 1.213828600011766, 1.3985015000216663, 1.6044671999989077];fresa;C:\2023\REPSWITCH21092023\REPSWITCH_excgange\REPSWITCH_excgange\data/050103_REPSWITCH1_version1_list3_2023-11-16_13h44.09.201_micRespv1l3_recorded\recording_micRespv1l3_2023-11-16_13h45.13.254.wav;72.40504799992777;;None;72.40504799992777;72.40504799992777;72.40504799992777;72.40504799992777;72.40504799992777;72.40504799992777;;;;;;050103;001;2023-11-16_13h44.09.201;REPSWITCH1_version1_list3;2022.2.4;143.94806357219196;
REPSWITCH1/PICTURE_381.png;fresa;speak;gold;switch;2;T;1;2;3;1;Stim2_Set1;0;None;13;12;13;0;12;12;12;;;;;;;;;;;;;;;;;;;;;;;72.90502770000603;74.09269560000394;74.09269560000394;74.09269560000394;74.09269560000394;74.09269560000394;74.09269560000394;74.09269560000394;74.09269560000394;None;0;;;C:\2023\REPSWITCH21092023\REPSWITCH_excgange\REPSWITCH_excgange\data/050103_REPSWITCH1_version1_list3_2023-11-16_13h44.09.201_micRespv1l3_recorded\recording_micRespv1l3_2023-11-16_13h45.17.970.wav;77.12088800000492;;None;77.12088800000492;77.12088800000492;77.12088800000492;77.12088800000492;77.12088800000492;77.12088800000492;;;;;;050103;001;2023-11-16_13h44.09.201;REPSWITCH1_version1_list3;2022.2.4;143.94806357219196;
REPSWITCH1/PICTURE_178.png;puente;speak;gold;nontarget;2;NT;1;2;3;1;Stim1_Set1;0;None;14;13;14;0;13;13;13;;;;;;;;;;;;;;;;;;;;;;;77.6209547999315;78.72525349992793;78.72525349992793;78.72525349992793;78.72525349992793;78.72525349992793;78.72525349992793;78.72525349992793;78.72525349992793;None;0;;;C:\2023\REPSWITCH21092023\REPSWITCH_excgange\REPSWITCH_excgange\data/050103_REPSWITCH1_version1_list3_2023-11-16_13h44.09.201_micRespv1l3_recorded\recording_micRespv1l3_2023-11-16_13h45.22.601.wav;81.75345209997613;;None;81.75345209997613;81.75345209997613;81.75345209997613;81.75345209997613;81.75345209997613;81.75345209997613;;;;;;050103;001;2023-11-16_13h44.09.201;REPSWITCH1_version1_list3;2022.2.4;143.94806357219196;
REPSWITCH1/PICTURE_178.png;puente;type;darkblue;switch;1;T;1;2;3;1;Stim1_Set1;0;None;15;14;15;0;14;14;14;;;;;;;;;;;;;;;;;;;;;;;82.2535016000038;83.36479759996291;83.36479759996291;83.36479759996291;83.36479759996291;83.36479759996291;83.36479759996291;83.36479759996291;83.36479759996291;['p', 'u', 'e', 'n', 't', 'e'];0;[0.771219199988991, 0.9887968000257388, 1.1435890999855474, 2.0505461000138894, 2.2289343000156805, 2.357515100040473];puente;C:\2023\REPSWITCH21092023\REPSWITCH_excgange\REPSWITCH_excgange\data/050103_REPSWITCH1_version1_list3_2023-11-16_13h44.09.201_micRespv1l3_recorded\recording_micRespv1l3_2023-11-16_13h45.27.241.wav;86.38595769996755;86.88602969993372;None;86.38595769996755;86.38595769996755;86.38595769996755;86.38595769996755;86.38595769996755;86.38595769996755;;;;;;050103;001;2023-11-16_13h44.09.201;REPSWITCH1_version1_list3;2022.2.4;143.94806357219196;
REPSWITCH1/PICTURE_719.png;baño;speak;gold;filler;2;F;1;2;3;1;Stim2_Set4;0;None;16;15;16;0;15;15;15;;;;;;;;;;;;;;;;;;;;;;;86.88602969993372;88.09455009992234;88.09455009992234;88.09455009992234;88.09455009992234;88.09455009992234;88.09455009992234;88.09455009992234;88.09455009992234;['b'];0;[1.3021810000063851];b;C:\2023\REPSWITCH21092023\REPSWITCH_excgange\REPSWITCH_excgange\data/050103_REPSWITCH1_version1_list3_2023-11-16_13h44.09.201_micRespv1l3_recorded\recording_micRespv1l3_2023-11-16_13h45.31.972.wav;91.12270870001521;;None;91.12270870001521;91.12270870001521;91.12270870001521;91.12270870001521;91.12270870001521;91.12270870001521;;;;;;050103;001;2023-11-16_13h44.09.201;REPSWITCH1_version1_list3;2022.2.4;143.94806357219196;
REPSWITCH1/PICTURE_169.png;espalda;type;darkblue;nontarget;1;NT;1;2;3;1;Stim8_Set1;1;switch;17;16;17;0;16;16;16;;;;;;;;;;;;;;;;;;;;;;;91.6227906999411;92.69935919996351;92.69935919996351;92.69935919996351;92.69935919996351;92.69935919996351;92.69935919996351;92.69935919996351;92.69935919996351;['e', 's', 'p', 'a', 'l', 'd', 'a'];0;[1.2519123000092804, 1.4684262999799103, 1.6099514999659732, 1.773409300018102, 1.879054700024426, 2.152716499986127, 2.2723513999953866];espalda;C:\2023\REPSWITCH21092023\REPSWITCH_excgange\REPSWITCH_excgange\data/050103_REPSWITCH1_version1_list3_2023-11-16_13h44.09.201_micRespv1l3_recorded\recording_micRespv1l3_2023-11-16_13h45.36.576.wav;95.72747659997549;;None;95.72747659997549;95.72747659997549;95.72747659997549;95.72747659997549;95.72747659997549;95.72747659997549;;;;;;050103;001;2023-11-16_13h44.09.201;REPSWITCH1_version1_list3;2022.2.4;143.94806357219196;
REPSWITCH1/PICTURE_169.png;espalda;type;darkblue;repeat;1;T;1;2;3;1;Stim8_Set1;0;None;18;17;18;0;17;17;17;;;;;;;;;;;;;;;;;;;;;;;96.22755299997516;97.31804049992934;97.31804049992934;97.31804049992934;97.31804049992934;97.31804049992934;97.31804049992934;97.31804049992934;97.31804049992934;['e', 's', 'p', 'a', 'l', 'd', 'a'];0;[1.3821008000522852, 1.5997357000596821, 1.748953300062567, 1.9609774000709876, 2.134397500078194, 2.485551599995233, 2.590723400004208];espalda;C:\2023\REPSWITCH21092023\REPSWITCH_excgange\REPSWITCH_excgange\data/050103_REPSWITCH1_version1_list3_2023-11-16_13h44.09.201_micRespv1l3_recorded\recording_micRespv1l3_2023-11-16_13h45.41.195.wav;100.34611689997837;;None;100.34611689997837;100.34611689997837;100.34611689997837;100.34611689997837;100.34611689997837;100.34611689997837;;;;;;050103;001;2023-11-16_13h44.09.201;REPSWITCH1_version1_list3;2022.2.4;143.94806357219196;
REPSWITCH1/PICTURE_48.png;bombero;speak;gold;filler;2;F;1;2;3;1;Stim7_Set4;1;switch;19;18;19;0;18;18;18;;;;;;;;;;;;;;;;;;;;;;;100.84618569992017;101.95752940000966;101.95752940000966;101.95752940000966;101.95752940000966;101.95752940000966;101.95752940000966;101.95752940000966;101.95752940000966;None;0;;;C:\2023\REPSWITCH21092023\REPSWITCH_excgange\REPSWITCH_excgange\data/050103_REPSWITCH1_version1_list3_2023-11-16_13h44.09.201_micRespv1l3_recorded\recording_micRespv1l3_2023-11-16_13h45.45.835.wav;104.98564780002926;;None;104.98564780002926;104.98564780002926;104.98564780002926;104.98564780002926;104.98564780002926;104.98564780002926;;;;;;050103;001;2023-11-16_13h44.09.201;REPSWITCH1_version1_list3;2022.2.4;143.94806357219196;
REPSWITCH1/PICTURE_19.png;pavo;type;darkblue;nontarget;1;NT;1;2;3;1;Stim5_Set1;1;switch;20;19;20;0;19;19;19;;;;;;;;;;;;;;;;;;;;;;;105.48569899995346;106.49971150001511;106.49971150001511;106.49971150001511;106.49971150001511;106.49971150001511;106.49971150001511;106.49971150001511;106.49971150001511;['p', 'a', 'v', 'o'];0;[1.2508014999330044, 1.3699499999638647, 1.6709769999142736, 1.7736296999501064];pavo;C:\2023\REPSWITCH21092023\REPSWITCH_excgange\REPSWITCH_excgange\data/050103_REPSWITCH1_version1_list3_2023-11-16_13h44.09.201_micRespv1l3_recorded\recording_micRespv1l3_2023-11-16_13h45.50.377.wav;109.52790819993243;;None;109.52790819993243;109.52790819993243;109.52790819993243;109.52790819993243;109.52790819993243;109.52790819993243;;;;;;050103;001;2023-11-16_13h44.09.201;REPSWITCH1_version1_list3;2022.2.4;143.94806357219196;
REPSWITCH1/PICTURE_19.png;pavo;type;darkblue;repeat;1;T;1;2;3;1;Stim5_Set1;0;None;21;20;21;0;20;20;20;;;;;;;;;;;;;;;;;;;;;;;110.02801969996653;111.20171029993799;111.20171029993799;111.20171029993799;111.20171029993799;111.20171029993799;111.20171029993799;111.20171029993799;111.20171029993799;['p', 'a', 'v', 'o'];0;[0.9815419000806287, 1.1081759000662714, 1.3538502000737935, 1.48541630001273];pavo;C:\2023\REPSWITCH21092023\REPSWITCH_excgange\REPSWITCH_excgange\data/050103_REPSWITCH1_version1_list3_2023-11-16_13h44.09.201_micRespv1l3_recorded\recording_micRespv1l3_2023-11-16_13h45.55.079.wav;114.22990649996791;;None;114.22990649996791;114.22990649996791;114.22990649996791;114.22990649996791;114.22990649996791;114.22990649996791;;;;;;050103;001;2023-11-16_13h44.09.201;REPSWITCH1_version1_list3;2022.2.4;143.94806357219196;
REPSWITCH1/PICTURE_319.png;vaca;speak;gold;filler;2;F;1;2;3;1;Stim1_Set4;0;None;22;21;22;0;21;21;21;;;;;;;;;;;;;;;;;;;;;;;114.72995589999482;115.85513069992885;115.85513069992885;115.85513069992885;115.85513069992885;115.85513069992885;115.85513069992885;115.85513069992885;115.85513069992885;None;0;;;C:\2023\REPSWITCH21092023\REPSWITCH_excgange\REPSWITCH_excgange\data/050103_REPSWITCH1_version1_list3_2023-11-16_13h44.09.201_micRespv1l3_recorded\recording_micRespv1l3_2023-11-16_13h45.59.732.wav;118.8832944999449;;None;118.8832944999449;118.8832944999449;118.8832944999449;118.8832944999449;118.8832944999449;118.8832944999449;;;;;;050103;001;2023-11-16_13h44.09.201;REPSWITCH1_version1_list3;2022.2.4;143.94806357219196;
REPSWITCH1/PICTURE_338.png;regalo;type;darkblue;filler;1;F;1;2;3;1;Stim6_Set4;0;None;23;22;23;0;22;22;22;;;;;;;;;;;;;;;;;;;;;;;119.38335699995514;120.42522540001664;120.42522540001664;120.42522540001664;120.42522540001664;120.42522540001664;120.42522540001664;120.42522540001664;120.42522540001664;['r', 'e', 'g', 'a', 'l', 'o'];0;[0.8869105998892337, 0.9955563999246806, 1.243664599955082, 1.3912004999583587, 1.5686896999832243, 1.7999614999862388];regalo;C:\2023\REPSWITCH21092023\REPSWITCH_excgange\REPSWITCH_excgange\data/050103_REPSWITCH1_version1_list3_2023-11-16_13h44.09.201_micRespv1l3_recorded\recording_micRespv1l3_2023-11-16_13h46.04.301.wav;123.4534087999491;;None;123.4534087999491;123.4534087999491;123.4534087999491;123.4534087999491;123.4534087999491;123.4534087999491;;;;;;050103;001;2023-11-16_13h44.09.201;REPSWITCH1_version1_list3;2022.2.4;143.94806357219196;
REPSWITCH1/PICTURE_142.png;vaso;type;darkblue;nontarget;1;NT;1;2;3;1;Stim7_Set1;0;None;24;23;24;0;23;23;23;;;;;;;;;;;;;;;;;;;;;;;123.9534669999266;125.07157729996834;125.07157729996834;125.07157729996834;125.07157729996834;125.07157729996834;125.07157729996834;125.07157729996834;125.07157729996834;['v', 'a', 's', 'o'];0;[1.5079821000108495, 1.6335624000057578, 1.849764300044626, 2.0052421999862418];vaso;C:\2023\REPSWITCH21092023\REPSWITCH_excgange\REPSWITCH_excgange\data/050103_REPSWITCH1_version1_list3_2023-11-16_13h44.09.201_micRespv1l3_recorded\recording_micRespv1l3_2023-11-16_13h46.08.949.wav;128.09283219999634;128.59289430000354;None;128.09283219999634;128.09283219999634;128.09283219999634;128.09283219999634;128.09283219999634;128.09283219999634;;;;;;050103;001;2023-11-16_13h44.09.201;REPSWITCH1_version1_list3;2022.2.4;143.94806357219196;
REPSWITCH1/PICTURE_142.png;vaso;speak;gold;switch;2;T;1;2;3;1;Stim7_Set1;0;None;25;24;25;0;24;24;24;;;;;;;;;;;;;;;;;;;;;;;128.59289430000354;129.7458207999589;129.7458207999589;129.7458207999589;129.7458207999589;129.7458207999589;129.7458207999589;129.7458207999589;129.7458207999589;None;0;;;C:\2023\REPSWITCH21092023\REPSWITCH_excgange\REPSWITCH_excgange\data/050103_REPSWITCH1_version1_list3_2023-11-16_13h44.09.201_micRespv1l3_recorded\recording_micRespv1l3_2023-11-16_13h46.13.623.wav;132.7739599000197;;None;132.7739599000197;132.7739599000197;132.7739599000197;132.7739599000197;132.7739599000197;132.7739599000197;;;;;;050103;001;2023-11-16_13h44.09.201;REPSWITCH1_version1_list3;2022.2.4;143.94806357219196;
REPSWITCH1/PICTURE_687.png;camisa;type;darkblue;filler;1;F;1;2;3;1;Stim5_Set4;1;switch;26;25;26;0;25;25;25;;;;;;;;;;;;;;;;;;;;;;;133.27402150002308;134.37836119998246;134.37836119998246;134.37836119998246;134.37836119998246;134.37836119998246;134.37836119998246;134.37836119998246;134.37836119998246;['c', 'a', 'm', 's', 'backspace', 'i', 's', 'a'];0;[1.1314618000760674, 1.243086599977687, 1.408543900004588, 1.648479099967517, 2.2290458000497892, 2.628799100057222, 2.716464600060135, 2.901245800079778];camisa;C:\2023\REPSWITCH21092023\REPSWITCH_excgange\REPSWITCH_excgange\data/050103_REPSWITCH1_version1_list3_2023-11-16_13h44.09.201_micRespv1l3_recorded\recording_micRespv1l3_2023-11-16_13h46.18.255.wav;137.4065386999864;;None;137.4065386999864;137.4065386999864;137.4065386999864;137.4065386999864;137.4065386999864;137.4065386999864;;;;;;050103;001;2023-11-16_13h44.09.201;REPSWITCH1_version1_list3;2022.2.4;143.94806357219196;
REPSWITCH1/PICTURE_30.png;granja;type;darkblue;nontarget;1;NT;2;2;3;1;Stim5_Set2;0;None;27;26;27;0;26;26;26;;;;;;;;;;;;;;;;;;;;;;;137.90659429994412;139.031764299958;139.031764299958;139.031764299958;139.031764299958;139.031764299958;139.031764299958;139.031764299958;139.031764299958;['g', 'r', 'a', 'n', 'j', 'a'];0;[1.323475900106132, 1.4999355000909418, 1.6314410000341013, 1.7590099000371993, 2.15632460010238, 2.2666746000759304];granja;C:\2023\REPSWITCH21092023\REPSWITCH_excgange\REPSWITCH_excgange\data/050103_REPSWITCH1_version1_list3_2023-11-16_13h44.09.201_micRespv1l3_recorded\recording_micRespv1l3_2023-11-16_13h46.22.910.wav;142.05994449998252;142.55996739992406;None;142.05994449998252;142.05994449998252;142.05994449998252;142.05994449998252;142.05994449998252;142.05994449998252;;;;;;050103;001;2023-11-16_13h44.09.201;REPSWITCH1_version1_list3;2022.2.4;143.94806357219196;
REPSWITCH1/PICTURE_30.png;granja;type;darkblue;repeat;1;T;2;2;3;1;Stim5_Set2;0;None;28;27;28;0;27;27;27;;;;;;;;;;;;;;;;;;;;;;;142.55996739992406;143.64343639998697;143.64343639998697;143.64343639998697;143.64343639998697;143.64343639998697;143.64343639998697;143.64343639998697;143.64343639998697;['g', 'r', 'a', 'n', 'j', 'a'];0;[0.88890550006181, 1.0586298999842256, 1.1762233000481501, 1.3048021000577137, 1.6406633000588045, 1.764993599965237];granja;C:\2023\REPSWITCH21092023\REPSWITCH_excgange\REPSWITCH_excgange\data/050103_REPSWITCH1_version1_list3_2023-11-16_13h44.09.201_micRespv1l3_recorded\recording_micRespv1l3_2023-11-16_13h46.27.521.wav;146.6716326000169;147.1717097000219;None;146.6716326000169;146.6716326000169;146.6716326000169;146.6716326000169;146.6716326000169;146.6716326000169;;;;;;050103;001;2023-11-16_13h44.09.201;REPSWITCH1_version1_list3;2022.2.4;143.94806357219196;
REPSWITCH1/PICTURE_128.png;muñeca;speak;gold;filler;2;F;2;2;3;1;Stim4_Set1;0;None;29;28;29;0;28;28;28;;;;;;;;;;;;;;;;;;;;;;;147.1717097000219;148.2621955999639;148.2621955999639;148.2621955999639;148.2621955999639;148.2621955999639;148.2621955999639;148.2621955999639;148.2621955999639;None;0;;;C:\2023\REPSWITCH21092023\REPSWITCH_excgange\REPSWITCH_excgange\data/050103_REPSWITCH1_version1_list3_2023-11-16_13h44.09.201_micRespv1l3_recorded\recording_micRespv1l3_2023-11-16_13h46.32.139.wav;151.29037159995642;151.79036420001648;None;151.29037159995642;151.29037159995642;151.29037159995642;151.29037159995642;151.29037159995642;151.29037159995642;;;;;;050103;001;2023-11-16_13h44.09.201;REPSWITCH1_version1_list3;2022.2.4;143.94806357219196;
REPSWITCH1/PICTURE_264.png;mano;type;darkblue;nontarget;1;NT;2;2;3;1;Stim3_Set2;1;switch;30;29;30;0;29;29;29;;;;;;;;;;;;;;;;;;;;;;;151.79036420001648;152.92946719995234;152.92946719995234;152.92946719995234;152.92946719995234;152.92946719995234;152.92946719995234;152.92946719995234;152.92946719995234;['m', 'a', 'n', 'o'];0;[0.9014546000398695, 1.0250269999960437, 1.1277258000336587, 1.3113924000645056];mano;C:\2023\REPSWITCH21092023\REPSWITCH_excgange\REPSWITCH_excgange\data/050103_REPSWITCH1_version1_list3_2023-11-16_13h44.09.201_micRespv1l3_recorded\recording_micRespv1l3_2023-11-16_13h46.36.806.wav;155.95757400000002;;None;155.95757400000002;155.95757400000002;155.95757400000002;155.95757400000002;155.95757400000002;155.95757400000002;;;;;;050103;001;2023-11-16_13h44.09.201;REPSWITCH1_version1_list3;2022.2.4;143.94806357219196;
REPSWITCH1/PICTURE_264.png;mano;type;darkblue;repeat;1;T;2;2;3;1;Stim3_Set2;0;None;31;30;31;0;30;30;30;;;;;;;;;;;;;;;;;;;;;;;156.45764279994182;157.5549989999272;157.5549989999272;157.5549989999272;157.5549989999272;157.5549989999272;157.5549989999272;157.5549989999272;157.5549989999272;['m', 'a', 'n', 'o'];0;[0.9975014999508858, 1.121073699905537, 1.3014668999239802, 1.4632441999856383];mano;C:\2023\REPSWITCH21092023\REPSWITCH_excgange\REPSWITCH_excgange\data/050103_REPSWITCH1_version1_list3_2023-11-16_13h44.09.201_micRespv1l3_recorded\recording_micRespv1l3_2023-11-16_13h46.41.432.wav;160.58315989992116;;None;160.58315989992116;160.58315989992116;160.58315989992116;160.58315989992116;160.58315989992116;160.58315989992116;;;;;;050103;001;2023-11-16_13h44.09.201;REPSWITCH1_version1_list3;2022.2.4;143.94806357219196;
REPSWITCH1/PICTURE_175.png;pintor;type;darkblue;nontarget;1;NT;2;2;3;1;Stim1_Set2;0;None;32;31;32;0;31;31;31;;;;;;;;;;;;;;;;;;;;;;;161.08331509993877;162.3334138999926;162.3334138999926;162.3334138999926;162.3334138999926;162.3334138999926;162.3334138999926;162.3334138999926;162.3334138999926;['p', 'i', 'n', 't', 'o', 'r'];0;[0.7958746999502182, 0.984593000030145, 1.1590221000369638, 1.3085574000142515, 1.4532404999481514, 1.596828900044784];pintor;C:\2023\REPSWITCH21092023\REPSWITCH_excgange\REPSWITCH_excgange\data/050103_REPSWITCH1_version1_list3_2023-11-16_13h44.09.201_micRespv1l3_recorded\recording_micRespv1l3_2023-11-16_13h46.46.211.wav;165.3615901999874;;None;165.3615901999874;165.3615901999874;165.3615901999874;165.3615901999874;165.3615901999874;165.3615901999874;;;;;;050103;001;2023-11-16_13h44.09.201;REPSWITCH1_version1_list3;2022.2.4;143.94806357219196;
REPSWITCH1/PICTURE_175.png;pintor;speak;gold;switch;2;T;2;2;3;1;Stim1_Set2;0;None;33;32;33;0;32;32;32;;;;;;;;;;;;;;;;;;;;;;;165.86164979997557;166.97992720000912;166.97992720000912;166.97992720000912;166.97992720000912;166.97992720000912;166.97992720000912;166.97992720000912;166.97992720000912;None;0;;;C:\2023\REPSWITCH21092023\REPSWITCH_excgange\REPSWITCH_excgange\data/050103_REPSWITCH1_version1_list3_2023-11-16_13h44.09.201_micRespv1l3_recorded\recording_micRespv1l3_2023-11-16_13h46.50.857.wav;170.00800179992802;;None;170.00800179992802;170.00800179992802;170.00800179992802;170.00800179992802;170.00800179992802;170.00800179992802;;;;;;050103;001;2023-11-16_13h44.09.201;REPSWITCH1_version1_list3;2022.2.4;143.94806357219196;
REPSWITCH1/PICTURE_135.png;traje;speak;gold;filler;2;F;2;2;3;1;Stim3_Set1;1;repeat;34;33;34;0;33;33;33;;;;;;;;;;;;;;;;;;;;;;;170.50805109995417;171.5498744000215;171.5498744000215;171.5498744000215;171.5498744000215;171.5498744000215;171.5498744000215;171.5498744000215;171.5498744000215;None;0;;;C:\2023\REPSWITCH21092023\REPSWITCH_excgange\REPSWITCH_excgange\data/050103_REPSWITCH1_version1_list3_2023-11-16_13h44.09.201_micRespv1l3_recorded\recording_micRespv1l3_2023-11-16_13h46.55.426.wav;174.57804069994017;;None;174.57804069994017;174.57804069994017;174.57804069994017;174.57804069994017;174.57804069994017;174.57804069994017;;;;;;050103;001;2023-11-16_13h44.09.201;REPSWITCH1_version1_list3;2022.2.4;143.94806357219196;
REPSWITCH1/PICTURE_446.png;cerdo;speak;gold;nontarget;2;NT;2;2;3;1;Stim7_Set2;1;repeat;35;34;35;0;34;34;34;;;;;;;;;;;;;;;;;;;;;;;175.07810459996108;176.12687009992078;176.12687009992078;176.12687009992078;176.12687009992078;176.12687009992078;176.12687009992078;176.12687009992078;176.12687009992078;None;0;;;C:\2023\REPSWITCH21092023\REPSWITCH_excgange\REPSWITCH_excgange\data/050103_REPSWITCH1_version1_list3_2023-11-16_13h44.09.201_micRespv1l3_recorded\recording_micRespv1l3_2023-11-16_13h47.00.004.wav;179.15504500002135;179.6550957999425;None;179.15504500002135;179.15504500002135;179.15504500002135;179.15504500002135;179.15504500002135;179.15504500002135;;;;;;050103;001;2023-11-16_13h44.09.201;REPSWITCH1_version1_list3;2022.2.4;143.94806357219196;
REPSWITCH1/PICTURE_446.png;cerdo;type;darkblue;switch;1;T;2;2;3;1;Stim7_Set2;0;None;36;35;36;0;35;35;35;;;;;;;;;;;;;;;;;;;;;;;179.6550957999425;180.77333519991953;180.77333519991953;180.77333519991953;180.77333519991953;180.77333519991953;180.77333519991953;180.77333519991953;180.77333519991953;['c', 'r', 'e', 'd', 'o', 'backspace'];0;[0.8802266999846324, 1.0356932999566197, 1.0805546999908984, 1.318760099937208, 1.488266099942848, 2.8722096999408677];cred;C:\2023\REPSWITCH21092023\REPSWITCH_excgange\REPSWITCH_excgange\data/050103_REPSWITCH1_version1_list3_2023-11-16_13h44.09.201_micRespv1l3_recorded\recording_micRespv1l3_2023-11-16_13h47.04.651.wav;183.801571900025;184.30155740003102;None;183.801571900025;183.801571900025;183.801571900025;183.801571900025;183.801571900025;183.801571900025;;;;;;050103;001;2023-11-16_13h44.09.201;REPSWITCH1_version1_list3;2022.2.4;143.94806357219196;
REPSWITCH1/PICTURE_152.png;caracol;type;darkblue;nontarget;1;NT;2;2;3;1;Stim2_Set2;1;repeat;37;36;37;0;36;36;36;;;;;;;;;;;;;;;;;;;;;;;184.30155740003102;185.38503609993495;185.38503609993495;185.38503609993495;185.38503609993495;185.38503609993495;185.38503609993495;185.38503609993495;185.38503609993495;['c', 'a', 'r', 'a', 'c', 'o', 'l'];0;[1.1118154999567196, 1.2204402999486774, 1.316078299889341, 1.4636274999938905, 1.7317909999983385, 1.8712617999408394, 2.0556476999772713];caracol;C:\2023\REPSWITCH21092023\REPSWITCH_excgange\REPSWITCH_excgange\data/050103_REPSWITCH1_version1_list3_2023-11-16_13h44.09.201_micRespv1l3_recorded\recording_micRespv1l3_2023-11-16_13h47.09.262.wav;188.41322149999905;188.91327689995524;None;188.41322149999905;188.41322149999905;188.41322149999905;188.41322149999905;188.41322149999905;188.41322149999905;;;;;;050103;001;2023-11-16_13h44.09.201;REPSWITCH1_version1_list3;2022.2.4;143.94806357219196;
REPSWITCH1/PICTURE_152.png;caracol;speak;gold;switch;2;T;2;2;3;1;Stim2_Set2;0;None;38;37;38;0;37;37;37;;;;;;;;;;;;;;;;;;;;;;;188.91327689995524;189.99681799998507;189.99681799998507;189.99681799998507;189.99681799998507;189.99681799998507;189.99681799998507;189.99681799998507;189.99681799998507;None;0;;;C:\2023\REPSWITCH21092023\REPSWITCH_excgange\REPSWITCH_excgange\data/050103_REPSWITCH1_version1_list3_2023-11-16_13h44.09.201_micRespv1l3_recorded\recording_micRespv1l3_2023-11-16_13h47.13.874.wav;193.01794439996593;193.51801859994885;None;193.01794439996593;193.01794439996593;193.01794439996593;193.01794439996593;193.01794439996593;193.01794439996593;;;;;;050103;001;2023-11-16_13h44.09.201;REPSWITCH1_version1_list3;2022.2.4;143.94806357219196;
REPSWITCH1/PICTURE_16.png;cazador;type;darkblue;filler;1;F;2;2;3;1;Stim6_Set1;0;None;39;38;39;0;38;38;38;;;;;;;;;;;;;;;;;;;;;;;193.51801859994885;194.56684390001465;194.56684390001465;194.56684390001465;194.56684390001465;194.56684390001465;194.56684390001465;194.56684390001465;194.56684390001465;['c', 'a', 'z', 'a', 'd', 'o', 'r'];0;[0.8609066000208259, 0.9509036999661475, 1.2629654000047594, 1.401498300023377, 1.663633199990727, 1.9157959999283776, 2.310811899951659];cazador;C:\2023\REPSWITCH21092023\REPSWITCH_excgange\REPSWITCH_excgange\data/050103_REPSWITCH1_version1_list3_2023-11-16_13h44.09.201_micRespv1l3_recorded\recording_micRespv1l3_2023-11-16_13h47.18.444.wav;197.5949377999641;;None;197.5949377999641;197.5949377999641;197.5949377999641;197.5949377999641;197.5949377999641;197.5949377999641;;;;;;050103;001;2023-11-16_13h44.09.201;REPSWITCH1_version1_list3;2022.2.4;143.94806357219196;
REPSWITCH1/PICTURE_381.png;fresa;speak;gold;filler;2;F;2;2;3;1;Stim2_Set1;0;None;40;39;40;0;39;39;39;;;;;;;;;;;;;;;;;;;;;;;198.09500269999262;199.11601689993404;199.11601689993404;199.11601689993404;199.11601689993404;199.11601689993404;199.11601689993404;199.11601689993404;199.11601689993404;None;0;;;C:\2023\REPSWITCH21092023\REPSWITCH_excgange\REPSWITCH_excgange\data/050103_REPSWITCH1_version1_list3_2023-11-16_13h44.09.201_micRespv1l3_recorded\recording_micRespv1l3_2023-11-16_13h47.22.993.wav;202.13726679992396;202.63735580001958;None;202.13726679992396;202.13726679992396;202.13726679992396;202.13726679992396;202.13726679992396;202.13726679992396;;;;;;050103;001;2023-11-16_13h44.09.201;REPSWITCH1_version1_list3;2022.2.4;143.94806357219196;
REPSWITCH1/PICTURE_19.png;pavo;type;darkblue;filler;1;F;2;2;3;1;Stim5_Set1;0;None;41;40;41;0;40;40;40;;;;;;;;;;;;;;;;;;;;;;;202.63735580001958;203.78326039994135;203.78326039994135;203.78326039994135;203.78326039994135;203.78326039994135;203.78326039994135;203.78326039994135;203.78326039994135;['p', 'a', 'v', 'o'];0;[1.1036421000026166, 1.2019365000305697, 1.4616408000001684, 1.581260500010103];pavo;C:\2023\REPSWITCH21092023\REPSWITCH_excgange\REPSWITCH_excgange\data/050103_REPSWITCH1_version1_list3_2023-11-16_13h44.09.201_micRespv1l3_recorded\recording_micRespv1l3_2023-11-16_13h47.27.660.wav;206.8044724999927;207.30456870002672;None;206.8044724999927;206.8044724999927;206.8044724999927;206.8044724999927;206.8044724999927;206.8044724999927;;;;;;050103;001;2023-11-16_13h44.09.201;REPSWITCH1_version1_list3;2022.2.4;143.94806357219196;
REPSWITCH1/PICTURE_517.png;cuerda;speak;gold;nontarget;2;NT;2;2;3;1;Stim4_Set2;1;switch;42;41;42;0;41;41;41;;;;;;;;;;;;;;;;;;;;;;;207.30456870002672;208.36718579998706;208.36718579998706;208.36718579998706;208.36718579998706;208.36718579998706;208.36718579998706;208.36718579998706;208.36718579998706;None;0;;;C:\2023\REPSWITCH21092023\REPSWITCH_excgange\REPSWITCH_excgange\data/050103_REPSWITCH1_version1_list3_2023-11-16_13h44.09.201_micRespv1l3_recorded\recording_micRespv1l3_2023-11-16_13h47.32.244.wav;211.39535240002442;211.89545109996106;None;211.39535240002442;211.39535240002442;211.39535240002442;211.39535240002442;211.39535240002442;211.39535240002442;;;;;;050103;001;2023-11-16_13h44.09.201;REPSWITCH1_version1_list3;2022.2.4;143.94806357219196;
REPSWITCH1/PICTURE_517.png;cuerda;speak;gold;repeat;2;T;2;2;3;1;Stim4_Set2;0;None;43;42;43;0;42;42;42;;;;;;;;;;;;;;;;;;;;;;;211.89545109996106;212.92333799996413;212.92333799996413;212.92333799996413;212.92333799996413;212.92333799996413;212.92333799996413;212.92333799996413;212.92333799996413;None;0;;;C:\2023\REPSWITCH21092023\REPSWITCH_excgange\REPSWITCH_excgange\data/050103_REPSWITCH1_version1_list3_2023-11-16_13h44.09.201_micRespv1l3_recorded\recording_micRespv1l3_2023-11-16_13h47.36.800.wav;215.9445516000269;216.44464569992851;None;215.9445516000269;215.9445516000269;215.9445516000269;215.9445516000269;215.9445516000269;215.9445516000269;;;;;;050103;001;2023-11-16_13h44.09.201;REPSWITCH1_version1_list3;2022.2.4;143.94806357219196;
REPSWITCH1/PICTURE_178.png;puente;type;darkblue;filler;1;F;2;2;3;1;Stim1_Set1;0;None;44;43;44;0;43;43;43;;;;;;;;;;;;;;;;;;;;;;;216.44464569992851;217.71562789997552;217.71562789997552;217.71562789997552;217.71562789997552;217.71562789997552;217.71562789997552;217.71562789997552;217.71562789997552;['p', 'e', 'u', 'backspace', 'backspace', 'u', 'e', 'm'];0;[0.884479200001806, 1.210515100043267, 1.3642706000246108, 1.931278400006704, 2.057870000018738, 2.607112600002438, 2.7077610000269488, 2.9370057999622077];puem;C:\2023\REPSWITCH21092023\REPSWITCH_excgange\REPSWITCH_excgange\data/050103_REPSWITCH1_version1_list3_2023-11-16_13h44.09.201_micRespv1l3_recorded\recording_micRespv1l3_2023-11-16_13h47.41.592.wav;220.73688829992898;221.23698879999574;None;220.73688829992898;220.73688829992898;220.73688829992898;220.73688829992898;220.73688829992898;220.73688829992898;;;;;;050103;001;2023-11-16_13h44.09.201;REPSWITCH1_version1_list3;2022.2.4;143.94806357219196;
REPSWITCH1/PICTURE_199.png;falda;speak;gold;nontarget;2;NT;2;2;3;1;Stim8_Set2;1;switch;45;44;45;0;44;44;44;;;;;;;;;;;;;;;;;;;;;;;221.23698879999574;222.36901469994336;222.36901469994336;222.36901469994336;222.36901469994336;222.36901469994336;222.36901469994336;222.36901469994336;222.36901469994336;None;0;;;C:\2023\REPSWITCH21092023\REPSWITCH_excgange\REPSWITCH_excgange\data/050103_REPSWITCH1_version1_list3_2023-11-16_13h44.09.201_micRespv1l3_recorded\recording_micRespv1l3_2023-11-16_13h47.46.246.wav;225.39728309994098;;None;225.39728309994098;225.39728309994098;225.39728309994098;225.39728309994098;225.39728309994098;225.39728309994098;;;;;;050103;001;2023-11-16_13h44.09.201;REPSWITCH1_version1_list3;2022.2.4;143.94806357219196;
REPSWITCH1/PICTURE_199.png;falda;speak;gold;repeat;2;T;2;2;3;1;Stim8_Set2;0;None;46;45;46;0;45;45;45;;;;;;;;;;;;;;;;;;;;;;;225.89727429999039;226.95989289996214;226.95989289996214;226.95989289996214;226.95989289996214;226.95989289996214;226.95989289996214;226.95989289996214;226.95989289996214;None;0;;;C:\2023\REPSWITCH21092023\REPSWITCH_excgange\REPSWITCH_excgange\data/050103_REPSWITCH1_version1_list3_2023-11-16_13h44.09.201_micRespv1l3_recorded\recording_micRespv1l3_2023-11-16_13h47.50.836.wav;229.98112060001586;230.48120879998896;None;229.98112060001586;229.98112060001586;229.98112060001586;229.98112060001586;229.98112060001586;229.98112060001586;;;;;;050103;001;2023-11-16_13h44.09.201;REPSWITCH1_version1_list3;2022.2.4;143.94806357219196;
REPSWITCH1/PICTURE_169.png;espalda;type;darkblue;filler;1;F;2;2;3;1;Stim8_Set1;0;None;47;46;47;0;46;46;46;;;;;;;;;;;;;;;;;;;;;;;230.48120879998896;231.64804949995596;231.64804949995596;231.64804949995596;231.64804949995596;231.64804949995596;231.64804949995596;231.64804949995596;231.64804949995596;['e', 's', 'p', 'a', 'l', 'd', 'a'];0;[0.797552700038068, 1.0260524000041187, 1.1516774999909103, 1.3361135000595823, 1.4294383000815287, 1.682652399991639, 1.79463450005278];espalda;C:\2023\REPSWITCH21092023\REPSWITCH_excgange\REPSWITCH_excgange\data/050103_REPSWITCH1_version1_list3_2023-11-16_13h44.09.201_micRespv1l3_recorded\recording_micRespv1l3_2023-11-16_13h47.55.525.wav;234.6692887999816;235.1693224000046;None;234.6692887999816;234.6692887999816;234.6692887999816;234.6692887999816;234.6692887999816;234.6692887999816;;;;;;050103;001;2023-11-16_13h44.09.201;REPSWITCH1_version1_list3;2022.2.4;143.94806357219196;
REPSWITCH1/PICTURE_142.png;vaso;speak;gold;filler;2;F;2;2;3;1;Stim7_Set1;0;None;48;47;48;0;47;47;47;;;;;;;;;;;;;;;;;;;;;;;235.1693224000046;236.1972808999708;236.1972808999708;236.1972808999708;236.1972808999708;236.1972808999708;236.1972808999708;236.1972808999708;236.1972808999708;None;0;;;C:\2023\REPSWITCH21092023\REPSWITCH_excgange\REPSWITCH_excgange\data/050103_REPSWITCH1_version1_list3_2023-11-16_13h44.09.201_micRespv1l3_recorded\recording_micRespv1l3_2023-11-16_13h48.00.075.wav;239.22541670000646;;None;239.22541670000646;239.22541670000646;239.22541670000646;239.22541670000646;239.22541670000646;239.22541670000646;;;;;;050103;001;2023-11-16_13h44.09.201;REPSWITCH1_version1_list3;2022.2.4;143.94806357219196;
REPSWITCH1/PICTURE_552.png;manzana;speak;gold;nontarget;2;NT;2;2;3;1;Stim6_Set2;0;None;49;48;49;0;48;48;48;;;;;;;;;;;;;;;;;;;;;;;239.72546460002195;240.82289990002755;240.82289990002755;240.82289990002755;240.82289990002755;240.82289990002755;240.82289990002755;240.82289990002755;240.82289990002755;None;0;;;C:\2023\REPSWITCH21092023\REPSWITCH_excgange\REPSWITCH_excgange\data/050103_REPSWITCH1_version1_list3_2023-11-16_13h44.09.201_micRespv1l3_recorded\recording_micRespv1l3_2023-11-16_13h48.04.700.wav;243.84411209996324;244.34410769992974;None;243.84411209996324;243.84411209996324;243.84411209996324;243.84411209996324;243.84411209996324;243.84411209996324;;;;;;050103;001;2023-11-16_13h44.09.201;REPSWITCH1_version1_list3;2022.2.4;143.94806357219196;
REPSWITCH1/PICTURE_552.png;manzana;type;darkblue;switch;1;T;2;2;3;1;Stim6_Set2;0;None;50;49;50;0;49;49;49;;;;;;;;;;;;;;;;;;;;;;;244.34410769992974;245.420650199987;245.420650199987;245.420650199987;245.420650199987;245.420650199987;245.420650199987;245.420650199987;245.420650199987;['m', 'a', 'n', 'z', 'a', 'n', 'a'];0;[0.9837380999233574, 1.1298224999336526, 1.1945801000110805, 1.442951099947095, 1.6458240000065416, 1.8919108000118285, 2.013886399916373];manzana;C:\2023\REPSWITCH21092023\REPSWITCH_excgange\REPSWITCH_excgange\data/050103_REPSWITCH1_version1_list3_2023-11-16_13h44.09.201_micRespv1l3_recorded\recording_micRespv1l3_2023-11-16_13h48.09.298.wav;248.44883340003435;;None;248.44883340003435;248.44883340003435;248.44883340003435;248.44883340003435;248.44883340003435;248.44883340003435;;;;;;050103;001;2023-11-16_13h44.09.201;REPSWITCH1_version1_list3;2022.2.4;143.94806357219196;
REPSWITCH1/PICTURE_590.png;escoba;speak;gold;filler;2;F;1;2;3;1;Extra3;0;None;51;50;51;0;50;50;50;;;;;;;;;;;;;;;;;;;;;;;248.94889030000195;250.1018254000228;250.1018254000228;250.1018254000228;250.1018254000228;250.1018254000228;250.1018254000228;250.1018254000228;250.1018254000228;None;0;;;C:\2023\REPSWITCH21092023\REPSWITCH_excgange\REPSWITCH_excgange\data/050103_REPSWITCH1_version1_list3_2023-11-16_13h44.09.201_micRespv1l3_recorded\recording_micRespv1l3_2023-11-16_13h48.13.979.wav;253.12302269996144;253.6231037999969;space;253.12302269996144;253.12302269996144;253.12302269996144;253.12302269996144;253.12302269996144;253.12302269996144;253.6231037999969;253.6231037999969;5.590009600040503;;;050103;001;2023-11-16_13h44.09.201;REPSWITCH1_version1_list3;2022.2.4;143.94806357219196;
REPSWITCH1/PICTURE_552.png;manzana;type;darkblue;filler;1;F;3;2;3;1;Stim6_Set2;0;None;52;51;52;0;51;51;51;;;;;;;;;;;;;;;;;;;;;;;259.2210513999453;260.36712529999204;260.36712529999204;260.36712529999204;260.36712529999204;260.36712529999204;260.36712529999204;260.36712529999204;260.36712529999204;['m', 'a', 'n', 'z', 'a', 'n', 'a'];0;[0.859500200022012, 0.9780922000063583, 1.088774099946022, 1.2834528000093997, 1.5237108999863267, 1.6432615999365225, 1.7557394999312237];manzana;C:\2023\REPSWITCH21092023\REPSWITCH_excgange\REPSWITCH_excgange\data/050103_REPSWITCH1_version1_list3_2023-11-16_13h44.09.201_micRespv1l3_recorded\recording_micRespv1l3_2023-11-16_13h48.24.244.wav;263.388257100014;263.8883403999498;None;263.388257100014;263.388257100014;263.388257100014;263.388257100014;263.388257100014;263.388257100014;;;;;;050103;001;2023-11-16_13h44.09.201;REPSWITCH1_version1_list3;2022.2.4;143.94806357219196;
REPSWITCH1/PICTURE_464.png;goma;type;darkblue;nontarget;1;NT;3;2;3;1;Stim6_Set3;1;repeat;53;52;53;0;52;52;52;;;;;;;;;;;;;;;;;;;;;;;263.8883403999498;264.99966839991976;264.99966839991976;264.99966839991976;264.99966839991976;264.99966839991976;264.99966839991976;264.99966839991976;264.99966839991976;['g', 'o', 'm', 'a'];0;[1.2778587999055162, 1.441270099952817, 1.6408850000007078, 1.7368578999303281];goma;C:\2023\REPSWITCH21092023\REPSWITCH_excgange\REPSWITCH_excgange\data/050103_REPSWITCH1_version1_list3_2023-11-16_13h44.09.201_micRespv1l3_recorded\recording_micRespv1l3_2023-11-16_13h48.28.876.wav;268.02084569993895;268.52095309994183;None;268.02084569993895;268.02084569993895;268.02084569993895;268.02084569993895;268.02084569993895;268.02084569993895;;;;;;050103;001;2023-11-16_13h44.09.201;REPSWITCH1_version1_list3;2022.2.4;143.94806357219196;
REPSWITCH1/PICTURE_464.png;goma;speak;gold;switch;2;T;3;2;3;1;Stim6_Set3;0;None;54;53;54;0;53;53;53;;;;;;;;;;;;;;;;;;;;;;;268.52095309994183;269.5835498999804;269.5835498999804;269.5835498999804;269.5835498999804;269.5835498999804;269.5835498999804;269.5835498999804;269.5835498999804;None;0;;;C:\2023\REPSWITCH21092023\REPSWITCH_excgange\REPSWITCH_excgange\data/050103_REPSWITCH1_version1_list3_2023-11-16_13h44.09.201_micRespv1l3_recorded\recording_micRespv1l3_2023-11-16_13h48.33.461.wav;272.6047975999536;273.10483710002154;None;272.6047975999536;272.6047975999536;272.6047975999536;272.6047975999536;272.6047975999536;272.6047975999536;;;;;;050103;001;2023-11-16_13h44.09.201;REPSWITCH1_version1_list3;2022.2.4;143.94806357219196;
REPSWITCH1/PICTURE_30.png;granja;speak;gold;filler;2;F;3;2;3;1;Stim5_Set2;0;None;55;54;55;0;54;54;54;;;;;;;;;;;;;;;;;;;;;;;273.10483710002154;274.20221619994845;274.20221619994845;274.20221619994845;274.20221619994845;274.20221619994845;274.20221619994845;274.20221619994845;274.20221619994845;None;0;;;C:\2023\REPSWITCH21092023\REPSWITCH_excgange\REPSWITCH_excgange\data/050103_REPSWITCH1_version1_list3_2023-11-16_13h44.09.201_micRespv1l3_recorded\recording_micRespv1l3_2023-11-16_13h48.38.080.wav;277.2303458999377;;None;277.2303458999377;277.2303458999377;277.2303458999377;277.2303458999377;277.2303458999377;277.2303458999377;;;;;;050103;001;2023-11-16_13h44.09.201;REPSWITCH1_version1_list3;2022.2.4;143.94806357219196;
REPSWITCH1/PICTURE_235.png;aguja;speak;gold;nontarget;2;NT;3;2;3;1;Stim4_Set3;1;repeat;56;55;56;0;55;55;55;;;;;;;;;;;;;;;;;;;;;;;277.7304315000074;278.7792240999406;278.7792240999406;278.7792240999406;278.7792240999406;278.7792240999406;278.7792240999406;278.7792240999406;278.7792240999406;None;0;;;C:\2023\REPSWITCH21092023\REPSWITCH_excgange\REPSWITCH_excgange\data/050103_REPSWITCH1_version1_list3_2023-11-16_13h44.09.201_micRespv1l3_recorded\recording_micRespv1l3_2023-11-16_13h48.42.655.wav;281.800424200017;282.30052699998487;None;281.800424200017;281.800424200017;281.800424200017;281.800424200017;281.800424200017;281.800424200017;;;;;;050103;001;2023-11-16_13h44.09.201;REPSWITCH1_version1_list3;2022.2.4;143.94806357219196;
REPSWITCH1/PICTURE_235.png;aguja;type;darkblue;switch;1;T;3;2;3;1;Stim4_Set3;0;None;57;56;57;0;56;56;56;;;;;;;;;;;;;;;;;;;;;;;282.30052699998487;283.41874839994125;283.41874839994125;283.41874839994125;283.41874839994125;283.41874839994125;283.41874839994125;283.41874839994125;283.41874839994125;['a', 'g', 'u', 'j', 'a'];0;[0.8297632000176236, 1.0918440000386909, 1.2603461000835523, 1.5484233000315726, 1.6998920000623912];aguja;C:\2023\REPSWITCH21092023\REPSWITCH_excgange\REPSWITCH_excgange\data/050103_REPSWITCH1_version1_list3_2023-11-16_13h44.09.201_micRespv1l3_recorded\recording_micRespv1l3_2023-11-16_13h48.47.296.wav;286.4398986999877;286.9399501000298;None;286.4398986999877;286.4398986999877;286.4398986999877;286.4398986999877;286.4398986999877;286.4398986999877;;;;;;050103;001;2023-11-16_13h44.09.201;REPSWITCH1_version1_list3;2022.2.4;143.94806357219196;
REPSWITCH1/PICTURE_391.png;cadena;type;darkblue;filler;1;F;3;2;3;1;Extra2;0;None;58;57;58;0;57;57;57;;;;;;;;;;;;;;;;;;;;;;;286.9399501000298;288.06511480000336;288.06511480000336;288.06511480000336;288.06511480000336;288.06511480000336;288.06511480000336;288.06511480000336;288.06511480000336;['c', 'a', 'd', 'e', 'n', 'a'];0;[1.2321377999614924, 1.3317649000091478, 1.4474917999468744, 1.6068926999578252, 1.7686406000284478, 1.9195203999988735];cadena;C:\2023\REPSWITCH21092023\REPSWITCH_excgange\REPSWITCH_excgange\data/050103_REPSWITCH1_version1_list3_2023-11-16_13h44.09.201_micRespv1l3_recorded\recording_micRespv1l3_2023-11-16_13h48.51.943.wav;291.0933670999948;;None;291.0933670999948;291.0933670999948;291.0933670999948;291.0933670999948;291.0933670999948;291.0933670999948;;;;;;050103;001;2023-11-16_13h44.09.201;REPSWITCH1_version1_list3;2022.2.4;143.94806357219196;
REPSWITCH1/PICTURE_320.png;iglesia;type;darkblue;nontarget;1;NT;3;2;3;1;Stim8_Set3;0;None;59;58;59;0;58;58;58;;;;;;;;;;;;;;;;;;;;;;;291.59342519997153;292.7115465999814;292.7115465999814;292.7115465999814;292.7115465999814;292.7115465999814;292.7115465999814;292.7115465999814;292.7115465999814;['i', 'g', 'l', 'e', 's', 'i', 'a'];0;[0.947204599971883, 1.1913825999945402, 1.3877198999980465, 1.5073352999752387, 1.692695099976845, 1.8272691000020131, 2.091542800073512];iglesia;C:\2023\REPSWITCH21092023\REPSWITCH_excgange\REPSWITCH_excgange\data/050103_REPSWITCH1_version1_list3_2023-11-16_13h44.09.201_micRespv1l3_recorded\recording_micRespv1l3_2023-11-16_13h48.56.589.wav;295.73282139992807;296.2328456999967;None;295.73282139992807;295.73282139992807;295.73282139992807;295.73282139992807;295.73282139992807;295.73282139992807;;;;;;050103;001;2023-11-16_13h44.09.201;REPSWITCH1_version1_list3;2022.2.4;143.94806357219196;
REPSWITCH1/PICTURE_320.png;iglesia;speak;gold;switch;2;T;3;2;3;1;Stim8_Set3;0;None;60;59;60;0;59;59;59;;;;;;;;;;;;;;;;;;;;;;;296.2328456999967;297.33028320001904;297.33028320001904;297.33028320001904;297.33028320001904;297.33028320001904;297.33028320001904;297.33028320001904;297.33028320001904;None;0;;;C:\2023\REPSWITCH21092023\REPSWITCH_excgange\REPSWITCH_excgange\data/050103_REPSWITCH1_version1_list3_2023-11-16_13h44.09.201_micRespv1l3_recorded\recording_micRespv1l3_2023-11-16_13h49.01.208.wav;300.3584112999961;;None;300.3584112999961;300.3584112999961;300.3584112999961;300.3584112999961;300.3584112999961;300.3584112999961;;;;;;050103;001;2023-11-16_13h44.09.201;REPSWITCH1_version1_list3;2022.2.4;143.94806357219196;
REPSWITCH1/PICTURE_175.png;pintor;type;darkblue;filler;1;F;3;2;3;1;Stim1_Set2;0;None;61;60;61;0;60;60;60;;;;;;;;;;;;;;;;;;;;;;;300.8584594000131;302.032241399982;302.032241399982;302.032241399982;302.032241399982;302.032241399982;302.032241399982;302.032241399982;302.032241399982;['p', 'i', 'n', 't', 'o', 'r'];0;[0.8196615000488237, 1.7219471000134945, 1.8923803999787197, 2.040413900045678, 2.1909180000657216, 2.272600300027989];pintor;C:\2023\REPSWITCH21092023\REPSWITCH_excgange\REPSWITCH_excgange\data/050103_REPSWITCH1_version1_list3_2023-11-16_13h44.09.201_micRespv1l3_recorded\recording_micRespv1l3_2023-11-16_13h49.05.909.wav;305.0534523000242;305.55351040000096;None;305.0534523000242;305.0534523000242;305.0534523000242;305.0534523000242;305.0534523000242;305.0534523000242;;;;;;050103;001;2023-11-16_13h44.09.201;REPSWITCH1_version1_list3;2022.2.4;143.94806357219196;
REPSWITCH1/PICTURE_271.png;conejo;speak;gold;nontarget;2;NT;3;2;3;1;Stim7_Set3;1;switch;62;61;62;0;61;61;61;;;;;;;;;;;;;;;;;;;;;;;305.55351040000096;306.65086649998557;306.65086649998557;306.65086649998557;306.65086649998557;306.65086649998557;306.65086649998557;306.65086649998557;306.65086649998557;None;0;;;C:\2023\REPSWITCH21092023\REPSWITCH_excgange\REPSWITCH_excgange\data/050103_REPSWITCH1_version1_list3_2023-11-16_13h44.09.201_micRespv1l3_recorded\recording_micRespv1l3_2023-11-16_13h49.10.528.wav;309.67208859999664;310.17218220001087;None;309.67208859999664;309.67208859999664;309.67208859999664;309.67208859999664;309.67208859999664;309.67208859999664;;;;;;050103;001;2023-11-16_13h44.09.201;REPSWITCH1_version1_list3;2022.2.4;143.94806357219196;
REPSWITCH1/PICTURE_271.png;conejo;speak;gold;repeat;2;T;3;2;3;1;Stim7_Set3;0;None;63;62;63;0;62;62;62;;;;;;;;;;;;;;;;;;;;;;;310.17218220001087;311.31122359994333;311.31122359994333;311.31122359994333;311.31122359994333;311.31122359994333;311.31122359994333;311.31122359994333;311.31122359994333;None;0;;;C:\2023\REPSWITCH21092023\REPSWITCH_excgange\REPSWITCH_excgange\data/050103_REPSWITCH1_version1_list3_2023-11-16_13h44.09.201_micRespv1l3_recorded\recording_micRespv1l3_2023-11-16_13h49.15.188.wav;314.33244139992166;314.83250919997226;None;314.33244139992166;314.33244139992166;314.33244139992166;314.33244139992166;314.33244139992166;314.33244139992166;;;;;;050103;001;2023-11-16_13h44.09.201;REPSWITCH1_version1_list3;2022.2.4;143.94806357219196;
REPSWITCH1/PICTURE_446.png;cerdo;speak;gold;filler;2;F;3;2;3;1;Stim7_Set2;0;None;64;63;64;0;63;63;63;;;;;;;;;;;;;;;;;;;;;;;314.83250919997226;315.88822470000014;315.88822470000014;315.88822470000014;315.88822470000014;315.88822470000014;315.88822470000014;315.88822470000014;315.88822470000014;None;0;;;C:\2023\REPSWITCH21092023\REPSWITCH_excgange\REPSWITCH_excgange\data/050103_REPSWITCH1_version1_list3_2023-11-16_13h44.09.201_micRespv1l3_recorded\recording_micRespv1l3_2023-11-16_13h49.19.765.wav;318.9094201999251;319.40950539999176;None;318.9094201999251;318.9094201999251;318.9094201999251;318.9094201999251;318.9094201999251;318.9094201999251;;;;;;050103;001;2023-11-16_13h44.09.201;REPSWITCH1_version1_list3;2022.2.4;143.94806357219196;
REPSWITCH1/PICTURE_152.png;caracol;type;darkblue;filler;1;F;3;2;3;1;Stim2_Set2;0;None;65;64;65;0;64;64;64;;;;;;;;;;;;;;;;;;;;;;;319.40950539999176;320.49299429997336;320.49299429997336;320.49299429997336;320.49299429997336;320.49299429997336;320.49299429997336;320.49299429997336;320.49299429997336;['c', 'a', 'r', 'a', 'c', 'o', 'l'];0;[0.8183146000374109, 0.9469170999946073, 1.0235926000168547, 1.1970113000134006, 1.454373799962923, 1.570312299998477, 1.8117953999899328];caracol;C:\2023\REPSWITCH21092023\REPSWITCH_excgange\REPSWITCH_excgange\data/050103_REPSWITCH1_version1_list3_2023-11-16_13h44.09.201_micRespv1l3_recorded\recording_micRespv1l3_2023-11-16_13h49.24.369.wav;323.514210299938;324.0142612999771;None;323.514210299938;323.514210299938;323.514210299938;323.514210299938;323.514210299938;323.514210299938;;;;;;050103;001;2023-11-16_13h44.09.201;REPSWITCH1_version1_list3;2022.2.4;143.94806357219196;
REPSWITCH1/PICTURE_576.png;guante;speak;gold;nontarget;2;NT;3;2;3;1;Stim1_Set3;1;switch;66;65;66;0;65;65;65;;;;;;;;;;;;;;;;;;;;;;;324.0142612999771;325.0907826999901;325.0907826999901;325.0907826999901;325.0907826999901;325.0907826999901;325.0907826999901;325.0907826999901;325.0907826999901;None;0;;;C:\2023\REPSWITCH21092023\REPSWITCH_excgange\REPSWITCH_excgange\data/050103_REPSWITCH1_version1_list3_2023-11-16_13h44.09.201_micRespv1l3_recorded\recording_micRespv1l3_2023-11-16_13h49.28.967.wav;328.11200939991977;328.6120579999406;None;328.11200939991977;328.11200939991977;328.11200939991977;328.11200939991977;328.11200939991977;328.11200939991977;;;;;;050103;001;2023-11-16_13h44.09.201;REPSWITCH1_version1_list3;2022.2.4;143.94806357219196;
REPSWITCH1/PICTURE_576.png;guante;speak;gold;repeat;2;T;3;2;3;1;Stim1_Set3;0;None;67;66;67;0;66;66;66;;;;;;;;;;;;;;;;;;;;;;;328.6120579999406;329.6678330999566;329.6678330999566;329.6678330999566;329.6678330999566;329.6678330999566;329.6678330999566;329.6678330999566;329.6678330999566;None;0;;;C:\2023\REPSWITCH21092023\REPSWITCH_excgange\REPSWITCH_excgange\data/050103_REPSWITCH1_version1_list3_2023-11-16_13h44.09.201_micRespv1l3_recorded\recording_micRespv1l3_2023-11-16_13h49.33.544.wav;332.6890686999541;333.189045600011;None;332.6890686999541;332.6890686999541;332.6890686999541;332.6890686999541;332.6890686999541;332.6890686999541;;;;;;050103;001;2023-11-16_13h44.09.201;REPSWITCH1_version1_list3;2022.2.4;143.94806357219196;
REPSWITCH1/PICTURE_242.png;cartero;speak;gold;nontarget;2;NT;3;2;3;1;Stim3_Set3;0;None;68;67;68;0;67;67;67;;;;;;;;;;;;;;;;;;;;;;;333.189045600011;334.2864677000325;334.2864677000325;334.2864677000325;334.2864677000325;334.2864677000325;334.2864677000325;334.2864677000325;334.2864677000325;None;0;;;C:\2023\REPSWITCH21092023\REPSWITCH_excgange\REPSWITCH_excgange\data/050103_REPSWITCH1_version1_list3_2023-11-16_13h44.09.201_micRespv1l3_recorded\recording_micRespv1l3_2023-11-16_13h49.38.164.wav;337.3146112000104;;None;337.3146112000104;337.3146112000104;337.3146112000104;337.3146112000104;337.3146112000104;337.3146112000104;;;;;;050103;001;2023-11-16_13h44.09.201;REPSWITCH1_version1_list3;2022.2.4;143.94806357219196;
REPSWITCH1/PICTURE_242.png;cartero;type;darkblue;switch;1;T;3;2;3;1;Stim3_Set3;0;None;69;68;69;0;68;68;68;;;;;;;;;;;;;;;;;;;;;;;337.8146888000192;338.92593889997806;338.92593889997806;338.92593889997806;338.92593889997806;338.92593889997806;338.92593889997806;338.92593889997806;338.92593889997806;['c', 'a', 'r', 't', 'e', 'r', 'o'];0;[0.8585881000617519, 0.981113399961032, 1.0618410999886692, 1.2275549999903888, 1.367992899962701, 1.5886278999969363, 1.7209195999894291];cartero;C:\2023\REPSWITCH21092023\REPSWITCH_excgange\REPSWITCH_excgange\data/050103_REPSWITCH1_version1_list3_2023-11-16_13h44.09.201_micRespv1l3_recorded\recording_micRespv1l3_2023-11-16_13h49.42.802.wav;341.9471816000296;342.4473095999565;None;341.9471816000296;341.9471816000296;341.9471816000296;341.9471816000296;341.9471816000296;341.9471816000296;;;;;;050103;001;2023-11-16_13h44.09.201;REPSWITCH1_version1_list3;2022.2.4;143.94806357219196;
REPSWITCH1/PICTURE_517.png;cuerda;speak;gold;filler;2;F;3;2;3;1;Stim4_Set2;0;None;70;69;70;0;69;69;69;;;;;;;;;;;;;;;;;;;;;;;342.4473095999565;343.46822569996584;343.46822569996584;343.46822569996584;343.46822569996584;343.46822569996584;343.46822569996584;343.46822569996584;343.46822569996584;None;0;;;C:\2023\REPSWITCH21092023\REPSWITCH_excgange\REPSWITCH_excgange\data/050103_REPSWITCH1_version1_list3_2023-11-16_13h44.09.201_micRespv1l3_recorded\recording_micRespv1l3_2023-11-16_13h49.47.345.wav;346.48951189999934;346.989494599984;None;346.48951189999934;346.48951189999934;346.48951189999934;346.48951189999934;346.48951189999934;346.48951189999934;;;;;;050103;001;2023-11-16_13h44.09.201;REPSWITCH1_version1_list3;2022.2.4;143.94806357219196;
REPSWITCH1/PICTURE_646.png;tronco;type;darkblue;filler;1;F;3;2;3;1;Extra4;0;None;71;70;71;0;70;70;70;;;;;;;;;;;;;;;;;;;;;;;346.989494599984;348.1772251999937;348.1772251999937;348.1772251999937;348.1772251999937;348.1772251999937;348.1772251999937;348.1772251999937;348.1772251999937;['t', 'r', 'o', 'n', 'c', 'o'];0;[0.8843183999415487, 1.0089566999813542, 1.234813499962911, 1.4889604999916628, 1.6497333999723196, 1.7922084999736398];tronco;C:\2023\REPSWITCH21092023\REPSWITCH_excgange\REPSWITCH_excgange\data/050103_REPSWITCH1_version1_list3_2023-11-16_13h44.09.201_micRespv1l3_recorded\recording_micRespv1l3_2023-11-16_13h49.52.054.wav;351.1984190000221;351.6984477000078;None;351.1984190000221;351.1984190000221;351.1984190000221;351.1984190000221;351.1984190000221;351.1984190000221;;;;;;050103;001;2023-11-16_13h44.09.201;REPSWITCH1_version1_list3;2022.2.4;143.94806357219196;
REPSWITCH1/PICTURE_35.png;oreja;type;darkblue;nontarget;1;NT;3;2;3;1;Stim5_Set3;1;repeat;72;71;72;0;71;71;71;;;;;;;;;;;;;;;;;;;;;;;351.6984477000078;352.7472426999593;352.7472426999593;352.7472426999593;352.7472426999593;352.7472426999593;352.7472426999593;352.7472426999593;352.7472426999593;['o', 'r', 'e', 'j', 'a'];0;[0.8807296000886708, 1.0471632999833673, 1.5494563999818638, 1.6973251000745222, 1.8328796999994665];oreja;C:\2023\REPSWITCH21092023\REPSWITCH_excgange\REPSWITCH_excgange\data/050103_REPSWITCH1_version1_list3_2023-11-16_13h44.09.201_micRespv1l3_recorded\recording_micRespv1l3_2023-11-16_13h49.56.624.wav;355.7684800999705;356.2684778999537;None;355.7684800999705;355.7684800999705;355.7684800999705;355.7684800999705;355.7684800999705;355.7684800999705;;;;;;050103;001;2023-11-16_13h44.09.201;REPSWITCH1_version1_list3;2022.2.4;143.94806357219196;
REPSWITCH1/PICTURE_35.png;oreja;type;darkblue;repeat;1;T;3;2;3;1;Stim5_Set3;0;None;73;72;73;0;72;72;72;;;;;;;;;;;;;;;;;;;;;;;356.2684778999537;357.3103119999869;357.3103119999869;357.3103119999869;357.3103119999869;357.3103119999869;357.3103119999869;357.3103119999869;357.3103119999869;['o', 'r', 'e', 'j', 'a'];0;[0.784869399969466, 0.968224799958989, 1.330025800038129, 1.4757682000054047, 1.6173159000463784];oreja;C:\2023\REPSWITCH21092023\REPSWITCH_excgange\REPSWITCH_excgange\data/050103_REPSWITCH1_version1_list3_2023-11-16_13h44.09.201_micRespv1l3_recorded\recording_micRespv1l3_2023-11-16_13h50.01.188.wav;360.3384779000189;;None;360.3384779000189;360.3384779000189;360.3384779000189;360.3384779000189;360.3384779000189;360.3384779000189;;;;;;050103;001;2023-11-16_13h44.09.201;REPSWITCH1_version1_list3;2022.2.4;143.94806357219196;
REPSWITCH1/PICTURE_199.png;falda;speak;gold;filler;2;F;3;2;3;1;Stim8_Set2;0;None;74;73;74;0;73;73;73;;;;;;;;;;;;;;;;;;;;;;;360.8386090999702;361.887298299931;361.887298299931;361.887298299931;361.887298299931;361.887298299931;361.887298299931;361.887298299931;361.887298299931;None;0;;;C:\2023\REPSWITCH21092023\REPSWITCH_excgange\REPSWITCH_excgange\data/050103_REPSWITCH1_version1_list3_2023-11-16_13h44.09.201_micRespv1l3_recorded\recording_micRespv1l3_2023-11-16_13h50.05.764.wav;364.90851450001355;365.408637000015;None;364.90851450001355;364.90851450001355;364.90851450001355;364.90851450001355;364.90851450001355;364.90851450001355;;;;;;050103;001;2023-11-16_13h44.09.201;REPSWITCH1_version1_list3;2022.2.4;143.94806357219196;
REPSWITCH1/PICTURE_610.png;miel;type;darkblue;nontarget;1;NT;3;2;3;1;Stim2_Set3;1;switch;75;74;75;0;74;74;74;;;;;;;;;;;;;;;;;;;;;;;365.408637000015;366.5823576999828;366.5823576999828;366.5823576999828;366.5823576999828;366.5823576999828;366.5823576999828;366.5823576999828;366.5823576999828;['m', 'i', 'e', 'l'];0;[0.8949614999582991, 1.0354437000351027, 1.1634111000457779, 1.30490860005375];miel;C:\2023\REPSWITCH21092023\REPSWITCH_excgange\REPSWITCH_excgange\data/050103_REPSWITCH1_version1_list3_2023-11-16_13h44.09.201_micRespv1l3_recorded\recording_micRespv1l3_2023-11-16_13h50.10.459.wav;369.6036250999896;370.10363789997064;None;369.6036250999896;369.6036250999896;369.6036250999896;369.6036250999896;369.6036250999896;369.6036250999896;;;;;;050103;001;2023-11-16_13h44.09.201;REPSWITCH1_version1_list3;2022.2.4;143.94806357219196;
REPSWITCH1/PICTURE_610.png;miel;type;darkblue;repeat;1;T;3;2;3;1;Stim2_Set3;0;None;76;75;76;0;75;75;75;;;;;;;;;;;;;;;;;;;;;;;370.10363789997064;371.2496752999723;371.2496752999723;371.2496752999723;371.2496752999723;371.2496752999723;371.2496752999723;371.2496752999723;371.2496752999723;['m', 'i', 'e', 'l'];0;[0.7430296000093222, 0.8936064000008628, 1.0453938000136986, 1.1779703000793234];miel;C:\2023\REPSWITCH21092023\REPSWITCH_excgange\REPSWITCH_excgange\data/050103_REPSWITCH1_version1_list3_2023-11-16_13h44.09.201_micRespv1l3_recorded\recording_micRespv1l3_2023-11-16_13h50.15.128.wav;374.27786389994435;;None;374.27786389994435;374.27786389994435;374.27786389994435;374.27786389994435;374.27786389994435;374.27786389994435;;;;;;050103;001;2023-11-16_13h44.09.201;REPSWITCH1_version1_list3;2022.2.4;143.94806357219196;
REPSWITCH1/PICTURE_264.png;mano;type;darkblue;filler;1;F;3;2;3;1;Stim3_Set2;1;repeat;77;76;77;0;76;76;76;;;;;;;;;;;;;;;;;;;;;;;374.7778370999731;375.97946579998825;375.97946579998825;375.97946579998825;375.97946579998825;375.97946579998825;375.97946579998825;375.97946579998825;375.97946579998825;['m', 'a', 'n', 'o'];0;[0.8636218999745324, 0.9863918999908492, 1.081086799968034, 1.2198326999787241];mano;C:\2023\REPSWITCH21092023\REPSWITCH_excgange\REPSWITCH_excgange\data/050103_REPSWITCH1_version1_list3_2023-11-16_13h44.09.201_micRespv1l3_recorded\recording_micRespv1l3_2023-11-16_13h50.19.856.wav;379.00059960002545;379.50076959992293;None;379.00059960002545;379.00059960002545;379.00059960002545;379.00059960002545;379.00059960002545;379.00059960002545;;;;;;050103;001;2023-11-16_13h44.09.201;REPSWITCH1_version1_list3;2022.2.4;143.94806357219196;
REPSWITCH1/PICTURE_464.png;goma;speak;gold;filler;2;F;4;2;3;1;Stim6_Set3;0;None;78;77;78;0;77;77;77;;;;;;;;;;;;;;;;;;;;;;;379.50076959992293;380.59809159999713;380.59809159999713;380.59809159999713;380.59809159999713;380.59809159999713;380.59809159999713;380.59809159999713;380.59809159999713;None;0;;;C:\2023\REPSWITCH21092023\REPSWITCH_excgange\REPSWITCH_excgange\data/050103_REPSWITCH1_version1_list3_2023-11-16_13h44.09.201_micRespv1l3_recorded\recording_micRespv1l3_2023-11-16_13h50.24.475.wav;383.62631500000134;;None;383.62631500000134;383.62631500000134;383.62631500000134;383.62631500000134;383.62631500000134;383.62631500000134;;;;;;050103;001;2023-11-16_13h44.09.201;REPSWITCH1_version1_list3;2022.2.4;143.94806357219196;
REPSWITCH1/PICTURE_8.png;pierna;type;darkblue;nontarget;1;NT;4;2;3;1;Stim3_Set4;1;switch;79;78;79;0;78;78;78;;;;;;;;;;;;;;;;;;;;;;;384.12631129997317;385.2167095999466;385.2167095999466;385.2167095999466;385.2167095999466;385.2167095999466;385.2167095999466;385.2167095999466;385.2167095999466;['p', 'i', 'e', 'r', 'n', 'a'];0;[0.7944576001027599, 0.9954824000597, 1.1649569000583142, 1.2954693000065163, 1.5626262000296265, 1.7032179000088945];pierna;C:\2023\REPSWITCH21092023\REPSWITCH_excgange\REPSWITCH_excgange\data/050103_REPSWITCH1_version1_list3_2023-11-16_13h44.09.201_micRespv1l3_recorded\recording_micRespv1l3_2023-11-16_13h50.29.094.wav;388.23793079995085;388.73806629993487;None;388.23793079995085;388.23793079995085;388.23793079995085;388.23793079995085;388.23793079995085;388.23793079995085;;;;;;050103;001;2023-11-16_13h44.09.201;REPSWITCH1_version1_list3;2022.2.4;143.94806357219196;
REPSWITCH1/PICTURE_8.png;pierna;type;darkblue;repeat;1;T;4;2;3;1;Stim3_Set4;0;None;80;79;80;0;79;79;79;;;;;;;;;;;;;;;;;;;;;;;388.73806629993487;389.9464894999983;389.9464894999983;389.9464894999983;389.9464894999983;389.9464894999983;389.9464894999983;389.9464894999983;389.9464894999983;['p', 'i', 'e', 't', 'a', 'backspace', 'backspace', 'r', 'n'];0;[0.9518812999594957, 1.501411100034602, 1.6449073000112548, 1.8542072999989614, 2.0379046000307426, 2.3880380999762565, 2.521632199990563, 2.65911030001007, 2.881075300043449];piern;C:\2023\REPSWITCH21092023\REPSWITCH_excgange\REPSWITCH_excgange\data/050103_REPSWITCH1_version1_list3_2023-11-16_13h44.09.201_micRespv1l3_recorded\recording_micRespv1l3_2023-11-16_13h50.33.824.wav;392.9677410000004;393.467764699948;None;392.9677410000004;392.9677410000004;392.9677410000004;392.9677410000004;392.9677410000004;392.9677410000004;;;;;;050103;001;2023-11-16_13h44.09.201;REPSWITCH1_version1_list3;2022.2.4;143.94806357219196;
REPSWITCH1/PICTURE_728.png;pulpo;type;darkblue;nontarget;1;NT;4;2;3;1;Stim8_Set4;1;repeat;81;80;81;0;80;80;80;;;;;;;;;;;;;;;;;;;;;;;393.467764699948;394.6623856999213;394.6623856999213;394.6623856999213;394.6623856999213;394.6623856999213;394.6623856999213;394.6623856999213;394.6623856999213;['p', 'u', 'l', 'p', 'o'];0;[0.8553321999497712, 1.0397002999670804, 1.2611249999608845, 1.5503604999976233, 1.7447354999603704];pulpo;C:\2023\REPSWITCH21092023\REPSWITCH_excgange\REPSWITCH_excgange\data/050103_REPSWITCH1_version1_list3_2023-11-16_13h44.09.201_micRespv1l3_recorded\recording_micRespv1l3_2023-11-16_13h50.38.540.wav;397.68360190000385;398.18369969993364;None;397.68360190000385;397.68360190000385;397.68360190000385;397.68360190000385;397.68360190000385;397.68360190000385;;;;;;050103;001;2023-11-16_13h44.09.201;REPSWITCH1_version1_list3;2022.2.4;143.94806357219196;
REPSWITCH1/PICTURE_728.png;pulpo;speak;gold;switch;2;T;4;2;3;1;Stim8_Set4;0;None;82;81;82;0;81;81;81;;;;;;;;;;;;;;;;;;;;;;;398.18369969993364;399.281060099951;399.281060099951;399.281060099951;399.281060099951;399.281060099951;399.281060099951;399.281060099951;399.281060099951;None;0;;;C:\2023\REPSWITCH21092023\REPSWITCH_excgange\REPSWITCH_excgange\data/050103_REPSWITCH1_version1_list3_2023-11-16_13h44.09.201_micRespv1l3_recorded\recording_micRespv1l3_2023-11-16_13h50.43.158.wav;402.30230009998195;402.80243699997663;None;402.30230009998195;402.30230009998195;402.30230009998195;402.30230009998195;402.30230009998195;402.30230009998195;;;;;;050103;001;2023-11-16_13h44.09.201;REPSWITCH1_version1_list3;2022.2.4;143.94806357219196;
REPSWITCH1/PICTURE_235.png;aguja;type;darkblue;filler;1;F;4;2;3;1;Stim4_Set3;0;None;83;82;83;0;82;82;82;;;;;;;;;;;;;;;;;;;;;;;402.80243699997663;403.8788864000235;403.8788864000235;403.8788864000235;403.8788864000235;403.8788864000235;403.8788864000235;403.8788864000235;403.8788864000235;['a', 'g', 'u', 'j', 'a'];0;[1.0449357000179589, 1.328949399990961, 1.4597439999924973, 1.657184400013648, 1.791652899933979];aguja;C:\2023\REPSWITCH21092023\REPSWITCH_excgange\REPSWITCH_excgange\data/050103_REPSWITCH1_version1_list3_2023-11-16_13h44.09.201_micRespv1l3_recorded\recording_micRespv1l3_2023-11-16_13h50.47.756.wav;406.9000801999355;407.4001818000106;None;406.9000801999355;406.9000801999355;406.9000801999355;406.9000801999355;406.9000801999355;406.9000801999355;;;;;;050103;001;2023-11-16_13h44.09.201;REPSWITCH1_version1_list3;2022.2.4;143.94806357219196;
REPSWITCH1/PICTURE_498.png;taza;speak;gold;nontarget;2;NT;4;2;3;1;Stim4_Set4;1;switch;84;83;84;0;83;83;83;;;;;;;;;;;;;;;;;;;;;;;407.4001818000106;408.47677249996923;408.47677249996923;408.47677249996923;408.47677249996923;408.47677249996923;408.47677249996923;408.47677249996923;408.47677249996923;None;0;;;C:\2023\REPSWITCH21092023\REPSWITCH_excgange\REPSWITCH_excgange\data/050103_REPSWITCH1_version1_list3_2023-11-16_13h44.09.201_micRespv1l3_recorded\recording_micRespv1l3_2023-11-16_13h50.52.354.wav;411.50486390001606;;None;411.50486390001606;411.50486390001606;411.50486390001606;411.50486390001606;411.50486390001606;411.50486390001606;;;;;;050103;001;2023-11-16_13h44.09.201;REPSWITCH1_version1_list3;2022.2.4;143.94806357219196;
REPSWITCH1/PICTURE_498.png;taza;speak;gold;repeat;2;T;4;2;3;1;Stim4_Set4;0;None;85;84;85;0;84;84;84;;;;;;;;;;;;;;;;;;;;;;;412.0049246000126;413.1578630999429;413.1578630999429;413.1578630999429;413.1578630999429;413.1578630999429;413.1578630999429;413.1578630999429;413.1578630999429;None;0;;;C:\2023\REPSWITCH21092023\REPSWITCH_excgange\REPSWITCH_excgange\data/050103_REPSWITCH1_version1_list3_2023-11-16_13h44.09.201_micRespv1l3_recorded\recording_micRespv1l3_2023-11-16_13h50.57.034.wav;416.17918570002075;416.6791756999446;None;416.17918570002075;416.17918570002075;416.17918570002075;416.17918570002075;416.17918570002075;416.17918570002075;;;;;;050103;001;2023-11-16_13h44.09.201;REPSWITCH1_version1_list3;2022.2.4;143.94806357219196;
REPSWITCH1/PICTURE_719.png;baño;speak;gold;nontarget;2;NT;4;2;3;1;Stim2_Set4;0;None;86;85;86;0;85;85;85;;;;;;;;;;;;;;;;;;;;;;;416.6791756999446;417.8182818000205;417.8182818000205;417.8182818000205;417.8182818000205;417.8182818000205;417.8182818000205;417.8182818000205;417.8182818000205;None;0;;;C:\2023\REPSWITCH21092023\REPSWITCH_excgange\REPSWITCH_excgange\data/050103_REPSWITCH1_version1_list3_2023-11-16_13h44.09.201_micRespv1l3_recorded\recording_micRespv1l3_2023-11-16_13h51.01.696.wav;420.83940589998383;421.33949429995846;None;420.83940589998383;420.83940589998383;420.83940589998383;420.83940589998383;420.83940589998383;420.83940589998383;;;;;;050103;001;2023-11-16_13h44.09.201;REPSWITCH1_version1_list3;2022.2.4;143.94806357219196;
REPSWITCH1/PICTURE_719.png;baño;type;darkblue;switch;1;T;4;2;3;1;Stim2_Set4;0;None;87;86;87;0;86;86;86;;;;;;;;;;;;;;;;;;;;;;;421.33949429995846;422.44381039997097;422.44381039997097;422.44381039997097;422.44381039997097;422.44381039997097;422.44381039997097;422.44381039997097;422.44381039997097;['b', 'a', 'ñ', 'o'];0;[0.6883983999723569, 0.8040032000280917, 1.4398865000111982, 1.684071799973026];baño;C:\2023\REPSWITCH21092023\REPSWITCH_excgange\REPSWITCH_excgange\data/050103_REPSWITCH1_version1_list3_2023-11-16_13h44.09.201_micRespv1l3_recorded\recording_micRespv1l3_2023-11-16_13h51.06.320.wav;425.46502110001165;425.9651454000268;None;425.46502110001165;425.46502110001165;425.46502110001165;425.46502110001165;425.46502110001165;425.46502110001165;;;;;;050103;001;2023-11-16_13h44.09.201;REPSWITCH1_version1_list3;2022.2.4;143.94806357219196;
REPSWITCH1/PICTURE_320.png;iglesia;speak;gold;filler;2;F;4;2;3;1;Stim8_Set3;0;None;88;87;88;0;87;87;87;;;;;;;;;;;;;;;;;;;;;;;425.9651454000268;427.0902635999955;427.0902635999955;427.0902635999955;427.0902635999955;427.0902635999955;427.0902635999955;427.0902635999955;427.0902635999955;None;0;;;C:\2023\REPSWITCH21092023\REPSWITCH_excgange\REPSWITCH_excgange\data/050103_REPSWITCH1_version1_list3_2023-11-16_13h44.09.201_micRespv1l3_recorded\recording_micRespv1l3_2023-11-16_13h51.10.967.wav;430.1114672999829;430.6115562999621;None;430.1114672999829;430.1114672999829;430.1114672999829;430.1114672999829;430.1114672999829;430.1114672999829;;;;;;050103;001;2023-11-16_13h44.09.201;REPSWITCH1_version1_list3;2022.2.4;143.94806357219196;
REPSWITCH1/PICTURE_48.png;bombero;type;darkblue;nontarget;1;NT;4;2;3;1;Stim7_Set4;1;switch;89;88;89;0;88;88;88;;;;;;;;;;;;;;;;;;;;;;;430.6115562999621;431.6395080999937;431.6395080999937;431.6395080999937;431.6395080999937;431.6395080999937;431.6395080999937;431.6395080999937;431.6395080999937;['b', 'o', 'm', 'b', 'e', 'r', 'o'];0;[1.0404649999691173, 1.221174699952826, 1.7488408000208437, 1.971095799934119, 2.13489440002013, 2.43182329996489, 2.794898899970576];bombero;C:\2023\REPSWITCH21092023\REPSWITCH_excgange\REPSWITCH_excgange\data/050103_REPSWITCH1_version1_list3_2023-11-16_13h44.09.201_micRespv1l3_recorded\recording_micRespv1l3_2023-11-16_13h51.15.516.wav;434.66069809999317;435.1607659999281;None;434.66069809999317;434.66069809999317;434.66069809999317;434.66069809999317;434.66069809999317;434.66069809999317;;;;;;050103;001;2023-11-16_13h44.09.201;REPSWITCH1_version1_list3;2022.2.4;143.94806357219196;
REPSWITCH1/PICTURE_48.png;bombero;speak;gold;switch;2;T;4;2;3;1;Stim7_Set4;0;None;90;89;90;0;89;89;89;;;;;;;;;;;;;;;;;;;;;;;435.1607659999281;436.334556399961;436.334556399961;436.334556399961;436.334556399961;436.334556399961;436.334556399961;436.334556399961;436.334556399961;None;0;;;C:\2023\REPSWITCH21092023\REPSWITCH_excgange\REPSWITCH_excgange\data/050103_REPSWITCH1_version1_list3_2023-11-16_13h44.09.201_micRespv1l3_recorded\recording_micRespv1l3_2023-11-16_13h51.20.211.wav;439.3557189999847;439.85580599994864;None;439.3557189999847;439.3557189999847;439.3557189999847;439.3557189999847;439.3557189999847;439.3557189999847;;;;;;050103;001;2023-11-16_13h44.09.201;REPSWITCH1_version1_list3;2022.2.4;143.94806357219196;
REPSWITCH1/PICTURE_576.png;guante;type;darkblue;filler;1;F;4;2;3;1;Stim1_Set3;0;None;91;90;91;0;90;90;90;;;;;;;;;;;;;;;;;;;;;;;439.85580599994864;441.0365120000206;441.0365120000206;441.0365120000206;441.0365120000206;441.0365120000206;441.0365120000206;441.0365120000206;441.0365120000206;['g', 'u', 'a', 'n', 't', 'e'];0;[0.8458175999112427, 0.9874357999069616, 1.5556798999896273, 1.67623989994172, 1.89850349992048, 2.0264281999552622];guante;C:\2023\REPSWITCH21092023\REPSWITCH_excgange\REPSWITCH_excgange\data/050103_REPSWITCH1_version1_list3_2023-11-16_13h44.09.201_micRespv1l3_recorded\recording_micRespv1l3_2023-11-16_13h51.24.913.wav;444.0577357999282;444.557805199991;None;444.0577357999282;444.0577357999282;444.0577357999282;444.0577357999282;444.0577357999282;444.0577357999282;;;;;;050103;001;2023-11-16_13h44.09.201;REPSWITCH1_version1_list3;2022.2.4;143.94806357219196;
REPSWITCH1/PICTURE_271.png;conejo;speak;gold;filler;2;F;4;2;3;1;Stim7_Set3;0;None;92;91;92;0;91;91;91;;;;;;;;;;;;;;;;;;;;;;;444.557805199991;445.65523249993566;445.65523249993566;445.65523249993566;445.65523249993566;445.65523249993566;445.65523249993566;445.65523249993566;445.65523249993566;None;0;;;C:\2023\REPSWITCH21092023\REPSWITCH_excgange\REPSWITCH_excgange\data/050103_REPSWITCH1_version1_list3_2023-11-16_13h44.09.201_micRespv1l3_recorded\recording_micRespv1l3_2023-11-16_13h51.29.532.wav;448.68338149995543;;None;448.68338149995543;448.68338149995543;448.68338149995543;448.68338149995543;448.68338149995543;448.68338149995543;;;;;;050103;001;2023-11-16_13h44.09.201;REPSWITCH1_version1_list3;2022.2.4;143.94806357219196;
REPSWITCH1/PICTURE_319.png;vaca;speak;gold;nontarget;2;NT;4;2;3;1;Stim1_Set4;1;repeat;93;92;93;0;92;92;92;;;;;;;;;;;;;;;;;;;;;;;449.1834935999941;450.3293994999258;450.3293994999258;450.3293994999258;450.3293994999258;450.3293994999258;450.3293994999258;450.3293994999258;450.3293994999258;None;0;;;C:\2023\REPSWITCH21092023\REPSWITCH_excgange\REPSWITCH_excgange\data/050103_REPSWITCH1_version1_list3_2023-11-16_13h44.09.201_micRespv1l3_recorded\recording_micRespv1l3_2023-11-16_13h51.34.206.wav;453.3506594999926;453.8507080000127;None;453.3506594999926;453.3506594999926;453.3506594999926;453.3506594999926;453.3506594999926;453.3506594999926;;;;;;050103;001;2023-11-16_13h44.09.201;REPSWITCH1_version1_list3;2022.2.4;143.94806357219196;
REPSWITCH1/PICTURE_319.png;vaca;speak;gold;repeat;2;T;4;2;3;1;Stim1_Set4;0;None;94;93;94;0;93;93;93;;;;;;;;;;;;;;;;;;;;;;;453.8507080000127;454.96889319992624;454.96889319992624;454.96889319992624;454.96889319992624;454.96889319992624;454.96889319992624;454.96889319992624;454.96889319992624;None;0;;;C:\2023\REPSWITCH21092023\REPSWITCH_excgange\REPSWITCH_excgange\data/050103_REPSWITCH1_version1_list3_2023-11-16_13h44.09.201_micRespv1l3_recorded\recording_micRespv1l3_2023-11-16_13h51.38.846.wav;457.99708889995236;;None;457.99708889995236;457.99708889995236;457.99708889995236;457.99708889995236;457.99708889995236;457.99708889995236;;;;;;050103;001;2023-11-16_13h44.09.201;REPSWITCH1_version1_list3;2022.2.4;143.94806357219196;
REPSWITCH1/PICTURE_242.png;cartero;type;darkblue;filler;1;F;4;2;3;1;Stim3_Set3;0;None;95;94;95;0;94;94;94;;;;;;;;;;;;;;;;;;;;;;;458.49714689992834;459.5250818999484;459.5250818999484;459.5250818999484;459.5250818999484;459.5250818999484;459.5250818999484;459.5250818999484;459.5250818999484;['c', 'a', 'r', 't', 'e', 'r', 'o'];0;[0.9596318000694737, 1.1007850000169128, 1.1975047000451013, 1.6833135000197217, 1.8424186001066118, 1.9522183000808582, 2.2712405000347644];cartero;C:\2023\REPSWITCH21092023\REPSWITCH_excgange\REPSWITCH_excgange\data/050103_REPSWITCH1_version1_list3_2023-11-16_13h44.09.201_micRespv1l3_recorded\recording_micRespv1l3_2023-11-16_13h51.43.401.wav;462.54625240003224;463.0463142999215;None;462.54625240003224;462.54625240003224;462.54625240003224;462.54625240003224;462.54625240003224;462.54625240003224;;;;;;050103;001;2023-11-16_13h44.09.201;REPSWITCH1_version1_list3;2022.2.4;143.94806357219196;
REPSWITCH1/PICTURE_35.png;oreja;speak;gold;filler;2;F;4;2;3;1;Stim5_Set3;1;switch;96;95;96;0;95;95;95;;;;;;;;;;;;;;;;;;;;;;;463.0463142999215;464.13680320000276;464.13680320000276;464.13680320000276;464.13680320000276;464.13680320000276;464.13680320000276;464.13680320000276;464.13680320000276;None;0;;;C:\2023\REPSWITCH21092023\REPSWITCH_excgange\REPSWITCH_excgange\data/050103_REPSWITCH1_version1_list3_2023-11-16_13h44.09.201_micRespv1l3_recorded\recording_micRespv1l3_2023-11-16_13h51.48.014.wav;467.1579796000151;467.6580741999205;None;467.1579796000151;467.1579796000151;467.1579796000151;467.1579796000151;467.1579796000151;467.1579796000151;;;;;;050103;001;2023-11-16_13h44.09.201;REPSWITCH1_version1_list3;2022.2.4;143.94806357219196;
REPSWITCH1/PICTURE_338.png;regalo;speak;gold;nontarget;2;NT;4;2;3;1;Stim6_Set4;1;repeat;97;96;97;0;96;96;96;;;;;;;;;;;;;;;;;;;;;;;467.6580741999205;468.7485498000169;468.7485498000169;468.7485498000169;468.7485498000169;468.7485498000169;468.7485498000169;468.7485498000169;468.7485498000169;None;0;;;C:\2023\REPSWITCH21092023\REPSWITCH_excgange\REPSWITCH_excgange\data/050103_REPSWITCH1_version1_list3_2023-11-16_13h44.09.201_micRespv1l3_recorded\recording_micRespv1l3_2023-11-16_13h51.52.626.wav;471.7697198999813;472.26977789995726;None;471.7697198999813;471.7697198999813;471.7697198999813;471.7697198999813;471.7697198999813;471.7697198999813;;;;;;050103;001;2023-11-16_13h44.09.201;REPSWITCH1_version1_list3;2022.2.4;143.94806357219196;
REPSWITCH1/PICTURE_338.png;regalo;type;darkblue;switch;1;T;4;2;3;1;Stim6_Set4;0;None;98;97;98;0;97;97;97;;;;;;;;;;;;;;;;;;;;;;;472.26977789995726;473.33243419998325;473.33243419998325;473.33243419998325;473.33243419998325;473.33243419998325;473.33243419998325;473.33243419998325;473.33243419998325;['r', 'e', 'g', 'a', 'l', 'o'];0;[0.6322157999966294, 0.8815925000235438, 1.1606455000583082, 1.3500173999927938, 1.480573800043203, 1.6504636000609025];regalo;C:\2023\REPSWITCH21092023\REPSWITCH_excgange\REPSWITCH_excgange\data/050103_REPSWITCH1_version1_list3_2023-11-16_13h44.09.201_micRespv1l3_recorded\recording_micRespv1l3_2023-11-16_13h51.57.209.wav;476.35365469998214;476.8537223000312;None;476.35365469998214;476.35365469998214;476.35365469998214;476.35365469998214;476.35365469998214;476.35365469998214;;;;;;050103;001;2023-11-16_13h44.09.201;REPSWITCH1_version1_list3;2022.2.4;143.94806357219196;
REPSWITCH1/PICTURE_687.png;camisa;type;darkblue;nontarget;1;NT;4;2;3;1;Stim5_Set4;0;None;99;98;99;0;98;98;98;;;;;;;;;;;;;;;;;;;;;;;476.8537223000312;477.9857988000149;477.9857988000149;477.9857988000149;477.9857988000149;477.9857988000149;477.9857988000149;477.9857988000149;477.9857988000149;['c', 'a', 'm', 'i', 's', 'a'];0;[0.8910723000299186, 1.002661900012754, 1.1444398999447003, 1.2740084999240935, 1.374661699985154, 1.5851549999788404];camisa;C:\2023\REPSWITCH21092023\REPSWITCH_excgange\REPSWITCH_excgange\data/050103_REPSWITCH1_version1_list3_2023-11-16_13h44.09.201_micRespv1l3_recorded\recording_micRespv1l3_2023-11-16_13h52.01.862.wav;481.00701599998865;481.50709979992826;None;481.00701599998865;481.00701599998865;481.00701599998865;481.00701599998865;481.00701599998865;481.00701599998865;;;;;;050103;001;2023-11-16_13h44.09.201;REPSWITCH1_version1_list3;2022.2.4;143.94806357219196;
REPSWITCH1/PICTURE_687.png;camisa;type;darkblue;repeat;1;T;4;2;3;1;Stim5_Set4;0;None;100;99;100;0;99;99;99;;;;;;;;;;;;;;;;;;;;;;;481.50709979992826;482.5836430999916;482.5836430999916;482.5836430999916;482.5836430999916;482.5836430999916;482.5836430999916;482.5836430999916;482.5836430999916;['c', 'a', 'm', 'i', 's', 'a'];0;[0.8461726000532508, 0.9716658999677747, 1.111166900023818, 1.2338002000469714, 1.3364563999930397, 1.5516265999758616];camisa;C:\2023\REPSWITCH21092023\REPSWITCH_excgange\REPSWITCH_excgange\data/050103_REPSWITCH1_version1_list3_2023-11-16_13h44.09.201_micRespv1l3_recorded\recording_micRespv1l3_2023-11-16_13h52.06.461.wav;485.60489660000894;486.1048872999381;None;485.60489660000894;485.60489660000894;485.60489660000894;485.60489660000894;485.60489660000894;485.60489660000894;;;;;;050103;001;2023-11-16_13h44.09.201;REPSWITCH1_version1_list3;2022.2.4;143.94806357219196;
REPSWITCH1/PICTURE_340.png;espejo;speak;gold;filler;2;F;4;2;3;1;Extra1;0;None;101;100;101;0;100;100;100;;;;;;;;;;;;;;;;;;;;;;;486.1048872999381;487.25097659998573;487.25097659998573;487.25097659998573;487.25097659998573;487.25097659998573;487.25097659998573;487.25097659998573;487.25097659998573;None;0;;;C:\2023\REPSWITCH21092023\REPSWITCH_excgange\REPSWITCH_excgange\data/050103_REPSWITCH1_version1_list3_2023-11-16_13h44.09.201_micRespv1l3_recorded\recording_micRespv1l3_2023-11-16_13h52.11.129.wav;490.27910839999095;;None;490.27910839999095;490.27910839999095;490.27910839999095;490.27910839999095;490.27910839999095;490.27910839999095;;;;;;050103;001;2023-11-16_13h44.09.201;REPSWITCH1_version1_list3;2022.2.4;143.94806357219196;
REPSWITCH1/PICTURE_610.png;miel;type;darkblue;filler;1;F;4;2;3;1;Stim2_Set3;0;None;102;101;102;0;101;101;101;;;;;;;;;;;;;;;;;;;;;;;490.7791552999988;491.9321235999232;491.9321235999232;491.9321235999232;491.9321235999232;491.9321235999232;491.9321235999232;491.9321235999232;491.9321235999232;['m', 'i', 'e', 'l'];0;[1.3015612999442965, 1.4401012999005616, 1.5480820999946445, 1.6921727999579161];miel;C:\2023\REPSWITCH21092023\REPSWITCH_excgange\REPSWITCH_excgange\data/050103_REPSWITCH1_version1_list3_2023-11-16_13h44.09.201_micRespv1l3_recorded\recording_micRespv1l3_2023-11-16_13h52.15.809.wav;494.95330289995763;495.4533746999223;space;494.95330289995763;494.95330289995763;494.95330289995763;494.95330289995763;494.95330289995763;494.95330289995763;495.4533746999223;495.4533746999223;1.3336709999712184;;;050103;001;2023-11-16_13h44.09.201;REPSWITCH1_version1_list3;2022.2.4;143.94806357219196;
REPSWITCH1/PICTURE_8.png;pierna;type;darkblue;filler;1;F;1;4;3;1;Stim3_Set4;0;None;103;102;1;0;102;102;102;;;;;;;;;;;;;;;;;;;;;;;496.80077359999996;497.89120750001166;497.89120750001166;497.89120750001166;497.89120750001166;497.89120750001166;497.89120750001166;497.89120750001166;497.89120750001166;['p', 'i', 'e', 'r', 'n', 'a'];0;[0.8283480999525636, 1.018952599959448, 1.151514200028032, 1.2684566000243649, 1.5135822999291122, 1.6551583999535069];pierna;C:\2023\REPSWITCH21092023\REPSWITCH_excgange\REPSWITCH_excgange\data/050103_REPSWITCH1_version1_list3_2023-11-16_13h44.09.201_micRespv1l3_recorded\recording_micRespv1l3_2023-11-16_13h52.21.768.wav;500.91938330000266;;None;500.91938330000266;500.91938330000266;500.91938330000266;500.91938330000266;500.91938330000266;500.91938330000266;;;;;;050103;001;2023-11-16_13h44.09.201;REPSWITCH1_version1_list3;2022.2.4;143.94806357219196;
REPSWITCH1/PICTURE_498.png;taza;speak;gold;filler;2;F;1;4;3;1;Stim4_Set4;0;None;104;103;2;0;103;103;103;;;;;;;;;;;;;;;;;;;;;;;501.41942940000445;502.42651769996155;502.42651769996155;502.42651769996155;502.42651769996155;502.42651769996155;502.42651769996155;502.42651769996155;502.42651769996155;None;0;;;C:\2023\REPSWITCH21092023\REPSWITCH_excgange\REPSWITCH_excgange\data/050103_REPSWITCH1_version1_list3_2023-11-16_13h44.09.201_micRespv1l3_recorded\recording_micRespv1l3_2023-11-16_13h52.26.303.wav;505.45468580001034;;None;505.45468580001034;505.45468580001034;505.45468580001034;505.45468580001034;505.45468580001034;505.45468580001034;;;;;;050103;001;2023-11-16_13h44.09.201;REPSWITCH1_version1_list3;2022.2.4;143.94806357219196;
REPSWITCH1/PICTURE_19.png;pavo;speak;gold;nontarget;2;NT;1;4;3;1;Stim5_Set1;1;repeat;105;104;3;0;104;104;104;;;;;;;;;;;;;;;;;;;;;;;505.95474600000307;507.07293100003153;507.07293100003153;507.07293100003153;507.07293100003153;507.07293100003153;507.07293100003153;507.07293100003153;507.07293100003153;None;0;;;C:\2023\REPSWITCH21092023\REPSWITCH_excgange\REPSWITCH_excgange\data/050103_REPSWITCH1_version1_list3_2023-11-16_13h44.09.201_micRespv1l3_recorded\recording_micRespv1l3_2023-11-16_13h52.30.950.wav;510.09414289996494;510.59424270002637;None;510.09414289996494;510.09414289996494;510.09414289996494;510.09414289996494;510.09414289996494;510.09414289996494;;;;;;050103;001;2023-11-16_13h44.09.201;REPSWITCH1_version1_list3;2022.2.4;143.94806357219196;
REPSWITCH1/PICTURE_19.png;pavo;speak;gold;repeat;2;T;1;4;3;1;Stim5_Set1;0;None;106;105;4;0;105;105;105;;;;;;;;;;;;;;;;;;;;;;;510.59424270002637;511.6638862999389;511.6638862999389;511.6638862999389;511.6638862999389;511.6638862999389;511.6638862999389;511.6638862999389;511.6638862999389;None;0;;;C:\2023\REPSWITCH21092023\REPSWITCH_excgange\REPSWITCH_excgange\data/050103_REPSWITCH1_version1_list3_2023-11-16_13h44.09.201_micRespv1l3_recorded\recording_micRespv1l3_2023-11-16_13h52.35.541.wav;514.6850193999708;515.1851325000171;None;514.6850193999708;514.6850193999708;514.6850193999708;514.6850193999708;514.6850193999708;514.6850193999708;;;;;;050103;001;2023-11-16_13h44.09.201;REPSWITCH1_version1_list3;2022.2.4;143.94806357219196;
REPSWITCH1/PICTURE_319.png;vaca;type;darkblue;filler;1;F;1;4;3;1;Stim1_Set4;1;repeat;107;106;5;0;106;106;106;;;;;;;;;;;;;;;;;;;;;;;515.1851325000171;516.3311336999759;516.3311336999759;516.3311336999759;516.3311336999759;516.3311336999759;516.3311336999759;516.3311336999759;516.3311336999759;['v', 'a', 'c', 'a'];0;[0.9946950000012293, 1.1135978000238538, 1.2112451000139117, 1.3317651000106707];vaca;C:\2023\REPSWITCH21092023\REPSWITCH_excgange\REPSWITCH_excgange\data/050103_REPSWITCH1_version1_list3_2023-11-16_13h44.09.201_micRespv1l3_recorded\recording_micRespv1l3_2023-11-16_13h52.40.208.wav;519.3522977000102;519.8523981999606;None;519.3522977000102;519.3522977000102;519.3522977000102;519.3522977000102;519.3522977000102;519.3522977000102;;;;;;050103;001;2023-11-16_13h44.09.201;REPSWITCH1_version1_list3;2022.2.4;143.94806357219196;
REPSWITCH1/PICTURE_169.png;espalda;speak;gold;nontarget;2;NT;1;4;3;1;Stim8_Set1;1;switch;108;107;6;0;107;107;107;;;;;;;;;;;;;;;;;;;;;;;519.8523981999606;520.8803467999678;520.8803467999678;520.8803467999678;520.8803467999678;520.8803467999678;520.8803467999678;520.8803467999678;520.8803467999678;None;0;;;C:\2023\REPSWITCH21092023\REPSWITCH_excgange\REPSWITCH_excgange\data/050103_REPSWITCH1_version1_list3_2023-11-16_13h44.09.201_micRespv1l3_recorded\recording_micRespv1l3_2023-11-16_13h52.44.757.wav;523.9015456000343;524.4016074999236;None;523.9015456000343;523.9015456000343;523.9015456000343;523.9015456000343;523.9015456000343;523.9015456000343;;;;;;050103;001;2023-11-16_13h44.09.201;REPSWITCH1_version1_list3;2022.2.4;143.94806357219196;
REPSWITCH1/PICTURE_169.png;espalda;speak;gold;repeat;2;T;1;4;3;1;Stim8_Set1;0;None;109;108;7;0;108;108;108;;;;;;;;;;;;;;;;;;;;;;;524.4016074999236;525.4295243999222;525.4295243999222;525.4295243999222;525.4295243999222;525.4295243999222;525.4295243999222;525.4295243999222;525.4295243999222;None;0;;;C:\2023\REPSWITCH21092023\REPSWITCH_excgange\REPSWITCH_excgange\data/050103_REPSWITCH1_version1_list3_2023-11-16_13h44.09.201_micRespv1l3_recorded\recording_micRespv1l3_2023-11-16_13h52.49.306.wav;528.4508112999611;528.9507891000248;None;528.4508112999611;528.4508112999611;528.4508112999611;528.4508112999611;528.4508112999611;528.4508112999611;;;;;;050103;001;2023-11-16_13h44.09.201;REPSWITCH1_version1_list3;2022.2.4;143.94806357219196;
REPSWITCH1/PICTURE_728.png;pulpo;type;darkblue;filler;1;F;1;4;3;1;Stim8_Set4;0;None;110;109;8;0;109;109;109;;;;;;;;;;;;;;;;;;;;;;;528.9507891000248;530.0273988000117;530.0273988000117;530.0273988000117;530.0273988000117;530.0273988000117;530.0273988000117;530.0273988000117;530.0273988000117;['p', 'u', 'l', 'p', 'o'];0;[0.8334184000268579, 1.0531521999510005, 1.2775550000369549, 1.5051442999392748, 1.6675737999612466];pulpo;C:\2023\REPSWITCH21092023\REPSWITCH_excgange\REPSWITCH_excgange\data/050103_REPSWITCH1_version1_list3_2023-11-16_13h44.09.201_micRespv1l3_recorded\recording_micRespv1l3_2023-11-16_13h52.53.905.wav;533.0485523999669;533.5486336000031;None;533.0485523999669;533.0485523999669;533.0485523999669;533.0485523999669;533.0485523999669;533.0485523999669;;;;;;050103;001;2023-11-16_13h44.09.201;REPSWITCH1_version1_list3;2022.2.4;143.94806357219196;
REPSWITCH1/PICTURE_142.png;vaso;speak;gold;nontarget;2;NT;1;4;3;1;Stim7_Set1;1;switch;111;110;9;0;110;110;110;;;;;;;;;;;;;;;;;;;;;;;533.5486336000031;534.6460012999596;534.6460012999596;534.6460012999596;534.6460012999596;534.6460012999596;534.6460012999596;534.6460012999596;534.6460012999596;None;0;;;C:\2023\REPSWITCH21092023\REPSWITCH_excgange\REPSWITCH_excgange\data/050103_REPSWITCH1_version1_list3_2023-11-16_13h44.09.201_micRespv1l3_recorded\recording_micRespv1l3_2023-11-16_13h52.58.522.wav;537.6672353999456;538.1672974999528;None;537.6672353999456;537.6672353999456;537.6672353999456;537.6672353999456;537.6672353999456;537.6672353999456;;;;;;050103;001;2023-11-16_13h44.09.201;REPSWITCH1_version1_list3;2022.2.4;143.94806357219196;
REPSWITCH1/PICTURE_142.png;vaso;type;darkblue;switch;1;T;1;4;3;1;Stim7_Set1;0;None;112;111;10;0;111;111;111;;;;;;;;;;;;;;;;;;;;;;;538.1672974999528;539.2785385999596;539.2785385999596;539.2785385999596;539.2785385999596;539.2785385999596;539.2785385999596;539.2785385999596;539.2785385999596;['v', 'a', 's', 'o'];0;[1.0856579000828788, 1.180348900030367, 1.3796787000028417, 1.516230900073424];vaso;C:\2023\REPSWITCH21092023\REPSWITCH_excgange\REPSWITCH_excgange\data/050103_REPSWITCH1_version1_list3_2023-11-16_13h44.09.201_micRespv1l3_recorded\recording_micRespv1l3_2023-11-16_13h53.03.155.wav;542.2998249999946;542.7998224999756;None;542.2998249999946;542.2998249999946;542.2998249999946;542.2998249999946;542.2998249999946;542.2998249999946;;;;;;050103;001;2023-11-16_13h44.09.201;REPSWITCH1_version1_list3;2022.2.4;143.94806357219196;
REPSWITCH1/PICTURE_338.png;regalo;type;darkblue;filler;1;F;1;4;3;1;Stim6_Set4;1;repeat;113;112;11;0;112;112;112;;;;;;;;;;;;;;;;;;;;;;;542.7998224999756;543.9319848000305;543.9319848000305;543.9319848000305;543.9319848000305;543.9319848000305;543.9319848000305;543.9319848000305;543.9319848000305;['r', 'e', 'g', 'a', 'l', 'o'];0;[0.7823620999697596, 0.9168616000097245, 1.1961111999116838, 1.3396283999318257, 1.4592341999523342, 1.6299223999958485];regalo;C:\2023\REPSWITCH21092023\REPSWITCH_excgange\REPSWITCH_excgange\data/050103_REPSWITCH1_version1_list3_2023-11-16_13h44.09.201_micRespv1l3_recorded\recording_micRespv1l3_2023-11-16_13h53.07.809.wav;546.9531740000239;547.4532337000128;None;546.9531740000239;546.9531740000239;546.9531740000239;546.9531740000239;546.9531740000239;546.9531740000239;;;;;;050103;001;2023-11-16_13h44.09.201;REPSWITCH1_version1_list3;2022.2.4;143.94806357219196;
REPSWITCH1/PICTURE_135.png;traje;type;darkblue;nontarget;1;NT;1;4;3;1;Stim3_Set1;1;repeat;114;113;12;0;113;113;113;;;;;;;;;;;;;;;;;;;;;;;547.4532337000128;548.6200384999393;548.6200384999393;548.6200384999393;548.6200384999393;548.6200384999393;548.6200384999393;548.6200384999393;548.6200384999393;['t', 'r', 'a', 'j', 'e'];0;[0.7565361999440938, 0.909989699954167, 1.035567699931562, 1.2938084999332204, 1.421377999940887];traje;C:\2023\REPSWITCH21092023\REPSWITCH_excgange\REPSWITCH_excgange\data/050103_REPSWITCH1_version1_list3_2023-11-16_13h44.09.201_micRespv1l3_recorded\recording_micRespv1l3_2023-11-16_13h53.12.497.wav;551.6413516999455;552.1414191999938;None;551.6413516999455;551.6413516999455;551.6413516999455;551.6413516999455;551.6413516999455;551.6413516999455;;;;;;050103;001;2023-11-16_13h44.09.201;REPSWITCH1_version1_list3;2022.2.4;143.94806357219196;
REPSWITCH1/PICTURE_135.png;traje;speak;gold;switch;2;T;1;4;3;1;Stim3_Set1;0;None;115;114;13;0;114;114;114;;;;;;;;;;;;;;;;;;;;;;;552.1414191999938;553.1901278999867;553.1901278999867;553.1901278999867;553.1901278999867;553.1901278999867;553.1901278999867;553.1901278999867;553.1901278999867;None;0;;;C:\2023\REPSWITCH21092023\REPSWITCH_excgange\REPSWITCH_excgange\data/050103_REPSWITCH1_version1_list3_2023-11-16_13h44.09.201_micRespv1l3_recorded\recording_micRespv1l3_2023-11-16_13h53.17.068.wav;556.2182845999487;556.7183564000297;None;556.2182845999487;556.2182845999487;556.2182845999487;556.2182845999487;556.2182845999487;556.2182845999487;;;;;;050103;001;2023-11-16_13h44.09.201;REPSWITCH1_version1_list3;2022.2.4;143.94806357219196;
REPSWITCH1/PICTURE_381.png;fresa;speak;gold;nontarget;2;NT;1;4;3;1;Stim2_Set1;1;repeat;116;115;14;0;115;115;115;;;;;;;;;;;;;;;;;;;;;;;556.7183564000297;557.7392965999898;557.7392965999898;557.7392965999898;557.7392965999898;557.7392965999898;557.7392965999898;557.7392965999898;557.7392965999898;None;0;;;C:\2023\REPSWITCH21092023\REPSWITCH_excgange\REPSWITCH_excgange\data/050103_REPSWITCH1_version1_list3_2023-11-16_13h44.09.201_micRespv1l3_recorded\recording_micRespv1l3_2023-11-16_13h53.21.615.wav;560.7605357000139;561.2606037999503;None;560.7605357000139;560.7605357000139;560.7605357000139;560.7605357000139;560.7605357000139;560.7605357000139;;;;;;050103;001;2023-11-16_13h44.09.201;REPSWITCH1_version1_list3;2022.2.4;143.94806357219196;
REPSWITCH1/PICTURE_381.png;fresa;type;darkblue;switch;1;T;1;4;3;1;Stim2_Set1;0;None;117;116;15;0;116;116;116;;;;;;;;;;;;;;;;;;;;;;;561.2606037999503;562.4135473999195;562.4135473999195;562.4135473999195;562.4135473999195;562.4135473999195;562.4135473999195;562.4135473999195;562.4135473999195;['f', 'r', 'e', 's', 'a'];0;[0.9651085999794304, 1.1136381999822333, 1.2501626999583095, 1.4624739999417216, 1.6593927999492735];fresa;C:\2023\REPSWITCH21092023\REPSWITCH_excgange\REPSWITCH_excgange\data/050103_REPSWITCH1_version1_list3_2023-11-16_13h44.09.201_micRespv1l3_recorded\recording_micRespv1l3_2023-11-16_13h53.26.290.wav;565.4347546999343;565.9347834999207;None;565.4347546999343;565.4347546999343;565.4347546999343;565.4347546999343;565.4347546999343;565.4347546999343;;;;;;050103;001;2023-11-16_13h44.09.201;REPSWITCH1_version1_list3;2022.2.4;143.94806357219196;
REPSWITCH1/PICTURE_48.png;bombero;type;darkblue;filler;1;F;1;4;3;1;Stim7_Set4;0;None;118;117;16;0;117;117;117;;;;;;;;;;;;;;;;;;;;;;;565.9347834999207;567.0252922999207;567.0252922999207;567.0252922999207;567.0252922999207;567.0252922999207;567.0252922999207;567.0252922999207;567.0252922999207;['b', 'o', 'm', 'n', 'backspace', 'b', 'e', 'r', 'o'];0;[0.9454536000266671, 1.1138384999940172, 1.3423848000820726, 1.6583324000239372, 2.218182999989949, 2.4633602000540122, 2.573351100087166, 2.7593355000717565, 2.8750489000231028];bombero;C:\2023\REPSWITCH21092023\REPSWITCH_excgange\REPSWITCH_excgange\data/050103_REPSWITCH1_version1_list3_2023-11-16_13h44.09.201_micRespv1l3_recorded\recording_micRespv1l3_2023-11-16_13h53.30.902.wav;570.0464479000075;570.54653339996;None;570.0464479000075;570.0464479000075;570.0464479000075;570.0464479000075;570.0464479000075;570.0464479000075;;;;;;050103;001;2023-11-16_13h44.09.201;REPSWITCH1_version1_list3;2022.2.4;143.94806357219196;
REPSWITCH1/PICTURE_687.png;camisa;speak;gold;filler;2;F;1;4;3;1;Stim5_Set4;0;None;119;118;17;0;118;118;118;;;;;;;;;;;;;;;;;;;;;;;570.54653339996;571.6369521999732;571.6369521999732;571.6369521999732;571.6369521999732;571.6369521999732;571.6369521999732;571.6369521999732;571.6369521999732;None;0;;;C:\2023\REPSWITCH21092023\REPSWITCH_excgange\REPSWITCH_excgange\data/050103_REPSWITCH1_version1_list3_2023-11-16_13h44.09.201_micRespv1l3_recorded\recording_micRespv1l3_2023-11-16_13h53.35.514.wav;574.6651276999619;;None;574.6651276999619;574.6651276999619;574.6651276999619;574.6651276999619;574.6651276999619;574.6651276999619;;;;;;050103;001;2023-11-16_13h44.09.201;REPSWITCH1_version1_list3;2022.2.4;143.94806357219196;
REPSWITCH1/PICTURE_128.png;muñeca;type;darkblue;nontarget;1;NT;1;4;3;1;Stim4_Set1;0;None;120;119;18;0;119;119;119;;;;;;;;;;;;;;;;;;;;;;;575.1651954000117;576.2278594999807;576.2278594999807;576.2278594999807;576.2278594999807;576.2278594999807;576.2278594999807;576.2278594999807;576.2278594999807;['m', 'u', 'ñ', 'e', 'c', 'a'];0;[1.013649299973622, 1.2189496000064537, 1.6924593000439927, 1.8469317000126466, 2.055536500061862, 2.1773246000520885];muñeca;C:\2023\REPSWITCH21092023\REPSWITCH_excgange\REPSWITCH_excgange\data/050103_REPSWITCH1_version1_list3_2023-11-16_13h44.09.201_micRespv1l3_recorded\recording_micRespv1l3_2023-11-16_13h53.40.105.wav;579.256042700028;;None;579.256042700028;579.256042700028;579.256042700028;579.256042700028;579.256042700028;579.256042700028;;;;;;050103;001;2023-11-16_13h44.09.201;REPSWITCH1_version1_list3;2022.2.4;143.94806357219196;
