image,correctAns,respModal,frameColor,repSwitch,sequence,target,set,block,list,exp_version,stimulus,baseline,baseline_condition,trial_no,psychopy_trial,Column1,trialsREPSWITCH.thisRepN,trialsREPSWITCH.thisTrialN,trialsREPSWITCH.thisN,trialsREPSWITCH.thisIndex,textWelcome.started,textboxInstrMain1.started,textboxInstrMain1_2.started,textboxInstrMain1_3.started,keyInstrMain.started,keyInstrMain.keys,keyInstrMain.rt,textboxInstrMain2.started,textboxInstrMain2_2.started,textboxInstrMain2_3.started,textboxInstrMain2_4.started,textboxInstrMain2_5.started,textboxInstrMain2_6.started,textboxInstrMain2_7.started,textboxInstrMain2_8.started,textboxInstrMain2_9.started,textboxInstrMain2_10.started,textboxInstrMain2_11.started,textboxInstrMain2_12.started,keyInstrMain2.started,keyInstrMain2.keys,keyInstrMain2.rt,fixationITI.started,fixationITI.stopped,polygonColour.started,polygonWhite.started,imageObject.started,polygonType.started,textInput.started,keyResp.started,micRespv2l3.started,keyResp.keys,keyResp.corr,keyResp.rt,subjResponse,micRespv2l3.clip,textBlankLoop.started,textBlankLoop.stopped,keyPause.keys,polygonColour.stopped,polygonWhite.stopped,imageObject.stopped,polygonType.stopped,textInput.stopped,keyResp.stopped,textboxPause.started,keyPause.started,keyPause.rt,textboxGoodbye.started,textboxGoodbye.stopped,participant,session,date,expName,psychopyVersion,frameRate,
,,,,,,,,,,,,,,,,,,,,,9.89525349996984,12.390027399989776,12.390027399989776,12.390027399989776,12.390027399989776,space,8.229762300034054,,,,,,,,,,,,,,,,,,,,,,,,,,,,,,,,,,,,,,,,,,,,060203,001,2023-11-16_16h41.00.284,REPSWITCH1_version2_list3,2022.2.4,143.96277688867937,
,,,,,,,,,,,,,,,,,,,,,,,,,,,,20.63417709991336,20.63417709991336,20.63417709991336,20.63417709991336,20.63417709991336,20.63417709991336,20.63417709991336,20.63417709991336,20.63417709991336,20.63417709991336,20.63417709991336,20.63417709991336,20.63417709991336,space,1.9659997000126168,,,,,,,,,,,,,,,,,,,,,,,,,,,,,060203,001,2023-11-16_16h41.00.284,REPSWITCH1_version2_list3,2022.2.4,143.96277688867937,
REPSWITCH1/PICTURE_663.png,columna,type,gold,filler,1,F,1,2,3,2,Extra6,0,None,1,0,1,0,0,0,0,,,,,,,,,,,,,,,,,,,,,,,22.69695079990197,23.84294159989804,23.84294159989804,23.84294159989804,23.84294159989804,23.84294159989804,23.84294159989804,23.84294159989804,23.84294159989804,"['c', 'o', 'l', 'u', 'm', 'n', 'a']",0,"[1.3583242000313476, 1.5337385999737307, 1.72509279998485, 2.017960299970582, 2.2461951000150293, 2.4356107000494376, 2.5940832999767736]",columna,C:\2023\REPSWITCH21092023\REPSWITCH_excgange\REPSWITCH_excgange\data/060203_REPSWITCH1_version2_list3_2023-11-16_16h41.00.284_micRespv2l3_recorded\recording_micRespv2l3_2023-11-16_16h41.19.108.wav,26.864145300001837,27.364218199974857,None,,,,,,,,,,,,060203,001,2023-11-16_16h41.00.284,REPSWITCH1_version2_list3,2022.2.4,143.96277688867937,
REPSWITCH1/PICTURE_128.png,muñeca,speak,darkblue,nontarget,2,NT,1,2,3,2,Stim4_Set1,1,switch,2,1,2,0,1,1,1,,,,,,,,,,,,,,,,,,,,,,,27.364218199974857,28.419955599936657,28.419955599936657,28.419955599936657,28.419955599936657,28.419955599936657,28.419955599936657,28.419955599936657,28.419955599936657,None,0,,,C:\2023\REPSWITCH21092023\REPSWITCH_excgange\REPSWITCH_excgange\data/060203_REPSWITCH1_version2_list3_2023-11-16_16h41.00.284_micRespv2l3_recorded\recording_micRespv2l3_2023-11-16_16h41.23.690.wav,31.448067399905995,,None,31.448067399905995,31.448067399905995,31.448067399905995,31.448067399905995,31.448067399905995,31.448067399905995,,,,,,060203,001,2023-11-16_16h41.00.284,REPSWITCH1_version2_list3,2022.2.4,143.96277688867937,
REPSWITCH1/PICTURE_128.png,muñeca,speak,darkblue,repeat,2,T,1,2,3,2,Stim4_Set1,0,None,3,2,3,0,2,2,2,,,,,,,,,,,,,,,,,,,,,,,31.948145699920133,33.09413409989793,33.09413409989793,33.09413409989793,33.09413409989793,33.09413409989793,33.09413409989793,33.09413409989793,33.09413409989793,None,0,,,C:\2023\REPSWITCH21092023\REPSWITCH_excgange\REPSWITCH_excgange\data/060203_REPSWITCH1_version2_list3_2023-11-16_16h41.00.284_micRespv2l3_recorded\recording_micRespv2l3_2023-11-16_16h41.28.363.wav,36.115369899896905,36.61545399995521,None,36.115369899896905,36.115369899896905,36.115369899896905,36.115369899896905,36.115369899896905,36.115369899896905,,,,,,060203,001,2023-11-16_16h41.00.284,REPSWITCH1_version2_list3,2022.2.4,143.96277688867937,
REPSWITCH1/PICTURE_8.png,pierna,type,gold,filler,1,F,1,2,3,2,Stim3_Set4,0,None,4,3,4,0,3,3,3,,,,,,,,,,,,,,,,,,,,,,,36.61545399995521,37.64333369990345,37.64333369990345,37.64333369990345,37.64333369990345,37.64333369990345,37.64333369990345,37.64333369990345,37.64333369990345,"['p', 'i', 'e', 'r', 'n', 'a']",0,"[0.9577113999985158, 1.1817755999509245, 1.288552699959837, 1.3924195999279618, 1.5917903999798, 1.659562399960123]",pierna,C:\2023\REPSWITCH21092023\REPSWITCH_excgange\REPSWITCH_excgange\data/060203_REPSWITCH1_version2_list3_2023-11-16_16h41.00.284_micRespv2l3_recorded\recording_micRespv2l3_2023-11-16_16h41.32.913.wav,40.66456899989862,41.16470490000211,None,40.66456899989862,40.66456899989862,40.66456899989862,40.66456899989862,40.66456899989862,40.66456899989862,,,,,,060203,001,2023-11-16_16h41.00.284,REPSWITCH1_version2_list3,2022.2.4,143.96277688867937,
REPSWITCH1/PICTURE_135.png,traje,speak,darkblue,nontarget,2,NT,1,2,3,2,Stim3_Set1,1,switch,5,4,5,0,4,4,4,,,,,,,,,,,,,,,,,,,,,,,41.16470490000211,42.213391199940816,42.213391199940816,42.213391199940816,42.213391199940816,42.213391199940816,42.213391199940816,42.213391199940816,42.213391199940816,None,0,,,C:\2023\REPSWITCH21092023\REPSWITCH_excgange\REPSWITCH_excgange\data/060203_REPSWITCH1_version2_list3_2023-11-16_16h41.00.284_micRespv2l3_recorded\recording_micRespv2l3_2023-11-16_16h41.37.483.wav,45.23457099997904,45.734669799916446,None,45.23457099997904,45.23457099997904,45.23457099997904,45.23457099997904,45.23457099997904,45.23457099997904,,,,,,060203,001,2023-11-16_16h41.00.284,REPSWITCH1_version2_list3,2022.2.4,143.96277688867937,
REPSWITCH1/PICTURE_135.png,traje,speak,darkblue,repeat,2,T,1,2,3,2,Stim3_Set1,0,None,6,5,6,0,5,5,5,,,,,,,,,,,,,,,,,,,,,,,45.734669799916446,46.74174819991458,46.74174819991458,46.74174819991458,46.74174819991458,46.74174819991458,46.74174819991458,46.74174819991458,46.74174819991458,None,0,,,C:\2023\REPSWITCH21092023\REPSWITCH_excgange\REPSWITCH_excgange\data/060203_REPSWITCH1_version2_list3_2023-11-16_16h41.00.284_micRespv2l3_recorded\recording_micRespv2l3_2023-11-16_16h41.42.011.wav,49.76294029993005,50.26309989998117,None,49.76294029993005,49.76294029993005,49.76294029993005,49.76294029993005,49.76294029993005,49.76294029993005,,,,,,060203,001,2023-11-16_16h41.00.284,REPSWITCH1_version2_list3,2022.2.4,143.96277688867937,
REPSWITCH1/PICTURE_673.png,tenedor,type,gold,filler,1,F,1,2,3,2,Extra5,0,None,7,6,7,0,6,6,6,,,,,,,,,,,,,,,,,,,,,,,50.26309989998117,51.44377659994643,51.44377659994643,51.44377659994643,51.44377659994643,51.44377659994643,51.44377659994643,51.44377659994643,51.44377659994643,"['t', 'e', 'n', 'e', 'd', 'o', 'r']",0,"[0.7787072999635711, 0.9966474999673665, 1.1432133000344038, 1.2797003000741825, 1.552824700018391, 1.7912830000277609, 1.943790000048466]",tenedor,C:\2023\REPSWITCH21092023\REPSWITCH_excgange\REPSWITCH_excgange\data/060203_REPSWITCH1_version2_list3_2023-11-16_16h41.00.284_micRespv2l3_recorded\recording_micRespv2l3_2023-11-16_16h41.46.713.wav,54.46495429996867,54.96511379990261,None,54.46495429996867,54.46495429996867,54.46495429996867,54.46495429996867,54.46495429996867,54.46495429996867,,,,,,060203,001,2023-11-16_16h41.00.284,REPSWITCH1_version2_list3,2022.2.4,143.96277688867937,
REPSWITCH1/PICTURE_728.png,pulpo,speak,darkblue,filler,2,F,1,2,3,2,Stim8_Set4,0,None,8,7,8,0,7,7,7,,,,,,,,,,,,,,,,,,,,,,,54.96511379990261,55.97213149990421,55.97213149990421,55.97213149990421,55.97213149990421,55.97213149990421,55.97213149990421,55.97213149990421,55.97213149990421,None,0,,,C:\2023\REPSWITCH21092023\REPSWITCH_excgange\REPSWITCH_excgange\data/060203_REPSWITCH1_version2_list3_2023-11-16_16h41.00.284_micRespv2l3_recorded\recording_micRespv2l3_2023-11-16_16h41.51.242.wav,59.00027949991636,,None,59.00027949991636,59.00027949991636,59.00027949991636,59.00027949991636,59.00027949991636,59.00027949991636,,,,,,060203,001,2023-11-16_16h41.00.284,REPSWITCH1_version2_list3,2022.2.4,143.96277688867937,
REPSWITCH1/PICTURE_16.png,cazador,speak,darkblue,nontarget,2,NT,1,2,3,2,Stim6_Set1,1,repeat,9,8,9,0,8,8,8,,,,,,,,,,,,,,,,,,,,,,,59.50033869990148,60.590792699949816,60.590792699949816,60.590792699949816,60.590792699949816,60.590792699949816,60.590792699949816,60.590792699949816,60.590792699949816,None,0,,,C:\2023\REPSWITCH21092023\REPSWITCH_excgange\REPSWITCH_excgange\data/060203_REPSWITCH1_version2_list3_2023-11-16_16h41.00.284_micRespv2l3_recorded\recording_micRespv2l3_2023-11-16_16h41.55.860.wav,63.611982799950056,64.11207469995134,None,63.611982799950056,63.611982799950056,63.611982799950056,63.611982799950056,63.611982799950056,63.611982799950056,,,,,,060203,001,2023-11-16_16h41.00.284,REPSWITCH1_version2_list3,2022.2.4,143.96277688867937,
REPSWITCH1/PICTURE_16.png,cazador,type,gold,switch,1,T,1,2,3,2,Stim6_Set1,0,None,10,9,10,0,9,9,9,,,,,,,,,,,,,,,,,,,,,,,64.11207469995134,65.23721379996277,65.23721379996277,65.23721379996277,65.23721379996277,65.23721379996277,65.23721379996277,65.23721379996277,65.23721379996277,"['c', 'a', 'z', 'a', 'd', 'o', 'r']",0,"[0.6308329999446869, 0.9673552999738604, 1.4312312999973074, 1.642265300033614, 1.7817833999870345, 2.8259891000343487, 2.8917687999783084]",cazador,C:\2023\REPSWITCH21092023\REPSWITCH_excgange\REPSWITCH_excgange\data/060203_REPSWITCH1_version2_list3_2023-11-16_16h41.00.284_micRespv2l3_recorded\recording_micRespv2l3_2023-11-16_16h42.00.506.wav,68.26543109992053,,None,68.26543109992053,68.26543109992053,68.26543109992053,68.26543109992053,68.26543109992053,68.26543109992053,,,,,,060203,001,2023-11-16_16h41.00.284,REPSWITCH1_version2_list3,2022.2.4,143.96277688867937,
REPSWITCH1/PICTURE_498.png,taza,type,gold,filler,1,F,1,2,3,2,Stim4_Set4,1,repeat,11,10,11,0,10,10,10,,,,,,,,,,,,,,,,,,,,,,,68.76552419993095,69.81421839992981,69.81421839992981,69.81421839992981,69.81421839992981,69.81421839992981,69.81421839992981,69.81421839992981,69.81421839992981,"['t', 'a', 'a', 'z', 'a']",0,"[0.9933841000311077, 1.2813431000104174, 2.0275216000154614, 2.4555354000767693, 2.6389378000749275]",taaza,C:\2023\REPSWITCH21092023\REPSWITCH_excgange\REPSWITCH_excgange\data/060203_REPSWITCH1_version2_list3_2023-11-16_16h41.00.284_micRespv2l3_recorded\recording_micRespv2l3_2023-11-16_16h42.05.083.wav,72.83543879992794,73.33549519989174,None,72.83543879992794,72.83543879992794,72.83543879992794,72.83543879992794,72.83543879992794,72.83543879992794,,,,,,060203,001,2023-11-16_16h41.00.284,REPSWITCH1_version2_list3,2022.2.4,143.96277688867937,
REPSWITCH1/PICTURE_381.png,fresa,type,gold,nontarget,1,NT,1,2,3,2,Stim2_Set1,1,repeat,12,11,12,0,11,11,11,,,,,,,,,,,,,,,,,,,,,,,73.33549519989174,74.5231362999184,74.5231362999184,74.5231362999184,74.5231362999184,74.5231362999184,74.5231362999184,74.5231362999184,74.5231362999184,"['f', 'r', 'e', 's', 'a']",0,"[0.9863658000249416, 1.1339028000365943, 1.4113743000198156, 1.6564992000348866, 1.8187284000450745]",fresa,C:\2023\REPSWITCH21092023\REPSWITCH_excgange\REPSWITCH_excgange\data/060203_REPSWITCH1_version2_list3_2023-11-16_16h41.00.284_micRespv2l3_recorded\recording_micRespv2l3_2023-11-16_16h42.09.792.wav,77.54438119998667,78.04440719995182,None,77.54438119998667,77.54438119998667,77.54438119998667,77.54438119998667,77.54438119998667,77.54438119998667,,,,,,060203,001,2023-11-16_16h41.00.284,REPSWITCH1_version2_list3,2022.2.4,143.96277688867937,
REPSWITCH1/PICTURE_381.png,fresa,speak,darkblue,switch,2,T,1,2,3,2,Stim2_Set1,0,None,13,12,13,0,12,12,12,,,,,,,,,,,,,,,,,,,,,,,78.04440719995182,79.12104329990689,79.12104329990689,79.12104329990689,79.12104329990689,79.12104329990689,79.12104329990689,79.12104329990689,79.12104329990689,None,0,,,C:\2023\REPSWITCH21092023\REPSWITCH_excgange\REPSWITCH_excgange\data/060203_REPSWITCH1_version2_list3_2023-11-16_16h41.00.284_micRespv2l3_recorded\recording_micRespv2l3_2023-11-16_16h42.14.390.wav,82.14912889990956,,None,82.14912889990956,82.14912889990956,82.14912889990956,82.14912889990956,82.14912889990956,82.14912889990956,,,,,,060203,001,2023-11-16_16h41.00.284,REPSWITCH1_version2_list3,2022.2.4,143.96277688867937,
REPSWITCH1/PICTURE_178.png,puente,speak,darkblue,nontarget,2,NT,1,2,3,2,Stim1_Set1,0,None,14,13,14,0,13,13,13,,,,,,,,,,,,,,,,,,,,,,,82.64921119995415,83.79525719990488,83.79525719990488,83.79525719990488,83.79525719990488,83.79525719990488,83.79525719990488,83.79525719990488,83.79525719990488,None,0,,,C:\2023\REPSWITCH21092023\REPSWITCH_excgange\REPSWITCH_excgange\data/060203_REPSWITCH1_version2_list3_2023-11-16_16h41.00.284_micRespv2l3_recorded\recording_micRespv2l3_2023-11-16_16h42.19.065.wav,86.81642950000241,87.3164928999031,None,86.81642950000241,86.81642950000241,86.81642950000241,86.81642950000241,86.81642950000241,86.81642950000241,,,,,,060203,001,2023-11-16_16h41.00.284,REPSWITCH1_version2_list3,2022.2.4,143.96277688867937,
REPSWITCH1/PICTURE_178.png,puente,type,gold,switch,1,T,1,2,3,2,Stim1_Set1,0,None,15,14,15,0,14,14,14,,,,,,,,,,,,,,,,,,,,,,,87.3164928999031,88.36526519991457,88.36526519991457,88.36526519991457,88.36526519991457,88.36526519991457,88.36526519991457,88.36526519991457,88.36526519991457,"['p', 'u', 'e', 's', 'n', 't', 'e']",0,"[0.9639705000445247, 1.309825300006196, 1.4662767000263557, 1.704500799998641, 2.0135186000261456, 2.205781399970874, 2.4131131999893114]",puesnte,C:\2023\REPSWITCH21092023\REPSWITCH_excgange\REPSWITCH_excgange\data/060203_REPSWITCH1_version2_list3_2023-11-16_16h41.00.284_micRespv2l3_recorded\recording_micRespv2l3_2023-11-16_16h42.23.635.wav,91.38646529999096,91.8865313999122,None,91.38646529999096,91.38646529999096,91.38646529999096,91.38646529999096,91.38646529999096,91.38646529999096,,,,,,060203,001,2023-11-16_16h41.00.284,REPSWITCH1_version2_list3,2022.2.4,143.96277688867937,
REPSWITCH1/PICTURE_719.png,baño,speak,darkblue,filler,2,F,1,2,3,2,Stim2_Set4,0,None,16,15,16,0,15,15,15,,,,,,,,,,,,,,,,,,,,,,,91.8865313999122,93.10197629989125,93.10197629989125,93.10197629989125,93.10197629989125,93.10197629989125,93.10197629989125,93.10197629989125,93.10197629989125,None,0,,,C:\2023\REPSWITCH21092023\REPSWITCH_excgange\REPSWITCH_excgange\data/060203_REPSWITCH1_version2_list3_2023-11-16_16h41.00.284_micRespv2l3_recorded\recording_micRespv2l3_2023-11-16_16h42.28.372.wav,96.12319429998752,96.62325839989353,None,96.12319429998752,96.12319429998752,96.12319429998752,96.12319429998752,96.12319429998752,96.12319429998752,,,,,,060203,001,2023-11-16_16h41.00.284,REPSWITCH1_version2_list3,2022.2.4,143.96277688867937,
REPSWITCH1/PICTURE_169.png,espalda,type,gold,nontarget,1,NT,1,2,3,2,Stim8_Set1,1,switch,17,16,17,0,16,16,16,,,,,,,,,,,,,,,,,,,,,,,96.62325839989353,97.78312229993753,97.78312229993753,97.78312229993753,97.78312229993753,97.78312229993753,97.78312229993753,97.78312229993753,97.78312229993753,"['e', 's', 'p', 'a', 'l', 'd', 'a']",0,"[0.7681770999915898, 1.0043848999775946, 1.2407277000602335, 1.467016400070861, 1.6157592000672594, 1.7543185000540689, 2.0234398000175133]",espalda,C:\2023\REPSWITCH21092023\REPSWITCH_excgange\REPSWITCH_excgange\data/060203_REPSWITCH1_version2_list3_2023-11-16_16h41.00.284_micRespv2l3_recorded\recording_micRespv2l3_2023-11-16_16h42.33.052.wav,100.80436809989624,101.30442879989278,None,100.80436809989624,100.80436809989624,100.80436809989624,100.80436809989624,100.80436809989624,100.80436809989624,,,,,,060203,001,2023-11-16_16h41.00.284,REPSWITCH1_version2_list3,2022.2.4,143.96277688867937,
REPSWITCH1/PICTURE_169.png,espalda,type,gold,repeat,1,T,1,2,3,2,Stim8_Set1,0,None,18,17,18,0,17,17,17,,,,,,,,,,,,,,,,,,,,,,,101.30442879989278,102.30455000000075,102.30455000000075,102.30455000000075,102.30455000000075,102.30455000000075,102.30455000000075,102.30455000000075,102.30455000000075,"['e', 's', 'p', 'a', 'l', 'd', 'a']",0,"[0.7749951999867335, 1.011589300003834, 1.3225366999395192, 1.4720719999168068, 1.5727071999572217, 1.7301794999511912, 1.9264052999205887]",espalda,C:\2023\REPSWITCH21092023\REPSWITCH_excgange\REPSWITCH_excgange\data/060203_REPSWITCH1_version2_list3_2023-11-16_16h41.00.284_micRespv2l3_recorded\recording_micRespv2l3_2023-11-16_16h42.37.573.wav,105.32575769990217,105.82582859997638,None,105.32575769990217,105.32575769990217,105.32575769990217,105.32575769990217,105.32575769990217,105.32575769990217,,,,,,060203,001,2023-11-16_16h41.00.284,REPSWITCH1_version2_list3,2022.2.4,143.96277688867937,
REPSWITCH1/PICTURE_48.png,bombero,speak,darkblue,filler,2,F,1,2,3,2,Stim7_Set4,1,switch,19,18,19,0,18,18,18,,,,,,,,,,,,,,,,,,,,,,,105.82582859997638,106.94412379991263,106.94412379991263,106.94412379991263,106.94412379991263,106.94412379991263,106.94412379991263,106.94412379991263,106.94412379991263,None,0,,,C:\2023\REPSWITCH21092023\REPSWITCH_excgange\REPSWITCH_excgange\data/060203_REPSWITCH1_version2_list3_2023-11-16_16h41.00.284_micRespv2l3_recorded\recording_micRespv2l3_2023-11-16_16h42.42.213.wav,109.97222159989178,,None,109.97222159989178,109.97222159989178,109.97222159989178,109.97222159989178,109.97222159989178,109.97222159989178,,,,,,060203,001,2023-11-16_16h41.00.284,REPSWITCH1_version2_list3,2022.2.4,143.96277688867937,
REPSWITCH1/PICTURE_19.png,pavo,type,gold,nontarget,1,NT,1,2,3,2,Stim5_Set1,1,switch,20,19,20,0,19,19,19,,,,,,,,,,,,,,,,,,,,,,,110.47228849993553,111.54185639997013,111.54185639997013,111.54185639997013,111.54185639997013,111.54185639997013,111.54185639997013,111.54185639997013,111.54185639997013,"['p', 'a', 'v', 'o']",0,"[0.98567990004085, 1.0823207000503317, 1.3344743000343442, 1.4769953000359237]",pavo,C:\2023\REPSWITCH21092023\REPSWITCH_excgange\REPSWITCH_excgange\data/060203_REPSWITCH1_version2_list3_2023-11-16_16h41.00.284_micRespv2l3_recorded\recording_micRespv2l3_2023-11-16_16h42.46.811.wav,114.57004399993457,,None,114.57004399993457,114.57004399993457,114.57004399993457,114.57004399993457,114.57004399993457,114.57004399993457,,,,,,060203,001,2023-11-16_16h41.00.284,REPSWITCH1_version2_list3,2022.2.4,143.96277688867937,
REPSWITCH1/PICTURE_19.png,pavo,type,gold,repeat,1,T,1,2,3,2,Stim5_Set1,0,None,21,20,21,0,20,20,20,,,,,,,,,,,,,,,,,,,,,,,115.0701106999768,116.0841211999068,116.0841211999068,116.0841211999068,116.0841211999068,116.0841211999068,116.0841211999068,116.0841211999068,116.0841211999068,"['p', 'a', 'v', 'o']",0,"[1.2301097000017762, 1.2580088000977412, 1.5617520000087097, 1.7182606001151726]",pavo,C:\2023\REPSWITCH21092023\REPSWITCH_excgange\REPSWITCH_excgange\data/060203_REPSWITCH1_version2_list3_2023-11-16_16h41.00.284_micRespv2l3_recorded\recording_micRespv2l3_2023-11-16_16h42.51.354.wav,119.11229729990009,119.61237569991499,None,119.11229729990009,119.11229729990009,119.11229729990009,119.11229729990009,119.11229729990009,119.11229729990009,,,,,,060203,001,2023-11-16_16h41.00.284,REPSWITCH1_version2_list3,2022.2.4,143.96277688867937,
REPSWITCH1/PICTURE_319.png,vaca,speak,darkblue,filler,2,F,1,2,3,2,Stim1_Set4,0,None,22,21,22,0,21,21,21,,,,,,,,,,,,,,,,,,,,,,,119.61237569991499,120.76528719998896,120.76528719998896,120.76528719998896,120.76528719998896,120.76528719998896,120.76528719998896,120.76528719998896,120.76528719998896,None,0,,,C:\2023\REPSWITCH21092023\REPSWITCH_excgange\REPSWITCH_excgange\data/060203_REPSWITCH1_version2_list3_2023-11-16_16h41.00.284_micRespv2l3_recorded\recording_micRespv2l3_2023-11-16_16h42.56.035.wav,123.79347579996102,,None,123.79347579996102,123.79347579996102,123.79347579996102,123.79347579996102,123.79347579996102,123.79347579996102,,,,,,060203,001,2023-11-16_16h41.00.284,REPSWITCH1_version2_list3,2022.2.4,143.96277688867937,
REPSWITCH1/PICTURE_338.png,regalo,type,gold,filler,1,F,1,2,3,2,Stim6_Set4,0,None,23,22,23,0,22,22,22,,,,,,,,,,,,,,,,,,,,,,,124.29353019990958,125.46036489994731,125.46036489994731,125.46036489994731,125.46036489994731,125.46036489994731,125.46036489994731,125.46036489994731,125.46036489994731,"['r', 'e', 'g', 'a', 'l', 'o']",0,"[0.8043850000249222, 0.9472279000328854, 1.1714750999817625, 1.3759944000048563, 1.5574194000801072, 1.754096299991943]",regalo,C:\2023\REPSWITCH21092023\REPSWITCH_excgange\REPSWITCH_excgange\data/060203_REPSWITCH1_version2_list3_2023-11-16_16h41.00.284_micRespv2l3_recorded\recording_micRespv2l3_2023-11-16_16h43.00.730.wav,128.4816637999611,128.98165049997624,None,128.4816637999611,128.4816637999611,128.4816637999611,128.4816637999611,128.4816637999611,128.4816637999611,,,,,,060203,001,2023-11-16_16h41.00.284,REPSWITCH1_version2_list3,2022.2.4,143.96277688867937,
REPSWITCH1/PICTURE_142.png,vaso,type,gold,nontarget,1,NT,1,2,3,2,Stim7_Set1,0,None,24,23,24,0,23,23,23,,,,,,,,,,,,,,,,,,,,,,,128.98165049997624,130.16929269989487,130.16929269989487,130.16929269989487,130.16929269989487,130.16929269989487,130.16929269989487,130.16929269989487,130.16929269989487,"['v', 'a', 's', 'o']",0,"[0.7042074999772012, 0.9715336998924613, 1.1379791999934241, 1.3243585999589413]",vaso,C:\2023\REPSWITCH21092023\REPSWITCH_excgange\REPSWITCH_excgange\data/060203_REPSWITCH1_version2_list3_2023-11-16_16h41.00.284_micRespv2l3_recorded\recording_micRespv2l3_2023-11-16_16h43.05.439.wav,133.1905249999836,133.6906018999871,None,133.1905249999836,133.1905249999836,133.1905249999836,133.1905249999836,133.1905249999836,133.1905249999836,,,,,,060203,001,2023-11-16_16h41.00.284,REPSWITCH1_version2_list3,2022.2.4,143.96277688867937,
REPSWITCH1/PICTURE_142.png,vaso,speak,darkblue,switch,2,T,1,2,3,2,Stim7_Set1,0,None,25,24,25,0,24,24,24,,,,,,,,,,,,,,,,,,,,,,,133.6906018999871,134.74635669996496,134.74635669996496,134.74635669996496,134.74635669996496,134.74635669996496,134.74635669996496,134.74635669996496,134.74635669996496,None,0,,,C:\2023\REPSWITCH21092023\REPSWITCH_excgange\REPSWITCH_excgange\data/060203_REPSWITCH1_version2_list3_2023-11-16_16h41.00.284_micRespv2l3_recorded\recording_micRespv2l3_2023-11-16_16h43.10.016.wav,137.76749799994286,138.26758839993272,None,137.76749799994286,137.76749799994286,137.76749799994286,137.76749799994286,137.76749799994286,137.76749799994286,,,,,,060203,001,2023-11-16_16h41.00.284,REPSWITCH1_version2_list3,2022.2.4,143.96277688867937,
REPSWITCH1/PICTURE_687.png,camisa,type,gold,filler,1,F,1,2,3,2,Stim5_Set4,1,switch,26,25,26,0,25,25,25,,,,,,,,,,,,,,,,,,,,,,,138.26758839993272,139.41355659998953,139.41355659998953,139.41355659998953,139.41355659998953,139.41355659998953,139.41355659998953,139.41355659998953,139.41355659998953,"['c', 'a', 'm', 'i', 's', 'a']",0,"[1.374330599908717, 1.5747132999822497, 1.7307713999180123, 1.9121601999504492, 1.974949299939908, 2.1732205000007525]",camisa,C:\2023\REPSWITCH21092023\REPSWITCH_excgange\REPSWITCH_excgange\data/060203_REPSWITCH1_version2_list3_2023-11-16_16h41.00.284_micRespv2l3_recorded\recording_micRespv2l3_2023-11-16_16h43.14.683.wav,142.43477239995264,142.93482309998944,None,142.43477239995264,142.43477239995264,142.43477239995264,142.43477239995264,142.43477239995264,142.43477239995264,,,,,,060203,001,2023-11-16_16h41.00.284,REPSWITCH1_version2_list3,2022.2.4,143.96277688867937,
REPSWITCH1/PICTURE_30.png,granja,type,gold,nontarget,1,NT,2,2,3,2,Stim5_Set2,0,None,27,26,27,0,26,26,26,,,,,,,,,,,,,,,,,,,,,,,142.93482309998944,143.9557939999504,143.9557939999504,143.9557939999504,143.9557939999504,143.9557939999504,143.9557939999504,143.9557939999504,143.9557939999504,"['g', 'r', 'a', 'n', 'j', 'a']",0,"[0.9474137000506744, 1.1321715000085533, 1.4517007999820635, 1.5802390000317246, 1.7211705000372604, 1.8487372000236064]",granja,C:\2023\REPSWITCH21092023\REPSWITCH_excgange\REPSWITCH_excgange\data/060203_REPSWITCH1_version2_list3_2023-11-16_16h41.00.284_micRespv2l3_recorded\recording_micRespv2l3_2023-11-16_16h43.19.226.wav,146.98407549993135,,None,146.98407549993135,146.98407549993135,146.98407549993135,146.98407549993135,146.98407549993135,146.98407549993135,,,,,,060203,001,2023-11-16_16h41.00.284,REPSWITCH1_version2_list3,2022.2.4,143.96277688867937,
REPSWITCH1/PICTURE_30.png,granja,type,gold,repeat,1,T,2,2,3,2,Stim5_Set2,0,None,28,27,28,0,27,27,27,,,,,,,,,,,,,,,,,,,,,,,147.48413419991266,148.6022829998983,148.6022829998983,148.6022829998983,148.6022829998983,148.6022829998983,148.6022829998983,148.6022829998983,148.6022829998983,"['g', 'r', 'a', 'n', 'j', 'a']",0,"[0.8128364000003785, 0.9753134000347927, 1.3081952000502497, 1.5055728000588715, 1.6474432999966666, 1.7902287000324577]",granja,C:\2023\REPSWITCH21092023\REPSWITCH_excgange\REPSWITCH_excgange\data/060203_REPSWITCH1_version2_list3_2023-11-16_16h41.00.284_micRespv2l3_recorded\recording_micRespv2l3_2023-11-16_16h43.23.871.wav,151.6304445998976,,None,151.6304445998976,151.6304445998976,151.6304445998976,151.6304445998976,151.6304445998976,151.6304445998976,,,,,,060203,001,2023-11-16_16h41.00.284,REPSWITCH1_version2_list3,2022.2.4,143.96277688867937,
REPSWITCH1/PICTURE_128.png,muñeca,speak,darkblue,filler,2,F,2,2,3,2,Stim4_Set1,0,None,29,28,29,0,28,28,28,,,,,,,,,,,,,,,,,,,,,,,152.13050729990937,153.2695870999014,153.2695870999014,153.2695870999014,153.2695870999014,153.2695870999014,153.2695870999014,153.2695870999014,153.2695870999014,None,0,,,C:\2023\REPSWITCH21092023\REPSWITCH_excgange\REPSWITCH_excgange\data/060203_REPSWITCH1_version2_list3_2023-11-16_16h41.00.284_micRespv2l3_recorded\recording_micRespv2l3_2023-11-16_16h43.28.539.wav,156.29075099993497,156.79087619995698,None,156.29075099993497,156.29075099993497,156.29075099993497,156.29075099993497,156.29075099993497,156.29075099993497,,,,,,060203,001,2023-11-16_16h41.00.284,REPSWITCH1_version2_list3,2022.2.4,143.96277688867937,
REPSWITCH1/PICTURE_264.png,mano,type,gold,nontarget,1,NT,2,2,3,2,Stim3_Set2,1,switch,30,29,30,0,29,29,29,,,,,,,,,,,,,,,,,,,,,,,156.79087619995698,157.88125919993035,157.88125919993035,157.88125919993035,157.88125919993035,157.88125919993035,157.88125919993035,157.88125919993035,157.88125919993035,"['m', 'a', 'n', 'o']",0,"[1.013543999986723, 1.1201726000290364, 1.3012889000819996, 1.517781800008379]",mano,C:\2023\REPSWITCH21092023\REPSWITCH_excgange\REPSWITCH_excgange\data/060203_REPSWITCH1_version2_list3_2023-11-16_16h41.00.284_micRespv2l3_recorded\recording_micRespv2l3_2023-11-16_16h43.33.151.wav,160.90248229994904,161.40254829998594,None,160.90248229994904,160.90248229994904,160.90248229994904,160.90248229994904,160.90248229994904,160.90248229994904,,,,,,060203,001,2023-11-16_16h41.00.284,REPSWITCH1_version2_list3,2022.2.4,143.96277688867937,
REPSWITCH1/PICTURE_264.png,mano,type,gold,repeat,1,T,2,2,3,2,Stim3_Set2,0,None,31,30,31,0,30,30,30,,,,,,,,,,,,,,,,,,,,,,,161.40254829998594,162.43740559997968,162.43740559997968,162.43740559997968,162.43740559997968,162.43740559997968,162.43740559997968,162.43740559997968,162.43740559997968,"['m', 'a', 'n', 'o']",0,"[0.6420197000261396, 0.7607884999597445, 0.9240688999416307, 1.1493592000333592]",mano,C:\2023\REPSWITCH21092023\REPSWITCH_excgange\REPSWITCH_excgange\data/060203_REPSWITCH1_version2_list3_2023-11-16_16h41.00.284_micRespv2l3_recorded\recording_micRespv2l3_2023-11-16_16h43.37.707.wav,165.4655784999486,,None,165.4655784999486,165.4655784999486,165.4655784999486,165.4655784999486,165.4655784999486,165.4655784999486,,,,,,060203,001,2023-11-16_16h41.00.284,REPSWITCH1_version2_list3,2022.2.4,143.96277688867937,
REPSWITCH1/PICTURE_175.png,pintor,type,gold,nontarget,1,NT,2,2,3,2,Stim1_Set2,0,None,32,31,32,0,31,31,31,,,,,,,,,,,,,,,,,,,,,,,165.96563869994134,166.99354729999322,166.99354729999322,166.99354729999322,166.99354729999322,166.99354729999322,166.99354729999322,166.99354729999322,166.99354729999322,"['p', 'i', 'n', 't', 'o', 'r']",0,"[0.9887440999737009, 1.2129888000199571, 1.4466678999597207, 1.6016757999313995, 1.773969699977897, 1.9035806999308988]",pintor,C:\2023\REPSWITCH21092023\REPSWITCH_excgange\REPSWITCH_excgange\data/060203_REPSWITCH1_version2_list3_2023-11-16_16h41.00.284_micRespv2l3_recorded\recording_micRespv2l3_2023-11-16_16h43.42.264.wav,170.0217029999476,,None,170.0217029999476,170.0217029999476,170.0217029999476,170.0217029999476,170.0217029999476,170.0217029999476,,,,,,060203,001,2023-11-16_16h41.00.284,REPSWITCH1_version2_list3,2022.2.4,143.96277688867937,
REPSWITCH1/PICTURE_175.png,pintor,speak,darkblue,switch,2,T,2,2,3,2,Stim1_Set2,0,None,33,32,33,0,32,32,32,,,,,,,,,,,,,,,,,,,,,,,170.52175969991367,171.57750809995923,171.57750809995923,171.57750809995923,171.57750809995923,171.57750809995923,171.57750809995923,171.57750809995923,171.57750809995923,None,0,,,C:\2023\REPSWITCH21092023\REPSWITCH_excgange\REPSWITCH_excgange\data/060203_REPSWITCH1_version2_list3_2023-11-16_16h41.00.284_micRespv2l3_recorded\recording_micRespv2l3_2023-11-16_16h43.46.847.wav,174.59870029997546,175.0987490999978,None,174.59870029997546,174.59870029997546,174.59870029997546,174.59870029997546,174.59870029997546,174.59870029997546,,,,,,060203,001,2023-11-16_16h41.00.284,REPSWITCH1_version2_list3,2022.2.4,143.96277688867937,
REPSWITCH1/PICTURE_135.png,traje,speak,darkblue,filler,2,F,2,2,3,2,Stim3_Set1,1,repeat,34,33,34,0,33,33,33,,,,,,,,,,,,,,,,,,,,,,,175.0987490999978,176.24483779992443,176.24483779992443,176.24483779992443,176.24483779992443,176.24483779992443,176.24483779992443,176.24483779992443,176.24483779992443,None,0,,,C:\2023\REPSWITCH21092023\REPSWITCH_excgange\REPSWITCH_excgange\data/060203_REPSWITCH1_version2_list3_2023-11-16_16h41.00.284_micRespv2l3_recorded\recording_micRespv2l3_2023-11-16_16h43.51.514.wav,179.2659930998925,179.76613149989862,None,179.2659930998925,179.2659930998925,179.2659930998925,179.2659930998925,179.2659930998925,179.2659930998925,,,,,,060203,001,2023-11-16_16h41.00.284,REPSWITCH1_version2_list3,2022.2.4,143.96277688867937,
REPSWITCH1/PICTURE_446.png,cerdo,speak,darkblue,nontarget,2,NT,2,2,3,2,Stim7_Set2,1,repeat,35,34,35,0,34,34,34,,,,,,,,,,,,,,,,,,,,,,,179.76613149989862,180.88432209996972,180.88432209996972,180.88432209996972,180.88432209996972,180.88432209996972,180.88432209996972,180.88432209996972,180.88432209996972,None,0,,,C:\2023\REPSWITCH21092023\REPSWITCH_excgange\REPSWITCH_excgange\data/060203_REPSWITCH1_version2_list3_2023-11-16_16h41.00.284_micRespv2l3_recorded\recording_micRespv2l3_2023-11-16_16h43.56.154.wav,183.9054991999874,184.40555719996337,None,183.9054991999874,183.9054991999874,183.9054991999874,183.9054991999874,183.9054991999874,183.9054991999874,,,,,,060203,001,2023-11-16_16h41.00.284,REPSWITCH1_version2_list3,2022.2.4,143.96277688867937,
REPSWITCH1/PICTURE_446.png,cerdo,type,gold,switch,1,T,2,2,3,2,Stim7_Set2,0,None,36,35,36,0,35,35,35,,,,,,,,,,,,,,,,,,,,,,,184.40555719996337,185.50993239996023,185.50993239996023,185.50993239996023,185.50993239996023,185.50993239996023,185.50993239996023,185.50993239996023,185.50993239996023,"['c', 'e', 'r', 'd', 'o']",0,"[0.6968179999385029, 0.9657850000075996, 1.148206099984236, 1.3954742000205442, 1.5947136000031605]",cerdo,C:\2023\REPSWITCH21092023\REPSWITCH_excgange\REPSWITCH_excgange\data/060203_REPSWITCH1_version2_list3_2023-11-16_16h41.00.284_micRespv2l3_recorded\recording_micRespv2l3_2023-11-16_16h44.00.779.wav,188.5311076999642,189.0311624999158,None,188.5311076999642,188.5311076999642,188.5311076999642,188.5311076999642,188.5311076999642,188.5311076999642,,,,,,060203,001,2023-11-16_16h41.00.284,REPSWITCH1_version2_list3,2022.2.4,143.96277688867937,
REPSWITCH1/PICTURE_152.png,caracol,type,gold,nontarget,1,NT,2,2,3,2,Stim2_Set2,1,repeat,37,36,37,0,36,36,36,,,,,,,,,,,,,,,,,,,,,,,189.0311624999158,190.16326099995058,190.16326099995058,190.16326099995058,190.16326099995058,190.16326099995058,190.16326099995058,190.16326099995058,190.16326099995058,"['c', 'a', 'r', 'a', 'c', 'o', 'l']",0,"[0.9354174999753013, 1.1516620999900624, 1.3463618999812752, 1.5584592999657616, 1.9254929999588057, 2.127158400020562, 2.3254917999729514]",caracol,C:\2023\REPSWITCH21092023\REPSWITCH_excgange\REPSWITCH_excgange\data/060203_REPSWITCH1_version2_list3_2023-11-16_16h41.00.284_micRespv2l3_recorded\recording_micRespv2l3_2023-11-16_16h44.05.432.wav,193.18448309996165,193.6845336999977,None,193.18448309996165,193.18448309996165,193.18448309996165,193.18448309996165,193.18448309996165,193.18448309996165,,,,,,060203,001,2023-11-16_16h41.00.284,REPSWITCH1_version2_list3,2022.2.4,143.96277688867937,
REPSWITCH1/PICTURE_152.png,caracol,speak,darkblue,switch,2,T,2,2,3,2,Stim2_Set2,0,None,38,37,38,0,37,37,37,,,,,,,,,,,,,,,,,,,,,,,193.6845336999977,194.76800129993353,194.76800129993353,194.76800129993353,194.76800129993353,194.76800129993353,194.76800129993353,194.76800129993353,194.76800129993353,None,0,,,C:\2023\REPSWITCH21092023\REPSWITCH_excgange\REPSWITCH_excgange\data/060203_REPSWITCH1_version2_list3_2023-11-16_16h41.00.284_micRespv2l3_recorded\recording_micRespv2l3_2023-11-16_16h44.10.037.wav,197.7962053999072,,None,197.7962053999072,197.7962053999072,197.7962053999072,197.7962053999072,197.7962053999072,197.7962053999072,,,,,,060203,001,2023-11-16_16h41.00.284,REPSWITCH1_version2_list3,2022.2.4,143.96277688867937,
REPSWITCH1/PICTURE_16.png,cazador,type,gold,filler,1,F,2,2,3,2,Stim6_Set1,0,None,39,38,39,0,38,38,38,,,,,,,,,,,,,,,,,,,,,,,198.29625779995695,199.33809229999315,199.33809229999315,199.33809229999315,199.33809229999315,199.33809229999315,199.33809229999315,199.33809229999315,199.33809229999315,"['c', 'a', 'z', 'a', 'd', 'o', 'r']",0,"[0.831265699933283, 1.0027136999415234, 1.4165630999486893, 1.6577444999711588, 1.8760380999883637, 2.12310259998776, 2.3268472999334335]",cazador,C:\2023\REPSWITCH21092023\REPSWITCH_excgange\REPSWITCH_excgange\data/060203_REPSWITCH1_version2_list3_2023-11-16_16h41.00.284_micRespv2l3_recorded\recording_micRespv2l3_2023-11-16_16h44.14.607.wav,202.35929119994398,202.85936579992995,None,202.35929119994398,202.35929119994398,202.35929119994398,202.35929119994398,202.35929119994398,202.35929119994398,,,,,,060203,001,2023-11-16_16h41.00.284,REPSWITCH1_version2_list3,2022.2.4,143.96277688867937,
REPSWITCH1/PICTURE_381.png,fresa,speak,darkblue,filler,2,F,2,2,3,2,Stim2_Set1,0,None,40,39,40,0,39,39,39,,,,,,,,,,,,,,,,,,,,,,,202.85936579992995,203.99144659994636,203.99144659994636,203.99144659994636,203.99144659994636,203.99144659994636,203.99144659994636,203.99144659994636,203.99144659994636,None,0,,,C:\2023\REPSWITCH21092023\REPSWITCH_excgange\REPSWITCH_excgange\data/060203_REPSWITCH1_version2_list3_2023-11-16_16h41.00.284_micRespv2l3_recorded\recording_micRespv2l3_2023-11-16_16h44.19.261.wav,207.01264430000447,207.51271809998434,None,207.01264430000447,207.01264430000447,207.01264430000447,207.01264430000447,207.01264430000447,207.01264430000447,,,,,,060203,001,2023-11-16_16h41.00.284,REPSWITCH1_version2_list3,2022.2.4,143.96277688867937,
REPSWITCH1/PICTURE_19.png,pavo,type,gold,filler,1,F,2,2,3,2,Stim5_Set1,0,None,41,40,41,0,40,40,40,,,,,,,,,,,,,,,,,,,,,,,207.51271809998434,208.7629098999314,208.7629098999314,208.7629098999314,208.7629098999314,208.7629098999314,208.7629098999314,208.7629098999314,208.7629098999314,"['p', 'a', 'v', 'o']",0,"[0.9144769000122324, 1.0460337999975309, 1.3184602999826893, 1.4240655000321567]",pavo,C:\2023\REPSWITCH21092023\REPSWITCH_excgange\REPSWITCH_excgange\data/060203_REPSWITCH1_version2_list3_2023-11-16_16h41.00.284_micRespv2l3_recorded\recording_micRespv2l3_2023-11-16_16h44.24.032.wav,211.78422529995441,212.28420379990712,None,211.78422529995441,211.78422529995441,211.78422529995441,211.78422529995441,211.78422529995441,211.78422529995441,,,,,,060203,001,2023-11-16_16h41.00.284,REPSWITCH1_version2_list3,2022.2.4,143.96277688867937,
REPSWITCH1/PICTURE_517.png,cuerda,speak,darkblue,nontarget,2,NT,2,2,3,2,Stim4_Set2,1,switch,42,41,42,0,41,41,41,,,,,,,,,,,,,,,,,,,,,,,212.28420379990712,213.43714959989302,213.43714959989302,213.43714959989302,213.43714959989302,213.43714959989302,213.43714959989302,213.43714959989302,213.43714959989302,None,0,,,C:\2023\REPSWITCH21092023\REPSWITCH_excgange\REPSWITCH_excgange\data/060203_REPSWITCH1_version2_list3_2023-11-16_16h41.00.284_micRespv2l3_recorded\recording_micRespv2l3_2023-11-16_16h44.28.707.wav,216.46530489996076,,None,216.46530489996076,216.46530489996076,216.46530489996076,216.46530489996076,216.46530489996076,216.46530489996076,,,,,,060203,001,2023-11-16_16h41.00.284,REPSWITCH1_version2_list3,2022.2.4,143.96277688867937,
REPSWITCH1/PICTURE_517.png,cuerda,speak,darkblue,repeat,2,T,2,2,3,2,Stim4_Set2,0,None,43,42,43,0,42,42,42,,,,,,,,,,,,,,,,,,,,,,,216.96536849997938,218.00714719993994,218.00714719993994,218.00714719993994,218.00714719993994,218.00714719993994,218.00714719993994,218.00714719993994,218.00714719993994,None,0,,,C:\2023\REPSWITCH21092023\REPSWITCH_excgange\REPSWITCH_excgange\data/060203_REPSWITCH1_version2_list3_2023-11-16_16h41.00.284_micRespv2l3_recorded\recording_micRespv2l3_2023-11-16_16h44.33.276.wav,221.0284461999545,221.52847369993106,None,221.0284461999545,221.0284461999545,221.0284461999545,221.0284461999545,221.0284461999545,221.0284461999545,,,,,,060203,001,2023-11-16_16h41.00.284,REPSWITCH1_version2_list3,2022.2.4,143.96277688867937,
REPSWITCH1/PICTURE_178.png,puente,type,gold,filler,1,F,2,2,3,2,Stim1_Set1,0,None,44,43,44,0,43,43,43,,,,,,,,,,,,,,,,,,,,,,,221.52847369993106,222.64665749995038,222.64665749995038,222.64665749995038,222.64665749995038,222.64665749995038,222.64665749995038,222.64665749995038,222.64665749995038,"['p', 'u', 'e', 'n', 't', 'e']",0,"[1.2598542000632733, 1.5542687000706792, 1.6669421000406146, 2.083591700065881, 2.2462829999858513, 2.423672500066459]",puente,C:\2023\REPSWITCH21092023\REPSWITCH_excgange\REPSWITCH_excgange\data/060203_REPSWITCH1_version2_list3_2023-11-16_16h41.00.284_micRespv2l3_recorded\recording_micRespv2l3_2023-11-16_16h44.37.917.wav,225.6748163999291,,None,225.6748163999291,225.6748163999291,225.6748163999291,225.6748163999291,225.6748163999291,225.6748163999291,,,,,,060203,001,2023-11-16_16h41.00.284,REPSWITCH1_version2_list3,2022.2.4,143.96277688867937,
REPSWITCH1/PICTURE_199.png,falda,speak,darkblue,nontarget,2,NT,2,2,3,2,Stim8_Set2,1,switch,45,44,45,0,44,44,44,,,,,,,,,,,,,,,,,,,,,,,226.17487869993784,227.18891609995626,227.18891609995626,227.18891609995626,227.18891609995626,227.18891609995626,227.18891609995626,227.18891609995626,227.18891609995626,None,0,,,C:\2023\REPSWITCH21092023\REPSWITCH_excgange\REPSWITCH_excgange\data/060203_REPSWITCH1_version2_list3_2023-11-16_16h41.00.284_micRespv2l3_recorded\recording_micRespv2l3_2023-11-16_16h44.42.458.wav,230.21710359991994,,None,230.21710359991994,230.21710359991994,230.21710359991994,230.21710359991994,230.21710359991994,230.21710359991994,,,,,,060203,001,2023-11-16_16h41.00.284,REPSWITCH1_version2_list3,2022.2.4,143.96277688867937,
REPSWITCH1/PICTURE_199.png,falda,speak,darkblue,repeat,2,T,2,2,3,2,Stim8_Set2,0,None,46,45,46,0,45,45,45,,,,,,,,,,,,,,,,,,,,,,,230.71715409995522,231.75901879998855,231.75901879998855,231.75901879998855,231.75901879998855,231.75901879998855,231.75901879998855,231.75901879998855,231.75901879998855,None,0,,,C:\2023\REPSWITCH21092023\REPSWITCH_excgange\REPSWITCH_excgange\data/060203_REPSWITCH1_version2_list3_2023-11-16_16h41.00.284_micRespv2l3_recorded\recording_micRespv2l3_2023-11-16_16h44.47.028.wav,234.78017169993836,235.28025729989167,None,234.78017169993836,234.78017169993836,234.78017169993836,234.78017169993836,234.78017169993836,234.78017169993836,,,,,,060203,001,2023-11-16_16h41.00.284,REPSWITCH1_version2_list3,2022.2.4,143.96277688867937,
REPSWITCH1/PICTURE_169.png,espalda,type,gold,filler,1,F,2,2,3,2,Stim8_Set1,0,None,47,46,47,0,46,46,46,,,,,,,,,,,,,,,,,,,,,,,235.28025729989167,236.4262727999594,236.4262727999594,236.4262727999594,236.4262727999594,236.4262727999594,236.4262727999594,236.4262727999594,236.4262727999594,"['e', 's', 'p', 'a', 'l', 'd', 'a']",0,"[0.8714283000444993, 1.0886838999576867, 1.2430592000018805, 1.4204046999802813, 1.54399190004915, 1.695445999968797, 1.923262899974361]",espalda,C:\2023\REPSWITCH21092023\REPSWITCH_excgange\REPSWITCH_excgange\data/060203_REPSWITCH1_version2_list3_2023-11-16_16h41.00.284_micRespv2l3_recorded\recording_micRespv2l3_2023-11-16_16h44.51.696.wav,239.4474461999489,239.94760279997718,None,239.4474461999489,239.4474461999489,239.4474461999489,239.4474461999489,239.4474461999489,239.4474461999489,,,,,,060203,001,2023-11-16_16h41.00.284,REPSWITCH1_version2_list3,2022.2.4,143.96277688867937,
REPSWITCH1/PICTURE_142.png,vaso,speak,darkblue,filler,2,F,2,2,3,2,Stim7_Set1,0,None,48,47,48,0,47,47,47,,,,,,,,,,,,,,,,,,,,,,,239.94760279997718,241.0657544999849,241.0657544999849,241.0657544999849,241.0657544999849,241.0657544999849,241.0657544999849,241.0657544999849,241.0657544999849,None,0,,,C:\2023\REPSWITCH21092023\REPSWITCH_excgange\REPSWITCH_excgange\data/060203_REPSWITCH1_version2_list3_2023-11-16_16h41.00.284_micRespv2l3_recorded\recording_micRespv2l3_2023-11-16_16h44.56.334.wav,244.0869790998986,244.58703179995064,None,244.0869790998986,244.0869790998986,244.0869790998986,244.0869790998986,244.0869790998986,244.0869790998986,,,,,,060203,001,2023-11-16_16h41.00.284,REPSWITCH1_version2_list3,2022.2.4,143.96277688867937,
REPSWITCH1/PICTURE_552.png,manzana,speak,darkblue,nontarget,2,NT,2,2,3,2,Stim6_Set2,0,None,49,48,49,0,48,48,48,,,,,,,,,,,,,,,,,,,,,,,244.58703179995064,245.72608109994326,245.72608109994326,245.72608109994326,245.72608109994326,245.72608109994326,245.72608109994326,245.72608109994326,245.72608109994326,None,0,,,C:\2023\REPSWITCH21092023\REPSWITCH_excgange\REPSWITCH_excgange\data/060203_REPSWITCH1_version2_list3_2023-11-16_16h41.00.284_micRespv2l3_recorded\recording_micRespv2l3_2023-11-16_16h45.00.995.wav,248.75423629989382,,None,248.75423629989382,248.75423629989382,248.75423629989382,248.75423629989382,248.75423629989382,248.75423629989382,,,,,,060203,001,2023-11-16_16h41.00.284,REPSWITCH1_version2_list3,2022.2.4,143.96277688867937,
REPSWITCH1/PICTURE_552.png,manzana,type,gold,switch,1,T,2,2,3,2,Stim6_Set2,0,None,50,49,50,0,49,49,49,,,,,,,,,,,,,,,,,,,,,,,249.25431279989425,250.45583120000083,250.45583120000083,250.45583120000083,250.45583120000083,250.45583120000083,250.45583120000083,250.45583120000083,250.45583120000083,"['m', 'a', 'n', 'z', 'a', 'n', 'a']",0,"[0.9687879999401048, 1.1352178999222815, 1.3262677999446169, 1.5704473999794573, 1.8076797999674454, 1.9691237999359146, 2.1282816999591887]",manzana,C:\2023\REPSWITCH21092023\REPSWITCH_excgange\REPSWITCH_excgange\data/060203_REPSWITCH1_version2_list3_2023-11-16_16h41.00.284_micRespv2l3_recorded\recording_micRespv2l3_2023-11-16_16h45.05.724.wav,253.47716029989533,253.9771510999417,None,253.47716029989533,253.47716029989533,253.47716029989533,253.47716029989533,253.47716029989533,253.47716029989533,,,,,,060203,001,2023-11-16_16h41.00.284,REPSWITCH1_version2_list3,2022.2.4,143.96277688867937,
REPSWITCH1/PICTURE_590.png,escoba,speak,darkblue,filler,2,F,1,2,3,2,Extra3,0,None,51,50,51,0,50,50,50,,,,,,,,,,,,,,,,,,,,,,,253.9771510999417,255.08145319996402,255.08145319996402,255.08145319996402,255.08145319996402,255.08145319996402,255.08145319996402,255.08145319996402,255.08145319996402,None,0,,,C:\2023\REPSWITCH21092023\REPSWITCH_excgange\REPSWITCH_excgange\data/060203_REPSWITCH1_version2_list3_2023-11-16_16h41.00.284_micRespv2l3_recorded\recording_micRespv2l3_2023-11-16_16h45.10.351.wav,258.1027311999351,258.6027284999145,space,258.1027311999351,258.1027311999351,258.1027311999351,258.1027311999351,258.1027311999351,258.1027311999351,258.6027284999145,258.6027284999145,8.155818299972452,,,060203,001,2023-11-16_16h41.00.284,REPSWITCH1_version2_list3,2022.2.4,143.96277688867937,
REPSWITCH1/PICTURE_552.png,manzana,type,gold,filler,1,F,3,2,3,2,Stim6_Set2,0,None,52,51,52,0,51,51,51,,,,,,,,,,,,,,,,,,,,,,,266.7705009999918,267.86089929996524,267.86089929996524,267.86089929996524,267.86089929996524,267.86089929996524,267.86089929996524,267.86089929996524,267.86089929996524,"['m', 'a', 'n', 'z', 'a', 'n', 'a']",0,"[1.11382660001982, 1.275288900011219, 1.4068355000345036, 1.670954899978824, 1.9091611000476405, 2.0457523999502882, 2.187558999983594]",manzana,C:\2023\REPSWITCH21092023\REPSWITCH_excgange\REPSWITCH_excgange\data/060203_REPSWITCH1_version2_list3_2023-11-16_16h41.00.284_micRespv2l3_recorded\recording_micRespv2l3_2023-11-16_16h45.23.130.wav,270.8821123999078,271.38219819997903,None,270.8821123999078,270.8821123999078,270.8821123999078,270.8821123999078,270.8821123999078,270.8821123999078,,,,,,060203,001,2023-11-16_16h41.00.284,REPSWITCH1_version2_list3,2022.2.4,143.96277688867937,
REPSWITCH1/PICTURE_464.png,goma,type,gold,nontarget,1,NT,3,2,3,2,Stim6_Set3,1,repeat,53,52,53,0,52,52,52,,,,,,,,,,,,,,,,,,,,,,,271.38219819997903,272.5490717999637,272.5490717999637,272.5490717999637,272.5490717999637,272.5490717999637,272.5490717999637,272.5490717999637,272.5490717999637,"['g', 'o', 'm', 'a']",0,"[0.9996844000415877, 1.1581498000305146, 1.3676987000508234, 1.4897278000134975]",goma,C:\2023\REPSWITCH21092023\REPSWITCH_excgange\REPSWITCH_excgange\data/060203_REPSWITCH1_version2_list3_2023-11-16_16h41.00.284_micRespv2l3_recorded\recording_micRespv2l3_2023-11-16_16h45.27.818.wav,275.57021349994466,276.0703125,None,275.57021349994466,275.57021349994466,275.57021349994466,275.57021349994466,275.57021349994466,275.57021349994466,,,,,,060203,001,2023-11-16_16h41.00.284,REPSWITCH1_version2_list3,2022.2.4,143.96277688867937,
REPSWITCH1/PICTURE_464.png,goma,speak,darkblue,switch,2,T,3,2,3,2,Stim6_Set3,0,None,54,53,54,0,53,53,53,,,,,,,,,,,,,,,,,,,,,,,276.0703125,277.2648950999137,277.2648950999137,277.2648950999137,277.2648950999137,277.2648950999137,277.2648950999137,277.2648950999137,277.2648950999137,None,0,,,C:\2023\REPSWITCH21092023\REPSWITCH_excgange\REPSWITCH_excgange\data/060203_REPSWITCH1_version2_list3_2023-11-16_16h41.00.284_micRespv2l3_recorded\recording_micRespv2l3_2023-11-16_16h45.32.535.wav,280.29309559997637,,None,280.29309559997637,280.29309559997637,280.29309559997637,280.29309559997637,280.29309559997637,280.29309559997637,,,,,,060203,001,2023-11-16_16h41.00.284,REPSWITCH1_version2_list3,2022.2.4,143.96277688867937,
REPSWITCH1/PICTURE_30.png,granja,speak,darkblue,filler,2,F,3,2,3,2,Stim5_Set2,0,None,55,54,55,0,54,54,54,,,,,,,,,,,,,,,,,,,,,,,280.7931497999234,281.86968669993803,281.86968669993803,281.86968669993803,281.86968669993803,281.86968669993803,281.86968669993803,281.86968669993803,281.86968669993803,None,0,,,C:\2023\REPSWITCH21092023\REPSWITCH_excgange\REPSWITCH_excgange\data/060203_REPSWITCH1_version2_list3_2023-11-16_16h41.00.284_micRespv2l3_recorded\recording_micRespv2l3_2023-11-16_16h45.37.139.wav,284.89783499995247,,None,284.89783499995247,284.89783499995247,284.89783499995247,284.89783499995247,284.89783499995247,284.89783499995247,,,,,,060203,001,2023-11-16_16h41.00.284,REPSWITCH1_version2_list3,2022.2.4,143.96277688867937,
REPSWITCH1/PICTURE_235.png,aguja,speak,darkblue,nontarget,2,NT,3,2,3,2,Stim4_Set3,1,repeat,56,55,56,0,55,55,55,,,,,,,,,,,,,,,,,,,,,,,285.39792529994156,286.5578037999803,286.5578037999803,286.5578037999803,286.5578037999803,286.5578037999803,286.5578037999803,286.5578037999803,286.5578037999803,None,0,,,C:\2023\REPSWITCH21092023\REPSWITCH_excgange\REPSWITCH_excgange\data/060203_REPSWITCH1_version2_list3_2023-11-16_16h41.00.284_micRespv2l3_recorded\recording_micRespv2l3_2023-11-16_16h45.41.827.wav,289.57902369997464,290.07908939989284,None,289.57902369997464,289.57902369997464,289.57902369997464,289.57902369997464,289.57902369997464,289.57902369997464,,,,,,060203,001,2023-11-16_16h41.00.284,REPSWITCH1_version2_list3,2022.2.4,143.96277688867937,
REPSWITCH1/PICTURE_235.png,aguja,type,gold,switch,1,T,3,2,3,2,Stim4_Set3,0,None,57,56,57,0,56,56,56,,,,,,,,,,,,,,,,,,,,,,,290.07908939989284,291.2389673999278,291.2389673999278,291.2389673999278,291.2389673999278,291.2389673999278,291.2389673999278,291.2389673999278,291.2389673999278,"['a', 'g', 'u', 'j', 'a']",0,"[0.7010349000338465, 0.9145993000129238, 1.112331400043331, 1.311186800012365, 1.5603497000411153]",aguja,C:\2023\REPSWITCH21092023\REPSWITCH_excgange\REPSWITCH_excgange\data/060203_REPSWITCH1_version2_list3_2023-11-16_16h41.00.284_micRespv2l3_recorded\recording_micRespv2l3_2023-11-16_16h45.46.507.wav,294.26019649999216,294.7602576999925,None,294.26019649999216,294.26019649999216,294.26019649999216,294.26019649999216,294.26019649999216,294.26019649999216,,,,,,060203,001,2023-11-16_16h41.00.284,REPSWITCH1_version2_list3,2022.2.4,143.96277688867937,
REPSWITCH1/PICTURE_391.png,cadena,type,gold,filler,1,F,3,2,3,2,Extra2,0,None,58,57,58,0,57,57,57,,,,,,,,,,,,,,,,,,,,,,,294.7602576999925,295.89240799995605,295.89240799995605,295.89240799995605,295.89240799995605,295.89240799995605,295.89240799995605,295.89240799995605,295.89240799995605,"['c', 'a', 'd', 'e', 'n', 'a']",0,"[0.8059956000652164, 1.1070020999759436, 1.5095048999646679, 1.7421730000060052, 1.92068790004123, 2.0703126000007614]",cadena,C:\2023\REPSWITCH21092023\REPSWITCH_excgange\REPSWITCH_excgange\data/060203_REPSWITCH1_version2_list3_2023-11-16_16h41.00.284_micRespv2l3_recorded\recording_micRespv2l3_2023-11-16_16h45.51.162.wav,298.9135427000001,299.4136172999861,None,298.9135427000001,298.9135427000001,298.9135427000001,298.9135427000001,298.9135427000001,298.9135427000001,,,,,,060203,001,2023-11-16_16h41.00.284,REPSWITCH1_version2_list3,2022.2.4,143.96277688867937,
REPSWITCH1/PICTURE_320.png,iglesia,type,gold,nontarget,1,NT,3,2,3,2,Stim8_Set3,0,None,59,58,59,0,58,58,58,,,,,,,,,,,,,,,,,,,,,,,299.4136172999861,300.49025799997617,300.49025799997617,300.49025799997617,300.49025799997617,300.49025799997617,300.49025799997617,300.49025799997617,300.49025799997617,"['i', 'g', 'l', 'e', 's', 'a', 'a']",0,"[0.9652146999724209, 1.1416087999241427, 1.350231199990958, 1.4917663999367505, 1.720474199973978, 1.9903182999696583, 2.845192699925974]",iglesaa,C:\2023\REPSWITCH21092023\REPSWITCH_excgange\REPSWITCH_excgange\data/060203_REPSWITCH1_version2_list3_2023-11-16_16h41.00.284_micRespv2l3_recorded\recording_micRespv2l3_2023-11-16_16h45.55.760.wav,303.5113655999303,304.0114560999209,None,303.5113655999303,303.5113655999303,303.5113655999303,303.5113655999303,303.5113655999303,303.5113655999303,,,,,,060203,001,2023-11-16_16h41.00.284,REPSWITCH1_version2_list3,2022.2.4,143.96277688867937,
REPSWITCH1/PICTURE_320.png,iglesia,speak,darkblue,switch,2,T,3,2,3,2,Stim8_Set3,0,None,60,59,60,0,59,59,59,,,,,,,,,,,,,,,,,,,,,,,304.0114560999209,305.1227835000027,305.1227835000027,305.1227835000027,305.1227835000027,305.1227835000027,305.1227835000027,305.1227835000027,305.1227835000027,None,0,,,C:\2023\REPSWITCH21092023\REPSWITCH_excgange\REPSWITCH_excgange\data/060203_REPSWITCH1_version2_list3_2023-11-16_16h41.00.284_micRespv2l3_recorded\recording_micRespv2l3_2023-11-16_16h46.00.393.wav,308.1509038999211,,None,308.1509038999211,308.1509038999211,308.1509038999211,308.1509038999211,308.1509038999211,308.1509038999211,,,,,,060203,001,2023-11-16_16h41.00.284,REPSWITCH1_version2_list3,2022.2.4,143.96277688867937,
REPSWITCH1/PICTURE_175.png,pintor,type,gold,filler,1,F,3,2,3,2,Stim1_Set2,0,None,61,60,61,0,60,60,60,,,,,,,,,,,,,,,,,,,,,,,308.6509470999008,309.74138169991784,309.74138169991784,309.74138169991784,309.74138169991784,309.74138169991784,309.74138169991784,309.74138169991784,309.74138169991784,"['p', 'i', 'n', 't', 'o', 'r']",0,"[1.04842450004071, 1.2724056000588462, 1.4839485000120476, 1.6035467000911012, 1.751803000108339, 1.8683705000439659]",pintor,C:\2023\REPSWITCH21092023\REPSWITCH_excgange\REPSWITCH_excgange\data/060203_REPSWITCH1_version2_list3_2023-11-16_16h41.00.284_micRespv2l3_recorded\recording_micRespv2l3_2023-11-16_16h46.05.011.wav,312.7695422999095,,None,312.7695422999095,312.7695422999095,312.7695422999095,312.7695422999095,312.7695422999095,312.7695422999095,,,,,,060203,001,2023-11-16_16h41.00.284,REPSWITCH1_version2_list3,2022.2.4,143.96277688867937,
REPSWITCH1/PICTURE_271.png,conejo,speak,darkblue,nontarget,2,NT,3,2,3,2,Stim7_Set3,1,switch,62,61,62,0,61,61,61,,,,,,,,,,,,,,,,,,,,,,,313.2696129999822,314.38783059990965,314.38783059990965,314.38783059990965,314.38783059990965,314.38783059990965,314.38783059990965,314.38783059990965,314.38783059990965,None,0,,,C:\2023\REPSWITCH21092023\REPSWITCH_excgange\REPSWITCH_excgange\data/060203_REPSWITCH1_version2_list3_2023-11-16_16h41.00.284_micRespv2l3_recorded\recording_micRespv2l3_2023-11-16_16h46.09.658.wav,317.4160033999942,,None,317.4160033999942,317.4160033999942,317.4160033999942,317.4160033999942,317.4160033999942,317.4160033999942,,,,,,060203,001,2023-11-16_16h41.00.284,REPSWITCH1_version2_list3,2022.2.4,143.96277688867937,
REPSWITCH1/PICTURE_271.png,conejo,speak,darkblue,repeat,2,T,3,2,3,2,Stim7_Set3,0,None,63,62,63,0,62,62,62,,,,,,,,,,,,,,,,,,,,,,,317.91606179997325,318.9856770999031,318.9856770999031,318.9856770999031,318.9856770999031,318.9856770999031,318.9856770999031,318.9856770999031,318.9856770999031,None,0,,,C:\2023\REPSWITCH21092023\REPSWITCH_excgange\REPSWITCH_excgange\data/060203_REPSWITCH1_version2_list3_2023-11-16_16h41.00.284_micRespv2l3_recorded\recording_micRespv2l3_2023-11-16_16h46.14.255.wav,322.0068528999109,322.5069381999783,None,322.0068528999109,322.0068528999109,322.0068528999109,322.0068528999109,322.0068528999109,322.0068528999109,,,,,,060203,001,2023-11-16_16h41.00.284,REPSWITCH1_version2_list3,2022.2.4,143.96277688867937,
REPSWITCH1/PICTURE_446.png,cerdo,speak,darkblue,filler,2,F,3,2,3,2,Stim7_Set2,0,None,64,63,64,0,63,63,63,,,,,,,,,,,,,,,,,,,,,,,322.5069381999783,323.6737695999909,323.6737695999909,323.6737695999909,323.6737695999909,323.6737695999909,323.6737695999909,323.6737695999909,323.6737695999909,None,0,,,C:\2023\REPSWITCH21092023\REPSWITCH_excgange\REPSWITCH_excgange\data/060203_REPSWITCH1_version2_list3_2023-11-16_16h41.00.284_micRespv2l3_recorded\recording_micRespv2l3_2023-11-16_16h46.18.943.wav,326.6950081998948,327.19504399993457,None,326.6950081998948,326.6950081998948,326.6950081998948,326.6950081998948,326.6950081998948,326.6950081998948,,,,,,060203,001,2023-11-16_16h41.00.284,REPSWITCH1_version2_list3,2022.2.4,143.96277688867937,
REPSWITCH1/PICTURE_152.png,caracol,type,gold,filler,1,F,3,2,3,2,Stim2_Set2,0,None,65,64,65,0,64,64,64,,,,,,,,,,,,,,,,,,,,,,,327.19504399993457,328.3826941999141,328.3826941999141,328.3826941999141,328.3826941999141,328.3826941999141,328.3826941999141,328.3826941999141,328.3826941999141,"['c', 'a', 'r', 'a', 'c', 'o', 'l']",0,"[0.5903148000361398, 0.8793345000594854, 1.0749963000416756, 1.2620956000173464, 1.5522076000925153, 1.7686535000102594, 1.990544700063765]",caracol,C:\2023\REPSWITCH21092023\REPSWITCH_excgange\REPSWITCH_excgange\data/060203_REPSWITCH1_version2_list3_2023-11-16_16h41.00.284_micRespv2l3_recorded\recording_micRespv2l3_2023-11-16_16h46.23.652.wav,331.40390989999287,331.9039998999797,None,331.40390989999287,331.40390989999287,331.40390989999287,331.40390989999287,331.40390989999287,331.40390989999287,,,,,,060203,001,2023-11-16_16h41.00.284,REPSWITCH1_version2_list3,2022.2.4,143.96277688867937,
REPSWITCH1/PICTURE_576.png,guante,speak,darkblue,nontarget,2,NT,3,2,3,2,Stim1_Set3,1,switch,66,65,66,0,65,65,65,,,,,,,,,,,,,,,,,,,,,,,331.9039998999797,333.01524169999175,333.01524169999175,333.01524169999175,333.01524169999175,333.01524169999175,333.01524169999175,333.01524169999175,333.01524169999175,None,0,,,C:\2023\REPSWITCH21092023\REPSWITCH_excgange\REPSWITCH_excgange\data/060203_REPSWITCH1_version2_list3_2023-11-16_16h41.00.284_micRespv2l3_recorded\recording_micRespv2l3_2023-11-16_16h46.28.285.wav,336.0364862999413,336.5365512999706,None,336.0364862999413,336.0364862999413,336.0364862999413,336.0364862999413,336.0364862999413,336.0364862999413,,,,,,060203,001,2023-11-16_16h41.00.284,REPSWITCH1_version2_list3,2022.2.4,143.96277688867937,
REPSWITCH1/PICTURE_576.png,guante,speak,darkblue,repeat,2,T,3,2,3,2,Stim1_Set3,0,None,67,66,67,0,66,66,66,,,,,,,,,,,,,,,,,,,,,,,336.5365512999706,337.6478669999633,337.6478669999633,337.6478669999633,337.6478669999633,337.6478669999633,337.6478669999633,337.6478669999633,337.6478669999633,None,0,,,C:\2023\REPSWITCH21092023\REPSWITCH_excgange\REPSWITCH_excgange\data/060203_REPSWITCH1_version2_list3_2023-11-16_16h41.00.284_micRespv2l3_recorded\recording_micRespv2l3_2023-11-16_16h46.32.917.wav,340.669001000002,341.1691740999231,None,340.669001000002,340.669001000002,340.669001000002,340.669001000002,340.669001000002,340.669001000002,,,,,,060203,001,2023-11-16_16h41.00.284,REPSWITCH1_version2_list3,2022.2.4,143.96277688867937,
REPSWITCH1/PICTURE_242.png,cartero,speak,darkblue,nontarget,2,NT,3,2,3,2,Stim3_Set3,0,None,68,67,68,0,67,67,67,,,,,,,,,,,,,,,,,,,,,,,341.1691740999231,342.2109425999224,342.2109425999224,342.2109425999224,342.2109425999224,342.2109425999224,342.2109425999224,342.2109425999224,342.2109425999224,None,0,,,C:\2023\REPSWITCH21092023\REPSWITCH_excgange\REPSWITCH_excgange\data/060203_REPSWITCH1_version2_list3_2023-11-16_16h41.00.284_micRespv2l3_recorded\recording_micRespv2l3_2023-11-16_16h46.37.479.wav,345.23213889996987,345.73220259998925,None,345.23213889996987,345.23213889996987,345.23213889996987,345.23213889996987,345.23213889996987,345.23213889996987,,,,,,060203,001,2023-11-16_16h41.00.284,REPSWITCH1_version2_list3,2022.2.4,143.96277688867937,
REPSWITCH1/PICTURE_242.png,cartero,type,gold,switch,1,T,3,2,3,2,Stim3_Set3,0,None,69,68,69,0,68,68,68,,,,,,,,,,,,,,,,,,,,,,,345.73220259998925,346.78789449995384,346.78789449995384,346.78789449995384,346.78789449995384,346.78789449995384,346.78789449995384,346.78789449995384,346.78789449995384,"['c', 'a', 'r', 't', 'e', 'r', 'o']",0,"[0.7799047000007704, 1.0007023999933153, 1.246497999993153, 1.5325422000605613, 1.8146444000303745, 1.959113399963826, 2.166678400011733]",cartero,C:\2023\REPSWITCH21092023\REPSWITCH_excgange\REPSWITCH_excgange\data/060203_REPSWITCH1_version2_list3_2023-11-16_16h41.00.284_micRespv2l3_recorded\recording_micRespv2l3_2023-11-16_16h46.42.056.wav,349.80913049995434,350.3091837998945,None,349.80913049995434,349.80913049995434,349.80913049995434,349.80913049995434,349.80913049995434,349.80913049995434,,,,,,060203,001,2023-11-16_16h41.00.284,REPSWITCH1_version2_list3,2022.2.4,143.96277688867937,
REPSWITCH1/PICTURE_517.png,cuerda,speak,darkblue,filler,2,F,3,2,3,2,Stim4_Set2,0,None,70,69,70,0,69,69,69,,,,,,,,,,,,,,,,,,,,,,,350.3091837998945,351.33708199998364,351.33708199998364,351.33708199998364,351.33708199998364,351.33708199998364,351.33708199998364,351.33708199998364,351.33708199998364,None,0,,,C:\2023\REPSWITCH21092023\REPSWITCH_excgange\REPSWITCH_excgange\data/060203_REPSWITCH1_version2_list3_2023-11-16_16h41.00.284_micRespv2l3_recorded\recording_micRespv2l3_2023-11-16_16h46.46.607.wav,354.36534469993785,,None,354.36534469993785,354.36534469993785,354.36534469993785,354.36534469993785,354.36534469993785,354.36534469993785,,,,,,060203,001,2023-11-16_16h41.00.284,REPSWITCH1_version2_list3,2022.2.4,143.96277688867937,
REPSWITCH1/PICTURE_646.png,tronco,type,gold,filler,1,F,3,2,3,2,Extra4,0,None,71,70,71,0,70,70,70,,,,,,,,,,,,,,,,,,,,,,,354.86534079990815,355.97660819999874,355.97660819999874,355.97660819999874,355.97660819999874,355.97660819999874,355.97660819999874,355.97660819999874,355.97660819999874,"['t', 'r', 'o', 'n', 'c', 'o']",0,"[1.0386852999217808, 1.2263297999743372, 1.3648677999153733, 1.5751153000164777, 1.7059809999773279, 1.8568655999843031]",tronco,C:\2023\REPSWITCH21092023\REPSWITCH_excgange\REPSWITCH_excgange\data/060203_REPSWITCH1_version2_list3_2023-11-16_16h41.00.284_micRespv2l3_recorded\recording_micRespv2l3_2023-11-16_16h46.51.246.wav,358.99780169990845,359.4978908000048,None,358.99780169990845,358.99780169990845,358.99780169990845,358.99780169990845,358.99780169990845,358.99780169990845,,,,,,060203,001,2023-11-16_16h41.00.284,REPSWITCH1_version2_list3,2022.2.4,143.96277688867937,
REPSWITCH1/PICTURE_35.png,oreja,type,gold,nontarget,1,NT,3,2,3,2,Stim5_Set3,1,repeat,72,71,72,0,71,71,71,,,,,,,,,,,,,,,,,,,,,,,359.4978908000048,360.6091408999637,360.6091408999637,360.6091408999637,360.6091408999637,360.6091408999637,360.6091408999637,360.6091408999637,360.6091408999637,"['o', 'r', 'e', 'j', 'a']",0,"[0.8181283000158146, 1.0114370000083, 1.142579899984412, 1.3602187000215054, 1.4976783000165597]",oreja,C:\2023\REPSWITCH21092023\REPSWITCH_excgange\REPSWITCH_excgange\data/060203_REPSWITCH1_version2_list3_2023-11-16_16h41.00.284_micRespv2l3_recorded\recording_micRespv2l3_2023-11-16_16h46.55.880.wav,363.6373217999935,,None,363.6373217999935,363.6373217999935,363.6373217999935,363.6373217999935,363.6373217999935,363.6373217999935,,,,,,060203,001,2023-11-16_16h41.00.284,REPSWITCH1_version2_list3,2022.2.4,143.96277688867937,
REPSWITCH1/PICTURE_35.png,oreja,type,gold,repeat,1,T,3,2,3,2,Stim5_Set3,0,None,73,72,73,0,72,72,72,,,,,,,,,,,,,,,,,,,,,,,364.1374529999448,365.26945499994326,365.26945499994326,365.26945499994326,365.26945499994326,365.26945499994326,365.26945499994326,365.26945499994326,365.26945499994326,"['o', 'r', 'e', 'j', 'a']",0,"[0.6870556999929249, 0.8375518000684679, 0.9611255000345409, 1.271335200057365, 1.4756545000709593]",oreja,C:\2023\REPSWITCH21092023\REPSWITCH_excgange\REPSWITCH_excgange\data/060203_REPSWITCH1_version2_list3_2023-11-16_16h41.00.284_micRespv2l3_recorded\recording_micRespv2l3_2023-11-16_16h47.00.539.wav,368.29762309999205,,None,368.29762309999205,368.29762309999205,368.29762309999205,368.29762309999205,368.29762309999205,368.29762309999205,,,,,,060203,001,2023-11-16_16h41.00.284,REPSWITCH1_version2_list3,2022.2.4,143.96277688867937,
REPSWITCH1/PICTURE_199.png,falda,speak,darkblue,filler,2,F,3,2,3,2,Stim8_Set2,0,None,74,73,74,0,73,73,73,,,,,,,,,,,,,,,,,,,,,,,368.79769219993614,369.8950649999315,369.8950649999315,369.8950649999315,369.8950649999315,369.8950649999315,369.8950649999315,369.8950649999315,369.8950649999315,None,0,,,C:\2023\REPSWITCH21092023\REPSWITCH_excgange\REPSWITCH_excgange\data/060203_REPSWITCH1_version2_list3_2023-11-16_16h41.00.284_micRespv2l3_recorded\recording_micRespv2l3_2023-11-16_16h47.05.164.wav,372.916399299982,373.4164033998968,None,372.916399299982,372.916399299982,372.916399299982,372.916399299982,372.916399299982,372.916399299982,,,,,,060203,001,2023-11-16_16h41.00.284,REPSWITCH1_version2_list3,2022.2.4,143.96277688867937,
REPSWITCH1/PICTURE_610.png,miel,type,gold,nontarget,1,NT,3,2,3,2,Stim2_Set3,1,switch,75,74,75,0,74,74,74,,,,,,,,,,,,,,,,,,,,,,,373.4164033998968,374.5067774999188,374.5067774999188,374.5067774999188,374.5067774999188,374.5067774999188,374.5067774999188,374.5067774999188,374.5067774999188,"['m', 'i', 'e', 'l']",0,"[0.8070127000100911, 1.0291127000236884, 1.1702066001016647, 1.3565808000275865]",miel,C:\2023\REPSWITCH21092023\REPSWITCH_excgange\REPSWITCH_excgange\data/060203_REPSWITCH1_version2_list3_2023-11-16_16h41.00.284_micRespv2l3_recorded\recording_micRespv2l3_2023-11-16_16h47.09.776.wav,377.5279848999344,378.0280896999175,None,377.5279848999344,377.5279848999344,377.5279848999344,377.5279848999344,377.5279848999344,377.5279848999344,,,,,,060203,001,2023-11-16_16h41.00.284,REPSWITCH1_version2_list3,2022.2.4,143.96277688867937,
REPSWITCH1/PICTURE_610.png,miel,type,gold,repeat,1,T,3,2,3,2,Stim2_Set3,0,None,76,75,76,0,75,75,75,,,,,,,,,,,,,,,,,,,,,,,378.0280896999175,379.14632279996295,379.14632279996295,379.14632279996295,379.14632279996295,379.14632279996295,379.14632279996295,379.14632279996295,379.14632279996295,"['m', 'i', 'e', 'l']",0,"[0.7220597000559792, 0.9199992000358179, 1.0743823000229895, 1.25011609995272]",miel,C:\2023\REPSWITCH21092023\REPSWITCH_excgange\REPSWITCH_excgange\data/060203_REPSWITCH1_version2_list3_2023-11-16_16h41.00.284_micRespv2l3_recorded\recording_micRespv2l3_2023-11-16_16h47.14.416.wav,382.1745278999442,,None,382.1745278999442,382.1745278999442,382.1745278999442,382.1745278999442,382.1745278999442,382.1745278999442,,,,,,060203,001,2023-11-16_16h41.00.284,REPSWITCH1_version2_list3,2022.2.4,143.96277688867937,
REPSWITCH1/PICTURE_264.png,mano,type,gold,filler,1,F,3,2,3,2,Stim3_Set2,1,repeat,77,76,77,0,76,76,76,,,,,,,,,,,,,,,,,,,,,,,382.6745146999601,383.68162419996224,383.68162419996224,383.68162419996224,383.68162419996224,383.68162419996224,383.68162419996224,383.68162419996224,383.68162419996224,"['m', 'a', 'n', 'o']",0,"[0.7785852999659255, 0.9111626000376418, 1.053079199977219, 1.2661476000212133]",mano,C:\2023\REPSWITCH21092023\REPSWITCH_excgange\REPSWITCH_excgange\data/060203_REPSWITCH1_version2_list3_2023-11-16_16h41.00.284_micRespv2l3_recorded\recording_micRespv2l3_2023-11-16_16h47.18.951.wav,386.70279549993575,387.20289769989904,None,386.70279549993575,386.70279549993575,386.70279549993575,386.70279549993575,386.70279549993575,386.70279549993575,,,,,,060203,001,2023-11-16_16h41.00.284,REPSWITCH1_version2_list3,2022.2.4,143.96277688867937,
REPSWITCH1/PICTURE_464.png,goma,speak,darkblue,filler,2,F,4,2,3,2,Stim6_Set3,0,None,78,77,78,0,77,77,77,,,,,,,,,,,,,,,,,,,,,,,387.20289769989904,388.23781259998213,388.23781259998213,388.23781259998213,388.23781259998213,388.23781259998213,388.23781259998213,388.23781259998213,388.23781259998213,None,0,,,C:\2023\REPSWITCH21092023\REPSWITCH_excgange\REPSWITCH_excgange\data/060203_REPSWITCH1_version2_list3_2023-11-16_16h41.00.284_micRespv2l3_recorded\recording_micRespv2l3_2023-11-16_16h47.23.508.wav,391.26599179999903,391.76606880000327,None,391.26599179999903,391.26599179999903,391.26599179999903,391.26599179999903,391.26599179999903,391.26599179999903,,,,,,060203,001,2023-11-16_16h41.00.284,REPSWITCH1_version2_list3,2022.2.4,143.96277688867937,
REPSWITCH1/PICTURE_8.png,pierna,type,gold,nontarget,1,NT,4,2,3,2,Stim3_Set4,1,switch,79,78,79,0,78,78,78,,,,,,,,,,,,,,,,,,,,,,,391.76606880000327,392.89809759997297,392.89809759997297,392.89809759997297,392.89809759997297,392.89809759997297,392.89809759997297,392.89809759997297,392.89809759997297,"['p', 'i', 'e', 'r', 'n', 'a']",0,"[0.8480604999931529, 1.0731566000031307, 1.195700200041756, 1.3253226999659091, 1.4927371999947354, 1.6695333999814466]",pierna,C:\2023\REPSWITCH21092023\REPSWITCH_excgange\REPSWITCH_excgange\data/060203_REPSWITCH1_version2_list3_2023-11-16_16h41.00.284_micRespv2l3_recorded\recording_micRespv2l3_2023-11-16_16h47.28.167.wav,395.91927799989935,396.41939209995326,None,395.91927799989935,395.91927799989935,395.91927799989935,395.91927799989935,395.91927799989935,395.91927799989935,,,,,,060203,001,2023-11-16_16h41.00.284,REPSWITCH1_version2_list3,2022.2.4,143.96277688867937,
REPSWITCH1/PICTURE_8.png,pierna,type,gold,repeat,1,T,4,2,3,2,Stim3_Set4,0,None,80,79,80,0,79,79,79,,,,,,,,,,,,,,,,,,,,,,,396.41939209995326,397.6486932999687,397.6486932999687,397.6486932999687,397.6486932999687,397.6486932999687,397.6486932999687,397.6486932999687,397.6486932999687,"['p', 'i', 'e', 'r', 'n', 'a']",0,"[0.7814620999852195, 1.0229132999666035, 1.1414965000003576, 1.2251833999762312, 1.4407662999583408, 1.5842865000013262]",pierna,C:\2023\REPSWITCH21092023\REPSWITCH_excgange\REPSWITCH_excgange\data/060203_REPSWITCH1_version2_list3_2023-11-16_16h41.00.284_micRespv2l3_recorded\recording_micRespv2l3_2023-11-16_16h47.32.918.wav,400.66991860000417,401.1700002999278,None,400.66991860000417,400.66991860000417,400.66991860000417,400.66991860000417,400.66991860000417,400.66991860000417,,,,,,060203,001,2023-11-16_16h41.00.284,REPSWITCH1_version2_list3,2022.2.4,143.96277688867937,
REPSWITCH1/PICTURE_728.png,pulpo,type,gold,nontarget,1,NT,4,2,3,2,Stim8_Set4,1,repeat,81,80,81,0,80,80,80,,,,,,,,,,,,,,,,,,,,,,,401.1700002999278,402.3507287999382,402.3507287999382,402.3507287999382,402.3507287999382,402.3507287999382,402.3507287999382,402.3507287999382,402.3507287999382,"['p', 'u', 'l', 'p', 'o']",0,"[0.9108794999774545, 1.1881168000400066, 1.441896800068207, 1.6567623000591993, 2.0472471000393853]",pulpo,C:\2023\REPSWITCH21092023\REPSWITCH_excgange\REPSWITCH_excgange\data/060203_REPSWITCH1_version2_list3_2023-11-16_16h41.00.284_micRespv2l3_recorded\recording_micRespv2l3_2023-11-16_16h47.37.621.wav,405.3788826999953,,None,405.3788826999953,405.3788826999953,405.3788826999953,405.3788826999953,405.3788826999953,405.3788826999953,,,,,,060203,001,2023-11-16_16h41.00.284,REPSWITCH1_version2_list3,2022.2.4,143.96277688867937,
REPSWITCH1/PICTURE_728.png,pulpo,speak,darkblue,switch,2,T,4,2,3,2,Stim8_Set4,0,None,82,81,82,0,81,81,81,,,,,,,,,,,,,,,,,,,,,,,405.8789618998999,407.03194759995677,407.03194759995677,407.03194759995677,407.03194759995677,407.03194759995677,407.03194759995677,407.03194759995677,407.03194759995677,None,0,,,C:\2023\REPSWITCH21092023\REPSWITCH_excgange\REPSWITCH_excgange\data/060203_REPSWITCH1_version2_list3_2023-11-16_16h41.00.284_micRespv2l3_recorded\recording_micRespv2l3_2023-11-16_16h47.42.302.wav,410.0600823999848,,None,410.0600823999848,410.0600823999848,410.0600823999848,410.0600823999848,410.0600823999848,410.0600823999848,,,,,,060203,001,2023-11-16_16h41.00.284,REPSWITCH1_version2_list3,2022.2.4,143.96277688867937,
REPSWITCH1/PICTURE_235.png,aguja,type,gold,filler,1,F,4,2,3,2,Stim4_Set3,0,None,83,82,83,0,82,82,82,,,,,,,,,,,,,,,,,,,,,,,410.56011469999794,411.7895351999905,411.7895351999905,411.7895351999905,411.7895351999905,411.7895351999905,411.7895351999905,411.7895351999905,411.7895351999905,"['a', 'g', 'u', 'j', 'a']",0,"[0.8237551999045536, 1.0698899999260902, 1.2184339999221265, 1.4228016999550164, 1.5954809999093413]",aguja,C:\2023\REPSWITCH21092023\REPSWITCH_excgange\REPSWITCH_excgange\data/060203_REPSWITCH1_version2_list3_2023-11-16_16h41.00.284_micRespv2l3_recorded\recording_micRespv2l3_2023-11-16_16h47.47.058.wav,414.8175908999983,,None,414.8175908999983,414.8175908999983,414.8175908999983,414.8175908999983,414.8175908999983,414.8175908999983,,,,,,060203,001,2023-11-16_16h41.00.284,REPSWITCH1_version2_list3,2022.2.4,143.96277688867937,
REPSWITCH1/PICTURE_498.png,taza,speak,darkblue,nontarget,2,NT,4,2,3,2,Stim4_Set4,1,switch,84,83,84,0,83,83,83,,,,,,,,,,,,,,,,,,,,,,,415.31764719996136,416.435868499917,416.435868499917,416.435868499917,416.435868499917,416.435868499917,416.435868499917,416.435868499917,416.435868499917,None,0,,,C:\2023\REPSWITCH21092023\REPSWITCH_excgange\REPSWITCH_excgange\data/060203_REPSWITCH1_version2_list3_2023-11-16_16h41.00.284_micRespv2l3_recorded\recording_micRespv2l3_2023-11-16_16h47.51.705.wav,419.46405729989056,,None,419.46405729989056,419.46405729989056,419.46405729989056,419.46405729989056,419.46405729989056,419.46405729989056,,,,,,060203,001,2023-11-16_16h41.00.284,REPSWITCH1_version2_list3,2022.2.4,143.96277688867937,
REPSWITCH1/PICTURE_498.png,taza,speak,darkblue,repeat,2,T,4,2,3,2,Stim4_Set4,0,None,85,84,85,0,84,84,84,,,,,,,,,,,,,,,,,,,,,,,419.96412769996095,421.0545542999171,421.0545542999171,421.0545542999171,421.0545542999171,421.0545542999171,421.0545542999171,421.0545542999171,421.0545542999171,None,0,,,C:\2023\REPSWITCH21092023\REPSWITCH_excgange\REPSWITCH_excgange\data/060203_REPSWITCH1_version2_list3_2023-11-16_16h41.00.284_micRespv2l3_recorded\recording_micRespv2l3_2023-11-16_16h47.56.323.wav,424.0757389999926,424.5758421999635,None,424.0757389999926,424.0757389999926,424.0757389999926,424.0757389999926,424.0757389999926,424.0757389999926,,,,,,060203,001,2023-11-16_16h41.00.284,REPSWITCH1_version2_list3,2022.2.4,143.96277688867937,
REPSWITCH1/PICTURE_719.png,baño,speak,darkblue,nontarget,2,NT,4,2,3,2,Stim2_Set4,0,None,86,85,86,0,85,85,85,,,,,,,,,,,,,,,,,,,,,,,424.5758421999635,425.69402830000035,425.69402830000035,425.69402830000035,425.69402830000035,425.69402830000035,425.69402830000035,425.69402830000035,425.69402830000035,None,0,,,C:\2023\REPSWITCH21092023\REPSWITCH_excgange\REPSWITCH_excgange\data/060203_REPSWITCH1_version2_list3_2023-11-16_16h41.00.284_micRespv2l3_recorded\recording_micRespv2l3_2023-11-16_16h48.00.963.wav,428.7152635999955,429.2153375999769,None,428.7152635999955,428.7152635999955,428.7152635999955,428.7152635999955,428.7152635999955,428.7152635999955,,,,,,060203,001,2023-11-16_16h41.00.284,REPSWITCH1_version2_list3,2022.2.4,143.96277688867937,
REPSWITCH1/PICTURE_719.png,baño,type,gold,switch,1,T,4,2,3,2,Stim2_Set4,0,None,87,86,87,0,86,86,86,,,,,,,,,,,,,,,,,,,,,,,429.2153375999769,430.3335824999958,430.3335824999958,430.3335824999958,430.3335824999958,430.3335824999958,430.3335824999958,430.3335824999958,430.3335824999958,"['b', 'a', 'ñ']",0,"[0.9307082999730483, 1.087683100020513, 1.4478121999418363, 2.9799581000115722]",ba,C:\2023\REPSWITCH21092023\REPSWITCH_excgange\REPSWITCH_excgange\data/060203_REPSWITCH1_version2_list3_2023-11-16_16h41.00.284_micRespv2l3_recorded\recording_micRespv2l3_2023-11-16_16h48.05.603.wav,433.36168269999325,,None,433.36168269999325,433.36168269999325,433.36168269999325,433.36168269999325,433.36168269999325,433.36168269999325,,,,,,060203,001,2023-11-16_16h41.00.284,REPSWITCH1_version2_list3,2022.2.4,143.96277688867937,
REPSWITCH1/PICTURE_320.png,iglesia,speak,darkblue,filler,2,F,4,2,3,2,Stim8_Set3,0,None,88,87,88,0,87,87,87,,,,,,,,,,,,,,,,,,,,,,,433.86175259994343,434.9452822000021,434.9452822000021,434.9452822000021,434.9452822000021,434.9452822000021,434.9452822000021,434.9452822000021,434.9452822000021,None,0,,,C:\2023\REPSWITCH21092023\REPSWITCH_excgange\REPSWITCH_excgange\data/060203_REPSWITCH1_version2_list3_2023-11-16_16h41.00.284_micRespv2l3_recorded\recording_micRespv2l3_2023-11-16_16h48.10.215.wav,437.9734152999008,,None,437.9734152999008,437.9734152999008,437.9734152999008,437.9734152999008,437.9734152999008,437.9734152999008,,,,,,060203,001,2023-11-16_16h41.00.284,REPSWITCH1_version2_list3,2022.2.4,143.96277688867937,
REPSWITCH1/PICTURE_48.png,bombero,type,gold,nontarget,1,NT,4,2,3,2,Stim7_Set4,1,switch,89,88,89,0,88,88,88,,,,,,,,,,,,,,,,,,,,,,,438.4735001999652,439.61952619999647,439.61952619999647,439.61952619999647,439.61952619999647,439.61952619999647,439.61952619999647,439.61952619999647,439.61952619999647,"['b', 'o', 'm', 'b', 'r', 'e', 'o']",0,"[1.047781499917619, 1.183303799945861, 1.4354743999429047, 1.7218612999422476, 1.8755826000124216, 2.015104899997823, 2.859120799927041]",bombreo,C:\2023\REPSWITCH21092023\REPSWITCH_excgange\REPSWITCH_excgange\data/060203_REPSWITCH1_version2_list3_2023-11-16_16h41.00.284_micRespv2l3_recorded\recording_micRespv2l3_2023-11-16_16h48.14.888.wav,442.6406820999691,443.1407421999611,None,442.6406820999691,442.6406820999691,442.6406820999691,442.6406820999691,442.6406820999691,442.6406820999691,,,,,,060203,001,2023-11-16_16h41.00.284,REPSWITCH1_version2_list3,2022.2.4,143.96277688867937,
REPSWITCH1/PICTURE_48.png,bombero,speak,darkblue,switch,2,T,4,2,3,2,Stim7_Set4,0,None,90,89,90,0,89,89,89,,,,,,,,,,,,,,,,,,,,,,,443.1407421999611,444.27285519998986,444.27285519998986,444.27285519998986,444.27285519998986,444.27285519998986,444.27285519998986,444.27285519998986,444.27285519998986,None,0,,,C:\2023\REPSWITCH21092023\REPSWITCH_excgange\REPSWITCH_excgange\data/060203_REPSWITCH1_version2_list3_2023-11-16_16h41.00.284_micRespv2l3_recorded\recording_micRespv2l3_2023-11-16_16h48.19.543.wav,447.30104890000075,,None,447.30104890000075,447.30104890000075,447.30104890000075,447.30104890000075,447.30104890000075,447.30104890000075,,,,,,060203,001,2023-11-16_16h41.00.284,REPSWITCH1_version2_list3,2022.2.4,143.96277688867937,
REPSWITCH1/PICTURE_576.png,guante,type,gold,filler,1,F,4,2,3,2,Stim1_Set3,0,None,91,90,91,0,90,90,90,,,,,,,,,,,,,,,,,,,,,,,447.80109209998045,448.89154079998843,448.89154079998843,448.89154079998843,448.89154079998843,448.89154079998843,448.89154079998843,448.89154079998843,448.89154079998843,"['g', 'u', 'a', 'n', 't', 'e']",0,"[0.9681232000002638, 1.1228734999895096, 1.3251657999353483, 1.4918536000186577, 1.6872004999313504, 1.9026855999836698]",guante,C:\2023\REPSWITCH21092023\REPSWITCH_excgange\REPSWITCH_excgange\data/060203_REPSWITCH1_version2_list3_2023-11-16_16h41.00.284_micRespv2l3_recorded\recording_micRespv2l3_2023-11-16_16h48.24.161.wav,451.9196706999792,452.41973359999247,None,451.9196706999792,451.9196706999792,451.9196706999792,451.9196706999792,451.9196706999792,451.9196706999792,,,,,,060203,001,2023-11-16_16h41.00.284,REPSWITCH1_version2_list3,2022.2.4,143.96277688867937,
REPSWITCH1/PICTURE_271.png,conejo,speak,darkblue,filler,2,F,4,2,3,2,Stim7_Set3,0,None,92,91,92,0,91,91,91,,,,,,,,,,,,,,,,,,,,,,,452.41973359999247,453.4546798999654,453.4546798999654,453.4546798999654,453.4546798999654,453.4546798999654,453.4546798999654,453.4546798999654,453.4546798999654,None,0,,,C:\2023\REPSWITCH21092023\REPSWITCH_excgange\REPSWITCH_excgange\data/060203_REPSWITCH1_version2_list3_2023-11-16_16h41.00.284_micRespv2l3_recorded\recording_micRespv2l3_2023-11-16_16h48.28.725.wav,456.4827762999339,,None,456.4827762999339,456.4827762999339,456.4827762999339,456.4827762999339,456.4827762999339,456.4827762999339,,,,,,060203,001,2023-11-16_16h41.00.284,REPSWITCH1_version2_list3,2022.2.4,143.96277688867937,
REPSWITCH1/PICTURE_319.png,vaca,speak,darkblue,nontarget,2,NT,4,2,3,2,Stim1_Set4,1,repeat,93,92,93,0,92,92,92,,,,,,,,,,,,,,,,,,,,,,,456.98285529995337,458.05247839994263,458.05247839994263,458.05247839994263,458.05247839994263,458.05247839994263,458.05247839994263,458.05247839994263,458.05247839994263,None,0,,,C:\2023\REPSWITCH21092023\REPSWITCH_excgange\REPSWITCH_excgange\data/060203_REPSWITCH1_version2_list3_2023-11-16_16h41.00.284_micRespv2l3_recorded\recording_micRespv2l3_2023-11-16_16h48.33.321.wav,461.0805851999903,,None,461.0805851999903,461.0805851999903,461.0805851999903,461.0805851999903,461.0805851999903,461.0805851999903,,,,,,060203,001,2023-11-16_16h41.00.284,REPSWITCH1_version2_list3,2022.2.4,143.96277688867937,
REPSWITCH1/PICTURE_319.png,vaca,speak,darkblue,repeat,2,T,4,2,3,2,Stim1_Set4,0,None,94,93,94,0,93,93,93,,,,,,,,,,,,,,,,,,,,,,,461.58065439993516,462.6502487999387,462.6502487999387,462.6502487999387,462.6502487999387,462.6502487999387,462.6502487999387,462.6502487999387,462.6502487999387,None,0,,,C:\2023\REPSWITCH21092023\REPSWITCH_excgange\REPSWITCH_excgange\data/060203_REPSWITCH1_version2_list3_2023-11-16_16h41.00.284_micRespv2l3_recorded\recording_micRespv2l3_2023-11-16_16h48.37.920.wav,465.678439399926,,None,465.678439399926,465.678439399926,465.678439399926,465.678439399926,465.678439399926,465.678439399926,,,,,,060203,001,2023-11-16_16h41.00.284,REPSWITCH1_version2_list3,2022.2.4,143.96277688867937,
REPSWITCH1/PICTURE_242.png,cartero,type,gold,filler,1,F,4,2,3,2,Stim3_Set3,0,None,95,94,95,0,94,94,94,,,,,,,,,,,,,,,,,,,,,,,466.1784913999727,467.2689042999409,467.2689042999409,467.2689042999409,467.2689042999409,467.2689042999409,467.2689042999409,467.2689042999409,467.2689042999409,"['c', 'a', 'r', 't', 'e', 'r', 'o']",0,"[0.9171583000570536, 1.1654171000700444, 1.3937111999839544, 1.6787685999879614, 1.9578380000311881, 2.080420200014487, 2.3857260000659153]",cartero,C:\2023\REPSWITCH21092023\REPSWITCH_excgange\REPSWITCH_excgange\data/060203_REPSWITCH1_version2_list3_2023-11-16_16h41.00.284_micRespv2l3_recorded\recording_micRespv2l3_2023-11-16_16h48.42.538.wav,470.2970992999617,,None,470.2970992999617,470.2970992999617,470.2970992999617,470.2970992999617,470.2970992999617,470.2970992999617,,,,,,060203,001,2023-11-16_16h41.00.284,REPSWITCH1_version2_list3,2022.2.4,143.96277688867937,
REPSWITCH1/PICTURE_35.png,oreja,speak,darkblue,filler,2,F,4,2,3,2,Stim5_Set3,1,switch,96,95,96,0,95,95,95,,,,,,,,,,,,,,,,,,,,,,,470.79716489999555,471.963984199916,471.963984199916,471.963984199916,471.963984199916,471.963984199916,471.963984199916,471.963984199916,471.963984199916,None,0,,,C:\2023\REPSWITCH21092023\REPSWITCH_excgange\REPSWITCH_excgange\data/060203_REPSWITCH1_version2_list3_2023-11-16_16h41.00.284_micRespv2l3_recorded\recording_micRespv2l3_2023-11-16_16h48.47.234.wav,474.9921449999092,475.49220619990956,None,474.9921449999092,474.9921449999092,474.9921449999092,474.9921449999092,474.9921449999092,474.9921449999092,,,,,,060203,001,2023-11-16_16h41.00.284,REPSWITCH1_version2_list3,2022.2.4,143.96277688867937,
REPSWITCH1/PICTURE_338.png,regalo,speak,darkblue,nontarget,2,NT,4,2,3,2,Stim6_Set4,1,repeat,97,96,97,0,96,96,96,,,,,,,,,,,,,,,,,,,,,,,475.49220619990956,476.66596499993466,476.66596499993466,476.66596499993466,476.66596499993466,476.66596499993466,476.66596499993466,476.66596499993466,476.66596499993466,None,0,,,C:\2023\REPSWITCH21092023\REPSWITCH_excgange\REPSWITCH_excgange\data/060203_REPSWITCH1_version2_list3_2023-11-16_16h41.00.284_micRespv2l3_recorded\recording_micRespv2l3_2023-11-16_16h48.51.935.wav,479.6941574999364,,None,479.6941574999364,479.6941574999364,479.6941574999364,479.6941574999364,479.6941574999364,479.6941574999364,,,,,,060203,001,2023-11-16_16h41.00.284,REPSWITCH1_version2_list3,2022.2.4,143.96277688867937,
REPSWITCH1/PICTURE_338.png,regalo,type,gold,switch,1,T,4,2,3,2,Stim6_Set4,0,None,98,97,98,0,97,97,97,,,,,,,,,,,,,,,,,,,,,,,480.1942922999151,481.28463319991715,481.28463319991715,481.28463319991715,481.28463319991715,481.28463319991715,481.28463319991715,481.28463319991715,481.28463319991715,"['r', 'e', 'g', 'a', 'l', 'o']",0,"[0.8987258000997826, 1.0242947000078857, 1.2390576000325382, 1.4959294000873342, 1.6959111000178382, 1.913061200059019]",regalo,C:\2023\REPSWITCH21092023\REPSWITCH_excgange\REPSWITCH_excgange\data/060203_REPSWITCH1_version2_list3_2023-11-16_16h41.00.284_micRespv2l3_recorded\recording_micRespv2l3_2023-11-16_16h48.56.554.wav,484.3128303999547,,None,484.3128303999547,484.3128303999547,484.3128303999547,484.3128303999547,484.3128303999547,484.3128303999547,,,,,,060203,001,2023-11-16_16h41.00.284,REPSWITCH1_version2_list3,2022.2.4,143.96277688867937,
REPSWITCH1/PICTURE_687.png,camisa,type,gold,nontarget,1,NT,4,2,3,2,Stim5_Set4,0,None,99,98,99,0,98,98,98,,,,,,,,,,,,,,,,,,,,,,,484.81296119990293,485.88947409996763,485.88947409996763,485.88947409996763,485.88947409996763,485.88947409996763,485.88947409996763,485.88947409996763,485.88947409996763,"['c', 'a', 'm', 'i', 's', 'a']",0,"[0.8691184999188408, 1.0698615999426693, 1.3030703999102116, 1.5551810999168083, 1.7396036999998614, 1.921620599925518]",camisa,C:\2023\REPSWITCH21092023\REPSWITCH_excgange\REPSWITCH_excgange\data/060203_REPSWITCH1_version2_list3_2023-11-16_16h41.00.284_micRespv2l3_recorded\recording_micRespv2l3_2023-11-16_16h49.01.159.wav,488.91761469992343,,None,488.91761469992343,488.91761469992343,488.91761469992343,488.91761469992343,488.91761469992343,488.91761469992343,,,,,,060203,001,2023-11-16_16h41.00.284,REPSWITCH1_version2_list3,2022.2.4,143.96277688867937,
REPSWITCH1/PICTURE_687.png,camisa,type,gold,repeat,1,T,4,2,3,2,Stim5_Set4,0,None,100,99,100,0,99,99,99,,,,,,,,,,,,,,,,,,,,,,,489.4176996999886,490.52197679993697,490.52197679993697,490.52197679993697,490.52197679993697,490.52197679993697,490.52197679993697,490.52197679993697,490.52197679993697,"['c', 'a', 'm', 'i', 's', 'a']",0,"[0.698383399983868, 0.8854342000558972, 1.0941098000621423, 1.3199289999902248, 1.5055951999966055, 1.6980131000746042]",camisa,C:\2023\REPSWITCH21092023\REPSWITCH_excgange\REPSWITCH_excgange\data/060203_REPSWITCH1_version2_list3_2023-11-16_16h41.00.284_micRespv2l3_recorded\recording_micRespv2l3_2023-11-16_16h49.05.792.wav,493.5431687999517,494.0432185999816,None,493.5431687999517,493.5431687999517,493.5431687999517,493.5431687999517,493.5431687999517,493.5431687999517,,,,,,060203,001,2023-11-16_16h41.00.284,REPSWITCH1_version2_list3,2022.2.4,143.96277688867937,
REPSWITCH1/PICTURE_340.png,espejo,speak,darkblue,filler,2,F,4,2,3,2,Extra1,0,None,101,100,101,0,100,100,100,,,,,,,,,,,,,,,,,,,,,,,494.0432185999816,495.1267101999838,495.1267101999838,495.1267101999838,495.1267101999838,495.1267101999838,495.1267101999838,495.1267101999838,495.1267101999838,None,0,,,C:\2023\REPSWITCH21092023\REPSWITCH_excgange\REPSWITCH_excgange\data/060203_REPSWITCH1_version2_list3_2023-11-16_16h41.00.284_micRespv2l3_recorded\recording_micRespv2l3_2023-11-16_16h49.10.396.wav,498.1548810999375,,None,498.1548810999375,498.1548810999375,498.1548810999375,498.1548810999375,498.1548810999375,498.1548810999375,,,,,,060203,001,2023-11-16_16h41.00.284,REPSWITCH1_version2_list3,2022.2.4,143.96277688867937,
REPSWITCH1/PICTURE_610.png,miel,type,gold,filler,1,F,4,2,3,2,Stim2_Set3,0,None,102,101,102,0,101,101,101,,,,,,,,,,,,,,,,,,,,,,,498.6550370999612,499.8079254999757,499.8079254999757,499.8079254999757,499.8079254999757,499.8079254999757,499.8079254999757,499.8079254999757,499.8079254999757,"['m', 'i', 'e', 'l']",0,"[0.8375668999506161, 1.0299160999711603, 1.2182903999928385, 1.4305709999753162]",miel,C:\2023\REPSWITCH21092023\REPSWITCH_excgange\REPSWITCH_excgange\data/060203_REPSWITCH1_version2_list3_2023-11-16_16h41.00.284_micRespv2l3_recorded\recording_micRespv2l3_2023-11-16_16h49.15.077.wav,502.8360993999522,,space,502.8360993999522,502.8360993999522,502.8360993999522,502.8360993999522,502.8360993999522,502.8360993999522,503.33614019991364,503.33614019991364,5.028639800031669,,,060203,001,2023-11-16_16h41.00.284,REPSWITCH1_version2_list3,2022.2.4,143.96277688867937,
REPSWITCH1/PICTURE_8.png,pierna,type,gold,filler,1,F,1,4,3,2,Stim3_Set4,0,None,103,102,1,0,102,102,102,,,,,,,,,,,,,,,,,,,,,,,508.3784686999861,509.42028009996284,509.42028009996284,509.42028009996284,509.42028009996284,509.42028009996284,509.42028009996284,509.42028009996284,509.42028009996284,"['p', 'i', 'e', 'r', 'n', 'a']",0,"[1.0361824999563396, 1.2716603999724612, 1.3343409999506548, 1.5598700999980792, 1.696870099985972, 1.849432999966666]",pierna,C:\2023\REPSWITCH21092023\REPSWITCH_excgange\REPSWITCH_excgange\data/060203_REPSWITCH1_version2_list3_2023-11-16_16h41.00.284_micRespv2l3_recorded\recording_micRespv2l3_2023-11-16_16h49.24.690.wav,512.4415063000051,512.941543999943,None,512.4415063000051,512.4415063000051,512.4415063000051,512.4415063000051,512.4415063000051,512.4415063000051,,,,,,060203,001,2023-11-16_16h41.00.284,REPSWITCH1_version2_list3,2022.2.4,143.96277688867937,
REPSWITCH1/PICTURE_498.png,taza,speak,darkblue,filler,2,F,1,4,3,2,Stim4_Set4,0,None,104,103,2,0,103,103,103,,,,,,,,,,,,,,,,,,,,,,,512.941543999943,514.0389367999742,514.0389367999742,514.0389367999742,514.0389367999742,514.0389367999742,514.0389367999742,514.0389367999742,514.0389367999742,None,0,,,C:\2023\REPSWITCH21092023\REPSWITCH_excgange\REPSWITCH_excgange\data/060203_REPSWITCH1_version2_list3_2023-11-16_16h41.00.284_micRespv2l3_recorded\recording_micRespv2l3_2023-11-16_16h49.29.308.wav,517.0670991999796,517.5671692999313,None,517.0670991999796,517.0670991999796,517.0670991999796,517.0670991999796,517.0670991999796,517.0670991999796,,,,,,060203,001,2023-11-16_16h41.00.284,REPSWITCH1_version2_list3,2022.2.4,143.96277688867937,
REPSWITCH1/PICTURE_19.png,pavo,speak,darkblue,nontarget,2,NT,1,4,3,2,Stim5_Set1,1,repeat,105,104,3,0,104,104,104,,,,,,,,,,,,,,,,,,,,,,,517.5671692999313,518.6714539999375,518.6714539999375,518.6714539999375,518.6714539999375,518.6714539999375,518.6714539999375,518.6714539999375,518.6714539999375,None,0,,,C:\2023\REPSWITCH21092023\REPSWITCH_excgange\REPSWITCH_excgange\data/060203_REPSWITCH1_version2_list3_2023-11-16_16h41.00.284_micRespv2l3_recorded\recording_micRespv2l3_2023-11-16_16h49.33.941.wav,521.6996261999011,,None,521.6996261999011,521.6996261999011,521.6996261999011,521.6996261999011,521.6996261999011,521.6996261999011,,,,,,060203,001,2023-11-16_16h41.00.284,REPSWITCH1_version2_list3,2022.2.4,143.96277688867937,
REPSWITCH1/PICTURE_19.png,pavo,speak,darkblue,repeat,2,T,1,4,3,2,Stim5_Set1,0,None,106,105,4,0,105,105,105,,,,,,,,,,,,,,,,,,,,,,,522.1996882999083,523.2970605998999,523.2970605998999,523.2970605998999,523.2970605998999,523.2970605998999,523.2970605998999,523.2970605998999,523.2970605998999,None,0,,,C:\2023\REPSWITCH21092023\REPSWITCH_excgange\REPSWITCH_excgange\data/060203_REPSWITCH1_version2_list3_2023-11-16_16h41.00.284_micRespv2l3_recorded\recording_micRespv2l3_2023-11-16_16h49.38.567.wav,526.3252593999496,,None,526.3252593999496,526.3252593999496,526.3252593999496,526.3252593999496,526.3252593999496,526.3252593999496,,,,,,060203,001,2023-11-16_16h41.00.284,REPSWITCH1_version2_list3,2022.2.4,143.96277688867937,
REPSWITCH1/PICTURE_319.png,vaca,type,gold,filler,1,F,1,4,3,2,Stim1_Set4,1,repeat,107,106,5,0,106,106,106,,,,,,,,,,,,,,,,,,,,,,,526.8253227999667,527.9226774999406,527.9226774999406,527.9226774999406,527.9226774999406,527.9226774999406,527.9226774999406,527.9226774999406,527.9226774999406,"['v', 'a', 'c', 'a']",0,"[1.024748899973929, 1.2320145000703633, 1.520094700041227, 2.104215200059116]",vaca,C:\2023\REPSWITCH21092023\REPSWITCH_excgange\REPSWITCH_excgange\data/060203_REPSWITCH1_version2_list3_2023-11-16_16h41.00.284_micRespv2l3_recorded\recording_micRespv2l3_2023-11-16_16h49.43.192.wav,530.9508634998929,,None,530.9508634998929,530.9508634998929,530.9508634998929,530.9508634998929,530.9508634998929,530.9508634998929,,,,,,060203,001,2023-11-16_16h41.00.284,REPSWITCH1_version2_list3,2022.2.4,143.96277688867937,
REPSWITCH1/PICTURE_169.png,espalda,speak,darkblue,nontarget,2,NT,1,4,3,2,Stim8_Set1,1,switch,108,107,6,0,107,107,107,,,,,,,,,,,,,,,,,,,,,,,531.4509245998925,532.4719374999404,532.4719374999404,532.4719374999404,532.4719374999404,532.4719374999404,532.4719374999404,532.4719374999404,532.4719374999404,None,0,,,C:\2023\REPSWITCH21092023\REPSWITCH_excgange\REPSWITCH_excgange\data/060203_REPSWITCH1_version2_list3_2023-11-16_16h41.00.284_micRespv2l3_recorded\recording_micRespv2l3_2023-11-16_16h49.47.741.wav,535.5000685999403,,None,535.5000685999403,535.5000685999403,535.5000685999403,535.5000685999403,535.5000685999403,535.5000685999403,,,,,,060203,001,2023-11-16_16h41.00.284,REPSWITCH1_version2_list3,2022.2.4,143.96277688867937,
REPSWITCH1/PICTURE_169.png,espalda,speak,darkblue,repeat,2,T,1,4,3,2,Stim8_Set1,0,None,109,108,7,0,108,108,108,,,,,,,,,,,,,,,,,,,,,,,536.0001355999848,537.1183213999029,537.1183213999029,537.1183213999029,537.1183213999029,537.1183213999029,537.1183213999029,537.1183213999029,537.1183213999029,None,0,,,C:\2023\REPSWITCH21092023\REPSWITCH_excgange\REPSWITCH_excgange\data/060203_REPSWITCH1_version2_list3_2023-11-16_16h41.00.284_micRespv2l3_recorded\recording_micRespv2l3_2023-11-16_16h49.52.387.wav,540.1465632999316,540.6466169999912,None,540.1465632999316,540.1465632999316,540.1465632999316,540.1465632999316,540.1465632999316,540.1465632999316,,,,,,060203,001,2023-11-16_16h41.00.284,REPSWITCH1_version2_list3,2022.2.4,143.96277688867937,
REPSWITCH1/PICTURE_728.png,pulpo,type,gold,filler,1,F,1,4,3,2,Stim8_Set4,0,None,110,109,8,0,109,109,109,,,,,,,,,,,,,,,,,,,,,,,540.6466169999912,541.7439897999866,541.7439897999866,541.7439897999866,541.7439897999866,541.7439897999866,541.7439897999866,541.7439897999866,541.7439897999866,"['p', 'u', 'l', 'p', 'o']",0,"[1.0873670999426395, 1.3574539999244735, 1.6375732999294996, 1.8208413999527693, 1.9662648999365047]",pulpo,C:\2023\REPSWITCH21092023\REPSWITCH_excgange\REPSWITCH_excgange\data/060203_REPSWITCH1_version2_list3_2023-11-16_16h41.00.284_micRespv2l3_recorded\recording_micRespv2l3_2023-11-16_16h49.57.013.wav,544.7721151999431,,None,544.7721151999431,544.7721151999431,544.7721151999431,544.7721151999431,544.7721151999431,544.7721151999431,,,,,,060203,001,2023-11-16_16h41.00.284,REPSWITCH1_version2_list3,2022.2.4,143.96277688867937,
REPSWITCH1/PICTURE_142.png,vaso,speak,darkblue,nontarget,2,NT,1,4,3,2,Stim7_Set1,1,switch,111,110,9,0,110,110,110,,,,,,,,,,,,,,,,,,,,,,,545.2721630999586,546.3348256999161,546.3348256999161,546.3348256999161,546.3348256999161,546.3348256999161,546.3348256999161,546.3348256999161,546.3348256999161,None,0,,,C:\2023\REPSWITCH21092023\REPSWITCH_excgange\REPSWITCH_excgange\data/060203_REPSWITCH1_version2_list3_2023-11-16_16h41.00.284_micRespv2l3_recorded\recording_micRespv2l3_2023-11-16_16h50.01.605.wav,549.3629835000029,,None,549.3629835000029,549.3629835000029,549.3629835000029,549.3629835000029,549.3629835000029,549.3629835000029,,,,,,060203,001,2023-11-16_16h41.00.284,REPSWITCH1_version2_list3,2022.2.4,143.96277688867937,
REPSWITCH1/PICTURE_142.png,vaso,type,gold,switch,1,T,1,4,3,2,Stim7_Set1,0,None,112,111,10,0,111,111,111,,,,,,,,,,,,,,,,,,,,,,,549.8630725999828,550.9742974999826,550.9742974999826,550.9742974999826,550.9742974999826,550.9742974999826,550.9742974999826,550.9742974999826,550.9742974999826,"['v', 'a', 's', 'o']",0,"[0.765237299958244, 1.0395531000103801, 1.2169601999921724, 1.4392216999549419]",vaso,C:\2023\REPSWITCH21092023\REPSWITCH_excgange\REPSWITCH_excgange\data/060203_REPSWITCH1_version2_list3_2023-11-16_16h41.00.284_micRespv2l3_recorded\recording_micRespv2l3_2023-11-16_16h50.06.244.wav,553.995540099917,554.4955994999036,None,553.995540099917,553.995540099917,553.995540099917,553.995540099917,553.995540099917,553.995540099917,,,,,,060203,001,2023-11-16_16h41.00.284,REPSWITCH1_version2_list3,2022.2.4,143.96277688867937,
REPSWITCH1/PICTURE_338.png,regalo,type,gold,filler,1,F,1,4,3,2,Stim6_Set4,1,repeat,113,112,11,0,112,112,112,,,,,,,,,,,,,,,,,,,,,,,554.4955994999036,555.5652446999447,555.5652446999447,555.5652446999447,555.5652446999447,555.5652446999447,555.5652446999447,555.5652446999447,555.5652446999447,"['r', 'e', 'g', 'a', 'l', 'o']",0,"[1.1019943000283092, 1.2458438000176102, 1.4511976999929175, 1.6727605999913067, 1.8062557000666857, 2.0399087000405416]",regalo,C:\2023\REPSWITCH21092023\REPSWITCH_excgange\REPSWITCH_excgange\data/060203_REPSWITCH1_version2_list3_2023-11-16_16h41.00.284_micRespv2l3_recorded\recording_micRespv2l3_2023-11-16_16h50.10.835.wav,558.5933628999628,,None,558.5933628999628,558.5933628999628,558.5933628999628,558.5933628999628,558.5933628999628,558.5933628999628,,,,,,060203,001,2023-11-16_16h41.00.284,REPSWITCH1_version2_list3,2022.2.4,143.96277688867937,
REPSWITCH1/PICTURE_135.png,traje,type,gold,nontarget,1,NT,1,4,3,2,Stim3_Set1,1,repeat,114,113,12,0,113,113,113,,,,,,,,,,,,,,,,,,,,,,,559.0934265999822,560.2116163999308,560.2116163999308,560.2116163999308,560.2116163999308,560.2116163999308,560.2116163999308,560.2116163999308,560.2116163999308,"['t', 'r', 'a', 'j', 'e']",0,"[0.9811278000706807, 1.0617899000644684, 1.4174818000756204, 1.6130373000632972, 1.7807933000149205]",traje,C:\2023\REPSWITCH21092023\REPSWITCH_excgange\REPSWITCH_excgange\data/060203_REPSWITCH1_version2_list3_2023-11-16_16h41.00.284_micRespv2l3_recorded\recording_micRespv2l3_2023-11-16_16h50.15.481.wav,563.2328708999557,563.7329288999317,None,563.2328708999557,563.2328708999557,563.2328708999557,563.2328708999557,563.2328708999557,563.2328708999557,,,,,,060203,001,2023-11-16_16h41.00.284,REPSWITCH1_version2_list3,2022.2.4,143.96277688867937,
REPSWITCH1/PICTURE_135.png,traje,speak,darkblue,switch,2,T,1,4,3,2,Stim3_Set1,0,None,115,114,13,0,114,114,114,,,,,,,,,,,,,,,,,,,,,,,563.7329288999317,564.8025152999908,564.8025152999908,564.8025152999908,564.8025152999908,564.8025152999908,564.8025152999908,564.8025152999908,564.8025152999908,None,0,,,C:\2023\REPSWITCH21092023\REPSWITCH_excgange\REPSWITCH_excgange\data/060203_REPSWITCH1_version2_list3_2023-11-16_16h41.00.284_micRespv2l3_recorded\recording_micRespv2l3_2023-11-16_16h50.20.071.wav,567.8306616999907,,None,567.8306616999907,567.8306616999907,567.8306616999907,567.8306616999907,567.8306616999907,567.8306616999907,,,,,,060203,001,2023-11-16_16h41.00.284,REPSWITCH1_version2_list3,2022.2.4,143.96277688867937,
REPSWITCH1/PICTURE_381.png,fresa,speak,darkblue,nontarget,2,NT,1,4,3,2,Stim2_Set1,1,repeat,116,115,14,0,115,115,115,,,,,,,,,,,,,,,,,,,,,,,568.3307232999941,569.421251899912,569.421251899912,569.421251899912,569.421251899912,569.421251899912,569.421251899912,569.421251899912,569.421251899912,None,0,,,C:\2023\REPSWITCH21092023\REPSWITCH_excgange\REPSWITCH_excgange\data/060203_REPSWITCH1_version2_list3_2023-11-16_16h41.00.284_micRespv2l3_recorded\recording_micRespv2l3_2023-11-16_16h50.24.690.wav,572.4493403999368,,None,572.4493403999368,572.4493403999368,572.4493403999368,572.4493403999368,572.4493403999368,572.4493403999368,,,,,,060203,001,2023-11-16_16h41.00.284,REPSWITCH1_version2_list3,2022.2.4,143.96277688867937,
REPSWITCH1/PICTURE_381.png,fresa,type,gold,switch,1,T,1,4,3,2,Stim2_Set1,0,None,117,116,15,0,116,116,116,,,,,,,,,,,,,,,,,,,,,,,572.9494043999584,574.0675990999443,574.0675990999443,574.0675990999443,574.0675990999443,574.0675990999443,574.0675990999443,574.0675990999443,574.0675990999443,"['f', 'r', 'e', 's', 'a']",0,"[0.957997600082308, 1.1204756000079215, 1.4248238999862224, 1.7299402999924496, 1.9282797999912873]",fresa,C:\2023\REPSWITCH21092023\REPSWITCH_excgange\REPSWITCH_excgange\data/060203_REPSWITCH1_version2_list3_2023-11-16_16h41.00.284_micRespv2l3_recorded\recording_micRespv2l3_2023-11-16_16h50.29.337.wav,577.0957733999239,,None,577.0957733999239,577.0957733999239,577.0957733999239,577.0957733999239,577.0957733999239,577.0957733999239,,,,,,060203,001,2023-11-16_16h41.00.284,REPSWITCH1_version2_list3,2022.2.4,143.96277688867937,
REPSWITCH1/PICTURE_48.png,bombero,type,gold,filler,1,F,1,4,3,2,Stim7_Set4,0,None,118,117,16,0,117,117,117,,,,,,,,,,,,,,,,,,,,,,,577.5958336999174,578.6099473999348,578.6099473999348,578.6099473999348,578.6099473999348,578.6099473999348,578.6099473999348,578.6099473999348,578.6099473999348,"['b', 'o', 'm', 'b', 'e', 'r', 'o']",0,"[1.110616600024514, 1.3627811000915244, 1.6069530000677332, 1.858611200004816, 2.1566138999769464, 2.2941042000893503, 2.487513800035231]",bombero,C:\2023\REPSWITCH21092023\REPSWITCH_excgange\REPSWITCH_excgange\data/060203_REPSWITCH1_version2_list3_2023-11-16_16h41.00.284_micRespv2l3_recorded\recording_micRespv2l3_2023-11-16_16h50.33.879.wav,581.6380419998895,,None,581.6380419998895,581.6380419998895,581.6380419998895,581.6380419998895,581.6380419998895,581.6380419998895,,,,,,060203,001,2023-11-16_16h41.00.284,REPSWITCH1_version2_list3,2022.2.4,143.96277688867937,
REPSWITCH1/PICTURE_687.png,camisa,speak,darkblue,filler,2,F,1,4,3,2,Stim5_Set4,0,None,119,118,17,0,118,118,118,,,,,,,,,,,,,,,,,,,,,,,582.1381006999873,583.2354473999003,583.2354473999003,583.2354473999003,583.2354473999003,583.2354473999003,583.2354473999003,583.2354473999003,583.2354473999003,None,0,,,C:\2023\REPSWITCH21092023\REPSWITCH_excgange\REPSWITCH_excgange\data/060203_REPSWITCH1_version2_list3_2023-11-16_16h41.00.284_micRespv2l3_recorded\recording_micRespv2l3_2023-11-16_16h50.38.505.wav,586.2636223000009,,None,586.2636223000009,586.2636223000009,586.2636223000009,586.2636223000009,586.2636223000009,586.2636223000009,,,,,,060203,001,2023-11-16_16h41.00.284,REPSWITCH1_version2_list3,2022.2.4,143.96277688867937,
REPSWITCH1/PICTURE_128.png,muñeca,type,gold,nontarget,1,NT,1,4,3,2,Stim4_Set1,0,None,120,119,18,0,119,119,119,,,,,,,,,,,,,,,,,,,,,,,586.7636920999503,587.8681020999793,587.8681020999793,587.8681020999793,587.8681020999793,587.8681020999793,587.8681020999793,587.8681020999793,587.8681020999793,"['m', 'u', 'n', 'e', 'c', 'a']",0,"[0.8884337999625131, 1.1637427000096068, 2.221035699942149, 2.3765406999737024, 2.710291299968958, 2.873220899957232]",muneca,C:\2023\REPSWITCH21092023\REPSWITCH_excgange\REPSWITCH_excgange\data/060203_REPSWITCH1_version2_list3_2023-11-16_16h41.00.284_micRespv2l3_recorded\recording_micRespv2l3_2023-11-16_16h50.43.137.wav,590.8961987999501,,None,590.8961987999501,590.8961987999501,590.8961987999501,590.8961987999501,590.8961987999501,590.8961987999501,,,,,,060203,001,2023-11-16_16h41.00.284,REPSWITCH1_version2_list3,2022.2.4,143.96277688867937,
