image,correctAns,respModal,frameColor,repSwitch,sequence,target,set,block,list,exp_version,stimulus,baseline,baseline_condition,trial_no,psychopy_trial,Column1,trialsREPSWITCH.thisRepN,trialsREPSWITCH.thisTrialN,trialsREPSWITCH.thisN,trialsREPSWITCH.thisIndex,textWelcome.started,textboxInstrMain1.started,textboxInstrMain1_2.started,textboxInstrMain1_3.started,keyInstrMain.started,keyInstrMain.keys,keyInstrMain.rt,textboxInstrMain2.started,textboxInstrMain2_2.started,textboxInstrMain2_3.started,textboxInstrMain2_4.started,textboxInstrMain2_5.started,textboxInstrMain2_6.started,textboxInstrMain2_7.started,textboxInstrMain2_8.started,textboxInstrMain2_9.started,textboxInstrMain2_10.started,textboxInstrMain2_11.started,textboxInstrMain2_12.started,keyInstrMain2.started,keyInstrMain2.keys,keyInstrMain2.rt,fixationITI.started,fixationITI.stopped,polygonColour.started,polygonWhite.started,imageObject.started,polygonType.started,textInput.started,keyResp.started,micRespv1l1.started,keyResp.keys,keyResp.corr,keyResp.rt,subjResponse,micRespv1l1.clip,textBlankLoop.started,textBlankLoop.stopped,keyPause.keys,polygonColour.stopped,polygonWhite.stopped,imageObject.stopped,polygonType.stopped,textInput.stopped,keyResp.stopped,textboxPause.started,keyPause.started,keyPause.rt,textboxGoodbye.started,textboxGoodbye.stopped,participant,session,date,expName,psychopyVersion,frameRate,
,,,,,,,,,,,,,,,,,,,,,11.246801900211722,13.745709800161421,13.745709800161421,13.745709800161421,13.745709800161421,space,3.0203996999189258,,,,,,,,,,,,,,,,,,,,,,,,,,,,,,,,,,,,,,,,,,,,090101,001,2023-11-22_13h45.01.739,REPSWITCH1_version1_list1,2022.2.4,143.99428620957426,
,,,,,,,,,,,,,,,,,,,,,,,,,,,,16.7807543000672,16.7807543000672,16.7807543000672,16.7807543000672,16.7807543000672,16.7807543000672,16.7807543000672,16.7807543000672,16.7807543000672,16.7807543000672,16.7807543000672,16.7807543000672,16.7807543000672,space,5.098681599833071,,,,,,,,,,,,,,,,,,,,,,,,,,,,,090101,001,2023-11-22_13h45.01.739,REPSWITCH1_version1_list1,2022.2.4,143.99428620957426,
REPSWITCH1/PICTURE_340.png,espejo,type,darkblue,filler,1,F,1,1,1,1,Extra1,0,None,1,0,1,0,0,0,0,,,,,,,,,,,,,,,,,,,,,,,21.98292290000245,23.017723000142723,23.017723000142723,23.017723000142723,23.017723000142723,23.017723000142723,23.017723000142723,23.017723000142723,23.017723000142723,"['e', 's', 'p', 'e', 'k', 'backspace']",0,"[1.051835399819538, 1.155518600018695, 1.2342532998882234, 1.3706507999449968, 2.1151015998329967, 2.755263299914077]",espe,C:\2023\REPSWITCH21092023\REPSWITCH_excgange\REPSWITCH_excgange\data/090101_REPSWITCH1_version1_list1_2023-11-22_13h45.01.739_micRespv1l1_recorded\recording_micRespv1l1_2023-11-22_13h45.18.401.wav,26.038936800090596,26.539078500121832,None,,,,,,,,,,,,090101,001,2023-11-22_13h45.01.739,REPSWITCH1_version1_list1,2022.2.4,143.99428620957426,
REPSWITCH1/PICTURE_391.png,cadena,speak,gold,filler,2,F,1,1,1,1,Extra2,0,None,2,1,2,0,1,1,1,,,,,,,,,,,,,,,,,,,,,,,26.539078500121832,27.671112900134176,27.671112900134176,27.671112900134176,27.671112900134176,27.671112900134176,27.671112900134176,27.671112900134176,27.671112900134176,None,0,,,C:\2023\REPSWITCH21092023\REPSWITCH_excgange\REPSWITCH_excgange\data/090101_REPSWITCH1_version1_list1_2023-11-22_13h45.01.739_micRespv1l1_recorded\recording_micRespv1l1_2023-11-22_13h45.23.057.wav,30.699276800034568,31.19934150017798,None,30.699276800034568,30.699276800034568,30.699276800034568,30.699276800034568,30.699276800034568,30.699276800034568,,,,,,090101,001,2023-11-22_13h45.01.739,REPSWITCH1_version1_list1,2022.2.4,143.99428620957426,
REPSWITCH1/PICTURE_178.png,puente,speak,gold,nontarget,2,NT,1,1,1,1,Stim1_Set1,1,repeat,3,2,3,0,2,2,2,,,,,,,,,,,,,,,,,,,,,,,31.19934150017798,32.34538160008378,32.34538160008378,32.34538160008378,32.34538160008378,32.34538160008378,32.34538160008378,32.34538160008378,32.34538160008378,None,0,,,C:\2023\REPSWITCH21092023\REPSWITCH_excgange\REPSWITCH_excgange\data/090101_REPSWITCH1_version1_list1_2023-11-22_13h45.01.739_micRespv1l1_recorded\recording_micRespv1l1_2023-11-22_13h45.27.731.wav,35.37348400009796,,None,35.37348400009796,35.37348400009796,35.37348400009796,35.37348400009796,35.37348400009796,35.37348400009796,,,,,,090101,001,2023-11-22_13h45.01.739,REPSWITCH1_version1_list1,2022.2.4,143.99428620957426,
REPSWITCH1/PICTURE_178.png,puente,speak,gold,repeat,2,T,1,1,1,1,Stim1_Set1,0,None,4,3,4,0,3,3,3,,,,,,,,,,,,,,,,,,,,,,,35.87353350012563,36.97091650008224,36.97091650008224,36.97091650008224,36.97091650008224,36.97091650008224,36.97091650008224,36.97091650008224,36.97091650008224,None,0,,,C:\2023\REPSWITCH21092023\REPSWITCH_excgange\REPSWITCH_excgange\data/090101_REPSWITCH1_version1_list1_2023-11-22_13h45.01.739_micRespv1l1_recorded\recording_micRespv1l1_2023-11-22_13h45.32.355.wav,39.992156699998304,40.49220270011574,None,39.992156699998304,39.992156699998304,39.992156699998304,39.992156699998304,39.992156699998304,39.992156699998304,,,,,,090101,001,2023-11-22_13h45.01.739,REPSWITCH1_version1_list1,2022.2.4,143.99428620957426,
REPSWITCH1/PICTURE_319.png,vaca,type,darkblue,filler,1,F,1,1,1,1,Stim1_Set4,0,None,5,4,5,0,4,4,4,,,,,,,,,,,,,,,,,,,,,,,40.49220270011574,41.53403350012377,41.53403350012377,41.53403350012377,41.53403350012377,41.53403350012377,41.53403350012377,41.53403350012377,41.53403350012377,"['v', 'a', 'c', 'a']",0,"[1.0022639001253992, 1.0967918001115322, 1.234783000079915, 1.301452600164339]",vaca,C:\2023\REPSWITCH21092023\REPSWITCH_excgange\REPSWITCH_excgange\data/090101_REPSWITCH1_version1_list1_2023-11-22_13h45.01.739_micRespv1l1_recorded\recording_micRespv1l1_2023-11-22_13h45.36.919.wav,44.55532700009644,45.05538730020635,None,44.55532700009644,44.55532700009644,44.55532700009644,44.55532700009644,44.55532700009644,44.55532700009644,,,,,,090101,001,2023-11-22_13h45.01.739,REPSWITCH1_version1_list1,2022.2.4,143.99428620957426,
REPSWITCH1/PICTURE_381.png,fresa,speak,gold,nontarget,2,NT,1,1,1,1,Stim2_Set1,1,switch,6,5,6,0,5,5,5,,,,,,,,,,,,,,,,,,,,,,,45.05538730020635,46.10412360006012,46.10412360006012,46.10412360006012,46.10412360006012,46.10412360006012,46.10412360006012,46.10412360006012,46.10412360006012,None,0,,,C:\2023\REPSWITCH21092023\REPSWITCH_excgange\REPSWITCH_excgange\data/090101_REPSWITCH1_version1_list1_2023-11-22_13h45.01.739_micRespv1l1_recorded\recording_micRespv1l1_2023-11-22_13h45.41.489.wav,49.125272900098935,49.62536170007661,None,49.125272900098935,49.125272900098935,49.125272900098935,49.125272900098935,49.125272900098935,49.125272900098935,,,,,,090101,001,2023-11-22_13h45.01.739,REPSWITCH1_version1_list1,2022.2.4,143.99428620957426,
REPSWITCH1/PICTURE_381.png,fresa,speak,gold,repeat,2,T,1,1,1,1,Stim2_Set1,0,None,7,6,7,0,6,6,6,,,,,,,,,,,,,,,,,,,,,,,49.62536170007661,50.70885410020128,50.70885410020128,50.70885410020128,50.70885410020128,50.70885410020128,50.70885410020128,50.70885410020128,50.70885410020128,None,0,,,C:\2023\REPSWITCH21092023\REPSWITCH_excgange\REPSWITCH_excgange\data/090101_REPSWITCH1_version1_list1_2023-11-22_13h45.01.739_micRespv1l1_recorded\recording_micRespv1l1_2023-11-22_13h45.46.092.wav,53.73004340007901,54.230195600073785,None,53.73004340007901,53.73004340007901,53.73004340007901,53.73004340007901,53.73004340007901,53.73004340007901,,,,,,090101,001,2023-11-22_13h45.01.739,REPSWITCH1_version1_list1,2022.2.4,143.99428620957426,
REPSWITCH1/PICTURE_719.png,baño,type,darkblue,filler,1,F,1,1,1,1,Stim2_Set4,1,switch,8,7,8,0,7,7,7,,,,,,,,,,,,,,,,,,,,,,,54.230195600073785,55.33445390011184,55.33445390011184,55.33445390011184,55.33445390011184,55.33445390011184,55.33445390011184,55.33445390011184,55.33445390011184,"['a', 'backspace', 'b', 'a', 'ñ']",0,"[1.23197490000166, 1.9659786000847816, 2.291305199963972, 2.3650553999468684, 2.5663515999913216]",bañ,C:\2023\REPSWITCH21092023\REPSWITCH_excgange\REPSWITCH_excgange\data/090101_REPSWITCH1_version1_list1_2023-11-22_13h45.01.739_micRespv1l1_recorded\recording_micRespv1l1_2023-11-22_13h45.50.720.wav,58.36259670020081,,None,58.36259670020081,58.36259670020081,58.36259670020081,58.36259670020081,58.36259670020081,58.36259670020081,,,,,,090101,001,2023-11-22_13h45.01.739,REPSWITCH1_version1_list1,2022.2.4,143.99428620957426,
REPSWITCH1/PICTURE_135.png,traje,speak,gold,nontarget,2,NT,1,1,1,1,Stim3_Set1,0,None,9,8,9,0,8,8,8,,,,,,,,,,,,,,,,,,,,,,,58.862658500205725,60.03647330007516,60.03647330007516,60.03647330007516,60.03647330007516,60.03647330007516,60.03647330007516,60.03647330007516,60.03647330007516,None,0,,,C:\2023\REPSWITCH21092023\REPSWITCH_excgange\REPSWITCH_excgange\data/090101_REPSWITCH1_version1_list1_2023-11-22_13h45.01.739_micRespv1l1_recorded\recording_micRespv1l1_2023-11-22_13h45.55.422.wav,63.06458230013959,,None,63.06458230013959,63.06458230013959,63.06458230013959,63.06458230013959,63.06458230013959,63.06458230013959,,,,,,090101,001,2023-11-22_13h45.01.739,REPSWITCH1_version1_list1,2022.2.4,143.99428620957426,
REPSWITCH1/PICTURE_135.png,traje,type,darkblue,switch,1,T,1,1,1,1,Stim3_Set1,0,None,10,9,10,0,9,9,9,,,,,,,,,,,,,,,,,,,,,,,63.56466200016439,64.5925896000117,64.5925896000117,64.5925896000117,64.5925896000117,64.5925896000117,64.5925896000117,64.5925896000117,64.5925896000117,"['t', 'r', 'a', 'j', 'e']",0,"[1.0130302000325173, 1.1190961999818683, 1.1898932000622153, 1.3782816000748426, 1.4928949000313878]",traje,C:\2023\REPSWITCH21092023\REPSWITCH_excgange\REPSWITCH_excgange\data/090101_REPSWITCH1_version1_list1_2023-11-22_13h45.01.739_micRespv1l1_recorded\recording_micRespv1l1_2023-11-22_13h45.59.977.wav,67.6138272001408,68.11385490000248,None,67.6138272001408,67.6138272001408,67.6138272001408,67.6138272001408,67.6138272001408,67.6138272001408,,,,,,090101,001,2023-11-22_13h45.01.739,REPSWITCH1_version1_list1,2022.2.4,143.99428620957426,
REPSWITCH1/PICTURE_687.png,camisa,speak,gold,filler,2,F,1,1,1,1,Stim5_Set4,0,None,11,10,11,0,10,10,10,,,,,,,,,,,,,,,,,,,,,,,68.11385490000248,69.2807138999924,69.2807138999924,69.2807138999924,69.2807138999924,69.2807138999924,69.2807138999924,69.2807138999924,69.2807138999924,None,0,,,C:\2023\REPSWITCH21092023\REPSWITCH_excgange\REPSWITCH_excgange\data/090101_REPSWITCH1_version1_list1_2023-11-22_13h45.01.739_micRespv1l1_recorded\recording_micRespv1l1_2023-11-22_13h46.04.665.wav,72.30190720013343,72.80199990002438,None,72.30190720013343,72.30190720013343,72.30190720013343,72.30190720013343,72.30190720013343,72.30190720013343,,,,,,090101,001,2023-11-22_13h45.01.739,REPSWITCH1_version1_list1,2022.2.4,143.99428620957426,
REPSWITCH1/PICTURE_128.png,muñeca,type,darkblue,nontarget,1,NT,1,1,1,1,Stim4_Set1,1,switch,12,11,12,0,11,11,11,,,,,,,,,,,,,,,,,,,,,,,72.80199990002438,73.87158240005374,73.87158240005374,73.87158240005374,73.87158240005374,73.87158240005374,73.87158240005374,73.87158240005374,73.87158240005374,"['m', 'u', 'ñ', 'e', 'c', 'a']",0,"[0.8523105001077056, 1.09481479995884, 1.387825099984184, 1.4835010999813676, 1.6389417999889702, 1.7190302999224514]",muñeca,C:\2023\REPSWITCH21092023\REPSWITCH_excgange\REPSWITCH_excgange\data/090101_REPSWITCH1_version1_list1_2023-11-22_13h45.01.739_micRespv1l1_recorded\recording_micRespv1l1_2023-11-22_13h46.09.256.wav,76.89280190016143,77.39288830012083,None,76.89280190016143,76.89280190016143,76.89280190016143,76.89280190016143,76.89280190016143,76.89280190016143,,,,,,090101,001,2023-11-22_13h45.01.739,REPSWITCH1_version1_list1,2022.2.4,143.99428620957426,
REPSWITCH1/PICTURE_128.png,muñeca,speak,gold,switch,2,T,1,1,1,1,Stim4_Set1,0,None,13,12,13,0,12,12,12,,,,,,,,,,,,,,,,,,,,,,,77.39288830012083,78.42085750005208,78.42085750005208,78.42085750005208,78.42085750005208,78.42085750005208,78.42085750005208,78.42085750005208,78.42085750005208,None,0,,,C:\2023\REPSWITCH21092023\REPSWITCH_excgange\REPSWITCH_excgange\data/090101_REPSWITCH1_version1_list1_2023-11-22_13h45.01.739_micRespv1l1_recorded\recording_micRespv1l1_2023-11-22_13h46.13.806.wav,81.44210120011121,81.94216710003093,None,81.44210120011121,81.44210120011121,81.44210120011121,81.44210120011121,81.44210120011121,81.44210120011121,,,,,,090101,001,2023-11-22_13h45.01.739,REPSWITCH1_version1_list1,2022.2.4,143.99428620957426,
REPSWITCH1/PICTURE_8.png,pierna,speak,gold,filler,2,F,1,1,1,1,Stim3_Set4,0,None,14,13,14,0,13,13,13,,,,,,,,,,,,,,,,,,,,,,,81.94216710003093,83.02555620018393,83.02555620018393,83.02555620018393,83.02555620018393,83.02555620018393,83.02555620018393,83.02555620018393,83.02555620018393,None,0,,,C:\2023\REPSWITCH21092023\REPSWITCH_excgange\REPSWITCH_excgange\data/090101_REPSWITCH1_version1_list1_2023-11-22_13h45.01.739_micRespv1l1_recorded\recording_micRespv1l1_2023-11-22_13h46.18.410.wav,86.04680180014111,86.54685769998468,None,86.04680180014111,86.04680180014111,86.04680180014111,86.04680180014111,86.04680180014111,86.04680180014111,,,,,,090101,001,2023-11-22_13h45.01.739,REPSWITCH1_version1_list1,2022.2.4,143.99428620957426,
REPSWITCH1/PICTURE_19.png,pavo,speak,gold,nontarget,2,NT,1,1,1,1,Stim5_Set1,0,None,15,14,15,0,14,14,14,,,,,,,,,,,,,,,,,,,,,,,86.54685769998468,87.61645180010237,87.61645180010237,87.61645180010237,87.61645180010237,87.61645180010237,87.61645180010237,87.61645180010237,87.61645180010237,None,0,,,C:\2023\REPSWITCH21092023\REPSWITCH_excgange\REPSWITCH_excgange\data/090101_REPSWITCH1_version1_list1_2023-11-22_13h45.01.739_micRespv1l1_recorded\recording_micRespv1l1_2023-11-22_13h46.23.002.wav,90.64466930017807,,None,90.64466930017807,90.64466930017807,90.64466930017807,90.64466930017807,90.64466930017807,90.64466930017807,,,,,,090101,001,2023-11-22_13h45.01.739,REPSWITCH1_version1_list1,2022.2.4,143.99428620957426,
REPSWITCH1/PICTURE_19.png,pavo,type,darkblue,switch,1,T,1,1,1,1,Stim5_Set1,0,None,16,15,16,0,15,15,15,,,,,,,,,,,,,,,,,,,,,,,91.14467710000463,92.2698092001956,92.2698092001956,92.2698092001956,92.2698092001956,92.2698092001956,92.2698092001956,92.2698092001956,92.2698092001956,"['p', 'a', 'v', 'o']",0,"[0.6621967998798937, 0.7256210998166353, 0.8273266998585314, 0.9152596998028457]",pavo,C:\2023\REPSWITCH21092023\REPSWITCH_excgange\REPSWITCH_excgange\data/090101_REPSWITCH1_version1_list1_2023-11-22_13h45.01.739_micRespv1l1_recorded\recording_micRespv1l1_2023-11-22_13h46.27.655.wav,95.2910695001483,95.79119640006684,None,95.2910695001483,95.2910695001483,95.2910695001483,95.2910695001483,95.2910695001483,95.2910695001483,,,,,,090101,001,2023-11-22_13h45.01.739,REPSWITCH1_version1_list1,2022.2.4,143.99428620957426,
REPSWITCH1/PICTURE_16.png,cazador,type,darkblue,nontarget,1,NT,1,1,1,1,Stim6_Set1,1,switch,17,16,17,0,16,16,16,,,,,,,,,,,,,,,,,,,,,,,95.79119640006684,96.85375320003368,96.85375320003368,96.85375320003368,96.85375320003368,96.85375320003368,96.85375320003368,96.85375320003368,96.85375320003368,"['c', 'a', 'z', 'a', 'd', 'o', 'r']",0,"[0.877715100068599, 0.9464827000629157, 1.5990115001332015, 1.724574000108987, 1.900966500164941, 1.9570277000311762, 2.1526774000376463]",cazador,C:\2023\REPSWITCH21092023\REPSWITCH_excgange\REPSWITCH_excgange\data/090101_REPSWITCH1_version1_list1_2023-11-22_13h45.01.739_micRespv1l1_recorded\recording_micRespv1l1_2023-11-22_13h46.32.239.wav,99.88199430005625,,None,99.88199430005625,99.88199430005625,99.88199430005625,99.88199430005625,99.88199430005625,99.88199430005625,,,,,,090101,001,2023-11-22_13h45.01.739,REPSWITCH1_version1_list1,2022.2.4,143.99428620957426,
REPSWITCH1/PICTURE_16.png,cazador,type,darkblue,repeat,1,T,1,1,1,1,Stim6_Set1,0,None,18,17,18,0,17,17,17,,,,,,,,,,,,,,,,,,,,,,,100.38199870008975,101.52806750009768,101.52806750009768,101.52806750009768,101.52806750009768,101.52806750009768,101.52806750009768,101.52806750009768,101.52806750009768,"['x', 'a', 'backspace', 'backspace', 'c', 'a', 'z', 'a', 'd', 'o', 'r']",0,"[0.7436804000753909, 0.8466475999448448, 1.260654600104317, 1.410464100074023, 1.4732536000665277, 1.5231176998931915, 1.7174619000870734, 1.8659717999398708, 1.9876131999772042, 2.076328899944201, 2.2337921999860555]",cazador,C:\2023\REPSWITCH21092023\REPSWITCH_excgange\REPSWITCH_excgange\data/090101_REPSWITCH1_version1_list1_2023-11-22_13h45.01.739_micRespv1l1_recorded\recording_micRespv1l1_2023-11-22_13h46.36.913.wav,104.54920110013336,105.04929030011408,None,104.54920110013336,104.54920110013336,104.54920110013336,104.54920110013336,104.54920110013336,104.54920110013336,,,,,,090101,001,2023-11-22_13h45.01.739,REPSWITCH1_version1_list1,2022.2.4,143.99428620957426,
REPSWITCH1/PICTURE_498.png,taza,speak,gold,filler,2,F,1,1,1,1,Stim4_Set4,0,None,19,18,19,0,18,18,18,,,,,,,,,,,,,,,,,,,,,,,105.04929030011408,106.11191420000978,106.11191420000978,106.11191420000978,106.11191420000978,106.11191420000978,106.11191420000978,106.11191420000978,106.11191420000978,None,0,,,C:\2023\REPSWITCH21092023\REPSWITCH_excgange\REPSWITCH_excgange\data/090101_REPSWITCH1_version1_list1_2023-11-22_13h45.01.739_micRespv1l1_recorded\recording_micRespv1l1_2023-11-22_13h46.41.496.wav,109.14010439999402,,None,109.14010439999402,109.14010439999402,109.14010439999402,109.14010439999402,109.14010439999402,109.14010439999402,,,,,,090101,001,2023-11-22_13h45.01.739,REPSWITCH1_version1_list1,2022.2.4,143.99428620957426,
REPSWITCH1/PICTURE_48.png,bombero,type,darkblue,filler,1,F,1,1,1,1,Stim7_Set4,0,None,20,19,20,0,19,19,19,,,,,,,,,,,,,,,,,,,,,,,109.64016090007499,110.70983549999073,110.70983549999073,110.70983549999073,110.70983549999073,110.70983549999073,110.70983549999073,110.70983549999073,110.70983549999073,"['b', 'p', 'm', 'b', 'e', 'backspace', 'backspace', 'backspace', 'backspace', 'o', 'm', 'b', 'e']",0,"[1.0082262000069022, 1.0780678999144584, 1.3011888000182807, 1.4211548001039773, 1.5507010000292212, 1.8715522999409586, 2.0041078999638557, 2.165801400085911, 2.2794989000540227, 2.585695199901238, 2.8162972000427544, 2.8990060999058187, 2.9777335999533534]",bombe,C:\2023\REPSWITCH21092023\REPSWITCH_excgange\REPSWITCH_excgange\data/090101_REPSWITCH1_version1_list1_2023-11-22_13h45.01.739_micRespv1l1_recorded\recording_micRespv1l1_2023-11-22_13h46.46.094.wav,113.73097730008885,114.23105030017905,None,113.73097730008885,113.73097730008885,113.73097730008885,113.73097730008885,113.73097730008885,113.73097730008885,,,,,,090101,001,2023-11-22_13h45.01.739,REPSWITCH1_version1_list1,2022.2.4,143.99428620957426,
REPSWITCH1/PICTURE_142.png,vaso,type,darkblue,nontarget,1,NT,1,1,1,1,Stim7_Set1,1,repeat,21,20,21,0,20,20,20,,,,,,,,,,,,,,,,,,,,,,,114.23105030017905,115.32145879999734,115.32145879999734,115.32145879999734,115.32145879999734,115.32145879999734,115.32145879999734,115.32145879999734,115.32145879999734,"['v', 'a', 's', 'o']",0,"[1.1188029001932591, 1.1815850001294166, 1.3549713999964297, 1.3928731000050902]",vaso,C:\2023\REPSWITCH21092023\REPSWITCH_excgange\REPSWITCH_excgange\data/090101_REPSWITCH1_version1_list1_2023-11-22_13h45.01.739_micRespv1l1_recorded\recording_micRespv1l1_2023-11-22_13h46.50.706.wav,118.34269190020859,118.8427353000734,None,118.34269190020859,118.34269190020859,118.34269190020859,118.34269190020859,118.34269190020859,118.34269190020859,,,,,,090101,001,2023-11-22_13h45.01.739,REPSWITCH1_version1_list1,2022.2.4,143.99428620957426,
REPSWITCH1/PICTURE_142.png,vaso,type,darkblue,repeat,1,T,1,1,1,1,Stim7_Set1,0,None,22,21,22,0,21,21,21,,,,,,,,,,,,,,,,,,,,,,,118.8427353000734,120.04429960018024,120.04429960018024,120.04429960018024,120.04429960018024,120.04429960018024,120.04429960018024,120.04429960018024,120.04429960018024,"['v', 'a', 's', 'o']",0,"[0.9569944001268595, 1.010822999989614, 1.1297266001347452, 1.1705952000338584]",vaso,C:\2023\REPSWITCH21092023\REPSWITCH_excgange\REPSWITCH_excgange\data/090101_REPSWITCH1_version1_list1_2023-11-22_13h45.01.739_micRespv1l1_recorded\recording_micRespv1l1_2023-11-22_13h46.55.430.wav,123.07245830004103,,None,123.07245830004103,123.07245830004103,123.07245830004103,123.07245830004103,123.07245830004103,123.07245830004103,,,,,,090101,001,2023-11-22_13h45.01.739,REPSWITCH1_version1_list1,2022.2.4,143.99428620957426,
REPSWITCH1/PICTURE_338.png,regalo,speak,gold,filler,2,F,1,1,1,1,Stim6_Set4,1,switch,23,22,23,0,22,22,22,,,,,,,,,,,,,,,,,,,,,,,123.57252210006118,124.68386270012707,124.68386270012707,124.68386270012707,124.68386270012707,124.68386270012707,124.68386270012707,124.68386270012707,124.68386270012707,None,0,,,C:\2023\REPSWITCH21092023\REPSWITCH_excgange\REPSWITCH_excgange\data/090101_REPSWITCH1_version1_list1_2023-11-22_13h45.01.739_micRespv1l1_recorded\recording_micRespv1l1_2023-11-22_13h47.00.069.wav,127.71195580018684,128.21211200021207,None,127.71195580018684,127.71195580018684,127.71195580018684,127.71195580018684,127.71195580018684,127.71195580018684,,,,,,090101,001,2023-11-22_13h45.01.739,REPSWITCH1_version1_list1,2022.2.4,143.99428620957426,
REPSWITCH1/PICTURE_728.png,pulpo,type,darkblue,filler,1,F,1,1,1,1,Stim8_Set4,1,switch,24,23,24,0,23,23,23,,,,,,,,,,,,,,,,,,,,,,,128.21211200021207,129.26776530011557,129.26776530011557,129.26776530011557,129.26776530011557,129.26776530011557,129.26776530011557,129.26776530011557,129.26776530011557,"['o', 'u', 'l', 'backspace', 'backspace', 'backspace', 'p', 'u', 'l', 'p', 'o']",0,"[0.6466789999976754, 1.0743869000580162, 1.2781748999841511, 1.5841025998815894, 1.7177373000886291, 1.8721481000538915, 2.018737900070846, 2.182420500088483, 2.2918575999792665, 2.591489899903536, 2.6950868000276387]",pulpo,C:\2023\REPSWITCH21092023\REPSWITCH_excgange\REPSWITCH_excgange\data/090101_REPSWITCH1_version1_list1_2023-11-22_13h45.01.739_micRespv1l1_recorded\recording_micRespv1l1_2023-11-22_13h47.04.652.wav,132.28896889998578,132.7890346001368,None,132.28896889998578,132.28896889998578,132.28896889998578,132.28896889998578,132.28896889998578,132.28896889998578,,,,,,090101,001,2023-11-22_13h45.01.739,REPSWITCH1_version1_list1,2022.2.4,143.99428620957426,
REPSWITCH1/PICTURE_169.png,espalda,type,darkblue,nontarget,1,NT,1,1,1,1,Stim8_Set1,1,repeat,25,24,25,0,24,24,24,,,,,,,,,,,,,,,,,,,,,,,132.7890346001368,133.87250749999657,133.87250749999657,133.87250749999657,133.87250749999657,133.87250749999657,133.87250749999657,133.87250749999657,133.87250749999657,"['e', 's', 'p', 'a', 'l', 'd', 'a']",0,"[0.753380199894309, 0.9048564999829978, 0.9715972000267357, 1.1314369000028819, 1.2081788999494165, 1.3477169999387115, 1.4145209998823702]",espalda,C:\2023\REPSWITCH21092023\REPSWITCH_excgange\REPSWITCH_excgange\data/090101_REPSWITCH1_version1_list1_2023-11-22_13h45.01.739_micRespv1l1_recorded\recording_micRespv1l1_2023-11-22_13h47.09.257.wav,136.89369880012237,137.393801700091,None,136.89369880012237,136.89369880012237,136.89369880012237,136.89369880012237,136.89369880012237,136.89369880012237,,,,,,090101,001,2023-11-22_13h45.01.739,REPSWITCH1_version1_list1,2022.2.4,143.99428620957426,
REPSWITCH1/PICTURE_169.png,espalda,speak,gold,switch,2,T,1,1,1,1,Stim8_Set1,0,None,26,25,26,0,25,25,25,,,,,,,,,,,,,,,,,,,,,,,137.393801700091,138.51897160010412,138.51897160010412,138.51897160010412,138.51897160010412,138.51897160010412,138.51897160010412,138.51897160010412,138.51897160010412,None,0,,,C:\2023\REPSWITCH21092023\REPSWITCH_excgange\REPSWITCH_excgange\data/090101_REPSWITCH1_version1_list1_2023-11-22_13h45.01.739_micRespv1l1_recorded\recording_micRespv1l1_2023-11-22_13h47.13.903.wav,141.54018340003677,142.04022560012527,None,141.54018340003677,141.54018340003677,141.54018340003677,141.54018340003677,141.54018340003677,141.54018340003677,,,,,,090101,001,2023-11-22_13h45.01.739,REPSWITCH1_version1_list1,2022.2.4,143.99428620957426,
REPSWITCH1/PICTURE_178.png,puente,speak,gold,filler,2,F,2,1,1,1,Stim1_Set1,0,None,27,26,27,0,26,26,26,,,,,,,,,,,,,,,,,,,,,,,142.04022560012527,143.1654203000944,143.1654203000944,143.1654203000944,143.1654203000944,143.1654203000944,143.1654203000944,143.1654203000944,143.1654203000944,None,0,,,C:\2023\REPSWITCH21092023\REPSWITCH_excgange\REPSWITCH_excgange\data/090101_REPSWITCH1_version1_list1_2023-11-22_13h45.01.739_micRespv1l1_recorded\recording_micRespv1l1_2023-11-22_13h47.18.550.wav,146.18660110002384,146.68666400015354,None,146.18660110002384,146.18660110002384,146.18660110002384,146.18660110002384,146.18660110002384,146.18660110002384,,,,,,090101,001,2023-11-22_13h45.01.739,REPSWITCH1_version1_list1,2022.2.4,143.99428620957426,
REPSWITCH1/PICTURE_175.png,pintor,type,darkblue,nontarget,1,NT,2,1,1,1,Stim1_Set2,1,switch,28,27,28,0,27,27,27,,,,,,,,,,,,,,,,,,,,,,,146.68666400015354,147.74937620013952,147.74937620013952,147.74937620013952,147.74937620013952,147.74937620013952,147.74937620013952,147.74937620013952,147.74937620013952,"['p', 'i', 'n', 't', 'o', 'r']",0,"[0.7218176999595016, 0.9334958998952061, 1.1295632000546902, 1.253113199956715, 1.3767021000385284, 1.48033869988285]",pintor,C:\2023\REPSWITCH21092023\REPSWITCH_excgange\REPSWITCH_excgange\data/090101_REPSWITCH1_version1_list1_2023-11-22_13h45.01.739_micRespv1l1_recorded\recording_micRespv1l1_2023-11-22_13h47.23.134.wav,150.77052930020727,151.2705944001209,None,150.77052930020727,150.77052930020727,150.77052930020727,150.77052930020727,150.77052930020727,150.77052930020727,,,,,,090101,001,2023-11-22_13h45.01.739,REPSWITCH1_version1_list1,2022.2.4,143.99428620957426,
REPSWITCH1/PICTURE_175.png,pintor,type,darkblue,repeat,1,T,2,1,1,1,Stim1_Set2,0,None,29,28,29,0,28,28,28,,,,,,,,,,,,,,,,,,,,,,,151.2705944001209,152.40965580008924,152.40965580008924,152.40965580008924,152.40965580008924,152.40965580008924,152.40965580008924,152.40965580008924,152.40965580008924,"['p', 'i', 'n', 't', 'o', 'r']",0,"[0.6780096997972578, 0.8723885999061167, 1.1108593000099063, 1.257380099967122, 1.3371416998561472, 1.4470395999960601]",pintor,C:\2023\REPSWITCH21092023\REPSWITCH_excgange\REPSWITCH_excgange\data/090101_REPSWITCH1_version1_list1_2023-11-22_13h45.01.739_micRespv1l1_recorded\recording_micRespv1l1_2023-11-22_13h47.27.795.wav,155.43783110007644,,None,155.43783110007644,155.43783110007644,155.43783110007644,155.43783110007644,155.43783110007644,155.43783110007644,,,,,,090101,001,2023-11-22_13h45.01.739,REPSWITCH1_version1_list1,2022.2.4,143.99428620957426,
REPSWITCH1/PICTURE_381.png,fresa,speak,gold,filler,2,F,2,1,1,1,Stim2_Set1,0,None,30,29,30,0,29,29,29,,,,,,,,,,,,,,,,,,,,,,,155.93796880007721,156.97274240013212,156.97274240013212,156.97274240013212,156.97274240013212,156.97274240013212,156.97274240013212,156.97274240013212,156.97274240013212,None,0,,,C:\2023\REPSWITCH21092023\REPSWITCH_excgange\REPSWITCH_excgange\data/090101_REPSWITCH1_version1_list1_2023-11-22_13h45.01.739_micRespv1l1_recorded\recording_micRespv1l1_2023-11-22_13h47.32.358.wav,160.00090950005688,,None,160.00090950005688,160.00090950005688,160.00090950005688,160.00090950005688,160.00090950005688,160.00090950005688,,,,,,090101,001,2023-11-22_13h45.01.739,REPSWITCH1_version1_list1,2022.2.4,143.99428620957426,
REPSWITCH1/PICTURE_152.png,caracol,type,darkblue,nontarget,1,NT,2,1,1,1,Stim2_Set2,1,switch,31,30,31,0,30,30,30,,,,,,,,,,,,,,,,,,,,,,,160.5010606001597,161.6469519000966,161.6469519000966,161.6469519000966,161.6469519000966,161.6469519000966,161.6469519000966,161.6469519000966,161.6469519000966,"['c', 'a', 'r', 'a', 'c', 'o', 'l']",0,"[0.9162802998907864, 0.9849762998055667, 1.1421192998532206, 1.2090888998936862, 1.3289167999755591, 1.4066550999414176, 1.608981799799949]",caracol,C:\2023\REPSWITCH21092023\REPSWITCH_excgange\REPSWITCH_excgange\data/090101_REPSWITCH1_version1_list1_2023-11-22_13h45.01.739_micRespv1l1_recorded\recording_micRespv1l1_2023-11-22_13h47.37.032.wav,164.6752281000372,,None,164.6752281000372,164.6752281000372,164.6752281000372,164.6752281000372,164.6752281000372,164.6752281000372,,,,,,090101,001,2023-11-22_13h45.01.739,REPSWITCH1_version1_list1,2022.2.4,143.99428620957426,
REPSWITCH1/PICTURE_152.png,caracol,type,darkblue,repeat,1,T,2,1,1,1,Stim2_Set2,0,None,32,31,32,0,31,31,31,,,,,,,,,,,,,,,,,,,,,,,165.17521230014972,166.2725947999861,166.2725947999861,166.2725947999861,166.2725947999861,166.2725947999861,166.2725947999861,166.2725947999861,166.2725947999861,"['c', 'a', 'r', 'a', 'c', 'o', 'l']",0,"[0.42644399986602366, 0.5044877999462187, 0.6871141998562962, 0.8154900998342782, 0.9271867999341339, 1.0168837998062372, 1.2664340999908745]",caracol,C:\2023\REPSWITCH21092023\REPSWITCH_excgange\REPSWITCH_excgange\data/090101_REPSWITCH1_version1_list1_2023-11-22_13h45.01.739_micRespv1l1_recorded\recording_micRespv1l1_2023-11-22_13h47.41.657.wav,169.29381699999794,169.79386830003932,None,169.29381699999794,169.29381699999794,169.29381699999794,169.29381699999794,169.29381699999794,169.29381699999794,,,,,,090101,001,2023-11-22_13h45.01.739,REPSWITCH1_version1_list1,2022.2.4,143.99428620957426,
REPSWITCH1/PICTURE_128.png,muñeca,speak,gold,filler,2,F,2,1,1,1,Stim4_Set1,0,None,33,32,33,0,32,32,32,,,,,,,,,,,,,,,,,,,,,,,169.79386830003932,170.91901540011168,170.91901540011168,170.91901540011168,170.91901540011168,170.91901540011168,170.91901540011168,170.91901540011168,170.91901540011168,None,0,,,C:\2023\REPSWITCH21092023\REPSWITCH_excgange\REPSWITCH_excgange\data/090101_REPSWITCH1_version1_list1_2023-11-22_13h45.01.739_micRespv1l1_recorded\recording_micRespv1l1_2023-11-22_13h47.46.304.wav,173.9472015001811,,None,173.9472015001811,173.9472015001811,173.9472015001811,173.9472015001811,173.9472015001811,173.9472015001811,,,,,,090101,001,2023-11-22_13h45.01.739,REPSWITCH1_version1_list1,2022.2.4,143.99428620957426,
REPSWITCH1/PICTURE_264.png,mano,type,darkblue,nontarget,1,NT,2,1,1,1,Stim3_Set2,0,None,34,33,34,0,33,33,33,,,,,,,,,,,,,,,,,,,,,,,174.44727510004304,175.57937540020794,175.57937540020794,175.57937540020794,175.57937540020794,175.57937540020794,175.57937540020794,175.57937540020794,175.57937540020794,"['m', 'a', 'n', 'o']",0,"[0.6930354000069201, 0.7677066000178456, 0.923279199982062, 1.1136372999753803]",mano,C:\2023\REPSWITCH21092023\REPSWITCH_excgange\REPSWITCH_excgange\data/090101_REPSWITCH1_version1_list1_2023-11-22_13h45.01.739_micRespv1l1_recorded\recording_micRespv1l1_2023-11-22_13h47.50.965.wav,178.600567500107,179.10062030004337,None,178.600567500107,178.600567500107,178.600567500107,178.600567500107,178.600567500107,178.600567500107,,,,,,090101,001,2023-11-22_13h45.01.739,REPSWITCH1_version1_list1,2022.2.4,143.99428620957426,
REPSWITCH1/PICTURE_264.png,mano,speak,gold,switch,2,T,2,1,1,1,Stim3_Set2,0,None,35,34,35,0,34,34,34,,,,,,,,,,,,,,,,,,,,,,,179.10062030004337,180.23272920004092,180.23272920004092,180.23272920004092,180.23272920004092,180.23272920004092,180.23272920004092,180.23272920004092,180.23272920004092,None,0,,,C:\2023\REPSWITCH21092023\REPSWITCH_excgange\REPSWITCH_excgange\data/090101_REPSWITCH1_version1_list1_2023-11-22_13h45.01.739_micRespv1l1_recorded\recording_micRespv1l1_2023-11-22_13h47.55.617.wav,183.26092000002973,,None,183.26092000002973,183.26092000002973,183.26092000002973,183.26092000002973,183.26092000002973,183.26092000002973,,,,,,090101,001,2023-11-22_13h45.01.739,REPSWITCH1_version1_list1,2022.2.4,143.99428620957426,
REPSWITCH1/PICTURE_517.png,cuerda,speak,gold,nontarget,2,NT,2,1,1,1,Stim4_Set2,1,repeat,36,35,36,0,35,35,35,,,,,,,,,,,,,,,,,,,,,,,183.76098000002094,184.8375222000759,184.8375222000759,184.8375222000759,184.8375222000759,184.8375222000759,184.8375222000759,184.8375222000759,184.8375222000759,None,0,,,C:\2023\REPSWITCH21092023\REPSWITCH_excgange\REPSWITCH_excgange\data/090101_REPSWITCH1_version1_list1_2023-11-22_13h45.01.739_micRespv1l1_recorded\recording_micRespv1l1_2023-11-22_13h48.00.222.wav,187.85871280007996,188.35879980004393,None,187.85871280007996,187.85871280007996,187.85871280007996,187.85871280007996,187.85871280007996,187.85871280007996,,,,,,090101,001,2023-11-22_13h45.01.739,REPSWITCH1_version1_list1,2022.2.4,143.99428620957426,
REPSWITCH1/PICTURE_517.png,cuerda,type,darkblue,switch,1,T,2,1,1,1,Stim4_Set2,0,None,37,36,37,0,36,36,36,,,,,,,,,,,,,,,,,,,,,,,188.35879980004393,189.41454080003314,189.41454080003314,189.41454080003314,189.41454080003314,189.41454080003314,189.41454080003314,189.41454080003314,189.41454080003314,"['c', 'u', 'e', 'r', 'd', 'a']",0,"[0.5599398000631481, 0.7004609999712557, 0.7980951999779791, 0.8519158000126481, 1.0317905000410974, 1.1144440001808107]",cuerda,C:\2023\REPSWITCH21092023\REPSWITCH_excgange\REPSWITCH_excgange\data/090101_REPSWITCH1_version1_list1_2023-11-22_13h45.01.739_micRespv1l1_recorded\recording_micRespv1l1_2023-11-22_13h48.04.799.wav,192.43569860002026,192.93580420012586,None,192.43569860002026,192.43569860002026,192.43569860002026,192.43569860002026,192.43569860002026,192.43569860002026,,,,,,090101,001,2023-11-22_13h45.01.739,REPSWITCH1_version1_list1,2022.2.4,143.99428620957426,
REPSWITCH1/PICTURE_135.png,traje,type,darkblue,filler,1,F,2,1,1,1,Stim3_Set1,0,None,38,37,38,0,37,37,37,,,,,,,,,,,,,,,,,,,,,,,192.93580420012586,194.08181360014714,194.08181360014714,194.08181360014714,194.08181360014714,194.08181360014714,194.08181360014714,194.08181360014714,194.08181360014714,"['t', 'r', 'a', 'j', 'e']",0,"[0.8472931000869721, 0.9080701000057161, 0.9887314999941736, 1.102354499977082, 1.2000287000555545]",traje,C:\2023\REPSWITCH21092023\REPSWITCH_excgange\REPSWITCH_excgange\data/090101_REPSWITCH1_version1_list1_2023-11-22_13h45.01.739_micRespv1l1_recorded\recording_micRespv1l1_2023-11-22_13h48.09.466.wav,197.11003350000829,,None,197.11003350000829,197.11003350000829,197.11003350000829,197.11003350000829,197.11003350000829,197.11003350000829,,,,,,090101,001,2023-11-22_13h45.01.739,REPSWITCH1_version1_list1,2022.2.4,143.99428620957426,
REPSWITCH1/PICTURE_30.png,granja,type,darkblue,nontarget,1,NT,2,1,1,1,Stim5_Set2,1,repeat,39,38,39,0,38,38,38,,,,,,,,,,,,,,,,,,,,,,,197.61002490017563,198.630959500093,198.630959500093,198.630959500093,198.630959500093,198.630959500093,198.630959500093,198.630959500093,198.630959500093,"['g', 'r', 'a', 'n', 'j', 'a']",0,"[0.9576530000194907, 1.019514099927619, 1.0653333000373095, 1.18492819997482, 1.3912319000810385, 1.481936400057748]",granja,C:\2023\REPSWITCH21092023\REPSWITCH_excgange\REPSWITCH_excgange\data/090101_REPSWITCH1_version1_list1_2023-11-22_13h45.01.739_micRespv1l1_recorded\recording_micRespv1l1_2023-11-22_13h48.14.017.wav,201.6592394001782,202.15922790020704,None,201.6592394001782,201.6592394001782,201.6592394001782,201.6592394001782,201.6592394001782,201.6592394001782,,,,,,090101,001,2023-11-22_13h45.01.739,REPSWITCH1_version1_list1,2022.2.4,143.99428620957426,
REPSWITCH1/PICTURE_30.png,granja,speak,gold,switch,2,T,2,1,1,1,Stim5_Set2,0,None,40,39,40,0,39,39,39,,,,,,,,,,,,,,,,,,,,,,,202.15922790020704,203.1940723999869,203.1940723999869,203.1940723999869,203.1940723999869,203.1940723999869,203.1940723999869,203.1940723999869,203.1940723999869,None,0,,,C:\2023\REPSWITCH21092023\REPSWITCH_excgange\REPSWITCH_excgange\data/090101_REPSWITCH1_version1_list1_2023-11-22_13h45.01.739_micRespv1l1_recorded\recording_micRespv1l1_2023-11-22_13h48.18.580.wav,206.22229539998807,,None,206.22229539998807,206.22229539998807,206.22229539998807,206.22229539998807,206.22229539998807,206.22229539998807,,,,,,090101,001,2023-11-22_13h45.01.739,REPSWITCH1_version1_list1,2022.2.4,143.99428620957426,
REPSWITCH1/PICTURE_142.png,vaso,type,darkblue,filler,1,F,2,1,1,1,Stim7_Set1,0,None,41,40,41,0,40,40,40,,,,,,,,,,,,,,,,,,,,,,,206.72231650003232,207.8127383000683,207.8127383000683,207.8127383000683,207.8127383000683,207.8127383000683,207.8127383000683,207.8127383000683,207.8127383000683,"['v', 'a', 's', 'o']",0,"[0.9264344000257552, 1.003230899805203, 1.0610126999672502, 1.131400999845937]",vaso,C:\2023\REPSWITCH21092023\REPSWITCH_excgange\REPSWITCH_excgange\data/090101_REPSWITCH1_version1_list1_2023-11-22_13h45.01.739_micRespv1l1_recorded\recording_micRespv1l1_2023-11-22_13h48.23.197.wav,210.8339733001776,211.3340504001826,None,210.8339733001776,210.8339733001776,210.8339733001776,210.8339733001776,210.8339733001776,210.8339733001776,,,,,,090101,001,2023-11-22_13h45.01.739,REPSWITCH1_version1_list1,2022.2.4,143.99428620957426,
REPSWITCH1/PICTURE_19.png,pavo,speak,gold,filler,2,F,2,1,1,1,Stim5_Set1,1,switch,42,41,42,0,41,41,41,,,,,,,,,,,,,,,,,,,,,,,211.3340504001826,212.41751689999364,212.41751689999364,212.41751689999364,212.41751689999364,212.41751689999364,212.41751689999364,212.41751689999364,212.41751689999364,None,0,,,C:\2023\REPSWITCH21092023\REPSWITCH_excgange\REPSWITCH_excgange\data/090101_REPSWITCH1_version1_list1_2023-11-22_13h45.01.739_micRespv1l1_recorded\recording_micRespv1l1_2023-11-22_13h48.27.803.wav,215.43878210010007,215.93887579999864,None,215.43878210010007,215.43878210010007,215.43878210010007,215.43878210010007,215.43878210010007,215.43878210010007,,,,,,090101,001,2023-11-22_13h45.01.739,REPSWITCH1_version1_list1,2022.2.4,143.99428620957426,
REPSWITCH1/PICTURE_552.png,manzana,speak,gold,nontarget,2,NT,2,1,1,1,Stim6_Set2,1,repeat,43,42,43,0,42,42,42,,,,,,,,,,,,,,,,,,,,,,,215.93887579999864,217.05704620014876,217.05704620014876,217.05704620014876,217.05704620014876,217.05704620014876,217.05704620014876,217.05704620014876,217.05704620014876,None,0,,,C:\2023\REPSWITCH21092023\REPSWITCH_excgange\REPSWITCH_excgange\data/090101_REPSWITCH1_version1_list1_2023-11-22_13h45.01.739_micRespv1l1_recorded\recording_micRespv1l1_2023-11-22_13h48.32.443.wav,220.08518100017682,,None,220.08518100017682,220.08518100017682,220.08518100017682,220.08518100017682,220.08518100017682,220.08518100017682,,,,,,090101,001,2023-11-22_13h45.01.739,REPSWITCH1_version1_list1,2022.2.4,143.99428620957426,
REPSWITCH1/PICTURE_552.png,manzana,speak,gold,repeat,2,T,2,1,1,1,Stim6_Set2,0,None,44,43,44,0,43,43,43,,,,,,,,,,,,,,,,,,,,,,,220.5852550000418,221.62705790018663,221.62705790018663,221.62705790018663,221.62705790018663,221.62705790018663,221.62705790018663,221.62705790018663,221.62705790018663,None,0,,,C:\2023\REPSWITCH21092023\REPSWITCH_excgange\REPSWITCH_excgange\data/090101_REPSWITCH1_version1_list1_2023-11-22_13h45.01.739_micRespv1l1_recorded\recording_micRespv1l1_2023-11-22_13h48.37.013.wav,224.65530680003576,225.15529960021377,None,224.65530680003576,224.65530680003576,224.65530680003576,224.65530680003576,224.65530680003576,224.65530680003576,,,,,,090101,001,2023-11-22_13h45.01.739,REPSWITCH1_version1_list1,2022.2.4,143.99428620957426,
REPSWITCH1/PICTURE_16.png,cazador,type,darkblue,filler,1,F,2,1,1,1,Stim6_Set1,0,None,45,44,45,0,44,44,44,,,,,,,,,,,,,,,,,,,,,,,225.15529960021377,226.2041007000953,226.2041007000953,226.2041007000953,226.2041007000953,226.2041007000953,226.2041007000953,226.2041007000953,226.2041007000953,"['c', 'a', 'z', 'a', 'd', 'o', 'r']",0,"[1.0382286999374628, 1.102999099995941, 1.28044190001674, 1.3830660998355597, 1.4756793999113142, 1.647983699804172, 1.760594799881801]",cazador,C:\2023\REPSWITCH21092023\REPSWITCH_excgange\REPSWITCH_excgange\data/090101_REPSWITCH1_version1_list1_2023-11-22_13h45.01.739_micRespv1l1_recorded\recording_micRespv1l1_2023-11-22_13h48.41.589.wav,229.23223350010812,,None,229.23223350010812,229.23223350010812,229.23223350010812,229.23223350010812,229.23223350010812,229.23223350010812,,,,,,090101,001,2023-11-22_13h45.01.739,REPSWITCH1_version1_list1,2022.2.4,143.99428620957426,
REPSWITCH1/PICTURE_446.png,cerdo,speak,gold,nontarget,2,NT,2,1,1,1,Stim7_Set2,1,switch,46,45,46,0,45,45,45,,,,,,,,,,,,,,,,,,,,,,,229.73227530019358,230.78103050007485,230.78103050007485,230.78103050007485,230.78103050007485,230.78103050007485,230.78103050007485,230.78103050007485,230.78103050007485,None,0,,,C:\2023\REPSWITCH21092023\REPSWITCH_excgange\REPSWITCH_excgange\data/090101_REPSWITCH1_version1_list1_2023-11-22_13h45.01.739_micRespv1l1_recorded\recording_micRespv1l1_2023-11-22_13h48.46.166.wav,233.80920740007423,,None,233.80920740007423,233.80920740007423,233.80920740007423,233.80920740007423,233.80920740007423,233.80920740007423,,,,,,090101,001,2023-11-22_13h45.01.739,REPSWITCH1_version1_list1,2022.2.4,143.99428620957426,
REPSWITCH1/PICTURE_446.png,cerdo,speak,gold,repeat,2,T,2,1,1,1,Stim7_Set2,0,None,47,46,47,0,46,46,46,,,,,,,,,,,,,,,,,,,,,,,234.3092794001568,235.41360670002177,235.41360670002177,235.41360670002177,235.41360670002177,235.41360670002177,235.41360670002177,235.41360670002177,235.41360670002177,None,0,,,C:\2023\REPSWITCH21092023\REPSWITCH_excgange\REPSWITCH_excgange\data/090101_REPSWITCH1_version1_list1_2023-11-22_13h45.01.739_micRespv1l1_recorded\recording_micRespv1l1_2023-11-22_13h48.50.798.wav,238.44173860014416,,None,238.44173860014416,238.44173860014416,238.44173860014416,238.44173860014416,238.44173860014416,238.44173860014416,,,,,,090101,001,2023-11-22_13h45.01.739,REPSWITCH1_version1_list1,2022.2.4,143.99428620957426,
REPSWITCH1/PICTURE_590.png,escoba,type,darkblue,filler,1,F,2,1,1,1,Extra3,0,None,48,47,48,0,47,47,47,,,,,,,,,,,,,,,,,,,,,,,238.94183720019646,240.0183621000033,240.0183621000033,240.0183621000033,240.0183621000033,240.0183621000033,240.0183621000033,240.0183621000033,240.0183621000033,"['e', 's', 'v', 'backspace', 'c', 'o', 'b', 'a']",0,"[0.7819953002035618, 0.895604700082913, 1.1198612002190202, 1.5145102001260966, 1.66600550012663, 1.763715700013563, 1.9261240002233535, 2.005899300100282]",escoba,C:\2023\REPSWITCH21092023\REPSWITCH_excgange\REPSWITCH_excgange\data/090101_REPSWITCH1_version1_list1_2023-11-22_13h45.01.739_micRespv1l1_recorded\recording_micRespv1l1_2023-11-22_13h48.55.404.wav,243.0465105001349,,None,243.0465105001349,243.0465105001349,243.0465105001349,243.0465105001349,243.0465105001349,243.0465105001349,,,,,,090101,001,2023-11-22_13h45.01.739,REPSWITCH1_version1_list1,2022.2.4,143.99428620957426,
REPSWITCH1/PICTURE_169.png,espalda,speak,gold,filler,2,F,2,1,1,1,Stim8_Set1,0,None,49,48,49,0,48,48,48,,,,,,,,,,,,,,,,,,,,,,,243.54664830002002,244.7064577001147,244.7064577001147,244.7064577001147,244.7064577001147,244.7064577001147,244.7064577001147,244.7064577001147,244.7064577001147,None,0,,,C:\2023\REPSWITCH21092023\REPSWITCH_excgange\REPSWITCH_excgange\data/090101_REPSWITCH1_version1_list1_2023-11-22_13h45.01.739_micRespv1l1_recorded\recording_micRespv1l1_2023-11-22_13h49.00.091.wav,247.73465930018574,,None,247.73465930018574,247.73465930018574,247.73465930018574,247.73465930018574,247.73465930018574,247.73465930018574,,,,,,090101,001,2023-11-22_13h45.01.739,REPSWITCH1_version1_list1,2022.2.4,143.99428620957426,
REPSWITCH1/PICTURE_199.png,falda,speak,gold,nontarget,2,NT,2,1,1,1,Stim8_Set2,1,repeat,50,49,50,0,49,49,49,,,,,,,,,,,,,,,,,,,,,,,248.23469310021028,249.4293337999843,249.4293337999843,249.4293337999843,249.4293337999843,249.4293337999843,249.4293337999843,249.4293337999843,249.4293337999843,None,0,,,C:\2023\REPSWITCH21092023\REPSWITCH_excgange\REPSWITCH_excgange\data/090101_REPSWITCH1_version1_list1_2023-11-22_13h45.01.739_micRespv1l1_recorded\recording_micRespv1l1_2023-11-22_13h49.04.814.wav,252.45052680000663,252.9505903001409,None,252.45052680000663,252.45052680000663,252.45052680000663,252.45052680000663,252.45052680000663,252.45052680000663,,,,,,090101,001,2023-11-22_13h45.01.739,REPSWITCH1_version1_list1,2022.2.4,143.99428620957426,
REPSWITCH1/PICTURE_199.png,falda,type,darkblue,switch,1,T,2,1,1,1,Stim8_Set2,0,None,51,50,51,0,50,50,50,,,,,,,,,,,,,,,,,,,,,,,252.9505903001409,254.0549892000854,254.0549892000854,254.0549892000854,254.0549892000854,254.0549892000854,254.0549892000854,254.0549892000854,254.0549892000854,"['f', 'a', 'l', 'd', 'a']",0,"[0.6797510997857898, 0.7475846998859197, 0.8023411999456584, 0.9399292999878526, 1.0146368998102844]",falda,C:\2023\REPSWITCH21092023\REPSWITCH_excgange\REPSWITCH_excgange\data/090101_REPSWITCH1_version1_list1_2023-11-22_13h45.01.739_micRespv1l1_recorded\recording_micRespv1l1_2023-11-22_13h49.09.440.wav,257.07614880008623,257.5761854001321,space,257.07614880008623,257.07614880008623,257.07614880008623,257.07614880008623,257.07614880008623,257.07614880008623,257.5761854001321,257.5761854001321,3.157526900060475,,,090101,001,2023-11-22_13h45.01.739,REPSWITCH1_version1_list1,2022.2.4,143.99428620957426,
REPSWITCH1/PICTURE_576.png,guante,type,darkblue,nontarget,1,NT,3,1,1,1,Stim1_Set3,0,None,52,51,52,0,51,51,51,,,,,,,,,,,,,,,,,,,,,,,260.7433099001646,261.80593240004964,261.80593240004964,261.80593240004964,261.80593240004964,261.80593240004964,261.80593240004964,261.80593240004964,261.80593240004964,"['g', 'u', 'a', 'n', 't', 'e']",0,"[0.873488700017333, 0.9629363999702036, 1.0937952001113445, 1.1690726999659091, 1.2616430001799017, 1.34595590014942]",guante,C:\2023\REPSWITCH21092023\REPSWITCH_excgange\REPSWITCH_excgange\data/090101_REPSWITCH1_version1_list1_2023-11-22_13h45.01.739_micRespv1l1_recorded\recording_micRespv1l1_2023-11-22_13h49.17.190.wav,264.82714510010555,265.3272405001335,None,264.82714510010555,264.82714510010555,264.82714510010555,264.82714510010555,264.82714510010555,264.82714510010555,,,,,,090101,001,2023-11-22_13h45.01.739,REPSWITCH1_version1_list1,2022.2.4,143.99428620957426,
REPSWITCH1/PICTURE_576.png,guante,speak,gold,switch,2,T,3,1,1,1,Stim1_Set3,0,None,53,52,53,0,52,52,52,,,,,,,,,,,,,,,,,,,,,,,265.3272405001335,266.5704502000008,266.5704502000008,266.5704502000008,266.5704502000008,266.5704502000008,266.5704502000008,266.5704502000008,266.5704502000008,None,0,,,C:\2023\REPSWITCH21092023\REPSWITCH_excgange\REPSWITCH_excgange\data/090101_REPSWITCH1_version1_list1_2023-11-22_13h45.01.739_micRespv1l1_recorded\recording_micRespv1l1_2023-11-22_13h49.21.955.wav,269.5917576001957,270.0917555000633,None,269.5917576001957,269.5917576001957,269.5917576001957,269.5917576001957,269.5917576001957,269.5917576001957,,,,,,090101,001,2023-11-22_13h45.01.739,REPSWITCH1_version1_list1,2022.2.4,143.99428620957426,
REPSWITCH1/PICTURE_646.png,tronco,speak,gold,filler,2,F,3,1,1,1,Extra4,0,None,54,53,54,0,53,53,53,,,,,,,,,,,,,,,,,,,,,,,270.0917555000633,271.189127900172,271.189127900172,271.189127900172,271.189127900172,271.189127900172,271.189127900172,271.189127900172,271.189127900172,None,0,,,C:\2023\REPSWITCH21092023\REPSWITCH_excgange\REPSWITCH_excgange\data/090101_REPSWITCH1_version1_list1_2023-11-22_13h45.01.739_micRespv1l1_recorded\recording_micRespv1l1_2023-11-22_13h49.26.575.wav,274.21729560010135,,None,274.21729560010135,274.21729560010135,274.21729560010135,274.21729560010135,274.21729560010135,274.21729560010135,,,,,,090101,001,2023-11-22_13h45.01.739,REPSWITCH1_version1_list1,2022.2.4,143.99428620957426,
REPSWITCH1/PICTURE_610.png,miel,speak,gold,nontarget,2,NT,3,1,1,1,Stim2_Set3,1,repeat,55,54,55,0,54,54,54,,,,,,,,,,,,,,,,,,,,,,,274.7174241000321,275.8008297001943,275.8008297001943,275.8008297001943,275.8008297001943,275.8008297001943,275.8008297001943,275.8008297001943,275.8008297001943,None,0,,,C:\2023\REPSWITCH21092023\REPSWITCH_excgange\REPSWITCH_excgange\data/090101_REPSWITCH1_version1_list1_2023-11-22_13h45.01.739_micRespv1l1_recorded\recording_micRespv1l1_2023-11-22_13h49.31.187.wav,278.8290070001967,,None,278.8290070001967,278.8290070001967,278.8290070001967,278.8290070001967,278.8290070001967,278.8290070001967,,,,,,090101,001,2023-11-22_13h45.01.739,REPSWITCH1_version1_list1,2022.2.4,143.99428620957426,
REPSWITCH1/PICTURE_610.png,miel,type,darkblue,switch,1,T,3,1,1,1,Stim2_Set3,0,None,56,55,56,0,55,55,55,,,,,,,,,,,,,,,,,,,,,,,279.32907079998404,280.4125316001009,280.4125316001009,280.4125316001009,280.4125316001009,280.4125316001009,280.4125316001009,280.4125316001009,280.4125316001009,"['m', 'i', 'e', 'l']",0,"[0.3690887000411749, 0.5835675001144409, 0.5994935999624431, 0.9023883000481874]",miel,C:\2023\REPSWITCH21092023\REPSWITCH_excgange\REPSWITCH_excgange\data/090101_REPSWITCH1_version1_list1_2023-11-22_13h45.01.739_micRespv1l1_recorded\recording_micRespv1l1_2023-11-22_13h49.35.798.wav,283.4337514000945,283.9338450001087,None,283.4337514000945,283.4337514000945,283.4337514000945,283.4337514000945,283.4337514000945,283.4337514000945,,,,,,090101,001,2023-11-22_13h45.01.739,REPSWITCH1_version1_list1,2022.2.4,143.99428620957426,
REPSWITCH1/PICTURE_175.png,pintor,type,darkblue,filler,1,F,3,1,1,1,Stim1_Set2,1,repeat,57,56,57,0,56,56,56,,,,,,,,,,,,,,,,,,,,,,,283.9338450001087,285.00341380015016,285.00341380015016,285.00341380015016,285.00341380015016,285.00341380015016,285.00341380015016,285.00341380015016,285.00341380015016,"['p', 'i', 'n', 't', 'o', 'r']",0,"[0.8704035999253392, 1.0886643999256194, 1.27802179986611, 1.3597547998651862, 1.484613100066781, 1.557503999909386]",pintor,C:\2023\REPSWITCH21092023\REPSWITCH_excgange\REPSWITCH_excgange\data/090101_REPSWITCH1_version1_list1_2023-11-22_13h45.01.739_micRespv1l1_recorded\recording_micRespv1l1_2023-11-22_13h49.40.388.wav,288.0316420001909,,None,288.0316420001909,288.0316420001909,288.0316420001909,288.0316420001909,288.0316420001909,288.0316420001909,,,,,,090101,001,2023-11-22_13h45.01.739,REPSWITCH1_version1_list1,2022.2.4,143.99428620957426,
REPSWITCH1/PICTURE_242.png,cartero,type,darkblue,nontarget,1,NT,3,1,1,1,Stim3_Set3,1,repeat,58,57,58,0,57,57,57,,,,,,,,,,,,,,,,,,,,,,,288.5316410001833,289.65680120000616,289.65680120000616,289.65680120000616,289.65680120000616,289.65680120000616,289.65680120000616,289.65680120000616,289.65680120000616,"['c', 'a', 'r', 't', 'e', 'r', 'o']",0,"[1.2202558999415487, 1.2890282000880688, 1.410672300029546, 1.587055099895224, 1.6767529000062495, 1.762463100021705, 1.8571514000650495]",cartero,C:\2023\REPSWITCH21092023\REPSWITCH_excgange\REPSWITCH_excgange\data/090101_REPSWITCH1_version1_list1_2023-11-22_13h45.01.739_micRespv1l1_recorded\recording_micRespv1l1_2023-11-22_13h49.45.041.wav,292.67801560019143,293.17810930009,None,292.67801560019143,292.67801560019143,292.67801560019143,292.67801560019143,292.67801560019143,292.67801560019143,,,,,,090101,001,2023-11-22_13h45.01.739,REPSWITCH1_version1_list1,2022.2.4,143.99428620957426,
REPSWITCH1/PICTURE_242.png,cartero,speak,gold,switch,2,T,3,1,1,1,Stim3_Set3,0,None,59,58,59,0,58,58,58,,,,,,,,,,,,,,,,,,,,,,,293.17810930009,294.2199594001286,294.2199594001286,294.2199594001286,294.2199594001286,294.2199594001286,294.2199594001286,294.2199594001286,294.2199594001286,None,0,,,C:\2023\REPSWITCH21092023\REPSWITCH_excgange\REPSWITCH_excgange\data/090101_REPSWITCH1_version1_list1_2023-11-22_13h45.01.739_micRespv1l1_recorded\recording_micRespv1l1_2023-11-22_13h49.49.604.wav,297.24114920012653,297.7412002000492,None,297.24114920012653,297.24114920012653,297.24114920012653,297.24114920012653,297.24114920012653,297.24114920012653,,,,,,090101,001,2023-11-22_13h45.01.739,REPSWITCH1_version1_list1,2022.2.4,143.99428620957426,
REPSWITCH1/PICTURE_152.png,caracol,speak,gold,filler,2,F,3,1,1,1,Stim2_Set2,0,None,60,59,60,0,59,59,59,,,,,,,,,,,,,,,,,,,,,,,297.7412002000492,298.95666720019653,298.95666720019653,298.95666720019653,298.95666720019653,298.95666720019653,298.95666720019653,298.95666720019653,298.95666720019653,None,0,,,C:\2023\REPSWITCH21092023\REPSWITCH_excgange\REPSWITCH_excgange\data/090101_REPSWITCH1_version1_list1_2023-11-22_13h45.01.739_micRespv1l1_recorded\recording_micRespv1l1_2023-11-22_13h49.54.341.wav,301.9848197000101,,None,301.9848197000101,301.9848197000101,301.9848197000101,301.9848197000101,301.9848197000101,301.9848197000101,,,,,,090101,001,2023-11-22_13h45.01.739,REPSWITCH1_version1_list1,2022.2.4,143.99428620957426,
REPSWITCH1/PICTURE_517.png,cuerda,type,darkblue,filler,1,F,3,1,1,1,Stim4_Set2,0,None,61,60,61,0,60,60,60,,,,,,,,,,,,,,,,,,,,,,,302.48495519999415,303.533708400093,303.533708400093,303.533708400093,303.533708400093,303.533708400093,303.533708400093,303.533708400093,303.533708400093,"['c', 'u', 'e', 'r', 'd', 'a']",0,"[0.8262755000032485, 0.9926233000587672, 1.078343200031668, 1.1354642999358475, 1.3102062998805195, 1.3789894999936223]",cuerda,C:\2023\REPSWITCH21092023\REPSWITCH_excgange\REPSWITCH_excgange\data/090101_REPSWITCH1_version1_list1_2023-11-22_13h45.01.739_micRespv1l1_recorded\recording_micRespv1l1_2023-11-22_13h49.58.919.wav,306.56188930012286,,None,306.56188930012286,306.56188930012286,306.56188930012286,306.56188930012286,306.56188930012286,306.56188930012286,,,,,,090101,001,2023-11-22_13h45.01.739,REPSWITCH1_version1_list1,2022.2.4,143.99428620957426,
REPSWITCH1/PICTURE_235.png,aguja,speak,gold,nontarget,2,NT,3,1,1,1,Stim4_Set3,1,switch,62,61,62,0,61,61,61,,,,,,,,,,,,,,,,,,,,,,,307.06188830011524,308.1592246000655,308.1592246000655,308.1592246000655,308.1592246000655,308.1592246000655,308.1592246000655,308.1592246000655,308.1592246000655,None,0,,,C:\2023\REPSWITCH21092023\REPSWITCH_excgange\REPSWITCH_excgange\data/090101_REPSWITCH1_version1_list1_2023-11-22_13h45.01.739_micRespv1l1_recorded\recording_micRespv1l1_2023-11-22_13h50.03.544.wav,311.18051430000924,311.6805004000198,None,311.18051430000924,311.18051430000924,311.18051430000924,311.18051430000924,311.18051430000924,311.18051430000924,,,,,,090101,001,2023-11-22_13h45.01.739,REPSWITCH1_version1_list1,2022.2.4,143.99428620957426,
REPSWITCH1/PICTURE_235.png,aguja,speak,gold,repeat,2,T,3,1,1,1,Stim4_Set3,0,None,63,62,63,0,62,62,62,,,,,,,,,,,,,,,,,,,,,,,311.6805004000198,312.81957680010237,312.81957680010237,312.81957680010237,312.81957680010237,312.81957680010237,312.81957680010237,312.81957680010237,312.81957680010237,None,0,,,C:\2023\REPSWITCH21092023\REPSWITCH_excgange\REPSWITCH_excgange\data/090101_REPSWITCH1_version1_list1_2023-11-22_13h45.01.739_micRespv1l1_recorded\recording_micRespv1l1_2023-11-22_13h50.08.204.wav,315.840811900096,316.3408702001907,None,315.840811900096,315.840811900096,315.840811900096,315.840811900096,315.840811900096,315.840811900096,,,,,,090101,001,2023-11-22_13h45.01.739,REPSWITCH1_version1_list1,2022.2.4,143.99428620957426,
REPSWITCH1/PICTURE_30.png,granja,type,darkblue,filler,1,F,3,1,1,1,Stim5_Set2,0,None,64,63,64,0,63,63,63,,,,,,,,,,,,,,,,,,,,,,,316.3408702001907,317.49380260007456,317.49380260007456,317.49380260007456,317.49380260007456,317.49380260007456,317.49380260007456,317.49380260007456,317.49380260007456,"['g', 'r', 'a', 'n', 'j', 'a']",0,"[0.8845693999901414, 0.9443761000875384, 1.0164236000273377, 1.0831931000575423, 1.2367052999325097, 1.3702336000278592]",granja,C:\2023\REPSWITCH21092023\REPSWITCH_excgange\REPSWITCH_excgange\data/090101_REPSWITCH1_version1_list1_2023-11-22_13h45.01.739_micRespv1l1_recorded\recording_micRespv1l1_2023-11-22_13h50.12.880.wav,320.52203970006667,,None,320.52203970006667,320.52203970006667,320.52203970006667,320.52203970006667,320.52203970006667,320.52203970006667,,,,,,090101,001,2023-11-22_13h45.01.739,REPSWITCH1_version1_list1,2022.2.4,143.99428620957426,
REPSWITCH1/PICTURE_552.png,manzana,speak,gold,filler,2,F,3,1,1,1,Stim6_Set2,1,switch,65,64,65,0,64,64,64,,,,,,,,,,,,,,,,,,,,,,,321.0221094000153,322.0985558000393,322.0985558000393,322.0985558000393,322.0985558000393,322.0985558000393,322.0985558000393,322.0985558000393,322.0985558000393,None,0,,,C:\2023\REPSWITCH21092023\REPSWITCH_excgange\REPSWITCH_excgange\data/090101_REPSWITCH1_version1_list1_2023-11-22_13h45.01.739_micRespv1l1_recorded\recording_micRespv1l1_2023-11-22_13h50.17.484.wav,325.1268282001838,,None,325.1268282001838,325.1268282001838,325.1268282001838,325.1268282001838,325.1268282001838,325.1268282001838,,,,,,090101,001,2023-11-22_13h45.01.739,REPSWITCH1_version1_list1,2022.2.4,143.99428620957426,
REPSWITCH1/PICTURE_35.png,oreja,speak,gold,nontarget,2,NT,3,1,1,1,Stim5_Set3,1,repeat,66,65,66,0,65,65,65,,,,,,,,,,,,,,,,,,,,,,,325.6267721001059,326.70340900006704,326.70340900006704,326.70340900006704,326.70340900006704,326.70340900006704,326.70340900006704,326.70340900006704,326.70340900006704,None,0,,,C:\2023\REPSWITCH21092023\REPSWITCH_excgange\REPSWITCH_excgange\data/090101_REPSWITCH1_version1_list1_2023-11-22_13h45.01.739_micRespv1l1_recorded\recording_micRespv1l1_2023-11-22_13h50.22.088.wav,329.7314924001694,,None,329.7314924001694,329.7314924001694,329.7314924001694,329.7314924001694,329.7314924001694,329.7314924001694,,,,,,090101,001,2023-11-22_13h45.01.739,REPSWITCH1_version1_list1,2022.2.4,143.99428620957426,
REPSWITCH1/PICTURE_35.png,oreja,speak,gold,repeat,2,T,3,1,1,1,Stim5_Set3,0,None,67,66,67,0,66,66,66,,,,,,,,,,,,,,,,,,,,,,,330.23155820020474,331.39145730016753,331.39145730016753,331.39145730016753,331.39145730016753,331.39145730016753,331.39145730016753,331.39145730016753,331.39145730016753,None,0,,,C:\2023\REPSWITCH21092023\REPSWITCH_excgange\REPSWITCH_excgange\data/090101_REPSWITCH1_version1_list1_2023-11-22_13h45.01.739_micRespv1l1_recorded\recording_micRespv1l1_2023-11-22_13h50.26.777.wav,334.41959860012867,,None,334.41959860012867,334.41959860012867,334.41959860012867,334.41959860012867,334.41959860012867,334.41959860012867,,,,,,090101,001,2023-11-22_13h45.01.739,REPSWITCH1_version1_list1,2022.2.4,143.99428620957426,
REPSWITCH1/PICTURE_673.png,tenedor,type,darkblue,filler,1,F,3,1,1,1,Extra5,0,None,68,67,68,0,67,67,67,,,,,,,,,,,,,,,,,,,,,,,334.9197709001601,336.03791880002245,336.03791880002245,336.03791880002245,336.03791880002245,336.03791880002245,336.03791880002245,336.03791880002245,336.03791880002245,"['t', 'e', 'n', 'e', 'd', 'o', 'r']",0,"[0.814688199898228, 0.8744536000303924, 0.9960789999458939, 1.0920225998852402, 1.2893650999758393, 1.3202626998536289, 1.421242899959907]",tenedor,C:\2023\REPSWITCH21092023\REPSWITCH_excgange\REPSWITCH_excgange\data/090101_REPSWITCH1_version1_list1_2023-11-22_13h45.01.739_micRespv1l1_recorded\recording_micRespv1l1_2023-11-22_13h50.31.422.wav,339.0591190000996,339.55919490009546,None,339.0591190000996,339.0591190000996,339.0591190000996,339.0591190000996,339.0591190000996,339.0591190000996,,,,,,090101,001,2023-11-22_13h45.01.739,REPSWITCH1_version1_list1,2022.2.4,143.99428620957426,
REPSWITCH1/PICTURE_464.png,goma,speak,gold,nontarget,2,NT,3,1,1,1,Stim6_Set3,0,None,69,68,69,0,68,68,68,,,,,,,,,,,,,,,,,,,,,,,339.55919490009546,340.64269570005126,340.64269570005126,340.64269570005126,340.64269570005126,340.64269570005126,340.64269570005126,340.64269570005126,340.64269570005126,None,0,,,C:\2023\REPSWITCH21092023\REPSWITCH_excgange\REPSWITCH_excgange\data/090101_REPSWITCH1_version1_list1_2023-11-22_13h45.01.739_micRespv1l1_recorded\recording_micRespv1l1_2023-11-22_13h50.36.027.wav,343.66387920011766,344.16396969999187,None,343.66387920011766,343.66387920011766,343.66387920011766,343.66387920011766,343.66387920011766,343.66387920011766,,,,,,090101,001,2023-11-22_13h45.01.739,REPSWITCH1_version1_list1,2022.2.4,143.99428620957426,
REPSWITCH1/PICTURE_464.png,goma,type,darkblue,switch,1,T,3,1,1,1,Stim6_Set3,0,None,70,69,70,0,69,69,69,,,,,,,,,,,,,,,,,,,,,,,344.16396969999187,345.1849211000372,345.1849211000372,345.1849211000372,345.1849211000372,345.1849211000372,345.1849211000372,345.1849211000372,345.1849211000372,"['g', 'o', 'm', 'a']",0,"[0.7404706999659538, 0.8446427001617849, 1.013578200014308, 1.140164399985224]",goma,C:\2023\REPSWITCH21092023\REPSWITCH_excgange\REPSWITCH_excgange\data/090101_REPSWITCH1_version1_list1_2023-11-22_13h45.01.739_micRespv1l1_recorded\recording_micRespv1l1_2023-11-22_13h50.40.569.wav,348.20612740004435,348.706233400153,None,348.20612740004435,348.20612740004435,348.20612740004435,348.20612740004435,348.20612740004435,348.20612740004435,,,,,,090101,001,2023-11-22_13h45.01.739,REPSWITCH1_version1_list1,2022.2.4,143.99428620957426,
REPSWITCH1/PICTURE_264.png,mano,speak,gold,filler,2,F,3,1,1,1,Stim3_Set2,0,None,71,70,71,0,70,70,70,,,,,,,,,,,,,,,,,,,,,,,348.706233400153,349.8869628000539,349.8869628000539,349.8869628000539,349.8869628000539,349.8869628000539,349.8869628000539,349.8869628000539,349.8869628000539,None,0,,,C:\2023\REPSWITCH21092023\REPSWITCH_excgange\REPSWITCH_excgange\data/090101_REPSWITCH1_version1_list1_2023-11-22_13h45.01.739_micRespv1l1_recorded\recording_micRespv1l1_2023-11-22_13h50.45.272.wav,352.90822560014203,353.40823490009643,None,352.90822560014203,352.90822560014203,352.90822560014203,352.90822560014203,352.90822560014203,352.90822560014203,,,,,,090101,001,2023-11-22_13h45.01.739,REPSWITCH1_version1_list1,2022.2.4,143.99428620957426,
REPSWITCH1/PICTURE_271.png,conejo,type,darkblue,nontarget,1,NT,3,1,1,1,Stim7_Set3,1,switch,72,71,72,0,71,71,71,,,,,,,,,,,,,,,,,,,,,,,353.40823490009643,354.4709057,354.4709057,354.4709057,354.4709057,354.4709057,354.4709057,354.4709057,354.4709057,"['o', 'c', 'v', 'backspace', 'backspace', 'c', 'o', 'n', 'e', 'j', 'o']",0,"[1.0454103001393378, 1.070385100087151, 1.0713756000623107, 1.5209164000116289, 1.6494898002129048, 1.8289327002130449, 1.9484871001914144, 2.1647483000997454, 2.3173068000469357, 2.495668100193143, 2.6654236000031233]",conejo,C:\2023\REPSWITCH21092023\REPSWITCH_excgange\REPSWITCH_excgange\data/090101_REPSWITCH1_version1_list1_2023-11-22_13h45.01.739_micRespv1l1_recorded\recording_micRespv1l1_2023-11-22_13h50.49.856.wav,357.4920727000572,357.9921743001323,None,357.4920727000572,357.4920727000572,357.4920727000572,357.4920727000572,357.4920727000572,357.4920727000572,,,,,,090101,001,2023-11-22_13h45.01.739,REPSWITCH1_version1_list1,2022.2.4,143.99428620957426,
REPSWITCH1/PICTURE_271.png,conejo,type,darkblue,repeat,1,T,3,1,1,1,Stim7_Set3,0,None,73,72,73,0,72,72,72,,,,,,,,,,,,,,,,,,,,,,,357.9921743001323,359.05478780018166,359.05478780018166,359.05478780018166,359.05478780018166,359.05478780018166,359.05478780018166,359.05478780018166,359.05478780018166,"['c', 'o', 'n', 'e', 'j', 'o']",0,"[0.4721853998489678, 0.5250142998993397, 0.7264026999473572, 0.96096789999865, 1.086521300021559, 1.201169699896127]",conejo,C:\2023\REPSWITCH21092023\REPSWITCH_excgange\REPSWITCH_excgange\data/090101_REPSWITCH1_version1_list1_2023-11-22_13h45.01.739_micRespv1l1_recorded\recording_micRespv1l1_2023-11-22_13h50.54.439.wav,362.0830258000642,,None,362.0830258000642,362.0830258000642,362.0830258000642,362.0830258000642,362.0830258000642,362.0830258000642,,,,,,090101,001,2023-11-22_13h45.01.739,REPSWITCH1_version1_list1,2022.2.4,143.99428620957426,
REPSWITCH1/PICTURE_446.png,cerdo,speak,gold,filler,2,F,3,1,1,1,Stim7_Set2,0,None,74,73,74,0,73,73,73,,,,,,,,,,,,,,,,,,,,,,,362.58304579998367,363.6665455000475,363.6665455000475,363.6665455000475,363.6665455000475,363.6665455000475,363.6665455000475,363.6665455000475,363.6665455000475,None,0,,,C:\2023\REPSWITCH21092023\REPSWITCH_excgange\REPSWITCH_excgange\data/090101_REPSWITCH1_version1_list1_2023-11-22_13h45.01.739_micRespv1l1_recorded\recording_micRespv1l1_2023-11-22_13h50.59.052.wav,366.694751100149,,None,366.694751100149,366.694751100149,366.694751100149,366.694751100149,366.694751100149,366.694751100149,,,,,,090101,001,2023-11-22_13h45.01.739,REPSWITCH1_version1_list1,2022.2.4,143.99428620957426,
REPSWITCH1/PICTURE_199.png,falda,type,darkblue,filler,1,F,3,1,1,1,Stim8_Set2,1,switch,75,74,75,0,74,74,74,,,,,,,,,,,,,,,,,,,,,,,367.1947637000121,368.32690400001593,368.32690400001593,368.32690400001593,368.32690400001593,368.32690400001593,368.32690400001593,368.32690400001593,368.32690400001593,"['f', 'a', 'l', 'd', 'a']",0,"[0.6749437001999468, 0.7865656001958996, 0.8404691000469029, 0.9530023999977857, 1.025762700010091]",falda,C:\2023\REPSWITCH21092023\REPSWITCH_excgange\REPSWITCH_excgange\data/090101_REPSWITCH1_version1_list1_2023-11-22_13h45.01.739_micRespv1l1_recorded\recording_micRespv1l1_2023-11-22_13h51.03.711.wav,371.3481676999945,371.84821990015917,None,371.3481676999945,371.3481676999945,371.3481676999945,371.3481676999945,371.3481676999945,371.3481676999945,,,,,,090101,001,2023-11-22_13h45.01.739,REPSWITCH1_version1_list1,2022.2.4,143.99428620957426,
REPSWITCH1/PICTURE_320.png,iglesia,type,darkblue,nontarget,1,NT,3,1,1,1,Stim8_Set3,1,repeat,76,75,76,0,75,75,75,,,,,,,,,,,,,,,,,,,,,,,371.84821990015917,372.96633780002594,372.96633780002594,372.96633780002594,372.96633780002594,372.96633780002594,372.96633780002594,372.96633780002594,372.96633780002594,"['i', 'g', 'l', 'e', 's', 'i', 'a']",0,"[0.8666409999132156, 1.056625499855727, 1.194991499884054, 1.27475899993442, 1.3804120998829603, 1.4491371000185609, 1.5903976999688894]",iglesia,C:\2023\REPSWITCH21092023\REPSWITCH_excgange\REPSWITCH_excgange\data/090101_REPSWITCH1_version1_list1_2023-11-22_13h45.01.739_micRespv1l1_recorded\recording_micRespv1l1_2023-11-22_13h51.08.351.wav,375.98755000019446,376.48762500006706,None,375.98755000019446,375.98755000019446,375.98755000019446,375.98755000019446,375.98755000019446,375.98755000019446,,,,,,090101,001,2023-11-22_13h45.01.739,REPSWITCH1_version1_list1,2022.2.4,143.99428620957426,
REPSWITCH1/PICTURE_320.png,iglesia,type,darkblue,repeat,1,T,3,1,1,1,Stim8_Set3,0,None,77,76,77,0,76,76,76,,,,,,,,,,,,,,,,,,,,,,,376.48762500006706,377.60583400004543,377.60583400004543,377.60583400004543,377.60583400004543,377.60583400004543,377.60583400004543,377.60583400004543,377.60583400004543,"['i', 'g', 'l', 'e', 's', 'i', 'a']",0,"[0.9240784000139683, 1.1403775000944734, 1.3190997000783682, 1.3985800000373274, 1.4892629999667406, 1.5550300001632422, 1.6875905999913812]",iglesia,C:\2023\REPSWITCH21092023\REPSWITCH_excgange\REPSWITCH_excgange\data/090101_REPSWITCH1_version1_list1_2023-11-22_13h45.01.739_micRespv1l1_recorded\recording_micRespv1l1_2023-11-22_13h51.12.991.wav,380.63405070011504,,None,380.63405070011504,380.63405070011504,380.63405070011504,380.63405070011504,380.63405070011504,380.63405070011504,,,,,,090101,001,2023-11-22_13h45.01.739,REPSWITCH1_version1_list1,2022.2.4,143.99428620957426,
REPSWITCH1/PICTURE_576.png,guante,speak,gold,filler,2,F,4,1,1,1,Stim1_Set3,0,None,78,77,78,0,77,77,77,,,,,,,,,,,,,,,,,,,,,,,381.134094200097,382.23144430015236,382.23144430015236,382.23144430015236,382.23144430015236,382.23144430015236,382.23144430015236,382.23144430015236,382.23144430015236,None,0,,,C:\2023\REPSWITCH21092023\REPSWITCH_excgange\REPSWITCH_excgange\data/090101_REPSWITCH1_version1_list1_2023-11-22_13h45.01.739_micRespv1l1_recorded\recording_micRespv1l1_2023-11-22_13h51.17.616.wav,385.2526551000774,385.75274390005507,None,385.2526551000774,385.2526551000774,385.2526551000774,385.2526551000774,385.2526551000774,385.2526551000774,,,,,,090101,001,2023-11-22_13h45.01.739,REPSWITCH1_version1_list1,2022.2.4,143.99428620957426,
REPSWITCH1/PICTURE_319.png,vaca,type,darkblue,nontarget,1,NT,4,1,1,1,Stim1_Set4,1,switch,79,78,79,0,78,78,78,,,,,,,,,,,,,,,,,,,,,,,385.75274390005507,386.87791160005145,386.87791160005145,386.87791160005145,386.87791160005145,386.87791160005145,386.87791160005145,386.87791160005145,386.87791160005145,"['v', 'a', 'c', 'a']",0,"[0.969552299939096, 1.0682286999654025, 1.245636599836871, 1.3223761999979615]",vaca,C:\2023\REPSWITCH21092023\REPSWITCH_excgange\REPSWITCH_excgange\data/090101_REPSWITCH1_version1_list1_2023-11-22_13h45.01.739_micRespv1l1_recorded\recording_micRespv1l1_2023-11-22_13h51.22.262.wav,389.8992016001139,390.39926630002446,None,389.8992016001139,389.8992016001139,389.8992016001139,389.8992016001139,389.8992016001139,389.8992016001139,,,,,,090101,001,2023-11-22_13h45.01.739,REPSWITCH1_version1_list1,2022.2.4,143.99428620957426,
REPSWITCH1/PICTURE_319.png,vaca,type,darkblue,repeat,1,T,4,1,1,1,Stim1_Set4,0,None,80,79,80,0,79,79,79,,,,,,,,,,,,,,,,,,,,,,,390.39926630002446,391.42712500016205,391.42712500016205,391.42712500016205,391.42712500016205,391.42712500016205,391.42712500016205,391.42712500016205,391.42712500016205,"['v', 'a', 'c', 'a']",0,"[0.7926036999560893, 0.904112100135535, 0.9947741001378745, 1.0864723999984562]",vaca,C:\2023\REPSWITCH21092023\REPSWITCH_excgange\REPSWITCH_excgange\data/090101_REPSWITCH1_version1_list1_2023-11-22_13h45.01.739_micRespv1l1_recorded\recording_micRespv1l1_2023-11-22_13h51.26.812.wav,394.4552836001385,,None,394.4552836001385,394.4552836001385,394.4552836001385,394.4552836001385,394.4552836001385,394.4552836001385,,,,,,090101,001,2023-11-22_13h45.01.739,REPSWITCH1_version1_list1,2022.2.4,143.99428620957426,
REPSWITCH1/PICTURE_719.png,baño,type,darkblue,nontarget,1,NT,4,1,1,1,Stim2_Set4,0,None,81,80,81,0,80,80,80,,,,,,,,,,,,,,,,,,,,,,,394.9553576000035,396.0457711000927,396.0457711000927,396.0457711000927,396.0457711000927,396.0457711000927,396.0457711000927,396.0457711000927,396.0457711000927,"['b', 'a', 'ñ', 'o']",0,"[1.180515900021419, 1.2452980999369174, 1.655961100012064, 2.186893400037661]",baño,C:\2023\REPSWITCH21092023\REPSWITCH_excgange\REPSWITCH_excgange\data/090101_REPSWITCH1_version1_list1_2023-11-22_13h45.01.739_micRespv1l1_recorded\recording_micRespv1l1_2023-11-22_13h51.31.430.wav,399.06697020004503,399.56707260012627,None,399.06697020004503,399.06697020004503,399.06697020004503,399.06697020004503,399.06697020004503,399.06697020004503,,,,,,090101,001,2023-11-22_13h45.01.739,REPSWITCH1_version1_list1,2022.2.4,143.99428620957426,
REPSWITCH1/PICTURE_719.png,baño,speak,gold,switch,2,T,4,1,1,1,Stim2_Set4,0,None,82,81,82,0,81,81,81,,,,,,,,,,,,,,,,,,,,,,,399.56707260012627,400.6436091000214,400.6436091000214,400.6436091000214,400.6436091000214,400.6436091000214,400.6436091000214,400.6436091000214,400.6436091000214,None,0,,,C:\2023\REPSWITCH21092023\REPSWITCH_excgange\REPSWITCH_excgange\data/090101_REPSWITCH1_version1_list1_2023-11-22_13h45.01.739_micRespv1l1_recorded\recording_micRespv1l1_2023-11-22_13h51.36.029.wav,403.6717750001699,,None,403.6717750001699,403.6717750001699,403.6717750001699,403.6717750001699,403.6717750001699,403.6717750001699,,,,,,090101,001,2023-11-22_13h45.01.739,REPSWITCH1_version1_list1,2022.2.4,143.99428620957426,
REPSWITCH1/PICTURE_242.png,cartero,speak,gold,filler,2,F,4,1,1,1,Stim3_Set3,1,repeat,83,82,83,0,82,82,82,,,,,,,,,,,,,,,,,,,,,,,404.1718401000835,405.28310840018094,405.28310840018094,405.28310840018094,405.28310840018094,405.28310840018094,405.28310840018094,405.28310840018094,405.28310840018094,None,0,,,C:\2023\REPSWITCH21092023\REPSWITCH_excgange\REPSWITCH_excgange\data/090101_REPSWITCH1_version1_list1_2023-11-22_13h45.01.739_micRespv1l1_recorded\recording_micRespv1l1_2023-11-22_13h51.40.667.wav,408.30436810012907,408.8043672000058,None,408.30436810012907,408.30436810012907,408.30436810012907,408.30436810012907,408.30436810012907,408.30436810012907,,,,,,090101,001,2023-11-22_13h45.01.739,REPSWITCH1_version1_list1,2022.2.4,143.99428620957426,
REPSWITCH1/PICTURE_610.png,miel,type,darkblue,filler,1,F,4,1,1,1,Stim2_Set3,0,None,84,83,84,0,83,83,83,,,,,,,,,,,,,,,,,,,,,,,408.8043672000058,409.8670227001421,409.8670227001421,409.8670227001421,409.8670227001421,409.8670227001421,409.8670227001421,409.8670227001421,409.8670227001421,"['m', 'i', 'e', 'l']",0,"[0.770293700043112, 0.9848523000255227, 1.1392991000320762, 1.207094500074163]",miel,C:\2023\REPSWITCH21092023\REPSWITCH_excgange\REPSWITCH_excgange\data/090101_REPSWITCH1_version1_list1_2023-11-22_13h45.01.739_micRespv1l1_recorded\recording_micRespv1l1_2023-11-22_13h51.45.252.wav,412.89520280016586,,None,412.89520280016586,412.89520280016586,412.89520280016586,412.89520280016586,412.89520280016586,412.89520280016586,,,,,,090101,001,2023-11-22_13h45.01.739,REPSWITCH1_version1_list1,2022.2.4,143.99428620957426,
REPSWITCH1/PICTURE_8.png,pierna,speak,gold,nontarget,2,NT,4,1,1,1,Stim3_Set4,1,switch,85,84,85,0,84,84,84,,,,,,,,,,,,,,,,,,,,,,,413.3952705000993,414.4370980001986,414.4370980001986,414.4370980001986,414.4370980001986,414.4370980001986,414.4370980001986,414.4370980001986,414.4370980001986,None,0,,,C:\2023\REPSWITCH21092023\REPSWITCH_excgange\REPSWITCH_excgange\data/090101_REPSWITCH1_version1_list1_2023-11-22_13h45.01.739_micRespv1l1_recorded\recording_micRespv1l1_2023-11-22_13h51.49.822.wav,417.45828520017676,417.95838319999166,None,417.45828520017676,417.45828520017676,417.45828520017676,417.45828520017676,417.45828520017676,417.45828520017676,,,,,,090101,001,2023-11-22_13h45.01.739,REPSWITCH1_version1_list1,2022.2.4,143.99428620957426,
REPSWITCH1/PICTURE_8.png,pierna,speak,gold,repeat,2,T,4,1,1,1,Stim3_Set4,0,None,86,85,86,0,85,85,85,,,,,,,,,,,,,,,,,,,,,,,417.95838319999166,419.0835011000745,419.0835011000745,419.0835011000745,419.0835011000745,419.0835011000745,419.0835011000745,419.0835011000745,419.0835011000745,None,0,,,C:\2023\REPSWITCH21092023\REPSWITCH_excgange\REPSWITCH_excgange\data/090101_REPSWITCH1_version1_list1_2023-11-22_13h45.01.739_micRespv1l1_recorded\recording_micRespv1l1_2023-11-22_13h51.54.468.wav,422.10482340003364,422.6048559001647,None,422.10482340003364,422.10482340003364,422.10482340003364,422.10482340003364,422.10482340003364,422.10482340003364,,,,,,090101,001,2023-11-22_13h45.01.739,REPSWITCH1_version1_list1,2022.2.4,143.99428620957426,
REPSWITCH1/PICTURE_498.png,taza,speak,gold,nontarget,2,NT,4,1,1,1,Stim4_Set4,1,repeat,87,86,87,0,86,86,86,,,,,,,,,,,,,,,,,,,,,,,422.6048559001647,423.7785963001661,423.7785963001661,423.7785963001661,423.7785963001661,423.7785963001661,423.7785963001661,423.7785963001661,423.7785963001661,None,0,,,C:\2023\REPSWITCH21092023\REPSWITCH_excgange\REPSWITCH_excgange\data/090101_REPSWITCH1_version1_list1_2023-11-22_13h45.01.739_micRespv1l1_recorded\recording_micRespv1l1_2023-11-22_13h51.59.163.wav,426.7998587000184,427.29987670015544,None,426.7998587000184,426.7998587000184,426.7998587000184,426.7998587000184,426.7998587000184,426.7998587000184,,,,,,090101,001,2023-11-22_13h45.01.739,REPSWITCH1_version1_list1,2022.2.4,143.99428620957426,
REPSWITCH1/PICTURE_498.png,taza,type,darkblue,switch,1,T,4,1,1,1,Stim4_Set4,0,None,88,87,88,0,87,87,87,,,,,,,,,,,,,,,,,,,,,,,427.29987670015544,428.43195520015433,428.43195520015433,428.43195520015433,428.43195520015433,428.43195520015433,428.43195520015433,428.43195520015433,428.43195520015433,"['t', 'z', 'backspace', 'a', 'z', 'a']",0,"[0.9354350999929011, 1.2566390000283718, 1.696649300167337, 1.7873434000648558, 1.8976484001614153, 2.040422599995509]",taza,C:\2023\REPSWITCH21092023\REPSWITCH_excgange\REPSWITCH_excgange\data/090101_REPSWITCH1_version1_list1_2023-11-22_13h45.01.739_micRespv1l1_recorded\recording_micRespv1l1_2023-11-22_13h52.03.817.wav,431.4532012999989,431.9532482000068,None,431.4532012999989,431.4532012999989,431.4532012999989,431.4532012999989,431.4532012999989,431.4532012999989,,,,,,090101,001,2023-11-22_13h45.01.739,REPSWITCH1_version1_list1,2022.2.4,143.99428620957426,
REPSWITCH1/PICTURE_235.png,aguja,speak,gold,filler,2,F,4,1,1,1,Stim4_Set3,0,None,89,88,89,0,88,88,88,,,,,,,,,,,,,,,,,,,,,,,431.9532482000068,433.06458060001023,433.06458060001023,433.06458060001023,433.06458060001023,433.06458060001023,433.06458060001023,433.06458060001023,433.06458060001023,None,0,,,C:\2023\REPSWITCH21092023\REPSWITCH_excgange\REPSWITCH_excgange\data/090101_REPSWITCH1_version1_list1_2023-11-22_13h45.01.739_micRespv1l1_recorded\recording_micRespv1l1_2023-11-22_13h52.08.450.wav,436.0857124000322,436.5858946000226,None,436.0857124000322,436.0857124000322,436.0857124000322,436.0857124000322,436.0857124000322,436.0857124000322,,,,,,090101,001,2023-11-22_13h45.01.739,REPSWITCH1_version1_list1,2022.2.4,143.99428620957426,
REPSWITCH1/PICTURE_35.png,oreja,type,darkblue,filler,1,F,4,1,1,1,Stim5_Set3,0,None,90,89,90,0,89,89,89,,,,,,,,,,,,,,,,,,,,,,,436.5858946000226,437.7943680000026,437.7943680000026,437.7943680000026,437.7943680000026,437.7943680000026,437.7943680000026,437.7943680000026,437.7943680000026,"['o', 'r', 'e', 'j', 'a']",0,"[0.9897939001675695, 1.1067498000338674, 1.1755187001544982, 1.2612290000542998, 1.376858300063759]",oreja,C:\2023\REPSWITCH21092023\REPSWITCH_excgange\REPSWITCH_excgange\data/090101_REPSWITCH1_version1_list1_2023-11-22_13h45.01.739_micRespv1l1_recorded\recording_micRespv1l1_2023-11-22_13h52.13.179.wav,440.822453700006,,None,440.822453700006,440.822453700006,440.822453700006,440.822453700006,440.822453700006,440.822453700006,,,,,,090101,001,2023-11-22_13h45.01.739,REPSWITCH1_version1_list1,2022.2.4,143.99428620957426,
REPSWITCH1/PICTURE_687.png,camisa,type,darkblue,nontarget,1,NT,4,1,1,1,Stim5_Set4,1,repeat,91,90,91,0,90,90,90,,,,,,,,,,,,,,,,,,,,,,,441.32251080009155,442.4199134001974,442.4199134001974,442.4199134001974,442.4199134001974,442.4199134001974,442.4199134001974,442.4199134001974,442.4199134001974,"['c', 'a', 'm', 's', 'i', 'a', 'backspace', 'backspace', 'i', 's', 'a']",0,"[0.8490055999718606, 0.9339001998305321, 1.0274977998342365, 1.2219670999329537, 1.2229104998987168, 1.3627901999279857, 1.9577397999819368, 2.124753199983388, 2.6117036999203265, 2.7014458999037743, 2.7662225998938084]",camsisa,C:\2023\REPSWITCH21092023\REPSWITCH_excgange\REPSWITCH_excgange\data/090101_REPSWITCH1_version1_list1_2023-11-22_13h45.01.739_micRespv1l1_recorded\recording_micRespv1l1_2023-11-22_13h52.17.805.wav,445.4411809002049,445.94120740005746,None,445.4411809002049,445.4411809002049,445.4411809002049,445.4411809002049,445.4411809002049,445.4411809002049,,,,,,090101,001,2023-11-22_13h45.01.739,REPSWITCH1_version1_list1,2022.2.4,143.99428620957426,
REPSWITCH1/PICTURE_687.png,camisa,speak,gold,switch,2,T,4,1,1,1,Stim5_Set4,0,None,92,91,92,0,91,91,91,,,,,,,,,,,,,,,,,,,,,,,445.94120740005746,447.0455390000716,447.0455390000716,447.0455390000716,447.0455390000716,447.0455390000716,447.0455390000716,447.0455390000716,447.0455390000716,None,0,,,C:\2023\REPSWITCH21092023\REPSWITCH_excgange\REPSWITCH_excgange\data/090101_REPSWITCH1_version1_list1_2023-11-22_13h45.01.739_micRespv1l1_recorded\recording_micRespv1l1_2023-11-22_13h52.22.430.wav,450.066713700071,450.56681600003503,None,450.066713700071,450.066713700071,450.066713700071,450.066713700071,450.066713700071,450.066713700071,,,,,,090101,001,2023-11-22_13h45.01.739,REPSWITCH1_version1_list1,2022.2.4,143.99428620957426,
REPSWITCH1/PICTURE_338.png,regalo,speak,gold,nontarget,2,NT,4,1,1,1,Stim6_Set4,0,None,93,92,93,0,92,92,92,,,,,,,,,,,,,,,,,,,,,,,450.56681600003503,451.76835870021023,451.76835870021023,451.76835870021023,451.76835870021023,451.76835870021023,451.76835870021023,451.76835870021023,451.76835870021023,None,0,,,C:\2023\REPSWITCH21092023\REPSWITCH_excgange\REPSWITCH_excgange\data/090101_REPSWITCH1_version1_list1_2023-11-22_13h45.01.739_micRespv1l1_recorded\recording_micRespv1l1_2023-11-22_13h52.27.152.wav,454.789635400055,455.289659100119,None,454.789635400055,454.789635400055,454.789635400055,454.789635400055,454.789635400055,454.789635400055,,,,,,090101,001,2023-11-22_13h45.01.739,REPSWITCH1_version1_list1,2022.2.4,143.99428620957426,
REPSWITCH1/PICTURE_338.png,regalo,speak,gold,repeat,2,T,4,1,1,1,Stim6_Set4,0,None,94,93,94,0,93,93,93,,,,,,,,,,,,,,,,,,,,,,,455.289659100119,456.49822380021214,456.49822380021214,456.49822380021214,456.49822380021214,456.49822380021214,456.49822380021214,456.49822380021214,456.49822380021214,None,0,,,C:\2023\REPSWITCH21092023\REPSWITCH_excgange\REPSWITCH_excgange\data/090101_REPSWITCH1_version1_list1_2023-11-22_13h45.01.739_micRespv1l1_recorded\recording_micRespv1l1_2023-11-22_13h52.31.883.wav,459.5193447000347,460.0194065000396,None,459.5193447000347,459.5193447000347,459.5193447000347,459.5193447000347,459.5193447000347,459.5193447000347,,,,,,090101,001,2023-11-22_13h45.01.739,REPSWITCH1_version1_list1,2022.2.4,143.99428620957426,
REPSWITCH1/PICTURE_663.png,columna,type,darkblue,filler,1,F,4,1,1,1,Extra6,0,None,95,94,95,0,94,94,94,,,,,,,,,,,,,,,,,,,,,,,460.0194065000396,461.05432180012576,461.05432180012576,461.05432180012576,461.05432180012576,461.05432180012576,461.05432180012576,461.05432180012576,461.05432180012576,"['c', 'o', 'l', 'l', 'backspace', 'u', 'm', 'n', 'a']",0,"[0.9041285999119282, 0.9600839000195265, 1.3104644999839365, 1.35132239991799, 1.7607493998948485, 2.31827410007827, 2.5412173999939114, 2.6976896999403834, 2.797418700065464]",columna,C:\2023\REPSWITCH21092023\REPSWITCH_excgange\REPSWITCH_excgange\data/090101_REPSWITCH1_version1_list1_2023-11-22_13h45.01.739_micRespv1l1_recorded\recording_micRespv1l1_2023-11-22_13h52.36.439.wav,464.07551260013133,464.5755595001392,None,464.07551260013133,464.07551260013133,464.07551260013133,464.07551260013133,464.07551260013133,464.07551260013133,,,,,,090101,001,2023-11-22_13h45.01.739,REPSWITCH1_version1_list1,2022.2.4,143.99428620957426,
REPSWITCH1/PICTURE_271.png,conejo,speak,gold,filler,2,F,4,1,1,1,Stim7_Set3,0,None,96,95,96,0,95,95,95,,,,,,,,,,,,,,,,,,,,,,,464.5755595001392,465.6313720000908,465.6313720000908,465.6313720000908,465.6313720000908,465.6313720000908,465.6313720000908,465.6313720000908,465.6313720000908,None,0,,,C:\2023\REPSWITCH21092023\REPSWITCH_excgange\REPSWITCH_excgange\data/090101_REPSWITCH1_version1_list1_2023-11-22_13h45.01.739_micRespv1l1_recorded\recording_micRespv1l1_2023-11-22_13h52.41.017.wav,468.6595151000656,,None,468.6595151000656,468.6595151000656,468.6595151000656,468.6595151000656,468.6595151000656,468.6595151000656,,,,,,090101,001,2023-11-22_13h45.01.739,REPSWITCH1_version1_list1,2022.2.4,143.99428620957426,
REPSWITCH1/PICTURE_48.png,bombero,speak,gold,nontarget,2,NT,4,1,1,1,Stim7_Set4,0,None,97,96,97,0,96,96,96,,,,,,,,,,,,,,,,,,,,,,,469.1595793000888,470.298552100081,470.298552100081,470.298552100081,470.298552100081,470.298552100081,470.298552100081,470.298552100081,470.298552100081,None,0,,,C:\2023\REPSWITCH21092023\REPSWITCH_excgange\REPSWITCH_excgange\data/090101_REPSWITCH1_version1_list1_2023-11-22_13h45.01.739_micRespv1l1_recorded\recording_micRespv1l1_2023-11-22_13h52.45.683.wav,473.3198233000003,473.819848400075,None,473.3198233000003,473.3198233000003,473.3198233000003,473.3198233000003,473.3198233000003,473.3198233000003,,,,,,090101,001,2023-11-22_13h45.01.739,REPSWITCH1_version1_list1,2022.2.4,143.99428620957426,
REPSWITCH1/PICTURE_48.png,bombero,type,darkblue,switch,1,T,4,1,1,1,Stim7_Set4,0,None,98,97,98,0,97,97,97,,,,,,,,,,,,,,,,,,,,,,,473.819848400075,474.9658906001132,474.9658906001132,474.9658906001132,474.9658906001132,474.9658906001132,474.9658906001132,474.9658906001132,474.9658906001132,"['v', 'o', 'backspace', 'backspace', 'b', 'o', 'm', 'b', 'e', 'r', 'o']",0,"[0.6313038999214768, 0.7180000999942422, 1.1154936999082565, 1.2430698000825942, 1.389246900100261, 1.4620254000183195, 1.6676300999242812, 1.7735206000506878, 1.8442756000440568, 2.0117130000144243, 2.0415850998833776]",bombero,C:\2023\REPSWITCH21092023\REPSWITCH_excgange\REPSWITCH_excgange\data/090101_REPSWITCH1_version1_list1_2023-11-22_13h45.01.739_micRespv1l1_recorded\recording_micRespv1l1_2023-11-22_13h52.50.351.wav,477.994046700187,,None,477.994046700187,477.994046700187,477.994046700187,477.994046700187,477.994046700187,477.994046700187,,,,,,090101,001,2023-11-22_13h45.01.739,REPSWITCH1_version1_list1,2022.2.4,143.99428620957426,
REPSWITCH1/PICTURE_728.png,pulpo,type,darkblue,nontarget,1,NT,4,1,1,1,Stim8_Set4,0,None,99,98,99,0,98,98,98,,,,,,,,,,,,,,,,,,,,,,,478.49409240018576,479.6678520999849,479.6678520999849,479.6678520999849,479.6678520999849,479.6678520999849,479.6678520999849,479.6678520999849,479.6678520999849,"['p', 'u', 'p', 'backspace', 'l', 'p', 'o']",0,"[0.7167437998577952, 0.9273279998451471, 1.3152693998999894, 1.9308832997921854, 2.2089121998287737, 2.317542999982834, 2.3947597998194396]",pulpo,C:\2023\REPSWITCH21092023\REPSWITCH_excgange\REPSWITCH_excgange\data/090101_REPSWITCH1_version1_list1_2023-11-22_13h45.01.739_micRespv1l1_recorded\recording_micRespv1l1_2023-11-22_13h52.55.052.wav,482.69603480002843,483.19609500002116,None,482.69603480002843,482.69603480002843,482.69603480002843,482.69603480002843,482.69603480002843,482.69603480002843,,,,,,090101,001,2023-11-22_13h45.01.739,REPSWITCH1_version1_list1,2022.2.4,143.99428620957426,
REPSWITCH1/PICTURE_728.png,pulpo,type,darkblue,repeat,1,T,4,1,1,1,Stim8_Set4,0,None,100,99,100,0,99,99,99,,,,,,,,,,,,,,,,,,,,,,,483.19609500002116,484.29347220016643,484.29347220016643,484.29347220016643,484.29347220016643,484.29347220016643,484.29347220016643,484.29347220016643,484.29347220016643,"['p', 'u', 'l', 'p', 'o']",0,"[0.6975138999987394, 1.5608276999555528, 1.6495560000184923, 1.8097494000103325, 1.986157399835065]",pulpo,C:\2023\REPSWITCH21092023\REPSWITCH_excgange\REPSWITCH_excgange\data/090101_REPSWITCH1_version1_list1_2023-11-22_13h45.01.739_micRespv1l1_recorded\recording_micRespv1l1_2023-11-22_13h52.59.679.wav,487.3147044000216,487.8147628000006,None,487.3147044000216,487.3147044000216,487.3147044000216,487.3147044000216,487.3147044000216,487.3147044000216,,,,,,090101,001,2023-11-22_13h45.01.739,REPSWITCH1_version1_list1,2022.2.4,143.99428620957426,
REPSWITCH1/PICTURE_320.png,iglesia,speak,gold,filler,1,F,4,1,1,1,Stim8_Set3,0,None,101,100,101,0,100,100,100,,,,,,,,,,,,,,,,,,,,,,,487.8147628000006,488.877376700053,488.877376700053,488.877376700053,488.877376700053,488.877376700053,488.877376700053,488.877376700053,488.877376700053,None,0,,,C:\2023\REPSWITCH21092023\REPSWITCH_excgange\REPSWITCH_excgange\data/090101_REPSWITCH1_version1_list1_2023-11-22_13h45.01.739_micRespv1l1_recorded\recording_micRespv1l1_2023-11-22_13h53.04.262.wav,491.90553220012225,,None,491.90553220012225,491.90553220012225,491.90553220012225,491.90553220012225,491.90553220012225,491.90553220012225,,,,,,090101,001,2023-11-22_13h45.01.739,REPSWITCH1_version1_list1,2022.2.4,143.99428620957426,
REPSWITCH1/PICTURE_464.png,goma,type,darkblue,filler,1,F,4,1,1,1,Stim6_Set3,0,None,102,101,102,0,101,101,101,,,,,,,,,,,,,,,,,,,,,,,492.4056367999874,493.5377911000978,493.5377911000978,493.5377911000978,493.5377911000978,493.5377911000978,493.5377911000978,493.5377911000978,493.5377911000978,"['g', 'o', 'm', 'a']",0,"[0.898092299932614, 0.967844600090757, 1.2148277999367565, 1.319564800010994]",goma,C:\2023\REPSWITCH21092023\REPSWITCH_excgange\REPSWITCH_excgange\data/090101_REPSWITCH1_version1_list1_2023-11-22_13h45.01.739_micRespv1l1_recorded\recording_micRespv1l1_2023-11-22_13h53.08.922.wav,496.5590316001326,497.05904180021025,space,496.5590316001326,496.5590316001326,496.5590316001326,496.5590316001326,496.5590316001326,496.5590316001326,497.05904180021025,497.05904180021025,8.059816600056365,,,090101,001,2023-11-22_13h45.01.739,REPSWITCH1_version1_list1,2022.2.4,143.99428620957426,
REPSWITCH1/PICTURE_663.png,columna,type,darkblue,filler,1,F,1,2,1,1,Extra6,0,None,103,102,1,0,102,102,102,,,,,,,,,,,,,,,,,,,,,,,505.1295096001122,506.1504941000603,506.1504941000603,506.1504941000603,506.1504941000603,506.1504941000603,506.1504941000603,506.1504941000603,506.1504941000603,"['v', 'o', 'l', 'u', 'm', 'n', 'backspace', 'backspace', 'backspace', 'backspace', 'backspace', 'backspace', 'c', 'o', 'l']",0,"[0.7461947000119835, 0.807984699960798, 0.9596828001085669, 1.1739533001091331, 1.3627402000129223, 1.5677800001576543, 1.8727847000118345, 1.9953487000893801, 2.1289605000056326, 2.2427604999393225, 2.3593641000334173, 2.4530432999599725, 2.688580600079149, 2.7504028000403196, 2.8928708999883384]",col,C:\2023\REPSWITCH21092023\REPSWITCH_excgange\REPSWITCH_excgange\data/090101_REPSWITCH1_version1_list1_2023-11-22_13h45.01.739_micRespv1l1_recorded\recording_micRespv1l1_2023-11-22_13h53.21.535.wav,509.1717328000814,509.67179080005735,None,509.1717328000814,509.1717328000814,509.1717328000814,509.1717328000814,509.1717328000814,509.1717328000814,,,,,,090101,001,2023-11-22_13h45.01.739,REPSWITCH1_version1_list1,2022.2.4,143.99428620957426,
REPSWITCH1/PICTURE_128.png,muñeca,speak,gold,nontarget,2,NT,1,2,1,1,Stim4_Set1,1,switch,104,103,2,0,103,103,103,,,,,,,,,,,,,,,,,,,,,,,509.67179080005735,510.68579850019887,510.68579850019887,510.68579850019887,510.68579850019887,510.68579850019887,510.68579850019887,510.68579850019887,510.68579850019887,None,0,,,C:\2023\REPSWITCH21092023\REPSWITCH_excgange\REPSWITCH_excgange\data/090101_REPSWITCH1_version1_list1_2023-11-22_13h45.01.739_micRespv1l1_recorded\recording_micRespv1l1_2023-11-22_13h53.26.071.wav,513.7070916001685,514.2071140001062,None,513.7070916001685,513.7070916001685,513.7070916001685,513.7070916001685,513.7070916001685,513.7070916001685,,,,,,090101,001,2023-11-22_13h45.01.739,REPSWITCH1_version1_list1,2022.2.4,143.99428620957426,
REPSWITCH1/PICTURE_128.png,muñeca,speak,gold,repeat,2,T,1,2,1,1,Stim4_Set1,0,None,105,104,3,0,104,104,104,,,,,,,,,,,,,,,,,,,,,,,514.2071140001062,515.2697339002043,515.2697339002043,515.2697339002043,515.2697339002043,515.2697339002043,515.2697339002043,515.2697339002043,515.2697339002043,None,0,,,C:\2023\REPSWITCH21092023\REPSWITCH_excgange\REPSWITCH_excgange\data/090101_REPSWITCH1_version1_list1_2023-11-22_13h45.01.739_micRespv1l1_recorded\recording_micRespv1l1_2023-11-22_13h53.30.654.wav,518.2909884001128,518.7910471002106,None,518.2909884001128,518.2909884001128,518.2909884001128,518.2909884001128,518.2909884001128,518.2909884001128,,,,,,090101,001,2023-11-22_13h45.01.739,REPSWITCH1_version1_list1,2022.2.4,143.99428620957426,
REPSWITCH1/PICTURE_8.png,pierna,type,darkblue,filler,1,F,1,2,1,1,Stim3_Set4,0,None,106,105,4,0,105,105,105,,,,,,,,,,,,,,,,,,,,,,,518.7910471002106,519.8536748001352,519.8536748001352,519.8536748001352,519.8536748001352,519.8536748001352,519.8536748001352,519.8536748001352,519.8536748001352,"['p', 'i', 'e', 'r', 'n', 'a']",0,"[0.9080280000343919, 1.106760400114581, 1.1841227000113577, 1.2479593001771718, 1.3536082999780774, 1.4612716999836266]",pierna,C:\2023\REPSWITCH21092023\REPSWITCH_excgange\REPSWITCH_excgange\data/090101_REPSWITCH1_version1_list1_2023-11-22_13h45.01.739_micRespv1l1_recorded\recording_micRespv1l1_2023-11-22_13h53.35.238.wav,522.8749077999964,523.3749776000623,None,522.8749077999964,522.8749077999964,522.8749077999964,522.8749077999964,522.8749077999964,522.8749077999964,,,,,,090101,001,2023-11-22_13h45.01.739,REPSWITCH1_version1_list1,2022.2.4,143.99428620957426,
REPSWITCH1/PICTURE_135.png,traje,speak,gold,nontarget,2,NT,1,2,1,1,Stim3_Set1,1,switch,107,106,5,0,106,106,106,,,,,,,,,,,,,,,,,,,,,,,523.3749776000623,524.3960238001309,524.3960238001309,524.3960238001309,524.3960238001309,524.3960238001309,524.3960238001309,524.3960238001309,524.3960238001309,None,0,,,C:\2023\REPSWITCH21092023\REPSWITCH_excgange\REPSWITCH_excgange\data/090101_REPSWITCH1_version1_list1_2023-11-22_13h45.01.739_micRespv1l1_recorded\recording_micRespv1l1_2023-11-22_13h53.39.781.wav,527.4241278001573,,None,527.4241278001573,527.4241278001573,527.4241278001573,527.4241278001573,527.4241278001573,527.4241278001573,,,,,,090101,001,2023-11-22_13h45.01.739,REPSWITCH1_version1_list1,2022.2.4,143.99428620957426,
REPSWITCH1/PICTURE_135.png,traje,speak,gold,repeat,2,T,1,2,1,1,Stim3_Set1,0,None,108,107,6,0,107,107,107,,,,,,,,,,,,,,,,,,,,,,,527.9241881000344,528.9659783001989,528.9659783001989,528.9659783001989,528.9659783001989,528.9659783001989,528.9659783001989,528.9659783001989,528.9659783001989,None,0,,,C:\2023\REPSWITCH21092023\REPSWITCH_excgange\REPSWITCH_excgange\data/090101_REPSWITCH1_version1_list1_2023-11-22_13h45.01.739_micRespv1l1_recorded\recording_micRespv1l1_2023-11-22_13h53.44.350.wav,531.9872251001652,532.4872836000286,None,531.9872251001652,531.9872251001652,531.9872251001652,531.9872251001652,531.9872251001652,531.9872251001652,,,,,,090101,001,2023-11-22_13h45.01.739,REPSWITCH1_version1_list1,2022.2.4,143.99428620957426,
REPSWITCH1/PICTURE_673.png,tenedor,type,darkblue,filler,1,F,1,2,1,1,Extra5,0,None,109,108,7,0,108,108,108,,,,,,,,,,,,,,,,,,,,,,,532.4872836000286,533.5847233000677,533.5847233000677,533.5847233000677,533.5847233000677,533.5847233000677,533.5847233000677,533.5847233000677,533.5847233000677,"['t', 'e', 'n', 'e', 'd', 'o', 'r']",0,"[0.8815095999743789, 0.9283313998021185, 1.1027365999761969, 1.186526799807325, 1.4007440998684615, 1.4176747999154031, 1.540271099889651]",tenedor,C:\2023\REPSWITCH21092023\REPSWITCH_excgange\REPSWITCH_excgange\data/090101_REPSWITCH1_version1_list1_2023-11-22_13h45.01.739_micRespv1l1_recorded\recording_micRespv1l1_2023-11-22_13h53.48.969.wav,536.6059559001587,537.1059405000415,None,536.6059559001587,536.6059559001587,536.6059559001587,536.6059559001587,536.6059559001587,536.6059559001587,,,,,,090101,001,2023-11-22_13h45.01.739,REPSWITCH1_version1_list1,2022.2.4,143.99428620957426,
REPSWITCH1/PICTURE_728.png,pulpo,speak,gold,filler,2,F,1,2,1,1,Stim8_Set4,0,None,110,109,8,0,109,109,109,,,,,,,,,,,,,,,,,,,,,,,537.1059405000415,538.2241748000961,538.2241748000961,538.2241748000961,538.2241748000961,538.2241748000961,538.2241748000961,538.2241748000961,538.2241748000961,None,0,,,C:\2023\REPSWITCH21092023\REPSWITCH_excgange\REPSWITCH_excgange\data/090101_REPSWITCH1_version1_list1_2023-11-22_13h45.01.739_micRespv1l1_recorded\recording_micRespv1l1_2023-11-22_13h53.53.609.wav,541.25231300015,,None,541.25231300015,541.25231300015,541.25231300015,541.25231300015,541.25231300015,541.25231300015,,,,,,090101,001,2023-11-22_13h45.01.739,REPSWITCH1_version1_list1,2022.2.4,143.99428620957426,
REPSWITCH1/PICTURE_16.png,cazador,speak,gold,nontarget,2,NT,1,2,1,1,Stim6_Set1,1,repeat,111,110,9,0,110,110,110,,,,,,,,,,,,,,,,,,,,,,,541.7524413000792,542.8497749001253,542.8497749001253,542.8497749001253,542.8497749001253,542.8497749001253,542.8497749001253,542.8497749001253,542.8497749001253,None,0,,,C:\2023\REPSWITCH21092023\REPSWITCH_excgange\REPSWITCH_excgange\data/090101_REPSWITCH1_version1_list1_2023-11-22_13h45.01.739_micRespv1l1_recorded\recording_micRespv1l1_2023-11-22_13h53.58.234.wav,545.8709803000093,546.3710407000035,None,545.8709803000093,545.8709803000093,545.8709803000093,545.8709803000093,545.8709803000093,545.8709803000093,,,,,,090101,001,2023-11-22_13h45.01.739,REPSWITCH1_version1_list1,2022.2.4,143.99428620957426,
REPSWITCH1/PICTURE_16.png,cazador,type,darkblue,switch,1,T,1,2,1,1,Stim6_Set1,0,None,112,111,10,0,111,111,111,,,,,,,,,,,,,,,,,,,,,,,546.3710407000035,547.5032188000623,547.5032188000623,547.5032188000623,547.5032188000623,547.5032188000623,547.5032188000623,547.5032188000623,547.5032188000623,"['c', 'a', 'z', 'a', 'd', 'o', 'r']",0,"[0.4686817000620067, 0.5414265000727028, 0.8965479999314994, 1.0559728001244366, 1.9951812999788672, 2.110047399997711, 2.2141104999464005]",cazador,C:\2023\REPSWITCH21092023\REPSWITCH_excgange\REPSWITCH_excgange\data/090101_REPSWITCH1_version1_list1_2023-11-22_13h45.01.739_micRespv1l1_recorded\recording_micRespv1l1_2023-11-22_13h54.02.888.wav,550.5313057000749,,None,550.5313057000749,550.5313057000749,550.5313057000749,550.5313057000749,550.5313057000749,550.5313057000749,,,,,,090101,001,2023-11-22_13h45.01.739,REPSWITCH1_version1_list1,2022.2.4,143.99428620957426,
REPSWITCH1/PICTURE_498.png,taza,type,darkblue,filler,1,F,1,2,1,1,Stim4_Set4,1,repeat,113,112,11,0,112,112,112,,,,,,,,,,,,,,,,,,,,,,,551.0314360000193,552.121828700183,552.121828700183,552.121828700183,552.121828700183,552.121828700183,552.121828700183,552.121828700183,552.121828700183,"['t', 'a', 'z', 'a']",0,"[1.0285117998719215, 1.0933091000188142, 1.4371581999585032, 1.601932100020349]",taza,C:\2023\REPSWITCH21092023\REPSWITCH_excgange\REPSWITCH_excgange\data/090101_REPSWITCH1_version1_list1_2023-11-22_13h45.01.739_micRespv1l1_recorded\recording_micRespv1l1_2023-11-22_13h54.07.507.wav,555.1430156000424,555.6431035001297,None,555.1430156000424,555.1430156000424,555.1430156000424,555.1430156000424,555.1430156000424,555.1430156000424,,,,,,090101,001,2023-11-22_13h45.01.739,REPSWITCH1_version1_list1,2022.2.4,143.99428620957426,
REPSWITCH1/PICTURE_381.png,fresa,type,darkblue,nontarget,1,NT,1,2,1,1,Stim2_Set1,1,repeat,114,113,12,0,113,113,113,,,,,,,,,,,,,,,,,,,,,,,555.6431035001297,556.7058035000227,556.7058035000227,556.7058035000227,556.7058035000227,556.7058035000227,556.7058035000227,556.7058035000227,556.7058035000227,"['f', 'r', 'e', 's', 'a']",0,"[1.0024861001875252, 1.1812695001717657, 1.2699696000199765, 1.5161611000075936, 1.5819246000610292]",fresa,C:\2023\REPSWITCH21092023\REPSWITCH_excgange\REPSWITCH_excgange\data/090101_REPSWITCH1_version1_list1_2023-11-22_13h45.01.739_micRespv1l1_recorded\recording_micRespv1l1_2023-11-22_13h54.12.090.wav,559.7269527001772,560.2270376000088,None,559.7269527001772,559.7269527001772,559.7269527001772,559.7269527001772,559.7269527001772,559.7269527001772,,,,,,090101,001,2023-11-22_13h45.01.739,REPSWITCH1_version1_list1,2022.2.4,143.99428620957426,
REPSWITCH1/PICTURE_381.png,fresa,speak,gold,switch,2,T,1,2,1,1,Stim2_Set1,0,None,115,114,13,0,114,114,114,,,,,,,,,,,,,,,,,,,,,,,560.2270376000088,561.3244203000795,561.3244203000795,561.3244203000795,561.3244203000795,561.3244203000795,561.3244203000795,561.3244203000795,561.3244203000795,None,0,,,C:\2023\REPSWITCH21092023\REPSWITCH_excgange\REPSWITCH_excgange\data/090101_REPSWITCH1_version1_list1_2023-11-22_13h45.01.739_micRespv1l1_recorded\recording_micRespv1l1_2023-11-22_13h54.16.709.wav,564.3525828002021,,None,564.3525828002021,564.3525828002021,564.3525828002021,564.3525828002021,564.3525828002021,564.3525828002021,,,,,,090101,001,2023-11-22_13h45.01.739,REPSWITCH1_version1_list1,2022.2.4,143.99428620957426,
REPSWITCH1/PICTURE_178.png,puente,speak,gold,nontarget,2,NT,1,2,1,1,Stim1_Set1,0,None,116,115,14,0,115,115,115,,,,,,,,,,,,,,,,,,,,,,,564.8526548000518,565.9569588000886,565.9569588000886,565.9569588000886,565.9569588000886,565.9569588000886,565.9569588000886,565.9569588000886,565.9569588000886,None,0,,,C:\2023\REPSWITCH21092023\REPSWITCH_excgange\REPSWITCH_excgange\data/090101_REPSWITCH1_version1_list1_2023-11-22_13h45.01.739_micRespv1l1_recorded\recording_micRespv1l1_2023-11-22_13h54.21.342.wav,568.9781516999938,569.4782646000385,None,568.9781516999938,568.9781516999938,568.9781516999938,568.9781516999938,568.9781516999938,568.9781516999938,,,,,,090101,001,2023-11-22_13h45.01.739,REPSWITCH1_version1_list1,2022.2.4,143.99428620957426,
REPSWITCH1/PICTURE_178.png,puente,type,darkblue,switch,1,T,1,2,1,1,Stim1_Set1,0,None,117,116,15,0,116,116,116,,,,,,,,,,,,,,,,,,,,,,,569.4782646000385,570.5895384000614,570.5895384000614,570.5895384000614,570.5895384000614,570.5895384000614,570.5895384000614,570.5895384000614,570.5895384000614,"['p', 'u', 'e', 'n', 't', 'e']",0,"[0.48569190013222396, 0.7398372001480311, 0.8086062001530081, 0.9612893001176417, 1.0240722999442369, 1.1267902001272887]",puente,C:\2023\REPSWITCH21092023\REPSWITCH_excgange\REPSWITCH_excgange\data/090101_REPSWITCH1_version1_list1_2023-11-22_13h45.01.739_micRespv1l1_recorded\recording_micRespv1l1_2023-11-22_13h54.25.974.wav,573.6107491999865,574.1108849002048,None,573.6107491999865,573.6107491999865,573.6107491999865,573.6107491999865,573.6107491999865,573.6107491999865,,,,,,090101,001,2023-11-22_13h45.01.739,REPSWITCH1_version1_list1,2022.2.4,143.99428620957426,
REPSWITCH1/PICTURE_719.png,baño,speak,gold,filler,2,F,1,2,1,1,Stim2_Set4,0,None,118,117,16,0,117,117,117,,,,,,,,,,,,,,,,,,,,,,,574.1108849002048,575.1943035000004,575.1943035000004,575.1943035000004,575.1943035000004,575.1943035000004,575.1943035000004,575.1943035000004,575.1943035000004,None,0,,,C:\2023\REPSWITCH21092023\REPSWITCH_excgange\REPSWITCH_excgange\data/090101_REPSWITCH1_version1_list1_2023-11-22_13h45.01.739_micRespv1l1_recorded\recording_micRespv1l1_2023-11-22_13h54.30.579.wav,578.2154832000379,578.7156454999931,None,578.2154832000379,578.2154832000379,578.2154832000379,578.2154832000379,578.2154832000379,578.2154832000379,,,,,,090101,001,2023-11-22_13h45.01.739,REPSWITCH1_version1_list1,2022.2.4,143.99428620957426,
REPSWITCH1/PICTURE_169.png,espalda,type,darkblue,nontarget,1,NT,1,2,1,1,Stim8_Set1,1,switch,119,118,17,0,118,118,118,,,,,,,,,,,,,,,,,,,,,,,578.7156454999931,579.7573673001025,579.7573673001025,579.7573673001025,579.7573673001025,579.7573673001025,579.7573673001025,579.7573673001025,579.7573673001025,"['e', 's', 'p', 'a', 'd', 'backspace', 'l', 'd', 'a']",0,"[0.9679650999605656, 1.0447380000259727, 1.4790264999028295, 1.6006177999079227, 1.8860104999039322, 2.221178499981761, 2.516174100106582, 2.599942000117153, 2.6417431998997927]",espalda,C:\2023\REPSWITCH21092023\REPSWITCH_excgange\REPSWITCH_excgange\data/090101_REPSWITCH1_version1_list1_2023-11-22_13h45.01.739_micRespv1l1_recorded\recording_micRespv1l1_2023-11-22_13h54.35.142.wav,582.7856007001828,,None,582.7856007001828,582.7856007001828,582.7856007001828,582.7856007001828,582.7856007001828,582.7856007001828,,,,,,090101,001,2023-11-22_13h45.01.739,REPSWITCH1_version1_list1,2022.2.4,143.99428620957426,
