image,correctAns,famTrials.thisRepN,famTrials.thisTrialN,famTrials.thisN,famTrials.thisIndex,textWelcomeFam.started,textboxInstrFam.started,keyInstrFam.started,keyInstrFam.keys,keyInstrFam.rt,fixationITI.started,fixationITI.stopped,polygonWhiteFam.started,imageFam.started,micFam.started,textFam.started,textFam.stopped,micFam.clip,textBlankLoop.started,textBlankLoop.stopped,polygonWhiteFam.stopped,imageFam.stopped,textboxEndFam.started,keyEndFam.started,keyEndFam.keys,keyEndFam.rt,participant,session,date,expName,psychopyVersion,frameRate,
,,,,,,10.947408400010318,12.940864800009876,12.940864800009876,space,8.941534099867567,,,,,,,,,,,,,,,,,160204,001,2023-11-29_09h01.26.917,REPSWITCH1_Fam,2022.2.4,143.8942088421738,
REPSWITCH1_Fam/PICTURE_12.png,sirena,0,0,0,38,,,,,,21.900358600076288,22.935203599976376,22.935203599976376,22.935203599976376,22.935203599976376,26.421726300148293,28.92202110006474,C:\2023\REPSWITCH21092023\REPSWITCH_excgange\REPSWITCH_excgange\data/160204_REPSWITCH1_Fam_2023-11-29_09h01.26.917_micFam_recorded\recording_micFam_2023-11-29_09h01.46.913.wav,28.963725000154227,29.463765799999237,,,,,,,160204,001,2023-11-29_09h01.26.917,REPSWITCH1_Fam,2022.2.4,143.8942088421738,
REPSWITCH1_Fam/PICTURE_517.png,cuerda,0,1,1,24,,,,,,29.463765799999237,30.575018499977887,30.575018499977887,30.575018499977887,30.575018499977887,34.068540800129995,36.568848700029776,C:\2023\REPSWITCH21092023\REPSWITCH_excgange\REPSWITCH_excgange\data/160204_REPSWITCH1_Fam_2023-11-29_09h01.26.917_micFam_recorded\recording_micFam_2023-11-29_09h01.54.556.wav,36.60359359998256,37.103649800177664,36.60359359998256,36.60359359998256,,,,,160204,001,2023-11-29_09h01.26.917,REPSWITCH1_Fam,2022.2.4,143.8942088421738,
REPSWITCH1_Fam/PICTURE_319.png,vaca,0,2,2,15,,,,,,37.103649800177664,38.31214649998583,38.31214649998583,38.31214649998583,38.31214649998583,41.80573310004547,44.30593809997663,C:\2023\REPSWITCH21092023\REPSWITCH_excgange\REPSWITCH_excgange\data/160204_REPSWITCH1_Fam_2023-11-29_09h01.26.917_micFam_recorded\recording_micFam_2023-11-29_09h02.02.294.wav,44.34076140006073,44.84075990016572,44.34076140006073,44.34076140006073,,,,,160204,001,2023-11-29_09h01.26.917,REPSWITCH1_Fam,2022.2.4,143.8942088421738,
REPSWITCH1_Fam/PICTURE_552.png,manzana,0,3,3,25,,,,,,44.84075990016572,45.95894620008767,45.95894620008767,45.95894620008767,45.95894620008767,49.45247110002674,51.95280329999514,C:\2023\REPSWITCH21092023\REPSWITCH_excgange\REPSWITCH_excgange\data/160204_REPSWITCH1_Fam_2023-11-29_09h01.26.917_micFam_recorded\recording_micFam_2023-11-29_09h02.09.939.wav,51.987520300084725,52.48758510011248,51.987520300084725,51.987520300084725,,,,,160204,001,2023-11-29_09h01.26.917,REPSWITCH1_Fam,2022.2.4,143.8942088421738,
REPSWITCH1_Fam/PICTURE_612.png,rana,0,4,4,32,,,,,,52.48758510011248,53.57112290011719,53.57112290011719,53.57112290011719,53.57112290011719,57.064556900179014,59.564850700087845,C:\2023\REPSWITCH21092023\REPSWITCH_excgange\REPSWITCH_excgange\data/160204_REPSWITCH1_Fam_2023-11-29_09h01.26.917_micFam_recorded\recording_micFam_2023-11-29_09h02.17.551.wav,59.59961470006965,60.099676500074565,59.59961470006965,59.59961470006965,,,,,160204,001,2023-11-29_09h01.26.917,REPSWITCH1_Fam,2022.2.4,143.8942088421738,
REPSWITCH1_Fam/PICTURE_673.png,tenedor,0,5,5,44,,,,,,60.099676500074565,61.190082899993286,61.190082899993286,61.190082899993286,61.190082899993286,64.68360580014996,67.18389610014856,C:\2023\REPSWITCH21092023\REPSWITCH_excgange\REPSWITCH_excgange\data/160204_REPSWITCH1_Fam_2023-11-29_09h01.26.917_micFam_recorded\recording_micFam_2023-11-29_09h02.25.171.wav,67.21861740015447,67.7187173999846,67.21861740015447,67.21861740015447,,,,,160204,001,2023-11-29_09h01.26.917,REPSWITCH1_Fam,2022.2.4,143.8942088421738,
REPSWITCH1_Fam/PICTURE_446.png,cerdo,0,6,6,20,,,,,,67.7187173999846,68.82998739997856,68.82998739997856,68.82998739997856,68.82998739997856,72.32343390001915,74.82379850000143,C:\2023\REPSWITCH21092023\REPSWITCH_excgange\REPSWITCH_excgange\data/160204_REPSWITCH1_Fam_2023-11-29_09h01.26.917_micFam_recorded\recording_micFam_2023-11-29_09h02.32.811.wav,74.85853710002266,75.35858940007165,74.85853710002266,74.85853710002266,,,,,160204,001,2023-11-29_09h01.26.917,REPSWITCH1_Fam,2022.2.4,143.8942088421738,
REPSWITCH1_Fam/PICTURE_464.png,goma,0,7,7,21,,,,,,75.35858940007165,76.65041840006597,76.65041840006597,76.65041840006597,76.65041840006597,80.14390370016918,82.64424660010263,C:\2023\REPSWITCH21092023\REPSWITCH_excgange\REPSWITCH_excgange\data/160204_REPSWITCH1_Fam_2023-11-29_09h01.26.917_micFam_recorded\recording_micFam_2023-11-29_09h02.40.631.wav,82.67895660013892,83.17900170013309,82.67895660013892,82.67895660013892,,,,,160204,001,2023-11-29_09h01.26.917,REPSWITCH1_Fam,2022.2.4,143.8942088421738,
REPSWITCH1_Fam/PICTURE_264.png,mano,0,8,8,12,,,,,,83.17900170013309,84.31113100005314,84.31113100005314,84.31113100005314,84.31113100005314,87.80459660012275,90.30493560014293,C:\2023\REPSWITCH21092023\REPSWITCH_excgange\REPSWITCH_excgange\data/160204_REPSWITCH1_Fam_2023-11-29_09h01.26.917_micFam_recorded\recording_micFam_2023-11-29_09h02.48.292.wav,90.3396891001612,90.83981270017102,90.3396891001612,90.3396891001612,,,,,160204,001,2023-11-29_09h01.26.917,REPSWITCH1_Fam,2022.2.4,143.8942088421738,
REPSWITCH1_Fam/PICTURE_110.png,mesa,0,9,9,37,,,,,,90.83981270017102,91.92321480019018,91.92321480019018,91.92321480019018,91.92321480019018,95.41680210013874,97.9170097000897,C:\2023\REPSWITCH21092023\REPSWITCH_excgange\REPSWITCH_excgange\data/160204_REPSWITCH1_Fam_2023-11-29_09h01.26.917_micFam_recorded\recording_micFam_2023-11-29_09h02.55.904.wav,97.95178700005636,98.45182440010831,97.95178700005636,97.95178700005636,,,,,160204,001,2023-11-29_09h01.26.917,REPSWITCH1_Fam,2022.2.4,143.8942088421738,
REPSWITCH1_Fam/PICTURE_733.png,gafas,0,10,10,35,,,,,,98.45182440010831,99.57005179999396,99.57005179999396,99.57005179999396,99.57005179999396,103.06351190013811,105.56383920018561,C:\2023\REPSWITCH21092023\REPSWITCH_excgange\REPSWITCH_excgange\data/160204_REPSWITCH1_Fam_2023-11-29_09h01.26.917_micFam_recorded\recording_micFam_2023-11-29_09h03.03.551.wav,105.59859860013239,106.09865560010076,105.59859860013239,105.59859860013239,,,,,160204,001,2023-11-29_09h01.26.917,REPSWITCH1_Fam,2022.2.4,143.8942088421738,
REPSWITCH1_Fam/PICTURE_142.png,vaso,0,11,11,2,,,,,,106.09865560010076,107.14044930017553,107.14044930017553,107.14044930017553,107.14044930017553,110.63394970004447,113.13435279997066,C:\2023\REPSWITCH21092023\REPSWITCH_excgange\REPSWITCH_excgange\data/160204_REPSWITCH1_Fam_2023-11-29_09h01.26.917_micFam_recorded\recording_micFam_2023-11-29_09h03.11.120.wav,113.16901680012234,113.66905220015906,113.16901680012234,113.16901680012234,,,,,160204,001,2023-11-29_09h01.26.917,REPSWITCH1_Fam,2022.2.4,143.8942088421738,
REPSWITCH1_Fam/PICTURE_663.png,columna,0,12,12,43,,,,,,113.66905220015906,114.8081025001593,114.8081025001593,114.8081025001593,114.8081025001593,118.30162780010141,120.80192360002548,C:\2023\REPSWITCH21092023\REPSWITCH_excgange\REPSWITCH_excgange\data/160204_REPSWITCH1_Fam_2023-11-29_09h01.26.917_micFam_recorded\recording_micFam_2023-11-29_09h03.18.789.wav,120.83663610019721,121.33673550002277,120.83663610019721,120.83663610019721,,,,,160204,001,2023-11-29_09h01.26.917,REPSWITCH1_Fam,2022.2.4,143.8942088421738,
REPSWITCH1_Fam/PICTURE_235.png,aguja,0,13,13,10,,,,,,121.33673550002277,122.43411550018936,122.43411550018936,122.43411550018936,122.43411550018936,125.92760110017844,128.4279021001421,C:\2023\REPSWITCH21092023\REPSWITCH_excgange\REPSWITCH_excgange\data/160204_REPSWITCH1_Fam_2023-11-29_09h01.26.917_micFam_recorded\recording_micFam_2023-11-29_09h03.26.414.wav,128.46265450003557,128.9627269001212,128.46265450003557,128.46265450003557,,,,,160204,001,2023-11-29_09h01.26.917,REPSWITCH1_Fam,2022.2.4,143.8942088421738,
REPSWITCH1_Fam/PICTURE_8.png,pierna,0,14,14,31,,,,,,128.9627269001212,130.08785640005954,130.08785640005954,130.08785640005954,130.08785640005954,133.5814440001268,136.0816852999851,C:\2023\REPSWITCH21092023\REPSWITCH_excgange\REPSWITCH_excgange\data/160204_REPSWITCH1_Fam_2023-11-29_09h01.26.917_micFam_recorded\recording_micFam_2023-11-29_09h03.34.067.wav,136.1164290001616,136.61647770018317,136.1164290001616,136.1164290001616,,,,,160204,001,2023-11-29_09h01.26.917,REPSWITCH1_Fam,2022.2.4,143.8942088421738,
REPSWITCH1_Fam/PICTURE_242.png,cartero,0,15,15,11,,,,,,136.61647770018317,137.83190600015223,137.83190600015223,137.83190600015223,137.83190600015223,141.32548520015553,143.82574400003068,C:\2023\REPSWITCH21092023\REPSWITCH_excgange\REPSWITCH_excgange\data/160204_REPSWITCH1_Fam_2023-11-29_09h01.26.917_micFam_recorded\recording_micFam_2023-11-29_09h03.41.812.wav,143.86049430002458,144.3605434000492,143.86049430002458,143.86049430002458,,,,,160204,001,2023-11-29_09h01.26.917,REPSWITCH1_Fam,2022.2.4,143.8942088421738,
REPSWITCH1_Fam/PICTURE_271.png,conejo,0,16,16,13,,,,,,144.3605434000492,145.44407379999757,145.44407379999757,145.44407379999757,145.44407379999757,148.93751000007614,151.43781110015698,C:\2023\REPSWITCH21092023\REPSWITCH_excgange\REPSWITCH_excgange\data/160204_REPSWITCH1_Fam_2023-11-29_09h01.26.917_micFam_recorded\recording_micFam_2023-11-29_09h03.49.425.wav,151.47257340000942,151.97262010001577,151.47257340000942,151.47257340000942,,,,,160204,001,2023-11-29_09h01.26.917,REPSWITCH1_Fam,2022.2.4,143.8942088421738,
REPSWITCH1_Fam/PICTURE_199.png,falda,0,17,17,9,,,,,,151.97262010001577,153.02830720017664,153.02830720017664,153.02830720017664,153.02830720017664,156.52180840005167,159.02221940015443,C:\2023\REPSWITCH21092023\REPSWITCH_excgange\REPSWITCH_excgange\data/160204_REPSWITCH1_Fam_2023-11-29_09h01.26.917_micFam_recorded\recording_micFam_2023-11-29_09h03.57.009.wav,159.05688350019045,159.55698210000992,159.05688350019045,159.05688350019045,,,,,160204,001,2023-11-29_09h01.26.917,REPSWITCH1_Fam,2022.2.4,143.8942088421738,
REPSWITCH1_Fam/PICTURE_570.png,toro,0,18,18,34,,,,,,159.55698210000992,160.73077350016683,160.73077350016683,160.73077350016683,160.73077350016683,164.22420440008864,166.7244852001313,C:\2023\REPSWITCH21092023\REPSWITCH_excgange\REPSWITCH_excgange\data/160204_REPSWITCH1_Fam_2023-11-29_09h01.26.917_micFam_recorded\recording_micFam_2023-11-29_09h04.04.712.wav,166.75932459998876,167.25932160019875,166.75932459998876,166.75932459998876,,,,,160204,001,2023-11-29_09h01.26.917,REPSWITCH1_Fam,2022.2.4,143.8942088421738,
REPSWITCH1_Fam/PICTURE_19.png,pavo,0,19,19,8,,,,,,167.25932160019875,168.33582719997503,168.33582719997503,168.33582719997503,168.33582719997503,171.82933550002053,174.32967060012743,C:\2023\REPSWITCH21092023\REPSWITCH_excgange\REPSWITCH_excgange\data/160204_REPSWITCH1_Fam_2023-11-29_09h01.26.917_micFam_recorded\recording_micFam_2023-11-29_09h04.12.316.wav,174.3644660001155,174.8644665000029,174.3644660001155,174.3644660001155,,,,,160204,001,2023-11-29_09h01.26.917,REPSWITCH1_Fam,2022.2.4,143.8942088421738,
REPSWITCH1_Fam/PICTURE_646.png,tronco,0,20,20,42,,,,,,174.8644665000029,175.9688318001572,175.9688318001572,175.9688318001572,175.9688318001572,179.46228890004568,181.962601599982,C:\2023\REPSWITCH21092023\REPSWITCH_excgange\REPSWITCH_excgange\data/160204_REPSWITCH1_Fam_2023-11-29_09h01.26.917_micFam_recorded\recording_micFam_2023-11-29_09h04.19.950.wav,181.99732830002904,182.49739040015265,181.99732830002904,181.99732830002904,,,,,160204,001,2023-11-29_09h01.26.917,REPSWITCH1_Fam,2022.2.4,143.8942088421738,
REPSWITCH1_Fam/PICTURE_576.png,guante,0,21,21,26,,,,,,182.49739040015265,183.6781197001692,183.6781197001692,183.6781197001692,183.6781197001692,187.17160230013542,189.67197320004925,C:\2023\REPSWITCH21092023\REPSWITCH_excgange\REPSWITCH_excgange\data/160204_REPSWITCH1_Fam_2023-11-29_09h01.26.917_micFam_recorded\recording_micFam_2023-11-29_09h04.27.659.wav,189.7066590001341,190.20671620010398,189.7066590001341,189.7066590001341,,,,,160204,001,2023-11-29_09h01.26.917,REPSWITCH1_Fam,2022.2.4,143.8942088421738,
REPSWITCH1_Fam/PICTURE_719.png,baño,0,22,22,29,,,,,,190.20671620010398,191.33884570002556,191.33884570002556,191.33884570002556,191.33884570002556,194.83231530012563,197.33263560011983,C:\2023\REPSWITCH21092023\REPSWITCH_excgange\REPSWITCH_excgange\data/160204_REPSWITCH1_Fam_2023-11-29_09h01.26.917_micFam_recorded\recording_micFam_2023-11-29_09h04.35.320.wav,197.36736880009994,197.86742570018396,197.36736880009994,197.36736880009994,,,,,160204,001,2023-11-29_09h01.26.917,REPSWITCH1_Fam,2022.2.4,143.8942088421738,
REPSWITCH1_Fam/PICTURE_614.png,reina,0,23,23,36,,,,,,197.86742570018396,198.89532410004176,198.89532410004176,198.89532410004176,198.89532410004176,202.38882570015267,204.88916630018502,C:\2023\REPSWITCH21092023\REPSWITCH_excgange\REPSWITCH_excgange\data/160204_REPSWITCH1_Fam_2023-11-29_09h01.26.917_micFam_recorded\recording_micFam_2023-11-29_09h04.42.876.wav,204.92393930000253,205.4239992001094,204.92393930000253,204.92393930000253,,,,,160204,001,2023-11-29_09h01.26.917,REPSWITCH1_Fam,2022.2.4,143.8942088421738,
REPSWITCH1_Fam/PICTURE_599.png,nube,0,24,24,33,,,,,,205.4239992001094,206.5213083999697,206.5213083999697,206.5213083999697,206.5213083999697,210.01480000000447,212.51521760015748,C:\2023\REPSWITCH21092023\REPSWITCH_excgange\REPSWITCH_excgange\data/160204_REPSWITCH1_Fam_2023-11-29_09h01.26.917_micFam_recorded\recording_micFam_2023-11-29_09h04.50.501.wav,212.5498789001722,213.04990360001102,212.5498789001722,212.5498789001722,,,,,160204,001,2023-11-29_09h01.26.917,REPSWITCH1_Fam,2022.2.4,143.8942088421738,
REPSWITCH1_Fam/PICTURE_610.png,miel,0,25,25,27,,,,,,213.04990360001102,214.1750602000393,214.1750602000393,214.1750602000393,214.1750602000393,217.66858010017313,220.16888090013526,C:\2023\REPSWITCH21092023\REPSWITCH_excgange\REPSWITCH_excgange\data/160204_REPSWITCH1_Fam_2023-11-29_09h01.26.917_micFam_recorded\recording_micFam_2023-11-29_09h04.58.156.wav,220.20364570012316,220.70376630011015,220.20364570012316,220.20364570012316,,,,,160204,001,2023-11-29_09h01.26.917,REPSWITCH1_Fam,2022.2.4,143.8942088421738,
REPSWITCH1_Fam/PICTURE_152.png,caracol,0,26,26,3,,,,,,220.70376630011015,221.79419440007769,221.79419440007769,221.79419440007769,221.79419440007769,225.2875865001697,227.7879155999981,C:\2023\REPSWITCH21092023\REPSWITCH_excgange\REPSWITCH_excgange\data/160204_REPSWITCH1_Fam_2023-11-29_09h01.26.917_micFam_recorded\recording_micFam_2023-11-29_09h05.05.775.wav,227.82267690007575,228.32270150003023,227.82267690007575,227.82267690007575,,,,,160204,001,2023-11-29_09h01.26.917,REPSWITCH1_Fam,2022.2.4,143.8942088421738,
REPSWITCH1_Fam/PICTURE_135.png,traje,0,27,27,1,,,,,,228.32270150003023,229.41314920014702,229.41314920014702,229.41314920014702,229.41314920014702,232.90665860008448,235.4069566000253,C:\2023\REPSWITCH21092023\REPSWITCH_excgange\REPSWITCH_excgange\data/160204_REPSWITCH1_Fam_2023-11-29_09h01.26.917_micFam_recorded\recording_micFam_2023-11-29_09h05.13.394.wav,235.44171490008011,235.94176389998756,235.44171490008011,235.44171490008011,,,,,160204,001,2023-11-29_09h01.26.917,REPSWITCH1_Fam,2022.2.4,143.8942088421738,
REPSWITCH1_Fam/PICTURE_178.png,puente,0,28,28,7,,,,,,235.94176389998756,237.02526510017924,237.02526510017924,237.02526510017924,237.02526510017924,240.51882200012915,243.0190741000697,C:\2023\REPSWITCH21092023\REPSWITCH_excgange\REPSWITCH_excgange\data/160204_REPSWITCH1_Fam_2023-11-29_09h01.26.917_micFam_recorded\recording_micFam_2023-11-29_09h05.21.006.wav,243.05378130008467,243.5538429999724,243.05378130008467,243.05378130008467,,,,,160204,001,2023-11-29_09h01.26.917,REPSWITCH1_Fam,2022.2.4,143.8942088421738,
REPSWITCH1_Fam/PICTURE_30.png,granja,0,29,29,14,,,,,,243.5538429999724,244.58870680001564,244.58870680001564,244.58870680001564,244.58870680001564,248.08223400008865,250.58255220018327,C:\2023\REPSWITCH21092023\REPSWITCH_excgange\REPSWITCH_excgange\data/160204_REPSWITCH1_Fam_2023-11-29_09h01.26.917_micFam_recorded\recording_micFam_2023-11-29_09h05.28.571.wav,250.61724040005356,251.11734160012566,250.61724040005356,250.61724040005356,,,,,160204,001,2023-11-29_09h01.26.917,REPSWITCH1_Fam,2022.2.4,143.8942088421738,
REPSWITCH1_Fam/PICTURE_338.png,regalo,0,30,30,17,,,,,,251.11734160012566,252.24250870011747,252.24250870011747,252.24250870011747,252.24250870011747,255.73595330002718,258.23638290003873,C:\2023\REPSWITCH21092023\REPSWITCH_excgange\REPSWITCH_excgange\data/160204_REPSWITCH1_Fam_2023-11-29_09h01.26.917_micFam_recorded\recording_micFam_2023-11-29_09h05.36.224.wav,258.2711091001984,258.7711087001953,258.2711091001984,258.2711091001984,,,,,160204,001,2023-11-29_09h01.26.917,REPSWITCH1_Fam,2022.2.4,143.8942088421738,
REPSWITCH1_Fam/PICTURE_590.png,escoba,0,31,31,41,,,,,,258.7711087001953,260.0490290001035,260.0490290001035,260.0490290001035,260.0490290001035,263.5425383001566,266.04285280010663,C:\2023\REPSWITCH21092023\REPSWITCH_excgange\REPSWITCH_excgange\data/160204_REPSWITCH1_Fam_2023-11-29_09h01.26.917_micFam_recorded\recording_micFam_2023-11-29_09h05.44.029.wav,266.0776079001371,266.5776681001298,266.0776079001371,266.0776079001371,,,,,160204,001,2023-11-29_09h01.26.917,REPSWITCH1_Fam,2022.2.4,143.8942088421738,
REPSWITCH1_Fam/PICTURE_48.png,bombero,0,32,32,22,,,,,,266.5776681001298,267.66112040006556,267.66112040006556,267.66112040006556,267.66112040006556,271.1546460001264,273.65492960019037,C:\2023\REPSWITCH21092023\REPSWITCH_excgange\REPSWITCH_excgange\data/160204_REPSWITCH1_Fam_2023-11-29_09h01.26.917_micFam_recorded\recording_micFam_2023-11-29_09h05.51.641.wav,273.68974380008876,274.1898146001622,273.68974380008876,273.68974380008876,,,,,160204,001,2023-11-29_09h01.26.917,REPSWITCH1_Fam,2022.2.4,143.8942088421738,
REPSWITCH1_Fam/PICTURE_175.png,pintor,0,33,33,6,,,,,,274.1898146001622,275.3704689000733,275.3704689000733,275.3704689000733,275.3704689000733,278.86394560011104,281.3642977999989,C:\2023\REPSWITCH21092023\REPSWITCH_excgange\REPSWITCH_excgange\data/160204_REPSWITCH1_Fam_2023-11-29_09h01.26.917_micFam_recorded\recording_micFam_2023-11-29_09h05.59.351.wav,281.39902160014026,281.89908210001886,281.39902160014026,281.39902160014026,,,,,160204,001,2023-11-29_09h01.26.917,REPSWITCH1_Fam,2022.2.4,143.8942088421738,
REPSWITCH1_Fam/PICTURE_320.png,iglesia,0,34,34,16,,,,,,281.89908210001886,282.9200389001053,282.9200389001053,282.9200389001053,282.9200389001053,286.41355759999715,288.9138529000338,C:\2023\REPSWITCH21092023\REPSWITCH_excgange\REPSWITCH_excgange\data/160204_REPSWITCH1_Fam_2023-11-29_09h01.26.917_micFam_recorded\recording_micFam_2023-11-29_09h06.06.901.wav,288.94860210013576,289.4486683001742,288.94860210013576,288.94860210013576,,,,,160204,001,2023-11-29_09h01.26.917,REPSWITCH1_Fam,2022.2.4,143.8942088421738,
REPSWITCH1_Fam/PICTURE_35.png,oreja,0,35,35,18,,,,,,289.4486683001742,290.56687710015103,290.56687710015103,290.56687710015103,290.56687710015103,294.0603728001006,296.56068410002626,C:\2023\REPSWITCH21092023\REPSWITCH_excgange\REPSWITCH_excgange\data/160204_REPSWITCH1_Fam_2023-11-29_09h01.26.917_micFam_recorded\recording_micFam_2023-11-29_09h06.14.548.wav,296.5954927999992,297.09548979997635,296.5954927999992,296.5954927999992,,,,,160204,001,2023-11-29_09h01.26.917,REPSWITCH1_Fam,2022.2.4,143.8942088421738,
REPSWITCH1_Fam/PICTURE_169.png,espalda,0,36,36,5,,,,,,297.09548979997635,298.22758510010317,298.22758510010317,298.22758510010317,298.22758510010317,301.72108880011365,304.22140830010176,C:\2023\REPSWITCH21092023\REPSWITCH_excgange\REPSWITCH_excgange\data/160204_REPSWITCH1_Fam_2023-11-29_09h01.26.917_micFam_recorded\recording_micFam_2023-11-29_09h06.22.209.wav,304.2561099000741,304.7562667001039,304.2561099000741,304.2561099000741,,,,,160204,001,2023-11-29_09h01.26.917,REPSWITCH1_Fam,2022.2.4,143.8942088421738,
REPSWITCH1_Fam/PICTURE_687.png,camisa,0,37,37,28,,,,,,304.7562667001039,305.9160558001604,305.9160558001604,305.9160558001604,305.9160558001604,309.40956000005826,311.90985759999603,C:\2023\REPSWITCH21092023\REPSWITCH_excgange\REPSWITCH_excgange\data/160204_REPSWITCH1_Fam_2023-11-29_09h01.26.917_micFam_recorded\recording_micFam_2023-11-29_09h06.29.896.wav,311.9446112001315,312.44464720017277,311.9446112001315,311.9446112001315,,,,,160204,001,2023-11-29_09h01.26.917,REPSWITCH1_Fam,2022.2.4,143.8942088421738,
REPSWITCH1_Fam/PICTURE_498.png,taza,0,38,38,23,,,,,,312.44464720017277,313.56286599999294,313.56286599999294,313.56286599999294,313.56286599999294,317.05638410011306,319.5566834001802,C:\2023\REPSWITCH21092023\REPSWITCH_excgange\REPSWITCH_excgange\data/160204_REPSWITCH1_Fam_2023-11-29_09h01.26.917_micFam_recorded\recording_micFam_2023-11-29_09h06.37.543.wav,319.59144310001284,320.0915724001825,319.59144310001284,319.59144310001284,,,,,160204,001,2023-11-29_09h01.26.917,REPSWITCH1_Fam,2022.2.4,143.8942088421738,
REPSWITCH1_Fam/PICTURE_16.png,cazador,0,39,39,4,,,,,,320.0915724001825,321.2444745001849,321.2444745001849,321.2444745001849,321.2444745001849,324.73789740004577,327.23825530009344,C:\2023\REPSWITCH21092023\REPSWITCH_excgange\REPSWITCH_excgange\data/160204_REPSWITCH1_Fam_2023-11-29_09h01.26.917_micFam_recorded\recording_micFam_2023-11-29_09h06.45.225.wav,327.2730283001438,327.77304410003126,327.2730283001438,327.2730283001438,,,,,160204,001,2023-11-29_09h01.26.917,REPSWITCH1_Fam,2022.2.4,143.8942088421738,
REPSWITCH1_Fam/PICTURE_391.png,cadena,0,40,40,40,,,,,,327.77304410003126,328.8495883999858,328.8495883999858,328.8495883999858,328.8495883999858,332.3430765001103,334.8433889001608,C:\2023\REPSWITCH21092023\REPSWITCH_excgange\REPSWITCH_excgange\data/160204_REPSWITCH1_Fam_2023-11-29_09h01.26.917_micFam_recorded\recording_micFam_2023-11-29_09h06.52.831.wav,334.87819600012153,335.3781545001548,334.87819600012153,334.87819600012153,,,,,160204,001,2023-11-29_09h01.26.917,REPSWITCH1_Fam,2022.2.4,143.8942088421738,
REPSWITCH1_Fam/PICTURE_340.png,espejo,0,41,41,39,,,,,,335.3781545001548,336.5380828001071,336.5380828001071,336.5380828001071,336.5380828001071,340.0315656000748,342.53196890000254,C:\2023\REPSWITCH21092023\REPSWITCH_excgange\REPSWITCH_excgange\data/160204_REPSWITCH1_Fam_2023-11-29_09h01.26.917_micFam_recorded\recording_micFam_2023-11-29_09h07.00.519.wav,342.5667113000527,343.0667626000941,342.5667113000527,342.5667113000527,,,,,160204,001,2023-11-29_09h01.26.917,REPSWITCH1_Fam,2022.2.4,143.8942088421738,
REPSWITCH1_Fam/PICTURE_381.png,fresa,0,42,42,19,,,,,,343.0667626000941,344.15016050008126,344.15016050008126,344.15016050008126,344.15016050008126,347.6436586000491,350.14396060002036,C:\2023\REPSWITCH21092023\REPSWITCH_excgange\REPSWITCH_excgange\data/160204_REPSWITCH1_Fam_2023-11-29_09h01.26.917_micFam_recorded\recording_micFam_2023-11-29_09h07.08.131.wav,350.17877180012874,350.678821900161,350.17877180012874,350.17877180012874,,,,,160204,001,2023-11-29_09h01.26.917,REPSWITCH1_Fam,2022.2.4,143.8942088421738,
REPSWITCH1_Fam/PICTURE_128.png,muñeca,0,43,43,0,,,,,,350.678821900161,351.7344822001178,351.7344822001178,351.7344822001178,351.7344822001178,355.22795119998045,357.72828959999606,C:\2023\REPSWITCH21092023\REPSWITCH_excgange\REPSWITCH_excgange\data/160204_REPSWITCH1_Fam_2023-11-29_09h01.26.917_micFam_recorded\recording_micFam_2023-11-29_09h07.15.715.wav,357.76302110007964,358.2630700999871,357.76302110007964,357.76302110007964,,,,,160204,001,2023-11-29_09h01.26.917,REPSWITCH1_Fam,2022.2.4,143.8942088421738,
REPSWITCH1_Fam/PICTURE_728.png,pulpo,0,44,44,30,,,,,,358.2630700999871,359.30494330008514,359.30494330008514,359.30494330008514,359.30494330008514,362.7983810000587,365.2986858000513,C:\2023\REPSWITCH21092023\REPSWITCH_excgange\REPSWITCH_excgange\data/160204_REPSWITCH1_Fam_2023-11-29_09h01.26.917_micFam_recorded\recording_micFam_2023-11-29_09h07.23.285.wav,365.33353740000166,365.8335022001993,365.33353740000166,365.33353740000166,,,,,160204,001,2023-11-29_09h01.26.917,REPSWITCH1_Fam,2022.2.4,143.8942088421738,
,,,,,,,,,,,,,,,,,,,,,,,365.8335022001993,365.8335022001993,space,4.434000999899581,160204,001,2023-11-29_09h01.26.917,REPSWITCH1_Fam,2022.2.4,143.8942088421738,
