image,correctAns,respModal,frameColor,repSwitch,sequence,target,set,block,list,exp_version,stimulus,baseline,baseline_condition,trial_no,psychopy_trial,Column1,trialsREPSWITCH.thisRepN,trialsREPSWITCH.thisTrialN,trialsREPSWITCH.thisN,trialsREPSWITCH.thisIndex,textWelcome.started,textboxInstrMain1.started,textboxInstrMain1_2.started,textboxInstrMain1_3.started,keyInstrMain.started,keyInstrMain.keys,keyInstrMain.rt,textboxInstrMain2.started,textboxInstrMain2_2.started,textboxInstrMain2_3.started,textboxInstrMain2_4.started,textboxInstrMain2_5.started,textboxInstrMain2_6.started,textboxInstrMain2_7.started,textboxInstrMain2_8.started,textboxInstrMain2_9.started,textboxInstrMain2_10.started,textboxInstrMain2_11.started,textboxInstrMain2_12.started,keyInstrMain2.started,keyInstrMain2.keys,keyInstrMain2.rt,fixationITI.started,fixationITI.stopped,polygonColour.started,polygonWhite.started,imageObject.started,polygonType.started,textInput.started,keyResp.started,micRespv1l1.started,keyResp.keys,keyResp.corr,keyResp.rt,subjResponse,micRespv1l1.clip,textBlankLoop.started,textBlankLoop.stopped,keyPause.keys,polygonColour.stopped,polygonWhite.stopped,imageObject.stopped,polygonType.stopped,textInput.stopped,keyResp.stopped,textboxPause.started,keyPause.started,keyPause.rt,textboxGoodbye.started,textboxGoodbye.stopped,participant,session,date,expName,psychopyVersion,frameRate,
,,,,,,,,,,,,,,,,,,,,,9.930311099858955,12.424872899893671,12.424872899893671,12.424872899893671,12.424872899893671,space,5.035233400063589,,,,,,,,,,,,,,,,,,,,,,,,,,,,,,,,,,,,,,,,,,,,170101,001,2023-11-30_09h21.36.102,REPSWITCH1_version1_list1,2022.2.4,143.94578427597676,
,,,,,,,,,,,,,,,,,,,,,,,,,,,,17.47415479994379,17.47415479994379,17.47415479994379,17.47415479994379,17.47415479994379,17.47415479994379,17.47415479994379,17.47415479994379,17.47415479994379,17.47415479994379,17.47415479994379,17.47415479994379,17.47415479994379,space,2.253468899987638,,,,,,,,,,,,,,,,,,,,,,,,,,,,,170101,001,2023-11-30_09h21.36.102,REPSWITCH1_version1_list1,2022.2.4,143.94578427597676,
REPSWITCH1/PICTURE_340.png,espejo,type,darkblue,filler,1,F,1,1,1,1,Extra1,0,None,1,0,1,0,0,0,0,,,,,,,,,,,,,,,,,,,,,,,19.821700799977407,20.912154899910092,20.912154899910092,20.912154899910092,20.912154899910092,20.912154899910092,20.912154899910092,20.912154899910092,20.912154899910092,"['e', 's', 'p', 'e', 'j', 'o']",0,"[1.1975755000021309, 1.3440787999425083, 1.4460128000937402, 1.5237493000458926, 1.6842168001458049, 1.8758597001433372]",espejo,C:\2023\REPSWITCH21092023\REPSWITCH_excgange\REPSWITCH_excgange\data/170101_REPSWITCH1_version1_list1_2023-11-30_09h21.36.102_micRespv1l1_recorded\recording_micRespv1l1_2023-11-30_09h21.51.867.wav,23.93335449998267,24.433403099887073,None,,,,,,,,,,,,170101,001,2023-11-30_09h21.36.102,REPSWITCH1_version1_list1,2022.2.4,143.94578427597676,
REPSWITCH1/PICTURE_391.png,cadena,speak,gold,filler,2,F,1,1,1,1,Extra2,0,None,2,1,2,0,1,1,1,,,,,,,,,,,,,,,,,,,,,,,24.433403099887073,25.558540999889374,25.558540999889374,25.558540999889374,25.558540999889374,25.558540999889374,25.558540999889374,25.558540999889374,25.558540999889374,None,0,,,C:\2023\REPSWITCH21092023\REPSWITCH_excgange\REPSWITCH_excgange\data/170101_REPSWITCH1_version1_list1_2023-11-30_09h21.36.102_micRespv1l1_recorded\recording_micRespv1l1_2023-11-30_09h21.56.518.wav,28.58679990004748,,None,28.58679990004748,28.58679990004748,28.58679990004748,28.58679990004748,28.58679990004748,28.58679990004748,,,,,,170101,001,2023-11-30_09h21.36.102,REPSWITCH1_version1_list1,2022.2.4,143.94578427597676,
REPSWITCH1/PICTURE_178.png,puente,speak,gold,nontarget,2,NT,1,1,1,1,Stim1_Set1,1,repeat,3,2,3,0,2,2,2,,,,,,,,,,,,,,,,,,,,,,,29.08680749987252,30.19807510008104,30.19807510008104,30.19807510008104,30.19807510008104,30.19807510008104,30.19807510008104,30.19807510008104,30.19807510008104,None,0,,,C:\2023\REPSWITCH21092023\REPSWITCH_excgange\REPSWITCH_excgange\data/170101_REPSWITCH1_version1_list1_2023-11-30_09h21.36.102_micRespv1l1_recorded\recording_micRespv1l1_2023-11-30_09h22.01.157.wav,33.21926619997248,33.71934020007029,None,33.21926619997248,33.21926619997248,33.21926619997248,33.21926619997248,33.21926619997248,33.21926619997248,,,,,,170101,001,2023-11-30_09h21.36.102,REPSWITCH1_version1_list1,2022.2.4,143.94578427597676,
REPSWITCH1/PICTURE_178.png,puente,speak,gold,repeat,2,T,1,1,1,1,Stim1_Set1,0,None,4,3,4,0,3,3,3,,,,,,,,,,,,,,,,,,,,,,,33.71934020007029,34.77504909993149,34.77504909993149,34.77504909993149,34.77504909993149,34.77504909993149,34.77504909993149,34.77504909993149,34.77504909993149,None,0,,,C:\2023\REPSWITCH21092023\REPSWITCH_excgange\REPSWITCH_excgange\data/170101_REPSWITCH1_version1_list1_2023-11-30_09h21.36.102_micRespv1l1_recorded\recording_micRespv1l1_2023-11-30_09h22.05.734.wav,37.796242699958384,38.29635940003209,None,37.796242699958384,37.796242699958384,37.796242699958384,37.796242699958384,37.796242699958384,37.796242699958384,,,,,,170101,001,2023-11-30_09h21.36.102,REPSWITCH1_version1_list1,2022.2.4,143.94578427597676,
REPSWITCH1/PICTURE_319.png,vaca,type,darkblue,filler,1,F,1,1,1,1,Stim1_Set4,0,None,5,4,5,0,4,4,4,,,,,,,,,,,,,,,,,,,,,,,38.29635940003209,39.34516969998367,39.34516969998367,39.34516969998367,39.34516969998367,39.34516969998367,39.34516969998367,39.34516969998367,39.34516969998367,"['v', 'a', 'c', 'a']",0,"[1.1957188001833856, 1.288437700131908, 1.3824782001320273, 1.4572547001298517]",vaca,C:\2023\REPSWITCH21092023\REPSWITCH_excgange\REPSWITCH_excgange\data/170101_REPSWITCH1_version1_list1_2023-11-30_09h21.36.102_micRespv1l1_recorded\recording_micRespv1l1_2023-11-30_09h22.10.305.wav,42.36628820002079,42.86638899985701,None,42.36628820002079,42.36628820002079,42.36628820002079,42.36628820002079,42.36628820002079,42.36628820002079,,,,,,170101,001,2023-11-30_09h21.36.102,REPSWITCH1_version1_list1,2022.2.4,143.94578427597676,
REPSWITCH1/PICTURE_381.png,fresa,speak,gold,nontarget,2,NT,1,1,1,1,Stim2_Set1,1,switch,6,5,6,0,5,5,5,,,,,,,,,,,,,,,,,,,,,,,42.86638899985701,43.922087099868804,43.922087099868804,43.922087099868804,43.922087099868804,43.922087099868804,43.922087099868804,43.922087099868804,43.922087099868804,None,0,,,C:\2023\REPSWITCH21092023\REPSWITCH_excgange\REPSWITCH_excgange\data/170101_REPSWITCH1_version1_list1_2023-11-30_09h21.36.102_micRespv1l1_recorded\recording_micRespv1l1_2023-11-30_09h22.14.881.wav,46.943271100055426,47.443362599937245,None,46.943271100055426,46.943271100055426,46.943271100055426,46.943271100055426,46.943271100055426,46.943271100055426,,,,,,170101,001,2023-11-30_09h21.36.102,REPSWITCH1_version1_list1,2022.2.4,143.94578427597676,
REPSWITCH1/PICTURE_381.png,fresa,speak,gold,repeat,2,T,1,1,1,1,Stim2_Set1,0,None,7,6,7,0,6,6,6,,,,,,,,,,,,,,,,,,,,,,,47.443362599937245,48.54776269989088,48.54776269989088,48.54776269989088,48.54776269989088,48.54776269989088,48.54776269989088,48.54776269989088,48.54776269989088,None,0,,,C:\2023\REPSWITCH21092023\REPSWITCH_excgange\REPSWITCH_excgange\data/170101_REPSWITCH1_version1_list1_2023-11-30_09h21.36.102_micRespv1l1_recorded\recording_micRespv1l1_2023-11-30_09h22.19.506.wav,51.568895400036126,52.06894210004248,None,51.568895400036126,51.568895400036126,51.568895400036126,51.568895400036126,51.568895400036126,51.568895400036126,,,,,,170101,001,2023-11-30_09h21.36.102,REPSWITCH1_version1_list1,2022.2.4,143.94578427597676,
REPSWITCH1/PICTURE_719.png,baño,type,darkblue,filler,1,F,1,1,1,1,Stim2_Set4,1,switch,8,7,8,0,7,7,7,,,,,,,,,,,,,,,,,,,,,,,52.06894210004248,53.187185199931264,53.187185199931264,53.187185199931264,53.187185199931264,53.187185199931264,53.187185199931264,53.187185199931264,53.187185199931264,"['b', 'a', 'ñ', 'o']",0,"[0.9488587998785079, 1.0717582998331636, 1.4280276999343187, 1.5901885000057518]",baño,C:\2023\REPSWITCH21092023\REPSWITCH_excgange\REPSWITCH_excgange\data/170101_REPSWITCH1_version1_list1_2023-11-30_09h21.36.102_micRespv1l1_recorded\recording_micRespv1l1_2023-11-30_09h22.24.147.wav,56.21536540007219,,None,56.21536540007219,56.21536540007219,56.21536540007219,56.21536540007219,56.21536540007219,56.21536540007219,,,,,,170101,001,2023-11-30_09h21.36.102,REPSWITCH1_version1_list1,2022.2.4,143.94578427597676,
REPSWITCH1/PICTURE_135.png,traje,speak,gold,nontarget,2,NT,1,1,1,1,Stim3_Set1,0,None,9,8,9,0,8,8,8,,,,,,,,,,,,,,,,,,,,,,,56.715411599958315,57.764149700058624,57.764149700058624,57.764149700058624,57.764149700058624,57.764149700058624,57.764149700058624,57.764149700058624,57.764149700058624,None,0,,,C:\2023\REPSWITCH21092023\REPSWITCH_excgange\REPSWITCH_excgange\data/170101_REPSWITCH1_version1_list1_2023-11-30_09h21.36.102_micRespv1l1_recorded\recording_micRespv1l1_2023-11-30_09h22.28.723.wav,60.7854124000296,61.28546869987622,None,60.7854124000296,60.7854124000296,60.7854124000296,60.7854124000296,60.7854124000296,60.7854124000296,,,,,,170101,001,2023-11-30_09h21.36.102,REPSWITCH1_version1_list1,2022.2.4,143.94578427597676,
REPSWITCH1/PICTURE_135.png,traje,type,darkblue,switch,1,T,1,1,1,1,Stim3_Set1,0,None,10,9,10,0,9,9,9,,,,,,,,,,,,,,,,,,,,,,,61.28546869987622,62.35504850000143,62.35504850000143,62.35504850000143,62.35504850000143,62.35504850000143,62.35504850000143,62.35504850000143,62.35504850000143,"['t', 'r', 'a', 'j', 'e']",0,"[1.0215832001995295, 1.2328342001419514, 1.3381768001709133, 1.6433910999912769, 1.7211075001396239]",traje,C:\2023\REPSWITCH21092023\REPSWITCH_excgange\REPSWITCH_excgange\data/170101_REPSWITCH1_version1_list1_2023-11-30_09h21.36.102_micRespv1l1_recorded\recording_micRespv1l1_2023-11-30_09h22.33.314.wav,65.37628649990074,65.87633599992841,None,65.37628649990074,65.37628649990074,65.37628649990074,65.37628649990074,65.37628649990074,65.37628649990074,,,,,,170101,001,2023-11-30_09h21.36.102,REPSWITCH1_version1_list1,2022.2.4,143.94578427597676,
REPSWITCH1/PICTURE_687.png,camisa,speak,gold,filler,2,F,1,1,1,1,Stim5_Set4,0,None,11,10,11,0,10,10,10,,,,,,,,,,,,,,,,,,,,,,,65.87633599992841,66.99461419996805,66.99461419996805,66.99461419996805,66.99461419996805,66.99461419996805,66.99461419996805,66.99461419996805,66.99461419996805,None,0,,,C:\2023\REPSWITCH21092023\REPSWITCH_excgange\REPSWITCH_excgange\data/170101_REPSWITCH1_version1_list1_2023-11-30_09h21.36.102_micRespv1l1_recorded\recording_micRespv1l1_2023-11-30_09h22.37.954.wav,70.02271739998832,,None,70.02271739998832,70.02271739998832,70.02271739998832,70.02271739998832,70.02271739998832,70.02271739998832,,,,,,170101,001,2023-11-30_09h21.36.102,REPSWITCH1_version1_list1,2022.2.4,143.94578427597676,
REPSWITCH1/PICTURE_128.png,muñeca,type,darkblue,nontarget,1,NT,1,1,1,1,Stim4_Set1,1,switch,12,11,12,0,11,11,11,,,,,,,,,,,,,,,,,,,,,,,70.52278929995373,71.65496279997751,71.65496279997751,71.65496279997751,71.65496279997751,71.65496279997751,71.65496279997751,71.65496279997751,71.65496279997751,"['m', 'u', 'ñ', 'e', 'c', 'a']",0,"[1.07643590006046, 1.2575654000975192, 1.523707800079137, 1.6044115000404418, 1.8828789999242872, 2.0485159000381827]",muñeca,C:\2023\REPSWITCH21092023\REPSWITCH_excgange\REPSWITCH_excgange\data/170101_REPSWITCH1_version1_list1_2023-11-30_09h21.36.102_micRespv1l1_recorded\recording_micRespv1l1_2023-11-30_09h22.42.614.wav,74.67614950006828,75.17619180004112,None,74.67614950006828,74.67614950006828,74.67614950006828,74.67614950006828,74.67614950006828,74.67614950006828,,,,,,170101,001,2023-11-30_09h21.36.102,REPSWITCH1_version1_list1,2022.2.4,143.94578427597676,
REPSWITCH1/PICTURE_128.png,muñeca,speak,gold,switch,2,T,1,1,1,1,Stim4_Set1,0,None,13,12,13,0,12,12,12,,,,,,,,,,,,,,,,,,,,,,,75.17619180004112,76.21801589988172,76.21801589988172,76.21801589988172,76.21801589988172,76.21801589988172,76.21801589988172,76.21801589988172,76.21801589988172,None,0,,,C:\2023\REPSWITCH21092023\REPSWITCH_excgange\REPSWITCH_excgange\data/170101_REPSWITCH1_version1_list1_2023-11-30_09h21.36.102_micRespv1l1_recorded\recording_micRespv1l1_2023-11-30_09h22.47.177.wav,79.24615569994785,,None,79.24615569994785,79.24615569994785,79.24615569994785,79.24615569994785,79.24615569994785,79.24615569994785,,,,,,170101,001,2023-11-30_09h21.36.102,REPSWITCH1_version1_list1,2022.2.4,143.94578427597676,
REPSWITCH1/PICTURE_8.png,pierna,speak,gold,filler,2,F,1,1,1,1,Stim3_Set4,0,None,14,13,14,0,13,13,13,,,,,,,,,,,,,,,,,,,,,,,79.74620880000293,80.82976310001686,80.82976310001686,80.82976310001686,80.82976310001686,80.82976310001686,80.82976310001686,80.82976310001686,80.82976310001686,None,0,,,C:\2023\REPSWITCH21092023\REPSWITCH_excgange\REPSWITCH_excgange\data/170101_REPSWITCH1_version1_list1_2023-11-30_09h21.36.102_micRespv1l1_recorded\recording_micRespv1l1_2023-11-30_09h22.51.789.wav,83.8509637999814,84.35097040003166,None,83.8509637999814,83.8509637999814,83.8509637999814,83.8509637999814,83.8509637999814,83.8509637999814,,,,,,170101,001,2023-11-30_09h21.36.102,REPSWITCH1_version1_list1,2022.2.4,143.94578427597676,
REPSWITCH1/PICTURE_19.png,pavo,speak,gold,nontarget,2,NT,1,1,1,1,Stim5_Set1,0,None,15,14,15,0,14,14,14,,,,,,,,,,,,,,,,,,,,,,,84.35097040003166,85.4414778999053,85.4414778999053,85.4414778999053,85.4414778999053,85.4414778999053,85.4414778999053,85.4414778999053,85.4414778999053,None,0,,,C:\2023\REPSWITCH21092023\REPSWITCH_excgange\REPSWITCH_excgange\data/170101_REPSWITCH1_version1_list1_2023-11-30_09h21.36.102_micRespv1l1_recorded\recording_micRespv1l1_2023-11-30_09h22.56.401.wav,88.46959310001694,,None,88.46959310001694,88.46959310001694,88.46959310001694,88.46959310001694,88.46959310001694,88.46959310001694,,,,,,170101,001,2023-11-30_09h21.36.102,REPSWITCH1_version1_list1,2022.2.4,143.94578427597676,
REPSWITCH1/PICTURE_19.png,pavo,type,darkblue,switch,1,T,1,1,1,1,Stim5_Set1,0,None,16,15,16,0,15,15,15,,,,,,,,,,,,,,,,,,,,,,,88.96971539990045,90.06008269987069,90.06008269987069,90.06008269987069,90.06008269987069,90.06008269987069,90.06008269987069,90.06008269987069,90.06008269987069,"['p', 'a', 'v', 'o']",0,"[0.8849018001928926, 1.0346888001076877, 1.216836100211367, 1.2949157000984997]",pavo,C:\2023\REPSWITCH21092023\REPSWITCH_excgange\REPSWITCH_excgange\data/170101_REPSWITCH1_version1_list1_2023-11-30_09h21.36.102_micRespv1l1_recorded\recording_micRespv1l1_2023-11-30_09h23.01.019.wav,93.08126610005274,93.58143229992129,None,93.08126610005274,93.08126610005274,93.08126610005274,93.08126610005274,93.08126610005274,93.08126610005274,,,,,,170101,001,2023-11-30_09h21.36.102,REPSWITCH1_version1_list1,2022.2.4,143.94578427597676,
REPSWITCH1/PICTURE_16.png,cazador,type,darkblue,nontarget,1,NT,1,1,1,1,Stim6_Set1,1,switch,17,16,17,0,16,16,16,,,,,,,,,,,,,,,,,,,,,,,93.58143229992129,94.6787570999004,94.6787570999004,94.6787570999004,94.6787570999004,94.6787570999004,94.6787570999004,94.6787570999004,94.6787570999004,"['c', 'a', 'z', 'a', 'd', 'o', 'r']",0,"[1.2796982999425381, 1.4830787000246346, 1.6379622998647392, 1.7914435998536646, 1.961044899886474, 2.105859400006011, 2.1786118999589235]",cazador,C:\2023\REPSWITCH21092023\REPSWITCH_excgange\REPSWITCH_excgange\data/170101_REPSWITCH1_version1_list1_2023-11-30_09h21.36.102_micRespv1l1_recorded\recording_micRespv1l1_2023-11-30_09h23.05.639.wav,97.70690959994681,,None,97.70690959994681,97.70690959994681,97.70690959994681,97.70690959994681,97.70690959994681,97.70690959994681,,,,,,170101,001,2023-11-30_09h21.36.102,REPSWITCH1_version1_list1,2022.2.4,143.94578427597676,
REPSWITCH1/PICTURE_16.png,cazador,type,darkblue,repeat,1,T,1,1,1,1,Stim6_Set1,0,None,18,17,18,0,17,17,17,,,,,,,,,,,,,,,,,,,,,,,98.20697290007956,99.36685830005445,99.36685830005445,99.36685830005445,99.36685830005445,99.36685830005445,99.36685830005445,99.36685830005445,99.36685830005445,"['c', 'a', 'z', 'a', 'd', 'o', 'r']",0,"[1.0747266998514533, 1.1574456000234932, 1.3291994000319391, 1.4807781998533756, 1.656076499959454, 1.8125106999650598, 1.89859539992176]",cazador,C:\2023\REPSWITCH21092023\REPSWITCH_excgange\REPSWITCH_excgange\data/170101_REPSWITCH1_version1_list1_2023-11-30_09h21.36.102_micRespv1l1_recorded\recording_micRespv1l1_2023-11-30_09h23.10.326.wav,102.40193669986911,,None,102.40193669986911,102.40193669986911,102.40193669986911,102.40193669986911,102.40193669986911,102.40193669986911,,,,,,170101,001,2023-11-30_09h21.36.102,REPSWITCH1_version1_list1,2022.2.4,143.94578427597676,
REPSWITCH1/PICTURE_498.png,taza,speak,gold,filler,2,F,1,1,1,1,Stim4_Set4,0,None,19,18,19,0,18,18,18,,,,,,,,,,,,,,,,,,,,,,,102.90208290005103,104.05495080002584,104.05495080002584,104.05495080002584,104.05495080002584,104.05495080002584,104.05495080002584,104.05495080002584,104.05495080002584,None,0,,,C:\2023\REPSWITCH21092023\REPSWITCH_excgange\REPSWITCH_excgange\data/170101_REPSWITCH1_version1_list1_2023-11-30_09h21.36.102_micRespv1l1_recorded\recording_micRespv1l1_2023-11-30_09h23.15.015.wav,107.08314209990203,,None,107.08314209990203,107.08314209990203,107.08314209990203,107.08314209990203,107.08314209990203,107.08314209990203,,,,,,170101,001,2023-11-30_09h21.36.102,REPSWITCH1_version1_list1,2022.2.4,143.94578427597676,
REPSWITCH1/PICTURE_48.png,bombero,type,darkblue,filler,1,F,1,1,1,1,Stim7_Set4,0,None,20,19,20,0,19,19,19,,,,,,,,,,,,,,,,,,,,,,,107.58320800005458,108.69447460002266,108.69447460002266,108.69447460002266,108.69447460002266,108.69447460002266,108.69447460002266,108.69447460002266,108.69447460002266,"['b', 'o', 'm', 'b', 'e', 'r', 'o']",0,"[1.2289362999144942, 1.3744441999588162, 1.5538564999587834, 1.6814234999474138, 1.8879690999165177, 2.0265035000629723, 2.10623969999142]",bombero,C:\2023\REPSWITCH21092023\REPSWITCH_excgange\REPSWITCH_excgange\data/170101_REPSWITCH1_version1_list1_2023-11-30_09h21.36.102_micRespv1l1_recorded\recording_micRespv1l1_2023-11-30_09h23.19.653.wav,111.71570340008475,112.21571830008179,None,111.71570340008475,111.71570340008475,111.71570340008475,111.71570340008475,111.71570340008475,111.71570340008475,,,,,,170101,001,2023-11-30_09h21.36.102,REPSWITCH1_version1_list1,2022.2.4,143.94578427597676,
REPSWITCH1/PICTURE_142.png,vaso,type,darkblue,nontarget,1,NT,1,1,1,1,Stim7_Set1,1,repeat,21,20,21,0,20,20,20,,,,,,,,,,,,,,,,,,,,,,,112.21571830008179,113.38256100006402,113.38256100006402,113.38256100006402,113.38256100006402,113.38256100006402,113.38256100006402,113.38256100006402,113.38256100006402,"['v', 'a', 's', 'o']",0,"[1.058108099969104, 1.1478017999324948, 1.2753659000154585, 1.4547766998875886]",vaso,C:\2023\REPSWITCH21092023\REPSWITCH_excgange\REPSWITCH_excgange\data/170101_REPSWITCH1_version1_list1_2023-11-30_09h21.36.102_micRespv1l1_recorded\recording_micRespv1l1_2023-11-30_09h23.24.342.wav,116.40377049986273,116.90384919987991,None,116.40377049986273,116.40377049986273,116.40377049986273,116.40377049986273,116.40377049986273,116.40377049986273,,,,,,170101,001,2023-11-30_09h21.36.102,REPSWITCH1_version1_list1,2022.2.4,143.94578427597676,
REPSWITCH1/PICTURE_142.png,vaso,type,darkblue,repeat,1,T,1,1,1,1,Stim7_Set1,0,None,22,21,22,0,21,21,21,,,,,,,,,,,,,,,,,,,,,,,116.90384919987991,118.0706724000629,118.0706724000629,118.0706724000629,118.0706724000629,118.0706724000629,118.0706724000629,118.0706724000629,118.0706724000629,"['v', 'a', 's', 'o']",0,"[0.849408800015226, 0.9590437998995185, 1.100146999815479, 1.3671789998188615]",vaso,C:\2023\REPSWITCH21092023\REPSWITCH_excgange\REPSWITCH_excgange\data/170101_REPSWITCH1_version1_list1_2023-11-30_09h21.36.102_micRespv1l1_recorded\recording_micRespv1l1_2023-11-30_09h23.29.030.wav,121.09194199997,121.59195979987271,None,121.09194199997,121.09194199997,121.09194199997,121.09194199997,121.09194199997,121.09194199997,,,,,,170101,001,2023-11-30_09h21.36.102,REPSWITCH1_version1_list1,2022.2.4,143.94578427597676,
REPSWITCH1/PICTURE_338.png,regalo,speak,gold,filler,2,F,1,1,1,1,Stim6_Set4,1,switch,23,22,23,0,22,22,22,,,,,,,,,,,,,,,,,,,,,,,121.59195979987271,122.67544869985431,122.67544869985431,122.67544869985431,122.67544869985431,122.67544869985431,122.67544869985431,122.67544869985431,122.67544869985431,None,0,,,C:\2023\REPSWITCH21092023\REPSWITCH_excgange\REPSWITCH_excgange\data/170101_REPSWITCH1_version1_list1_2023-11-30_09h21.36.102_micRespv1l1_recorded\recording_micRespv1l1_2023-11-30_09h23.33.635.wav,125.7036303000059,,None,125.7036303000059,125.7036303000059,125.7036303000059,125.7036303000059,125.7036303000059,125.7036303000059,,,,,,170101,001,2023-11-30_09h21.36.102,REPSWITCH1_version1_list1,2022.2.4,143.94578427597676,
REPSWITCH1/PICTURE_728.png,pulpo,type,darkblue,filler,1,F,1,1,1,1,Stim8_Set4,1,switch,24,23,24,0,23,23,23,,,,,,,,,,,,,,,,,,,,,,,126.20368709997274,127.30803689989261,127.30803689989261,127.30803689989261,127.30803689989261,127.30803689989261,127.30803689989261,127.30803689989261,127.30803689989261,"['p', 'u', 'l', 'p', 'o']",0,"[1.0330590000376105, 1.2866805999074131, 1.5673906998708844, 1.7617242999840528, 1.8943014999385923]",pulpo,C:\2023\REPSWITCH21092023\REPSWITCH_excgange\REPSWITCH_excgange\data/170101_REPSWITCH1_version1_list1_2023-11-30_09h21.36.102_micRespv1l1_recorded\recording_micRespv1l1_2023-11-30_09h23.38.267.wav,130.32924950006418,130.82930650003254,None,130.32924950006418,130.32924950006418,130.32924950006418,130.32924950006418,130.32924950006418,130.32924950006418,,,,,,170101,001,2023-11-30_09h21.36.102,REPSWITCH1_version1_list1,2022.2.4,143.94578427597676,
REPSWITCH1/PICTURE_169.png,espalda,type,darkblue,nontarget,1,NT,1,1,1,1,Stim8_Set1,1,repeat,25,24,25,0,24,24,24,,,,,,,,,,,,,,,,,,,,,,,130.82930650003254,131.91278139990754,131.91278139990754,131.91278139990754,131.91278139990754,131.91278139990754,131.91278139990754,131.91278139990754,131.91278139990754,"['e', 's', 'p', 'a', 'l', 'd', 'a']",0,"[0.9367395001463592, 1.085541700012982, 1.1602609001565725, 1.2620227001607418, 1.3657500001136214, 1.4640373999718577, 1.6553840001579374]",espalda,C:\2023\REPSWITCH21092023\REPSWITCH_excgange\REPSWITCH_excgange\data/170101_REPSWITCH1_version1_list1_2023-11-30_09h21.36.102_micRespv1l1_recorded\recording_micRespv1l1_2023-11-30_09h23.42.872.wav,134.94097979995422,,None,134.94097979995422,134.94097979995422,134.94097979995422,134.94097979995422,134.94097979995422,134.94097979995422,,,,,,170101,001,2023-11-30_09h21.36.102,REPSWITCH1_version1_list1,2022.2.4,143.94578427597676,
REPSWITCH1/PICTURE_169.png,espalda,speak,gold,switch,2,T,1,1,1,1,Stim8_Set1,0,None,26,25,26,0,25,25,25,,,,,,,,,,,,,,,,,,,,,,,135.4409884000197,136.53845959994942,136.53845959994942,136.53845959994942,136.53845959994942,136.53845959994942,136.53845959994942,136.53845959994942,136.53845959994942,None,0,,,C:\2023\REPSWITCH21092023\REPSWITCH_excgange\REPSWITCH_excgange\data/170101_REPSWITCH1_version1_list1_2023-11-30_09h21.36.102_micRespv1l1_recorded\recording_micRespv1l1_2023-11-30_09h23.47.497.wav,139.55968359997496,140.05968270008452,None,139.55968359997496,139.55968359997496,139.55968359997496,139.55968359997496,139.55968359997496,139.55968359997496,,,,,,170101,001,2023-11-30_09h21.36.102,REPSWITCH1_version1_list1,2022.2.4,143.94578427597676,
REPSWITCH1/PICTURE_178.png,puente,speak,gold,filler,2,F,2,1,1,1,Stim1_Set1,0,None,27,26,27,0,26,26,26,,,,,,,,,,,,,,,,,,,,,,,140.05968270008452,141.1848963999655,141.1848963999655,141.1848963999655,141.1848963999655,141.1848963999655,141.1848963999655,141.1848963999655,141.1848963999655,None,0,,,C:\2023\REPSWITCH21092023\REPSWITCH_excgange\REPSWITCH_excgange\data/170101_REPSWITCH1_version1_list1_2023-11-30_09h21.36.102_micRespv1l1_recorded\recording_micRespv1l1_2023-11-30_09h23.52.144.wav,144.21298549999483,,None,144.21298549999483,144.21298549999483,144.21298549999483,144.21298549999483,144.21298549999483,144.21298549999483,,,,,,170101,001,2023-11-30_09h21.36.102,REPSWITCH1_version1_list1,2022.2.4,143.94578427597676,
REPSWITCH1/PICTURE_175.png,pintor,type,darkblue,nontarget,1,NT,2,1,1,1,Stim1_Set2,1,switch,28,27,28,0,27,27,27,,,,,,,,,,,,,,,,,,,,,,,144.71307229995728,145.8868652000092,145.8868652000092,145.8868652000092,145.8868652000092,145.8868652000092,145.8868652000092,145.8868652000092,145.8868652000092,"['p', 'i', 'n', 't', 'o', 'r']",0,"[0.8876608000136912, 1.1119258999824524, 1.2783117999788374, 1.385948000010103, 1.528518300037831, 1.5987433001864702]",pintor,C:\2023\REPSWITCH21092023\REPSWITCH_excgange\REPSWITCH_excgange\data/170101_REPSWITCH1_version1_list1_2023-11-30_09h21.36.102_micRespv1l1_recorded\recording_micRespv1l1_2023-11-30_09h23.56.846.wav,148.9150785000529,,None,148.9150785000529,148.9150785000529,148.9150785000529,148.9150785000529,148.9150785000529,148.9150785000529,,,,,,170101,001,2023-11-30_09h21.36.102,REPSWITCH1_version1_list1,2022.2.4,143.94578427597676,
REPSWITCH1/PICTURE_175.png,pintor,type,darkblue,repeat,1,T,2,1,1,1,Stim1_Set2,0,None,29,28,29,0,28,28,28,,,,,,,,,,,,,,,,,,,,,,,149.4150827000849,150.456911199959,150.456911199959,150.456911199959,150.456911199959,150.456911199959,150.456911199959,150.456911199959,150.456911199959,"['p', 'i', 'n', 't', 'o', 'r']",0,"[0.9877276998013258, 1.5840819999575615, 2.041858399985358, 2.1445917999371886, 2.28242259984836, 2.353128499817103]",pintor,C:\2023\REPSWITCH21092023\REPSWITCH_excgange\REPSWITCH_excgange\data/170101_REPSWITCH1_version1_list1_2023-11-30_09h21.36.102_micRespv1l1_recorded\recording_micRespv1l1_2023-11-30_09h24.01.416.wav,153.48506639990956,,None,153.48506639990956,153.48506639990956,153.48506639990956,153.48506639990956,153.48506639990956,153.48506639990956,,,,,,170101,001,2023-11-30_09h21.36.102,REPSWITCH1_version1_list1,2022.2.4,143.94578427597676,
REPSWITCH1/PICTURE_381.png,fresa,speak,gold,filler,2,F,2,1,1,1,Stim2_Set1,0,None,30,29,30,0,29,29,29,,,,,,,,,,,,,,,,,,,,,,,153.98512029997073,155.08945359988138,155.08945359988138,155.08945359988138,155.08945359988138,155.08945359988138,155.08945359988138,155.08945359988138,155.08945359988138,None,0,,,C:\2023\REPSWITCH21092023\REPSWITCH_excgange\REPSWITCH_excgange\data/170101_REPSWITCH1_version1_list1_2023-11-30_09h21.36.102_micRespv1l1_recorded\recording_micRespv1l1_2023-11-30_09h24.06.048.wav,158.11062920000404,158.61076259985566,None,158.11062920000404,158.11062920000404,158.11062920000404,158.11062920000404,158.11062920000404,158.11062920000404,,,,,,170101,001,2023-11-30_09h21.36.102,REPSWITCH1_version1_list1,2022.2.4,143.94578427597676,
REPSWITCH1/PICTURE_152.png,caracol,type,darkblue,nontarget,1,NT,2,1,1,1,Stim2_Set2,1,switch,31,30,31,0,30,30,30,,,,,,,,,,,,,,,,,,,,,,,158.61076259985566,159.7844863999635,159.7844863999635,159.7844863999635,159.7844863999635,159.7844863999635,159.7844863999635,159.7844863999635,159.7844863999635,"['c', 'a', 'r', 'a', 'c', 'o', 'l']",0,"[0.9679876998998225, 1.1493807998485863, 1.3396960999816656, 1.5183837998192757, 1.687172999838367, 1.7567365998402238, 1.9038729998283088]",caracol,C:\2023\REPSWITCH21092023\REPSWITCH_excgange\REPSWITCH_excgange\data/170101_REPSWITCH1_version1_list1_2023-11-30_09h21.36.102_micRespv1l1_recorded\recording_micRespv1l1_2023-11-30_09h24.10.743.wav,162.80569020006806,163.3057577998843,None,162.80569020006806,162.80569020006806,162.80569020006806,162.80569020006806,162.80569020006806,162.80569020006806,,,,,,170101,001,2023-11-30_09h21.36.102,REPSWITCH1_version1_list1,2022.2.4,143.94578427597676,
REPSWITCH1/PICTURE_152.png,caracol,type,darkblue,repeat,1,T,2,1,1,1,Stim2_Set2,0,None,32,31,32,0,31,31,31,,,,,,,,,,,,,,,,,,,,,,,163.3057577998843,164.3892673999071,164.3892673999071,164.3892673999071,164.3892673999071,164.3892673999071,164.3892673999071,164.3892673999071,164.3892673999071,"['c', 'a', 'r', 'a', 'c', 'o', 'l']",0,"[0.914139699889347, 1.097538699861616, 1.3081441998947412, 1.5096880998462439, 2.28079740004614, 2.3884384999983013, 2.541919599985704]",caracol,C:\2023\REPSWITCH21092023\REPSWITCH_excgange\REPSWITCH_excgange\data/170101_REPSWITCH1_version1_list1_2023-11-30_09h21.36.102_micRespv1l1_recorded\recording_micRespv1l1_2023-11-30_09h24.15.348.wav,167.4175076999236,,None,167.4175076999236,167.4175076999236,167.4175076999236,167.4175076999236,167.4175076999236,167.4175076999236,,,,,,170101,001,2023-11-30_09h21.36.102,REPSWITCH1_version1_list1,2022.2.4,143.94578427597676,
REPSWITCH1/PICTURE_128.png,muñeca,speak,gold,filler,2,F,2,1,1,1,Stim4_Set1,0,None,33,32,33,0,32,32,32,,,,,,,,,,,,,,,,,,,,,,,167.91750300000422,169.01486580003984,169.01486580003984,169.01486580003984,169.01486580003984,169.01486580003984,169.01486580003984,169.01486580003984,169.01486580003984,None,0,,,C:\2023\REPSWITCH21092023\REPSWITCH_excgange\REPSWITCH_excgange\data/170101_REPSWITCH1_version1_list1_2023-11-30_09h21.36.102_micRespv1l1_recorded\recording_micRespv1l1_2023-11-30_09h24.19.974.wav,172.03610139992088,172.5361738000065,None,172.03610139992088,172.03610139992088,172.03610139992088,172.03610139992088,172.03610139992088,172.03610139992088,,,,,,170101,001,2023-11-30_09h21.36.102,REPSWITCH1_version1_list1,2022.2.4,143.94578427597676,
REPSWITCH1/PICTURE_264.png,mano,type,darkblue,nontarget,1,NT,2,1,1,1,Stim3_Set2,0,None,34,33,34,0,33,33,33,,,,,,,,,,,,,,,,,,,,,,,172.5361738000065,173.5780304998625,173.5780304998625,173.5780304998625,173.5780304998625,173.5780304998625,173.5780304998625,173.5780304998625,173.5780304998625,"['m', 'a', 'n', 'o']",0,"[0.93598089995794, 1.0680182001087815, 1.1422460000030696, 1.3330226000398397]",mano,C:\2023\REPSWITCH21092023\REPSWITCH_excgange\REPSWITCH_excgange\data/170101_REPSWITCH1_version1_list1_2023-11-30_09h21.36.102_micRespv1l1_recorded\recording_micRespv1l1_2023-11-30_09h24.24.537.wav,176.59926999988966,177.0992715000175,None,176.59926999988966,176.59926999988966,176.59926999988966,176.59926999988966,176.59926999988966,176.59926999988966,,,,,,170101,001,2023-11-30_09h21.36.102,REPSWITCH1_version1_list1,2022.2.4,143.94578427597676,
REPSWITCH1/PICTURE_264.png,mano,speak,gold,switch,2,T,2,1,1,1,Stim3_Set2,0,None,35,34,35,0,34,34,34,,,,,,,,,,,,,,,,,,,,,,,177.0992715000175,178.2938729999587,178.2938729999587,178.2938729999587,178.2938729999587,178.2938729999587,178.2938729999587,178.2938729999587,178.2938729999587,None,0,,,C:\2023\REPSWITCH21092023\REPSWITCH_excgange\REPSWITCH_excgange\data/170101_REPSWITCH1_version1_list1_2023-11-30_09h21.36.102_micRespv1l1_recorded\recording_micRespv1l1_2023-11-30_09h24.29.253.wav,181.31506379996426,181.81516229989938,None,181.31506379996426,181.31506379996426,181.31506379996426,181.31506379996426,181.31506379996426,181.31506379996426,,,,,,170101,001,2023-11-30_09h21.36.102,REPSWITCH1_version1_list1,2022.2.4,143.94578427597676,
REPSWITCH1/PICTURE_517.png,cuerda,speak,gold,nontarget,2,NT,2,1,1,1,Stim4_Set2,1,repeat,36,35,36,0,35,35,35,,,,,,,,,,,,,,,,,,,,,,,181.81516229989938,182.88477139989845,182.88477139989845,182.88477139989845,182.88477139989845,182.88477139989845,182.88477139989845,182.88477139989845,182.88477139989845,None,0,,,C:\2023\REPSWITCH21092023\REPSWITCH_excgange\REPSWITCH_excgange\data/170101_REPSWITCH1_version1_list1_2023-11-30_09h21.36.102_micRespv1l1_recorded\recording_micRespv1l1_2023-11-30_09h24.33.844.wav,185.91289909998886,,None,185.91289909998886,185.91289909998886,185.91289909998886,185.91289909998886,185.91289909998886,185.91289909998886,,,,,,170101,001,2023-11-30_09h21.36.102,REPSWITCH1_version1_list1,2022.2.4,143.94578427597676,
REPSWITCH1/PICTURE_517.png,cuerda,type,darkblue,switch,1,T,2,1,1,1,Stim4_Set2,0,None,37,36,37,0,36,36,36,,,,,,,,,,,,,,,,,,,,,,,186.41296099987812,187.57978520006873,187.57978520006873,187.57978520006873,187.57978520006873,187.57978520006873,187.57978520006873,187.57978520006873,187.57978520006873,"['c', 'u', 'e', 'r', 'd', 'a']",0,"[0.9877591000404209, 1.1594776001293212, 1.2573756000492722, 1.4118935000151396, 1.5773072999436408, 1.7620220000389963]",cuerda,C:\2023\REPSWITCH21092023\REPSWITCH_excgange\REPSWITCH_excgange\data/170101_REPSWITCH1_version1_list1_2023-11-30_09h21.36.102_micRespv1l1_recorded\recording_micRespv1l1_2023-11-30_09h24.38.539.wav,190.6080269999802,,None,190.6080269999802,190.6080269999802,190.6080269999802,190.6080269999802,190.6080269999802,190.6080269999802,,,,,,170101,001,2023-11-30_09h21.36.102,REPSWITCH1_version1_list1,2022.2.4,143.94578427597676,
REPSWITCH1/PICTURE_135.png,traje,type,darkblue,filler,1,F,2,1,1,1,Stim3_Set1,0,None,38,37,38,0,37,37,37,,,,,,,,,,,,,,,,,,,,,,,191.10804630001076,192.19848540006205,192.19848540006205,192.19848540006205,192.19848540006205,192.19848540006205,192.19848540006205,192.19848540006205,192.19848540006205,"['t', 'r', 'a', 'j', 'e']",0,"[0.850707600126043, 1.0210136999376118, 1.23829869995825, 1.357825699960813, 1.4305817999411374]",traje,C:\2023\REPSWITCH21092023\REPSWITCH_excgange\REPSWITCH_excgange\data/170101_REPSWITCH1_version1_list1_2023-11-30_09h21.36.102_micRespv1l1_recorded\recording_micRespv1l1_2023-11-30_09h24.43.157.wav,195.21971179987304,195.71974149998277,None,195.21971179987304,195.21971179987304,195.21971179987304,195.21971179987304,195.21971179987304,195.21971179987304,,,,,,170101,001,2023-11-30_09h21.36.102,REPSWITCH1_version1_list1,2022.2.4,143.94578427597676,
REPSWITCH1/PICTURE_30.png,granja,type,darkblue,nontarget,1,NT,2,1,1,1,Stim5_Set2,1,repeat,39,38,39,0,38,38,38,,,,,,,,,,,,,,,,,,,,,,,195.71974149998277,196.82413149997592,196.82413149997592,196.82413149997592,196.82413149997592,196.82413149997592,196.82413149997592,196.82413149997592,196.82413149997592,"['g', 'r', 'a', 'n', 'j', 'a']",0,"[1.3053154000081122, 1.4969780000392348, 1.743163000093773, 1.8461120000574738, 1.990955299930647, 2.0407366999424994]",granja,C:\2023\REPSWITCH21092023\REPSWITCH_excgange\REPSWITCH_excgange\data/170101_REPSWITCH1_version1_list1_2023-11-30_09h21.36.102_micRespv1l1_recorded\recording_micRespv1l1_2023-11-30_09h24.47.784.wav,199.85226670000702,200.3523162000347,None,199.85226670000702,199.85226670000702,199.85226670000702,199.85226670000702,199.85226670000702,199.85226670000702,,,,,,170101,001,2023-11-30_09h21.36.102,REPSWITCH1_version1_list1,2022.2.4,143.94578427597676,
REPSWITCH1/PICTURE_30.png,granja,speak,gold,switch,2,T,2,1,1,1,Stim5_Set2,0,None,40,39,40,0,39,39,39,,,,,,,,,,,,,,,,,,,,,,,200.3523162000347,201.4566089999862,201.4566089999862,201.4566089999862,201.4566089999862,201.4566089999862,201.4566089999862,201.4566089999862,201.4566089999862,None,0,,,C:\2023\REPSWITCH21092023\REPSWITCH_excgange\REPSWITCH_excgange\data/170101_REPSWITCH1_version1_list1_2023-11-30_09h21.36.102_micRespv1l1_recorded\recording_micRespv1l1_2023-11-30_09h24.52.417.wav,204.48478419985622,,None,204.48478419985622,204.48478419985622,204.48478419985622,204.48478419985622,204.48478419985622,204.48478419985622,,,,,,170101,001,2023-11-30_09h21.36.102,REPSWITCH1_version1_list1,2022.2.4,143.94578427597676,
REPSWITCH1/PICTURE_142.png,vaso,type,darkblue,filler,1,F,2,1,1,1,Stim7_Set1,0,None,41,40,41,0,40,40,40,,,,,,,,,,,,,,,,,,,,,,,204.98491279990412,206.04055180004798,206.04055180004798,206.04055180004798,206.04055180004798,206.04055180004798,206.04055180004798,206.04055180004798,206.04055180004798,"['v', 'a', 's', 'o']",0,"[0.8900323000270873, 0.986662199953571, 1.1404921000357717, 1.3020645000506192]",vaso,C:\2023\REPSWITCH21092023\REPSWITCH_excgange\REPSWITCH_excgange\data/170101_REPSWITCH1_version1_list1_2023-11-30_09h21.36.102_micRespv1l1_recorded\recording_micRespv1l1_2023-11-30_09h24.57.000.wav,209.0617734999396,209.56183440005407,None,209.0617734999396,209.0617734999396,209.0617734999396,209.0617734999396,209.0617734999396,209.0617734999396,,,,,,170101,001,2023-11-30_09h21.36.102,REPSWITCH1_version1_list1,2022.2.4,143.94578427597676,
REPSWITCH1/PICTURE_19.png,pavo,speak,gold,filler,2,F,2,1,1,1,Stim5_Set1,1,switch,42,41,42,0,41,41,41,,,,,,,,,,,,,,,,,,,,,,,209.56183440005407,210.79811979993246,210.79811979993246,210.79811979993246,210.79811979993246,210.79811979993246,210.79811979993246,210.79811979993246,210.79811979993246,None,0,,,C:\2023\REPSWITCH21092023\REPSWITCH_excgange\REPSWITCH_excgange\data/170101_REPSWITCH1_version1_list1_2023-11-30_09h21.36.102_micRespv1l1_recorded\recording_micRespv1l1_2023-11-30_09h25.01.757.wav,213.82630870002322,,None,213.82630870002322,213.82630870002322,213.82630870002322,213.82630870002322,213.82630870002322,213.82630870002322,,,,,,170101,001,2023-11-30_09h21.36.102,REPSWITCH1_version1_list1,2022.2.4,143.94578427597676,
REPSWITCH1/PICTURE_552.png,manzana,speak,gold,nontarget,2,NT,2,1,1,1,Stim6_Set2,1,repeat,43,42,43,0,42,42,42,,,,,,,,,,,,,,,,,,,,,,,214.32636799989268,215.40989740006626,215.40989740006626,215.40989740006626,215.40989740006626,215.40989740006626,215.40989740006626,215.40989740006626,215.40989740006626,None,0,,,C:\2023\REPSWITCH21092023\REPSWITCH_excgange\REPSWITCH_excgange\data/170101_REPSWITCH1_version1_list1_2023-11-30_09h21.36.102_micRespv1l1_recorded\recording_micRespv1l1_2023-11-30_09h25.06.369.wav,218.43105939985253,218.93113339995034,None,218.43105939985253,218.43105939985253,218.43105939985253,218.43105939985253,218.43105939985253,218.43105939985253,,,,,,170101,001,2023-11-30_09h21.36.102,REPSWITCH1_version1_list1,2022.2.4,143.94578427597676,
REPSWITCH1/PICTURE_552.png,manzana,speak,gold,repeat,2,T,2,1,1,1,Stim6_Set2,0,None,44,43,44,0,43,43,43,,,,,,,,,,,,,,,,,,,,,,,218.93113339995034,219.9451516000554,219.9451516000554,219.9451516000554,219.9451516000554,219.9451516000554,219.9451516000554,219.9451516000554,219.9451516000554,None,0,,,C:\2023\REPSWITCH21092023\REPSWITCH_excgange\REPSWITCH_excgange\data/170101_REPSWITCH1_version1_list1_2023-11-30_09h21.36.102_micRespv1l1_recorded\recording_micRespv1l1_2023-11-30_09h25.10.905.wav,222.9733213998843,,None,222.9733213998843,222.9733213998843,222.9733213998843,222.9733213998843,222.9733213998843,222.9733213998843,,,,,,170101,001,2023-11-30_09h21.36.102,REPSWITCH1_version1_list1,2022.2.4,143.94578427597676,
REPSWITCH1/PICTURE_16.png,cazador,type,darkblue,filler,1,F,2,1,1,1,Stim6_Set1,0,None,45,44,45,0,44,44,44,,,,,,,,,,,,,,,,,,,,,,,223.47339940001257,224.63329760008492,224.63329760008492,224.63329760008492,224.63329760008492,224.63329760008492,224.63329760008492,224.63329760008492,224.63329760008492,"['c', 'a', 'z', 'a', 'd', 'o', 'r']",0,"[1.2286782998126, 1.4254403999075294, 1.63211189978756, 1.7835863998625427, 1.9688287999015301, 2.1502754997927696, 2.24192909989506]",cazador,C:\2023\REPSWITCH21092023\REPSWITCH_excgange\REPSWITCH_excgange\data/170101_REPSWITCH1_version1_list1_2023-11-30_09h21.36.102_micRespv1l1_recorded\recording_micRespv1l1_2023-11-30_09h25.15.593.wav,227.6614540000446,,None,227.6614540000446,227.6614540000446,227.6614540000446,227.6614540000446,227.6614540000446,227.6614540000446,,,,,,170101,001,2023-11-30_09h21.36.102,REPSWITCH1_version1_list1,2022.2.4,143.94578427597676,
REPSWITCH1/PICTURE_446.png,cerdo,speak,gold,nontarget,2,NT,2,1,1,1,Stim7_Set2,1,switch,46,45,46,0,45,45,45,,,,,,,,,,,,,,,,,,,,,,,228.1615935000591,229.28669449989684,229.28669449989684,229.28669449989684,229.28669449989684,229.28669449989684,229.28669449989684,229.28669449989684,229.28669449989684,None,0,,,C:\2023\REPSWITCH21092023\REPSWITCH_excgange\REPSWITCH_excgange\data/170101_REPSWITCH1_version1_list1_2023-11-30_09h21.36.102_micRespv1l1_recorded\recording_micRespv1l1_2023-11-30_09h25.20.246.wav,232.31482009985484,,None,232.31482009985484,232.31482009985484,232.31482009985484,232.31482009985484,232.31482009985484,232.31482009985484,,,,,,170101,001,2023-11-30_09h21.36.102,REPSWITCH1_version1_list1,2022.2.4,143.94578427597676,
REPSWITCH1/PICTURE_446.png,cerdo,speak,gold,repeat,2,T,2,1,1,1,Stim7_Set2,0,None,47,46,47,0,46,46,46,,,,,,,,,,,,,,,,,,,,,,,232.81495769997127,234.00950290006585,234.00950290006585,234.00950290006585,234.00950290006585,234.00950290006585,234.00950290006585,234.00950290006585,234.00950290006585,None,0,,,C:\2023\REPSWITCH21092023\REPSWITCH_excgange\REPSWITCH_excgange\data/170101_REPSWITCH1_version1_list1_2023-11-30_09h21.36.102_micRespv1l1_recorded\recording_micRespv1l1_2023-11-30_09h25.24.968.wav,237.03073120000772,237.53085920005105,None,237.03073120000772,237.03073120000772,237.03073120000772,237.03073120000772,237.03073120000772,237.03073120000772,,,,,,170101,001,2023-11-30_09h21.36.102,REPSWITCH1_version1_list1,2022.2.4,143.94578427597676,
REPSWITCH1/PICTURE_590.png,escoba,type,darkblue,filler,1,F,2,1,1,1,Extra3,0,None,48,47,48,0,47,47,47,,,,,,,,,,,,,,,,,,,,,,,237.53085920005105,238.63511859998107,238.63511859998107,238.63511859998107,238.63511859998107,238.63511859998107,238.63511859998107,238.63511859998107,238.63511859998107,"['e', 'c', 'backspace', 's', 'c', 'o', 'b', 'a']",0,"[1.068764999974519, 1.4020891000982374, 1.798080800101161, 1.9897841000929475, 2.2166802000720054, 2.3412961000576615, 2.5690810000523925, 2.639760500052944]",escoba,C:\2023\REPSWITCH21092023\REPSWITCH_excgange\REPSWITCH_excgange\data/170101_REPSWITCH1_version1_list1_2023-11-30_09h21.36.102_micRespv1l1_recorded\recording_micRespv1l1_2023-11-30_09h25.29.594.wav,241.65634380001575,242.15647990000434,None,241.65634380001575,241.65634380001575,241.65634380001575,241.65634380001575,241.65634380001575,241.65634380001575,,,,,,170101,001,2023-11-30_09h21.36.102,REPSWITCH1_version1_list1,2022.2.4,143.94578427597676,
REPSWITCH1/PICTURE_169.png,espalda,speak,gold,filler,2,F,2,1,1,1,Stim8_Set1,0,None,49,48,49,0,48,48,48,,,,,,,,,,,,,,,,,,,,,,,242.15647990000434,243.19828279991634,243.19828279991634,243.19828279991634,243.19828279991634,243.19828279991634,243.19828279991634,243.19828279991634,243.19828279991634,None,0,,,C:\2023\REPSWITCH21092023\REPSWITCH_excgange\REPSWITCH_excgange\data/170101_REPSWITCH1_version1_list1_2023-11-30_09h21.36.102_micRespv1l1_recorded\recording_micRespv1l1_2023-11-30_09h25.34.157.wav,246.2194135999307,246.71951159997843,None,246.2194135999307,246.2194135999307,246.2194135999307,246.2194135999307,246.2194135999307,246.2194135999307,,,,,,170101,001,2023-11-30_09h21.36.102,REPSWITCH1_version1_list1,2022.2.4,143.94578427597676,
REPSWITCH1/PICTURE_199.png,falda,speak,gold,nontarget,2,NT,2,1,1,1,Stim8_Set2,1,repeat,50,49,50,0,49,49,49,,,,,,,,,,,,,,,,,,,,,,,246.71951159997843,247.84471890004352,247.84471890004352,247.84471890004352,247.84471890004352,247.84471890004352,247.84471890004352,247.84471890004352,247.84471890004352,None,0,,,C:\2023\REPSWITCH21092023\REPSWITCH_excgange\REPSWITCH_excgange\data/170101_REPSWITCH1_version1_list1_2023-11-30_09h21.36.102_micRespv1l1_recorded\recording_micRespv1l1_2023-11-30_09h25.38.803.wav,250.86585119995289,251.36593379988335,None,250.86585119995289,250.86585119995289,250.86585119995289,250.86585119995289,250.86585119995289,250.86585119995289,,,,,,170101,001,2023-11-30_09h21.36.102,REPSWITCH1_version1_list1,2022.2.4,143.94578427597676,
REPSWITCH1/PICTURE_199.png,falda,type,darkblue,switch,1,T,2,1,1,1,Stim8_Set2,0,None,51,50,51,0,50,50,50,,,,,,,,,,,,,,,,,,,,,,,251.36593379988335,252.56748399999924,252.56748399999924,252.56748399999924,252.56748399999924,252.56748399999924,252.56748399999924,252.56748399999924,252.56748399999924,"['f', 'a', 'l', 'd', 'a']",0,"[1.0934735001064837, 1.3182808000128716, 1.4097718000411987, 1.5505148000083864, 1.752975600073114]",falda,C:\2023\REPSWITCH21092023\REPSWITCH_excgange\REPSWITCH_excgange\data/170101_REPSWITCH1_version1_list1_2023-11-30_09h21.36.102_micRespv1l1_recorded\recording_micRespv1l1_2023-11-30_09h25.43.526.wav,255.58872050000355,256.08877360005863,space,255.58872050000355,255.58872050000355,255.58872050000355,255.58872050000355,255.58872050000355,255.58872050000355,256.08877360005863,256.08877360005863,2.3657847999129444,,,170101,001,2023-11-30_09h21.36.102,REPSWITCH1_version1_list1,2022.2.4,143.94578427597676,
REPSWITCH1/PICTURE_576.png,guante,type,darkblue,nontarget,1,NT,3,1,1,1,Stim1_Set3,0,None,52,51,52,0,51,51,51,,,,,,,,,,,,,,,,,,,,,,,258.46412279992364,259.5823979000561,259.5823979000561,259.5823979000561,259.5823979000561,259.5823979000561,259.5823979000561,259.5823979000561,259.5823979000561,"['g', 'u', 'a', 'n', 't', 'e']",0,"[1.1845828001387417, 1.3211352999787778, 1.4108064000029117, 2.182457600021735, 2.2621901999227703, 2.444552000146359]",guante,C:\2023\REPSWITCH21092023\REPSWITCH_excgange\REPSWITCH_excgange\data/170101_REPSWITCH1_version1_list1_2023-11-30_09h21.36.102_micRespv1l1_recorded\recording_micRespv1l1_2023-11-30_09h25.50.541.wav,262.603528900072,263.10361690004356,None,262.603528900072,262.603528900072,262.603528900072,262.603528900072,262.603528900072,262.603528900072,,,,,,170101,001,2023-11-30_09h21.36.102,REPSWITCH1_version1_list1,2022.2.4,143.94578427597676,
REPSWITCH1/PICTURE_576.png,guante,speak,gold,switch,2,T,3,1,1,1,Stim1_Set3,0,None,53,52,53,0,52,52,52,,,,,,,,,,,,,,,,,,,,,,,263.10361690004356,264.3121074999217,264.3121074999217,264.3121074999217,264.3121074999217,264.3121074999217,264.3121074999217,264.3121074999217,264.3121074999217,None,0,,,C:\2023\REPSWITCH21092023\REPSWITCH_excgange\REPSWITCH_excgange\data/170101_REPSWITCH1_version1_list1_2023-11-30_09h21.36.102_micRespv1l1_recorded\recording_micRespv1l1_2023-11-30_09h25.55.272.wav,267.3403403998818,267.84034239989705,None,267.3403403998818,267.3403403998818,267.3403403998818,267.3403403998818,267.3403403998818,267.3403403998818,,,,,,170101,001,2023-11-30_09h21.36.102,REPSWITCH1_version1_list1,2022.2.4,143.94578427597676,
REPSWITCH1/PICTURE_646.png,tronco,speak,gold,filler,2,F,3,1,1,1,Extra4,0,None,54,53,54,0,53,53,53,,,,,,,,,,,,,,,,,,,,,,,267.84034239989705,269.0002718998585,269.0002718998585,269.0002718998585,269.0002718998585,269.0002718998585,269.0002718998585,269.0002718998585,269.0002718998585,None,0,,,C:\2023\REPSWITCH21092023\REPSWITCH_excgange\REPSWITCH_excgange\data/170101_REPSWITCH1_version1_list1_2023-11-30_09h21.36.102_micRespv1l1_recorded\recording_micRespv1l1_2023-11-30_09h25.59.960.wav,272.02143820002675,272.52150160004385,None,272.02143820002675,272.02143820002675,272.02143820002675,272.02143820002675,272.02143820002675,272.02143820002675,,,,,,170101,001,2023-11-30_09h21.36.102,REPSWITCH1_version1_list1,2022.2.4,143.94578427597676,
REPSWITCH1/PICTURE_610.png,miel,speak,gold,nontarget,2,NT,3,1,1,1,Stim2_Set3,1,repeat,55,54,55,0,54,54,54,,,,,,,,,,,,,,,,,,,,,,,272.52150160004385,273.56337039987557,273.56337039987557,273.56337039987557,273.56337039987557,273.56337039987557,273.56337039987557,273.56337039987557,273.56337039987557,None,0,,,C:\2023\REPSWITCH21092023\REPSWITCH_excgange\REPSWITCH_excgange\data/170101_REPSWITCH1_version1_list1_2023-11-30_09h21.36.102_micRespv1l1_recorded\recording_micRespv1l1_2023-11-30_09h26.04.523.wav,276.5914823000785,,None,276.5914823000785,276.5914823000785,276.5914823000785,276.5914823000785,276.5914823000785,276.5914823000785,,,,,,170101,001,2023-11-30_09h21.36.102,REPSWITCH1_version1_list1,2022.2.4,143.94578427597676,
REPSWITCH1/PICTURE_610.png,miel,type,darkblue,switch,1,T,3,1,1,1,Stim2_Set3,0,None,56,55,56,0,55,55,55,,,,,,,,,,,,,,,,,,,,,,,277.0915498000104,278.22371180006303,278.22371180006303,278.22371180006303,278.22371180006303,278.22371180006303,278.22371180006303,278.22371180006303,278.22371180006303,"['m', 'i', 'e', 'l']",0,"[1.0284985997714102, 1.2079202998429537, 1.3567720998544246, 1.4593392999377102]",miel,C:\2023\REPSWITCH21092023\REPSWITCH_excgange\REPSWITCH_excgange\data/170101_REPSWITCH1_version1_list1_2023-11-30_09h21.36.102_micRespv1l1_recorded\recording_micRespv1l1_2023-11-30_09h26.09.183.wav,281.25186269986443,,None,281.25186269986443,281.25186269986443,281.25186269986443,281.25186269986443,281.25186269986443,281.25186269986443,,,,,,170101,001,2023-11-30_09h21.36.102,REPSWITCH1_version1_list1,2022.2.4,143.94578427597676,
REPSWITCH1/PICTURE_175.png,pintor,type,darkblue,filler,1,F,3,1,1,1,Stim1_Set2,1,repeat,57,56,57,0,56,56,56,,,,,,,,,,,,,,,,,,,,,,,281.7518624998629,282.9117866999004,282.9117866999004,282.9117866999004,282.9117866999004,282.9117866999004,282.9117866999004,282.9117866999004,282.9117866999004,"['p', 'i', 'n', 't', 'o', 'r']",0,"[0.8829796998761594, 1.1024453998543322, 1.2628945999313146, 1.3426313998643309, 1.4646876999177039, 1.5530085999052972]",pintor,C:\2023\REPSWITCH21092023\REPSWITCH_excgange\REPSWITCH_excgange\data/170101_REPSWITCH1_version1_list1_2023-11-30_09h21.36.102_micRespv1l1_recorded\recording_micRespv1l1_2023-11-30_09h26.13.871.wav,285.93304049992,286.4330470999703,None,285.93304049992,285.93304049992,285.93304049992,285.93304049992,285.93304049992,285.93304049992,,,,,,170101,001,2023-11-30_09h21.36.102,REPSWITCH1_version1_list1,2022.2.4,143.94578427597676,
REPSWITCH1/PICTURE_242.png,cartero,type,darkblue,nontarget,1,NT,3,1,1,1,Stim3_Set3,1,repeat,58,57,58,0,57,57,57,,,,,,,,,,,,,,,,,,,,,,,286.4330470999703,287.4818764999509,287.4818764999509,287.4818764999509,287.4818764999509,287.4818764999509,287.4818764999509,287.4818764999509,287.4818764999509,"['c', 'a', 'r', 't', 'e', 'r', 'o']",0,"[1.074453900102526, 1.2847384999040514, 1.4853004000615329, 1.6536952001042664, 1.8333385998848826, 1.9679332999512553, 2.0108586999122053]",cartero,C:\2023\REPSWITCH21092023\REPSWITCH_excgange\REPSWITCH_excgange\data/170101_REPSWITCH1_version1_list1_2023-11-30_09h21.36.102_micRespv1l1_recorded\recording_micRespv1l1_2023-11-30_09h26.18.441.wav,290.503043100005,291.00310069997795,None,290.503043100005,290.503043100005,290.503043100005,290.503043100005,290.503043100005,290.503043100005,,,,,,170101,001,2023-11-30_09h21.36.102,REPSWITCH1_version1_list1,2022.2.4,143.94578427597676,
REPSWITCH1/PICTURE_242.png,cartero,speak,gold,switch,2,T,3,1,1,1,Stim3_Set3,0,None,59,58,59,0,58,58,58,,,,,,,,,,,,,,,,,,,,,,,291.00310069997795,292.1838406000752,292.1838406000752,292.1838406000752,292.1838406000752,292.1838406000752,292.1838406000752,292.1838406000752,292.1838406000752,None,0,,,C:\2023\REPSWITCH21092023\REPSWITCH_excgange\REPSWITCH_excgange\data/170101_REPSWITCH1_version1_list1_2023-11-30_09h21.36.102_micRespv1l1_recorded\recording_micRespv1l1_2023-11-30_09h26.23.143.wav,295.2120002999436,,None,295.2120002999436,295.2120002999436,295.2120002999436,295.2120002999436,295.2120002999436,295.2120002999436,,,,,,170101,001,2023-11-30_09h21.36.102,REPSWITCH1_version1_list1,2022.2.4,143.94578427597676,
REPSWITCH1/PICTURE_152.png,caracol,speak,gold,filler,2,F,3,1,1,1,Stim2_Set2,0,None,60,59,60,0,59,59,59,,,,,,,,,,,,,,,,,,,,,,,295.7120554000139,296.76773529988714,296.76773529988714,296.76773529988714,296.76773529988714,296.76773529988714,296.76773529988714,296.76773529988714,296.76773529988714,None,0,,,C:\2023\REPSWITCH21092023\REPSWITCH_excgange\REPSWITCH_excgange\data/170101_REPSWITCH1_version1_list1_2023-11-30_09h21.36.102_micRespv1l1_recorded\recording_micRespv1l1_2023-11-30_09h26.27.727.wav,299.7890556000639,300.28910549986176,None,299.7890556000639,299.7890556000639,299.7890556000639,299.7890556000639,299.7890556000639,299.7890556000639,,,,,,170101,001,2023-11-30_09h21.36.102,REPSWITCH1_version1_list1,2022.2.4,143.94578427597676,
REPSWITCH1/PICTURE_517.png,cuerda,type,darkblue,filler,1,F,3,1,1,1,Stim4_Set2,0,None,61,60,61,0,60,60,60,,,,,,,,,,,,,,,,,,,,,,,300.28910549986176,301.49060090002604,301.49060090002604,301.49060090002604,301.49060090002604,301.49060090002604,301.49060090002604,301.49060090002604,301.49060090002604,"['c', 'u', 'e', 'r', 'd', 'a']",0,"[1.1179339999798685, 1.2544921999797225, 1.3282257001847029, 1.4956623001489788, 1.6651763999834657, 1.8671585000120103]",cuerda,C:\2023\REPSWITCH21092023\REPSWITCH_excgange\REPSWITCH_excgange\data/170101_REPSWITCH1_version1_list1_2023-11-30_09h21.36.102_micRespv1l1_recorded\recording_micRespv1l1_2023-11-30_09h26.32.450.wav,304.5117981999647,305.0118750000838,None,304.5117981999647,304.5117981999647,304.5117981999647,304.5117981999647,304.5117981999647,304.5117981999647,,,,,,170101,001,2023-11-30_09h21.36.102,REPSWITCH1_version1_list1,2022.2.4,143.94578427597676,
REPSWITCH1/PICTURE_235.png,aguja,speak,gold,nontarget,2,NT,3,1,1,1,Stim4_Set3,1,switch,62,61,62,0,61,61,61,,,,,,,,,,,,,,,,,,,,,,,305.0118750000838,306.03980719996616,306.03980719996616,306.03980719996616,306.03980719996616,306.03980719996616,306.03980719996616,306.03980719996616,306.03980719996616,None,0,,,C:\2023\REPSWITCH21092023\REPSWITCH_excgange\REPSWITCH_excgange\data/170101_REPSWITCH1_version1_list1_2023-11-30_09h21.36.102_micRespv1l1_recorded\recording_micRespv1l1_2023-11-30_09h26.36.999.wav,309.0680557000451,,None,309.0680557000451,309.0680557000451,309.0680557000451,309.0680557000451,309.0680557000451,309.0680557000451,,,,,,170101,001,2023-11-30_09h21.36.102,REPSWITCH1_version1_list1,2022.2.4,143.94578427597676,
REPSWITCH1/PICTURE_235.png,aguja,speak,gold,repeat,2,T,3,1,1,1,Stim4_Set3,0,None,63,62,63,0,62,62,62,,,,,,,,,,,,,,,,,,,,,,,309.5680376000237,310.6792842000723,310.6792842000723,310.6792842000723,310.6792842000723,310.6792842000723,310.6792842000723,310.6792842000723,310.6792842000723,None,0,,,C:\2023\REPSWITCH21092023\REPSWITCH_excgange\REPSWITCH_excgange\data/170101_REPSWITCH1_version1_list1_2023-11-30_09h21.36.102_micRespv1l1_recorded\recording_micRespv1l1_2023-11-30_09h26.41.638.wav,313.70051639992744,314.20059169991873,None,313.70051639992744,313.70051639992744,313.70051639992744,313.70051639992744,313.70051639992744,313.70051639992744,,,,,,170101,001,2023-11-30_09h21.36.102,REPSWITCH1_version1_list1,2022.2.4,143.94578427597676,
REPSWITCH1/PICTURE_30.png,granja,type,darkblue,filler,1,F,3,1,1,1,Stim5_Set2,0,None,64,63,64,0,63,63,63,,,,,,,,,,,,,,,,,,,,,,,314.20059169991873,315.22153900004923,315.22153900004923,315.22153900004923,315.22153900004923,315.22153900004923,315.22153900004923,315.22153900004923,315.22153900004923,"['g', 'r', 'a', 'n', 'j', 'a']",0,"[1.3193372001405805, 1.4882354999426752, 1.7105280000250787, 1.8131576001178473, 1.9709322000853717, 2.0016072001308203]",granja,C:\2023\REPSWITCH21092023\REPSWITCH_excgange\REPSWITCH_excgange\data/170101_REPSWITCH1_version1_list1_2023-11-30_09h21.36.102_micRespv1l1_recorded\recording_micRespv1l1_2023-11-30_09h26.46.180.wav,318.24279249995016,318.7428282999899,None,318.24279249995016,318.24279249995016,318.24279249995016,318.24279249995016,318.24279249995016,318.24279249995016,,,,,,170101,001,2023-11-30_09h21.36.102,REPSWITCH1_version1_list1,2022.2.4,143.94578427597676,
REPSWITCH1/PICTURE_552.png,manzana,speak,gold,filler,2,F,3,1,1,1,Stim6_Set2,1,switch,65,64,65,0,64,64,64,,,,,,,,,,,,,,,,,,,,,,,318.7428282999899,319.8124289000407,319.8124289000407,319.8124289000407,319.8124289000407,319.8124289000407,319.8124289000407,319.8124289000407,319.8124289000407,None,0,,,C:\2023\REPSWITCH21092023\REPSWITCH_excgange\REPSWITCH_excgange\data/170101_REPSWITCH1_version1_list1_2023-11-30_09h21.36.102_micRespv1l1_recorded\recording_micRespv1l1_2023-11-30_09h26.50.772.wav,322.84059630008414,,None,322.84059630008414,322.84059630008414,322.84059630008414,322.84059630008414,322.84059630008414,322.84059630008414,,,,,,170101,001,2023-11-30_09h21.36.102,REPSWITCH1_version1_list1,2022.2.4,143.94578427597676,
REPSWITCH1/PICTURE_35.png,oreja,speak,gold,nontarget,2,NT,3,1,1,1,Stim5_Set3,1,repeat,66,65,66,0,65,65,65,,,,,,,,,,,,,,,,,,,,,,,323.3406809999142,324.47970999986865,324.47970999986865,324.47970999986865,324.47970999986865,324.47970999986865,324.47970999986865,324.47970999986865,324.47970999986865,None,0,,,C:\2023\REPSWITCH21092023\REPSWITCH_excgange\REPSWITCH_excgange\data/170101_REPSWITCH1_version1_list1_2023-11-30_09h21.36.102_micRespv1l1_recorded\recording_micRespv1l1_2023-11-30_09h26.55.439.wav,327.50792800006457,,None,327.50792800006457,327.50792800006457,327.50792800006457,327.50792800006457,327.50792800006457,327.50792800006457,,,,,,170101,001,2023-11-30_09h21.36.102,REPSWITCH1_version1_list1,2022.2.4,143.94578427597676,
REPSWITCH1/PICTURE_35.png,oreja,speak,gold,repeat,2,T,3,1,1,1,Stim5_Set3,0,None,67,66,67,0,66,66,66,,,,,,,,,,,,,,,,,,,,,,,328.0079321998637,329.049826500006,329.049826500006,329.049826500006,329.049826500006,329.049826500006,329.049826500006,329.049826500006,329.049826500006,None,0,,,C:\2023\REPSWITCH21092023\REPSWITCH_excgange\REPSWITCH_excgange\data/170101_REPSWITCH1_version1_list1_2023-11-30_09h21.36.102_micRespv1l1_recorded\recording_micRespv1l1_2023-11-30_09h27.00.009.wav,332.07791140000336,,None,332.07791140000336,332.07791140000336,332.07791140000336,332.07791140000336,332.07791140000336,332.07791140000336,,,,,,170101,001,2023-11-30_09h21.36.102,REPSWITCH1_version1_list1,2022.2.4,143.94578427597676,
REPSWITCH1/PICTURE_673.png,tenedor,type,darkblue,filler,1,F,3,1,1,1,Extra5,0,None,68,67,68,0,67,67,67,,,,,,,,,,,,,,,,,,,,,,,332.5780032998882,333.61980409990065,333.61980409990065,333.61980409990065,333.61980409990065,333.61980409990065,333.61980409990065,333.61980409990065,333.61980409990065,"['t', 'e', 'n', 'e', 'd', 'o', 'r']",0,"[0.9322003000415862, 1.6542112999595702, 1.7538624999579042, 1.8399968999437988, 2.001970599871129, 2.0727683000732213, 2.1813952999655157]",tenedor,C:\2023\REPSWITCH21092023\REPSWITCH_excgange\REPSWITCH_excgange\data/170101_REPSWITCH1_version1_list1_2023-11-30_09h21.36.102_micRespv1l1_recorded\recording_micRespv1l1_2023-11-30_09h27.04.579.wav,336.6410812998656,337.1411716998555,None,336.6410812998656,336.6410812998656,336.6410812998656,336.6410812998656,336.6410812998656,336.6410812998656,,,,,,170101,001,2023-11-30_09h21.36.102,REPSWITCH1_version1_list1,2022.2.4,143.94578427597676,
REPSWITCH1/PICTURE_464.png,goma,speak,gold,nontarget,2,NT,3,1,1,1,Stim6_Set3,0,None,69,68,69,0,68,68,68,,,,,,,,,,,,,,,,,,,,,,,337.1411716998555,338.31484970008023,338.31484970008023,338.31484970008023,338.31484970008023,338.31484970008023,338.31484970008023,338.31484970008023,338.31484970008023,None,0,,,C:\2023\REPSWITCH21092023\REPSWITCH_excgange\REPSWITCH_excgange\data/170101_REPSWITCH1_version1_list1_2023-11-30_09h21.36.102_micRespv1l1_recorded\recording_micRespv1l1_2023-11-30_09h27.09.274.wav,341.3430347000249,,None,341.3430347000249,341.3430347000249,341.3430347000249,341.3430347000249,341.3430347000249,341.3430347000249,,,,,,170101,001,2023-11-30_09h21.36.102,REPSWITCH1_version1_list1,2022.2.4,143.94578427597676,
REPSWITCH1/PICTURE_464.png,goma,type,darkblue,switch,1,T,3,1,1,1,Stim6_Set3,0,None,70,69,70,0,69,69,69,,,,,,,,,,,,,,,,,,,,,,,341.8430947999004,342.8779434999451,342.8779434999451,342.8779434999451,342.8779434999451,342.8779434999451,342.8779434999451,342.8779434999451,342.8779434999451,"['g', 'o', 'm', 'a']",0,"[0.9595200000330806, 1.031268399907276, 1.2176473999861628, 1.319306500023231]",goma,C:\2023\REPSWITCH21092023\REPSWITCH_excgange\REPSWITCH_excgange\data/170101_REPSWITCH1_version1_list1_2023-11-30_09h21.36.102_micRespv1l1_recorded\recording_micRespv1l1_2023-11-30_09h27.13.837.wav,345.90614530001767,346.40620690002106,None,345.90614530001767,345.90614530001767,345.90614530001767,345.90614530001767,345.90614530001767,345.90614530001767,,,,,,170101,001,2023-11-30_09h21.36.102,REPSWITCH1_version1_list1,2022.2.4,143.94578427597676,
REPSWITCH1/PICTURE_264.png,mano,speak,gold,filler,2,F,3,1,1,1,Stim3_Set2,0,None,71,70,71,0,70,70,70,,,,,,,,,,,,,,,,,,,,,,,346.40620690002106,347.489694399992,347.489694399992,347.489694399992,347.489694399992,347.489694399992,347.489694399992,347.489694399992,347.489694399992,None,0,,,C:\2023\REPSWITCH21092023\REPSWITCH_excgange\REPSWITCH_excgange\data/170101_REPSWITCH1_version1_list1_2023-11-30_09h21.36.102_micRespv1l1_recorded\recording_micRespv1l1_2023-11-30_09h27.18.450.wav,350.51789000001736,,None,350.51789000001736,350.51789000001736,350.51789000001736,350.51789000001736,350.51789000001736,350.51789000001736,,,,,,170101,001,2023-11-30_09h21.36.102,REPSWITCH1_version1_list1,2022.2.4,143.94578427597676,
REPSWITCH1/PICTURE_271.png,conejo,type,darkblue,nontarget,1,NT,3,1,1,1,Stim7_Set3,1,switch,72,71,72,0,71,71,71,,,,,,,,,,,,,,,,,,,,,,,351.0178980000783,352.0875776000321,352.0875776000321,352.0875776000321,352.0875776000321,352.0875776000321,352.0875776000321,352.0875776000321,352.0875776000321,"['c', 'o', 'n', 'e', 'j', 'o']",0,"[1.0630306999664754, 1.143758999882266, 1.3250813998747617, 1.427762100007385, 1.517465699929744, 1.7173913998994976]",conejo,C:\2023\REPSWITCH21092023\REPSWITCH_excgange\REPSWITCH_excgange\data/170101_REPSWITCH1_version1_list1_2023-11-30_09h21.36.102_micRespv1l1_recorded\recording_micRespv1l1_2023-11-30_09h27.23.046.wav,355.10871770000085,355.6087785998825,None,355.10871770000085,355.10871770000085,355.10871770000085,355.10871770000085,355.10871770000085,355.10871770000085,,,,,,170101,001,2023-11-30_09h21.36.102,REPSWITCH1_version1_list1,2022.2.4,143.94578427597676,
REPSWITCH1/PICTURE_271.png,conejo,type,darkblue,repeat,1,T,3,1,1,1,Stim7_Set3,0,None,73,72,73,0,72,72,72,,,,,,,,,,,,,,,,,,,,,,,355.6087785998825,356.68540959991515,356.68540959991515,356.68540959991515,356.68540959991515,356.68540959991515,356.68540959991515,356.68540959991515,356.68540959991515,"['c', 'o', 'n', 'e', 'j', 'o']",0,"[0.9687387000303715, 1.0463654000777751, 1.2400032000150532, 1.3266665001865476, 1.4353447000030428, 1.6217197000514716]",conejo,C:\2023\REPSWITCH21092023\REPSWITCH_excgange\REPSWITCH_excgange\data/170101_REPSWITCH1_version1_list1_2023-11-30_09h21.36.102_micRespv1l1_recorded\recording_micRespv1l1_2023-11-30_09h27.27.645.wav,359.71358179999515,,None,359.71358179999515,359.71358179999515,359.71358179999515,359.71358179999515,359.71358179999515,359.71358179999515,,,,,,170101,001,2023-11-30_09h21.36.102,REPSWITCH1_version1_list1,2022.2.4,143.94578427597676,
REPSWITCH1/PICTURE_446.png,cerdo,speak,gold,filler,2,F,3,1,1,1,Stim7_Set2,0,None,74,73,74,0,73,73,73,,,,,,,,,,,,,,,,,,,,,,,360.2135765000712,361.269246699987,361.269246699987,361.269246699987,361.269246699987,361.269246699987,361.269246699987,361.269246699987,361.269246699987,None,0,,,C:\2023\REPSWITCH21092023\REPSWITCH_excgange\REPSWITCH_excgange\data/170101_REPSWITCH1_version1_list1_2023-11-30_09h21.36.102_micRespv1l1_recorded\recording_micRespv1l1_2023-11-30_09h27.32.228.wav,364.2904898999259,364.790572399972,None,364.2904898999259,364.2904898999259,364.2904898999259,364.2904898999259,364.2904898999259,364.2904898999259,,,,,,170101,001,2023-11-30_09h21.36.102,REPSWITCH1_version1_list1,2022.2.4,143.94578427597676,
REPSWITCH1/PICTURE_199.png,falda,type,darkblue,filler,1,F,3,1,1,1,Stim8_Set2,1,switch,75,74,75,0,74,74,74,,,,,,,,,,,,,,,,,,,,,,,364.790572399972,365.86708540003747,365.86708540003747,365.86708540003747,365.86708540003747,365.86708540003747,365.86708540003747,365.86708540003747,365.86708540003747,"['f', 'a', 'l', 'd', 'a']",0,"[1.0756552000530064, 1.2989969998598099, 1.376458500046283, 1.5265814999584109, 1.7402367000468075]",falda,C:\2023\REPSWITCH21092023\REPSWITCH_excgange\REPSWITCH_excgange\data/170101_REPSWITCH1_version1_list1_2023-11-30_09h21.36.102_micRespv1l1_recorded\recording_micRespv1l1_2023-11-30_09h27.36.825.wav,368.8883960999083,369.38845829991624,None,368.8883960999083,368.8883960999083,368.8883960999083,368.8883960999083,368.8883960999083,368.8883960999083,,,,,,170101,001,2023-11-30_09h21.36.102,REPSWITCH1_version1_list1,2022.2.4,143.94578427597676,
REPSWITCH1/PICTURE_320.png,iglesia,type,darkblue,nontarget,1,NT,3,1,1,1,Stim8_Set3,1,repeat,76,75,76,0,75,75,75,,,,,,,,,,,,,,,,,,,,,,,369.38845829991624,370.5135295998771,370.5135295998771,370.5135295998771,370.5135295998771,370.5135295998771,370.5135295998771,370.5135295998771,370.5135295998771,"['i', 'g', 'l', 'e', 's', 'i', 'a']",0,"[1.2470524001400918, 1.374680900014937, 1.5259281999897212, 1.602538000093773, 1.7764692001510412, 1.8851042999885976, 1.955219800118357]",iglesia,C:\2023\REPSWITCH21092023\REPSWITCH_excgange\REPSWITCH_excgange\data/170101_REPSWITCH1_version1_list1_2023-11-30_09h21.36.102_micRespv1l1_recorded\recording_micRespv1l1_2023-11-30_09h27.41.472.wav,373.5416858000681,,None,373.5416858000681,373.5416858000681,373.5416858000681,373.5416858000681,373.5416858000681,373.5416858000681,,,,,,170101,001,2023-11-30_09h21.36.102,REPSWITCH1_version1_list1,2022.2.4,143.94578427597676,
REPSWITCH1/PICTURE_320.png,iglesia,type,darkblue,repeat,1,T,3,1,1,1,Stim8_Set3,0,None,77,76,77,0,76,76,76,,,,,,,,,,,,,,,,,,,,,,,374.0417545000091,375.19476750004105,375.19476750004105,375.19476750004105,375.19476750004105,375.19476750004105,375.19476750004105,375.19476750004105,375.19476750004105,"['g', 'backspace', 'i', 'g', 'l', 'e', 's', 'i', 'a']",0,"[0.9143566000275314, 1.5357003000099212, 1.8047124999575317, 1.9064146999735385, 2.0478996001183987, 2.1376281999982893, 2.2863623001612723, 2.3976201999466866, 2.448440399952233]",iglesia,C:\2023\REPSWITCH21092023\REPSWITCH_excgange\REPSWITCH_excgange\data/170101_REPSWITCH1_version1_list1_2023-11-30_09h21.36.102_micRespv1l1_recorded\recording_micRespv1l1_2023-11-30_09h27.46.154.wav,378.22285709995776,,None,378.22285709995776,378.22285709995776,378.22285709995776,378.22285709995776,378.22285709995776,378.22285709995776,,,,,,170101,001,2023-11-30_09h21.36.102,REPSWITCH1_version1_list1,2022.2.4,143.94578427597676,
REPSWITCH1/PICTURE_576.png,guante,speak,gold,filler,2,F,4,1,1,1,Stim1_Set3,0,None,78,77,78,0,77,77,77,,,,,,,,,,,,,,,,,,,,,,,378.7229412999004,379.7648159998935,379.7648159998935,379.7648159998935,379.7648159998935,379.7648159998935,379.7648159998935,379.7648159998935,379.7648159998935,None,0,,,C:\2023\REPSWITCH21092023\REPSWITCH_excgange\REPSWITCH_excgange\data/170101_REPSWITCH1_version1_list1_2023-11-30_09h21.36.102_micRespv1l1_recorded\recording_micRespv1l1_2023-11-30_09h27.50.724.wav,382.7859887999948,383.2860552999191,None,382.7859887999948,382.7859887999948,382.7859887999948,382.7859887999948,382.7859887999948,382.7859887999948,,,,,,170101,001,2023-11-30_09h21.36.102,REPSWITCH1_version1_list1,2022.2.4,143.94578427597676,
REPSWITCH1/PICTURE_319.png,vaca,type,darkblue,nontarget,1,NT,4,1,1,1,Stim1_Set4,1,switch,79,78,79,0,78,78,78,,,,,,,,,,,,,,,,,,,,,,,383.2860552999191,384.32090739998966,384.32090739998966,384.32090739998966,384.32090739998966,384.32090739998966,384.32090739998966,384.32090739998966,384.32090739998966,"['v', 'a', 'c', 'a']",0,"[1.0817640000022948, 1.1882106000557542, 1.2798982001841068, 1.359980700071901]",vaca,C:\2023\REPSWITCH21092023\REPSWITCH_excgange\REPSWITCH_excgange\data/170101_REPSWITCH1_version1_list1_2023-11-30_09h21.36.102_micRespv1l1_recorded\recording_micRespv1l1_2023-11-30_09h27.55.281.wav,387.34210749994963,387.84218919998966,None,387.34210749994963,387.34210749994963,387.34210749994963,387.34210749994963,387.34210749994963,387.34210749994963,,,,,,170101,001,2023-11-30_09h21.36.102,REPSWITCH1_version1_list1,2022.2.4,143.94578427597676,
REPSWITCH1/PICTURE_319.png,vaca,type,darkblue,repeat,1,T,4,1,1,1,Stim1_Set4,0,None,80,79,80,0,79,79,79,,,,,,,,,,,,,,,,,,,,,,,387.84218919998966,388.93268419988453,388.93268419988453,388.93268419988453,388.93268419988453,388.93268419988453,388.93268419988453,388.93268419988453,388.93268419988453,"['v', 'a', 'c', 'a']",0,"[0.9231694999616593, 1.0029992000199854, 1.1195411998778582, 1.191287999972701]",vaca,C:\2023\REPSWITCH21092023\REPSWITCH_excgange\REPSWITCH_excgange\data/170101_REPSWITCH1_version1_list1_2023-11-30_09h21.36.102_micRespv1l1_recorded\recording_micRespv1l1_2023-11-30_09h27.59.892.wav,391.96083980007097,,None,391.96083980007097,391.96083980007097,391.96083980007097,391.96083980007097,391.96083980007097,391.96083980007097,,,,,,170101,001,2023-11-30_09h21.36.102,REPSWITCH1_version1_list1,2022.2.4,143.94578427597676,
REPSWITCH1/PICTURE_719.png,baño,type,darkblue,nontarget,1,NT,4,1,1,1,Stim2_Set4,0,None,81,80,81,0,80,80,80,,,,,,,,,,,,,,,,,,,,,,,392.4608419998549,393.5305132998619,393.5305132998619,393.5305132998619,393.5305132998619,393.5305132998619,393.5305132998619,393.5305132998619,393.5305132998619,"['b', 'a', 'ñ', 'o']",0,"[1.0310990000143647, 1.1387678000610322, 1.4119126999285072, 1.5703485999256372]",baño,C:\2023\REPSWITCH21092023\REPSWITCH_excgange\REPSWITCH_excgange\data/170101_REPSWITCH1_version1_list1_2023-11-30_09h21.36.102_micRespv1l1_recorded\recording_micRespv1l1_2023-11-30_09h28.04.490.wav,396.55865469994023,,None,396.55865469994023,396.55865469994023,396.55865469994023,396.55865469994023,396.55865469994023,396.55865469994023,,,,,,170101,001,2023-11-30_09h21.36.102,REPSWITCH1_version1_list1,2022.2.4,143.94578427597676,
REPSWITCH1/PICTURE_719.png,baño,speak,gold,switch,2,T,4,1,1,1,Stim2_Set4,0,None,82,81,82,0,81,81,81,,,,,,,,,,,,,,,,,,,,,,,397.0586520000361,398.128298799973,398.128298799973,398.128298799973,398.128298799973,398.128298799973,398.128298799973,398.128298799973,398.128298799973,None,0,,,C:\2023\REPSWITCH21092023\REPSWITCH_excgange\REPSWITCH_excgange\data/170101_REPSWITCH1_version1_list1_2023-11-30_09h21.36.102_micRespv1l1_recorded\recording_micRespv1l1_2023-11-30_09h28.09.088.wav,401.1564555000514,,None,401.1564555000514,401.1564555000514,401.1564555000514,401.1564555000514,401.1564555000514,401.1564555000514,,,,,,170101,001,2023-11-30_09h21.36.102,REPSWITCH1_version1_list1,2022.2.4,143.94578427597676,
REPSWITCH1/PICTURE_242.png,cartero,speak,gold,filler,2,F,4,1,1,1,Stim3_Set3,1,repeat,83,82,83,0,82,82,82,,,,,,,,,,,,,,,,,,,,,,,401.65652050008066,402.7053201000672,402.7053201000672,402.7053201000672,402.7053201000672,402.7053201000672,402.7053201000672,402.7053201000672,402.7053201000672,None,0,,,C:\2023\REPSWITCH21092023\REPSWITCH_excgange\REPSWITCH_excgange\data/170101_REPSWITCH1_version1_list1_2023-11-30_09h21.36.102_micRespv1l1_recorded\recording_micRespv1l1_2023-11-30_09h28.13.664.wav,405.7264979998581,406.22655120003037,None,405.7264979998581,405.7264979998581,405.7264979998581,405.7264979998581,405.7264979998581,405.7264979998581,,,,,,170101,001,2023-11-30_09h21.36.102,REPSWITCH1_version1_list1,2022.2.4,143.94578427597676,
REPSWITCH1/PICTURE_610.png,miel,type,darkblue,filler,1,F,4,1,1,1,Stim2_Set3,0,None,84,83,84,0,83,83,83,,,,,,,,,,,,,,,,,,,,,,,406.22655120003037,407.2615062999539,407.2615062999539,407.2615062999539,407.2615062999539,407.2615062999539,407.2615062999539,407.2615062999539,407.2615062999539,"['i', 'backspace', 'm', 'i', 'e', 'l']",0,"[1.485129099804908, 2.0223542999010533, 2.2843954998534173, 2.4319091998040676, 2.539558299817145, 2.6203222000040114]",miel,C:\2023\REPSWITCH21092023\REPSWITCH_excgange\REPSWITCH_excgange\data/170101_REPSWITCH1_version1_list1_2023-11-30_09h21.36.102_micRespv1l1_recorded\recording_micRespv1l1_2023-11-30_09h28.18.221.wav,410.28264539991505,410.78268809989095,None,410.28264539991505,410.28264539991505,410.28264539991505,410.28264539991505,410.28264539991505,410.28264539991505,,,,,,170101,001,2023-11-30_09h21.36.102,REPSWITCH1_version1_list1,2022.2.4,143.94578427597676,
REPSWITCH1/PICTURE_8.png,pierna,speak,gold,nontarget,2,NT,4,1,1,1,Stim3_Set4,1,switch,85,84,85,0,84,84,84,,,,,,,,,,,,,,,,,,,,,,,410.78268809989095,411.89399169990793,411.89399169990793,411.89399169990793,411.89399169990793,411.89399169990793,411.89399169990793,411.89399169990793,411.89399169990793,None,0,,,C:\2023\REPSWITCH21092023\REPSWITCH_excgange\REPSWITCH_excgange\data/170101_REPSWITCH1_version1_list1_2023-11-30_09h21.36.102_micRespv1l1_recorded\recording_micRespv1l1_2023-11-30_09h28.22.853.wav,414.9221451000776,,None,414.9221451000776,414.9221451000776,414.9221451000776,414.9221451000776,414.9221451000776,414.9221451000776,,,,,,170101,001,2023-11-30_09h21.36.102,REPSWITCH1_version1_list1,2022.2.4,143.94578427597676,
REPSWITCH1/PICTURE_8.png,pierna,speak,gold,repeat,2,T,4,1,1,1,Stim3_Set4,0,None,86,85,86,0,85,85,85,,,,,,,,,,,,,,,,,,,,,,,415.42228389997035,416.57513449992985,416.57513449992985,416.57513449992985,416.57513449992985,416.57513449992985,416.57513449992985,416.57513449992985,416.57513449992985,None,0,,,C:\2023\REPSWITCH21092023\REPSWITCH_excgange\REPSWITCH_excgange\data/170101_REPSWITCH1_version1_list1_2023-11-30_09h21.36.102_micRespv1l1_recorded\recording_micRespv1l1_2023-11-30_09h28.27.533.wav,419.5963840999175,420.09643570007756,None,419.5963840999175,419.5963840999175,419.5963840999175,419.5963840999175,419.5963840999175,419.5963840999175,,,,,,170101,001,2023-11-30_09h21.36.102,REPSWITCH1_version1_list1,2022.2.4,143.94578427597676,
REPSWITCH1/PICTURE_498.png,taza,speak,gold,nontarget,2,NT,4,1,1,1,Stim4_Set4,1,repeat,87,86,87,0,86,86,86,,,,,,,,,,,,,,,,,,,,,,,420.09643570007756,421.1729520999361,421.1729520999361,421.1729520999361,421.1729520999361,421.1729520999361,421.1729520999361,421.1729520999361,421.1729520999361,None,0,,,C:\2023\REPSWITCH21092023\REPSWITCH_excgange\REPSWITCH_excgange\data/170101_REPSWITCH1_version1_list1_2023-11-30_09h21.36.102_micRespv1l1_recorded\recording_micRespv1l1_2023-11-30_09h28.32.131.wav,424.1942757999059,424.6942680000793,None,424.1942757999059,424.1942757999059,424.1942757999059,424.1942757999059,424.1942757999059,424.1942757999059,,,,,,170101,001,2023-11-30_09h21.36.102,REPSWITCH1_version1_list1,2022.2.4,143.94578427597676,
REPSWITCH1/PICTURE_498.png,taza,type,darkblue,switch,1,T,4,1,1,1,Stim4_Set4,0,None,88,87,88,0,87,87,87,,,,,,,,,,,,,,,,,,,,,,,424.6942680000793,425.9167210999876,425.9167210999876,425.9167210999876,425.9167210999876,425.9167210999876,425.9167210999876,425.9167210999876,425.9167210999876,"['t', 'a', 'z', 'a']",0,"[1.0073271999135613, 1.1169584000017494, 1.3013834999874234, 1.4262312999926507]",taza,C:\2023\REPSWITCH21092023\REPSWITCH_excgange\REPSWITCH_excgange\data/170101_REPSWITCH1_version1_list1_2023-11-30_09h21.36.102_micRespv1l1_recorded\recording_micRespv1l1_2023-11-30_09h28.36.876.wav,428.93785490002483,429.4380095999222,None,428.93785490002483,428.93785490002483,428.93785490002483,428.93785490002483,428.93785490002483,428.93785490002483,,,,,,170101,001,2023-11-30_09h21.36.102,REPSWITCH1_version1_list1,2022.2.4,143.94578427597676,
REPSWITCH1/PICTURE_235.png,aguja,speak,gold,filler,2,F,4,1,1,1,Stim4_Set3,0,None,89,88,89,0,88,88,88,,,,,,,,,,,,,,,,,,,,,,,429.4380095999222,430.6395634000655,430.6395634000655,430.6395634000655,430.6395634000655,430.6395634000655,430.6395634000655,430.6395634000655,430.6395634000655,None,0,,,C:\2023\REPSWITCH21092023\REPSWITCH_excgange\REPSWITCH_excgange\data/170101_REPSWITCH1_version1_list1_2023-11-30_09h21.36.102_micRespv1l1_recorded\recording_micRespv1l1_2023-11-30_09h28.41.599.wav,433.6676348000765,,None,433.6676348000765,433.6676348000765,433.6676348000765,433.6676348000765,433.6676348000765,433.6676348000765,,,,,,170101,001,2023-11-30_09h21.36.102,REPSWITCH1_version1_list1,2022.2.4,143.94578427597676,
REPSWITCH1/PICTURE_35.png,oreja,type,darkblue,filler,1,F,4,1,1,1,Stim5_Set3,0,None,90,89,90,0,89,89,89,,,,,,,,,,,,,,,,,,,,,,,434.1676912999246,435.24425200000405,435.24425200000405,435.24425200000405,435.24425200000405,435.24425200000405,435.24425200000405,435.24425200000405,435.24425200000405,"['o', 'r', 'e', 'j', 'a']",0,"[0.9620654000900686, 1.1265104000922292, 1.2932712000329047, 1.3765813999343663, 1.5091756000183523]",oreja,C:\2023\REPSWITCH21092023\REPSWITCH_excgange\REPSWITCH_excgange\data/170101_REPSWITCH1_version1_list1_2023-11-30_09h21.36.102_micRespv1l1_recorded\recording_micRespv1l1_2023-11-30_09h28.46.203.wav,438.2654881000053,438.7655541000422,None,438.2654881000053,438.2654881000053,438.2654881000053,438.2654881000053,438.2654881000053,438.2654881000053,,,,,,170101,001,2023-11-30_09h21.36.102,REPSWITCH1_version1_list1,2022.2.4,143.94578427597676,
REPSWITCH1/PICTURE_687.png,camisa,type,darkblue,nontarget,1,NT,4,1,1,1,Stim5_Set4,1,repeat,91,90,91,0,90,90,90,,,,,,,,,,,,,,,,,,,,,,,438.7655541000422,439.90461830003187,439.90461830003187,439.90461830003187,439.90461830003187,439.90461830003187,439.90461830003187,439.90461830003187,439.90461830003187,"['c', 'a', 'm', 'i', 's', 'a']",0,"[1.0757873998954892, 1.2780788999516517, 1.3568289000540972, 1.5086888000369072, 1.6118958999868482, 1.7956151999533176]",camisa,C:\2023\REPSWITCH21092023\REPSWITCH_excgange\REPSWITCH_excgange\data/170101_REPSWITCH1_version1_list1_2023-11-30_09h21.36.102_micRespv1l1_recorded\recording_micRespv1l1_2023-11-30_09h28.50.864.wav,442.9327406999655,,None,442.9327406999655,442.9327406999655,442.9327406999655,442.9327406999655,442.9327406999655,442.9327406999655,,,,,,170101,001,2023-11-30_09h21.36.102,REPSWITCH1_version1_list1,2022.2.4,143.94578427597676,
REPSWITCH1/PICTURE_687.png,camisa,speak,gold,switch,2,T,4,1,1,1,Stim5_Set4,0,None,92,91,92,0,91,91,91,,,,,,,,,,,,,,,,,,,,,,,443.4328121000435,444.48852410004474,444.48852410004474,444.48852410004474,444.48852410004474,444.48852410004474,444.48852410004474,444.48852410004474,444.48852410004474,None,0,,,C:\2023\REPSWITCH21092023\REPSWITCH_excgange\REPSWITCH_excgange\data/170101_REPSWITCH1_version1_list1_2023-11-30_09h21.36.102_micRespv1l1_recorded\recording_micRespv1l1_2023-11-30_09h28.55.447.wav,447.50973890000023,448.0097997998819,None,447.50973890000023,447.50973890000023,447.50973890000023,447.50973890000023,447.50973890000023,447.50973890000023,,,,,,170101,001,2023-11-30_09h21.36.102,REPSWITCH1_version1_list1,2022.2.4,143.94578427597676,
REPSWITCH1/PICTURE_338.png,regalo,speak,gold,nontarget,2,NT,4,1,1,1,Stim6_Set4,0,None,93,92,93,0,92,92,92,,,,,,,,,,,,,,,,,,,,,,,448.0097997998819,449.10718939988874,449.10718939988874,449.10718939988874,449.10718939988874,449.10718939988874,449.10718939988874,449.10718939988874,449.10718939988874,None,0,,,C:\2023\REPSWITCH21092023\REPSWITCH_excgange\REPSWITCH_excgange\data/170101_REPSWITCH1_version1_list1_2023-11-30_09h21.36.102_micRespv1l1_recorded\recording_micRespv1l1_2023-11-30_09h29.00.066.wav,452.12842800002545,452.6285591998603,None,452.12842800002545,452.12842800002545,452.12842800002545,452.12842800002545,452.12842800002545,452.12842800002545,,,,,,170101,001,2023-11-30_09h21.36.102,REPSWITCH1_version1_list1,2022.2.4,143.94578427597676,
REPSWITCH1/PICTURE_338.png,regalo,speak,gold,repeat,2,T,4,1,1,1,Stim6_Set4,0,None,94,93,94,0,93,93,93,,,,,,,,,,,,,,,,,,,,,,,452.6285591998603,453.66336770006455,453.66336770006455,453.66336770006455,453.66336770006455,453.66336770006455,453.66336770006455,453.66336770006455,453.66336770006455,None,0,,,C:\2023\REPSWITCH21092023\REPSWITCH_excgange\REPSWITCH_excgange\data/170101_REPSWITCH1_version1_list1_2023-11-30_09h21.36.102_micRespv1l1_recorded\recording_micRespv1l1_2023-11-30_09h29.04.622.wav,456.68453689990565,457.184625599999,None,456.68453689990565,456.68453689990565,456.68453689990565,456.68453689990565,456.68453689990565,456.68453689990565,,,,,,170101,001,2023-11-30_09h21.36.102,REPSWITCH1_version1_list1,2022.2.4,143.94578427597676,
REPSWITCH1/PICTURE_663.png,columna,type,darkblue,filler,1,F,4,1,1,1,Extra6,0,None,95,94,95,0,94,94,94,,,,,,,,,,,,,,,,,,,,,,,457.184625599999,458.2333941999823,458.2333941999823,458.2333941999823,458.2333941999823,458.2333941999823,458.2333941999823,458.2333941999823,458.2333941999823,"['c', 'o', 'l', 'u', 'm', 'n', 'a']",0,"[1.02706029987894, 1.1307046997826546, 1.3340268998872489, 1.5482818998862058, 1.729049599962309, 1.8877007998526096, 2.012723699910566]",columna,C:\2023\REPSWITCH21092023\REPSWITCH_excgange\REPSWITCH_excgange\data/170101_REPSWITCH1_version1_list1_2023-11-30_09h21.36.102_micRespv1l1_recorded\recording_micRespv1l1_2023-11-30_09h29.09.193.wav,461.25461740000173,461.7546608999837,None,461.25461740000173,461.25461740000173,461.25461740000173,461.25461740000173,461.25461740000173,461.25461740000173,,,,,,170101,001,2023-11-30_09h21.36.102,REPSWITCH1_version1_list1,2022.2.4,143.94578427597676,
REPSWITCH1/PICTURE_271.png,conejo,speak,gold,filler,2,F,4,1,1,1,Stim7_Set3,0,None,96,95,96,0,95,95,95,,,,,,,,,,,,,,,,,,,,,,,461.7546608999837,462.87981169996783,462.87981169996783,462.87981169996783,462.87981169996783,462.87981169996783,462.87981169996783,462.87981169996783,462.87981169996783,None,0,,,C:\2023\REPSWITCH21092023\REPSWITCH_excgange\REPSWITCH_excgange\data/170101_REPSWITCH1_version1_list1_2023-11-30_09h21.36.102_micRespv1l1_recorded\recording_micRespv1l1_2023-11-30_09h29.13.840.wav,465.9080787000712,,None,465.9080787000712,465.9080787000712,465.9080787000712,465.9080787000712,465.9080787000712,465.9080787000712,,,,,,170101,001,2023-11-30_09h21.36.102,REPSWITCH1_version1_list1,2022.2.4,143.94578427597676,
REPSWITCH1/PICTURE_48.png,bombero,speak,gold,nontarget,2,NT,4,1,1,1,Stim7_Set4,0,None,97,96,97,0,96,96,96,,,,,,,,,,,,,,,,,,,,,,,466.4080795000773,467.58183989999816,467.58183989999816,467.58183989999816,467.58183989999816,467.58183989999816,467.58183989999816,467.58183989999816,467.58183989999816,None,0,,,C:\2023\REPSWITCH21092023\REPSWITCH_excgange\REPSWITCH_excgange\data/170101_REPSWITCH1_version1_list1_2023-11-30_09h21.36.102_micRespv1l1_recorded\recording_micRespv1l1_2023-11-30_09h29.18.540.wav,470.60314680007286,471.10312839993276,None,470.60314680007286,470.60314680007286,470.60314680007286,470.60314680007286,470.60314680007286,470.60314680007286,,,,,,170101,001,2023-11-30_09h21.36.102,REPSWITCH1_version1_list1,2022.2.4,143.94578427597676,
REPSWITCH1/PICTURE_48.png,bombero,type,darkblue,switch,1,T,4,1,1,1,Stim7_Set4,0,None,98,97,98,0,97,97,97,,,,,,,,,,,,,,,,,,,,,,,471.10312839993276,472.22136819991283,472.22136819991283,472.22136819991283,472.22136819991283,472.22136819991283,472.22136819991283,472.22136819991283,472.22136819991283,"['b', 'o', 'm', 'b', 'e', 'r', 'o']",0,"[0.9925436999183148, 1.0499535999260843, 1.2502541998401284, 1.301053399918601, 1.5105725000612438, 1.6534212999977171, 1.7401757000479847]",bombero,C:\2023\REPSWITCH21092023\REPSWITCH_excgange\REPSWITCH_excgange\data/170101_REPSWITCH1_version1_list1_2023-11-30_09h21.36.102_micRespv1l1_recorded\recording_micRespv1l1_2023-11-30_09h29.23.181.wav,475.2495116000064,,None,475.2495116000064,475.2495116000064,475.2495116000064,475.2495116000064,475.2495116000064,475.2495116000064,,,,,,170101,001,2023-11-30_09h21.36.102,REPSWITCH1_version1_list1,2022.2.4,143.94578427597676,
REPSWITCH1/PICTURE_728.png,pulpo,type,darkblue,nontarget,1,NT,4,1,1,1,Stim8_Set4,0,None,99,98,99,0,98,98,98,,,,,,,,,,,,,,,,,,,,,,,475.7495424998924,476.8886221998837,476.8886221998837,476.8886221998837,476.8886221998837,476.8886221998837,476.8886221998837,476.8886221998837,476.8886221998837,"['p', 'u', 'k', 'p', 'o', 'backspace', 'backspace', 'backspace', 'backspace']",0,"[1.4407818000763655, 1.6803454998880625, 1.934691899921745, 2.128103799885139, 2.300475399941206, 2.524983200011775, 2.6705292998813093, 2.739288199925795, 2.864868599921465]",p,C:\2023\REPSWITCH21092023\REPSWITCH_excgange\REPSWITCH_excgange\data/170101_REPSWITCH1_version1_list1_2023-11-30_09h21.36.102_micRespv1l1_recorded\recording_micRespv1l1_2023-11-30_09h29.27.848.wav,479.9167668998707,,None,479.9167668998707,479.9167668998707,479.9167668998707,479.9167668998707,479.9167668998707,479.9167668998707,,,,,,170101,001,2023-11-30_09h21.36.102,REPSWITCH1_version1_list1,2022.2.4,143.94578427597676,
REPSWITCH1/PICTURE_728.png,pulpo,type,darkblue,repeat,1,T,4,1,1,1,Stim8_Set4,0,None,100,99,100,0,99,99,99,,,,,,,,,,,,,,,,,,,,,,,480.4168312000111,481.4656783998944,481.4656783998944,481.4656783998944,481.4656783998944,481.4656783998944,481.4656783998944,481.4656783998944,481.4656783998944,"['u', 'l', 'p', 'o', 'backspace', 'backspace', 'backspace', 'backspace', 'p']",0,"[1.119518600171432, 1.3536625001579523, 1.542268100194633, 1.686160400044173, 2.1299127000384033, 2.2824185001663864, 2.475001099985093, 2.6355809001252055, 2.926979999989271]",p,C:\2023\REPSWITCH21092023\REPSWITCH_excgange\REPSWITCH_excgange\data/170101_REPSWITCH1_version1_list1_2023-11-30_09h21.36.102_micRespv1l1_recorded\recording_micRespv1l1_2023-11-30_09h29.32.425.wav,484.49379269988276,,None,484.49379269988276,484.49379269988276,484.49379269988276,484.49379269988276,484.49379269988276,484.49379269988276,,,,,,170101,001,2023-11-30_09h21.36.102,REPSWITCH1_version1_list1,2022.2.4,143.94578427597676,
REPSWITCH1/PICTURE_320.png,iglesia,speak,gold,filler,1,F,4,1,1,1,Stim8_Set3,0,None,101,100,101,0,100,100,100,,,,,,,,,,,,,,,,,,,,,,,484.993828299921,486.04258910007775,486.04258910007775,486.04258910007775,486.04258910007775,486.04258910007775,486.04258910007775,486.04258910007775,486.04258910007775,None,0,,,C:\2023\REPSWITCH21092023\REPSWITCH_excgange\REPSWITCH_excgange\data/170101_REPSWITCH1_version1_list1_2023-11-30_09h21.36.102_micRespv1l1_recorded\recording_micRespv1l1_2023-11-30_09h29.37.002.wav,489.070747599937,,None,489.070747599937,489.070747599937,489.070747599937,489.070747599937,489.070747599937,489.070747599937,,,,,,170101,001,2023-11-30_09h21.36.102,REPSWITCH1_version1_list1,2022.2.4,143.94578427597676,
REPSWITCH1/PICTURE_464.png,goma,type,darkblue,filler,1,F,4,1,1,1,Stim6_Set3,0,None,102,101,102,0,101,101,101,,,,,,,,,,,,,,,,,,,,,,,489.5707995998673,490.6681945999153,490.6681945999153,490.6681945999153,490.6681945999153,490.6681945999153,490.6681945999153,490.6681945999153,490.6681945999153,"['g', 'o', 'm', 'a']",0,"[1.0923425999935716, 1.1421679998748004, 1.3395020000170916, 1.4880774000193924]",goma,C:\2023\REPSWITCH21092023\REPSWITCH_excgange\REPSWITCH_excgange\data/170101_REPSWITCH1_version1_list1_2023-11-30_09h21.36.102_micRespv1l1_recorded\recording_micRespv1l1_2023-11-30_09h29.41.627.wav,493.6894181999378,494.1895027998835,space,493.6894181999378,493.6894181999378,493.6894181999378,493.6894181999378,493.6894181999378,493.6894181999378,494.1895027998835,494.1895027998835,16.55595969990827,,,170101,001,2023-11-30_09h21.36.102,REPSWITCH1_version1_list1,2022.2.4,143.94578427597676,
REPSWITCH1/PICTURE_663.png,columna,type,darkblue,filler,1,F,1,2,1,1,Extra6,0,None,103,102,1,0,102,102,102,,,,,,,,,,,,,,,,,,,,,,,510.7541797000449,511.85155409993604,511.85155409993604,511.85155409993604,511.85155409993604,511.85155409993604,511.85155409993604,511.85155409993604,511.85155409993604,"['c', 'o', 'l', 'u', 'm', 'n', 'a']",0,"[0.9040693000424653, 1.6738698999397457, 1.8411196998786181, 2.0553579998668283, 2.2327958999667317, 2.3982122000306845, 2.4751154999248683]",columna,C:\2023\REPSWITCH21092023\REPSWITCH_excgange\REPSWITCH_excgange\data/170101_REPSWITCH1_version1_list1_2023-11-30_09h21.36.102_micRespv1l1_recorded\recording_micRespv1l1_2023-11-30_09h30.02.810.wav,514.8728241999634,515.3728002000134,None,514.8728241999634,514.8728241999634,514.8728241999634,514.8728241999634,514.8728241999634,514.8728241999634,,,,,,170101,001,2023-11-30_09h21.36.102,REPSWITCH1_version1_list1,2022.2.4,143.94578427597676,
REPSWITCH1/PICTURE_128.png,muñeca,speak,gold,nontarget,2,NT,1,2,1,1,Stim4_Set1,1,switch,104,103,2,0,103,103,103,,,,,,,,,,,,,,,,,,,,,,,515.3728002000134,516.4772123999428,516.4772123999428,516.4772123999428,516.4772123999428,516.4772123999428,516.4772123999428,516.4772123999428,516.4772123999428,None,0,,,C:\2023\REPSWITCH21092023\REPSWITCH_excgange\REPSWITCH_excgange\data/170101_REPSWITCH1_version1_list1_2023-11-30_09h21.36.102_micRespv1l1_recorded\recording_micRespv1l1_2023-11-30_09h30.07.436.wav,519.4983568000607,519.9984484999441,None,519.4983568000607,519.4983568000607,519.4983568000607,519.4983568000607,519.4983568000607,519.4983568000607,,,,,,170101,001,2023-11-30_09h21.36.102,REPSWITCH1_version1_list1,2022.2.4,143.94578427597676,
REPSWITCH1/PICTURE_128.png,muñeca,speak,gold,repeat,2,T,1,2,1,1,Stim4_Set1,0,None,105,104,3,0,104,104,104,,,,,,,,,,,,,,,,,,,,,,,519.9984484999441,521.0888724999968,521.0888724999968,521.0888724999968,521.0888724999968,521.0888724999968,521.0888724999968,521.0888724999968,521.0888724999968,None,0,,,C:\2023\REPSWITCH21092023\REPSWITCH_excgange\REPSWITCH_excgange\data/170101_REPSWITCH1_version1_list1_2023-11-30_09h21.36.102_micRespv1l1_recorded\recording_micRespv1l1_2023-11-30_09h30.12.047.wav,524.110170800006,524.6101508999709,None,524.110170800006,524.110170800006,524.110170800006,524.110170800006,524.110170800006,524.110170800006,,,,,,170101,001,2023-11-30_09h21.36.102,REPSWITCH1_version1_list1,2022.2.4,143.94578427597676,
REPSWITCH1/PICTURE_8.png,pierna,type,darkblue,filler,1,F,1,2,1,1,Stim3_Set4,0,None,106,105,4,0,105,105,105,,,,,,,,,,,,,,,,,,,,,,,524.6101508999709,525.7491921000183,525.7491921000183,525.7491921000183,525.7491921000183,525.7491921000183,525.7491921000183,525.7491921000183,525.7491921000183,"['p', 'i', 'e', 'r', 'n', 'a']",0,"[0.8063586999196559, 1.009689699858427, 1.1146354000084102, 1.2564884000457823, 1.3850034000352025, 1.5139239998534322]",pierna,C:\2023\REPSWITCH21092023\REPSWITCH_excgange\REPSWITCH_excgange\data/170101_REPSWITCH1_version1_list1_2023-11-30_09h21.36.102_micRespv1l1_recorded\recording_micRespv1l1_2023-11-30_09h30.16.708.wav,528.7704342000652,529.2704983998556,None,528.7704342000652,528.7704342000652,528.7704342000652,528.7704342000652,528.7704342000652,528.7704342000652,,,,,,170101,001,2023-11-30_09h21.36.102,REPSWITCH1_version1_list1,2022.2.4,143.94578427597676,
REPSWITCH1/PICTURE_135.png,traje,speak,gold,nontarget,2,NT,1,2,1,1,Stim3_Set1,1,switch,107,106,5,0,106,106,106,,,,,,,,,,,,,,,,,,,,,,,529.2704983998556,530.3539688000455,530.3539688000455,530.3539688000455,530.3539688000455,530.3539688000455,530.3539688000455,530.3539688000455,530.3539688000455,None,0,,,C:\2023\REPSWITCH21092023\REPSWITCH_excgange\REPSWITCH_excgange\data/170101_REPSWITCH1_version1_list1_2023-11-30_09h21.36.102_micRespv1l1_recorded\recording_micRespv1l1_2023-11-30_09h30.21.313.wav,533.3752734998707,533.8752643999178,None,533.3752734998707,533.3752734998707,533.3752734998707,533.3752734998707,533.3752734998707,533.3752734998707,,,,,,170101,001,2023-11-30_09h21.36.102,REPSWITCH1_version1_list1,2022.2.4,143.94578427597676,
REPSWITCH1/PICTURE_135.png,traje,speak,gold,repeat,2,T,1,2,1,1,Stim3_Set1,0,None,108,107,6,0,107,107,107,,,,,,,,,,,,,,,,,,,,,,,533.8752643999178,535.0213098998647,535.0213098998647,535.0213098998647,535.0213098998647,535.0213098998647,535.0213098998647,535.0213098998647,535.0213098998647,None,0,,,C:\2023\REPSWITCH21092023\REPSWITCH_excgange\REPSWITCH_excgange\data/170101_REPSWITCH1_version1_list1_2023-11-30_09h21.36.102_micRespv1l1_recorded\recording_micRespv1l1_2023-11-30_09h30.25.980.wav,538.0424854999874,538.5425438000821,None,538.0424854999874,538.0424854999874,538.0424854999874,538.0424854999874,538.0424854999874,538.0424854999874,,,,,,170101,001,2023-11-30_09h21.36.102,REPSWITCH1_version1_list1,2022.2.4,143.94578427597676,
REPSWITCH1/PICTURE_673.png,tenedor,type,darkblue,filler,1,F,1,2,1,1,Extra5,0,None,109,108,7,0,108,108,108,,,,,,,,,,,,,,,,,,,,,,,538.5425438000821,539.5774177999701,539.5774177999701,539.5774177999701,539.5774177999701,539.5774177999701,539.5774177999701,539.5774177999701,539.5774177999701,"['t', 'e', 'n', 'e', 'd', 'p', 'r', 'backspace', 'backspace', 'o', 'r']",0,"[1.099992400035262, 1.3454565999563783, 1.4610588001087308, 1.5517663001082838, 1.7181959999725223, 1.817879700101912, 1.8956079999916255, 2.2179932999424636, 2.3554541000630707, 2.6853153998963535, 2.7431179000996053]",tenedor,C:\2023\REPSWITCH21092023\REPSWITCH_excgange\REPSWITCH_excgange\data/170101_REPSWITCH1_version1_list1_2023-11-30_09h21.36.102_micRespv1l1_recorded\recording_micRespv1l1_2023-11-30_09h30.30.536.wav,542.5986142000183,543.0987519999035,None,542.5986142000183,542.5986142000183,542.5986142000183,542.5986142000183,542.5986142000183,542.5986142000183,,,,,,170101,001,2023-11-30_09h21.36.102,REPSWITCH1_version1_list1,2022.2.4,143.94578427597676,
REPSWITCH1/PICTURE_728.png,pulpo,speak,gold,filler,2,F,1,2,1,1,Stim8_Set4,0,None,110,109,8,0,109,109,109,,,,,,,,,,,,,,,,,,,,,,,543.0987519999035,544.1682644998655,544.1682644998655,544.1682644998655,544.1682644998655,544.1682644998655,544.1682644998655,544.1682644998655,544.1682644998655,None,0,,,C:\2023\REPSWITCH21092023\REPSWITCH_excgange\REPSWITCH_excgange\data/170101_REPSWITCH1_version1_list1_2023-11-30_09h21.36.102_micRespv1l1_recorded\recording_micRespv1l1_2023-11-30_09h30.35.128.wav,547.1964674999472,,None,547.1964674999472,547.1964674999472,547.1964674999472,547.1964674999472,547.1964674999472,547.1964674999472,,,,,,170101,001,2023-11-30_09h21.36.102,REPSWITCH1_version1_list1,2022.2.4,143.94578427597676,
REPSWITCH1/PICTURE_16.png,cazador,speak,gold,nontarget,2,NT,1,2,1,1,Stim6_Set1,1,repeat,111,110,9,0,110,110,110,,,,,,,,,,,,,,,,,,,,,,,547.6965206000023,548.7592128999531,548.7592128999531,548.7592128999531,548.7592128999531,548.7592128999531,548.7592128999531,548.7592128999531,548.7592128999531,None,0,,,C:\2023\REPSWITCH21092023\REPSWITCH_excgange\REPSWITCH_excgange\data/170101_REPSWITCH1_version1_list1_2023-11-30_09h21.36.102_micRespv1l1_recorded\recording_micRespv1l1_2023-11-30_09h30.39.718.wav,551.7803742999677,552.2804477000609,None,551.7803742999677,551.7803742999677,551.7803742999677,551.7803742999677,551.7803742999677,551.7803742999677,,,,,,170101,001,2023-11-30_09h21.36.102,REPSWITCH1_version1_list1,2022.2.4,143.94578427597676,
REPSWITCH1/PICTURE_16.png,cazador,type,darkblue,switch,1,T,1,2,1,1,Stim6_Set1,0,None,112,111,10,0,111,111,111,,,,,,,,,,,,,,,,,,,,,,,552.2804477000609,553.356983799953,553.356983799953,553.356983799953,553.356983799953,553.356983799953,553.356983799953,553.356983799953,553.356983799953,"['c', 'a', 'z', 'a', 'd', 'o', 'r']",0,"[0.9032078001182526, 1.1018612999469042, 1.2716165999881923, 1.4263716000132263, 1.598155700135976, 1.7223127000033855, 1.815411299932748]",cazador,C:\2023\REPSWITCH21092023\REPSWITCH_excgange\REPSWITCH_excgange\data/170101_REPSWITCH1_version1_list1_2023-11-30_09h21.36.102_micRespv1l1_recorded\recording_micRespv1l1_2023-11-30_09h30.44.316.wav,556.3781868000515,556.8782897999045,None,556.3781868000515,556.3781868000515,556.3781868000515,556.3781868000515,556.3781868000515,556.3781868000515,,,,,,170101,001,2023-11-30_09h21.36.102,REPSWITCH1_version1_list1,2022.2.4,143.94578427597676,
REPSWITCH1/PICTURE_498.png,taza,type,darkblue,filler,1,F,1,2,1,1,Stim4_Set4,1,repeat,113,112,11,0,112,112,112,,,,,,,,,,,,,,,,,,,,,,,556.8782897999045,557.9201050999109,557.9201050999109,557.9201050999109,557.9201050999109,557.9201050999109,557.9201050999109,557.9201050999109,557.9201050999109,"['t', 'a', 'z', 'a']",0,"[1.0381338999141008, 1.1258574998937547, 1.2673512999899685, 1.4202983998693526]",taza,C:\2023\REPSWITCH21092023\REPSWITCH_excgange\REPSWITCH_excgange\data/170101_REPSWITCH1_version1_list1_2023-11-30_09h21.36.102_micRespv1l1_recorded\recording_micRespv1l1_2023-11-30_09h30.48.879.wav,560.9412841000594,561.441402599914,None,560.9412841000594,560.9412841000594,560.9412841000594,560.9412841000594,560.9412841000594,560.9412841000594,,,,,,170101,001,2023-11-30_09h21.36.102,REPSWITCH1_version1_list1,2022.2.4,143.94578427597676,
REPSWITCH1/PICTURE_381.png,fresa,type,darkblue,nontarget,1,NT,1,2,1,1,Stim2_Set1,1,repeat,114,113,12,0,113,113,113,,,,,,,,,,,,,,,,,,,,,,,561.441402599914,562.483252499951,562.483252499951,562.483252499951,562.483252499951,562.483252499951,562.483252499951,562.483252499951,562.483252499951,"['f', 'r', 'e', 's', 'a']",0,"[0.916705199982971, 1.0761625999584794, 1.6296053999103606, 1.8040147998835891, 1.9688057999592274]",fresa,C:\2023\REPSWITCH21092023\REPSWITCH_excgange\REPSWITCH_excgange\data/170101_REPSWITCH1_version1_list1_2023-11-30_09h21.36.102_micRespv1l1_recorded\recording_micRespv1l1_2023-11-30_09h30.53.443.wav,565.5044841000345,566.0045554998796,None,565.5044841000345,565.5044841000345,565.5044841000345,565.5044841000345,565.5044841000345,565.5044841000345,,,,,,170101,001,2023-11-30_09h21.36.102,REPSWITCH1_version1_list1,2022.2.4,143.94578427597676,
REPSWITCH1/PICTURE_381.png,fresa,speak,gold,switch,2,T,1,2,1,1,Stim2_Set1,0,None,115,114,13,0,114,114,114,,,,,,,,,,,,,,,,,,,,,,,566.0045554998796,567.1505265000742,567.1505265000742,567.1505265000742,567.1505265000742,567.1505265000742,567.1505265000742,567.1505265000742,567.1505265000742,None,0,,,C:\2023\REPSWITCH21092023\REPSWITCH_excgange\REPSWITCH_excgange\data/170101_REPSWITCH1_version1_list1_2023-11-30_09h21.36.102_micRespv1l1_recorded\recording_micRespv1l1_2023-11-30_09h30.58.110.wav,570.1716674999334,570.6717447999399,None,570.1716674999334,570.1716674999334,570.1716674999334,570.1716674999334,570.1716674999334,570.1716674999334,,,,,,170101,001,2023-11-30_09h21.36.102,REPSWITCH1_version1_list1,2022.2.4,143.94578427597676,
REPSWITCH1/PICTURE_178.png,puente,speak,gold,nontarget,2,NT,1,2,1,1,Stim1_Set1,0,None,116,115,14,0,115,115,115,,,,,,,,,,,,,,,,,,,,,,,570.6717447999399,571.7621929000597,571.7621929000597,571.7621929000597,571.7621929000597,571.7621929000597,571.7621929000597,571.7621929000597,571.7621929000597,None,0,,,C:\2023\REPSWITCH21092023\REPSWITCH_excgange\REPSWITCH_excgange\data/170101_REPSWITCH1_version1_list1_2023-11-30_09h21.36.102_micRespv1l1_recorded\recording_micRespv1l1_2023-11-30_09h31.02.720.wav,574.7834172998555,575.2834844999015,None,574.7834172998555,574.7834172998555,574.7834172998555,574.7834172998555,574.7834172998555,574.7834172998555,,,,,,170101,001,2023-11-30_09h21.36.102,REPSWITCH1_version1_list1,2022.2.4,143.94578427597676,
REPSWITCH1/PICTURE_178.png,puente,type,darkblue,switch,1,T,1,2,1,1,Stim1_Set1,0,None,117,116,15,0,116,116,116,,,,,,,,,,,,,,,,,,,,,,,575.2834844999015,576.3530556000769,576.3530556000769,576.3530556000769,576.3530556000769,576.3530556000769,576.3530556000769,576.3530556000769,576.3530556000769,"['p', 'u', 'e', 'n', 't', 'e']",0,"[1.0058921000454575, 1.2713138000108302, 1.3919561000075191, 1.4818740000482649, 1.5987748000770807, 1.8124607999343425]",puente,C:\2023\REPSWITCH21092023\REPSWITCH_excgange\REPSWITCH_excgange\data/170101_REPSWITCH1_version1_list1_2023-11-30_09h21.36.102_micRespv1l1_recorded\recording_micRespv1l1_2023-11-30_09h31.07.312.wav,579.3743600999005,579.8744341998827,None,579.3743600999005,579.3743600999005,579.3743600999005,579.3743600999005,579.3743600999005,579.3743600999005,,,,,,170101,001,2023-11-30_09h21.36.102,REPSWITCH1_version1_list1,2022.2.4,143.94578427597676,
REPSWITCH1/PICTURE_719.png,baño,speak,gold,filler,2,F,1,2,1,1,Stim2_Set4,0,None,118,117,16,0,117,117,117,,,,,,,,,,,,,,,,,,,,,,,579.8744341998827,580.9439234999008,580.9439234999008,580.9439234999008,580.9439234999008,580.9439234999008,580.9439234999008,580.9439234999008,580.9439234999008,None,0,,,C:\2023\REPSWITCH21092023\REPSWITCH_excgange\REPSWITCH_excgange\data/170101_REPSWITCH1_version1_list1_2023-11-30_09h21.36.102_micRespv1l1_recorded\recording_micRespv1l1_2023-11-30_09h31.11.903.wav,583.9721311000176,,None,583.9721311000176,583.9721311000176,583.9721311000176,583.9721311000176,583.9721311000176,583.9721311000176,,,,,,170101,001,2023-11-30_09h21.36.102,REPSWITCH1_version1_list1,2022.2.4,143.94578427597676,
REPSWITCH1/PICTURE_169.png,espalda,type,darkblue,nontarget,1,NT,1,2,1,1,Stim8_Set1,1,switch,119,118,17,0,118,118,118,,,,,,,,,,,,,,,,,,,,,,,584.4722313000821,585.5556526000146,585.5556526000146,585.5556526000146,585.5556526000146,585.5556526000146,585.5556526000146,585.5556526000146,585.5556526000146,"['e', 's', 'p', 'a', 'l', 'd', 'a']",0,"[1.1216051001101732, 1.2870487000327557, 1.4066435999702662, 1.523255700012669, 1.6328944000415504, 1.7614665001165122, 1.966787900077179]",espalda,C:\2023\REPSWITCH21092023\REPSWITCH_excgange\REPSWITCH_excgange\data/170101_REPSWITCH1_version1_list1_2023-11-30_09h21.36.102_micRespv1l1_recorded\recording_micRespv1l1_2023-11-30_09h31.16.514.wav,588.5768738000188,589.0769527000375,None,588.5768738000188,588.5768738000188,588.5768738000188,588.5768738000188,588.5768738000188,588.5768738000188,,,,,,170101,001,2023-11-30_09h21.36.102,REPSWITCH1_version1_list1,2022.2.4,143.94578427597676,
REPSWITCH1/PICTURE_169.png,espalda,type,darkblue,repeat,1,T,1,2,1,1,Stim8_Set1,0,None,120,119,18,0,119,119,119,,,,,,,,,,,,,,,,,,,,,,,589.0769527000375,590.1951450000051,590.1951450000051,590.1951450000051,590.1951450000051,590.1951450000051,590.1951450000051,590.1951450000051,590.1951450000051,"['e', 'p', 'backspace', 's', 'p', 'a', 'l', 'd', 'a']",0,"[0.8878824000712484, 1.1264116999227554, 1.4712471999228, 1.632954000029713, 1.999741500010714, 2.1163558000698686, 2.1920803000684828, 2.3296940999571234, 2.5096418999601156]",espalda,C:\2023\REPSWITCH21092023\REPSWITCH_excgange\REPSWITCH_excgange\data/170101_REPSWITCH1_version1_list1_2023-11-30_09h21.36.102_micRespv1l1_recorded\recording_micRespv1l1_2023-11-30_09h31.21.154.wav,593.2163970998954,593.716536300024,None,593.2163970998954,593.2163970998954,593.2163970998954,593.2163970998954,593.2163970998954,593.2163970998954,,,,,,170101,001,2023-11-30_09h21.36.102,REPSWITCH1_version1_list1,2022.2.4,143.94578427597676,
