image,correctAns,respModal,frameColor,repSwitch,sequence,target,set,block,list,exp_version,stimulus,baseline,baseline_condition,trial_no,psychopy_trial,Column1,trialsREPSWITCH.thisRepN,trialsREPSWITCH.thisTrialN,trialsREPSWITCH.thisN,trialsREPSWITCH.thisIndex,textWelcome.started,textboxInstrMain1.started,textboxInstrMain1_2.started,textboxInstrMain1_3.started,keyInstrMain.started,keyInstrMain.keys,keyInstrMain.rt,textboxInstrMain2.started,textboxInstrMain2_2.started,textboxInstrMain2_3.started,textboxInstrMain2_4.started,textboxInstrMain2_5.started,textboxInstrMain2_6.started,textboxInstrMain2_7.started,textboxInstrMain2_8.started,textboxInstrMain2_9.started,textboxInstrMain2_10.started,textboxInstrMain2_11.started,textboxInstrMain2_12.started,keyInstrMain2.started,keyInstrMain2.keys,keyInstrMain2.rt,fixationITI.started,fixationITI.stopped,polygonColour.started,polygonWhite.started,imageObject.started,polygonType.started,textInput.started,keyResp.started,micRespv2l1.started,keyResp.keys,keyResp.corr,keyResp.rt,subjResponse,micRespv2l1.clip,textBlankLoop.started,textBlankLoop.stopped,keyPause.keys,polygonColour.stopped,polygonWhite.stopped,imageObject.stopped,polygonType.stopped,textInput.stopped,keyResp.stopped,textboxPause.started,keyPause.started,keyPause.rt,textboxGoodbye.started,textboxGoodbye.stopped,participant,session,date,expName,psychopyVersion,frameRate,
,,,,,,,,,,,,,,,,,,,,,12.237500699935481,14.730825599981472,14.730825599981472,14.730825599981472,14.730825599981472,space,13.226321499794722,,,,,,,,,,,,,,,,,,,,,,,,,,,,,,,,,,,,,,,,,,,,180201,001,2023-11-30_11h32.58.730,REPSWITCH1_version2_list1,2022.2.4,144.0077646627375,
,,,,,,,,,,,,,,,,,,,,,,,,,,,,27.975652300054207,27.975652300054207,27.975652300054207,27.975652300054207,27.975652300054207,27.975652300054207,27.975652300054207,27.975652300054207,27.975652300054207,27.975652300054207,27.975652300054207,27.975652300054207,27.975652300054207,space,3.172713799867779,,,,,,,,,,,,,,,,,,,,,,,,,,,,,180201,001,2023-11-30_11h32.58.730,REPSWITCH1_version2_list1,2022.2.4,144.0077646627375,
REPSWITCH1/PICTURE_340.png,espejo,type,gold,filler,1,F,1,1,1,2,Extra1,0,None,1,0,1,0,0,0,0,,,,,,,,,,,,,,,,,,,,,,,31.239958100020885,32.3512466000393,32.3512466000393,32.3512466000393,32.3512466000393,32.3512466000393,32.3512466000393,32.3512466000393,32.3512466000393,"['e', 's', 'p', 'e', 'j', 'o']",0,"[1.5895223999395967, 1.778670399915427, 2.120512600056827, 2.652739099925384, 2.8731943999882787, 2.951898699859157]",espejo,C:\2023\REPSWITCH21092023\REPSWITCH_excgange\REPSWITCH_excgange\data/180201_REPSWITCH1_version2_list1_2023-11-30_11h32.58.730_micRespv2l1_recorded\recording_micRespv2l1_2023-11-30_11h33.23.623.wav,35.37247740011662,35.872519300086424,None,,,,,,,,,,,,180201,001,2023-11-30_11h32.58.730,REPSWITCH1_version2_list1,2022.2.4,144.0077646627375,
REPSWITCH1/PICTURE_391.png,cadena,speak,darkblue,filler,2,F,1,1,1,2,Extra2,0,None,2,1,2,0,1,1,1,,,,,,,,,,,,,,,,,,,,,,,35.872519300086424,36.976850900100544,36.976850900100544,36.976850900100544,36.976850900100544,36.976850900100544,36.976850900100544,36.976850900100544,36.976850900100544,None,0,,,C:\2023\REPSWITCH21092023\REPSWITCH_excgange\REPSWITCH_excgange\data/180201_REPSWITCH1_version2_list1_2023-11-30_11h32.58.730_micRespv2l1_recorded\recording_micRespv2l1_2023-11-30_11h33.28.254.wav,40.00498230010271,,None,40.00498230010271,40.00498230010271,40.00498230010271,40.00498230010271,40.00498230010271,40.00498230010271,,,,,,180201,001,2023-11-30_11h32.58.730,REPSWITCH1_version2_list1,2022.2.4,144.0077646627375,
REPSWITCH1/PICTURE_178.png,puente,speak,darkblue,nontarget,2,NT,1,1,1,2,Stim1_Set1,1,repeat,3,2,3,0,2,2,2,,,,,,,,,,,,,,,,,,,,,,,40.505052800057456,41.57468400010839,41.57468400010839,41.57468400010839,41.57468400010839,41.57468400010839,41.57468400010839,41.57468400010839,41.57468400010839,None,0,,,C:\2023\REPSWITCH21092023\REPSWITCH_excgange\REPSWITCH_excgange\data/180201_REPSWITCH1_version2_list1_2023-11-30_11h32.58.730_micRespv2l1_recorded\recording_micRespv2l1_2023-11-30_11h33.32.851.wav,44.59595820005052,45.09597590006888,None,44.59595820005052,44.59595820005052,44.59595820005052,44.59595820005052,44.59595820005052,44.59595820005052,,,,,,180201,001,2023-11-30_11h32.58.730,REPSWITCH1_version2_list1,2022.2.4,144.0077646627375,
REPSWITCH1/PICTURE_178.png,puente,speak,darkblue,repeat,2,T,1,1,1,2,Stim1_Set1,0,None,4,3,4,0,3,3,3,,,,,,,,,,,,,,,,,,,,,,,45.09597590006888,46.1725111999549,46.1725111999549,46.1725111999549,46.1725111999549,46.1725111999549,46.1725111999549,46.1725111999549,46.1725111999549,None,0,,,C:\2023\REPSWITCH21092023\REPSWITCH_excgange\REPSWITCH_excgange\data/180201_REPSWITCH1_version2_list1_2023-11-30_11h32.58.730_micRespv2l1_recorded\recording_micRespv2l1_2023-11-30_11h33.37.448.wav,49.19369310000911,49.693777200067416,None,49.19369310000911,49.19369310000911,49.19369310000911,49.19369310000911,49.19369310000911,49.19369310000911,,,,,,180201,001,2023-11-30_11h32.58.730,REPSWITCH1_version2_list1,2022.2.4,144.0077646627375,
REPSWITCH1/PICTURE_319.png,vaca,type,gold,filler,1,F,1,1,1,2,Stim1_Set4,0,None,5,4,5,0,4,4,4,,,,,,,,,,,,,,,,,,,,,,,49.693777200067416,50.79117360012606,50.79117360012606,50.79117360012606,50.79117360012606,50.79117360012606,50.79117360012606,50.79117360012606,50.79117360012606,"['v', 'a', 'c', 'a']",0,"[1.3770143000874668, 1.5030998999718577, 1.5651684999465942, 1.6751478998921812]",vaca,C:\2023\REPSWITCH21092023\REPSWITCH_excgange\REPSWITCH_excgange\data/180201_REPSWITCH1_version2_list1_2023-11-30_11h32.58.730_micRespv2l1_recorded\recording_micRespv2l1_2023-11-30_11h33.42.067.wav,53.81237790011801,54.312437700107694,None,53.81237790011801,53.81237790011801,53.81237790011801,53.81237790011801,53.81237790011801,53.81237790011801,,,,,,180201,001,2023-11-30_11h32.58.730,REPSWITCH1_version2_list1,2022.2.4,144.0077646627375,
REPSWITCH1/PICTURE_381.png,fresa,speak,darkblue,nontarget,2,NT,1,1,1,2,Stim2_Set1,1,switch,6,5,6,0,5,5,5,,,,,,,,,,,,,,,,,,,,,,,54.312437700107694,55.4167398000136,55.4167398000136,55.4167398000136,55.4167398000136,55.4167398000136,55.4167398000136,55.4167398000136,55.4167398000136,None,0,,,C:\2023\REPSWITCH21092023\REPSWITCH_excgange\REPSWITCH_excgange\data/180201_REPSWITCH1_version2_list1_2023-11-30_11h32.58.730_micRespv2l1_recorded\recording_micRespv2l1_2023-11-30_11h33.46.693.wav,58.43797930004075,58.93802189989947,None,58.43797930004075,58.43797930004075,58.43797930004075,58.43797930004075,58.43797930004075,58.43797930004075,,,,,,180201,001,2023-11-30_11h32.58.730,REPSWITCH1_version2_list1,2022.2.4,144.0077646627375,
REPSWITCH1/PICTURE_381.png,fresa,speak,darkblue,repeat,2,T,1,1,1,2,Stim2_Set1,0,None,7,6,7,0,6,6,6,,,,,,,,,,,,,,,,,,,,,,,58.93802189989947,59.972967399982736,59.972967399982736,59.972967399982736,59.972967399982736,59.972967399982736,59.972967399982736,59.972967399982736,59.972967399982736,None,0,,,C:\2023\REPSWITCH21092023\REPSWITCH_excgange\REPSWITCH_excgange\data/180201_REPSWITCH1_version2_list1_2023-11-30_11h32.58.730_micRespv2l1_recorded\recording_micRespv2l1_2023-11-30_11h33.51.249.wav,62.994104200042784,63.49426140007563,None,62.994104200042784,62.994104200042784,62.994104200042784,62.994104200042784,62.994104200042784,62.994104200042784,,,,,,180201,001,2023-11-30_11h32.58.730,REPSWITCH1_version2_list1,2022.2.4,144.0077646627375,
REPSWITCH1/PICTURE_719.png,baño,type,gold,filler,1,F,1,1,1,2,Stim2_Set4,1,switch,8,7,8,0,7,7,7,,,,,,,,,,,,,,,,,,,,,,,63.49426140007563,64.73048890009522,64.73048890009522,64.73048890009522,64.73048890009522,64.73048890009522,64.73048890009522,64.73048890009522,64.73048890009522,"['b', 'a', 'ñ', 'o']",0,"[1.2672244999557734, 1.7288450000341982, 1.8334673000499606, 1.991929299896583]",baño,C:\2023\REPSWITCH21092023\REPSWITCH_excgange\REPSWITCH_excgange\data/180201_REPSWITCH1_version2_list1_2023-11-30_11h32.58.730_micRespv2l1_recorded\recording_micRespv2l1_2023-11-30_11h33.56.007.wav,67.7586465999484,,None,67.7586465999484,67.7586465999484,67.7586465999484,67.7586465999484,67.7586465999484,67.7586465999484,,,,,,180201,001,2023-11-30_11h32.58.730,REPSWITCH1_version2_list1,2022.2.4,144.0077646627375,
REPSWITCH1/PICTURE_135.png,traje,speak,darkblue,nontarget,2,NT,1,1,1,2,Stim3_Set1,0,None,9,8,9,0,8,8,8,,,,,,,,,,,,,,,,,,,,,,,68.25878049992025,69.34220189996995,69.34220189996995,69.34220189996995,69.34220189996995,69.34220189996995,69.34220189996995,69.34220189996995,69.34220189996995,"['t', 'r', 'a', 'j', 'e']",0,"[1.2117878999561071, 1.367296600015834, 1.4609791999682784, 1.8748922999948263, 1.9129732998553663]",traje,C:\2023\REPSWITCH21092023\REPSWITCH_excgange\REPSWITCH_excgange\data/180201_REPSWITCH1_version2_list1_2023-11-30_11h32.58.730_micRespv2l1_recorded\recording_micRespv2l1_2023-11-30_11h34.00.619.wav,72.37036549998447,,None,72.37036549998447,72.37036549998447,72.37036549998447,72.37036549998447,72.37036549998447,72.37036549998447,,,,,,180201,001,2023-11-30_11h32.58.730,REPSWITCH1_version2_list1,2022.2.4,144.0077646627375,
REPSWITCH1/PICTURE_135.png,traje,type,gold,switch,1,T,1,1,1,2,Stim3_Set1,0,None,10,9,10,0,9,9,9,,,,,,,,,,,,,,,,,,,,,,,72.87042489997111,73.94007909996435,73.94007909996435,73.94007909996435,73.94007909996435,73.94007909996435,73.94007909996435,73.94007909996435,73.94007909996435,"['t', 'r', 'a', 'j', 'e']",0,"[1.2839344998355955, 1.4311712000053376, 1.5467896999325603, 1.8647242998704314, 1.9170240999665111]",traje,C:\2023\REPSWITCH21092023\REPSWITCH_excgange\REPSWITCH_excgange\data/180201_REPSWITCH1_version2_list1_2023-11-30_11h32.58.730_micRespv2l1_recorded\recording_micRespv2l1_2023-11-30_11h34.05.216.wav,76.96128459996544,77.46130470000207,None,76.96128459996544,76.96128459996544,76.96128459996544,76.96128459996544,76.96128459996544,76.96128459996544,,,,,,180201,001,2023-11-30_11h32.58.730,REPSWITCH1_version2_list1,2022.2.4,144.0077646627375,
REPSWITCH1/PICTURE_687.png,camisa,speak,darkblue,filler,2,F,1,1,1,2,Stim5_Set4,0,None,11,10,11,0,10,10,10,,,,,,,,,,,,,,,,,,,,,,,77.46130470000207,78.48229219997302,78.48229219997302,78.48229219997302,78.48229219997302,78.48229219997302,78.48229219997302,78.48229219997302,78.48229219997302,None,0,,,C:\2023\REPSWITCH21092023\REPSWITCH_excgange\REPSWITCH_excgange\data/180201_REPSWITCH1_version2_list1_2023-11-30_11h32.58.730_micRespv2l1_recorded\recording_micRespv2l1_2023-11-30_11h34.09.759.wav,81.5035143001005,82.00363599997945,None,81.5035143001005,81.5035143001005,81.5035143001005,81.5035143001005,81.5035143001005,81.5035143001005,,,,,,180201,001,2023-11-30_11h32.58.730,REPSWITCH1_version2_list1,2022.2.4,144.0077646627375,
REPSWITCH1/PICTURE_128.png,muñeca,type,gold,nontarget,1,NT,1,1,1,2,Stim4_Set1,1,switch,12,11,12,0,11,11,11,,,,,,,,,,,,,,,,,,,,,,,82.00363599997945,83.13573909993283,83.13573909993283,83.13573909993283,83.13573909993283,83.13573909993283,83.13573909993283,83.13573909993283,83.13573909993283,"['m', 'u', 'ñ', 'e', 'c', 'a']",0,"[1.2632894997950643, 1.4655819998588413, 2.0344533999450505, 2.107165099820122, 2.427272099768743, 2.503111199941486]",muñeca,C:\2023\REPSWITCH21092023\REPSWITCH_excgange\REPSWITCH_excgange\data/180201_REPSWITCH1_version2_list1_2023-11-30_11h32.58.730_micRespv2l1_recorded\recording_micRespv2l1_2023-11-30_11h34.14.412.wav,86.16384040005505,,None,86.16384040005505,86.16384040005505,86.16384040005505,86.16384040005505,86.16384040005505,86.16384040005505,,,,,,180201,001,2023-11-30_11h32.58.730,REPSWITCH1_version2_list1,2022.2.4,144.0077646627375,
REPSWITCH1/PICTURE_128.png,muñeca,speak,darkblue,switch,2,T,1,1,1,2,Stim4_Set1,0,None,13,12,13,0,12,12,12,,,,,,,,,,,,,,,,,,,,,,,86.66386709990911,87.80986510007642,87.80986510007642,87.80986510007642,87.80986510007642,87.80986510007642,87.80986510007642,87.80986510007642,87.80986510007642,None,0,,,C:\2023\REPSWITCH21092023\REPSWITCH_excgange\REPSWITCH_excgange\data/180201_REPSWITCH1_version2_list1_2023-11-30_11h32.58.730_micRespv2l1_recorded\recording_micRespv2l1_2023-11-30_11h34.19.087.wav,90.83109949994832,91.3312427001074,None,90.83109949994832,90.83109949994832,90.83109949994832,90.83109949994832,90.83109949994832,90.83109949994832,,,,,,180201,001,2023-11-30_11h32.58.730,REPSWITCH1_version2_list1,2022.2.4,144.0077646627375,
REPSWITCH1/PICTURE_8.png,pierna,speak,darkblue,filler,2,F,1,1,1,2,Stim3_Set4,0,None,14,13,14,0,13,13,13,,,,,,,,,,,,,,,,,,,,,,,91.3312427001074,92.4771897001192,92.4771897001192,92.4771897001192,92.4771897001192,92.4771897001192,92.4771897001192,92.4771897001192,92.4771897001192,None,0,,,C:\2023\REPSWITCH21092023\REPSWITCH_excgange\REPSWITCH_excgange\data/180201_REPSWITCH1_version2_list1_2023-11-30_11h32.58.730_micRespv2l1_recorded\recording_micRespv2l1_2023-11-30_11h34.23.753.wav,95.50540019990876,,None,95.50540019990876,95.50540019990876,95.50540019990876,95.50540019990876,95.50540019990876,95.50540019990876,,,,,,180201,001,2023-11-30_11h32.58.730,REPSWITCH1_version2_list1,2022.2.4,144.0077646627375,
REPSWITCH1/PICTURE_19.png,pavo,speak,darkblue,nontarget,2,NT,1,1,1,2,Stim5_Set1,0,None,15,14,15,0,14,14,14,,,,,,,,,,,,,,,,,,,,,,,96.00546090002172,97.08193619991653,97.08193619991653,97.08193619991653,97.08193619991653,97.08193619991653,97.08193619991653,97.08193619991653,97.08193619991653,None,0,,,C:\2023\REPSWITCH21092023\REPSWITCH_excgange\REPSWITCH_excgange\data/180201_REPSWITCH1_version2_list1_2023-11-30_11h32.58.730_micRespv2l1_recorded\recording_micRespv2l1_2023-11-30_11h34.28.359.wav,100.11008400004357,,None,100.11008400004357,100.11008400004357,100.11008400004357,100.11008400004357,100.11008400004357,100.11008400004357,,,,,,180201,001,2023-11-30_11h32.58.730,REPSWITCH1_version2_list1,2022.2.4,144.0077646627375,
REPSWITCH1/PICTURE_19.png,pavo,type,gold,switch,1,T,1,1,1,2,Stim5_Set1,0,None,16,15,16,0,15,15,15,,,,,,,,,,,,,,,,,,,,,,,100.61022779997438,101.82563539990224,101.82563539990224,101.82563539990224,101.82563539990224,101.82563539990224,101.82563539990224,101.82563539990224,101.82563539990224,"['p', 'a', 'v', 'o']",0,"[1.1177799999713898, 1.2174404999241233, 1.6864107998553663, 1.7910490999929607]",pavo,C:\2023\REPSWITCH21092023\REPSWITCH_excgange\REPSWITCH_excgange\data/180201_REPSWITCH1_version2_list1_2023-11-30_11h32.58.730_micRespv2l1_recorded\recording_micRespv2l1_2023-11-30_11h34.33.102.wav,104.84691540012136,105.3469026000239,None,104.84691540012136,104.84691540012136,104.84691540012136,104.84691540012136,104.84691540012136,104.84691540012136,,,,,,180201,001,2023-11-30_11h32.58.730,REPSWITCH1_version2_list1,2022.2.4,144.0077646627375,
REPSWITCH1/PICTURE_16.png,cazador,type,gold,nontarget,1,NT,1,1,1,2,Stim6_Set1,1,switch,17,16,17,0,16,16,16,,,,,,,,,,,,,,,,,,,,,,,105.3469026000239,106.4235046999529,106.4235046999529,106.4235046999529,106.4235046999529,106.4235046999529,106.4235046999529,106.4235046999529,106.4235046999529,"['c', 'a', 'z', 'a', 'd', 'o', 'r']",0,"[1.092232699971646, 1.1675056000240147, 1.3528872998431325, 1.540260799927637, 1.7488591999281198, 1.8555821999907494, 1.9960274000186473]",cazador,C:\2023\REPSWITCH21092023\REPSWITCH_excgange\REPSWITCH_excgange\data/180201_REPSWITCH1_version2_list1_2023-11-30_11h32.58.730_micRespv2l1_recorded\recording_micRespv2l1_2023-11-30_11h34.37.700.wav,109.44463040004484,109.9447230999358,None,109.44463040004484,109.44463040004484,109.44463040004484,109.44463040004484,109.44463040004484,109.44463040004484,,,,,,180201,001,2023-11-30_11h32.58.730,REPSWITCH1_version2_list1,2022.2.4,144.0077646627375,
REPSWITCH1/PICTURE_16.png,cazador,type,gold,repeat,1,T,1,1,1,2,Stim6_Set1,0,None,18,17,18,0,17,17,17,,,,,,,,,,,,,,,,,,,,,,,109.9447230999358,110.98655289993621,110.98655289993621,110.98655289993621,110.98655289993621,110.98655289993621,110.98655289993621,110.98655289993621,110.98655289993621,"['c', 'a', 'z', 'a', 'd', 'o', 'r']",0,"[1.2621355999726802, 1.3657366000115871, 1.6713512998539954, 1.8836823999881744, 2.114908899879083, 2.468014699872583, 2.5833246000111103]",cazador,C:\2023\REPSWITCH21092023\REPSWITCH_excgange\REPSWITCH_excgange\data/180201_REPSWITCH1_version2_list1_2023-11-30_11h32.58.730_micRespv2l1_recorded\recording_micRespv2l1_2023-11-30_11h34.42.263.wav,114.00774069991894,114.50783000001684,None,114.00774069991894,114.00774069991894,114.00774069991894,114.00774069991894,114.00774069991894,114.00774069991894,,,,,,180201,001,2023-11-30_11h32.58.730,REPSWITCH1_version2_list1,2022.2.4,144.0077646627375,
REPSWITCH1/PICTURE_498.png,taza,speak,darkblue,filler,2,F,1,1,1,2,Stim4_Set4,0,None,19,18,19,0,18,18,18,,,,,,,,,,,,,,,,,,,,,,,114.50783000001684,115.55656430008821,115.55656430008821,115.55656430008821,115.55656430008821,115.55656430008821,115.55656430008821,115.55656430008821,115.55656430008821,None,0,,,C:\2023\REPSWITCH21092023\REPSWITCH_excgange\REPSWITCH_excgange\data/180201_REPSWITCH1_version2_list1_2023-11-30_11h32.58.730_micRespv2l1_recorded\recording_micRespv2l1_2023-11-30_11h34.46.834.wav,118.58473500004038,,None,118.58473500004038,118.58473500004038,118.58473500004038,118.58473500004038,118.58473500004038,118.58473500004038,,,,,,180201,001,2023-11-30_11h32.58.730,REPSWITCH1_version2_list1,2022.2.4,144.0077646627375,
REPSWITCH1/PICTURE_48.png,bombero,type,gold,filler,1,F,1,1,1,2,Stim7_Set4,0,None,20,19,20,0,19,19,19,,,,,,,,,,,,,,,,,,,,,,,119.08481619996019,120.10579730011523,120.10579730011523,120.10579730011523,120.10579730011523,120.10579730011523,120.10579730011523,120.10579730011523,120.10579730011523,"['b', 'o', 'm', 'b', 'e', 'r', 'o']",0,"[1.1790868998505175, 1.3016829998232424, 1.5315360999666154, 1.8470750998239964, 2.0581399998627603, 2.2534926999360323, 2.3262006000149995]",bombero,C:\2023\REPSWITCH21092023\REPSWITCH_excgange\REPSWITCH_excgange\data/180201_REPSWITCH1_version2_list1_2023-11-30_11h32.58.730_micRespv2l1_recorded\recording_micRespv2l1_2023-11-30_11h34.51.382.wav,123.12697859993204,123.62705420004204,None,123.12697859993204,123.12697859993204,123.12697859993204,123.12697859993204,123.12697859993204,123.12697859993204,,,,,,180201,001,2023-11-30_11h32.58.730,REPSWITCH1_version2_list1,2022.2.4,144.0077646627375,
REPSWITCH1/PICTURE_142.png,vaso,type,gold,nontarget,1,NT,1,1,1,2,Stim7_Set1,1,repeat,21,20,21,0,20,20,20,,,,,,,,,,,,,,,,,,,,,,,123.62705420004204,124.70361849991605,124.70361849991605,124.70361849991605,124.70361849991605,124.70361849991605,124.70361849991605,124.70361849991605,124.70361849991605,"['v', 'a', 's', 'o']",0,"[0.9384198000188917, 1.0261633000336587, 1.2304392999503762, 1.3291470999829471]",vaso,C:\2023\REPSWITCH21092023\REPSWITCH_excgange\REPSWITCH_excgange\data/180201_REPSWITCH1_version2_list1_2023-11-30_11h32.58.730_micRespv2l1_recorded\recording_micRespv2l1_2023-11-30_11h34.55.980.wav,127.7248341999948,128.22489599999972,None,127.7248341999948,127.7248341999948,127.7248341999948,127.7248341999948,127.7248341999948,127.7248341999948,,,,,,180201,001,2023-11-30_11h32.58.730,REPSWITCH1_version2_list1,2022.2.4,144.0077646627375,
REPSWITCH1/PICTURE_142.png,vaso,type,gold,repeat,1,T,1,1,1,2,Stim7_Set1,0,None,22,21,22,0,21,21,21,,,,,,,,,,,,,,,,,,,,,,,128.22489599999972,129.29453680012375,129.29453680012375,129.29453680012375,129.29453680012375,129.29453680012375,129.29453680012375,129.29453680012375,129.29453680012375,"['v', 'a', 's', 'o']",0,"[1.0712108998559415, 1.1309936000034213, 1.3304216999094933, 1.4821395999751985]",vaso,C:\2023\REPSWITCH21092023\REPSWITCH_excgange\REPSWITCH_excgange\data/180201_REPSWITCH1_version2_list1_2023-11-30_11h32.58.730_micRespv2l1_recorded\recording_micRespv2l1_2023-11-30_11h35.00.571.wav,132.32266710000113,,None,132.32266710000113,132.32266710000113,132.32266710000113,132.32266710000113,132.32266710000113,132.32266710000113,,,,,,180201,001,2023-11-30_11h32.58.730,REPSWITCH1_version2_list1,2022.2.4,144.0077646627375,
REPSWITCH1/PICTURE_338.png,regalo,speak,darkblue,filler,2,F,1,1,1,2,Stim6_Set4,1,switch,23,22,23,0,22,22,22,,,,,,,,,,,,,,,,,,,,,,,132.82272970001213,133.89229930005968,133.89229930005968,133.89229930005968,133.89229930005968,133.89229930005968,133.89229930005968,133.89229930005968,133.89229930005968,None,0,,,C:\2023\REPSWITCH21092023\REPSWITCH_excgange\REPSWITCH_excgange\data/180201_REPSWITCH1_version2_list1_2023-11-30_11h32.58.730_micRespv2l1_recorded\recording_micRespv2l1_2023-11-30_11h35.05.168.wav,136.91354979993775,137.41365160001442,None,136.91354979993775,136.91354979993775,136.91354979993775,136.91354979993775,136.91354979993775,136.91354979993775,,,,,,180201,001,2023-11-30_11h32.58.730,REPSWITCH1_version2_list1,2022.2.4,144.0077646627375,
REPSWITCH1/PICTURE_728.png,pulpo,type,gold,filler,1,F,1,1,1,2,Stim8_Set4,1,switch,24,23,24,0,23,23,23,,,,,,,,,,,,,,,,,,,,,,,137.41365160001442,138.52487619989552,138.52487619989552,138.52487619989552,138.52487619989552,138.52487619989552,138.52487619989552,138.52487619989552,138.52487619989552,"['p', 'u', 'l', 'p', 'o']",0,"[1.3622795997653157, 1.7340332998428494, 2.1785371997393668, 2.4819002996664494, 2.554389199707657]",pulpo,C:\2023\REPSWITCH21092023\REPSWITCH_excgange\REPSWITCH_excgange\data/180201_REPSWITCH1_version2_list1_2023-11-30_11h32.58.730_micRespv2l1_recorded\recording_micRespv2l1_2023-11-30_11h35.09.800.wav,141.54609089996666,142.04623230011202,None,141.54609089996666,141.54609089996666,141.54609089996666,141.54609089996666,141.54609089996666,141.54609089996666,,,,,,180201,001,2023-11-30_11h32.58.730,REPSWITCH1_version2_list1,2022.2.4,144.0077646627375,
REPSWITCH1/PICTURE_169.png,espalda,type,gold,nontarget,1,NT,1,1,1,2,Stim8_Set1,1,repeat,25,24,25,0,24,24,24,,,,,,,,,,,,,,,,,,,,,,,142.04623230011202,143.14350309991278,143.14350309991278,143.14350309991278,143.14350309991278,143.14350309991278,143.14350309991278,143.14350309991278,143.14350309991278,"['e', 's', 'p', 'a', 'l', 'd', 'a']",0,"[1.177477499935776, 1.378099599853158, 1.5195902998093516, 1.6684015998616815, 1.716329599963501, 2.1132438997738063, 2.487809899961576]",espalda,C:\2023\REPSWITCH21092023\REPSWITCH_excgange\REPSWITCH_excgange\data/180201_REPSWITCH1_version2_list1_2023-11-30_11h32.58.730_micRespv2l1_recorded\recording_micRespv2l1_2023-11-30_11h35.14.420.wav,146.17176280007698,,None,146.17176280007698,146.17176280007698,146.17176280007698,146.17176280007698,146.17176280007698,146.17176280007698,,,,,,180201,001,2023-11-30_11h32.58.730,REPSWITCH1_version2_list1,2022.2.4,144.0077646627375,
REPSWITCH1/PICTURE_169.png,espalda,speak,darkblue,switch,2,T,1,1,1,2,Stim8_Set1,0,None,26,25,26,0,25,25,25,,,,,,,,,,,,,,,,,,,,,,,146.67177099990658,147.74141329992563,147.74141329992563,147.74141329992563,147.74141329992563,147.74141329992563,147.74141329992563,147.74141329992563,147.74141329992563,None,0,,,C:\2023\REPSWITCH21092023\REPSWITCH_excgange\REPSWITCH_excgange\data/180201_REPSWITCH1_version2_list1_2023-11-30_11h32.58.730_micRespv2l1_recorded\recording_micRespv2l1_2023-11-30_11h35.19.018.wav,150.7626106000971,151.26263609994203,None,150.7626106000971,150.7626106000971,150.7626106000971,150.7626106000971,150.7626106000971,150.7626106000971,,,,,,180201,001,2023-11-30_11h32.58.730,REPSWITCH1_version2_list1,2022.2.4,144.0077646627375,
REPSWITCH1/PICTURE_178.png,puente,speak,darkblue,filler,2,F,2,1,1,2,Stim1_Set1,0,None,27,26,27,0,26,26,26,,,,,,,,,,,,,,,,,,,,,,,151.26263609994203,152.31138320011087,152.31138320011087,152.31138320011087,152.31138320011087,152.31138320011087,152.31138320011087,152.31138320011087,152.31138320011087,None,0,,,C:\2023\REPSWITCH21092023\REPSWITCH_excgange\REPSWITCH_excgange\data/180201_REPSWITCH1_version2_list1_2023-11-30_11h32.58.730_micRespv2l1_recorded\recording_micRespv2l1_2023-11-30_11h35.23.588.wav,155.33260289998725,155.8326944001019,None,155.33260289998725,155.33260289998725,155.33260289998725,155.33260289998725,155.33260289998725,155.33260289998725,,,,,,180201,001,2023-11-30_11h32.58.730,REPSWITCH1_version2_list1,2022.2.4,144.0077646627375,
REPSWITCH1/PICTURE_175.png,pintor,type,gold,nontarget,1,NT,2,1,1,2,Stim1_Set2,1,switch,28,27,28,0,27,27,27,,,,,,,,,,,,,,,,,,,,,,,155.8326944001019,157.02730720001273,157.02730720001273,157.02730720001273,157.02730720001273,157.02730720001273,157.02730720001273,157.02730720001273,157.02730720001273,"['p', 'i', 'n', 't', 'o', 'r']",0,"[1.485840399749577, 1.719284099759534, 1.9229115997441113, 2.288729899795726, 2.3937758998945355, 2.5871507998090237]",pintor,C:\2023\REPSWITCH21092023\REPSWITCH_excgange\REPSWITCH_excgange\data/180201_REPSWITCH1_version2_list1_2023-11-30_11h32.58.730_micRespv2l1_recorded\recording_micRespv2l1_2023-11-30_11h35.28.304.wav,160.04848750005476,160.54865929996595,None,160.04848750005476,160.04848750005476,160.04848750005476,160.04848750005476,160.04848750005476,160.04848750005476,,,,,,180201,001,2023-11-30_11h32.58.730,REPSWITCH1_version2_list1,2022.2.4,144.0077646627375,
REPSWITCH1/PICTURE_175.png,pintor,type,gold,repeat,1,T,2,1,1,2,Stim1_Set2,0,None,29,28,29,0,28,28,28,,,,,,,,,,,,,,,,,,,,,,,160.54865929996595,161.59732550010085,161.59732550010085,161.59732550010085,161.59732550010085,161.59732550010085,161.59732550010085,161.59732550010085,161.59732550010085,"['p', 'i', 'm', 'n', 'backspace', 'n']",0,"[1.1101710998918861, 1.3354123998433352, 1.551949799992144, 1.5549349999055266, 1.9597438999917358, 2.7480862999800593]",pin,C:\2023\REPSWITCH21092023\REPSWITCH_excgange\REPSWITCH_excgange\data/180201_REPSWITCH1_version2_list1_2023-11-30_11h32.58.730_micRespv2l1_recorded\recording_micRespv2l1_2023-11-30_11h35.32.874.wav,164.62558949994855,,None,164.62558949994855,164.62558949994855,164.62558949994855,164.62558949994855,164.62558949994855,164.62558949994855,,,,,,180201,001,2023-11-30_11h32.58.730,REPSWITCH1_version2_list1,2022.2.4,144.0077646627375,
REPSWITCH1/PICTURE_381.png,fresa,speak,darkblue,filler,2,F,2,1,1,2,Stim2_Set1,0,None,30,29,30,0,29,29,29,,,,,,,,,,,,,,,,,,,,,,,165.12557299993932,166.20908650010824,166.20908650010824,166.20908650010824,166.20908650010824,166.20908650010824,166.20908650010824,166.20908650010824,166.20908650010824,None,0,,,C:\2023\REPSWITCH21092023\REPSWITCH_excgange\REPSWITCH_excgange\data/180201_REPSWITCH1_version2_list1_2023-11-30_11h32.58.730_micRespv2l1_recorded\recording_micRespv2l1_2023-11-30_11h35.37.486.wav,169.2372294999659,,None,169.2372294999659,169.2372294999659,169.2372294999659,169.2372294999659,169.2372294999659,169.2372294999659,,,,,,180201,001,2023-11-30_11h32.58.730,REPSWITCH1_version2_list1,2022.2.4,144.0077646627375,
REPSWITCH1/PICTURE_152.png,caracol,type,gold,nontarget,1,NT,2,1,1,2,Stim2_Set2,1,switch,31,30,31,0,30,30,30,,,,,,,,,,,,,,,,,,,,,,,169.737278399989,170.78610170003958,170.78610170003958,170.78610170003958,170.78610170003958,170.78610170003958,170.78610170003958,170.78610170003958,170.78610170003958,"['c', 'a', 'r', 'a', 'c', 'o', 'l']",0,"[1.4654840999282897, 1.5701364998240024, 1.6604134999215603, 1.7799530997872353, 2.2711281997617334, 2.3649375999812037, 2.5027635998558253]",caracol,C:\2023\REPSWITCH21092023\REPSWITCH_excgange\REPSWITCH_excgange\data/180201_REPSWITCH1_version2_list1_2023-11-30_11h32.58.730_micRespv2l1_recorded\recording_micRespv2l1_2023-11-30_11h35.42.063.wav,173.80724429991096,174.30733700003475,None,173.80724429991096,173.80724429991096,173.80724429991096,173.80724429991096,173.80724429991096,173.80724429991096,,,,,,180201,001,2023-11-30_11h32.58.730,REPSWITCH1_version2_list1,2022.2.4,144.0077646627375,
REPSWITCH1/PICTURE_152.png,caracol,type,gold,repeat,1,T,2,1,1,2,Stim2_Set2,0,None,32,31,32,0,31,31,31,,,,,,,,,,,,,,,,,,,,,,,174.30733700003475,175.43246729997918,175.43246729997918,175.43246729997918,175.43246729997918,175.43246729997918,175.43246729997918,175.43246729997918,175.43246729997918,"['c', 'a', 'r', 'a', 'c', 'o', 'l']",0,"[0.9452422999311239, 1.0580637999810278, 1.1553789000026882, 1.260065499925986, 1.5847734999842942, 1.7023379998281598, 1.8518240998964757]",caracol,C:\2023\REPSWITCH21092023\REPSWITCH_excgange\REPSWITCH_excgange\data/180201_REPSWITCH1_version2_list1_2023-11-30_11h32.58.730_micRespv2l1_recorded\recording_micRespv2l1_2023-11-30_11h35.46.709.wav,178.46065640007146,,None,178.46065640007146,178.46065640007146,178.46065640007146,178.46065640007146,178.46065640007146,178.46065640007146,,,,,,180201,001,2023-11-30_11h32.58.730,REPSWITCH1_version2_list1,2022.2.4,144.0077646627375,
REPSWITCH1/PICTURE_128.png,muñeca,speak,darkblue,filler,2,F,2,1,1,2,Stim4_Set1,0,None,33,32,33,0,32,32,32,,,,,,,,,,,,,,,,,,,,,,,178.96072189998813,180.07890049996786,180.07890049996786,180.07890049996786,180.07890049996786,180.07890049996786,180.07890049996786,180.07890049996786,180.07890049996786,None,0,,,C:\2023\REPSWITCH21092023\REPSWITCH_excgange\REPSWITCH_excgange\data/180201_REPSWITCH1_version2_list1_2023-11-30_11h32.58.730_micRespv2l1_recorded\recording_micRespv2l1_2023-11-30_11h35.51.356.wav,183.10707219992764,,None,183.10707219992764,183.10707219992764,183.10707219992764,183.10707219992764,183.10707219992764,183.10707219992764,,,,,,180201,001,2023-11-30_11h32.58.730,REPSWITCH1_version2_list1,2022.2.4,144.0077646627375,
REPSWITCH1/PICTURE_264.png,mano,type,gold,nontarget,1,NT,2,1,1,2,Stim3_Set2,0,None,34,33,34,0,33,33,33,,,,,,,,,,,,,,,,,,,,,,,183.6071599998977,184.7393326999154,184.7393326999154,184.7393326999154,184.7393326999154,184.7393326999154,184.7393326999154,184.7393326999154,184.7393326999154,"['m', 'a', 'n', 'o']",0,"[1.1170296999625862, 1.200644499855116, 1.3093183997552842, 1.3924269997514784]",mano,C:\2023\REPSWITCH21092023\REPSWITCH_excgange\REPSWITCH_excgange\data/180201_REPSWITCH1_version2_list1_2023-11-30_11h32.58.730_micRespv2l1_recorded\recording_micRespv2l1_2023-11-30_11h35.56.015.wav,187.76049460005015,188.26054079993628,None,187.76049460005015,187.76049460005015,187.76049460005015,187.76049460005015,187.76049460005015,187.76049460005015,,,,,,180201,001,2023-11-30_11h32.58.730,REPSWITCH1_version2_list1,2022.2.4,144.0077646627375,
REPSWITCH1/PICTURE_264.png,mano,speak,darkblue,switch,2,T,2,1,1,2,Stim3_Set2,0,None,35,34,35,0,34,34,34,,,,,,,,,,,,,,,,,,,,,,,188.26054079993628,189.42743470007554,189.42743470007554,189.42743470007554,189.42743470007554,189.42743470007554,189.42743470007554,189.42743470007554,189.42743470007554,None,0,,,C:\2023\REPSWITCH21092023\REPSWITCH_excgange\REPSWITCH_excgange\data/180201_REPSWITCH1_version2_list1_2023-11-30_11h32.58.730_micRespv2l1_recorded\recording_micRespv2l1_2023-11-30_11h36.00.705.wav,192.45558870001696,,None,192.45558870001696,192.45558870001696,192.45558870001696,192.45558870001696,192.45558870001696,192.45558870001696,,,,,,180201,001,2023-11-30_11h32.58.730,REPSWITCH1_version2_list1,2022.2.4,144.0077646627375,
REPSWITCH1/PICTURE_517.png,cuerda,speak,darkblue,nontarget,2,NT,2,1,1,2,Stim4_Set2,1,repeat,36,35,36,0,35,35,35,,,,,,,,,,,,,,,,,,,,,,,192.95561560010538,194.0113566000946,194.0113566000946,194.0113566000946,194.0113566000946,194.0113566000946,194.0113566000946,194.0113566000946,194.0113566000946,None,0,,,C:\2023\REPSWITCH21092023\REPSWITCH_excgange\REPSWITCH_excgange\data/180201_REPSWITCH1_version2_list1_2023-11-30_11h32.58.730_micRespv2l1_recorded\recording_micRespv2l1_2023-11-30_11h36.05.288.wav,197.03251200006343,197.53260269993916,None,197.03251200006343,197.03251200006343,197.03251200006343,197.03251200006343,197.03251200006343,197.03251200006343,,,,,,180201,001,2023-11-30_11h32.58.730,REPSWITCH1_version2_list1,2022.2.4,144.0077646627375,
REPSWITCH1/PICTURE_517.png,cuerda,type,gold,switch,1,T,2,1,1,2,Stim4_Set2,0,None,37,36,37,0,36,36,36,,,,,,,,,,,,,,,,,,,,,,,197.53260269993916,198.66471490007825,198.66471490007825,198.66471490007825,198.66471490007825,198.66471490007825,198.66471490007825,198.66471490007825,198.66471490007825,"['c', 'u', 'e', 'r', 'd', 'a']",0,"[1.1451054997742176, 1.232793299946934, 1.3900197998154908, 1.5850800997577608, 1.7963213997427374, 1.912327399943024]",cuerda,C:\2023\REPSWITCH21092023\REPSWITCH_excgange\REPSWITCH_excgange\data/180201_REPSWITCH1_version2_list1_2023-11-30_11h32.58.730_micRespv2l1_recorded\recording_micRespv2l1_2023-11-30_11h36.09.941.wav,201.6859462999273,202.18595120008104,None,201.6859462999273,201.6859462999273,201.6859462999273,201.6859462999273,201.6859462999273,201.6859462999273,,,,,,180201,001,2023-11-30_11h32.58.730,REPSWITCH1_version2_list1,2022.2.4,144.0077646627375,
REPSWITCH1/PICTURE_135.png,traje,type,gold,filler,1,F,2,1,1,2,Stim3_Set1,0,None,38,37,38,0,37,37,37,,,,,,,,,,,,,,,,,,,,,,,202.18595120008104,203.27639709995128,203.27639709995128,203.27639709995128,203.27639709995128,203.27639709995128,203.27639709995128,203.27639709995128,203.27639709995128,"['t', 'r', 'a', 'j', 'e']",0,"[1.1312303999438882, 1.2867703998927027, 1.3764032998587936, 1.7053266998846084, 1.7442415999248624]",traje,C:\2023\REPSWITCH21092023\REPSWITCH_excgange\REPSWITCH_excgange\data/180201_REPSWITCH1_version2_list1_2023-11-30_11h32.58.730_micRespv2l1_recorded\recording_micRespv2l1_2023-11-30_11h36.14.553.wav,206.29764489992522,206.79770300001837,None,206.29764489992522,206.29764489992522,206.29764489992522,206.29764489992522,206.29764489992522,206.29764489992522,,,,,,180201,001,2023-11-30_11h32.58.730,REPSWITCH1_version2_list1,2022.2.4,144.0077646627375,
REPSWITCH1/PICTURE_30.png,granja,type,gold,nontarget,1,NT,2,1,1,2,Stim5_Set2,1,repeat,39,38,39,0,38,38,38,,,,,,,,,,,,,,,,,,,,,,,206.79770300001837,207.91587390005589,207.91587390005589,207.91587390005589,207.91587390005589,207.91587390005589,207.91587390005589,207.91587390005589,207.91587390005589,"['g', 'r', 'a', 'n', 'j', 'a']",0,"[1.3778600997757167, 1.5652229997795075, 1.6789008998312056, 2.3493411999661475, 2.558703899849206, 2.635564399883151]",granja,C:\2023\REPSWITCH21092023\REPSWITCH_excgange\REPSWITCH_excgange\data/180201_REPSWITCH1_version2_list1_2023-11-30_11h32.58.730_micRespv2l1_recorded\recording_micRespv2l1_2023-11-30_11h36.19.193.wav,210.94406410004012,,None,210.94406410004012,210.94406410004012,210.94406410004012,210.94406410004012,210.94406410004012,210.94406410004012,,,,,,180201,001,2023-11-30_11h32.58.730,REPSWITCH1_version2_list1,2022.2.4,144.0077646627375,
REPSWITCH1/PICTURE_30.png,granja,speak,darkblue,switch,2,T,2,1,1,2,Stim5_Set2,0,None,40,39,40,0,39,39,39,,,,,,,,,,,,,,,,,,,,,,,211.44415490003303,212.6248657000251,212.6248657000251,212.6248657000251,212.6248657000251,212.6248657000251,212.6248657000251,212.6248657000251,212.6248657000251,None,0,,,C:\2023\REPSWITCH21092023\REPSWITCH_excgange\REPSWITCH_excgange\data/180201_REPSWITCH1_version2_list1_2023-11-30_11h32.58.730_micRespv2l1_recorded\recording_micRespv2l1_2023-11-30_11h36.23.902.wav,215.65301809995435,,None,215.65301809995435,215.65301809995435,215.65301809995435,215.65301809995435,215.65301809995435,215.65301809995435,,,,,,180201,001,2023-11-30_11h32.58.730,REPSWITCH1_version2_list1,2022.2.4,144.0077646627375,
REPSWITCH1/PICTURE_142.png,vaso,type,gold,filler,1,F,2,1,1,2,Stim7_Set1,0,None,41,40,41,0,40,40,40,,,,,,,,,,,,,,,,,,,,,,,216.1531501999125,217.29215220012702,217.29215220012702,217.29215220012702,217.29215220012702,217.29215220012702,217.29215220012702,217.29215220012702,217.29215220012702,"['v', 'a', 's', 'o']",0,"[0.9891428998671472, 1.0668653997126967, 1.2625356998760253, 1.3850985998287797]",vaso,C:\2023\REPSWITCH21092023\REPSWITCH_excgange\REPSWITCH_excgange\data/180201_REPSWITCH1_version2_list1_2023-11-30_11h32.58.730_micRespv2l1_recorded\recording_micRespv2l1_2023-11-30_11h36.28.568.wav,220.31338680000044,220.81343550002202,None,220.31338680000044,220.31338680000044,220.31338680000044,220.31338680000044,220.31338680000044,220.31338680000044,,,,,,180201,001,2023-11-30_11h32.58.730,REPSWITCH1_version2_list1,2022.2.4,144.0077646627375,
REPSWITCH1/PICTURE_19.png,pavo,speak,darkblue,filler,2,F,2,1,1,2,Stim5_Set1,1,switch,42,41,42,0,41,41,41,,,,,,,,,,,,,,,,,,,,,,,220.81343550002202,221.84135710005648,221.84135710005648,221.84135710005648,221.84135710005648,221.84135710005648,221.84135710005648,221.84135710005648,221.84135710005648,None,0,,,C:\2023\REPSWITCH21092023\REPSWITCH_excgange\REPSWITCH_excgange\data/180201_REPSWITCH1_version2_list1_2023-11-30_11h32.58.730_micRespv2l1_recorded\recording_micRespv2l1_2023-11-30_11h36.33.118.wav,224.86953100003302,,None,224.86953100003302,224.86953100003302,224.86953100003302,224.86953100003302,224.86953100003302,224.86953100003302,,,,,,180201,001,2023-11-30_11h32.58.730,REPSWITCH1_version2_list1,2022.2.4,144.0077646627375,
REPSWITCH1/PICTURE_552.png,manzana,speak,darkblue,nontarget,2,NT,2,1,1,2,Stim6_Set2,1,repeat,43,42,43,0,42,42,42,,,,,,,,,,,,,,,,,,,,,,,225.3695722001139,226.43918669992127,226.43918669992127,226.43918669992127,226.43918669992127,226.43918669992127,226.43918669992127,226.43918669992127,226.43918669992127,None,0,,,C:\2023\REPSWITCH21092023\REPSWITCH_excgange\REPSWITCH_excgange\data/180201_REPSWITCH1_version2_list1_2023-11-30_11h32.58.730_micRespv2l1_recorded\recording_micRespv2l1_2023-11-30_11h36.37.716.wav,229.4673441001214,,None,229.4673441001214,229.4673441001214,229.4673441001214,229.4673441001214,229.4673441001214,229.4673441001214,,,,,,180201,001,2023-11-30_11h32.58.730,REPSWITCH1_version2_list1,2022.2.4,144.0077646627375,
REPSWITCH1/PICTURE_552.png,manzana,speak,darkblue,repeat,2,T,2,1,1,2,Stim6_Set2,0,None,44,43,44,0,43,43,43,,,,,,,,,,,,,,,,,,,,,,,229.96741120005026,230.9814204000868,230.9814204000868,230.9814204000868,230.9814204000868,230.9814204000868,230.9814204000868,230.9814204000868,230.9814204000868,None,0,,,C:\2023\REPSWITCH21092023\REPSWITCH_excgange\REPSWITCH_excgange\data/180201_REPSWITCH1_version2_list1_2023-11-30_11h32.58.730_micRespv2l1_recorded\recording_micRespv2l1_2023-11-30_11h36.42.257.wav,234.00266389991157,234.5028047999367,None,234.00266389991157,234.00266389991157,234.00266389991157,234.00266389991157,234.00266389991157,234.00266389991157,,,,,,180201,001,2023-11-30_11h32.58.730,REPSWITCH1_version2_list1,2022.2.4,144.0077646627375,
REPSWITCH1/PICTURE_16.png,cazador,type,gold,filler,1,F,2,1,1,2,Stim6_Set1,0,None,45,44,45,0,44,44,44,,,,,,,,,,,,,,,,,,,,,,,234.5028047999367,235.676548599964,235.676548599964,235.676548599964,235.676548599964,235.676548599964,235.676548599964,235.676548599964,235.676548599964,"['c', 'a', 'z', 'a', 'd', 'o', 'r']",0,"[1.0076011999044567, 1.0873248998541385, 1.2666835999116302, 1.452064799843356, 1.6644498999230564, 1.9908982997294515, 2.1344064997974783]",cazador,C:\2023\REPSWITCH21092023\REPSWITCH_excgange\REPSWITCH_excgange\data/180201_REPSWITCH1_version2_list1_2023-11-30_11h32.58.730_micRespv2l1_recorded\recording_micRespv2l1_2023-11-30_11h36.46.954.wav,238.70466990000568,239.20473339990713,None,238.70466990000568,238.70466990000568,238.70466990000568,238.70466990000568,238.70466990000568,238.70466990000568,,,,,,180201,001,2023-11-30_11h32.58.730,REPSWITCH1_version2_list1,2022.2.4,144.0077646627375,
REPSWITCH1/PICTURE_446.png,cerdo,speak,darkblue,nontarget,2,NT,2,1,1,2,Stim7_Set2,1,switch,46,45,46,0,45,45,45,,,,,,,,,,,,,,,,,,,,,,,239.20473339990713,240.218774799956,240.218774799956,240.218774799956,240.218774799956,240.218774799956,240.218774799956,240.218774799956,240.218774799956,None,0,,,C:\2023\REPSWITCH21092023\REPSWITCH_excgange\REPSWITCH_excgange\data/180201_REPSWITCH1_version2_list1_2023-11-30_11h32.58.730_micRespv2l1_recorded\recording_micRespv2l1_2023-11-30_11h36.51.495.wav,243.24691429990344,,None,243.24691429990344,243.24691429990344,243.24691429990344,243.24691429990344,243.24691429990344,243.24691429990344,,,,,,180201,001,2023-11-30_11h32.58.730,REPSWITCH1_version2_list1,2022.2.4,144.0077646627375,
REPSWITCH1/PICTURE_446.png,cerdo,speak,darkblue,repeat,2,T,2,1,1,2,Stim7_Set2,0,None,47,46,47,0,46,46,46,,,,,,,,,,,,,,,,,,,,,,,243.74697039998136,244.79581100004725,244.79581100004725,244.79581100004725,244.79581100004725,244.79581100004725,244.79581100004725,244.79581100004725,244.79581100004725,None,0,,,C:\2023\REPSWITCH21092023\REPSWITCH_excgange\REPSWITCH_excgange\data/180201_REPSWITCH1_version2_list1_2023-11-30_11h32.58.730_micRespv2l1_recorded\recording_micRespv2l1_2023-11-30_11h36.56.071.wav,247.81694400007837,248.31701459991746,None,247.81694400007837,247.81694400007837,247.81694400007837,247.81694400007837,247.81694400007837,247.81694400007837,,,,,,180201,001,2023-11-30_11h32.58.730,REPSWITCH1_version2_list1,2022.2.4,144.0077646627375,
REPSWITCH1/PICTURE_590.png,escoba,type,gold,filler,1,F,2,1,1,2,Extra3,0,None,48,47,48,0,47,47,47,,,,,,,,,,,,,,,,,,,,,,,248.31701459991746,249.40744090010412,249.40744090010412,249.40744090010412,249.40744090010412,249.40744090010412,249.40744090010412,249.40744090010412,249.40744090010412,"['e', 's', 'c', 'o', 'b', 'a']",0,"[0.9443483999930322, 1.130689499899745, 1.3499623998068273, 1.6026824999134988, 2.133501000003889, 2.2182155998889357]",escoba,C:\2023\REPSWITCH21092023\REPSWITCH_excgange\REPSWITCH_excgange\data/180201_REPSWITCH1_version2_list1_2023-11-30_11h32.58.730_micRespv2l1_recorded\recording_micRespv2l1_2023-11-30_11h37.00.683.wav,252.42867120006122,252.92875270009972,None,252.42867120006122,252.42867120006122,252.42867120006122,252.42867120006122,252.42867120006122,252.42867120006122,,,,,,180201,001,2023-11-30_11h32.58.730,REPSWITCH1_version2_list1,2022.2.4,144.0077646627375,
REPSWITCH1/PICTURE_169.png,espalda,speak,darkblue,filler,2,F,2,1,1,2,Stim8_Set1,0,None,49,48,49,0,48,48,48,,,,,,,,,,,,,,,,,,,,,,,252.92875270009972,254.06783329998143,254.06783329998143,254.06783329998143,254.06783329998143,254.06783329998143,254.06783329998143,254.06783329998143,254.06783329998143,None,0,,,C:\2023\REPSWITCH21092023\REPSWITCH_excgange\REPSWITCH_excgange\data/180201_REPSWITCH1_version2_list1_2023-11-30_11h32.58.730_micRespv2l1_recorded\recording_micRespv2l1_2023-11-30_11h37.05.344.wav,257.0890097001102,257.58906659996137,None,257.0890097001102,257.0890097001102,257.0890097001102,257.0890097001102,257.0890097001102,257.0890097001102,,,,,,180201,001,2023-11-30_11h32.58.730,REPSWITCH1_version2_list1,2022.2.4,144.0077646627375,
REPSWITCH1/PICTURE_199.png,falda,speak,darkblue,nontarget,2,NT,2,1,1,2,Stim8_Set2,1,repeat,50,49,50,0,49,49,49,,,,,,,,,,,,,,,,,,,,,,,257.58906659996137,258.6656885999255,258.6656885999255,258.6656885999255,258.6656885999255,258.6656885999255,258.6656885999255,258.6656885999255,258.6656885999255,None,0,,,C:\2023\REPSWITCH21092023\REPSWITCH_excgange\REPSWITCH_excgange\data/180201_REPSWITCH1_version2_list1_2023-11-30_11h32.58.730_micRespv2l1_recorded\recording_micRespv2l1_2023-11-30_11h37.09.942.wav,261.68684120010585,262.1868886000011,None,261.68684120010585,261.68684120010585,261.68684120010585,261.68684120010585,261.68684120010585,261.68684120010585,,,,,,180201,001,2023-11-30_11h32.58.730,REPSWITCH1_version2_list1,2022.2.4,144.0077646627375,
REPSWITCH1/PICTURE_199.png,falda,type,gold,switch,1,T,2,1,1,2,Stim8_Set2,0,None,51,50,51,0,50,50,50,,,,,,,,,,,,,,,,,,,,,,,262.1868886000011,263.2704125000164,263.2704125000164,263.2704125000164,263.2704125000164,263.2704125000164,263.2704125000164,263.2704125000164,263.2704125000164,"['f', 'a', 'l', 'd', 'a']",0,"[1.2224041998852044, 1.6809575997758657, 1.74649369972758, 1.989590099779889, 2.0245874996762723]",falda,C:\2023\REPSWITCH21092023\REPSWITCH_excgange\REPSWITCH_excgange\data/180201_REPSWITCH1_version2_list1_2023-11-30_11h32.58.730_micRespv2l1_recorded\recording_micRespv2l1_2023-11-30_11h37.14.547.wav,266.2915861001238,266.7916884999722,space,266.2915861001238,266.2915861001238,266.2915861001238,266.2915861001238,266.2915861001238,266.2915861001238,266.7916884999722,266.7916884999722,14.042927300091833,,,180201,001,2023-11-30_11h32.58.730,REPSWITCH1_version2_list1,2022.2.4,144.0077646627375,
REPSWITCH1/PICTURE_576.png,guante,type,gold,nontarget,1,NT,3,1,1,2,Stim1_Set3,0,None,52,51,52,0,51,51,51,,,,,,,,,,,,,,,,,,,,,,,280.8422121000476,281.9603512000758,281.9603512000758,281.9603512000758,281.9603512000758,281.9603512000758,281.9603512000758,281.9603512000758,281.9603512000758,"['g', 'i', 'u', 'a', 'n', 't', 'e']",0,"[1.8688255997840315, 2.008350399788469, 2.2654948998242617, 2.43365819985047, 2.5373065997846425, 2.728667499963194, 2.7795058998744935]",giuante,C:\2023\REPSWITCH21092023\REPSWITCH_excgange\REPSWITCH_excgange\data/180201_REPSWITCH1_version2_list1_2023-11-30_11h32.58.730_micRespv2l1_recorded\recording_micRespv2l1_2023-11-30_11h37.33.237.wav,284.98852670006454,,None,284.98852670006454,284.98852670006454,284.98852670006454,284.98852670006454,284.98852670006454,284.98852670006454,,,,,,180201,001,2023-11-30_11h32.58.730,REPSWITCH1_version2_list1,2022.2.4,144.0077646627375,
REPSWITCH1/PICTURE_576.png,guante,speak,darkblue,switch,2,T,3,1,1,2,Stim1_Set3,0,None,53,52,53,0,52,52,52,,,,,,,,,,,,,,,,,,,,,,,285.48858559993096,286.69019560003653,286.69019560003653,286.69019560003653,286.69019560003653,286.69019560003653,286.69019560003653,286.69019560003653,286.69019560003653,None,0,,,C:\2023\REPSWITCH21092023\REPSWITCH_excgange\REPSWITCH_excgange\data/180201_REPSWITCH1_version2_list1_2023-11-30_11h32.58.730_micRespv2l1_recorded\recording_micRespv2l1_2023-11-30_11h37.37.966.wav,289.7183387998957,,None,289.7183387998957,289.7183387998957,289.7183387998957,289.7183387998957,289.7183387998957,289.7183387998957,,,,,,180201,001,2023-11-30_11h32.58.730,REPSWITCH1_version2_list1,2022.2.4,144.0077646627375,
REPSWITCH1/PICTURE_646.png,tronco,speak,darkblue,filler,2,F,3,1,1,2,Extra4,0,None,54,53,54,0,53,53,53,,,,,,,,,,,,,,,,,,,,,,,290.218450400047,291.36443189997226,291.36443189997226,291.36443189997226,291.36443189997226,291.36443189997226,291.36443189997226,291.36443189997226,291.36443189997226,None,0,,,C:\2023\REPSWITCH21092023\REPSWITCH_excgange\REPSWITCH_excgange\data/180201_REPSWITCH1_version2_list1_2023-11-30_11h32.58.730_micRespv2l1_recorded\recording_micRespv2l1_2023-11-30_11h37.42.640.wav,294.38554579997435,294.88566330005415,None,294.38554579997435,294.38554579997435,294.38554579997435,294.38554579997435,294.38554579997435,294.38554579997435,,,,,,180201,001,2023-11-30_11h32.58.730,REPSWITCH1_version2_list1,2022.2.4,144.0077646627375,
REPSWITCH1/PICTURE_610.png,miel,speak,darkblue,nontarget,2,NT,3,1,1,2,Stim2_Set3,1,repeat,55,54,55,0,54,54,54,,,,,,,,,,,,,,,,,,,,,,,294.88566330005415,295.96224160003476,295.96224160003476,295.96224160003476,295.96224160003476,295.96224160003476,295.96224160003476,295.96224160003476,295.96224160003476,None,0,,,C:\2023\REPSWITCH21092023\REPSWITCH_excgange\REPSWITCH_excgange\data/180201_REPSWITCH1_version2_list1_2023-11-30_11h32.58.730_micRespv2l1_recorded\recording_micRespv2l1_2023-11-30_11h37.47.238.wav,298.9833748000674,299.4834670999553,None,298.9833748000674,298.9833748000674,298.9833748000674,298.9833748000674,298.9833748000674,298.9833748000674,,,,,,180201,001,2023-11-30_11h32.58.730,REPSWITCH1_version2_list1,2022.2.4,144.0077646627375,
REPSWITCH1/PICTURE_610.png,miel,type,gold,switch,1,T,3,1,1,2,Stim2_Set3,0,None,56,55,56,0,55,55,55,,,,,,,,,,,,,,,,,,,,,,,299.4834670999553,300.6433530000504,300.6433530000504,300.6433530000504,300.6433530000504,300.6433530000504,300.6433530000504,300.6433530000504,300.6433530000504,"['m', 'i', 'e', 'l']",0,"[1.0663310999516398, 1.2549225999973714, 1.6008983000647277, 1.6701766999904066]",miel,C:\2023\REPSWITCH21092023\REPSWITCH_excgange\REPSWITCH_excgange\data/180201_REPSWITCH1_version2_list1_2023-11-30_11h32.58.730_micRespv2l1_recorded\recording_micRespv2l1_2023-11-30_11h37.51.920.wav,303.6645442999434,304.16462930012494,None,303.6645442999434,303.6645442999434,303.6645442999434,303.6645442999434,303.6645442999434,303.6645442999434,,,,,,180201,001,2023-11-30_11h32.58.730,REPSWITCH1_version2_list1,2022.2.4,144.0077646627375,
REPSWITCH1/PICTURE_175.png,pintor,type,gold,filler,1,F,3,1,1,2,Stim1_Set2,1,repeat,57,56,57,0,56,56,56,,,,,,,,,,,,,,,,,,,,,,,304.16462930012494,305.2065048001241,305.2065048001241,305.2065048001241,305.2065048001241,305.2065048001241,305.2065048001241,305.2065048001241,305.2065048001241,"['p', 'i', 'n', 't', 'o', 'r']",0,"[1.0868590997997671, 1.3184153998736292, 1.537713199853897, 1.739009799901396, 1.837713100016117, 1.9762630998156965]",pintor,C:\2023\REPSWITCH21092023\REPSWITCH_excgange\REPSWITCH_excgange\data/180201_REPSWITCH1_version2_list1_2023-11-30_11h32.58.730_micRespv2l1_recorded\recording_micRespv2l1_2023-11-30_11h37.56.483.wav,308.2276443000883,308.72772690001875,None,308.2276443000883,308.2276443000883,308.2276443000883,308.2276443000883,308.2276443000883,308.2276443000883,,,,,,180201,001,2023-11-30_11h32.58.730,REPSWITCH1_version2_list1,2022.2.4,144.0077646627375,
REPSWITCH1/PICTURE_242.png,cartero,type,gold,nontarget,1,NT,3,1,1,2,Stim3_Set3,1,repeat,58,57,58,0,57,57,57,,,,,,,,,,,,,,,,,,,,,,,308.72772690001875,309.7556825000793,309.7556825000793,309.7556825000793,309.7556825000793,309.7556825000793,309.7556825000793,309.7556825000793,309.7556825000793,"['c', 'a', 'r', 't', 'e', 'r', 'o']",0,"[1.2503088000230491, 1.3586381999775767, 1.4414756998885423, 1.5781946999486536, 1.6738610998727381, 1.8792119000572711, 1.9938133999239653]",cartero,C:\2023\REPSWITCH21092023\REPSWITCH_excgange\REPSWITCH_excgange\data/180201_REPSWITCH1_version2_list1_2023-11-30_11h32.58.730_micRespv2l1_recorded\recording_micRespv2l1_2023-11-30_11h38.01.033.wav,312.7838165999856,,None,312.7838165999856,312.7838165999856,312.7838165999856,312.7838165999856,312.7838165999856,312.7838165999856,,,,,,180201,001,2023-11-30_11h32.58.730,REPSWITCH1_version2_list1,2022.2.4,144.0077646627375,
REPSWITCH1/PICTURE_242.png,cartero,speak,darkblue,switch,2,T,3,1,1,2,Stim3_Set3,0,None,59,58,59,0,58,58,58,,,,,,,,,,,,,,,,,,,,,,,313.28386850003153,314.3395668999292,314.3395668999292,314.3395668999292,314.3395668999292,314.3395668999292,314.3395668999292,314.3395668999292,314.3395668999292,None,0,,,C:\2023\REPSWITCH21092023\REPSWITCH_excgange\REPSWITCH_excgange\data/180201_REPSWITCH1_version2_list1_2023-11-30_11h32.58.730_micRespv2l1_recorded\recording_micRespv2l1_2023-11-30_11h38.05.616.wav,317.3607948999852,317.8608621000312,None,317.3607948999852,317.3607948999852,317.3607948999852,317.3607948999852,317.3607948999852,317.3607948999852,,,,,,180201,001,2023-11-30_11h32.58.730,REPSWITCH1_version2_list1,2022.2.4,144.0077646627375,
REPSWITCH1/PICTURE_152.png,caracol,speak,darkblue,filler,2,F,3,1,1,2,Stim2_Set2,0,None,60,59,60,0,59,59,59,,,,,,,,,,,,,,,,,,,,,,,317.8608621000312,318.9860541000962,318.9860541000962,318.9860541000962,318.9860541000962,318.9860541000962,318.9860541000962,318.9860541000962,318.9860541000962,None,0,,,C:\2023\REPSWITCH21092023\REPSWITCH_excgange\REPSWITCH_excgange\data/180201_REPSWITCH1_version2_list1_2023-11-30_11h32.58.730_micRespv2l1_recorded\recording_micRespv2l1_2023-11-30_11h38.10.262.wav,322.0072788000107,322.5073116000276,None,322.0072788000107,322.0072788000107,322.0072788000107,322.0072788000107,322.0072788000107,322.0072788000107,,,,,,180201,001,2023-11-30_11h32.58.730,REPSWITCH1_version2_list1,2022.2.4,144.0077646627375,
REPSWITCH1/PICTURE_517.png,cuerda,type,gold,filler,1,F,3,1,1,2,Stim4_Set2,0,None,61,60,61,0,60,60,60,,,,,,,,,,,,,,,,,,,,,,,322.5073116000276,323.52838709997013,323.52838709997013,323.52838709997013,323.52838709997013,323.52838709997013,323.52838709997013,323.52838709997013,323.52838709997013,"['c', 'u', 'e', 'r', 'd', 'a']",0,"[1.131231599720195, 1.2069804999046028, 1.3945247998926789, 1.607834099791944, 1.7836979997809976, 1.86573509988375]",cuerda,C:\2023\REPSWITCH21092023\REPSWITCH_excgange\REPSWITCH_excgange\data/180201_REPSWITCH1_version2_list1_2023-11-30_11h32.58.730_micRespv2l1_recorded\recording_micRespv2l1_2023-11-30_11h38.14.805.wav,326.55646919994615,,None,326.55646919994615,326.55646919994615,326.55646919994615,326.55646919994615,326.55646919994615,326.55646919994615,,,,,,180201,001,2023-11-30_11h32.58.730,REPSWITCH1_version2_list1,2022.2.4,144.0077646627375,
REPSWITCH1/PICTURE_235.png,aguja,speak,darkblue,nontarget,2,NT,3,1,1,2,Stim4_Set3,1,switch,62,61,62,0,61,61,61,,,,,,,,,,,,,,,,,,,,,,,327.05654480005614,328.0913790999912,328.0913790999912,328.0913790999912,328.0913790999912,328.0913790999912,328.0913790999912,328.0913790999912,328.0913790999912,None,0,,,C:\2023\REPSWITCH21092023\REPSWITCH_excgange\REPSWITCH_excgange\data/180201_REPSWITCH1_version2_list1_2023-11-30_11h32.58.730_micRespv2l1_recorded\recording_micRespv2l1_2023-11-30_11h38.19.368.wav,331.1195676000789,,None,331.1195676000789,331.1195676000789,331.1195676000789,331.1195676000789,331.1195676000789,331.1195676000789,,,,,,180201,001,2023-11-30_11h32.58.730,REPSWITCH1_version2_list1,2022.2.4,144.0077646627375,
REPSWITCH1/PICTURE_235.png,aguja,speak,darkblue,repeat,2,T,3,1,1,2,Stim4_Set3,0,None,63,62,63,0,62,62,62,,,,,,,,,,,,,,,,,,,,,,,331.6196326999925,332.7378289999906,332.7378289999906,332.7378289999906,332.7378289999906,332.7378289999906,332.7378289999906,332.7378289999906,332.7378289999906,None,0,,,C:\2023\REPSWITCH21092023\REPSWITCH_excgange\REPSWITCH_excgange\data/180201_REPSWITCH1_version2_list1_2023-11-30_11h32.58.730_micRespv2l1_recorded\recording_micRespv2l1_2023-11-30_11h38.24.015.wav,335.7590467000846,336.25909600011073,None,335.7590467000846,335.7590467000846,335.7590467000846,335.7590467000846,335.7590467000846,335.7590467000846,,,,,,180201,001,2023-11-30_11h32.58.730,REPSWITCH1_version2_list1,2022.2.4,144.0077646627375,
REPSWITCH1/PICTURE_30.png,granja,type,gold,filler,1,F,3,1,1,2,Stim5_Set2,0,None,64,63,64,0,63,63,63,,,,,,,,,,,,,,,,,,,,,,,336.25909600011073,337.370437100064,337.370437100064,337.370437100064,337.370437100064,337.370437100064,337.370437100064,337.370437100064,337.370437100064,"['g', 'r', 'a', 'n', 'j', 'a']",0,"[1.2316874999087304, 1.402966900030151, 1.479031200055033, 1.8510992999654263, 1.9896118000615388, 2.040426200022921]",granja,C:\2023\REPSWITCH21092023\REPSWITCH_excgange\REPSWITCH_excgange\data/180201_REPSWITCH1_version2_list1_2023-11-30_11h32.58.730_micRespv2l1_recorded\recording_micRespv2l1_2023-11-30_11h38.28.647.wav,340.3985739001073,,None,340.3985739001073,340.3985739001073,340.3985739001073,340.3985739001073,340.3985739001073,340.3985739001073,,,,,,180201,001,2023-11-30_11h32.58.730,REPSWITCH1_version2_list1,2022.2.4,144.0077646627375,
REPSWITCH1/PICTURE_552.png,manzana,speak,darkblue,filler,2,F,3,1,1,2,Stim6_Set2,1,switch,65,64,65,0,64,64,64,,,,,,,,,,,,,,,,,,,,,,,340.8986007999629,342.0515676001087,342.0515676001087,342.0515676001087,342.0515676001087,342.0515676001087,342.0515676001087,342.0515676001087,342.0515676001087,None,0,,,C:\2023\REPSWITCH21092023\REPSWITCH_excgange\REPSWITCH_excgange\data/180201_REPSWITCH1_version2_list1_2023-11-30_11h32.58.730_micRespv2l1_recorded\recording_micRespv2l1_2023-11-30_11h38.33.328.wav,345.07974239997566,,None,345.07974239997566,345.07974239997566,345.07974239997566,345.07974239997566,345.07974239997566,345.07974239997566,,,,,,180201,001,2023-11-30_11h32.58.730,REPSWITCH1_version2_list1,2022.2.4,144.0077646627375,
REPSWITCH1/PICTURE_35.png,oreja,speak,darkblue,nontarget,2,NT,3,1,1,2,Stim5_Set3,1,repeat,66,65,66,0,65,65,65,,,,,,,,,,,,,,,,,,,,,,,345.5797920001205,346.7882775000762,346.7882775000762,346.7882775000762,346.7882775000762,346.7882775000762,346.7882775000762,346.7882775000762,346.7882775000762,None,0,,,C:\2023\REPSWITCH21092023\REPSWITCH_excgange\REPSWITCH_excgange\data/180201_REPSWITCH1_version2_list1_2023-11-30_11h32.58.730_micRespv2l1_recorded\recording_micRespv2l1_2023-11-30_11h38.38.064.wav,349.81647110008635,,None,349.81647110008635,349.81647110008635,349.81647110008635,349.81647110008635,349.81647110008635,349.81647110008635,,,,,,180201,001,2023-11-30_11h32.58.730,REPSWITCH1_version2_list1,2022.2.4,144.0077646627375,
REPSWITCH1/PICTURE_35.png,oreja,speak,darkblue,repeat,2,T,3,1,1,2,Stim5_Set3,0,None,67,66,67,0,66,66,66,,,,,,,,,,,,,,,,,,,,,,,350.31660900008865,351.42784500005655,351.42784500005655,351.42784500005655,351.42784500005655,351.42784500005655,351.42784500005655,351.42784500005655,351.42784500005655,None,0,,,C:\2023\REPSWITCH21092023\REPSWITCH_excgange\REPSWITCH_excgange\data/180201_REPSWITCH1_version2_list1_2023-11-30_11h32.58.730_micRespv2l1_recorded\recording_micRespv2l1_2023-11-30_11h38.42.703.wav,354.44907109998167,354.9490773000289,None,354.44907109998167,354.44907109998167,354.44907109998167,354.44907109998167,354.44907109998167,354.44907109998167,,,,,,180201,001,2023-11-30_11h32.58.730,REPSWITCH1_version2_list1,2022.2.4,144.0077646627375,
REPSWITCH1/PICTURE_673.png,tenedor,type,gold,filler,1,F,3,1,1,2,Extra5,0,None,68,67,68,0,67,67,67,,,,,,,,,,,,,,,,,,,,,,,354.9490773000289,356.0534181999974,356.0534181999974,356.0534181999974,356.0534181999974,356.0534181999974,356.0534181999974,356.0534181999974,356.0534181999974,"['t', 'e', 'n', 'b', 'e', 'backspace', 'backspace', 'b', 'e', 'd']",0,"[0.9865582997445017, 1.0718339998275042, 1.2278452997561544, 1.2288362998515368, 1.3085389998741448, 1.8718744998332113, 1.9964217997621745, 2.6326199998147786, 2.763918399810791, 2.950284499907866]",tebed,C:\2023\REPSWITCH21092023\REPSWITCH_excgange\REPSWITCH_excgange\data/180201_REPSWITCH1_version2_list1_2023-11-30_11h32.58.730_micRespv2l1_recorded\recording_micRespv2l1_2023-11-30_11h38.47.330.wav,359.081573799951,,None,359.081573799951,359.081573799951,359.081573799951,359.081573799951,359.081573799951,359.081573799951,,,,,,180201,001,2023-11-30_11h32.58.730,REPSWITCH1_version2_list1,2022.2.4,144.0077646627375,
REPSWITCH1/PICTURE_464.png,goma,speak,darkblue,nontarget,2,NT,3,1,1,2,Stim6_Set3,0,None,69,68,69,0,68,68,68,,,,,,,,,,,,,,,,,,,,,,,359.5816329000518,360.6443405000027,360.6443405000027,360.6443405000027,360.6443405000027,360.6443405000027,360.6443405000027,360.6443405000027,360.6443405000027,None,0,,,C:\2023\REPSWITCH21092023\REPSWITCH_excgange\REPSWITCH_excgange\data/180201_REPSWITCH1_version2_list1_2023-11-30_11h32.58.730_micRespv2l1_recorded\recording_micRespv2l1_2023-11-30_11h38.51.920.wav,363.6654697000049,364.16557099996135,None,363.6654697000049,363.6654697000049,363.6654697000049,363.6654697000049,363.6654697000049,363.6654697000049,,,,,,180201,001,2023-11-30_11h32.58.730,REPSWITCH1_version2_list1,2022.2.4,144.0077646627375,
REPSWITCH1/PICTURE_464.png,goma,type,gold,switch,1,T,3,1,1,2,Stim6_Set3,0,None,70,69,70,0,69,69,69,,,,,,,,,,,,,,,,,,,,,,,364.16557099996135,365.25597509997897,365.25597509997897,365.25597509997897,365.25597509997897,365.25597509997897,365.25597509997897,365.25597509997897,365.25597509997897,"['g', 'o', 'm', 'a']",0,"[0.9036055998876691, 1.0091868999879807, 1.5602833998855203, 1.6011594999581575]",goma,C:\2023\REPSWITCH21092023\REPSWITCH_excgange\REPSWITCH_excgange\data/180201_REPSWITCH1_version2_list1_2023-11-30_11h32.58.730_micRespv2l1_recorded\recording_micRespv2l1_2023-11-30_11h38.56.532.wav,368.2772246999666,368.7772892001085,None,368.2772246999666,368.2772246999666,368.2772246999666,368.2772246999666,368.2772246999666,368.2772246999666,,,,,,180201,001,2023-11-30_11h32.58.730,REPSWITCH1_version2_list1,2022.2.4,144.0077646627375,
REPSWITCH1/PICTURE_264.png,mano,speak,darkblue,filler,2,F,3,1,1,2,Stim3_Set2,0,None,71,70,71,0,70,70,70,,,,,,,,,,,,,,,,,,,,,,,368.7772892001085,369.87465990008786,369.87465990008786,369.87465990008786,369.87465990008786,369.87465990008786,369.87465990008786,369.87465990008786,369.87465990008786,None,0,,,C:\2023\REPSWITCH21092023\REPSWITCH_excgange\REPSWITCH_excgange\data/180201_REPSWITCH1_version2_list1_2023-11-30_11h32.58.730_micRespv2l1_recorded\recording_micRespv2l1_2023-11-30_11h39.01.151.wav,372.9028632999398,,None,372.9028632999398,372.9028632999398,372.9028632999398,372.9028632999398,372.9028632999398,372.9028632999398,,,,,,180201,001,2023-11-30_11h32.58.730,REPSWITCH1_version2_list1,2022.2.4,144.0077646627375,
REPSWITCH1/PICTURE_271.png,conejo,type,gold,nontarget,1,NT,3,1,1,2,Stim7_Set3,1,switch,72,71,72,0,71,71,71,,,,,,,,,,,,,,,,,,,,,,,373.4029433999676,374.49330490012653,374.49330490012653,374.49330490012653,374.49330490012653,374.49330490012653,374.49330490012653,374.49330490012653,374.49330490012653,"['c', 'o', 'n', 'e', 'j', 'o']",0,"[1.3742028998676687, 1.4329156000167131, 1.6408223998732865, 1.7573838999960572, 1.9148893000092357, 1.9896515998989344]",conejo,C:\2023\REPSWITCH21092023\REPSWITCH_excgange\REPSWITCH_excgange\data/180201_REPSWITCH1_version2_list1_2023-11-30_11h32.58.730_micRespv2l1_recorded\recording_micRespv2l1_2023-11-30_11h39.05.770.wav,377.52155720000155,,None,377.52155720000155,377.52155720000155,377.52155720000155,377.52155720000155,377.52155720000155,377.52155720000155,,,,,,180201,001,2023-11-30_11h32.58.730,REPSWITCH1_version2_list1,2022.2.4,144.0077646627375,
REPSWITCH1/PICTURE_271.png,conejo,type,gold,repeat,1,T,3,1,1,2,Stim7_Set3,0,None,73,72,73,0,72,72,72,,,,,,,,,,,,,,,,,,,,,,,378.0215418001171,379.06343260011636,379.06343260011636,379.06343260011636,379.06343260011636,379.06343260011636,379.06343260011636,379.06343260011636,379.06343260011636,"['c', 'o', 'n', 'e', 'j', 'o']",0,"[1.3440827999729663, 1.4082150999456644, 1.6044568999204785, 1.738051600055769, 1.849675599951297, 1.9333933999296278]",conejo,C:\2023\REPSWITCH21092023\REPSWITCH_excgange\REPSWITCH_excgange\data/180201_REPSWITCH1_version2_list1_2023-11-30_11h32.58.730_micRespv2l1_recorded\recording_micRespv2l1_2023-11-30_11h39.10.341.wav,382.0915371000301,,None,382.0915371000301,382.0915371000301,382.0915371000301,382.0915371000301,382.0915371000301,382.0915371000301,,,,,,180201,001,2023-11-30_11h32.58.730,REPSWITCH1_version2_list1,2022.2.4,144.0077646627375,
REPSWITCH1/PICTURE_446.png,cerdo,speak,darkblue,filler,2,F,3,1,1,2,Stim7_Set2,0,None,74,73,74,0,73,73,73,,,,,,,,,,,,,,,,,,,,,,,382.59159799991176,383.7654263000004,383.7654263000004,383.7654263000004,383.7654263000004,383.7654263000004,383.7654263000004,383.7654263000004,383.7654263000004,None,0,,,C:\2023\REPSWITCH21092023\REPSWITCH_excgange\REPSWITCH_excgange\data/180201_REPSWITCH1_version2_list1_2023-11-30_11h32.58.730_micRespv2l1_recorded\recording_micRespv2l1_2023-11-30_11h39.15.042.wav,386.7935429001227,,None,386.7935429001227,386.7935429001227,386.7935429001227,386.7935429001227,386.7935429001227,386.7935429001227,,,,,,180201,001,2023-11-30_11h32.58.730,REPSWITCH1_version2_list1,2022.2.4,144.0077646627375,
REPSWITCH1/PICTURE_199.png,falda,type,gold,filler,1,F,3,1,1,2,Stim8_Set2,1,switch,75,74,75,0,74,74,74,,,,,,,,,,,,,,,,,,,,,,,387.2936058999039,388.3909791999031,388.3909791999031,388.3909791999031,388.3909791999031,388.3909791999031,388.3909791999031,388.3909791999031,388.3909791999031,"['f', 'a', 'k', 'backspace', 'l', 'd', 'a']",0,"[0.9746323998551816, 1.4251248999498785, 1.492858099984005, 1.8099341997876763, 2.0681121998932213, 2.345166399842128, 2.4199285998474807]",falda,C:\2023\REPSWITCH21092023\REPSWITCH_excgange\REPSWITCH_excgange\data/180201_REPSWITCH1_version2_list1_2023-11-30_11h32.58.730_micRespv2l1_recorded\recording_micRespv2l1_2023-11-30_11h39.19.667.wav,391.4121654999908,391.9123384000268,None,391.4121654999908,391.4121654999908,391.4121654999908,391.4121654999908,391.4121654999908,391.4121654999908,,,,,,180201,001,2023-11-30_11h32.58.730,REPSWITCH1_version2_list1,2022.2.4,144.0077646627375,
REPSWITCH1/PICTURE_320.png,iglesia,type,gold,nontarget,1,NT,3,1,1,2,Stim8_Set3,1,repeat,76,75,76,0,75,75,75,,,,,,,,,,,,,,,,,,,,,,,391.9123384000268,393.05133759998716,393.05133759998716,393.05133759998716,393.05133759998716,393.05133759998716,393.05133759998716,393.05133759998716,393.05133759998716,"['i', 'g', 'l', 'e', 's', 'i', 'a']",0,"[1.1776981998700649, 1.4089245998766273, 1.494688999839127, 1.6700520997401327, 1.8903113997075707, 2.019900099840015, 2.1297053997404873]",iglesia,C:\2023\REPSWITCH21092023\REPSWITCH_excgange\REPSWITCH_excgange\data/180201_REPSWITCH1_version2_list1_2023-11-30_11h32.58.730_micRespv2l1_recorded\recording_micRespv2l1_2023-11-30_11h39.24.328.wav,396.0794860001188,,None,396.0794860001188,396.0794860001188,396.0794860001188,396.0794860001188,396.0794860001188,396.0794860001188,,,,,,180201,001,2023-11-30_11h32.58.730,REPSWITCH1_version2_list1,2022.2.4,144.0077646627375,
REPSWITCH1/PICTURE_320.png,iglesia,type,gold,repeat,1,T,3,1,1,2,Stim8_Set3,0,None,77,76,77,0,76,76,76,,,,,,,,,,,,,,,,,,,,,,,396.57961999997497,397.65612750011496,397.65612750011496,397.65612750011496,397.65612750011496,397.65612750011496,397.65612750011496,397.65612750011496,397.65612750011496,"['i', 'g', 'l', 'e', 's', 'i', 'a']",0,"[0.8925403000321239, 1.1337180000264198, 1.23270839988254, 1.4017788998316973, 1.6190446999389678, 1.7517988998442888, 1.8475146000273526]",iglesia,C:\2023\REPSWITCH21092023\REPSWITCH_excgange\REPSWITCH_excgange\data/180201_REPSWITCH1_version2_list1_2023-11-30_11h32.58.730_micRespv2l1_recorded\recording_micRespv2l1_2023-11-30_11h39.28.933.wav,400.6843139999546,,None,400.6843139999546,400.6843139999546,400.6843139999546,400.6843139999546,400.6843139999546,400.6843139999546,,,,,,180201,001,2023-11-30_11h32.58.730,REPSWITCH1_version2_list1,2022.2.4,144.0077646627375,
REPSWITCH1/PICTURE_576.png,guante,speak,darkblue,filler,2,F,4,1,1,2,Stim1_Set3,0,None,78,77,78,0,77,77,77,,,,,,,,,,,,,,,,,,,,,,,401.1843185001053,402.3164280001074,402.3164280001074,402.3164280001074,402.3164280001074,402.3164280001074,402.3164280001074,402.3164280001074,402.3164280001074,None,0,,,C:\2023\REPSWITCH21092023\REPSWITCH_excgange\REPSWITCH_excgange\data/180201_REPSWITCH1_version2_list1_2023-11-30_11h32.58.730_micRespv2l1_recorded\recording_micRespv2l1_2023-11-30_11h39.33.593.wav,405.337658100063,405.8377018000465,None,405.337658100063,405.337658100063,405.337658100063,405.337658100063,405.337658100063,405.337658100063,,,,,,180201,001,2023-11-30_11h32.58.730,REPSWITCH1_version2_list1,2022.2.4,144.0077646627375,
REPSWITCH1/PICTURE_319.png,vaca,type,gold,nontarget,1,NT,4,1,1,2,Stim1_Set4,1,switch,79,78,79,0,78,78,78,,,,,,,,,,,,,,,,,,,,,,,405.8377018000465,406.9073501001112,406.9073501001112,406.9073501001112,406.9073501001112,406.9073501001112,406.9073501001112,406.9073501001112,406.9073501001112,"['v', 'a', 'c', 'a']",0,"[1.0677481999155134, 1.1534739998169243, 1.2320281998254359, 1.3498730999417603]",vaca,C:\2023\REPSWITCH21092023\REPSWITCH_excgange\REPSWITCH_excgange\data/180201_REPSWITCH1_version2_list1_2023-11-30_11h32.58.730_micRespv2l1_recorded\recording_micRespv2l1_2023-11-30_11h39.38.184.wav,409.9354602000676,,None,409.9354602000676,409.9354602000676,409.9354602000676,409.9354602000676,409.9354602000676,409.9354602000676,,,,,,180201,001,2023-11-30_11h32.58.730,REPSWITCH1_version2_list1,2022.2.4,144.0077646627375,
REPSWITCH1/PICTURE_319.png,vaca,type,gold,repeat,1,T,4,1,1,2,Stim1_Set4,0,None,80,79,80,0,79,79,79,,,,,,,,,,,,,,,,,,,,,,,410.435526000103,411.4981555000413,411.4981555000413,411.4981555000413,411.4981555000413,411.4981555000413,411.4981555000413,411.4981555000413,411.4981555000413,"['v', 'a', 'c', 'a']",0,"[0.9585955999791622, 1.0281869999598712, 1.1130456998944283, 1.2180335999000818]",vaca,C:\2023\REPSWITCH21092023\REPSWITCH_excgange\REPSWITCH_excgange\data/180201_REPSWITCH1_version2_list1_2023-11-30_11h32.58.730_micRespv2l1_recorded\recording_micRespv2l1_2023-11-30_11h39.42.775.wav,414.5263753000181,,None,414.5263753000181,414.5263753000181,414.5263753000181,414.5263753000181,414.5263753000181,414.5263753000181,,,,,,180201,001,2023-11-30_11h32.58.730,REPSWITCH1_version2_list1,2022.2.4,144.0077646627375,
REPSWITCH1/PICTURE_719.png,baño,type,gold,nontarget,1,NT,4,1,1,2,Stim2_Set4,0,None,81,80,81,0,80,80,80,,,,,,,,,,,,,,,,,,,,,,,415.0264660001267,416.1237544999458,416.1237544999458,416.1237544999458,416.1237544999458,416.1237544999458,416.1237544999458,416.1237544999458,416.1237544999458,"['b', 'a', 'ñ', 'o']",0,"[1.2441707998514175, 1.6175970998592675, 1.7700298998970538, 1.9566228999756277]",baño,C:\2023\REPSWITCH21092023\REPSWITCH_excgange\REPSWITCH_excgange\data/180201_REPSWITCH1_version2_list1_2023-11-30_11h32.58.730_micRespv2l1_recorded\recording_micRespv2l1_2023-11-30_11h39.47.401.wav,419.1519607999362,419.6519935000688,None,419.1519607999362,419.1519607999362,419.1519607999362,419.1519607999362,419.1519607999362,419.1519607999362,,,,,,180201,001,2023-11-30_11h32.58.730,REPSWITCH1_version2_list1,2022.2.4,144.0077646627375,
REPSWITCH1/PICTURE_719.png,baño,speak,darkblue,switch,2,T,4,1,1,2,Stim2_Set4,0,None,82,81,82,0,81,81,81,,,,,,,,,,,,,,,,,,,,,,,419.6519935000688,420.72160849999636,420.72160849999636,420.72160849999636,420.72160849999636,420.72160849999636,420.72160849999636,420.72160849999636,420.72160849999636,None,0,,,C:\2023\REPSWITCH21092023\REPSWITCH_excgange\REPSWITCH_excgange\data/180201_REPSWITCH1_version2_list1_2023-11-30_11h32.58.730_micRespv2l1_recorded\recording_micRespv2l1_2023-11-30_11h39.51.998.wav,423.74976669996977,,None,423.74976669996977,423.74976669996977,423.74976669996977,423.74976669996977,423.74976669996977,423.74976669996977,,,,,,180201,001,2023-11-30_11h32.58.730,REPSWITCH1_version2_list1,2022.2.4,144.0077646627375,
REPSWITCH1/PICTURE_242.png,cartero,speak,darkblue,filler,2,F,4,1,1,2,Stim3_Set3,1,repeat,83,82,83,0,82,82,82,,,,,,,,,,,,,,,,,,,,,,,424.2498055000324,425.2778147000354,425.2778147000354,425.2778147000354,425.2778147000354,425.2778147000354,425.2778147000354,425.2778147000354,425.2778147000354,None,0,,,C:\2023\REPSWITCH21092023\REPSWITCH_excgange\REPSWITCH_excgange\data/180201_REPSWITCH1_version2_list1_2023-11-30_11h32.58.730_micRespv2l1_recorded\recording_micRespv2l1_2023-11-30_11h39.56.554.wav,428.30590829998255,,None,428.30590829998255,428.30590829998255,428.30590829998255,428.30590829998255,428.30590829998255,428.30590829998255,,,,,,180201,001,2023-11-30_11h32.58.730,REPSWITCH1_version2_list1,2022.2.4,144.0077646627375,
REPSWITCH1/PICTURE_610.png,miel,type,gold,filler,1,F,4,1,1,2,Stim2_Set3,0,None,84,83,84,0,83,83,83,,,,,,,,,,,,,,,,,,,,,,,428.8059686999768,429.9797541999724,429.9797541999724,429.9797541999724,429.9797541999724,429.9797541999724,429.9797541999724,429.9797541999724,429.9797541999724,"['m', 'i', 'e', 'l']",0,"[1.1609465000219643, 1.3722435999661684, 1.535904600052163, 1.6236215999815613]",miel,C:\2023\REPSWITCH21092023\REPSWITCH_excgange\REPSWITCH_excgange\data/180201_REPSWITCH1_version2_list1_2023-11-30_11h32.58.730_micRespv2l1_recorded\recording_micRespv2l1_2023-11-30_11h40.01.256.wav,433.0009677999187,433.5010452999268,None,433.0009677999187,433.0009677999187,433.0009677999187,433.0009677999187,433.0009677999187,433.0009677999187,,,,,,180201,001,2023-11-30_11h32.58.730,REPSWITCH1_version2_list1,2022.2.4,144.0077646627375,
REPSWITCH1/PICTURE_8.png,pierna,speak,darkblue,nontarget,2,NT,4,1,1,2,Stim3_Set4,1,switch,85,84,85,0,84,84,84,,,,,,,,,,,,,,,,,,,,,,,433.5010452999268,434.5706557999365,434.5706557999365,434.5706557999365,434.5706557999365,434.5706557999365,434.5706557999365,434.5706557999365,434.5706557999365,None,0,,,C:\2023\REPSWITCH21092023\REPSWITCH_excgange\REPSWITCH_excgange\data/180201_REPSWITCH1_version2_list1_2023-11-30_11h32.58.730_micRespv2l1_recorded\recording_micRespv2l1_2023-11-30_11h40.05.847.wav,437.5987960000057,,None,437.5987960000057,437.5987960000057,437.5987960000057,437.5987960000057,437.5987960000057,437.5987960000057,,,,,,180201,001,2023-11-30_11h32.58.730,REPSWITCH1_version2_list1,2022.2.4,144.0077646627375,
REPSWITCH1/PICTURE_8.png,pierna,speak,darkblue,repeat,2,T,4,1,1,2,Stim3_Set4,0,None,86,85,86,0,85,85,85,,,,,,,,,,,,,,,,,,,,,,,438.098858299898,439.2032300999854,439.2032300999854,439.2032300999854,439.2032300999854,439.2032300999854,439.2032300999854,439.2032300999854,439.2032300999854,None,0,,,C:\2023\REPSWITCH21092023\REPSWITCH_excgange\REPSWITCH_excgange\data/180201_REPSWITCH1_version2_list1_2023-11-30_11h32.58.730_micRespv2l1_recorded\recording_micRespv2l1_2023-11-30_11h40.10.479.wav,442.22443050006405,442.7244957999792,None,442.22443050006405,442.22443050006405,442.22443050006405,442.22443050006405,442.22443050006405,442.22443050006405,,,,,,180201,001,2023-11-30_11h32.58.730,REPSWITCH1_version2_list1,2022.2.4,144.0077646627375,
REPSWITCH1/PICTURE_498.png,taza,speak,darkblue,nontarget,2,NT,4,1,1,2,Stim4_Set4,1,repeat,87,86,87,0,86,86,86,,,,,,,,,,,,,,,,,,,,,,,442.7244957999792,443.8912961001042,443.8912961001042,443.8912961001042,443.8912961001042,443.8912961001042,443.8912961001042,443.8912961001042,443.8912961001042,None,0,,,C:\2023\REPSWITCH21092023\REPSWITCH_excgange\REPSWITCH_excgange\data/180201_REPSWITCH1_version2_list1_2023-11-30_11h32.58.730_micRespv2l1_recorded\recording_micRespv2l1_2023-11-30_11h40.15.167.wav,446.91254290007055,447.4126709001139,None,446.91254290007055,446.91254290007055,446.91254290007055,446.91254290007055,446.91254290007055,446.91254290007055,,,,,,180201,001,2023-11-30_11h32.58.730,REPSWITCH1_version2_list1,2022.2.4,144.0077646627375,
REPSWITCH1/PICTURE_498.png,taza,type,gold,switch,1,T,4,1,1,2,Stim4_Set4,0,None,88,87,88,0,87,87,87,,,,,,,,,,,,,,,,,,,,,,,447.4126709001139,448.42663990007713,448.42663990007713,448.42663990007713,448.42663990007713,448.42663990007713,448.42663990007713,448.42663990007713,448.42663990007713,"['t', 'a', 'z', 'a']",0,"[0.9150354997254908, 1.1315571998711675, 1.3202040998730808, 1.4977646998595446]",taza,C:\2023\REPSWITCH21092023\REPSWITCH_excgange\REPSWITCH_excgange\data/180201_REPSWITCH1_version2_list1_2023-11-30_11h32.58.730_micRespv2l1_recorded\recording_micRespv2l1_2023-11-30_11h40.19.703.wav,451.44783390010707,451.9478961999994,None,451.44783390010707,451.44783390010707,451.44783390010707,451.44783390010707,451.44783390010707,451.44783390010707,,,,,,180201,001,2023-11-30_11h32.58.730,REPSWITCH1_version2_list1,2022.2.4,144.0077646627375,
REPSWITCH1/PICTURE_235.png,aguja,speak,darkblue,filler,2,F,4,1,1,2,Stim4_Set3,0,None,89,88,89,0,88,88,88,,,,,,,,,,,,,,,,,,,,,,,451.9478961999994,453.0313846000936,453.0313846000936,453.0313846000936,453.0313846000936,453.0313846000936,453.0313846000936,453.0313846000936,453.0313846000936,None,0,,,C:\2023\REPSWITCH21092023\REPSWITCH_excgange\REPSWITCH_excgange\data/180201_REPSWITCH1_version2_list1_2023-11-30_11h32.58.730_micRespv2l1_recorded\recording_micRespv2l1_2023-11-30_11h40.24.308.wav,456.05261519993655,456.5527653999161,None,456.05261519993655,456.05261519993655,456.05261519993655,456.05261519993655,456.05261519993655,456.05261519993655,,,,,,180201,001,2023-11-30_11h32.58.730,REPSWITCH1_version2_list1,2022.2.4,144.0077646627375,
REPSWITCH1/PICTURE_35.png,oreja,type,gold,filler,1,F,4,1,1,2,Stim5_Set3,0,None,90,89,90,0,89,89,89,,,,,,,,,,,,,,,,,,,,,,,456.5527653999161,457.61532120010816,457.61532120010816,457.61532120010816,457.61532120010816,457.61532120010816,457.61532120010816,457.61532120010816,457.61532120010816,"['o', 'r', 'e', 'j', 'a']",0,"[1.072113499743864, 1.3699391998816282, 1.4785697998013347, 1.824691099813208, 1.8926186996977776]",oreja,C:\2023\REPSWITCH21092023\REPSWITCH_excgange\REPSWITCH_excgange\data/180201_REPSWITCH1_version2_list1_2023-11-30_11h32.58.730_micRespv2l1_recorded\recording_micRespv2l1_2023-11-30_11h40.28.892.wav,460.64352370006964,,None,460.64352370006964,460.64352370006964,460.64352370006964,460.64352370006964,460.64352370006964,460.64352370006964,,,,,,180201,001,2023-11-30_11h32.58.730,REPSWITCH1_version2_list1,2022.2.4,144.0077646627375,
REPSWITCH1/PICTURE_687.png,camisa,type,gold,nontarget,1,NT,4,1,1,2,Stim5_Set4,1,repeat,91,90,91,0,90,90,90,,,,,,,,,,,,,,,,,,,,,,,461.14357100008056,462.21315540000796,462.21315540000796,462.21315540000796,462.21315540000796,462.21315540000796,462.21315540000796,462.21315540000796,462.21315540000796,"['c', 'a', 'm', 'i', 's', 'a']",0,"[0.9043262000195682, 0.9859905999619514, 1.3235523998737335, 1.5283862999640405, 1.6490203000139445, 1.8312718998640776]",camisa,C:\2023\REPSWITCH21092023\REPSWITCH_excgange\REPSWITCH_excgange\data/180201_REPSWITCH1_version2_list1_2023-11-30_11h32.58.730_micRespv2l1_recorded\recording_micRespv2l1_2023-11-30_11h40.33.490.wav,465.24133490002714,,None,465.24133490002714,465.24133490002714,465.24133490002714,465.24133490002714,465.24133490002714,465.24133490002714,,,,,,180201,001,2023-11-30_11h32.58.730,REPSWITCH1_version2_list1,2022.2.4,144.0077646627375,
REPSWITCH1/PICTURE_687.png,camisa,speak,darkblue,switch,2,T,4,1,1,2,Stim5_Set4,0,None,92,91,92,0,91,91,91,,,,,,,,,,,,,,,,,,,,,,,465.74139570002444,466.8873574999161,466.8873574999161,466.8873574999161,466.8873574999161,466.8873574999161,466.8873574999161,466.8873574999161,466.8873574999161,None,0,,,C:\2023\REPSWITCH21092023\REPSWITCH_excgange\REPSWITCH_excgange\data/180201_REPSWITCH1_version2_list1_2023-11-30_11h32.58.730_micRespv2l1_recorded\recording_micRespv2l1_2023-11-30_11h40.38.164.wav,469.90866119996645,470.40874919993803,None,469.90866119996645,469.90866119996645,469.90866119996645,469.90866119996645,469.90866119996645,469.90866119996645,,,,,,180201,001,2023-11-30_11h32.58.730,REPSWITCH1_version2_list1,2022.2.4,144.0077646627375,
REPSWITCH1/PICTURE_338.png,regalo,speak,darkblue,nontarget,2,NT,4,1,1,2,Stim6_Set4,0,None,93,92,93,0,92,92,92,,,,,,,,,,,,,,,,,,,,,,,470.40874919993803,471.5199160000775,471.5199160000775,471.5199160000775,471.5199160000775,471.5199160000775,471.5199160000775,471.5199160000775,471.5199160000775,None,0,,,C:\2023\REPSWITCH21092023\REPSWITCH_excgange\REPSWITCH_excgange\data/180201_REPSWITCH1_version2_list1_2023-11-30_11h32.58.730_micRespv2l1_recorded\recording_micRespv2l1_2023-11-30_11h40.42.796.wav,474.54116869997233,475.0412894000765,None,474.54116869997233,474.54116869997233,474.54116869997233,474.54116869997233,474.54116869997233,474.54116869997233,,,,,,180201,001,2023-11-30_11h32.58.730,REPSWITCH1_version2_list1,2022.2.4,144.0077646627375,
REPSWITCH1/PICTURE_338.png,regalo,speak,darkblue,repeat,2,T,4,1,1,2,Stim6_Set4,0,None,94,93,94,0,93,93,93,,,,,,,,,,,,,,,,,,,,,,,475.0412894000765,476.1247030000668,476.1247030000668,476.1247030000668,476.1247030000668,476.1247030000668,476.1247030000668,476.1247030000668,476.1247030000668,None,0,,,C:\2023\REPSWITCH21092023\REPSWITCH_excgange\REPSWITCH_excgange\data/180201_REPSWITCH1_version2_list1_2023-11-30_11h32.58.730_micRespv2l1_recorded\recording_micRespv2l1_2023-11-30_11h40.47.401.wav,479.1459457001183,479.6459727000911,None,479.1459457001183,479.1459457001183,479.1459457001183,479.1459457001183,479.1459457001183,479.1459457001183,,,,,,180201,001,2023-11-30_11h32.58.730,REPSWITCH1_version2_list1,2022.2.4,144.0077646627375,
REPSWITCH1/PICTURE_663.png,columna,type,gold,filler,1,F,4,1,1,2,Extra6,0,None,95,94,95,0,94,94,94,,,,,,,,,,,,,,,,,,,,,,,479.6459727000911,480.7364048999734,480.7364048999734,480.7364048999734,480.7364048999734,480.7364048999734,480.7364048999734,480.7364048999734,480.7364048999734,"['c', 'o', 'l', 'u', 'm', 'n', 'a']",0,"[1.3403235997539014, 1.444135399768129, 1.5979858997743577, 1.8161898998077959, 1.9950360998045653, 2.1614342997781932, 2.245057099731639]",columna,C:\2023\REPSWITCH21092023\REPSWITCH_excgange\REPSWITCH_excgange\data/180201_REPSWITCH1_version2_list1_2023-11-30_11h32.58.730_micRespv2l1_recorded\recording_micRespv2l1_2023-11-30_11h40.52.012.wav,483.7576303000096,484.25771200004965,None,483.7576303000096,483.7576303000096,483.7576303000096,483.7576303000096,483.7576303000096,483.7576303000096,,,,,,180201,001,2023-11-30_11h32.58.730,REPSWITCH1_version2_list1,2022.2.4,144.0077646627375,
REPSWITCH1/PICTURE_271.png,conejo,speak,darkblue,filler,2,F,4,1,1,2,Stim7_Set3,0,None,96,95,96,0,95,95,95,,,,,,,,,,,,,,,,,,,,,,,484.25771200004965,485.4106638999656,485.4106638999656,485.4106638999656,485.4106638999656,485.4106638999656,485.4106638999656,485.4106638999656,485.4106638999656,None,0,,,C:\2023\REPSWITCH21092023\REPSWITCH_excgange\REPSWITCH_excgange\data/180201_REPSWITCH1_version2_list1_2023-11-30_11h32.58.730_micRespv2l1_recorded\recording_micRespv2l1_2023-11-30_11h40.56.688.wav,488.43879720009863,,None,488.43879720009863,488.43879720009863,488.43879720009863,488.43879720009863,488.43879720009863,488.43879720009863,,,,,,180201,001,2023-11-30_11h32.58.730,REPSWITCH1_version2_list1,2022.2.4,144.0077646627375,
REPSWITCH1/PICTURE_48.png,bombero,speak,darkblue,nontarget,2,NT,4,1,1,2,Stim7_Set4,0,None,97,96,97,0,96,96,96,,,,,,,,,,,,,,,,,,,,,,,488.93884840002283,489.9737615000922,489.9737615000922,489.9737615000922,489.9737615000922,489.9737615000922,489.9737615000922,489.9737615000922,489.9737615000922,None,0,,,C:\2023\REPSWITCH21092023\REPSWITCH_excgange\REPSWITCH_excgange\data/180201_REPSWITCH1_version2_list1_2023-11-30_11h32.58.730_micRespv2l1_recorded\recording_micRespv2l1_2023-11-30_11h41.01.250.wav,492.9949509999715,493.49503459990956,None,492.9949509999715,492.9949509999715,492.9949509999715,492.9949509999715,492.9949509999715,492.9949509999715,,,,,,180201,001,2023-11-30_11h32.58.730,REPSWITCH1_version2_list1,2022.2.4,144.0077646627375,
REPSWITCH1/PICTURE_48.png,bombero,type,gold,switch,1,T,4,1,1,2,Stim7_Set4,0,None,98,97,98,0,97,97,97,,,,,,,,,,,,,,,,,,,,,,,493.49503459990956,494.599353000056,494.599353000056,494.599353000056,494.599353000056,494.599353000056,494.599353000056,494.599353000056,494.599353000056,"['b', 'o', 'b', 'e', 'r', 'o']",0,"[1.1832437999546528, 1.2593572000041604, 2.5266616998706013, 2.6004144998732954, 2.7716890999581665, 2.8334087999537587]",bobero,C:\2023\REPSWITCH21092023\REPSWITCH_excgange\REPSWITCH_excgange\data/180201_REPSWITCH1_version2_list1_2023-11-30_11h32.58.730_micRespv2l1_recorded\recording_micRespv2l1_2023-11-30_11h41.05.875.wav,497.62058550002985,498.1206431000028,None,497.62058550002985,497.62058550002985,497.62058550002985,497.62058550002985,497.62058550002985,497.62058550002985,,,,,,180201,001,2023-11-30_11h32.58.730,REPSWITCH1_version2_list1,2022.2.4,144.0077646627375,
REPSWITCH1/PICTURE_728.png,pulpo,type,gold,nontarget,1,NT,4,1,1,2,Stim8_Set4,0,None,99,98,99,0,98,98,98,,,,,,,,,,,,,,,,,,,,,,,498.1206431000028,499.2319827999454,499.2319827999454,499.2319827999454,499.2319827999454,499.2319827999454,499.2319827999454,499.2319827999454,499.2319827999454,"['p', 'l']",0,"[2.077195799909532, 2.7733857999555767]",pl,C:\2023\REPSWITCH21092023\REPSWITCH_excgange\REPSWITCH_excgange\data/180201_REPSWITCH1_version2_list1_2023-11-30_11h32.58.730_micRespv2l1_recorded\recording_micRespv2l1_2023-11-30_11h41.10.508.wav,502.26014419994317,,None,502.26014419994317,502.26014419994317,502.26014419994317,502.26014419994317,502.26014419994317,502.26014419994317,,,,,,180201,001,2023-11-30_11h32.58.730,REPSWITCH1_version2_list1,2022.2.4,144.0077646627375,
REPSWITCH1/PICTURE_728.png,pulpo,type,gold,repeat,1,T,4,1,1,2,Stim8_Set4,0,None,100,99,100,0,99,99,99,,,,,,,,,,,,,,,,,,,,,,,502.76014350005426,503.84363860008307,503.84363860008307,503.84363860008307,503.84363860008307,503.84363860008307,503.84363860008307,503.84363860008307,503.84363860008307,"['p', 'u', 'l', 'p', 'o']",0,"[1.0017927999142557, 1.3665647997986525, 1.8011694997549057, 1.9711555999238044, 2.0569010998588055]",pulpo,C:\2023\REPSWITCH21092023\REPSWITCH_excgange\REPSWITCH_excgange\data/180201_REPSWITCH1_version2_list1_2023-11-30_11h32.58.730_micRespv2l1_recorded\recording_micRespv2l1_2023-11-30_11h41.15.120.wav,506.864828000078,507.36489169998094,None,506.864828000078,506.864828000078,506.864828000078,506.864828000078,506.864828000078,506.864828000078,,,,,,180201,001,2023-11-30_11h32.58.730,REPSWITCH1_version2_list1,2022.2.4,144.0077646627375,
REPSWITCH1/PICTURE_320.png,iglesia,speak,darkblue,filler,1,F,4,1,1,2,Stim8_Set3,0,None,101,100,101,0,100,100,100,,,,,,,,,,,,,,,,,,,,,,,507.36489169998094,508.4553688999731,508.4553688999731,508.4553688999731,508.4553688999731,508.4553688999731,508.4553688999731,508.4553688999731,508.4553688999731,None,0,,,C:\2023\REPSWITCH21092023\REPSWITCH_excgange\REPSWITCH_excgange\data/180201_REPSWITCH1_version2_list1_2023-11-30_11h32.58.730_micRespv2l1_recorded\recording_micRespv2l1_2023-11-30_11h41.19.732.wav,511.47663950012065,511.9766154999379,None,511.47663950012065,511.47663950012065,511.47663950012065,511.47663950012065,511.47663950012065,511.47663950012065,,,,,,180201,001,2023-11-30_11h32.58.730,REPSWITCH1_version2_list1,2022.2.4,144.0077646627375,
REPSWITCH1/PICTURE_464.png,goma,type,gold,filler,1,F,4,1,1,2,Stim6_Set3,0,None,102,101,102,0,101,101,101,,,,,,,,,,,,,,,,,,,,,,,511.9766154999379,513.1017561999615,513.1017561999615,513.1017561999615,513.1017561999615,513.1017561999615,513.1017561999615,513.1017561999615,513.1017561999615,"['g', 'o', 'm', 'a']",0,"[1.2454677999485284, 1.3511091999243945, 1.7356219999492168, 1.8043459998443723]",goma,C:\2023\REPSWITCH21092023\REPSWITCH_excgange\REPSWITCH_excgange\data/180201_REPSWITCH1_version2_list1_2023-11-30_11h32.58.730_micRespv2l1_recorded\recording_micRespv2l1_2023-11-30_11h41.24.378.wav,516.1229894000571,516.6230663000606,space,516.1229894000571,516.1229894000571,516.1229894000571,516.1229894000571,516.1229894000571,516.1229894000571,516.6230663000606,516.6230663000606,32.05066489987075,,,180201,001,2023-11-30_11h32.58.730,REPSWITCH1_version2_list1,2022.2.4,144.0077646627375,
REPSWITCH1/PICTURE_663.png,columna,type,gold,filler,1,F,1,2,1,2,Extra6,0,None,103,102,1,0,102,102,102,,,,,,,,,,,,,,,,,,,,,,,548.6827958999202,549.7733195000328,549.7733195000328,549.7733195000328,549.7733195000328,549.7733195000328,549.7733195000328,549.7733195000328,549.7733195000328,"['c', 'o', 'l', 'u', 'm', 'n', 'a']",0,"[1.191213299985975, 1.4987506999168545, 1.668189800111577, 1.8912748999428004, 2.0990605000406504, 2.271453799912706, 2.3699199999682605]",columna,C:\2023\REPSWITCH21092023\REPSWITCH_excgange\REPSWITCH_excgange\data/180201_REPSWITCH1_version2_list1_2023-11-30_11h32.58.730_micRespv2l1_recorded\recording_micRespv2l1_2023-11-30_11h42.01.050.wav,552.7945199999958,553.2945485999808,None,552.7945199999958,552.7945199999958,552.7945199999958,552.7945199999958,552.7945199999958,552.7945199999958,,,,,,180201,001,2023-11-30_11h32.58.730,REPSWITCH1_version2_list1,2022.2.4,144.0077646627375,
REPSWITCH1/PICTURE_128.png,muñeca,speak,darkblue,nontarget,2,NT,1,2,1,2,Stim4_Set1,1,switch,104,103,2,0,103,103,103,,,,,,,,,,,,,,,,,,,,,,,553.2945485999808,554.475241499953,554.475241499953,554.475241499953,554.475241499953,554.475241499953,554.475241499953,554.475241499953,554.475241499953,None,0,,,C:\2023\REPSWITCH21092023\REPSWITCH_excgange\REPSWITCH_excgange\data/180201_REPSWITCH1_version2_list1_2023-11-30_11h32.58.730_micRespv2l1_recorded\recording_micRespv2l1_2023-11-30_11h42.05.752.wav,557.4964775999542,557.9965542999562,None,557.4964775999542,557.4964775999542,557.4964775999542,557.4964775999542,557.4964775999542,557.4964775999542,,,,,,180201,001,2023-11-30_11h32.58.730,REPSWITCH1_version2_list1,2022.2.4,144.0077646627375,
REPSWITCH1/PICTURE_128.png,muñeca,speak,darkblue,repeat,2,T,1,2,1,2,Stim4_Set1,0,None,105,104,3,0,104,104,104,,,,,,,,,,,,,,,,,,,,,,,557.9965542999562,559.0800087000243,559.0800087000243,559.0800087000243,559.0800087000243,559.0800087000243,559.0800087000243,559.0800087000243,559.0800087000243,None,0,,,C:\2023\REPSWITCH21092023\REPSWITCH_excgange\REPSWITCH_excgange\data/180201_REPSWITCH1_version2_list1_2023-11-30_11h32.58.730_micRespv2l1_recorded\recording_micRespv2l1_2023-11-30_11h42.10.356.wav,562.101237700088,562.6013285000809,None,562.101237700088,562.101237700088,562.101237700088,562.101237700088,562.101237700088,562.101237700088,,,,,,180201,001,2023-11-30_11h32.58.730,REPSWITCH1_version2_list1,2022.2.4,144.0077646627375,
REPSWITCH1/PICTURE_8.png,pierna,type,gold,filler,1,F,1,2,1,2,Stim3_Set4,0,None,106,105,4,0,105,105,105,,,,,,,,,,,,,,,,,,,,,,,562.6013285000809,563.6847963000182,563.6847963000182,563.6847963000182,563.6847963000182,563.6847963000182,563.6847963000182,563.6847963000182,563.6847963000182,"['p', 'i', 'e', 'r', 'n', 'a']",0,"[1.0274247999768704, 1.27359710005112, 1.498931499896571, 1.6910238000564277, 1.7755760001018643, 1.919082700042054]",pierna,C:\2023\REPSWITCH21092023\REPSWITCH_excgange\REPSWITCH_excgange\data/180201_REPSWITCH1_version2_list1_2023-11-30_11h32.58.730_micRespv2l1_recorded\recording_micRespv2l1_2023-11-30_11h42.14.960.wav,566.706066600047,567.2060779000167,None,566.706066600047,566.706066600047,566.706066600047,566.706066600047,566.706066600047,566.706066600047,,,,,,180201,001,2023-11-30_11h32.58.730,REPSWITCH1_version2_list1,2022.2.4,144.0077646627375,
REPSWITCH1/PICTURE_135.png,traje,speak,darkblue,nontarget,2,NT,1,2,1,2,Stim3_Set1,1,switch,107,106,5,0,106,106,106,,,,,,,,,,,,,,,,,,,,,,,567.2060779000167,568.3520651999861,568.3520651999861,568.3520651999861,568.3520651999861,568.3520651999861,568.3520651999861,568.3520651999861,568.3520651999861,None,0,,,C:\2023\REPSWITCH21092023\REPSWITCH_excgange\REPSWITCH_excgange\data/180201_REPSWITCH1_version2_list1_2023-11-30_11h32.58.730_micRespv2l1_recorded\recording_micRespv2l1_2023-11-30_11h42.19.628.wav,571.3802432999946,,None,571.3802432999946,571.3802432999946,571.3802432999946,571.3802432999946,571.3802432999946,571.3802432999946,,,,,,180201,001,2023-11-30_11h32.58.730,REPSWITCH1_version2_list1,2022.2.4,144.0077646627375,
REPSWITCH1/PICTURE_135.png,traje,speak,darkblue,repeat,2,T,1,2,1,2,Stim3_Set1,0,None,108,107,6,0,107,107,107,,,,,,,,,,,,,,,,,,,,,,,571.8803326000925,572.9916050001048,572.9916050001048,572.9916050001048,572.9916050001048,572.9916050001048,572.9916050001048,572.9916050001048,572.9916050001048,None,0,,,C:\2023\REPSWITCH21092023\REPSWITCH_excgange\REPSWITCH_excgange\data/180201_REPSWITCH1_version2_list1_2023-11-30_11h32.58.730_micRespv2l1_recorded\recording_micRespv2l1_2023-11-30_11h42.24.268.wav,576.0127894999459,576.5129102000501,None,576.0127894999459,576.0127894999459,576.0127894999459,576.0127894999459,576.0127894999459,576.0127894999459,,,,,,180201,001,2023-11-30_11h32.58.730,REPSWITCH1_version2_list1,2022.2.4,144.0077646627375,
REPSWITCH1/PICTURE_673.png,tenedor,type,gold,filler,1,F,1,2,1,2,Extra5,0,None,109,108,7,0,108,108,108,,,,,,,,,,,,,,,,,,,,,,,576.5129102000501,577.6728052000981,577.6728052000981,577.6728052000981,577.6728052000981,577.6728052000981,577.6728052000981,577.6728052000981,577.6728052000981,"['t', 'e', 'n', 'e', 'd', 'o', 'r']",0,"[0.9191512998659164, 1.0447141998447478, 1.2460440997965634, 1.3197587998583913, 1.5264454998541623, 1.716808999888599, 1.862330799922347]",tenedor,C:\2023\REPSWITCH21092023\REPSWITCH_excgange\REPSWITCH_excgange\data/180201_REPSWITCH1_version2_list1_2023-11-30_11h32.58.730_micRespv2l1_recorded\recording_micRespv2l1_2023-11-30_11h42.28.949.wav,580.6939749999437,581.1941192001104,None,580.6939749999437,580.6939749999437,580.6939749999437,580.6939749999437,580.6939749999437,580.6939749999437,,,,,,180201,001,2023-11-30_11h32.58.730,REPSWITCH1_version2_list1,2022.2.4,144.0077646627375,
REPSWITCH1/PICTURE_728.png,pulpo,speak,darkblue,filler,2,F,1,2,1,2,Stim8_Set4,0,None,110,109,8,0,109,109,109,,,,,,,,,,,,,,,,,,,,,,,581.1941192001104,582.2358625000343,582.2358625000343,582.2358625000343,582.2358625000343,582.2358625000343,582.2358625000343,582.2358625000343,582.2358625000343,None,0,,,C:\2023\REPSWITCH21092023\REPSWITCH_excgange\REPSWITCH_excgange\data/180201_REPSWITCH1_version2_list1_2023-11-30_11h32.58.730_micRespv2l1_recorded\recording_micRespv2l1_2023-11-30_11h42.33.513.wav,585.2570418000687,585.7572143001016,None,585.2570418000687,585.2570418000687,585.2570418000687,585.2570418000687,585.2570418000687,585.2570418000687,,,,,,180201,001,2023-11-30_11h32.58.730,REPSWITCH1_version2_list1,2022.2.4,144.0077646627375,
REPSWITCH1/PICTURE_16.png,cazador,speak,darkblue,nontarget,2,NT,1,2,1,2,Stim6_Set1,1,repeat,111,110,9,0,110,110,110,,,,,,,,,,,,,,,,,,,,,,,585.7572143001016,586.9170194000471,586.9170194000471,586.9170194000471,586.9170194000471,586.9170194000471,586.9170194000471,586.9170194000471,586.9170194000471,None,0,,,C:\2023\REPSWITCH21092023\REPSWITCH_excgange\REPSWITCH_excgange\data/180201_REPSWITCH1_version2_list1_2023-11-30_11h32.58.730_micRespv2l1_recorded\recording_micRespv2l1_2023-11-30_11h42.38.193.wav,589.938227100065,590.4383871001191,None,589.938227100065,589.938227100065,589.938227100065,589.938227100065,589.938227100065,589.938227100065,,,,,,180201,001,2023-11-30_11h32.58.730,REPSWITCH1_version2_list1,2022.2.4,144.0077646627375,
REPSWITCH1/PICTURE_16.png,cazador,type,gold,switch,1,T,1,2,1,2,Stim6_Set1,0,None,112,111,10,0,111,111,111,,,,,,,,,,,,,,,,,,,,,,,590.4383871001191,591.5565049001016,591.5565049001016,591.5565049001016,591.5565049001016,591.5565049001016,591.5565049001016,591.5565049001016,591.5565049001016,"['c', 'a', 'z', 'a', 'd', 'o', 'r']",0,"[1.077529100002721, 1.162264799932018, 1.34273979999125, 1.5325078999157995, 1.7570863999426365, 1.8697456999216229, 2.048075099941343]",cazador,C:\2023\REPSWITCH21092023\REPSWITCH_excgange\REPSWITCH_excgange\data/180201_REPSWITCH1_version2_list1_2023-11-30_11h32.58.730_micRespv2l1_recorded\recording_micRespv2l1_2023-11-30_11h42.42.833.wav,594.5846939000767,,None,594.5846939000767,594.5846939000767,594.5846939000767,594.5846939000767,594.5846939000767,594.5846939000767,,,,,,180201,001,2023-11-30_11h32.58.730,REPSWITCH1_version2_list1,2022.2.4,144.0077646627375,
REPSWITCH1/PICTURE_498.png,taza,type,gold,filler,1,F,1,2,1,2,Stim4_Set4,1,repeat,113,112,11,0,112,112,112,,,,,,,,,,,,,,,,,,,,,,,595.0848054999951,596.1544033000246,596.1544033000246,596.1544033000246,596.1544033000246,596.1544033000246,596.1544033000246,596.1544033000246,596.1544033000246,"['t', 'a', 'z', 'a']",0,"[1.026458199834451, 1.1161741998512298, 1.297693399945274, 1.488052599830553]",taza,C:\2023\REPSWITCH21092023\REPSWITCH_excgange\REPSWITCH_excgange\data/180201_REPSWITCH1_version2_list1_2023-11-30_11h32.58.730_micRespv2l1_recorded\recording_micRespv2l1_2023-11-30_11h42.47.431.wav,599.1756178999785,599.675709299976,None,599.1756178999785,599.1756178999785,599.1756178999785,599.1756178999785,599.1756178999785,599.1756178999785,,,,,,180201,001,2023-11-30_11h32.58.730,REPSWITCH1_version2_list1,2022.2.4,144.0077646627375,
REPSWITCH1/PICTURE_381.png,fresa,type,gold,nontarget,1,NT,1,2,1,2,Stim2_Set1,1,repeat,114,113,12,0,113,113,113,,,,,,,,,,,,,,,,,,,,,,,599.675709299976,600.856364000123,600.856364000123,600.856364000123,600.856364000123,600.856364000123,600.856364000123,600.856364000123,600.856364000123,"['f', 'r', 'e', 's', 'a']",0,"[1.0012926997151226, 1.1819736997131258, 1.2935985997319221, 1.4836758996825665, 1.6710467997472733]",fresa,C:\2023\REPSWITCH21092023\REPSWITCH_excgange\REPSWITCH_excgange\data/180201_REPSWITCH1_version2_list1_2023-11-30_11h32.58.730_micRespv2l1_recorded\recording_micRespv2l1_2023-11-30_11h42.52.133.wav,603.8845267998986,,None,603.8845267998986,603.8845267998986,603.8845267998986,603.8845267998986,603.8845267998986,603.8845267998986,,,,,,180201,001,2023-11-30_11h32.58.730,REPSWITCH1_version2_list1,2022.2.4,144.0077646627375,
REPSWITCH1/PICTURE_381.png,fresa,speak,darkblue,switch,2,T,1,2,1,2,Stim2_Set1,0,None,115,114,13,0,114,114,114,,,,,,,,,,,,,,,,,,,,,,,604.3846636000089,605.4333667999599,605.4333667999599,605.4333667999599,605.4333667999599,605.4333667999599,605.4333667999599,605.4333667999599,605.4333667999599,None,0,,,C:\2023\REPSWITCH21092023\REPSWITCH_excgange\REPSWITCH_excgange\data/180201_REPSWITCH1_version2_list1_2023-11-30_11h32.58.730_micRespv2l1_recorded\recording_micRespv2l1_2023-11-30_11h42.56.710.wav,608.4545720999595,608.9546366001014,None,608.4545720999595,608.4545720999595,608.4545720999595,608.4545720999595,608.4545720999595,608.4545720999595,,,,,,180201,001,2023-11-30_11h32.58.730,REPSWITCH1_version2_list1,2022.2.4,144.0077646627375,
REPSWITCH1/PICTURE_178.png,puente,speak,darkblue,nontarget,2,NT,1,2,1,2,Stim1_Set1,0,None,116,115,14,0,115,115,115,,,,,,,,,,,,,,,,,,,,,,,608.9546366001014,610.1075508999638,610.1075508999638,610.1075508999638,610.1075508999638,610.1075508999638,610.1075508999638,610.1075508999638,610.1075508999638,None,0,,,C:\2023\REPSWITCH21092023\REPSWITCH_excgange\REPSWITCH_excgange\data/180201_REPSWITCH1_version2_list1_2023-11-30_11h32.58.730_micRespv2l1_recorded\recording_micRespv2l1_2023-11-30_11h43.01.384.wav,613.1287678999361,613.6289027999155,None,613.1287678999361,613.1287678999361,613.1287678999361,613.1287678999361,613.1287678999361,613.1287678999361,,,,,,180201,001,2023-11-30_11h32.58.730,REPSWITCH1_version2_list1,2022.2.4,144.0077646627375,
REPSWITCH1/PICTURE_178.png,puente,type,gold,switch,1,T,1,2,1,2,Stim1_Set1,0,None,117,116,15,0,116,116,116,,,,,,,,,,,,,,,,,,,,,,,613.6289027999155,614.7123432001099,614.7123432001099,614.7123432001099,614.7123432001099,614.7123432001099,614.7123432001099,614.7123432001099,614.7123432001099,"['p', 'u', 'e', 'n', 't', 'e']",0,"[1.2170604998245835, 1.5769825999159366, 1.7840737998485565, 1.8538251998834312, 2.075345699908212, 2.121222499990836]",puente,C:\2023\REPSWITCH21092023\REPSWITCH_excgange\REPSWITCH_excgange\data/180201_REPSWITCH1_version2_list1_2023-11-30_11h32.58.730_micRespv2l1_recorded\recording_micRespv2l1_2023-11-30_11h43.05.988.wav,617.7336061999667,618.2336206000764,None,617.7336061999667,617.7336061999667,617.7336061999667,617.7336061999667,617.7336061999667,617.7336061999667,,,,,,180201,001,2023-11-30_11h32.58.730,REPSWITCH1_version2_list1,2022.2.4,144.0077646627375,
REPSWITCH1/PICTURE_719.png,baño,speak,darkblue,filler,2,F,1,2,1,2,Stim2_Set4,0,None,118,117,16,0,117,117,117,,,,,,,,,,,,,,,,,,,,,,,618.2336206000764,619.3587545000482,619.3587545000482,619.3587545000482,619.3587545000482,619.3587545000482,619.3587545000482,619.3587545000482,619.3587545000482,None,0,,,C:\2023\REPSWITCH21092023\REPSWITCH_excgange\REPSWITCH_excgange\data/180201_REPSWITCH1_version2_list1_2023-11-30_11h32.58.730_micRespv2l1_recorded\recording_micRespv2l1_2023-11-30_11h43.10.636.wav,622.3800538999494,622.8800554000773,None,622.3800538999494,622.3800538999494,622.3800538999494,622.3800538999494,622.3800538999494,622.3800538999494,,,,,,180201,001,2023-11-30_11h32.58.730,REPSWITCH1_version2_list1,2022.2.4,144.0077646627375,
REPSWITCH1/PICTURE_169.png,espalda,type,gold,nontarget,1,NT,1,2,1,2,Stim8_Set1,1,switch,119,118,17,0,118,118,118,,,,,,,,,,,,,,,,,,,,,,,622.8800554000773,623.9913429999724,623.9913429999724,623.9913429999724,623.9913429999724,623.9913429999724,623.9913429999724,623.9913429999724,623.9913429999724,"['e', 's', 'p', 'a', 'l', 'd', 'a']",0,"[1.0058120999019593, 1.19809679989703, 1.3904915999155492, 1.5184641999658197, 1.583161599934101, 1.9062420998234302, 1.969039199873805]",espalda,C:\2023\REPSWITCH21092023\REPSWITCH_excgange\REPSWITCH_excgange\data/180201_REPSWITCH1_version2_list1_2023-11-30_11h32.58.730_micRespv2l1_recorded\recording_micRespv2l1_2023-11-30_11h43.15.267.wav,627.0194977000356,,None,627.0194977000356,627.0194977000356,627.0194977000356,627.0194977000356,627.0194977000356,627.0194977000356,,,,,,180201,001,2023-11-30_11h32.58.730,REPSWITCH1_version2_list1,2022.2.4,144.0077646627375,
REPSWITCH1/PICTURE_169.png,espalda,type,gold,repeat,1,T,1,2,1,2,Stim8_Set1,0,None,120,119,18,0,119,119,119,,,,,,,,,,,,,,,,,,,,,,,627.519565799972,628.6377860000357,628.6377860000357,628.6377860000357,628.6377860000357,628.6377860000357,628.6377860000357,628.6377860000357,628.6377860000357,"['e', 's', 'p', 'a', 'l', 'd', 'a']",0,"[0.6602895997930318, 0.847356699872762, 0.9808448997791857, 1.1414449999574572, 1.2072175999637693, 1.5653530999552459, 1.6221788998227566]",espalda,C:\2023\REPSWITCH21092023\REPSWITCH_excgange\REPSWITCH_excgange\data/180201_REPSWITCH1_version2_list1_2023-11-30_11h32.58.730_micRespv2l1_recorded\recording_micRespv2l1_2023-11-30_11h43.19.914.wav,631.6589649999514,632.1590672000311,None,631.6589649999514,631.6589649999514,631.6589649999514,631.6589649999514,631.6589649999514,631.6589649999514,,,,,,180201,001,2023-11-30_11h32.58.730,REPSWITCH1_version2_list1,2022.2.4,144.0077646627375,
REPSWITCH1/PICTURE_48.png,bombero,speak,darkblue,filler,2,F,1,2,1,2,Stim7_Set4,1,switch,121,120,19,0,120,120,120,,,,,,,,,,,,,,,,,,,,,,,632.1590672000311,633.2078019001056,633.2078019001056,633.2078019001056,633.2078019001056,633.2078019001056,633.2078019001056,633.2078019001056,633.2078019001056,None,0,,,C:\2023\REPSWITCH21092023\REPSWITCH_excgange\REPSWITCH_excgange\data/180201_REPSWITCH1_version2_list1_2023-11-30_11h32.58.730_micRespv2l1_recorded\recording_micRespv2l1_2023-11-30_11h43.24.484.wav,636.2290366999805,636.7291057000402,None,636.2290366999805,636.2290366999805,636.2290366999805,636.2290366999805,636.2290366999805,636.2290366999805,,,,,,180201,001,2023-11-30_11h32.58.730,REPSWITCH1_version2_list1,2022.2.4,144.0077646627375,
