image,correctAns,famTrials.thisRepN,famTrials.thisTrialN,famTrials.thisN,famTrials.thisIndex,textWelcomeFam.started,textBlank500.started,textInstrFam.started,keyInstrFam.started,keyInstrFam.keys,keyInstrFam.rt,textBlank500.stopped,fixationITI.started,fixationITI.stopped,polygonWhiteFam.started,imageFam.started,micFam.started,polygonWhiteFam.stopped,imageFam.stopped,micFam.stopped,textFam.started,micFam.clip,textFam.stopped,textEndFam.started,participant,session,date,expName,psychopyVersion,frameRate,
,,,,,,33.92899590000161,35.93285710000782,36.43440610001562,36.43440610001562,space,12.83217239996884,,,,,,,,,,,,,,1,001,2023-06-09_09h24.01.346,REPSWITCH_1_Fam,2022.2.5,59.97008691976817,
REPSWITCH1_Fam/PICTURE_128.png,muñeca,0,0,0,0,,58.570956900017336,,,,,49.924539900006494,49.924539900006494,51.155647700012196,51.155647700012196,51.155647700012196,0.051673300011316314,55.1617244000081,55.1617244000081,4.132552399998531,55.538509200006956,D:\GitHub\experiment1\data/1_REPSWITCH_1_Fam_2023-06-09_09h24.01.346_micFam_recorded\recording_micFam_2023-06-09_09h24.38.461.wav,,,1,001,2023-06-09_09h24.01.346,REPSWITCH_1_Fam,2022.2.5,59.97008691976817,
REPSWITCH1_Fam/PICTURE_142.png,vaso,0,1,1,1,,67.62747050001053,,,,,,59.044525000004796,60.13645879999967,60.13645879999967,60.13645879999967,0.0240332999965176,64.14485930002411,64.14485930002411,4.0318134000117425,64.60976700001629,D:\GitHub\experiment1\data/1_REPSWITCH_1_Fam_2023-06-09_09h24.01.346_micFam_recorded\recording_micFam_2023-06-09_09h24.47.527.wav,67.62747050001053,,1,001,2023-06-09_09h24.01.346,REPSWITCH_1_Fam,2022.2.5,59.97008691976817,
REPSWITCH1_Fam/PICTURE_152.png,caracol,0,2,2,2,,76.74302920000628,,,,,,68.12565460000769,69.24823970001307,69.24823970001307,69.24823970001307,0.026146500022150576,73.25761790000251,73.25761790000251,4.031936000013957,73.72417390000192,D:\GitHub\experiment1\data/1_REPSWITCH_1_Fam_2023-06-09_09h24.01.346_micFam_recorded\recording_micFam_2023-06-09_09h24.56.642.wav,76.74302920000628,,1,001,2023-06-09_09h24.01.346,REPSWITCH_1_Fam,2022.2.5,59.97008691976817,
REPSWITCH1_Fam/PICTURE_16.png,cazador,0,3,3,3,,85.86963600001764,,,,,,77.24020440000459,78.38050190001377,78.38050190001377,78.38050190001377,0.039291499997489154,82.39178270002594,82.39178270002594,4.047930800006725,82.8491641000146,D:\GitHub\experiment1\data/1_REPSWITCH_1_Fam_2023-06-09_09h24.01.346_micFam_recorded\recording_micFam_2023-06-09_09h25.05.771.wav,,,1,001,2023-06-09_09h24.01.346,REPSWITCH_1_Fam,2022.2.5,59.97008691976817,
REPSWITCH1_Fam/PICTURE_175.png,pintor,0,4,4,4,,94.9920333000191,,,,,,86.35474880001857,87.55108860001201,87.55108860001201,87.55108860001201,0.08265799999935552,91.5533794000221,91.5533794000221,4.081582200014964,91.96984540001722,D:\GitHub\experiment1\data/1_REPSWITCH_1_Fam_2023-06-09_09h24.01.346_micFam_recorded\recording_micFam_2023-06-09_09h25.14.887.wav,94.9920333000191,,1,001,2023-06-09_09h24.01.346,REPSWITCH_1_Fam,2022.2.5,59.97008691976817,
REPSWITCH1_Fam/PICTURE_178.png,puente,0,5,5,5,,104.085496100015,,,,,,95.48592060001101,96.59306430001743,96.59306430001743,96.59306430001743,0.028127600002335384,100.60104270000011,100.60104270000011,4.03149829999893,101.06774030000088,D:\GitHub\experiment1\data/1_REPSWITCH_1_Fam_2023-06-09_09h24.01.346_micFam_recorded\recording_micFam_2023-06-09_09h25.23.985.wav,104.085496100015,,1,001,2023-06-09_09h24.01.346,REPSWITCH_1_Fam,2022.2.5,59.97008691976817,
REPSWITCH1_Fam/PICTURE_19.png,pavo,0,6,6,6,,113.19864010001766,,,,,,104.58380910000415,105.7076359000057,105.7076359000057,105.7076359000057,0.02821260000928305,109.7191870000097,109.7191870000097,4.031831400003284,110.18222220000462,D:\GitHub\experiment1\data/1_REPSWITCH_1_Fam_2023-06-09_09h24.01.346_micFam_recorded\recording_micFam_2023-06-09_09h25.33.099.wav,113.19864010001766,,1,001,2023-06-09_09h24.01.346,REPSWITCH_1_Fam,2022.2.5,59.97008691976817,
REPSWITCH1_Fam/PICTURE_235.png,aguja,0,7,7,7,,122.34667560001253,,,,,,113.69803100000718,114.86392620002152,114.86392620002152,114.86392620002152,0.038129799999296665,118.86295970002539,118.86295970002539,4.031706899986602,119.33329520002007,D:\GitHub\experiment1\data/1_REPSWITCH_1_Fam_2023-06-09_09h24.01.346_micFam_recorded\recording_micFam_2023-06-09_09h25.42.262.wav,,,1,001,2023-06-09_09h24.01.346,REPSWITCH_1_Fam,2022.2.5,59.97008691976817,
REPSWITCH1_Fam/PICTURE_242.png,cartero,0,8,8,8,,131.50020290000248,,,,,,122.84571310001775,123.98684050000156,123.98684050000156,123.98684050000156,0.015496299980441108,127.99449890002143,127.99449890002143,4.016327499994077,128.4779239000054,D:\GitHub\experiment1\data/1_REPSWITCH_1_Fam_2023-06-09_09h24.01.346_micFam_recorded\recording_micFam_2023-06-09_09h25.51.396.wav,131.50020290000248,,1,001,2023-06-09_09h24.01.346,REPSWITCH_1_Fam,2022.2.5,59.97008691976817,
REPSWITCH1_Fam/PICTURE_264.png,mano,0,9,9,9,,140.74253390001832,,,,,,131.9937502000248,133.2510189000168,133.2510189000168,133.2510189000168,0.028103899996494874,137.26009510000586,137.26009510000586,4.031804700003704,137.72558560001198,D:\GitHub\experiment1\data/1_REPSWITCH_1_Fam_2023-06-09_09h24.01.346_micFam_recorded\recording_micFam_2023-06-09_09h26.00.643.wav,140.74253390001832,,1,001,2023-06-09_09h24.01.346,REPSWITCH_1_Fam,2022.2.5,59.97008691976817,
REPSWITCH1_Fam/PICTURE_271.png,conejo,0,10,10,10,,149.94242780000786,,,,,,141.24124620002112,142.4521442000114,142.4521442000114,142.4521442000114,0.03210840001702309,146.46093610001844,146.46093610001844,4.0321162000182085,146.9234059000155,D:\GitHub\experiment1\data/1_REPSWITCH_1_Fam_2023-06-09_09h24.01.346_micFam_recorded\recording_micFam_2023-06-09_09h26.09.841.wav,149.94242780000786,,1,001,2023-06-09_09h24.01.346,REPSWITCH_1_Fam,2022.2.5,59.97008691976817,
REPSWITCH1_Fam/PICTURE_30.png,granja,0,11,11,11,,159.30493920002482,,,,,,150.4392883000255,151.80439740000293,151.80439740000293,151.80439740000293,0.036812499980442226,155.81142030001502,155.81142030001502,4.0318135999841616,156.2769316000049,D:\GitHub\experiment1\data/1_REPSWITCH_1_Fam_2023-06-09_09h24.01.346_micFam_recorded\recording_micFam_2023-06-09_09h26.19.204.wav,,,1,001,2023-06-09_09h24.01.346,REPSWITCH_1_Fam,2022.2.5,59.97008691976817,
REPSWITCH1_Fam/PICTURE_319.png,vaca,0,12,12,12,,168.46180110002751,,,,,,159.78705390001414,160.95794180000667,160.95794180000667,160.95794180000667,0.02426560001913458,164.9716871000128,164.9716871000128,4.031981700012693,165.4355748000089,D:\GitHub\experiment1\data/1_REPSWITCH_1_Fam_2023-06-09_09h24.01.346_micFam_recorded\recording_micFam_2023-06-09_09h26.28.353.wav,168.46180110002751,,1,001,2023-06-09_09h24.01.346,REPSWITCH_1_Fam,2022.2.5,59.97008691976817,
REPSWITCH1_Fam/PICTURE_320.png,iglesia,0,13,13,13,,177.7813051000121,,,,,,168.9515201000031,170.2904925000039,170.2904925000039,170.2904925000039,0.027176600007805973,174.302216400014,174.302216400014,4.03203579998808,174.7669098000042,D:\GitHub\experiment1\data/1_REPSWITCH_1_Fam_2023-06-09_09h24.01.346_micFam_recorded\recording_micFam_2023-06-09_09h26.37.683.wav,177.7813051000121,,1,001,2023-06-09_09h24.01.346,REPSWITCH_1_Fam,2022.2.5,59.97008691976817,
REPSWITCH1_Fam/PICTURE_381.png,fresa,0,14,14,14,,186.92095490000793,,,,,,178.2826740000164,179.42956580000464,179.42956580000464,179.42956580000464,0.035227499989559874,183.4375300000247,183.4375300000247,4.032140099996468,183.8980538000178,D:\GitHub\experiment1\data/1_REPSWITCH_1_Fam_2023-06-09_09h24.01.346_micFam_recorded\recording_micFam_2023-06-09_09h26.46.815.wav,186.92095490000793,,1,001,2023-06-09_09h24.01.346,REPSWITCH_1_Fam,2022.2.5,59.97008691976817,
REPSWITCH1_Fam/PICTURE_48.png,bombero,0,15,15,15,,195.99581270001363,,,,,,187.41382210000302,188.48972790001426,188.48972790001426,188.48972790001426,0.03049570001894608,192.49583030000213,192.49583030000213,4.032127100013895,192.96250320001855,D:\GitHub\experiment1\data/1_REPSWITCH_1_Fam_2023-06-09_09h24.01.346_micFam_recorded\recording_micFam_2023-06-09_09h26.55.895.wav,,,1,001,2023-06-09_09h24.01.346,REPSWITCH_1_Fam,2022.2.5,59.97008691976817,
REPSWITCH1_Fam/PICTURE_517.png,cuerda,0,16,16,16,,205.0600279000064,,,,,,196.47833250000258,197.5775126000226,197.5775126000226,197.5775126000226,0.03638949999003671,201.57698190002702,201.57698190002702,4.0317973000055645,202.0436668000184,D:\GitHub\experiment1\data/1_REPSWITCH_1_Fam_2023-06-09_09h24.01.346_micFam_recorded\recording_micFam_2023-06-09_09h27.04.960.wav,205.0600279000064,,1,001,2023-06-09_09h24.01.346,REPSWITCH_1_Fam,2022.2.5,59.97008691976817,
REPSWITCH1_Fam/PICTURE_552.png,manzana,0,17,17,17,,214.13546920000226,,,,,,205.55947350000497,206.6744814000267,206.6744814000267,206.6744814000267,0.07044300000416115,210.67740820001927,210.67740820001927,4.065101800020784,211.10806470000534,D:\GitHub\experiment1\data/1_REPSWITCH_1_Fam_2023-06-09_09h24.01.346_micFam_recorded\recording_micFam_2023-06-09_09h27.14.026.wav,214.13546920000226,,1,001,2023-06-09_09h24.01.346,REPSWITCH_1_Fam,2022.2.5,59.97008691976817,
REPSWITCH1_Fam/PICTURE_576.png,guante,0,18,18,18,,223.2804117000196,,,,,,214.62384160002694,215.77803840002161,215.77803840002161,215.77803840002161,0.025047700008144602,219.79386560001876,219.79386560001876,4.031931000004988,220.2558485000045,D:\GitHub\experiment1\data/1_REPSWITCH_1_Fam_2023-06-09_09h24.01.346_micFam_recorded\recording_micFam_2023-06-09_09h27.23.173.wav,223.2804117000196,,1,001,2023-06-09_09h24.01.346,REPSWITCH_1_Fam,2022.2.5,59.97008691976817,
REPSWITCH1_Fam/PICTURE_610.png,miel,0,19,19,19,,232.3426165000128,,,,,,223.7718725000159,224.84667690002243,224.84667690002243,224.84667690002243,0.02796220002346672,228.85625210002763,228.85625210002763,4.032027800014475,229.32036230000085,D:\GitHub\experiment1\data/1_REPSWITCH_1_Fam_2023-06-09_09h24.01.346_micFam_recorded\recording_micFam_2023-06-09_09h27.32.237.wav,232.3426165000128,,1,001,2023-06-09_09h24.01.346,REPSWITCH_1_Fam,2022.2.5,59.97008691976817,
REPSWITCH1_Fam/PICTURE_636.png,oveja,0,20,20,20,,241.41967000000295,,,,,,232.8361962000199,233.93428400001721,233.93428400001721,233.93428400001721,0.03582399999140762,237.94172040000558,237.94172040000558,4.03177869998035,238.40160470001865,D:\GitHub\experiment1\data/1_REPSWITCH_1_Fam_2023-06-09_09h24.01.346_micFam_recorded\recording_micFam_2023-06-09_09h27.41.319.wav,241.41967000000295,,1,001,2023-06-09_09h24.01.346,REPSWITCH_1_Fam,2022.2.5,59.97008691976817,
REPSWITCH1_Fam/PICTURE_687.png,camisa,0,21,21,21,,250.63417070001015,,,,,,241.91740390000632,243.13715480000246,243.13715480000246,243.13715480000246,0.024190800002543256,247.1527192000067,247.1527192000067,4.031899399997201,247.61594190000324,D:\GitHub\experiment1\data/1_REPSWITCH_1_Fam_2023-06-09_09h24.01.346_micFam_recorded\recording_micFam_2023-06-09_09h27.50.533.wav,250.63417070001015,,1,001,2023-06-09_09h24.01.346,REPSWITCH_1_Fam,2022.2.5,59.97008691976817,
REPSWITCH1_Fam/PICTURE_719.png,baño,0,22,22,22,,259.66410770002403,,,,,,251.1317520000157,252.17494080000324,252.17494080000324,252.17494080000324,0.03111210002680309,256.18049410000094,256.18049410000094,4.031834000023082,256.64716440002667,D:\GitHub\experiment1\data/1_REPSWITCH_1_Fam_2023-06-09_09h24.01.346_micFam_recorded\recording_micFam_2023-06-09_09h27.59.564.wav,259.66410770002403,,1,001,2023-06-09_09h24.01.346,REPSWITCH_1_Fam,2022.2.5,59.97008691976817,
REPSWITCH1_Fam/PICTURE_8.png,pierna,0,23,23,23,,268.76263760001166,,,,,,260.16284010000527,261.26684530000784,261.26684530000784,261.26684530000784,0.024430699995718896,265.2831229000003,265.2831229000003,4.031702000007499,265.7449844000221,D:\GitHub\experiment1\data/1_REPSWITCH_1_Fam_2023-06-09_09h24.01.346_micFam_recorded\recording_micFam_2023-06-09_09h28.08.662.wav,268.76263760001166,,1,001,2023-06-09_09h24.01.346,REPSWITCH_1_Fam,2022.2.5,59.97008691976817,
REPSWITCH1_Fam/PICTURE_91.png,boca,0,24,24,24,,278.10784680000506,,,,,,269.2608226000157,270.6061350000091,270.6061350000091,270.6061350000091,0.034488200006308034,274.61493000001065,274.61493000001065,4.031911099998979,275.07604500002344,D:\GitHub\experiment1\data/1_REPSWITCH_1_Fam_2023-06-09_09h24.01.346_micFam_recorded\recording_micFam_2023-06-09_09h28.17.993.wav,278.10784680000506,,1,001,2023-06-09_09h24.01.346,REPSWITCH_1_Fam,2022.2.5,59.97008691976817,
REPSWITCH1_Fam/PICTURE_35.png,oreja,0,25,25,25,,287.4032754000218,,,,,,278.5919242000091,279.90016310001374,279.90016310001374,279.90016310001374,0.029753900016658008,283.90728630000376,283.90728630000376,4.032018800004153,284.3739255000255,D:\GitHub\experiment1\data/1_REPSWITCH_1_Fam_2023-06-09_09h24.01.346_micFam_recorded\recording_micFam_2023-06-09_09h28.27.291.wav,287.4032754000218,,1,001,2023-06-09_09h24.01.346,REPSWITCH_1_Fam,2022.2.5,59.97008691976817,
REPSWITCH1_Fam/PICTURE_135.png,traje,0,26,26,26,,296.474297400011,,,,,,287.88972840001225,288.9638197000022,288.9638197000022,288.9638197000022,0.027868200006196275,292.9789876000141,292.9789876000141,4.031810600019526,293.439225500013,D:\GitHub\experiment1\data/1_REPSWITCH_1_Fam_2023-06-09_09h24.01.346_micFam_recorded\recording_micFam_2023-06-09_09h28.36.371.wav,,,1,001,2023-06-09_09h24.01.346,REPSWITCH_1_Fam,2022.2.5,59.97008691976817,
REPSWITCH1_Fam/PICTURE_464.png,goma,0,27,27,27,,305.6149798000115,,,,,,296.9541933000146,298.1132215000107,298.1132215000107,298.1132215000107,0.016846499987877905,302.11945380002726,302.11945380002726,4.016128699993715,302.60282130000996,D:\GitHub\experiment1\data/1_REPSWITCH_1_Fam_2023-06-09_09h24.01.346_micFam_recorded\recording_micFam_2023-06-09_09h28.45.520.wav,305.6149798000115,,1,001,2023-06-09_09h24.01.346,REPSWITCH_1_Fam,2022.2.5,59.97008691976817,
REPSWITCH1_Fam/PICTURE_545.png,braga,0,28,28,28,,314.6790075000026,,,,,,306.1185295000032,307.1907584000146,307.1907584000146,307.1907584000146,0.026039999997010455,311.20456340000965,311.20456340000965,4.031952799996361,311.6674860000203,D:\GitHub\experiment1\data/1_REPSWITCH_1_Fam_2023-06-09_09h24.01.346_micFam_recorded\recording_micFam_2023-06-09_09h28.54.584.wav,314.6790075000026,,1,001,2023-06-09_09h24.01.346,REPSWITCH_1_Fam,2022.2.5,59.97008691976817,
REPSWITCH1_Fam/PICTURE_728.png,pulpo,0,29,29,29,,323.7678444000194,,,,,,315.18316490002326,316.27197380000143,316.27197380000143,316.27197380000143,0.026131599996006116,320.2817693000252,320.2817693000252,4.031751000002259,320.7485664000269,D:\GitHub\experiment1\data/1_REPSWITCH_1_Fam_2023-06-09_09h24.01.346_micFam_recorded\recording_micFam_2023-06-09_09h29.03.665.wav,323.7678444000194,,1,001,2023-06-09_09h24.01.346,REPSWITCH_1_Fam,2022.2.5,59.97008691976817,
REPSWITCH1_Fam/PICTURE_546.png,puerta,0,30,30,30,,333.0674789000186,,,,,,324.26427920002607,325.56797660002485,325.56797660002485,325.56797660002485,0.02461970000877045,329.58498240000335,329.58498240000335,4.0319877000001725,330.0462854000216,D:\GitHub\experiment1\data/1_REPSWITCH_1_Fam_2023-06-09_09h24.01.346_micFam_recorded\recording_micFam_2023-06-09_09h29.12.964.wav,333.0674789000186,,1,001,2023-06-09_09h24.01.346,REPSWITCH_1_Fam,2022.2.5,59.97008691976817,
REPSWITCH1_Fam/PICTURE_199.png,falda,0,31,31,31,,342.2473504000227,,,,,,333.5622645000112,334.7573957000277,334.7573957000277,334.7573957000277,0.033633099985308945,338.7642993000045,338.7642993000045,4.032043799990788,339.2274090000137,D:\GitHub\experiment1\data/1_REPSWITCH_1_Fam_2023-06-09_09h24.01.346_micFam_recorded\recording_micFam_2023-06-09_09h29.22.144.wav,342.2473504000227,,1,001,2023-06-09_09h24.01.346,REPSWITCH_1_Fam,2022.2.5,59.97008691976817,
,,,,,,,342.7431844000239,,,,,,,,,,,,,,,,,343.24343620002037,,,,,,,
