image,correctAns,respModal,frameColor,repSwitch,sequence,target,set,block,list,exp_version,stimulus,baseline,baseline_condition,trial_no,psychopy_trial,Column1,trialsREPSWITCH.thisRepN,trialsREPSWITCH.thisTrialN,trialsREPSWITCH.thisN,trialsREPSWITCH.thisIndex,textWelcome.started,textboxInstrMain1.started,textboxInstrMain1_2.started,textboxInstrMain1_3.started,keyInstrMain.started,keyInstrMain.keys,keyInstrMain.rt,textboxInstrMain2.started,textboxInstrMain2_2.started,textboxInstrMain2_3.started,textboxInstrMain2_4.started,textboxInstrMain2_5.started,textboxInstrMain2_6.started,textboxInstrMain2_7.started,textboxInstrMain2_8.started,textboxInstrMain2_9.started,textboxInstrMain2_10.started,textboxInstrMain2_11.started,textboxInstrMain2_12.started,keyInstrMain2.started,keyInstrMain2.keys,keyInstrMain2.rt,fixationITI.started,fixationITI.stopped,polygonColour.started,polygonWhite.started,imageObject.started,polygonType.started,textInput.started,keyResp.started,micRespv2l2.started,keyResp.keys,keyResp.corr,subjResponse,micRespv2l2.clip,textBlankLoop.started,textBlankLoop.stopped,keyPause.keys,polygonColour.stopped,polygonWhite.stopped,imageObject.stopped,polygonType.stopped,textInput.stopped,keyResp.stopped,keyResp.rt,textboxPause.started,keyPause.started,keyPause.rt,textboxGoodbye.started,textboxGoodbye.stopped,participant,session,date,expName,psychopyVersion,frameRate,
,,,,,,,,,,,,,,,,,,,,,14.598195600090548,17.094812199939042,17.094812199939042,17.094812199939042,17.094812199939042,space,6.885267999721691,,,,,,,,,,,,,,,,,,,,,,,,,,,,,,,,,,,,,,,,,,,,200202,001,2023-11-30_15h41.36.748,REPSWITCH1_version2_list2,2022.2.4,143.88240780155317,
,,,,,,,,,,,,,,,,,,,,,,,,,,,,23.99849670007825,23.99849670007825,23.99849670007825,23.99849670007825,23.99849670007825,23.99849670007825,23.99849670007825,23.99849670007825,23.99849670007825,23.99849670007825,23.99849670007825,23.99849670007825,23.99849670007825,space,2.9799476000480354,,,,,,,,,,,,,,,,,,,,,,,,,,,,,200202,001,2023-11-30_15h41.36.748,REPSWITCH1_version2_list2,2022.2.4,143.88240780155317,
REPSWITCH1/PICTURE_646.png,tronco,speak,darkblue,filler,2,F,1,3,2,2,Extra4,0,None,1,0,1,0,0,0,0,,,,,,,,,,,,,,,,,,,,,,,27.082281300099567,28.262974899960682,28.262974899960682,28.262974899960682,28.262974899960682,28.262974899960682,28.262974899960682,28.262974899960682,28.262974899960682,None,0,,C:\2023\REPSWITCH21092023\REPSWITCH_excgange\REPSWITCH_excgange\data/200202_REPSWITCH1_version2_list2_2023-11-30_15h41.36.748_micRespv2l2_recorded\recording_micRespv2l2_2023-11-30_15h41.55.300.wav,31.284146399935707,31.78420850005932,None,,,,,,,,,,,,,200202,001,2023-11-30_15h41.36.748,REPSWITCH1_version2_list2,2022.2.4,143.88240780155317,
REPSWITCH1/PICTURE_340.png,espejo,type,gold,filler,1,F,1,3,2,2,Extra1,0,None,2,1,2,0,1,1,1,,,,,,,,,,,,,,,,,,,,,,,31.78420850005932,32.87469130009413,32.87469130009413,32.87469130009413,32.87469130009413,32.87469130009413,32.87469130009413,32.87469130009413,32.87469130009413,"['e', 's', 'p', 'e', 'j', 'o']",0,espejo,C:\2023\REPSWITCH21092023\REPSWITCH_excgange\REPSWITCH_excgange\data/200202_REPSWITCH1_version2_list2_2023-11-30_15h41.36.748_micRespv2l2_recorded\recording_micRespv2l2_2023-11-30_15h41.59.915.wav,35.90282540000044,,None,35.90282540000044,35.90282540000044,35.90282540000044,35.90282540000044,35.90282540000044,35.90282540000044,"[1.0079006999731064, 1.264813199872151, 1.495440199971199, 1.6100230000447482, 1.8578939998988062, 2.096760099986568]",,,,,,200202,001,2023-11-30_15h41.36.748,REPSWITCH1_version2_list2,2022.2.4,143.88240780155317,
REPSWITCH1/PICTURE_338.png,regalo,speak,darkblue,filler,2,F,1,3,2,2,Stim6_Set4,0,None,3,2,3,0,2,2,2,,,,,,,,,,,,,,,,,,,,,,,36.40289680007845,37.52803390007466,37.52803390007466,37.52803390007466,37.52803390007466,37.52803390007466,37.52803390007466,37.52803390007466,37.52803390007466,None,0,,C:\2023\REPSWITCH21092023\REPSWITCH_excgange\REPSWITCH_excgange\data/200202_REPSWITCH1_version2_list2_2023-11-30_15h41.36.748_micRespv2l2_recorded\recording_micRespv2l2_2023-11-30_15h42.04.567.wav,40.54924670001492,41.04929709993303,None,40.54924670001492,40.54924670001492,40.54924670001492,40.54924670001492,40.54924670001492,40.54924670001492,,,,,,,200202,001,2023-11-30_15h41.36.748,REPSWITCH1_version2_list2,2022.2.4,143.88240780155317,
REPSWITCH1/PICTURE_142.png,vaso,speak,darkblue,nontarget,2,NT,1,3,2,2,Stim7_Set1,1,repeat,4,3,4,0,3,3,3,,,,,,,,,,,,,,,,,,,,,,,41.04929709993303,42.15371330012567,42.15371330012567,42.15371330012567,42.15371330012567,42.15371330012567,42.15371330012567,42.15371330012567,42.15371330012567,None,0,,C:\2023\REPSWITCH21092023\REPSWITCH_excgange\REPSWITCH_excgange\data/200202_REPSWITCH1_version2_list2_2023-11-30_15h41.36.748_micRespv2l2_recorded\recording_micRespv2l2_2023-11-30_15h42.09.194.wav,45.18181620002724,,None,45.18181620002724,45.18181620002724,45.18181620002724,45.18181620002724,45.18181620002724,45.18181620002724,,,,,,,200202,001,2023-11-30_15h41.36.748,REPSWITCH1_version2_list2,2022.2.4,143.88240780155317,
REPSWITCH1/PICTURE_142.png,vaso,speak,darkblue,repeat,2,T,1,3,2,2,Stim7_Set1,0,None,5,4,5,0,4,4,4,,,,,,,,,,,,,,,,,,,,,,,45.68188240006566,46.82092760014348,46.82092760014348,46.82092760014348,46.82092760014348,46.82092760014348,46.82092760014348,46.82092760014348,46.82092760014348,None,0,,C:\2023\REPSWITCH21092023\REPSWITCH_excgange\REPSWITCH_excgange\data/200202_REPSWITCH1_version2_list2_2023-11-30_15h41.36.748_micRespv2l2_recorded\recording_micRespv2l2_2023-11-30_15h42.13.861.wav,49.842132800025865,50.34219589992426,None,49.842132800025865,49.842132800025865,49.842132800025865,49.842132800025865,49.842132800025865,49.842132800025865,,,,,,,200202,001,2023-11-30_15h41.36.748,REPSWITCH1_version2_list2,2022.2.4,143.88240780155317,
REPSWITCH1/PICTURE_498.png,taza,type,gold,filler,1,F,1,3,2,2,Stim4_Set4,0,None,6,5,6,0,5,5,5,,,,,,,,,,,,,,,,,,,,,,,50.34219589992426,51.56459300010465,51.56459300010465,51.56459300010465,51.56459300010465,51.56459300010465,51.56459300010465,51.56459300010465,51.56459300010465,"['t', 'a', 'z', 'a']",0,taza,C:\2023\REPSWITCH21092023\REPSWITCH_excgange\REPSWITCH_excgange\data/200202_REPSWITCH1_version2_list2_2023-11-30_15h41.36.748_micRespv2l2_recorded\recording_micRespv2l2_2023-11-30_15h42.18.604.wav,54.585840000072494,55.085965499980375,None,54.585840000072494,54.585840000072494,54.585840000072494,54.585840000072494,54.585840000072494,54.585840000072494,"[0.9771968999411911, 1.1336660999804735, 1.3688837999943644, 1.4619173998944461]",,,,,,200202,001,2023-11-30_15h41.36.748,REPSWITCH1_version2_list2,2022.2.4,143.88240780155317,
REPSWITCH1/PICTURE_16.png,cazador,speak,darkblue,nontarget,2,NT,1,3,2,2,Stim6_Set1,1,switch,7,6,7,0,6,6,6,,,,,,,,,,,,,,,,,,,,,,,55.085965499980375,56.1901895001065,56.1901895001065,56.1901895001065,56.1901895001065,56.1901895001065,56.1901895001065,56.1901895001065,56.1901895001065,None,0,,C:\2023\REPSWITCH21092023\REPSWITCH_excgange\REPSWITCH_excgange\data/200202_REPSWITCH1_version2_list2_2023-11-30_15h41.36.748_micRespv2l2_recorded\recording_micRespv2l2_2023-11-30_15h42.23.230.wav,59.21838580002077,59.71844850014895,None,59.21838580002077,59.21838580002077,59.21838580002077,59.21838580002077,59.21838580002077,59.21838580002077,,,,,,,200202,001,2023-11-30_15h41.36.748,REPSWITCH1_version2_list2,2022.2.4,143.88240780155317,
REPSWITCH1/PICTURE_16.png,cazador,speak,darkblue,repeat,2,T,1,3,2,2,Stim6_Set1,0,None,8,7,8,0,7,7,7,,,,,,,,,,,,,,,,,,,,,,,59.71844850014895,60.76030580000952,60.76030580000952,60.76030580000952,60.76030580000952,60.76030580000952,60.76030580000952,60.76030580000952,60.76030580000952,None,0,,C:\2023\REPSWITCH21092023\REPSWITCH_excgange\REPSWITCH_excgange\data/200202_REPSWITCH1_version2_list2_2023-11-30_15h41.36.748_micRespv2l2_recorded\recording_micRespv2l2_2023-11-30_15h42.27.800.wav,63.78144400008023,64.28154009999707,None,63.78144400008023,63.78144400008023,63.78144400008023,63.78144400008023,63.78144400008023,63.78144400008023,,,,,,,200202,001,2023-11-30_15h41.36.748,REPSWITCH1_version2_list2,2022.2.4,143.88240780155317,
REPSWITCH1/PICTURE_719.png,baño,type,gold,filler,1,F,1,3,2,2,Stim2_Set4,0,None,9,8,9,0,8,8,8,,,,,,,,,,,,,,,,,,,,,,,64.28154009999707,65.49698749999516,65.49698749999516,65.49698749999516,65.49698749999516,65.49698749999516,65.49698749999516,65.49698749999516,65.49698749999516,"['b', 'a', 'ñ', 'o']",0,baño,C:\2023\REPSWITCH21092023\REPSWITCH_excgange\REPSWITCH_excgange\data/200202_REPSWITCH1_version2_list2_2023-11-30_15h41.36.748_micRespv2l2_recorded\recording_micRespv2l2_2023-11-30_15h42.32.537.wav,68.51817000005394,69.01823649997823,None,68.51817000005394,68.51817000005394,68.51817000005394,68.51817000005394,68.51817000005394,68.51817000005394,"[1.3236773000098765, 1.5250513998325914, 2.064500199863687, 2.2703674000222236]",,,,,,200202,001,2023-11-30_15h41.36.748,REPSWITCH1_version2_list2,2022.2.4,143.88240780155317,
REPSWITCH1/PICTURE_169.png,espalda,speak,darkblue,nontarget,2,NT,1,3,2,2,Stim8_Set1,0,None,10,9,10,0,9,9,9,,,,,,,,,,,,,,,,,,,,,,,69.01823649997823,70.12264190008864,70.12264190008864,70.12264190008864,70.12264190008864,70.12264190008864,70.12264190008864,70.12264190008864,70.12264190008864,None,0,,C:\2023\REPSWITCH21092023\REPSWITCH_excgange\REPSWITCH_excgange\data/200202_REPSWITCH1_version2_list2_2023-11-30_15h41.36.748_micRespv2l2_recorded\recording_micRespv2l2_2023-11-30_15h42.37.162.wav,73.14381040004082,73.64388310001232,None,73.14381040004082,73.14381040004082,73.14381040004082,73.14381040004082,73.14381040004082,73.14381040004082,,,,,,,200202,001,2023-11-30_15h41.36.748,REPSWITCH1_version2_list2,2022.2.4,143.88240780155317,
REPSWITCH1/PICTURE_169.png,espalda,type,gold,switch,1,T,1,3,2,2,Stim8_Set1,0,None,11,10,11,0,10,10,10,,,,,,,,,,,,,,,,,,,,,,,73.64388310001232,74.71347720013,74.71347720013,74.71347720013,74.71347720013,74.71347720013,74.71347720013,74.71347720013,74.71347720013,"['e', 's', 'p', 'a', 'l', 'd', 'a']",0,espalda,C:\2023\REPSWITCH21092023\REPSWITCH_excgange\REPSWITCH_excgange\data/200202_REPSWITCH1_version2_list2_2023-11-30_15h41.36.748_micRespv2l2_recorded\recording_micRespv2l2_2023-11-30_15h42.41.753.wav,77.73465760005638,78.23483279999346,None,77.73465760005638,77.73465760005638,77.73465760005638,77.73465760005638,77.73465760005638,77.73465760005638,"[0.8614816998597234, 1.0792651998344809, 1.2250869998242706, 1.3706065998412669, 1.5110863000154495, 1.8549562999978662, 1.9450244000181556]",,,,,,200202,001,2023-11-30_15h41.36.748,REPSWITCH1_version2_list2,2022.2.4,143.88240780155317,
REPSWITCH1/PICTURE_687.png,camisa,type,gold,filler,1,F,1,3,2,2,Stim5_Set4,0,None,12,11,12,0,11,11,11,,,,,,,,,,,,,,,,,,,,,,,78.23483279999346,79.35298580001108,79.35298580001108,79.35298580001108,79.35298580001108,79.35298580001108,79.35298580001108,79.35298580001108,79.35298580001108,"['c', 'a', 'm', 'i', 's', 'a']",0,camisa,C:\2023\REPSWITCH21092023\REPSWITCH_excgange\REPSWITCH_excgange\data/200202_REPSWITCH1_version2_list2_2023-11-30_15h41.36.748_micRespv2l2_recorded\recording_micRespv2l2_2023-11-30_15h42.46.393.wav,82.37425630004145,82.87422919995151,None,82.37425630004145,82.37425630004145,82.37425630004145,82.37425630004145,82.37425630004145,82.37425630004145,"[1.1322911998722702, 1.2359704996924847, 1.5848180998582393, 1.8112372998148203, 1.9916663998737931, 2.21340289991349]",,,,,,200202,001,2023-11-30_15h41.36.748,REPSWITCH1_version2_list2,2022.2.4,143.88240780155317,
REPSWITCH1/PICTURE_178.png,puente,type,gold,nontarget,1,NT,1,3,2,2,Stim1_Set1,1,repeat,13,12,13,0,12,12,12,,,,,,,,,,,,,,,,,,,,,,,82.87422919995151,83.99944290006533,83.99944290006533,83.99944290006533,83.99944290006533,83.99944290006533,83.99944290006533,83.99944290006533,83.99944290006533,"['p', 'u', 'e', 'n', 't', 'e']",0,puente,C:\2023\REPSWITCH21092023\REPSWITCH_excgange\REPSWITCH_excgange\data/200202_REPSWITCH1_version2_list2_2023-11-30_15h41.36.748_micRespv2l2_recorded\recording_micRespv2l2_2023-11-30_15h42.51.040.wav,87.0275725000538,,None,87.0275725000538,87.0275725000538,87.0275725000538,87.0275725000538,87.0275725000538,87.0275725000538,"[1.36984709976241, 1.7448366999160498, 1.9067290998063982, 2.111032399814576, 2.318336699856445, 2.416539799887687]",,,,,,200202,001,2023-11-30_15h41.36.748,REPSWITCH1_version2_list2,2022.2.4,143.88240780155317,
REPSWITCH1/PICTURE_178.png,puente,speak,darkblue,switch,2,T,1,3,2,2,Stim1_Set1,0,None,14,13,14,0,13,13,13,,,,,,,,,,,,,,,,,,,,,,,87.52762429998256,88.63891179999337,88.63891179999337,88.63891179999337,88.63891179999337,88.63891179999337,88.63891179999337,88.63891179999337,88.63891179999337,None,0,,C:\2023\REPSWITCH21092023\REPSWITCH_excgange\REPSWITCH_excgange\data/200202_REPSWITCH1_version2_list2_2023-11-30_15h41.36.748_micRespv2l2_recorded\recording_micRespv2l2_2023-11-30_15h42.55.678.wav,91.6601066000294,92.16016310011037,None,91.6601066000294,91.6601066000294,91.6601066000294,91.6601066000294,91.6601066000294,91.6601066000294,,,,,,,200202,001,2023-11-30_15h41.36.748,REPSWITCH1_version2_list2,2022.2.4,143.88240780155317,
REPSWITCH1/PICTURE_128.png,muñeca,speak,darkblue,nontarget,2,NT,1,3,2,2,Stim4_Set1,1,repeat,15,14,15,0,14,14,14,,,,,,,,,,,,,,,,,,,,,,,92.16016310011037,93.36869239993393,93.36869239993393,93.36869239993393,93.36869239993393,93.36869239993393,93.36869239993393,93.36869239993393,93.36869239993393,None,0,,C:\2023\REPSWITCH21092023\REPSWITCH_excgange\REPSWITCH_excgange\data/200202_REPSWITCH1_version2_list2_2023-11-30_15h41.36.748_micRespv2l2_recorded\recording_micRespv2l2_2023-11-30_15h43.00.408.wav,96.3898939001374,96.89004440000281,None,96.3898939001374,96.3898939001374,96.3898939001374,96.3898939001374,96.3898939001374,96.3898939001374,,,,,,,200202,001,2023-11-30_15h41.36.748,REPSWITCH1_version2_list2,2022.2.4,143.88240780155317,
REPSWITCH1/PICTURE_128.png,muñeca,type,gold,switch,1,T,1,3,2,2,Stim4_Set1,0,None,16,15,16,0,15,15,15,,,,,,,,,,,,,,,,,,,,,,,96.89004440000281,98.02206370001659,98.02206370001659,98.02206370001659,98.02206370001659,98.02206370001659,98.02206370001659,98.02206370001659,98.02206370001659,"['backspace', 'm', 'u', 'ñ', 'e']",0,muñe,C:\2023\REPSWITCH21092023\REPSWITCH_excgange\REPSWITCH_excgange\data/200202_REPSWITCH1_version2_list2_2023-11-30_15h41.36.748_micRespv2l2_recorded\recording_micRespv2l2_2023-11-30_15h43.05.062.wav,101.0433005001396,101.54336989996955,None,101.0433005001396,101.0433005001396,101.0433005001396,101.0433005001396,101.0433005001396,101.0433005001396,"[1.8587217996828258, 2.2228854997083545, 2.437595099909231, 2.888466299744323, 2.969142999732867]",,,,,,200202,001,2023-11-30_15h41.36.748,REPSWITCH1_version2_list2,2022.2.4,143.88240780155317,
REPSWITCH1/PICTURE_319.png,vaca,speak,darkblue,filler,2,F,1,3,2,2,Stim1_Set4,1,switch,17,16,17,0,16,16,16,,,,,,,,,,,,,,,,,,,,,,,101.54336989996955,102.5782510000281,102.5782510000281,102.5782510000281,102.5782510000281,102.5782510000281,102.5782510000281,102.5782510000281,102.5782510000281,None,0,,C:\2023\REPSWITCH21092023\REPSWITCH_excgange\REPSWITCH_excgange\data/200202_REPSWITCH1_version2_list2_2023-11-30_15h41.36.748_micRespv2l2_recorded\recording_micRespv2l2_2023-11-30_15h43.09.618.wav,105.59952679998241,106.09951990004629,None,105.59952679998241,105.59952679998241,105.59952679998241,105.59952679998241,105.59952679998241,105.59952679998241,,,,,,,200202,001,2023-11-30_15h41.36.748,REPSWITCH1_version2_list2,2022.2.4,143.88240780155317,
REPSWITCH1/PICTURE_728.png,pulpo,speak,darkblue,filler,2,F,1,3,2,2,Stim8_Set4,0,None,18,17,18,0,17,17,17,,,,,,,,,,,,,,,,,,,,,,,106.09951990004629,107.23159019998275,107.23159019998275,107.23159019998275,107.23159019998275,107.23159019998275,107.23159019998275,107.23159019998275,107.23159019998275,None,0,,C:\2023\REPSWITCH21092023\REPSWITCH_excgange\REPSWITCH_excgange\data/200202_REPSWITCH1_version2_list2_2023-11-30_15h41.36.748_micRespv2l2_recorded\recording_micRespv2l2_2023-11-30_15h43.14.270.wav,110.25284410011955,110.75290110008791,None,110.25284410011955,110.25284410011955,110.25284410011955,110.25284410011955,110.25284410011955,110.25284410011955,,,,,,,200202,001,2023-11-30_15h41.36.748,REPSWITCH1_version2_list2,2022.2.4,143.88240780155317,
REPSWITCH1/PICTURE_381.png,fresa,type,gold,nontarget,1,NT,1,3,2,2,Stim2_Set1,1,switch,19,18,19,0,18,18,18,,,,,,,,,,,,,,,,,,,,,,,110.75290110008791,111.79470760002732,111.79470760002732,111.79470760002732,111.79470760002732,111.79470760002732,111.79470760002732,111.79470760002732,111.79470760002732,"['f', 'r', 'e', 's', 'a']",0,fresa,C:\2023\REPSWITCH21092023\REPSWITCH_excgange\REPSWITCH_excgange\data/200202_REPSWITCH1_version2_list2_2023-11-30_15h41.36.748_micRespv2l2_recorded\recording_micRespv2l2_2023-11-30_15h43.18.834.wav,114.81592339999042,115.3160715000704,None,114.81592339999042,114.81592339999042,114.81592339999042,114.81592339999042,114.81592339999042,114.81592339999042,"[0.9955625999718904, 1.1443819999694824, 1.2570442999713123, 2.378551499918103, 2.6125928999390453]",,,,,,200202,001,2023-11-30_15h41.36.748,REPSWITCH1_version2_list2,2022.2.4,143.88240780155317,
REPSWITCH1/PICTURE_381.png,fresa,type,gold,repeat,1,T,1,3,2,2,Stim2_Set1,0,None,20,19,20,0,19,19,19,,,,,,,,,,,,,,,,,,,,,,,115.3160715000704,116.36480590002611,116.36480590002611,116.36480590002611,116.36480590002611,116.36480590002611,116.36480590002611,116.36480590002611,116.36480590002611,"['f', 'r', 'e', 's', 'a']",0,fresa,C:\2023\REPSWITCH21092023\REPSWITCH_excgange\REPSWITCH_excgange\data/200202_REPSWITCH1_version2_list2_2023-11-30_15h41.36.748_micRespv2l2_recorded\recording_micRespv2l2_2023-11-30_15h43.23.405.wav,119.39299240009859,,None,119.39299240009859,119.39299240009859,119.39299240009859,119.39299240009859,119.39299240009859,119.39299240009859,"[1.2343397999648005, 1.3740338999778032, 1.4577566999942064, 1.6754341998603195, 1.9004427997861058]",,,,,,200202,001,2023-11-30_15h41.36.748,REPSWITCH1_version2_list2,2022.2.4,143.88240780155317,
REPSWITCH1/PICTURE_8.png,pierna,speak,darkblue,filler,2,F,1,3,2,2,Stim3_Set4,0,None,21,20,21,0,20,20,20,,,,,,,,,,,,,,,,,,,,,,,119.89297430007719,121.00422829994932,121.00422829994932,121.00422829994932,121.00422829994932,121.00422829994932,121.00422829994932,121.00422829994932,121.00422829994932,None,0,,C:\2023\REPSWITCH21092023\REPSWITCH_excgange\REPSWITCH_excgange\data/200202_REPSWITCH1_version2_list2_2023-11-30_15h41.36.748_micRespv2l2_recorded\recording_micRespv2l2_2023-11-30_15h43.28.044.wav,124.03237590007484,,None,124.03237590007484,124.03237590007484,124.03237590007484,124.03237590007484,124.03237590007484,124.03237590007484,,,,,,,200202,001,2023-11-30_15h41.36.748,REPSWITCH1_version2_list2,2022.2.4,143.88240780155317,
REPSWITCH1/PICTURE_48.png,bombero,speak,darkblue,filler,2,F,1,3,2,2,Stim7_Set4,0,None,22,21,22,0,21,21,21,,,,,,,,,,,,,,,,,,,,,,,124.5325541999191,125.61601629992947,125.61601629992947,125.61601629992947,125.61601629992947,125.61601629992947,125.61601629992947,125.61601629992947,125.61601629992947,None,0,,C:\2023\REPSWITCH21092023\REPSWITCH_excgange\REPSWITCH_excgange\data/200202_REPSWITCH1_version2_list2_2023-11-30_15h41.36.748_micRespv2l2_recorded\recording_micRespv2l2_2023-11-30_15h43.32.656.wav,128.64410690008663,,None,128.64410690008663,128.64410690008663,128.64410690008663,128.64410690008663,128.64410690008663,128.64410690008663,,,,,,,200202,001,2023-11-30_15h41.36.748,REPSWITCH1_version2_list2,2022.2.4,143.88240780155317,
REPSWITCH1/PICTURE_135.png,traje,type,gold,nontarget,1,NT,1,3,2,2,Stim3_Set1,1,switch,23,22,23,0,22,22,22,,,,,,,,,,,,,,,,,,,,,,,129.14417150011286,130.22074869996868,130.22074869996868,130.22074869996868,130.22074869996868,130.22074869996868,130.22074869996868,130.22074869996868,130.22074869996868,"['t', 'r', 'a', 'j', 'e']",0,traje,C:\2023\REPSWITCH21092023\REPSWITCH_excgange\REPSWITCH_excgange\data/200202_REPSWITCH1_version2_list2_2023-11-30_15h41.36.748_micRespv2l2_recorded\recording_micRespv2l2_2023-11-30_15h43.37.261.wav,133.24196300003678,133.74201940000057,None,133.24196300003678,133.24196300003678,133.24196300003678,133.24196300003678,133.24196300003678,133.24196300003678,"[1.5671087999362499, 1.7285718999337405, 1.8920016000047326, 2.165289100026712, 2.2669048998504877]",,,,,,200202,001,2023-11-30_15h41.36.748,REPSWITCH1_version2_list2,2022.2.4,143.88240780155317,
REPSWITCH1/PICTURE_135.png,traje,type,gold,repeat,1,T,1,3,2,2,Stim3_Set1,0,None,24,23,24,0,23,23,23,,,,,,,,,,,,,,,,,,,,,,,133.74201940000057,134.97135500004515,134.97135500004515,134.97135500004515,134.97135500004515,134.97135500004515,134.97135500004515,134.97135500004515,134.97135500004515,"['t', 'r', 'a', 'j', 'e']",0,traje,C:\2023\REPSWITCH21092023\REPSWITCH_excgange\REPSWITCH_excgange\data/200202_REPSWITCH1_version2_list2_2023-11-30_15h41.36.748_micRespv2l2_recorded\recording_micRespv2l2_2023-11-30_15h43.42.012.wav,137.99951869994402,,None,137.99951869994402,137.99951869994402,137.99951869994402,137.99951869994402,137.99951869994402,137.99951869994402,"[0.808413399849087, 0.9392890997696668, 1.0374918999150395, 1.3647429998964071, 1.473366899881512]",,,,,,200202,001,2023-11-30_15h41.36.748,REPSWITCH1_version2_list2,2022.2.4,143.88240780155317,
REPSWITCH1/PICTURE_19.png,pavo,type,gold,nontarget,1,NT,1,3,2,2,Stim5_Set1,1,repeat,25,24,25,0,24,24,24,,,,,,,,,,,,,,,,,,,,,,,138.4996619001031,139.70110810012557,139.70110810012557,139.70110810012557,139.70110810012557,139.70110810012557,139.70110810012557,139.70110810012557,139.70110810012557,"['p', 'a', 'v', 'o']",0,pavo,C:\2023\REPSWITCH21092023\REPSWITCH_excgange\REPSWITCH_excgange\data/200202_REPSWITCH1_version2_list2_2023-11-30_15h41.36.748_micRespv2l2_recorded\recording_micRespv2l2_2023-11-30_15h43.46.741.wav,142.729364000028,,None,142.729364000028,142.729364000028,142.729364000028,142.729364000028,142.729364000028,142.729364000028,"[1.129147999919951, 1.3294316998217255, 1.531751699745655, 1.8999677998945117]",,,,,,200202,001,2023-11-30_15h41.36.748,REPSWITCH1_version2_list2,2022.2.4,143.88240780155317,
REPSWITCH1/PICTURE_19.png,pavo,speak,darkblue,switch,2,T,1,3,2,2,Stim5_Set1,0,None,26,25,26,0,25,25,25,,,,,,,,,,,,,,,,,,,,,,,143.22937449999154,144.3198001999408,144.3198001999408,144.3198001999408,144.3198001999408,144.3198001999408,144.3198001999408,144.3198001999408,144.3198001999408,None,0,,C:\2023\REPSWITCH21092023\REPSWITCH_excgange\REPSWITCH_excgange\data/200202_REPSWITCH1_version2_list2_2023-11-30_15h41.36.748_micRespv2l2_recorded\recording_micRespv2l2_2023-11-30_15h43.51.360.wav,147.34098390000872,147.8410656999331,None,147.34098390000872,147.34098390000872,147.34098390000872,147.34098390000872,147.34098390000872,147.34098390000872,,,,,,,200202,001,2023-11-30_15h41.36.748,REPSWITCH1_version2_list2,2022.2.4,143.88240780155317,
REPSWITCH1/PICTURE_142.png,vaso,speak,darkblue,filler,2,F,2,3,2,2,Stim7_Set1,0,None,27,26,27,0,26,26,26,,,,,,,,,,,,,,,,,,,,,,,147.8410656999331,148.95235339994542,148.95235339994542,148.95235339994542,148.95235339994542,148.95235339994542,148.95235339994542,148.95235339994542,148.95235339994542,None,0,,C:\2023\REPSWITCH21092023\REPSWITCH_excgange\REPSWITCH_excgange\data/200202_REPSWITCH1_version2_list2_2023-11-30_15h41.36.748_micRespv2l2_recorded\recording_micRespv2l2_2023-11-30_15h43.55.991.wav,151.973577799974,152.47363210003823,None,151.973577799974,151.973577799974,151.973577799974,151.973577799974,151.973577799974,151.973577799974,,,,,,,200202,001,2023-11-30_15h41.36.748,REPSWITCH1_version2_list2,2022.2.4,143.88240780155317,
REPSWITCH1/PICTURE_135.png,traje,type,gold,filler,1,F,2,3,2,2,Stim3_Set1,0,None,28,27,28,0,27,27,27,,,,,,,,,,,,,,,,,,,,,,,152.47363210003823,153.51545200007968,153.51545200007968,153.51545200007968,153.51545200007968,153.51545200007968,153.51545200007968,153.51545200007968,153.51545200007968,"['t', 'r', 'a', 'j', 'e']",0,traje,C:\2023\REPSWITCH21092023\REPSWITCH_excgange\REPSWITCH_excgange\data/200202_REPSWITCH1_version2_list2_2023-11-30_15h41.36.748_micRespv2l2_recorded\recording_micRespv2l2_2023-11-30_15h44.00.555.wav,156.53668830008246,157.0367350000888,None,156.53668830008246,156.53668830008246,156.53668830008246,156.53668830008246,156.53668830008246,156.53668830008246,"[0.831149899866432, 0.9768767999485135, 1.0605893000029027, 1.3216559998691082, 1.445072100032121]",,,,,,200202,001,2023-11-30_15h41.36.748,REPSWITCH1_version2_list2,2022.2.4,143.88240780155317,
REPSWITCH1/PICTURE_446.png,cerdo,type,gold,nontarget,1,NT,2,3,2,2,Stim7_Set2,0,None,29,28,29,0,28,28,28,,,,,,,,,,,,,,,,,,,,,,,157.0367350000888,158.16187650011852,158.16187650011852,158.16187650011852,158.16187650011852,158.16187650011852,158.16187650011852,158.16187650011852,158.16187650011852,"['c', 'e', 'r', 'd', 'o']",0,cerdo,C:\2023\REPSWITCH21092023\REPSWITCH_excgange\REPSWITCH_excgange\data/200202_REPSWITCH1_version2_list2_2023-11-30_15h41.36.748_micRespv2l2_recorded\recording_micRespv2l2_2023-11-30_15h44.05.201.wav,161.19002009998076,,None,161.19002009998076,161.19002009998076,161.19002009998076,161.19002009998076,161.19002009998076,161.19002009998076,"[1.043339799856767, 1.14127629972063, 1.2388622998259962, 1.414909599814564, 1.7138826998416334]",,,,,,200202,001,2023-11-30_15h41.36.748,REPSWITCH1_version2_list2,2022.2.4,143.88240780155317,
REPSWITCH1/PICTURE_446.png,cerdo,type,gold,repeat,1,T,2,3,2,2,Stim7_Set2,0,None,30,29,30,0,29,29,29,,,,,,,,,,,,,,,,,,,,,,,161.69010090013035,162.75274579995312,162.75274579995312,162.75274579995312,162.75274579995312,162.75274579995312,162.75274579995312,162.75274579995312,162.75274579995312,"['c', 'e', 'r', 'd', 'o']",0,cerdo,C:\2023\REPSWITCH21092023\REPSWITCH_excgange\REPSWITCH_excgange\data/200202_REPSWITCH1_version2_list2_2023-11-30_15h41.36.748_micRespv2l2_recorded\recording_micRespv2l2_2023-11-30_15h44.09.793.wav,165.78100259997882,,None,165.78100259997882,165.78100259997882,165.78100259997882,165.78100259997882,165.78100259997882,165.78100259997882,"[0.8202040998730808, 0.9119152999483049, 0.9986170998308808, 1.16406699991785, 1.4471285997424275]",,,,,,200202,001,2023-11-30_15h41.36.748,REPSWITCH1_version2_list2,2022.2.4,143.88240780155317,
REPSWITCH1/PICTURE_16.png,cazador,speak,darkblue,filler,2,F,2,3,2,2,Stim6_Set1,0,None,31,30,31,0,30,30,30,,,,,,,,,,,,,,,,,,,,,,,166.28107489994727,167.3437024001032,167.3437024001032,167.3437024001032,167.3437024001032,167.3437024001032,167.3437024001032,167.3437024001032,167.3437024001032,None,0,,C:\2023\REPSWITCH21092023\REPSWITCH_excgange\REPSWITCH_excgange\data/200202_REPSWITCH1_version2_list2_2023-11-30_15h41.36.748_micRespv2l2_recorded\recording_micRespv2l2_2023-11-30_15h44.14.384.wav,170.37189129996113,,None,170.37189129996113,170.37189129996113,170.37189129996113,170.37189129996113,170.37189129996113,170.37189129996113,,,,,,,200202,001,2023-11-30_15h41.36.748,REPSWITCH1_version2_list2,2022.2.4,143.88240780155317,
REPSWITCH1/PICTURE_552.png,manzana,type,gold,nontarget,1,NT,2,3,2,2,Stim6_Set2,1,switch,32,31,32,0,31,31,31,,,,,,,,,,,,,,,,,,,,,,,170.87188310013153,171.9414945000317,171.9414945000317,171.9414945000317,171.9414945000317,171.9414945000317,171.9414945000317,171.9414945000317,171.9414945000317,"['m', 'a', 'n', 'z', 'a', 'n', 'a']",0,manzana,C:\2023\REPSWITCH21092023\REPSWITCH_excgange\REPSWITCH_excgange\data/200202_REPSWITCH1_version2_list2_2023-11-30_15h41.36.748_micRespv2l2_recorded\recording_micRespv2l2_2023-11-30_15h44.18.981.wav,174.96278810012154,175.46283020009287,None,174.96278810012154,174.96278810012154,174.96278810012154,174.96278810012154,174.96278810012154,174.96278810012154,"[0.9226919999346137, 1.007380299968645, 1.1275915999431163, 1.3598068999126554, 1.5750855999067426, 1.7062985999509692, 1.770564700011164]",,,,,,200202,001,2023-11-30_15h41.36.748,REPSWITCH1_version2_list2,2022.2.4,143.88240780155317,
REPSWITCH1/PICTURE_552.png,manzana,type,gold,repeat,1,T,2,3,2,2,Stim6_Set2,0,None,33,32,33,0,32,32,32,,,,,,,,,,,,,,,,,,,,,,,175.46283020009287,176.56014530011453,176.56014530011453,176.56014530011453,176.56014530011453,176.56014530011453,176.56014530011453,176.56014530011453,176.56014530011453,"['backspace', 'm', 'a', 'n', 'z', 'a', 'n', 'a']",0,manzana,C:\2023\REPSWITCH21092023\REPSWITCH_excgange\REPSWITCH_excgange\data/200202_REPSWITCH1_version2_list2_2023-11-30_15h41.36.748_micRespv2l2_recorded\recording_micRespv2l2_2023-11-30_15h44.23.600.wav,179.58830579998903,,None,179.58830579998903,179.58830579998903,179.58830579998903,179.58830579998903,179.58830579998903,179.58830579998903,"[1.3865103998687118, 1.7276208996772766, 1.7974607998039573, 1.9837579997256398, 2.1820947998203337, 2.381047399714589, 2.519627599744126, 2.7646786998957396]",,,,,,200202,001,2023-11-30_15h41.36.748,REPSWITCH1_version2_list2,2022.2.4,143.88240780155317,
REPSWITCH1/PICTURE_517.png,cuerda,type,gold,nontarget,1,NT,2,3,2,2,Stim4_Set2,0,None,34,33,34,0,33,33,33,,,,,,,,,,,,,,,,,,,,,,,180.0883645999711,181.25517960009165,181.25517960009165,181.25517960009165,181.25517960009165,181.25517960009165,181.25517960009165,181.25517960009165,181.25517960009165,"['c', 'u', 'e', 'r', 'd', 'a']",0,cuerda,C:\2023\REPSWITCH21092023\REPSWITCH_excgange\REPSWITCH_excgange\data/200202_REPSWITCH1_version2_list2_2023-11-30_15h41.36.748_micRespv2l2_recorded\recording_micRespv2l2_2023-11-30_15h44.28.296.wav,184.28339350013994,,None,184.28339350013994,184.28339350013994,184.28339350013994,184.28339350013994,184.28339350013994,184.28339350013994,"[1.0422250998672098, 1.3305847998708487, 1.4183025998063385, 1.5691787998657674, 1.7180046997964382, 1.7804086997639388]",,,,,,200202,001,2023-11-30_15h41.36.748,REPSWITCH1_version2_list2,2022.2.4,143.88240780155317,
REPSWITCH1/PICTURE_517.png,cuerda,speak,darkblue,switch,2,T,2,3,2,2,Stim4_Set2,0,None,35,34,35,0,34,34,34,,,,,,,,,,,,,,,,,,,,,,,184.78342760005035,185.9364537000656,185.9364537000656,185.9364537000656,185.9364537000656,185.9364537000656,185.9364537000656,185.9364537000656,185.9364537000656,None,0,,C:\2023\REPSWITCH21092023\REPSWITCH_excgange\REPSWITCH_excgange\data/200202_REPSWITCH1_version2_list2_2023-11-30_15h41.36.748_micRespv2l2_recorded\recording_micRespv2l2_2023-11-30_15h44.32.977.wav,188.95758899999782,189.45763970003463,None,188.95758899999782,188.95758899999782,188.95758899999782,188.95758899999782,188.95758899999782,188.95758899999782,,,,,,,200202,001,2023-11-30_15h41.36.748,REPSWITCH1_version2_list2,2022.2.4,143.88240780155317,
REPSWITCH1/PICTURE_169.png,espalda,speak,darkblue,filler,2,F,2,3,2,2,Stim8_Set1,1,repeat,36,35,36,0,35,35,35,,,,,,,,,,,,,,,,,,,,,,,189.45763970003463,190.49945809994824,190.49945809994824,190.49945809994824,190.49945809994824,190.49945809994824,190.49945809994824,190.49945809994824,190.49945809994824,None,0,,C:\2023\REPSWITCH21092023\REPSWITCH_excgange\REPSWITCH_excgange\data/200202_REPSWITCH1_version2_list2_2023-11-30_15h41.36.748_micRespv2l2_recorded\recording_micRespv2l2_2023-11-30_15h44.37.539.wav,193.52065530000255,194.02074529998936,None,193.52065530000255,193.52065530000255,193.52065530000255,193.52065530000255,193.52065530000255,193.52065530000255,,,,,,,200202,001,2023-11-30_15h41.36.748,REPSWITCH1_version2_list2,2022.2.4,143.88240780155317,
REPSWITCH1/PICTURE_30.png,granja,speak,darkblue,nontarget,2,NT,2,3,2,2,Stim5_Set2,1,repeat,37,36,37,0,36,36,36,,,,,,,,,,,,,,,,,,,,,,,194.02074529998936,195.1528090001084,195.1528090001084,195.1528090001084,195.1528090001084,195.1528090001084,195.1528090001084,195.1528090001084,195.1528090001084,None,0,,C:\2023\REPSWITCH21092023\REPSWITCH_excgange\REPSWITCH_excgange\data/200202_REPSWITCH1_version2_list2_2023-11-30_15h41.36.748_micRespv2l2_recorded\recording_micRespv2l2_2023-11-30_15h44.42.193.wav,198.17403400014155,198.67410870012827,None,198.17403400014155,198.17403400014155,198.17403400014155,198.17403400014155,198.17403400014155,198.17403400014155,,,,,,,200202,001,2023-11-30_15h41.36.748,REPSWITCH1_version2_list2,2022.2.4,143.88240780155317,
REPSWITCH1/PICTURE_30.png,granja,type,gold,switch,1,T,2,3,2,2,Stim5_Set2,0,None,38,37,38,0,37,37,37,,,,,,,,,,,,,,,,,,,,,,,198.67410870012827,199.74373640003614,199.74373640003614,199.74373640003614,199.74373640003614,199.74373640003614,199.74373640003614,199.74373640003614,199.74373640003614,"['g', 'r', 'a', 'n', 'j', 'a']",0,granja,C:\2023\REPSWITCH21092023\REPSWITCH_excgange\REPSWITCH_excgange\data/200202_REPSWITCH1_version2_list2_2023-11-30_15h41.36.748_micRespv2l2_recorded\recording_micRespv2l2_2023-11-30_15h44.46.783.wav,202.76491910009645,203.26497790007852,None,202.76491910009645,202.76491910009645,202.76491910009645,202.76491910009645,202.76491910009645,202.76491910009645,"[1.0353659999091178, 1.2199696998577565, 1.3378089999314398, 1.692621799884364, 1.8810644999612123, 1.9827156998217106]",,,,,,200202,001,2023-11-30_15h41.36.748,REPSWITCH1_version2_list2,2022.2.4,143.88240780155317,
REPSWITCH1/PICTURE_128.png,muñeca,type,gold,filler,1,F,2,3,2,2,Stim4_Set1,1,repeat,39,38,39,0,38,38,38,,,,,,,,,,,,,,,,,,,,,,,203.26497790007852,204.39709510002285,204.39709510002285,204.39709510002285,204.39709510002285,204.39709510002285,204.39709510002285,204.39709510002285,204.39709510002285,"['m', 'u', 'ñ', 'e', 'c', 's', 'backspace', 'a']",0,muñeca,C:\2023\REPSWITCH21092023\REPSWITCH_excgange\REPSWITCH_excgange\data/200202_REPSWITCH1_version2_list2_2023-11-30_15h41.36.748_micRespv2l2_recorded\recording_micRespv2l2_2023-11-30_15h44.51.436.wav,207.42527330014855,,None,207.42527330014855,207.42527330014855,207.42527330014855,207.42527330014855,207.42527330014855,207.42527330014855,"[0.9550832998938859, 1.1763317997101694, 1.5245828998740762, 1.6591276999097317, 1.9162844996899366, 1.998970199842006, 2.811575799714774, 2.9364765998907387]",,,,,,200202,001,2023-11-30_15h41.36.748,REPSWITCH1_version2_list2,2022.2.4,143.88240780155317,
REPSWITCH1/PICTURE_199.png,falda,type,gold,nontarget,1,NT,2,3,2,2,Stim8_Set2,0,None,40,39,40,0,39,39,39,,,,,,,,,,,,,,,,,,,,,,,207.92534509999678,209.00885100010782,209.00885100010782,209.00885100010782,209.00885100010782,209.00885100010782,209.00885100010782,209.00885100010782,209.00885100010782,"['f', 'a', 'l', 'd', 'a']",0,falda,C:\2023\REPSWITCH21092023\REPSWITCH_excgange\REPSWITCH_excgange\data/200202_REPSWITCH1_version2_list2_2023-11-30_15h41.36.748_micRespv2l2_recorded\recording_micRespv2l2_2023-11-30_15h44.56.049.wav,212.03704790002666,,None,212.03704790002666,212.03704790002666,212.03704790002666,212.03704790002666,212.03704790002666,212.03704790002666,"[0.9272443999070674, 1.028494699858129, 1.296620500041172, 1.6029519999865443, 1.6776898000389338]",,,,,,200202,001,2023-11-30_15h41.36.748,REPSWITCH1_version2_list2,2022.2.4,143.88240780155317,
REPSWITCH1/PICTURE_199.png,falda,speak,darkblue,switch,2,T,2,3,2,2,Stim8_Set2,0,None,41,40,41,0,40,40,40,,,,,,,,,,,,,,,,,,,,,,,212.53703729994595,213.6761696001049,213.6761696001049,213.6761696001049,213.6761696001049,213.6761696001049,213.6761696001049,213.6761696001049,213.6761696001049,None,0,,C:\2023\REPSWITCH21092023\REPSWITCH_excgange\REPSWITCH_excgange\data/200202_REPSWITCH1_version2_list2_2023-11-30_15h41.36.748_micRespv2l2_recorded\recording_micRespv2l2_2023-11-30_15h45.00.715.wav,216.70426789997146,,None,216.70426789997146,216.70426789997146,216.70426789997146,216.70426789997146,216.70426789997146,216.70426789997146,,,,,,,200202,001,2023-11-30_15h41.36.748,REPSWITCH1_version2_list2,2022.2.4,143.88240780155317,
REPSWITCH1/PICTURE_152.png,caracol,speak,darkblue,nontarget,2,NT,2,3,2,2,Stim2_Set2,1,switch,42,41,42,0,41,41,41,,,,,,,,,,,,,,,,,,,,,,,217.20432529994287,218.4475668000523,218.4475668000523,218.4475668000523,218.4475668000523,218.4475668000523,218.4475668000523,218.4475668000523,218.4475668000523,None,0,,C:\2023\REPSWITCH21092023\REPSWITCH_excgange\REPSWITCH_excgange\data/200202_REPSWITCH1_version2_list2_2023-11-30_15h41.36.748_micRespv2l2_recorded\recording_micRespv2l2_2023-11-30_15h45.05.488.wav,221.47580040013418,,None,221.47580040013418,221.47580040013418,221.47580040013418,221.47580040013418,221.47580040013418,221.47580040013418,,,,,,,200202,001,2023-11-30_15h41.36.748,REPSWITCH1_version2_list2,2022.2.4,143.88240780155317,
REPSWITCH1/PICTURE_152.png,caracol,speak,darkblue,repeat,2,T,2,3,2,2,Stim2_Set2,0,None,43,42,43,0,42,42,42,,,,,,,,,,,,,,,,,,,,,,,221.97586919995956,223.13569559995085,223.13569559995085,223.13569559995085,223.13569559995085,223.13569559995085,223.13569559995085,223.13569559995085,223.13569559995085,None,0,,C:\2023\REPSWITCH21092023\REPSWITCH_excgange\REPSWITCH_excgange\data/200202_REPSWITCH1_version2_list2_2023-11-30_15h41.36.748_micRespv2l2_recorded\recording_micRespv2l2_2023-11-30_15h45.10.175.wav,226.1569197999779,226.6569668999873,None,226.1569197999779,226.1569197999779,226.1569197999779,226.1569197999779,226.1569197999779,226.1569197999779,,,,,,,200202,001,2023-11-30_15h41.36.748,REPSWITCH1_version2_list2,2022.2.4,143.88240780155317,
REPSWITCH1/PICTURE_381.png,fresa,type,gold,filler,1,F,2,3,2,2,Stim2_Set1,0,None,44,43,44,0,43,43,43,,,,,,,,,,,,,,,,,,,,,,,226.6569668999873,227.72658900008537,227.72658900008537,227.72658900008537,227.72658900008537,227.72658900008537,227.72658900008537,227.72658900008537,227.72658900008537,"['f', 'r', 'e', 's', 'a']",0,fresa,C:\2023\REPSWITCH21092023\REPSWITCH_excgange\REPSWITCH_excgange\data/200202_REPSWITCH1_version2_list2_2023-11-30_15h41.36.748_micRespv2l2_recorded\recording_micRespv2l2_2023-11-30_15h45.14.766.wav,230.74777060002089,231.2478316000197,None,230.74777060002089,230.74777060002089,230.74777060002089,230.74777060002089,230.74777060002089,230.74777060002089,"[1.2895744999404997, 1.4583970999810845, 1.6638974000234157, 1.8717469999101013, 1.988700499990955]",,,,,,200202,001,2023-11-30_15h41.36.748,REPSWITCH1_version2_list2,2022.2.4,143.88240780155317,
REPSWITCH1/PICTURE_175.png,pintor,speak,darkblue,nontarget,2,NT,2,3,2,2,Stim1_Set2,1,switch,45,44,45,0,44,44,44,,,,,,,,,,,,,,,,,,,,,,,231.2478316000197,232.31743429997005,232.31743429997005,232.31743429997005,232.31743429997005,232.31743429997005,232.31743429997005,232.31743429997005,232.31743429997005,None,0,,C:\2023\REPSWITCH21092023\REPSWITCH_excgange\REPSWITCH_excgange\data/200202_REPSWITCH1_version2_list2_2023-11-30_15h41.36.748_micRespv2l2_recorded\recording_micRespv2l2_2023-11-30_15h45.19.357.wav,235.33862209995277,235.8387122999411,None,235.33862209995277,235.33862209995277,235.33862209995277,235.33862209995277,235.33862209995277,235.33862209995277,,,,,,,200202,001,2023-11-30_15h41.36.748,REPSWITCH1_version2_list2,2022.2.4,143.88240780155317,
REPSWITCH1/PICTURE_175.png,pintor,speak,darkblue,repeat,2,T,2,3,2,2,Stim1_Set2,0,None,46,45,46,0,45,45,45,,,,,,,,,,,,,,,,,,,,,,,235.8387122999411,236.97776819998398,236.97776819998398,236.97776819998398,236.97776819998398,236.97776819998398,236.97776819998398,236.97776819998398,236.97776819998398,None,0,,C:\2023\REPSWITCH21092023\REPSWITCH_excgange\REPSWITCH_excgange\data/200202_REPSWITCH1_version2_list2_2023-11-30_15h41.36.748_micRespv2l2_recorded\recording_micRespv2l2_2023-11-30_15h45.24.017.wav,239.9989857999608,240.4991009000223,None,239.9989857999608,239.9989857999608,239.9989857999608,239.9989857999608,239.9989857999608,239.9989857999608,,,,,,,200202,001,2023-11-30_15h41.36.748,REPSWITCH1_version2_list2,2022.2.4,143.88240780155317,
REPSWITCH1/PICTURE_178.png,puente,type,gold,filler,1,F,2,3,2,2,Stim1_Set1,0,None,47,46,47,0,46,46,46,,,,,,,,,,,,,,,,,,,,,,,240.4991009000223,241.77701880014502,241.77701880014502,241.77701880014502,241.77701880014502,241.77701880014502,241.77701880014502,241.77701880014502,241.77701880014502,"['p', 'u', 'e', 'n', 't', 'e']",0,puente,C:\2023\REPSWITCH21092023\REPSWITCH_excgange\REPSWITCH_excgange\data/200202_REPSWITCH1_version2_list2_2023-11-30_15h41.36.748_micRespv2l2_recorded\recording_micRespv2l2_2023-11-30_15h45.28.816.wav,244.7982252999209,245.29830020014197,None,244.7982252999209,244.7982252999209,244.7982252999209,244.7982252999209,244.7982252999209,244.7982252999209,"[0.9432126998435706, 1.3229204998351634, 1.4857029998674989, 1.6710862996987998, 1.8876811997033656, 1.9973023997154087]",,,,,,200202,001,2023-11-30_15h41.36.748,REPSWITCH1_version2_list2,2022.2.4,143.88240780155317,
REPSWITCH1/PICTURE_19.png,pavo,speak,darkblue,filler,2,F,2,3,2,2,Stim5_Set1,0,None,48,47,48,0,47,47,47,,,,,,,,,,,,,,,,,,,,,,,245.29830020014197,246.4581425001379,246.4581425001379,246.4581425001379,246.4581425001379,246.4581425001379,246.4581425001379,246.4581425001379,246.4581425001379,None,0,,C:\2023\REPSWITCH21092023\REPSWITCH_excgange\REPSWITCH_excgange\data/200202_REPSWITCH1_version2_list2_2023-11-30_15h41.36.748_micRespv2l2_recorded\recording_micRespv2l2_2023-11-30_15h45.33.498.wav,249.48634790000506,,None,249.48634790000506,249.48634790000506,249.48634790000506,249.48634790000506,249.48634790000506,249.48634790000506,,,,,,,200202,001,2023-11-30_15h41.36.748,REPSWITCH1_version2_list2,2022.2.4,143.88240780155317,
REPSWITCH1/PICTURE_264.png,mano,speak,darkblue,nontarget,2,NT,2,3,2,2,Stim3_Set2,1,repeat,49,48,49,0,48,48,48,,,,,,,,,,,,,,,,,,,,,,,249.98641579994,251.03522620000876,251.03522620000876,251.03522620000876,251.03522620000876,251.03522620000876,251.03522620000876,251.03522620000876,251.03522620000876,None,0,,C:\2023\REPSWITCH21092023\REPSWITCH_excgange\REPSWITCH_excgange\data/200202_REPSWITCH1_version2_list2_2023-11-30_15h41.36.748_micRespv2l2_recorded\recording_micRespv2l2_2023-11-30_15h45.38.075.wav,254.056379100075,254.55645140004344,None,254.056379100075,254.056379100075,254.056379100075,254.056379100075,254.056379100075,254.056379100075,,,,,,,200202,001,2023-11-30_15h41.36.748,REPSWITCH1_version2_list2,2022.2.4,143.88240780155317,
REPSWITCH1/PICTURE_264.png,mano,type,gold,switch,1,T,2,3,2,2,Stim3_Set2,0,None,50,49,50,0,49,49,49,,,,,,,,,,,,,,,,,,,,,,,254.55645140004344,255.66776640014723,255.66776640014723,255.66776640014723,255.66776640014723,255.66776640014723,255.66776640014723,255.66776640014723,255.66776640014723,"['m', 'a', 'n', 'o']",0,mano,C:\2023\REPSWITCH21092023\REPSWITCH_excgange\REPSWITCH_excgange\data/200202_REPSWITCH1_version2_list2_2023-11-30_15h41.36.748_micRespv2l2_recorded\recording_micRespv2l2_2023-11-30_15h45.42.708.wav,258.6958731999621,,None,258.6958731999621,258.6958731999621,258.6958731999621,258.6958731999621,258.6958731999621,258.6958731999621,"[0.8193689999170601, 0.9073646999895573, 1.0103777998592705, 1.324688599910587]",,,,,,200202,001,2023-11-30_15h41.36.748,REPSWITCH1_version2_list2,2022.2.4,143.88240780155317,
REPSWITCH1/PICTURE_446.png,cerdo,type,gold,filler,1,F,3,3,2,2,Stim7_Set2,0,None,51,50,51,0,50,50,50,,,,,,,,,,,,,,,,,,,,,,,259.1959570001345,260.33504660008475,260.33504660008475,260.33504660008475,260.33504660008475,260.33504660008475,260.33504660008475,260.33504660008475,260.33504660008475,"['c', 'e', 'r', 'd', 'o']",0,cerdo,C:\2023\REPSWITCH21092023\REPSWITCH_excgange\REPSWITCH_excgange\data/200202_REPSWITCH1_version2_list2_2023-11-30_15h41.36.748_micRespv2l2_recorded\recording_micRespv2l2_2023-11-30_15h45.47.375.wav,263.35619330010377,263.8562674999703,space,263.35619330010377,263.35619330010377,263.35619330010377,263.35619330010377,263.35619330010377,263.35619330010377,"[0.8877085999120027, 0.9614524997305125, 1.0920278998091817, 1.219595099799335, 1.5109496999066323]",263.8562674999703,263.8562674999703,18.041037699906155,,,200202,001,2023-11-30_15h41.36.748,REPSWITCH1_version2_list2,2022.2.4,143.88240780155317,
REPSWITCH1/PICTURE_235.png,aguja,type,gold,nontarget,1,NT,3,3,2,2,Stim4_Set3,1,repeat,52,51,52,0,51,51,51,,,,,,,,,,,,,,,,,,,,,,,281.9072664999403,282.9699568999931,282.9699568999931,282.9699568999931,282.9699568999931,282.9699568999931,282.9699568999931,282.9699568999931,282.9699568999931,"['a', 'g', 'u', 'j', 'a']",0,aguja,C:\2023\REPSWITCH21092023\REPSWITCH_excgange\REPSWITCH_excgange\data/200202_REPSWITCH1_version2_list2_2023-11-30_15h41.36.748_micRespv2l2_recorded\recording_micRespv2l2_2023-11-30_15h46.10.009.wav,285.991105500143,286.4911671001464,None,285.991105500143,285.991105500143,285.991105500143,285.991105500143,285.991105500143,285.991105500143,"[1.13268779986538, 1.2546213997993618, 1.490022299811244, 1.9770565999206156, 2.0945756998844445]",,,,,,200202,001,2023-11-30_15h41.36.748,REPSWITCH1_version2_list2,2022.2.4,143.88240780155317,
REPSWITCH1/PICTURE_235.png,aguja,speak,darkblue,switch,2,T,3,3,2,2,Stim4_Set3,0,None,53,52,53,0,52,52,52,,,,,,,,,,,,,,,,,,,,,,,286.4911671001464,287.6094486999791,287.6094486999791,287.6094486999791,287.6094486999791,287.6094486999791,287.6094486999791,287.6094486999791,287.6094486999791,None,0,,C:\2023\REPSWITCH21092023\REPSWITCH_excgange\REPSWITCH_excgange\data/200202_REPSWITCH1_version2_list2_2023-11-30_15h41.36.748_micRespv2l2_recorded\recording_micRespv2l2_2023-11-30_15h46.14.649.wav,290.63058579992503,291.1307657000143,None,290.63058579992503,290.63058579992503,290.63058579992503,290.63058579992503,290.63058579992503,290.63058579992503,,,,,,,200202,001,2023-11-30_15h41.36.748,REPSWITCH1_version2_list2,2022.2.4,143.88240780155317,
REPSWITCH1/PICTURE_552.png,manzana,speak,darkblue,filler,2,F,3,3,2,2,Stim6_Set2,0,None,54,53,54,0,53,53,53,,,,,,,,,,,,,,,,,,,,,,,291.1307657000143,292.2141496001277,292.2141496001277,292.2141496001277,292.2141496001277,292.2141496001277,292.2141496001277,292.2141496001277,292.2141496001277,None,0,,C:\2023\REPSWITCH21092023\REPSWITCH_excgange\REPSWITCH_excgange\data/200202_REPSWITCH1_version2_list2_2023-11-30_15h41.36.748_micRespv2l2_recorded\recording_micRespv2l2_2023-11-30_15h46.19.253.wav,295.2354765001219,295.73544970015064,None,295.2354765001219,295.2354765001219,295.2354765001219,295.2354765001219,295.2354765001219,295.2354765001219,,,,,,,200202,001,2023-11-30_15h41.36.748,REPSWITCH1_version2_list2,2022.2.4,143.88240780155317,
REPSWITCH1/PICTURE_271.png,conejo,speak,darkblue,nontarget,2,NT,3,3,2,2,Stim7_Set3,1,repeat,55,54,55,0,54,54,54,,,,,,,,,,,,,,,,,,,,,,,295.73544970015064,296.9022844999563,296.9022844999563,296.9022844999563,296.9022844999563,296.9022844999563,296.9022844999563,296.9022844999563,296.9022844999563,None,0,,C:\2023\REPSWITCH21092023\REPSWITCH_excgange\REPSWITCH_excgange\data/200202_REPSWITCH1_version2_list2_2023-11-30_15h41.36.748_micRespv2l2_recorded\recording_micRespv2l2_2023-11-30_15h46.23.942.wav,299.93050989997573,,None,299.93050989997573,299.93050989997573,299.93050989997573,299.93050989997573,299.93050989997573,299.93050989997573,,,,,,,200202,001,2023-11-30_15h41.36.748,REPSWITCH1_version2_list2,2022.2.4,143.88240780155317,
REPSWITCH1/PICTURE_271.png,conejo,type,gold,switch,1,T,3,3,2,2,Stim7_Set3,0,None,56,55,56,0,55,55,55,,,,,,,,,,,,,,,,,,,,,,,300.43051450001076,301.56961250002496,301.56961250002496,301.56961250002496,301.56961250002496,301.56961250002496,301.56961250002496,301.56961250002496,301.56961250002496,"['c', 'o', 'n', 'e', 'j', 'o']",0,conejo,C:\2023\REPSWITCH21092023\REPSWITCH_excgange\REPSWITCH_excgange\data/200202_REPSWITCH1_version2_list2_2023-11-30_15h41.36.748_micRespv2l2_recorded\recording_micRespv2l2_2023-11-30_15h46.28.610.wav,304.5977320999373,,None,304.5977320999373,304.5977320999373,304.5977320999373,304.5977320999373,304.5977320999373,304.5977320999373,"[1.0320486996788532, 1.1745229996740818, 1.400989499874413, 1.517199499765411, 1.700566299725324, 1.923768299864605]",,,,,,200202,001,2023-11-30_15h41.36.748,REPSWITCH1_version2_list2,2022.2.4,143.88240780155317,
REPSWITCH1/PICTURE_610.png,miel,type,gold,nontarget,1,NT,3,3,2,2,Stim2_Set3,1,repeat,57,56,57,0,56,56,56,,,,,,,,,,,,,,,,,,,,,,,305.097801099997,306.1118137999438,306.1118137999438,306.1118137999438,306.1118137999438,306.1118137999438,306.1118137999438,306.1118137999438,306.1118137999438,"['m', 'i', 'e', 'l']",0,miel,C:\2023\REPSWITCH21092023\REPSWITCH_excgange\REPSWITCH_excgange\data/200202_REPSWITCH1_version2_list2_2023-11-30_15h41.36.748_micRespv2l2_recorded\recording_micRespv2l2_2023-11-30_15h46.33.151.wav,309.1399654999841,,None,309.1399654999841,309.1399654999841,309.1399654999841,309.1399654999841,309.1399654999841,309.1399654999841,"[0.8081185999326408, 0.9964865997899324, 1.1071085999719799, 1.2898077999707311]",,,,,,200202,001,2023-11-30_15h41.36.748,REPSWITCH1_version2_list2,2022.2.4,143.88240780155317,
REPSWITCH1/PICTURE_610.png,miel,speak,darkblue,switch,2,T,3,3,2,2,Stim2_Set3,0,None,58,57,58,0,57,57,57,,,,,,,,,,,,,,,,,,,,,,,309.64003190002404,310.7582906000316,310.7582906000316,310.7582906000316,310.7582906000316,310.7582906000316,310.7582906000316,310.7582906000316,310.7582906000316,None,0,,C:\2023\REPSWITCH21092023\REPSWITCH_excgange\REPSWITCH_excgange\data/200202_REPSWITCH1_version2_list2_2023-11-30_15h41.36.748_micRespv2l2_recorded\recording_micRespv2l2_2023-11-30_15h46.37.798.wav,313.77948509994894,314.27954460005276,None,313.77948509994894,313.77948509994894,313.77948509994894,313.77948509994894,313.77948509994894,313.77948509994894,,,,,,,200202,001,2023-11-30_15h41.36.748,REPSWITCH1_version2_list2,2022.2.4,143.88240780155317,
REPSWITCH1/PICTURE_199.png,falda,type,gold,filler,1,F,3,3,2,2,Stim8_Set2,0,None,59,58,59,0,58,58,58,,,,,,,,,,,,,,,,,,,,,,,314.27954460005276,315.36305449996144,315.36305449996144,315.36305449996144,315.36305449996144,315.36305449996144,315.36305449996144,315.36305449996144,315.36305449996144,"['f', 'a', 'l', 'd', 'a']",0,falda,C:\2023\REPSWITCH21092023\REPSWITCH_excgange\REPSWITCH_excgange\data/200202_REPSWITCH1_version2_list2_2023-11-30_15h41.36.748_micRespv2l2_recorded\recording_micRespv2l2_2023-11-30_15h46.42.402.wav,318.39117620000616,,None,318.39117620000616,318.39117620000616,318.39117620000616,318.39117620000616,318.39117620000616,318.39117620000616,"[0.9112085998058319, 1.011857699835673, 1.283915199805051, 1.593913999851793, 1.6687273997813463]",,,,,,200202,001,2023-11-30_15h41.36.748,REPSWITCH1_version2_list2,2022.2.4,143.88240780155317,
REPSWITCH1/PICTURE_464.png,goma,speak,darkblue,nontarget,2,NT,3,3,2,2,Stim6_Set3,1,switch,60,59,60,0,59,59,59,,,,,,,,,,,,,,,,,,,,,,,318.89127150014974,319.91920639993623,319.91920639993623,319.91920639993623,319.91920639993623,319.91920639993623,319.91920639993623,319.91920639993623,319.91920639993623,None,0,,C:\2023\REPSWITCH21092023\REPSWITCH_excgange\REPSWITCH_excgange\data/200202_REPSWITCH1_version2_list2_2023-11-30_15h41.36.748_micRespv2l2_recorded\recording_micRespv2l2_2023-11-30_15h46.46.959.wav,322.9403787001502,323.4404760999605,None,322.9403787001502,322.9403787001502,322.9403787001502,322.9403787001502,322.9403787001502,322.9403787001502,,,,,,,200202,001,2023-11-30_15h41.36.748,REPSWITCH1_version2_list2,2022.2.4,143.88240780155317,
REPSWITCH1/PICTURE_464.png,goma,speak,darkblue,repeat,2,T,3,3,2,2,Stim6_Set3,0,None,61,60,61,0,60,60,60,,,,,,,,,,,,,,,,,,,,,,,323.4404760999605,324.52393470006064,324.52393470006064,324.52393470006064,324.52393470006064,324.52393470006064,324.52393470006064,324.52393470006064,324.52393470006064,None,0,,C:\2023\REPSWITCH21092023\REPSWITCH_excgange\REPSWITCH_excgange\data/200202_REPSWITCH1_version2_list2_2023-11-30_15h41.36.748_micRespv2l2_recorded\recording_micRespv2l2_2023-11-30_15h46.51.564.wav,327.54515080014244,328.0452610999346,None,327.54515080014244,327.54515080014244,327.54515080014244,327.54515080014244,327.54515080014244,327.54515080014244,,,,,,,200202,001,2023-11-30_15h41.36.748,REPSWITCH1_version2_list2,2022.2.4,143.88240780155317,
REPSWITCH1/PICTURE_152.png,caracol,type,gold,filler,1,F,3,3,2,2,Stim2_Set2,0,None,62,61,62,0,61,61,61,,,,,,,,,,,,,,,,,,,,,,,328.0452610999346,329.18426400003955,329.18426400003955,329.18426400003955,329.18426400003955,329.18426400003955,329.18426400003955,329.18426400003955,329.18426400003955,"['c', 'r', 'backspace', 'a']",0,ca,C:\2023\REPSWITCH21092023\REPSWITCH_excgange\REPSWITCH_excgange\data/200202_REPSWITCH1_version2_list2_2023-11-30_15h41.36.748_micRespv2l2_recorded\recording_micRespv2l2_2023-11-30_15h46.56.224.wav,332.2055212999694,332.7055667999666,None,332.2055212999694,332.2055212999694,332.2055212999694,332.2055212999694,332.2055212999694,332.2055212999694,"[1.0213190999347717, 1.215808599954471, 2.582173699978739, 2.814382799901068]",,,,,,200202,001,2023-11-30_15h41.36.748,REPSWITCH1_version2_list2,2022.2.4,143.88240780155317,
REPSWITCH1/PICTURE_320.png,iglesia,speak,darkblue,nontarget,2,NT,3,3,2,2,Stim8_Set3,1,switch,63,62,63,0,62,62,62,,,,,,,,,,,,,,,,,,,,,,,332.7055667999666,333.782147299964,333.782147299964,333.782147299964,333.782147299964,333.782147299964,333.782147299964,333.782147299964,333.782147299964,['i'],0,i,C:\2023\REPSWITCH21092023\REPSWITCH_excgange\REPSWITCH_excgange\data/200202_REPSWITCH1_version2_list2_2023-11-30_15h41.36.748_micRespv2l2_recorded\recording_micRespv2l2_2023-11-30_15h47.00.822.wav,336.810310699977,,None,336.810310699977,336.810310699977,336.810310699977,336.810310699977,336.810310699977,336.810310699977,[1.243050100049004],,,,,,200202,001,2023-11-30_15h41.36.748,REPSWITCH1_version2_list2,2022.2.4,143.88240780155317,
REPSWITCH1/PICTURE_320.png,iglesia,speak,darkblue,repeat,2,T,3,3,2,2,Stim8_Set3,0,None,64,63,64,0,63,63,63,,,,,,,,,,,,,,,,,,,,,,,337.3103563999757,338.40081460005604,338.40081460005604,338.40081460005604,338.40081460005604,338.40081460005604,338.40081460005604,338.40081460005604,338.40081460005604,None,0,,C:\2023\REPSWITCH21092023\REPSWITCH_excgange\REPSWITCH_excgange\data/200202_REPSWITCH1_version2_list2_2023-11-30_15h41.36.748_micRespv2l2_recorded\recording_micRespv2l2_2023-11-30_15h47.05.441.wav,341.42893679998815,,None,341.42893679998815,341.42893679998815,341.42893679998815,341.42893679998815,341.42893679998815,341.42893679998815,,,,,,,200202,001,2023-11-30_15h41.36.748,REPSWITCH1_version2_list2,2022.2.4,143.88240780155317,
REPSWITCH1/PICTURE_35.png,oreja,speak,darkblue,nontarget,2,NT,3,3,2,2,Stim5_Set3,0,None,65,64,65,0,64,64,64,,,,,,,,,,,,,,,,,,,,,,,341.92898990004323,342.9916326000821,342.9916326000821,342.9916326000821,342.9916326000821,342.9916326000821,342.9916326000821,342.9916326000821,342.9916326000821,None,0,,C:\2023\REPSWITCH21092023\REPSWITCH_excgange\REPSWITCH_excgange\data/200202_REPSWITCH1_version2_list2_2023-11-30_15h41.36.748_micRespv2l2_recorded\recording_micRespv2l2_2023-11-30_15h47.10.031.wav,346.0128455001395,346.51291369996034,None,346.0128455001395,346.0128455001395,346.0128455001395,346.0128455001395,346.0128455001395,346.0128455001395,,,,,,,200202,001,2023-11-30_15h41.36.748,REPSWITCH1_version2_list2,2022.2.4,143.88240780155317,
REPSWITCH1/PICTURE_35.png,oreja,type,gold,switch,1,T,3,3,2,2,Stim5_Set3,0,None,66,65,66,0,65,65,65,,,,,,,,,,,,,,,,,,,,,,,346.51291369996034,347.57557080010884,347.57557080010884,347.57557080010884,347.57557080010884,347.57557080010884,347.57557080010884,347.57557080010884,347.57557080010884,"['o', 'r', 'e', 'j', 'a']",0,oreja,C:\2023\REPSWITCH21092023\REPSWITCH_excgange\REPSWITCH_excgange\data/200202_REPSWITCH1_version2_list2_2023-11-30_15h41.36.748_micRespv2l2_recorded\recording_micRespv2l2_2023-11-30_15h47.14.615.wav,350.59679089998826,351.0968865000177,None,350.59679089998826,350.59679089998826,350.59679089998826,350.59679089998826,350.59679089998826,350.59679089998826,"[0.8738538997713476, 1.2107548997737467, 1.3079787997994572, 1.5282151997089386, 1.66677839984186]",,,,,,200202,001,2023-11-30_15h41.36.748,REPSWITCH1_version2_list2,2022.2.4,143.88240780155317,
REPSWITCH1/PICTURE_517.png,cuerda,speak,darkblue,filler,2,F,3,3,2,2,Stim4_Set2,0,None,67,66,67,0,66,66,66,,,,,,,,,,,,,,,,,,,,,,,351.0968865000177,352.2568028001115,352.2568028001115,352.2568028001115,352.2568028001115,352.2568028001115,352.2568028001115,352.2568028001115,352.2568028001115,None,0,,C:\2023\REPSWITCH21092023\REPSWITCH_excgange\REPSWITCH_excgange\data/200202_REPSWITCH1_version2_list2_2023-11-30_15h41.36.748_micRespv2l2_recorded\recording_micRespv2l2_2023-11-30_15h47.19.296.wav,355.2779576999601,355.7780094000045,None,355.2779576999601,355.2779576999601,355.2779576999601,355.2779576999601,355.2779576999601,355.2779576999601,,,,,,,200202,001,2023-11-30_15h41.36.748,REPSWITCH1_version2_list2,2022.2.4,143.88240780155317,
REPSWITCH1/PICTURE_30.png,granja,type,gold,filler,1,F,3,3,2,2,Stim5_Set2,1,switch,68,67,68,0,67,67,67,,,,,,,,,,,,,,,,,,,,,,,355.7780094000045,356.81299020000733,356.81299020000733,356.81299020000733,356.81299020000733,356.81299020000733,356.81299020000733,356.81299020000733,356.81299020000733,"['g', 'r', 'a', 'n', 'j', 'a']",0,granja,C:\2023\REPSWITCH21092023\REPSWITCH_excgange\REPSWITCH_excgange\data/200202_REPSWITCH1_version2_list2_2023-11-30_15h41.36.748_micRespv2l2_recorded\recording_micRespv2l2_2023-11-30_15h47.23.852.wav,359.8341000000946,360.33427150011994,None,359.8341000000946,359.8341000000946,359.8341000000946,359.8341000000946,359.8341000000946,359.8341000000946,"[0.927901899907738, 1.1205141998361796, 1.2451279999222606, 1.597956399898976, 1.7964123997371644, 1.9180843997746706]",,,,,,200202,001,2023-11-30_15h41.36.748,REPSWITCH1_version2_list2,2022.2.4,143.88240780155317,
REPSWITCH1/PICTURE_242.png,cartero,type,gold,nontarget,1,NT,3,3,2,2,Stim3_Set3,0,None,69,68,69,0,68,68,68,,,,,,,,,,,,,,,,,,,,,,,360.33427150011994,361.4593432000838,361.4593432000838,361.4593432000838,361.4593432000838,361.4593432000838,361.4593432000838,361.4593432000838,361.4593432000838,"['c', 'a', 'r', 't', 'e', 'r', 'o']",0,cartero,C:\2023\REPSWITCH21092023\REPSWITCH_excgange\REPSWITCH_excgange\data/200202_REPSWITCH1_version2_list2_2023-11-30_15h41.36.748_micRespv2l2_recorded\recording_micRespv2l2_2023-11-30_15h47.28.499.wav,364.4805797999725,364.98064170009457,None,364.4805797999725,364.4805797999725,364.4805797999725,364.4805797999725,364.4805797999725,364.4805797999725,"[1.1265662999358028, 1.2336045999545604, 1.3530727997422218, 1.5265118998941034, 1.6191803999245167, 1.8265115998219699, 2.0458432999439538]",,,,,,200202,001,2023-11-30_15h41.36.748,REPSWITCH1_version2_list2,2022.2.4,143.88240780155317,
REPSWITCH1/PICTURE_242.png,cartero,type,gold,repeat,1,T,3,3,2,2,Stim3_Set3,0,None,70,69,70,0,69,69,69,,,,,,,,,,,,,,,,,,,,,,,364.98064170009457,366.0155317001045,366.0155317001045,366.0155317001045,366.0155317001045,366.0155317001045,366.0155317001045,366.0155317001045,366.0155317001045,"['c', 'a', 'r', 't', 'e', 'r', 'o']",0,cartero,C:\2023\REPSWITCH21092023\REPSWITCH_excgange\REPSWITCH_excgange\data/200202_REPSWITCH1_version2_list2_2023-11-30_15h41.36.748_micRespv2l2_recorded\recording_micRespv2l2_2023-11-30_15h47.33.056.wav,369.04367229994386,,None,369.04367229994386,369.04367229994386,369.04367229994386,369.04367229994386,369.04367229994386,369.04367229994386,"[0.8178950999863446, 0.9265329998452216, 1.045115599874407, 1.2106015000026673, 1.3184131998568773, 1.5226519999559969, 1.7150079000275582]",,,,,,200202,001,2023-11-30_15h41.36.748,REPSWITCH1_version2_list2,2022.2.4,143.88240780155317,
REPSWITCH1/PICTURE_264.png,mano,speak,darkblue,filler,2,F,3,3,2,2,Stim3_Set2,1,switch,71,70,71,0,70,70,70,,,,,,,,,,,,,,,,,,,,,,,369.5438176000025,370.59254660014994,370.59254660014994,370.59254660014994,370.59254660014994,370.59254660014994,370.59254660014994,370.59254660014994,370.59254660014994,None,0,,C:\2023\REPSWITCH21092023\REPSWITCH_excgange\REPSWITCH_excgange\data/200202_REPSWITCH1_version2_list2_2023-11-30_15h41.36.748_micRespv2l2_recorded\recording_micRespv2l2_2023-11-30_15h47.37.633.wav,373.6206632000394,,None,373.6206632000394,373.6206632000394,373.6206632000394,373.6206632000394,373.6206632000394,373.6206632000394,,,,,,,200202,001,2023-11-30_15h41.36.748,REPSWITCH1_version2_list2,2022.2.4,143.88240780155317,
REPSWITCH1/PICTURE_576.png,guante,type,gold,nontarget,1,NT,3,3,2,2,Stim1_Set3,1,switch,72,71,72,0,71,71,71,,,,,,,,,,,,,,,,,,,,,,,374.12072620005347,375.14171050000004,375.14171050000004,375.14171050000004,375.14171050000004,375.14171050000004,375.14171050000004,375.14171050000004,375.14171050000004,"['g', 'u', 'a', 'n', 't', 'e']",0,guante,C:\2023\REPSWITCH21092023\REPSWITCH_excgange\REPSWITCH_excgange\data/200202_REPSWITCH1_version2_list2_2023-11-30_15h41.36.748_micRespv2l2_recorded\recording_micRespv2l2_2023-11-30_15h47.42.181.wav,378.1629145999905,378.6629697000608,None,378.1629145999905,378.1629145999905,378.1629145999905,378.1629145999905,378.1629145999905,378.1629145999905,"[0.9829138999339193, 1.1881881998851895, 1.3147839999292046, 1.4652727998327464, 1.7004922998603433, 1.7972329000476748]",,,,,,200202,001,2023-11-30_15h41.36.748,REPSWITCH1_version2_list2,2022.2.4,143.88240780155317,
REPSWITCH1/PICTURE_576.png,guante,type,gold,repeat,1,T,3,3,2,2,Stim1_Set3,0,None,73,72,73,0,72,72,72,,,,,,,,,,,,,,,,,,,,,,,378.6629697000608,379.7465194000397,379.7465194000397,379.7465194000397,379.7465194000397,379.7465194000397,379.7465194000397,379.7465194000397,379.7465194000397,"['g', 'u', 'a', 'n', 't', 'e']",0,guante,C:\2023\REPSWITCH21092023\REPSWITCH_excgange\REPSWITCH_excgange\data/200202_REPSWITCH1_version2_list2_2023-11-30_15h41.36.748_micRespv2l2_recorded\recording_micRespv2l2_2023-11-30_15h47.46.786.wav,382.7677295000758,383.26776690012775,None,382.7677295000758,382.7677295000758,382.7677295000758,382.7677295000758,382.7677295000758,382.7677295000758,"[0.8234701997134835, 1.025853999890387, 1.1623854998033494, 1.3142049997113645, 1.5277961997780949, 1.601551199797541]",,,,,,200202,001,2023-11-30_15h41.36.748,REPSWITCH1_version2_list2,2022.2.4,143.88240780155317,
REPSWITCH1/PICTURE_175.png,pintor,speak,darkblue,filler,2,F,3,3,2,2,Stim1_Set2,0,None,74,73,74,0,73,73,73,,,,,,,,,,,,,,,,,,,,,,,383.26776690012775,384.3165403001476,384.3165403001476,384.3165403001476,384.3165403001476,384.3165403001476,384.3165403001476,384.3165403001476,384.3165403001476,None,0,,C:\2023\REPSWITCH21092023\REPSWITCH_excgange\REPSWITCH_excgange\data/200202_REPSWITCH1_version2_list2_2023-11-30_15h41.36.748_micRespv2l2_recorded\recording_micRespv2l2_2023-11-30_15h47.51.356.wav,387.3377457000315,387.8378029000014,None,387.3377457000315,387.3377457000315,387.3377457000315,387.3377457000315,387.3377457000315,387.3377457000315,,,,,,,200202,001,2023-11-30_15h41.36.748,REPSWITCH1_version2_list2,2022.2.4,143.88240780155317,
REPSWITCH1/PICTURE_498.png,taza,type,gold,nontarget,1,NT,4,3,2,2,Stim4_Set4,0,None,75,74,75,0,74,74,74,,,,,,,,,,,,,,,,,,,,,,,387.8378029000014,388.87958970014006,388.87958970014006,388.87958970014006,388.87958970014006,388.87958970014006,388.87958970014006,388.87958970014006,388.87958970014006,"['t', 'a', 'z', 'a']",0,taza,C:\2023\REPSWITCH21092023\REPSWITCH_excgange\REPSWITCH_excgange\data/200202_REPSWITCH1_version2_list2_2023-11-30_15h41.36.748_micRespv2l2_recorded\recording_micRespv2l2_2023-11-30_15h47.55.919.wav,391.90082440013066,392.4008864001371,None,391.90082440013066,391.90082440013066,391.90082440013066,391.90082440013066,391.90082440013066,391.90082440013066,"[1.0253848999273032, 1.1310665998607874, 1.332082999870181, 1.4290781000163406]",,,,,,200202,001,2023-11-30_15h41.36.748,REPSWITCH1_version2_list2,2022.2.4,143.88240780155317,
REPSWITCH1/PICTURE_498.png,taza,type,gold,repeat,1,T,4,3,2,2,Stim4_Set4,0,None,76,75,76,0,75,75,75,,,,,,,,,,,,,,,,,,,,,,,392.4008864001371,393.442689999938,393.442689999938,393.442689999938,393.442689999938,393.442689999938,393.442689999938,393.442689999938,393.442689999938,"['t', 'a', 'z', 'a']",0,taza,C:\2023\REPSWITCH21092023\REPSWITCH_excgange\REPSWITCH_excgange\data/200202_REPSWITCH1_version2_list2_2023-11-30_15h41.36.748_micRespv2l2_recorded\recording_micRespv2l2_2023-11-30_15h48.00.483.wav,396.46391739998944,396.96397610008717,None,396.46391739998944,396.46391739998944,396.46391739998944,396.46391739998944,396.46391739998944,396.46391739998944,"[0.9662523998413235, 1.0689103999175131, 1.2585591999813914, 1.3641970998141915]",,,,,,200202,001,2023-11-30_15h41.36.748,REPSWITCH1_version2_list2,2022.2.4,143.88240780155317,
REPSWITCH1/PICTURE_235.png,aguja,speak,darkblue,filler,2,F,4,3,2,2,Stim4_Set3,0,None,77,76,77,0,76,76,76,,,,,,,,,,,,,,,,,,,,,,,396.96397610008717,398.0196769000031,398.0196769000031,398.0196769000031,398.0196769000031,398.0196769000031,398.0196769000031,398.0196769000031,398.0196769000031,None,0,,C:\2023\REPSWITCH21092023\REPSWITCH_excgange\REPSWITCH_excgange\data/200202_REPSWITCH1_version2_list2_2023-11-30_15h41.36.748_micRespv2l2_recorded\recording_micRespv2l2_2023-11-30_15h48.05.060.wav,401.0409570999909,401.54097130009905,None,401.0409570999909,401.0409570999909,401.0409570999909,401.0409570999909,401.0409570999909,401.0409570999909,,,,,,,200202,001,2023-11-30_15h41.36.748,REPSWITCH1_version2_list2,2022.2.4,143.88240780155317,
REPSWITCH1/PICTURE_338.png,regalo,type,gold,nontarget,1,NT,4,3,2,2,Stim6_Set4,1,switch,78,77,78,0,77,77,77,,,,,,,,,,,,,,,,,,,,,,,401.54097130009905,402.77040540007874,402.77040540007874,402.77040540007874,402.77040540007874,402.77040540007874,402.77040540007874,402.77040540007874,402.77040540007874,"['r', 'e', 'g', 'a', 'l', 'o']",0,regalo,C:\2023\REPSWITCH21092023\REPSWITCH_excgange\REPSWITCH_excgange\data/200202_REPSWITCH1_version2_list2_2023-11-30_15h41.36.748_micRespv2l2_recorded\recording_micRespv2l2_2023-11-30_15h48.09.810.wav,405.7915519999806,406.2916000999976,None,405.7915519999806,405.7915519999806,405.7915519999806,405.7915519999806,405.7915519999806,405.7915519999806,"[0.9052331000566483, 0.977930000051856, 1.094529699999839, 1.2981530998367816, 1.6163480998948216, 1.7877772999927402]",,,,,,200202,001,2023-11-30_15h41.36.748,REPSWITCH1_version2_list2,2022.2.4,143.88240780155317,
REPSWITCH1/PICTURE_338.png,regalo,speak,darkblue,switch,2,T,4,3,2,2,Stim6_Set4,0,None,79,78,79,0,78,78,78,,,,,,,,,,,,,,,,,,,,,,,406.2916000999976,407.4445522001479,407.4445522001479,407.4445522001479,407.4445522001479,407.4445522001479,407.4445522001479,407.4445522001479,407.4445522001479,None,0,,C:\2023\REPSWITCH21092023\REPSWITCH_excgange\REPSWITCH_excgange\data/200202_REPSWITCH1_version2_list2_2023-11-30_15h41.36.748_micRespv2l2_recorded\recording_micRespv2l2_2023-11-30_15h48.14.485.wav,410.47270990000106,,None,410.47270990000106,410.47270990000106,410.47270990000106,410.47270990000106,410.47270990000106,410.47270990000106,,,,,,,200202,001,2023-11-30_15h41.36.748,REPSWITCH1_version2_list2,2022.2.4,143.88240780155317,
REPSWITCH1/PICTURE_719.png,baño,speak,darkblue,nontarget,2,NT,4,3,2,2,Stim2_Set4,1,repeat,80,79,80,0,79,79,79,,,,,,,,,,,,,,,,,,,,,,,410.97276720008813,412.0076224000659,412.0076224000659,412.0076224000659,412.0076224000659,412.0076224000659,412.0076224000659,412.0076224000659,412.0076224000659,None,0,,C:\2023\REPSWITCH21092023\REPSWITCH_excgange\REPSWITCH_excgange\data/200202_REPSWITCH1_version2_list2_2023-11-30_15h41.36.748_micRespv2l2_recorded\recording_micRespv2l2_2023-11-30_15h48.19.048.wav,415.0358790999744,,None,415.0358790999744,415.0358790999744,415.0358790999744,415.0358790999744,415.0358790999744,415.0358790999744,,,,,,,200202,001,2023-11-30_15h41.36.748,REPSWITCH1_version2_list2,2022.2.4,143.88240780155317,
REPSWITCH1/PICTURE_719.png,baño,speak,darkblue,repeat,2,T,4,3,2,2,Stim2_Set4,0,None,81,80,81,0,80,80,80,,,,,,,,,,,,,,,,,,,,,,,415.535879699979,416.5985248000361,416.5985248000361,416.5985248000361,416.5985248000361,416.5985248000361,416.5985248000361,416.5985248000361,416.5985248000361,None,0,,C:\2023\REPSWITCH21092023\REPSWITCH_excgange\REPSWITCH_excgange\data/200202_REPSWITCH1_version2_list2_2023-11-30_15h41.36.748_micRespv2l2_recorded\recording_micRespv2l2_2023-11-30_15h48.23.638.wav,419.61975320009515,420.11977749993093,None,419.61975320009515,419.61975320009515,419.61975320009515,419.61975320009515,419.61975320009515,419.61975320009515,,,,,,,200202,001,2023-11-30_15h41.36.748,REPSWITCH1_version2_list2,2022.2.4,143.88240780155317,
REPSWITCH1/PICTURE_271.png,conejo,type,gold,filler,1,F,4,3,2,2,Stim7_Set3,0,None,82,81,82,0,81,81,81,,,,,,,,,,,,,,,,,,,,,,,420.11977749993093,421.2797465999611,421.2797465999611,421.2797465999611,421.2797465999611,421.2797465999611,421.2797465999611,421.2797465999611,421.2797465999611,"['c', 'o', 'n', 'e', 'j', 'o']",0,conejo,C:\2023\REPSWITCH21092023\REPSWITCH_excgange\REPSWITCH_excgange\data/200202_REPSWITCH1_version2_list2_2023-11-30_15h41.36.748_micRespv2l2_recorded\recording_micRespv2l2_2023-11-30_15h48.28.320.wav,424.30784250004217,,None,424.30784250004217,424.30784250004217,424.30784250004217,424.30784250004217,424.30784250004217,424.30784250004217,"[0.8931831000372767, 1.0855188998393714, 1.2997995999176055, 1.4184027998708189, 1.5559054999612272, 1.8051835000514984]",,,,,,200202,001,2023-11-30_15h41.36.748,REPSWITCH1_version2_list2,2022.2.4,143.88240780155317,
REPSWITCH1/PICTURE_610.png,miel,speak,darkblue,filler,2,F,4,3,2,2,Stim2_Set3,0,None,83,82,83,0,82,82,82,,,,,,,,,,,,,,,,,,,,,,,424.8079121999908,425.8636138001457,425.8636138001457,425.8636138001457,425.8636138001457,425.8636138001457,425.8636138001457,425.8636138001457,425.8636138001457,None,0,,C:\2023\REPSWITCH21092023\REPSWITCH_excgange\REPSWITCH_excgange\data/200202_REPSWITCH1_version2_list2_2023-11-30_15h41.36.748_micRespv2l2_recorded\recording_micRespv2l2_2023-11-30_15h48.32.904.wav,428.89188030012883,,None,428.89188030012883,428.89188030012883,428.89188030012883,428.89188030012883,428.89188030012883,428.89188030012883,,,,,,,200202,001,2023-11-30_15h41.36.748,REPSWITCH1_version2_list2,2022.2.4,143.88240780155317,
REPSWITCH1/PICTURE_687.png,camisa,speak,darkblue,nontarget,2,NT,4,3,2,2,Stim5_Set4,1,repeat,84,83,84,0,83,83,83,,,,,,,,,,,,,,,,,,,,,,,429.3918506000191,430.4892299999483,430.4892299999483,430.4892299999483,430.4892299999483,430.4892299999483,430.4892299999483,430.4892299999483,430.4892299999483,None,0,,C:\2023\REPSWITCH21092023\REPSWITCH_excgange\REPSWITCH_excgange\data/200202_REPSWITCH1_version2_list2_2023-11-30_15h41.36.748_micRespv2l2_recorded\recording_micRespv2l2_2023-11-30_15h48.37.529.wav,433.5104710999876,434.0105225001462,None,433.5104710999876,433.5104710999876,433.5104710999876,433.5104710999876,433.5104710999876,433.5104710999876,,,,,,,200202,001,2023-11-30_15h41.36.748,REPSWITCH1_version2_list2,2022.2.4,143.88240780155317,
REPSWITCH1/PICTURE_687.png,camisa,type,gold,switch,1,T,4,3,2,2,Stim5_Set4,0,None,85,84,85,0,84,84,84,,,,,,,,,,,,,,,,,,,,,,,434.0105225001462,435.10098080011085,435.10098080011085,435.10098080011085,435.10098080011085,435.10098080011085,435.10098080011085,435.10098080011085,435.10098080011085,"['c', 'a', 'm', 'i', 's', 'a']",0,camisa,C:\2023\REPSWITCH21092023\REPSWITCH_excgange\REPSWITCH_excgange\data/200202_REPSWITCH1_version2_list2_2023-11-30_15h41.36.748_micRespv2l2_recorded\recording_micRespv2l2_2023-11-30_15h48.42.140.wav,438.12224239995703,438.622234800132,None,438.12224239995703,438.12224239995703,438.12224239995703,438.12224239995703,438.12224239995703,438.12224239995703,"[1.0469265999272466, 1.114726800005883, 1.4864564000163227, 1.6799161999952048, 1.7954484999645501, 2.005159999942407]",,,,,,200202,001,2023-11-30_15h41.36.748,REPSWITCH1_version2_list2,2022.2.4,143.88240780155317,
REPSWITCH1/PICTURE_319.png,vaca,type,gold,nontarget,1,NT,4,3,2,2,Stim1_Set4,0,None,86,85,86,0,85,85,85,,,,,,,,,,,,,,,,,,,,,,,438.622234800132,439.77515659993514,439.77515659993514,439.77515659993514,439.77515659993514,439.77515659993514,439.77515659993514,439.77515659993514,439.77515659993514,"['v', 'a', 'c', 'a']",0,vaca,C:\2023\REPSWITCH21092023\REPSWITCH_excgange\REPSWITCH_excgange\data/200202_REPSWITCH1_version2_list2_2023-11-30_15h41.36.748_micRespv2l2_recorded\recording_micRespv2l2_2023-11-30_15h48.46.814.wav,442.7964028001297,443.29644930013455,None,442.7964028001297,442.7964028001297,442.7964028001297,442.7964028001297,442.7964028001297,442.7964028001297,"[0.7954577999189496, 0.8751421000342816, 1.0003706000279635, 1.103071300080046]",,,,,,200202,001,2023-11-30_15h41.36.748,REPSWITCH1_version2_list2,2022.2.4,143.88240780155317,
REPSWITCH1/PICTURE_319.png,vaca,speak,darkblue,switch,2,T,4,3,2,2,Stim1_Set4,0,None,87,86,87,0,86,86,86,,,,,,,,,,,,,,,,,,,,,,,443.29644930013455,444.3382780000102,444.3382780000102,444.3382780000102,444.3382780000102,444.3382780000102,444.3382780000102,444.3382780000102,444.3382780000102,None,0,,C:\2023\REPSWITCH21092023\REPSWITCH_excgange\REPSWITCH_excgange\data/200202_REPSWITCH1_version2_list2_2023-11-30_15h41.36.748_micRespv2l2_recorded\recording_micRespv2l2_2023-11-30_15h48.51.379.wav,447.36641969997436,,None,447.36641969997436,447.36641969997436,447.36641969997436,447.36641969997436,447.36641969997436,447.36641969997436,,,,,,,200202,001,2023-11-30_15h41.36.748,REPSWITCH1_version2_list2,2022.2.4,143.88240780155317,
REPSWITCH1/PICTURE_464.png,goma,type,gold,filler,1,F,4,3,2,2,Stim6_Set3,1,switch,88,87,88,0,87,87,87,,,,,,,,,,,,,,,,,,,,,,,447.86649690009654,448.9638915001415,448.9638915001415,448.9638915001415,448.9638915001415,448.9638915001415,448.9638915001415,448.9638915001415,448.9638915001415,"['g', 'o', 'm', 'a']",0,goma,C:\2023\REPSWITCH21092023\REPSWITCH_excgange\REPSWITCH_excgange\data/200202_REPSWITCH1_version2_list2_2023-11-30_15h41.36.748_micRespv2l2_recorded\recording_micRespv2l2_2023-11-30_15h48.56.003.wav,451.9850761999842,452.4851687999908,None,451.9850761999842,451.9850761999842,451.9850761999842,451.9850761999842,451.9850761999842,451.9850761999842,"[0.8762627998366952, 1.1652697997633368, 1.3694255996961147, 1.4601754997856915]",,,,,,200202,001,2023-11-30_15h41.36.748,REPSWITCH1_version2_list2,2022.2.4,143.88240780155317,
REPSWITCH1/PICTURE_728.png,pulpo,speak,darkblue,nontarget,2,NT,4,3,2,2,Stim8_Set4,1,switch,89,88,89,0,88,88,88,,,,,,,,,,,,,,,,,,,,,,,452.4851687999908,453.68673250009306,453.68673250009306,453.68673250009306,453.68673250009306,453.68673250009306,453.68673250009306,453.68673250009306,453.68673250009306,None,0,,C:\2023\REPSWITCH21092023\REPSWITCH_excgange\REPSWITCH_excgange\data/200202_REPSWITCH1_version2_list2_2023-11-30_15h41.36.748_micRespv2l2_recorded\recording_micRespv2l2_2023-11-30_15h49.00.726.wav,456.70792760001495,457.2079835999757,None,456.70792760001495,456.70792760001495,456.70792760001495,456.70792760001495,456.70792760001495,456.70792760001495,,,,,,,200202,001,2023-11-30_15h41.36.748,REPSWITCH1_version2_list2,2022.2.4,143.88240780155317,
REPSWITCH1/PICTURE_728.png,pulpo,speak,darkblue,repeat,2,T,4,3,2,2,Stim8_Set4,0,None,90,89,90,0,89,89,89,,,,,,,,,,,,,,,,,,,,,,,457.2079835999757,458.3609935999848,458.3609935999848,458.3609935999848,458.3609935999848,458.3609935999848,458.3609935999848,458.3609935999848,458.3609935999848,None,0,,C:\2023\REPSWITCH21092023\REPSWITCH_excgange\REPSWITCH_excgange\data/200202_REPSWITCH1_version2_list2_2023-11-30_15h41.36.748_micRespv2l2_recorded\recording_micRespv2l2_2023-11-30_15h49.05.400.wav,461.38213120005094,461.8822322001215,None,461.38213120005094,461.38213120005094,461.38213120005094,461.38213120005094,461.38213120005094,461.38213120005094,,,,,,,200202,001,2023-11-30_15h41.36.748,REPSWITCH1_version2_list2,2022.2.4,143.88240780155317,
REPSWITCH1/PICTURE_320.png,iglesia,type,gold,filler,1,F,4,3,2,2,Stim8_Set3,0,None,91,90,91,0,90,90,90,,,,,,,,,,,,,,,,,,,,,,,461.8822322001215,463.0352253001183,463.0352253001183,463.0352253001183,463.0352253001183,463.0352253001183,463.0352253001183,463.0352253001183,463.0352253001183,"['i', 'g', 'l', 'e', 's', 'i', 'a']",0,iglesia,C:\2023\REPSWITCH21092023\REPSWITCH_excgange\REPSWITCH_excgange\data/200202_REPSWITCH1_version2_list2_2023-11-30_15h41.36.748_micRespv2l2_recorded\recording_micRespv2l2_2023-11-30_15h49.10.075.wav,466.05636680009775,466.5564546000678,None,466.05636680009775,466.05636680009775,466.05636680009775,466.05636680009775,466.05636680009775,466.05636680009775,"[0.8547049998305738, 1.109205299988389, 1.5589213999919593, 1.7062787998002023, 1.939508199924603, 2.1187282998580486, 2.2695432999171317]",,,,,,200202,001,2023-11-30_15h41.36.748,REPSWITCH1_version2_list2,2022.2.4,143.88240780155317,
REPSWITCH1/PICTURE_576.png,guante,speak,darkblue,filler,2,F,4,3,2,2,Stim1_Set3,0,None,92,91,92,0,91,91,91,,,,,,,,,,,,,,,,,,,,,,,466.5564546000678,467.73020560014993,467.73020560014993,467.73020560014993,467.73020560014993,467.73020560014993,467.73020560014993,467.73020560014993,467.73020560014993,None,0,,C:\2023\REPSWITCH21092023\REPSWITCH_excgange\REPSWITCH_excgange\data/200202_REPSWITCH1_version2_list2_2023-11-30_15h41.36.748_micRespv2l2_recorded\recording_micRespv2l2_2023-11-30_15h49.14.770.wav,470.75153130013496,471.2515382999554,None,470.75153130013496,470.75153130013496,470.75153130013496,470.75153130013496,470.75153130013496,470.75153130013496,,,,,,,200202,001,2023-11-30_15h41.36.748,REPSWITCH1_version2_list2,2022.2.4,143.88240780155317,
REPSWITCH1/PICTURE_8.png,pierna,speak,darkblue,nontarget,2,NT,4,3,2,2,Stim3_Set4,1,repeat,93,92,93,0,92,92,92,,,,,,,,,,,,,,,,,,,,,,,471.2515382999554,472.4530861999374,472.4530861999374,472.4530861999374,472.4530861999374,472.4530861999374,472.4530861999374,472.4530861999374,472.4530861999374,None,0,,C:\2023\REPSWITCH21092023\REPSWITCH_excgange\REPSWITCH_excgange\data/200202_REPSWITCH1_version2_list2_2023-11-30_15h41.36.748_micRespv2l2_recorded\recording_micRespv2l2_2023-11-30_15h49.19.493.wav,475.4742664999794,475.9744355001021,None,475.4742664999794,475.4742664999794,475.4742664999794,475.4742664999794,475.4742664999794,475.4742664999794,,,,,,,200202,001,2023-11-30_15h41.36.748,REPSWITCH1_version2_list2,2022.2.4,143.88240780155317,
REPSWITCH1/PICTURE_8.png,pierna,type,gold,switch,1,T,4,3,2,2,Stim3_Set4,0,None,94,93,94,0,93,93,93,,,,,,,,,,,,,,,,,,,,,,,475.9744355001021,477.0856053000316,477.0856053000316,477.0856053000316,477.0856053000316,477.0856053000316,477.0856053000316,477.0856053000316,477.0856053000316,"['p', 'i', 'e', 'r', 'n', 'a']",0,pierna,C:\2023\REPSWITCH21092023\REPSWITCH_excgange\REPSWITCH_excgange\data/200202_REPSWITCH1_version2_list2_2023-11-30_15h41.36.748_micRespv2l2_recorded\recording_micRespv2l2_2023-11-30_15h49.24.125.wav,480.1068899000529,480.6068840001244,None,480.1068899000529,480.1068899000529,480.1068899000529,480.1068899000529,480.1068899000529,480.1068899000529,"[1.045285499887541, 1.2619218998588622, 1.4354683998972178, 1.5640386999584734, 1.954205899965018, 2.0359034999273717]",,,,,,200202,001,2023-11-30_15h41.36.748,REPSWITCH1_version2_list2,2022.2.4,143.88240780155317,
REPSWITCH1/PICTURE_673.png,tenedor,speak,darkblue,filler,2,F,4,3,2,2,Extra5,0,None,95,94,95,0,94,94,94,,,,,,,,,,,,,,,,,,,,,,,480.6068840001244,481.6764712999575,481.6764712999575,481.6764712999575,481.6764712999575,481.6764712999575,481.6764712999575,481.6764712999575,481.6764712999575,None,0,,C:\2023\REPSWITCH21092023\REPSWITCH_excgange\REPSWITCH_excgange\data/200202_REPSWITCH1_version2_list2_2023-11-30_15h41.36.748_micRespv2l2_recorded\recording_micRespv2l2_2023-11-30_15h49.28.717.wav,484.7047552000731,,None,484.7047552000731,484.7047552000731,484.7047552000731,484.7047552000731,484.7047552000731,484.7047552000731,,,,,,,200202,001,2023-11-30_15h41.36.748,REPSWITCH1_version2_list2,2022.2.4,143.88240780155317,
REPSWITCH1/PICTURE_35.png,oreja,type,gold,filler,1,F,4,3,2,2,Stim5_Set3,1,switch,96,95,96,0,95,95,95,,,,,,,,,,,,,,,,,,,,,,,485.20473539992236,486.23957610013895,486.23957610013895,486.23957610013895,486.23957610013895,486.23957610013895,486.23957610013895,486.23957610013895,486.23957610013895,"['o', 'r', 'e', 'j', 'a']",0,oreja,C:\2023\REPSWITCH21092023\REPSWITCH_excgange\REPSWITCH_excgange\data/200202_REPSWITCH1_version2_list2_2023-11-30_15h41.36.748_micRespv2l2_recorded\recording_micRespv2l2_2023-11-30_15h49.33.279.wav,489.2608606000431,489.7608674999792,None,489.2608606000431,489.2608606000431,489.2608606000431,489.2608606000431,489.2608606000431,489.2608606000431,"[1.0416298999916762, 1.4031952999066561, 1.4719997998327017, 1.718776699854061, 1.8448720998130739]",,,,,,200202,001,2023-11-30_15h41.36.748,REPSWITCH1_version2_list2,2022.2.4,143.88240780155317,
REPSWITCH1/PICTURE_663.png,columna,speak,darkblue,filler,2,F,4,3,2,2,Extra6,0,None,97,96,97,0,96,96,96,,,,,,,,,,,,,,,,,,,,,,,489.7608674999792,490.78187569999136,490.78187569999136,490.78187569999136,490.78187569999136,490.78187569999136,490.78187569999136,490.78187569999136,490.78187569999136,None,0,,C:\2023\REPSWITCH21092023\REPSWITCH_excgange\REPSWITCH_excgange\data/200202_REPSWITCH1_version2_list2_2023-11-30_15h41.36.748_micRespv2l2_recorded\recording_micRespv2l2_2023-11-30_15h49.37.821.wav,493.8030620999634,494.30312649998814,None,493.8030620999634,493.8030620999634,493.8030620999634,493.8030620999634,493.8030620999634,493.8030620999634,,,,,,,200202,001,2023-11-30_15h41.36.748,REPSWITCH1_version2_list2,2022.2.4,143.88240780155317,
REPSWITCH1/PICTURE_242.png,cartero,type,gold,filler,1,F,4,3,2,2,Stim3_Set3,1,switch,98,97,98,0,97,97,97,,,,,,,,,,,,,,,,,,,,,,,494.30312649998814,495.4283010000363,495.4283010000363,495.4283010000363,495.4283010000363,495.4283010000363,495.4283010000363,495.4283010000363,495.4283010000363,"['c', 'a', 'r', 't', 'e', 'r', 'o']",0,cartero,C:\2023\REPSWITCH21092023\REPSWITCH_excgange\REPSWITCH_excgange\data/200202_REPSWITCH1_version2_list2_2023-11-30_15h41.36.748_micRespv2l2_recorded\recording_micRespv2l2_2023-11-30_15h49.42.469.wav,498.4564543000888,,None,498.4564543000888,498.4564543000888,498.4564543000888,498.4564543000888,498.4564543000888,498.4564543000888,"[0.9305953998118639, 1.0043287996668369, 1.1309063998050988, 1.2774348997045308, 1.380083799827844, 1.556436199694872, 1.7454171997960657]",,,,,,200202,001,2023-11-30_15h41.36.748,REPSWITCH1_version2_list2,2022.2.4,143.88240780155317,
REPSWITCH1/PICTURE_48.png,bombero,type,gold,nontarget,1,NT,4,3,2,2,Stim7_Set4,1,repeat,99,98,99,0,98,98,98,,,,,,,,,,,,,,,,,,,,,,,498.9565463999752,500.02615549997427,500.02615549997427,500.02615549997427,500.02615549997427,500.02615549997427,500.02615549997427,500.02615549997427,500.02615549997427,"['b', 'o', 'm', 'b', 'e', 'r', 'o']",0,bombero,C:\2023\REPSWITCH21092023\REPSWITCH_excgange\REPSWITCH_excgange\data/200202_REPSWITCH1_version2_list2_2023-11-30_15h41.36.748_micRespv2l2_recorded\recording_micRespv2l2_2023-11-30_15h49.47.066.wav,503.0542911000084,,None,503.0542911000084,503.0542911000084,503.0542911000084,503.0542911000084,503.0542911000084,503.0542911000084,"[1.4471487998962402, 1.6227201998699456, 1.816219799919054, 2.069413499906659, 2.157126999925822, 2.3783287999685854, 2.52205349993892]",,,,,,200202,001,2023-11-30_15h41.36.748,REPSWITCH1_version2_list2,2022.2.4,143.88240780155317,
REPSWITCH1/PICTURE_48.png,bombero,type,gold,repeat,1,T,4,3,2,2,Stim7_Set4,0,None,100,99,100,0,99,99,99,,,,,,,,,,,,,,,,,,,,,,,503.55435879994184,504.6170264999382,504.6170264999382,504.6170264999382,504.6170264999382,504.6170264999382,504.6170264999382,504.6170264999382,504.6170264999382,"['b', 'o', 'm', 'b', 'e', 'r', 'o']",0,bombero,C:\2023\REPSWITCH21092023\REPSWITCH_excgange\REPSWITCH_excgange\data/200202_REPSWITCH1_version2_list2_2023-11-30_15h41.36.748_micRespv2l2_recorded\recording_micRespv2l2_2023-11-30_15h49.51.658.wav,507.64516480010934,,None,507.64516480010934,507.64516480010934,507.64516480010934,507.64516480010934,507.64516480010934,507.64516480010934,"[1.1052491997834295, 1.2716426998376846, 1.5038960999809206, 1.747935299994424, 1.8528993998188525, 2.080160099780187, 2.2149458997882903]",,,,,,200202,001,2023-11-30_15h41.36.748,REPSWITCH1_version2_list2,2022.2.4,143.88240780155317,
REPSWITCH1/PICTURE_391.png,cadena,speak,darkblue,filler,2,F,4,3,2,2,Extra2,0,None,101,100,101,0,100,100,100,,,,,,,,,,,,,,,,,,,,,,,508.1452464000322,509.180115000112,509.180115000112,509.180115000112,509.180115000112,509.180115000112,509.180115000112,509.180115000112,509.180115000112,None,0,,C:\2023\REPSWITCH21092023\REPSWITCH_excgange\REPSWITCH_excgange\data/200202_REPSWITCH1_version2_list2_2023-11-30_15h41.36.748_micRespv2l2_recorded\recording_micRespv2l2_2023-11-30_15h49.56.221.wav,512.2083503999747,,None,512.2083503999747,512.2083503999747,512.2083503999747,512.2083503999747,512.2083503999747,512.2083503999747,,,,,,,200202,001,2023-11-30_15h41.36.748,REPSWITCH1_version2_list2,2022.2.4,143.88240780155317,
REPSWITCH1/PICTURE_590.png,escoba,type,gold,filler,1,F,4,3,2,2,Extra3,0,None,102,101,102,0,101,101,101,,,,,,,,,,,,,,,,,,,,,,,512.7083370999899,513.812664099969,513.812664099969,513.812664099969,513.812664099969,513.812664099969,513.812664099969,513.812664099969,513.812664099969,"['e', 's', 'c', 'o', 'b', 'a']",0,escoba,C:\2023\REPSWITCH21092023\REPSWITCH_excgange\REPSWITCH_excgange\data/200202_REPSWITCH1_version2_list2_2023-11-30_15h41.36.748_micRespv2l2_recorded\recording_micRespv2l2_2023-11-30_15h50.00.853.wav,516.8408204999287,,space,516.8408204999287,516.8408204999287,516.8408204999287,516.8408204999287,516.8408204999287,516.8408204999287,"[1.083963799988851, 1.2972154999151826, 1.5179858999326825, 1.6973749999888241, 2.0344714999664575, 2.20390890003182]",517.3408898999915,517.3408898999915,44.78950129984878,,,200202,001,2023-11-30_15h41.36.748,REPSWITCH1_version2_list2,2022.2.4,143.88240780155317,
REPSWITCH1/PICTURE_340.png,espejo,type,gold,filler,1,F,1,1,2,2,Extra1,0,None,103,102,1,0,102,102,102,,,,,,,,,,,,,,,,,,,,,,,562.138425400015,563.2149815999437,563.2149815999437,563.2149815999437,563.2149815999437,563.2149815999437,563.2149815999437,563.2149815999437,563.2149815999437,"['e', 's', 'p', 'e', 'j', 'o']",0,espejo,C:\2023\REPSWITCH21092023\REPSWITCH_excgange\REPSWITCH_excgange\data/200202_REPSWITCH1_version2_list2_2023-11-30_15h41.36.748_micRespv2l2_recorded\recording_micRespv2l2_2023-11-30_15h50.50.255.wav,566.2361930999905,566.736260500038,None,566.2361930999905,566.2361930999905,566.2361930999905,566.2361930999905,566.2361930999905,566.2361930999905,"[0.9374490999616683, 1.134786499897018, 1.2882737000472844, 1.3929854999296367, 1.5886120998766273, 1.89488760009408]",,,,,,200202,001,2023-11-30_15h41.36.748,REPSWITCH1_version2_list2,2022.2.4,143.88240780155317,
REPSWITCH1/PICTURE_391.png,cadena,speak,darkblue,filler,2,F,1,1,2,2,Extra2,0,None,104,103,2,0,103,103,103,,,,,,,,,,,,,,,,,,,,,,,566.736260500038,567.791926200036,567.791926200036,567.791926200036,567.791926200036,567.791926200036,567.791926200036,567.791926200036,567.791926200036,None,0,,C:\2023\REPSWITCH21092023\REPSWITCH_excgange\REPSWITCH_excgange\data/200202_REPSWITCH1_version2_list2_2023-11-30_15h41.36.748_micRespv2l2_recorded\recording_micRespv2l2_2023-11-30_15h50.54.832.wav,570.8201262000948,,None,570.8201262000948,570.8201262000948,570.8201262000948,570.8201262000948,570.8201262000948,570.8201262000948,,,,,,,200202,001,2023-11-30_15h41.36.748,REPSWITCH1_version2_list2,2022.2.4,143.88240780155317,
REPSWITCH1/PICTURE_178.png,puente,speak,darkblue,nontarget,2,NT,1,1,2,2,Stim1_Set1,1,repeat,105,104,3,0,104,104,104,,,,,,,,,,,,,,,,,,,,,,,571.3201923000161,572.3550344000105,572.3550344000105,572.3550344000105,572.3550344000105,572.3550344000105,572.3550344000105,572.3550344000105,572.3550344000105,None,0,,C:\2023\REPSWITCH21092023\REPSWITCH_excgange\REPSWITCH_excgange\data/200202_REPSWITCH1_version2_list2_2023-11-30_15h41.36.748_micRespv2l2_recorded\recording_micRespv2l2_2023-11-30_15h50.59.395.wav,575.3762405000161,575.8763419999741,None,575.3762405000161,575.3762405000161,575.3762405000161,575.3762405000161,575.3762405000161,575.3762405000161,,,,,,,200202,001,2023-11-30_15h41.36.748,REPSWITCH1_version2_list2,2022.2.4,143.88240780155317,
REPSWITCH1/PICTURE_178.png,puente,speak,darkblue,repeat,2,T,1,1,2,2,Stim1_Set1,0,None,106,105,4,0,105,105,105,,,,,,,,,,,,,,,,,,,,,,,575.8763419999741,576.9250692999922,576.9250692999922,576.9250692999922,576.9250692999922,576.9250692999922,576.9250692999922,576.9250692999922,576.9250692999922,None,0,,C:\2023\REPSWITCH21092023\REPSWITCH_excgange\REPSWITCH_excgange\data/200202_REPSWITCH1_version2_list2_2023-11-30_15h41.36.748_micRespv2l2_recorded\recording_micRespv2l2_2023-11-30_15h51.03.964.wav,579.9463184999768,580.4463925000746,None,579.9463184999768,579.9463184999768,579.9463184999768,579.9463184999768,579.9463184999768,579.9463184999768,,,,,,,200202,001,2023-11-30_15h41.36.748,REPSWITCH1_version2_list2,2022.2.4,143.88240780155317,
REPSWITCH1/PICTURE_319.png,vaca,type,gold,filler,1,F,1,1,2,2,Stim1_Set4,0,None,107,106,5,0,106,106,106,,,,,,,,,,,,,,,,,,,,,,,580.4463925000746,581.4812376000918,581.4812376000918,581.4812376000918,581.4812376000918,581.4812376000918,581.4812376000918,581.4812376000918,581.4812376000918,"['v', 'a', 'c', 'a']",0,vaca,C:\2023\REPSWITCH21092023\REPSWITCH_excgange\REPSWITCH_excgange\data/200202_REPSWITCH1_version2_list2_2023-11-30_15h41.36.748_micRespv2l2_recorded\recording_micRespv2l2_2023-11-30_15h51.08.521.wav,584.5024969999213,585.0025421001483,None,584.5024969999213,584.5024969999213,584.5024969999213,584.5024969999213,584.5024969999213,584.5024969999213,"[0.812560599995777, 0.9900062999222428, 1.0899622000288218, 1.2035466998349875]",,,,,,200202,001,2023-11-30_15h41.36.748,REPSWITCH1_version2_list2,2022.2.4,143.88240780155317,
REPSWITCH1/PICTURE_381.png,fresa,speak,darkblue,nontarget,2,NT,1,1,2,2,Stim2_Set1,1,switch,108,107,6,0,107,107,107,,,,,,,,,,,,,,,,,,,,,,,585.0025421001483,586.120760400081,586.120760400081,586.120760400081,586.120760400081,586.120760400081,586.120760400081,586.120760400081,586.120760400081,None,0,,C:\2023\REPSWITCH21092023\REPSWITCH_excgange\REPSWITCH_excgange\data/200202_REPSWITCH1_version2_list2_2023-11-30_15h41.36.748_micRespv2l2_recorded\recording_micRespv2l2_2023-11-30_15h51.13.161.wav,589.148889800068,,None,589.148889800068,589.148889800068,589.148889800068,589.148889800068,589.148889800068,589.148889800068,,,,,,,200202,001,2023-11-30_15h41.36.748,REPSWITCH1_version2_list2,2022.2.4,143.88240780155317,
REPSWITCH1/PICTURE_381.png,fresa,speak,darkblue,repeat,2,T,1,1,2,2,Stim2_Set1,0,None,109,108,7,0,108,108,108,,,,,,,,,,,,,,,,,,,,,,,589.6489558999892,590.718581299996,590.718581299996,590.718581299996,590.718581299996,590.718581299996,590.718581299996,590.718581299996,590.718581299996,None,0,,C:\2023\REPSWITCH21092023\REPSWITCH_excgange\REPSWITCH_excgange\data/200202_REPSWITCH1_version2_list2_2023-11-30_15h41.36.748_micRespv2l2_recorded\recording_micRespv2l2_2023-11-30_15h51.17.757.wav,593.7397992000915,594.2398264000658,None,593.7397992000915,593.7397992000915,593.7397992000915,593.7397992000915,593.7397992000915,593.7397992000915,,,,,,,200202,001,2023-11-30_15h41.36.748,REPSWITCH1_version2_list2,2022.2.4,143.88240780155317,
REPSWITCH1/PICTURE_719.png,baño,type,gold,filler,1,F,1,1,2,2,Stim2_Set4,1,switch,110,109,8,0,109,109,109,,,,,,,,,,,,,,,,,,,,,,,594.2398264000658,595.3789594001137,595.3789594001137,595.3789594001137,595.3789594001137,595.3789594001137,595.3789594001137,595.3789594001137,595.3789594001137,"['b', 'a', 'ñ', 'o']",0,baño,C:\2023\REPSWITCH21092023\REPSWITCH_excgange\REPSWITCH_excgange\data/200202_REPSWITCH1_version2_list2_2023-11-30_15h41.36.748_micRespv2l2_recorded\recording_micRespv2l2_2023-11-30_15h51.22.418.wav,598.4001299000811,598.9001947999932,None,598.4001299000811,598.4001299000811,598.4001299000811,598.4001299000811,598.4001299000811,598.4001299000811,"[0.8830650998279452, 1.0136243000160903, 1.403288699919358, 1.596898099873215]",,,,,,200202,001,2023-11-30_15h41.36.748,REPSWITCH1_version2_list2,2022.2.4,143.88240780155317,
REPSWITCH1/PICTURE_135.png,traje,speak,darkblue,nontarget,2,NT,1,1,2,2,Stim3_Set1,0,None,111,110,9,0,110,110,110,,,,,,,,,,,,,,,,,,,,,,,598.9001947999932,599.9767044000328,599.9767044000328,599.9767044000328,599.9767044000328,599.9767044000328,599.9767044000328,599.9767044000328,599.9767044000328,None,0,,C:\2023\REPSWITCH21092023\REPSWITCH_excgange\REPSWITCH_excgange\data/200202_REPSWITCH1_version2_list2_2023-11-30_15h41.36.748_micRespv2l2_recorded\recording_micRespv2l2_2023-11-30_15h51.27.016.wav,602.997960699955,603.4979795999825,None,602.997960699955,602.997960699955,602.997960699955,602.997960699955,602.997960699955,602.997960699955,,,,,,,200202,001,2023-11-30_15h41.36.748,REPSWITCH1_version2_list2,2022.2.4,143.88240780155317,
REPSWITCH1/PICTURE_135.png,traje,type,gold,switch,1,T,1,1,2,2,Stim3_Set1,0,None,112,111,10,0,111,111,111,,,,,,,,,,,,,,,,,,,,,,,603.4979795999825,604.6439859000966,604.6439859000966,604.6439859000966,604.6439859000966,604.6439859000966,604.6439859000966,604.6439859000966,604.6439859000966,"['t', 'r', 'a', 'j', 'e']",0,traje,C:\2023\REPSWITCH21092023\REPSWITCH_excgange\REPSWITCH_excgange\data/200202_REPSWITCH1_version2_list2_2023-11-30_15h41.36.748_micRespv2l2_recorded\recording_micRespv2l2_2023-11-30_15h51.31.683.wav,607.665233100066,608.1652963000815,None,607.665233100066,607.665233100066,607.665233100066,607.665233100066,607.665233100066,607.665233100066,"[1.0204956997185946, 1.1715270997956395, 1.2662064998876303, 1.6952002998441458, 1.8121253999415785]",,,,,,200202,001,2023-11-30_15h41.36.748,REPSWITCH1_version2_list2,2022.2.4,143.88240780155317,
REPSWITCH1/PICTURE_687.png,camisa,speak,darkblue,filler,2,F,1,1,2,2,Stim5_Set4,0,None,113,112,11,0,112,112,112,,,,,,,,,,,,,,,,,,,,,,,608.1652963000815,609.3182393999305,609.3182393999305,609.3182393999305,609.3182393999305,609.3182393999305,609.3182393999305,609.3182393999305,609.3182393999305,None,0,,C:\2023\REPSWITCH21092023\REPSWITCH_excgange\REPSWITCH_excgange\data/200202_REPSWITCH1_version2_list2_2023-11-30_15h41.36.748_micRespv2l2_recorded\recording_micRespv2l2_2023-11-30_15h51.36.359.wav,612.3464021000545,,None,612.3464021000545,612.3464021000545,612.3464021000545,612.3464021000545,612.3464021000545,612.3464021000545,,,,,,,200202,001,2023-11-30_15h41.36.748,REPSWITCH1_version2_list2,2022.2.4,143.88240780155317,
REPSWITCH1/PICTURE_128.png,muñeca,type,gold,nontarget,1,NT,1,1,2,2,Stim4_Set1,1,switch,114,113,12,0,113,113,113,,,,,,,,,,,,,,,,,,,,,,,612.846465199953,613.9785687001422,613.9785687001422,613.9785687001422,613.9785687001422,613.9785687001422,613.9785687001422,613.9785687001422,613.9785687001422,"['m', 'u', 'ñ', 'e', 'c', 'a']",0,muñeca,C:\2023\REPSWITCH21092023\REPSWITCH_excgange\REPSWITCH_excgange\data/200202_REPSWITCH1_version2_list2_2023-11-30_15h41.36.748_micRespv2l2_recorded\recording_micRespv2l2_2023-11-30_15h51.41.019.wav,617.0067340000533,,None,617.0067340000533,617.0067340000533,617.0067340000533,617.0067340000533,617.0067340000533,617.0067340000533,"[0.7901239998172969, 0.9915388999506831, 1.370614199899137, 1.488688699901104, 1.7794584999792278, 1.8501458999235183]",,,,,,200202,001,2023-11-30_15h41.36.748,REPSWITCH1_version2_list2,2022.2.4,143.88240780155317,
REPSWITCH1/PICTURE_128.png,muñeca,speak,darkblue,switch,2,T,1,1,2,2,Stim4_Set1,0,None,115,114,13,0,114,114,114,,,,,,,,,,,,,,,,,,,,,,,617.5067891001236,618.6180414999835,618.6180414999835,618.6180414999835,618.6180414999835,618.6180414999835,618.6180414999835,618.6180414999835,618.6180414999835,None,0,,C:\2023\REPSWITCH21092023\REPSWITCH_excgange\REPSWITCH_excgange\data/200202_REPSWITCH1_version2_list2_2023-11-30_15h41.36.748_micRespv2l2_recorded\recording_micRespv2l2_2023-11-30_15h51.45.659.wav,621.6462996001355,,None,621.6462996001355,621.6462996001355,621.6462996001355,621.6462996001355,621.6462996001355,621.6462996001355,,,,,,,200202,001,2023-11-30_15h41.36.748,REPSWITCH1_version2_list2,2022.2.4,143.88240780155317,
REPSWITCH1/PICTURE_8.png,pierna,speak,darkblue,filler,2,F,1,1,2,2,Stim3_Set4,0,None,116,115,14,0,115,115,115,,,,,,,,,,,,,,,,,,,,,,,622.1462995000184,623.2089617999736,623.2089617999736,623.2089617999736,623.2089617999736,623.2089617999736,623.2089617999736,623.2089617999736,623.2089617999736,None,0,,C:\2023\REPSWITCH21092023\REPSWITCH_excgange\REPSWITCH_excgange\data/200202_REPSWITCH1_version2_list2_2023-11-30_15h41.36.748_micRespv2l2_recorded\recording_micRespv2l2_2023-11-30_15h51.50.249.wav,626.2301291001495,626.7302173001226,None,626.2301291001495,626.2301291001495,626.2301291001495,626.2301291001495,626.2301291001495,626.2301291001495,,,,,,,200202,001,2023-11-30_15h41.36.748,REPSWITCH1_version2_list2,2022.2.4,143.88240780155317,
REPSWITCH1/PICTURE_19.png,pavo,speak,darkblue,nontarget,2,NT,1,1,2,2,Stim5_Set1,0,None,117,116,15,0,116,116,116,,,,,,,,,,,,,,,,,,,,,,,626.7302173001226,627.7372880999465,627.7372880999465,627.7372880999465,627.7372880999465,627.7372880999465,627.7372880999465,627.7372880999465,627.7372880999465,None,0,,C:\2023\REPSWITCH21092023\REPSWITCH_excgange\REPSWITCH_excgange\data/200202_REPSWITCH1_version2_list2_2023-11-30_15h41.36.748_micRespv2l2_recorded\recording_micRespv2l2_2023-11-30_15h51.54.777.wav,630.7585140999872,631.2586056999862,None,630.7585140999872,630.7585140999872,630.7585140999872,630.7585140999872,630.7585140999872,630.7585140999872,,,,,,,200202,001,2023-11-30_15h41.36.748,REPSWITCH1_version2_list2,2022.2.4,143.88240780155317,
REPSWITCH1/PICTURE_19.png,pavo,type,gold,switch,1,T,1,1,2,2,Stim5_Set1,0,None,118,117,16,0,117,117,117,,,,,,,,,,,,,,,,,,,,,,,631.2586056999862,632.4184604000766,632.4184604000766,632.4184604000766,632.4184604000766,632.4184604000766,632.4184604000766,632.4184604000766,632.4184604000766,"['p', 'a', 'v', 'o']",0,pavo,C:\2023\REPSWITCH21092023\REPSWITCH_excgange\REPSWITCH_excgange\data/200202_REPSWITCH1_version2_list2_2023-11-30_15h41.36.748_micRespv2l2_recorded\recording_micRespv2l2_2023-11-30_15h51.59.459.wav,635.4466534000821,,None,635.4466534000821,635.4466534000821,635.4466534000821,635.4466534000821,635.4466534000821,635.4466534000821,"[0.7946734998840839, 1.1109038998838514, 1.2524131999816746, 1.5155233999248594]",,,,,,200202,001,2023-11-30_15h41.36.748,REPSWITCH1_version2_list2,2022.2.4,143.88240780155317,
REPSWITCH1/PICTURE_16.png,cazador,type,gold,nontarget,1,NT,1,1,2,2,Stim6_Set1,1,switch,119,118,17,0,118,118,118,,,,,,,,,,,,,,,,,,,,,,,635.946718600113,637.037199200131,637.037199200131,637.037199200131,637.037199200131,637.037199200131,637.037199200131,637.037199200131,637.037199200131,"['c', 'a', 'z']",0,caz,C:\2023\REPSWITCH21092023\REPSWITCH_excgange\REPSWITCH_excgange\data/200202_REPSWITCH1_version2_list2_2023-11-30_15h41.36.748_micRespv2l2_recorded\recording_micRespv2l2_2023-11-30_15h52.04.077.wav,640.0653735999949,,None,640.0653735999949,640.0653735999949,640.0653735999949,640.0653735999949,640.0653735999949,640.0653735999949,"[1.0916549998801202, 1.20824269996956, 1.872846300015226]",,,,,,200202,001,2023-11-30_15h41.36.748,REPSWITCH1_version2_list2,2022.2.4,143.88240780155317,
REPSWITCH1/PICTURE_16.png,cazador,type,gold,repeat,1,T,1,1,2,2,Stim6_Set1,0,None,120,119,18,0,119,119,119,,,,,,,,,,,,,,,,,,,,,,,640.5653772000223,641.5863334001042,641.5863334001042,641.5863334001042,641.5863334001042,641.5863334001042,641.5863334001042,641.5863334001042,641.5863334001042,"['c', 'a', 'z', 'a', 'd', 'o', 'r']",0,cazador,C:\2023\REPSWITCH21092023\REPSWITCH_excgange\REPSWITCH_excgange\data/200202_REPSWITCH1_version2_list2_2023-11-30_15h41.36.748_micRespv2l2_recorded\recording_micRespv2l2_2023-11-30_15h52.08.626.wav,644.6076694999356,645.1076424999628,None,644.6076694999356,644.6076694999356,644.6076694999356,644.6076694999356,644.6076694999356,644.6076694999356,"[1.0322004999034107, 1.1647530999034643, 1.468919500010088, 1.689528799848631, 1.961630899924785, 2.2300340000074357, 2.371537399943918]",,,,,,200202,001,2023-11-30_15h41.36.748,REPSWITCH1_version2_list2,2022.2.4,143.88240780155317,
REPSWITCH1/PICTURE_498.png,taza,speak,darkblue,filler,2,F,1,1,2,2,Stim4_Set4,0,None,121,120,19,0,120,120,120,,,,,,,,,,,,,,,,,,,,,,,645.1076424999628,646.2605717999395,646.2605717999395,646.2605717999395,646.2605717999395,646.2605717999395,646.2605717999395,646.2605717999395,646.2605717999395,None,0,,C:\2023\REPSWITCH21092023\REPSWITCH_excgange\REPSWITCH_excgange\data/200202_REPSWITCH1_version2_list2_2023-11-30_15h41.36.748_micRespv2l2_recorded\recording_micRespv2l2_2023-11-30_15h52.13.300.wav,649.2818571999669,649.7818291999865,None,649.2818571999669,649.2818571999669,649.2818571999669,649.2818571999669,649.2818571999669,649.2818571999669,,,,,,,200202,001,2023-11-30_15h41.36.748,REPSWITCH1_version2_list2,2022.2.4,143.88240780155317,
