image,correctAns,respModal,frameColor,repSwitch,sequence,target,set,block,list,exp_version,stimulus,baseline,baseline_condition,trial_no,psychopy_trial,Column1,trialsREPSWITCH.thisRepN,trialsREPSWITCH.thisTrialN,trialsREPSWITCH.thisN,trialsREPSWITCH.thisIndex,textWelcome.started,textboxInstrMain1.started,textboxInstrMain1_2.started,textboxInstrMain1_3.started,keyInstrMain.started,keyInstrMain.keys,keyInstrMain.rt,textboxInstrMain2.started,textboxInstrMain2_2.started,textboxInstrMain2_3.started,textboxInstrMain2_4.started,textboxInstrMain2_5.started,textboxInstrMain2_6.started,textboxInstrMain2_7.started,textboxInstrMain2_8.started,textboxInstrMain2_9.started,textboxInstrMain2_10.started,textboxInstrMain2_11.started,textboxInstrMain2_12.started,keyInstrMain2.started,keyInstrMain2.keys,keyInstrMain2.rt,fixationITI.started,fixationITI.stopped,polygonColour.started,polygonWhite.started,imageObject.started,polygonType.started,textInput.started,keyResp.started,micRespv2l3.started,polygonColour.stopped,polygonWhite.stopped,imageObject.stopped,polygonType.stopped,textInput.stopped,keyResp.stopped,keyResp.keys,keyResp.corr,keyResp.rt,subjResponse,micRespv2l3.clip,textBlankLoop.started,textBlankLoop.stopped,keyPause.keys,textboxPause.started,keyPause.started,keyPause.rt,textboxGoodbye.started,textboxGoodbye.stopped,participant,session,date,expName,psychopyVersion,frameRate,
,,,,,,,,,,,,,,,,,,,,,15.67072040005587,18.163705999962986,18.163705999962986,18.163705999962986,18.163705999962986,space,8.1895111000631,,,,,,,,,,,,,,,,,,,,,,,,,,,,,,,,,,,,,,,,,,,,220203,001,2023-12-01_13h12.50.376,REPSWITCH1_version2_list3,2022.2.4,143.91968112168752,
,,,,,,,,,,,,,,,,,,,,,,,,,,,,26.373088200110942,26.373088200110942,26.373088200110942,26.373088200110942,26.373088200110942,26.373088200110942,26.373088200110942,26.373088200110942,26.373088200110942,26.373088200110942,26.373088200110942,26.373088200110942,26.373088200110942,space,4.555817399872467,,,,,,,,,,,,,,,,,,,,,,,,,,,,,220203,001,2023-12-01_13h12.50.376,REPSWITCH1_version2_list3,2022.2.4,143.91968112168752,
REPSWITCH1/PICTURE_663.png,columna,type,gold,filler,1,F,1,2,3,2,Extra6,0,None,1,0,1,0,0,0,0,,,,,,,,,,,,,,,,,,,,,,,31.019563799956813,32.31136690010317,32.31136690010317,32.31136690010317,32.31136690010317,32.31136690010317,32.31136690010317,32.31136690010317,32.31136690010317,35.33957329997793,35.33957329997793,35.33957329997793,35.33957329997793,35.33957329997793,35.33957329997793,"['c', 'o', 'l', 'u', 'm', 'n', 'a']",0,"[0.9469775001052767, 1.098481300054118, 1.2659168001264334, 1.470147700048983, 1.6438922001980245, 1.7873052000068128, 1.8619656001683325]",columna,C:\2023\REPSWITCH21092023\REPSWITCH_excgange\REPSWITCH_excgange\data/220203_REPSWITCH1_version2_list3_2023-12-01_13h12.50.376_micRespv2l3_recorded\recording_micRespv2l3_2023-12-01_13h13.11.912.wav,35.33957329997793,35.83963120006956,None,,,,,,220203,001,2023-12-01_13h12.50.376,REPSWITCH1_version2_list3,2022.2.4,143.91968112168752,
REPSWITCH1/PICTURE_128.png,muñeca,speak,darkblue,nontarget,2,NT,1,2,3,2,Stim4_Set1,1,switch,2,1,2,0,1,1,1,,,,,,,,,,,,,,,,,,,,,,,35.83963120006956,36.92311780015007,36.92311780015007,36.92311780015007,36.92311780015007,36.92311780015007,36.92311780015007,36.92311780015007,36.92311780015007,39.95125410007313,39.95125410007313,39.95125410007313,39.95125410007313,39.95125410007313,39.95125410007313,None,0,,,C:\2023\REPSWITCH21092023\REPSWITCH_excgange\REPSWITCH_excgange\data/220203_REPSWITCH1_version2_list3_2023-12-01_13h12.50.376_micRespv2l3_recorded\recording_micRespv2l3_2023-12-01_13h13.16.521.wav,39.95125410007313,,None,,,,,,220203,001,2023-12-01_13h12.50.376,REPSWITCH1_version2_list3,2022.2.4,143.91968112168752,
REPSWITCH1/PICTURE_128.png,muñeca,speak,darkblue,repeat,2,T,1,2,3,2,Stim4_Set1,0,None,3,2,3,0,2,2,2,,,,,,,,,,,,,,,,,,,,,,,40.4513225001283,41.611257600132376,41.611257600132376,41.611257600132376,41.611257600132376,41.611257600132376,41.611257600132376,41.611257600132376,41.611257600132376,44.632454599952325,44.632454599952325,44.632454599952325,44.632454599952325,44.632454599952325,44.632454599952325,None,0,,,C:\2023\REPSWITCH21092023\REPSWITCH_excgange\REPSWITCH_excgange\data/220203_REPSWITCH1_version2_list3_2023-12-01_13h12.50.376_micRespv2l3_recorded\recording_micRespv2l3_2023-12-01_13h13.21.209.wav,44.632454599952325,45.132593400077894,None,,,,,,220203,001,2023-12-01_13h12.50.376,REPSWITCH1_version2_list3,2022.2.4,143.91968112168752,
REPSWITCH1/PICTURE_8.png,pierna,type,gold,filler,1,F,1,2,3,2,Stim3_Set4,0,None,4,3,4,0,3,3,3,,,,,,,,,,,,,,,,,,,,,,,45.132593400077894,46.264622300164774,46.264622300164774,46.264622300164774,46.264622300164774,46.264622300164774,46.264622300164774,46.264622300164774,46.264622300164774,49.285847699968144,49.285847699968144,49.285847699968144,49.285847699968144,49.285847699968144,49.285847699968144,"['p', 'i', 'e', 'r', 'n', 'a']",0,"[1.1841653001029044, 1.3057190999388695, 1.4103258999530226, 1.4747069000732154, 1.580353300087154, 1.71589559991844]",pierna,C:\2023\REPSWITCH21092023\REPSWITCH_excgange\REPSWITCH_excgange\data/220203_REPSWITCH1_version2_list3_2023-12-01_13h12.50.376_micRespv2l3_recorded\recording_micRespv2l3_2023-12-01_13h13.25.862.wav,49.285847699968144,49.78589230007492,None,,,,,,220203,001,2023-12-01_13h12.50.376,REPSWITCH1_version2_list3,2022.2.4,143.91968112168752,
REPSWITCH1/PICTURE_135.png,traje,speak,darkblue,nontarget,2,NT,1,2,3,2,Stim3_Set1,1,switch,5,4,5,0,4,4,4,,,,,,,,,,,,,,,,,,,,,,,49.78589230007492,50.87632609996945,50.87632609996945,50.87632609996945,50.87632609996945,50.87632609996945,50.87632609996945,50.87632609996945,50.87632609996945,53.8975540001411,53.8975540001411,53.8975540001411,53.8975540001411,53.8975540001411,53.8975540001411,None,0,,,C:\2023\REPSWITCH21092023\REPSWITCH_excgange\REPSWITCH_excgange\data/220203_REPSWITCH1_version2_list3_2023-12-01_13h12.50.376_micRespv2l3_recorded\recording_micRespv2l3_2023-12-01_13h13.30.475.wav,53.8975540001411,54.39770260010846,None,,,,,,220203,001,2023-12-01_13h12.50.376,REPSWITCH1_version2_list3,2022.2.4,143.91968112168752,
REPSWITCH1/PICTURE_135.png,traje,speak,darkblue,repeat,2,T,1,2,3,2,Stim3_Set1,0,None,6,5,6,0,5,5,5,,,,,,,,,,,,,,,,,,,,,,,54.39770260010846,55.52973169996403,55.52973169996403,55.52973169996403,55.52973169996403,55.52973169996403,55.52973169996403,55.52973169996403,55.52973169996403,58.55102300015278,58.55102300015278,58.55102300015278,58.55102300015278,58.55102300015278,58.55102300015278,None,0,,,C:\2023\REPSWITCH21092023\REPSWITCH_excgange\REPSWITCH_excgange\data/220203_REPSWITCH1_version2_list3_2023-12-01_13h12.50.376_micRespv2l3_recorded\recording_micRespv2l3_2023-12-01_13h13.35.127.wav,58.55102300015278,59.0510140999686,None,,,,,,220203,001,2023-12-01_13h12.50.376,REPSWITCH1_version2_list3,2022.2.4,143.91968112168752,
REPSWITCH1/PICTURE_673.png,tenedor,type,gold,filler,1,F,1,2,3,2,Extra5,0,None,7,6,7,0,6,6,6,,,,,,,,,,,,,,,,,,,,,,,59.0510140999686,60.21087420010008,60.21087420010008,60.21087420010008,60.21087420010008,60.21087420010008,60.21087420010008,60.21087420010008,60.21087420010008,63.23217270011082,63.23217270011082,63.23217270011082,63.23217270011082,63.23217270011082,63.23217270011082,"['t', 'e', 'n', 'e', 'd', 'o', 'r']",0,"[0.9555683999788016, 1.024312699912116, 1.172820399980992, 1.2156352999154478, 1.4058906000573188, 1.5045596999116242, 1.6111929998733103]",tenedor,C:\2023\REPSWITCH21092023\REPSWITCH_excgange\REPSWITCH_excgange\data/220203_REPSWITCH1_version2_list3_2023-12-01_13h12.50.376_micRespv2l3_recorded\recording_micRespv2l3_2023-12-01_13h13.39.808.wav,63.23217270011082,63.73216100013815,None,,,,,,220203,001,2023-12-01_13h12.50.376,REPSWITCH1_version2_list3,2022.2.4,143.91968112168752,
REPSWITCH1/PICTURE_728.png,pulpo,speak,darkblue,filler,2,F,1,2,3,2,Stim8_Set4,0,None,8,7,8,0,7,7,7,,,,,,,,,,,,,,,,,,,,,,,63.73216100013815,64.81566349999048,64.81566349999048,64.81566349999048,64.81566349999048,64.81566349999048,64.81566349999048,64.81566349999048,64.81566349999048,67.84381820005365,67.84381820005365,67.84381820005365,67.84381820005365,67.84381820005365,67.84381820005365,None,0,,,C:\2023\REPSWITCH21092023\REPSWITCH_excgange\REPSWITCH_excgange\data/220203_REPSWITCH1_version2_list3_2023-12-01_13h12.50.376_micRespv2l3_recorded\recording_micRespv2l3_2023-12-01_13h13.44.414.wav,67.84381820005365,,None,,,,,,220203,001,2023-12-01_13h12.50.376,REPSWITCH1_version2_list3,2022.2.4,143.91968112168752,
REPSWITCH1/PICTURE_16.png,cazador,speak,darkblue,nontarget,2,NT,1,2,3,2,Stim6_Set1,1,repeat,9,8,9,0,8,8,8,,,,,,,,,,,,,,,,,,,,,,,68.34396540001035,69.44125670008361,69.44125670008361,69.44125670008361,69.44125670008361,69.44125670008361,69.44125670008361,69.44125670008361,69.44125670008361,72.46943169995211,72.46943169995211,72.46943169995211,72.46943169995211,72.46943169995211,72.46943169995211,None,0,,,C:\2023\REPSWITCH21092023\REPSWITCH_excgange\REPSWITCH_excgange\data/220203_REPSWITCH1_version2_list3_2023-12-01_13h12.50.376_micRespv2l3_recorded\recording_micRespv2l3_2023-12-01_13h13.49.039.wav,72.46943169995211,,None,,,,,,220203,001,2023-12-01_13h12.50.376,REPSWITCH1_version2_list3,2022.2.4,143.91968112168752,
REPSWITCH1/PICTURE_16.png,cazador,type,gold,switch,1,T,1,2,3,2,Stim6_Set1,0,None,10,9,10,0,9,9,9,,,,,,,,,,,,,,,,,,,,,,,72.96950200013816,74.0390717999544,74.0390717999544,74.0390717999544,74.0390717999544,74.0390717999544,74.0390717999544,74.0390717999544,74.0390717999544,77.0673108000774,77.0673108000774,77.0673108000774,77.0673108000774,77.0673108000774,77.0673108000774,"['c', 'a', 'z', 'a', 'd', 'o', 'r']",0,"[1.164721499895677, 1.2225116998888552, 1.4570258997846395, 1.5696998999919742, 1.7061520998831838, 1.833917299984023, 1.9306326999794692]",cazador,C:\2023\REPSWITCH21092023\REPSWITCH_excgange\REPSWITCH_excgange\data/220203_REPSWITCH1_version2_list3_2023-12-01_13h12.50.376_micRespv2l3_recorded\recording_micRespv2l3_2023-12-01_13h13.53.638.wav,77.0673108000774,77.56737440009601,None,,,,,,220203,001,2023-12-01_13h12.50.376,REPSWITCH1_version2_list3,2022.2.4,143.91968112168752,
REPSWITCH1/PICTURE_498.png,taza,type,gold,filler,1,F,1,2,3,2,Stim4_Set4,1,repeat,11,10,11,0,10,10,10,,,,,,,,,,,,,,,,,,,,,,,77.56737440009601,78.83141080010682,78.83141080010682,78.83141080010682,78.83141080010682,78.83141080010682,78.83141080010682,78.83141080010682,78.83141080010682,81.85954570001923,81.85954570001923,81.85954570001923,81.85954570001923,81.85954570001923,81.85954570001923,"['t', 'a', 'z', 'a']",0,"[1.2707779000047594, 1.356776800006628, 1.6918613000307232, 1.8573276998940855]",taza,C:\2023\REPSWITCH21092023\REPSWITCH_excgange\REPSWITCH_excgange\data/220203_REPSWITCH1_version2_list3_2023-12-01_13h12.50.376_micRespv2l3_recorded\recording_micRespv2l3_2023-12-01_13h13.58.430.wav,81.85954570001923,,None,,,,,,220203,001,2023-12-01_13h12.50.376,REPSWITCH1_version2_list3,2022.2.4,143.91968112168752,
REPSWITCH1/PICTURE_381.png,fresa,type,gold,nontarget,1,NT,1,2,3,2,Stim2_Set1,1,repeat,12,11,12,0,11,11,11,,,,,,,,,,,,,,,,,,,,,,,82.35962390014902,83.38056399999186,83.38056399999186,83.38056399999186,83.38056399999186,83.38056399999186,83.38056399999186,83.38056399999186,83.38056399999186,86.40177850006148,86.40177850006148,86.40177850006148,86.40177850006148,86.40177850006148,86.40177850006148,"['f', 'r', 'e', 's', 'a']",0,"[1.1813147000502795, 1.3878337000496686, 1.439652199856937, 1.6517133999150246, 1.7264032999519259]",fresa,C:\2023\REPSWITCH21092023\REPSWITCH_excgange\REPSWITCH_excgange\data/220203_REPSWITCH1_version2_list3_2023-12-01_13h12.50.376_micRespv2l3_recorded\recording_micRespv2l3_2023-12-01_13h14.02.979.wav,86.40177850006148,86.90188450017013,None,,,,,,220203,001,2023-12-01_13h12.50.376,REPSWITCH1_version2_list3,2022.2.4,143.91968112168752,
REPSWITCH1/PICTURE_381.png,fresa,speak,darkblue,switch,2,T,1,2,3,2,Stim2_Set1,0,None,13,12,13,0,12,12,12,,,,,,,,,,,,,,,,,,,,,,,86.90188450017013,87.95762520004064,87.95762520004064,87.95762520004064,87.95762520004064,87.95762520004064,87.95762520004064,87.95762520004064,87.95762520004064,90.98574379994534,90.98574379994534,90.98574379994534,90.98574379994534,90.98574379994534,90.98574379994534,None,0,,,C:\2023\REPSWITCH21092023\REPSWITCH_excgange\REPSWITCH_excgange\data/220203_REPSWITCH1_version2_list3_2023-12-01_13h12.50.376_micRespv2l3_recorded\recording_micRespv2l3_2023-12-01_13h14.07.556.wav,90.98574379994534,,None,,,,,,220203,001,2023-12-01_13h12.50.376,REPSWITCH1_version2_list3,2022.2.4,143.91968112168752,
REPSWITCH1/PICTURE_178.png,puente,speak,darkblue,nontarget,2,NT,1,2,3,2,Stim1_Set1,0,None,14,13,14,0,13,13,13,,,,,,,,,,,,,,,,,,,,,,,91.48581550014205,92.70125090004876,92.70125090004876,92.70125090004876,92.70125090004876,92.70125090004876,92.70125090004876,92.70125090004876,92.70125090004876,95.7224946001079,95.7224946001079,95.7224946001079,95.7224946001079,95.7224946001079,95.7224946001079,None,0,,,C:\2023\REPSWITCH21092023\REPSWITCH_excgange\REPSWITCH_excgange\data/220203_REPSWITCH1_version2_list3_2023-12-01_13h12.50.376_micRespv2l3_recorded\recording_micRespv2l3_2023-12-01_13h14.12.300.wav,95.7224946001079,96.22255109995604,None,,,,,,220203,001,2023-12-01_13h12.50.376,REPSWITCH1_version2_list3,2022.2.4,143.91968112168752,
REPSWITCH1/PICTURE_178.png,puente,type,gold,switch,1,T,1,2,3,2,Stim1_Set1,0,None,15,14,15,0,14,14,14,,,,,,,,,,,,,,,,,,,,,,,96.22255109995604,97.36167800007388,97.36167800007388,97.36167800007388,97.36167800007388,97.36167800007388,97.36167800007388,97.36167800007388,97.36167800007388,100.38289520004764,100.38289520004764,100.38289520004764,100.38289520004764,100.38289520004764,100.38289520004764,"['p', 'u', 'e', 'n', 't', 'e']",0,"[1.0897142000030726, 1.2263334000017494, 1.3121149998623878, 1.4566313999239355, 1.5313870999962091, 1.5871977999340743]",puente,C:\2023\REPSWITCH21092023\REPSWITCH_excgange\REPSWITCH_excgange\data/220203_REPSWITCH1_version2_list3_2023-12-01_13h12.50.376_micRespv2l3_recorded\recording_micRespv2l3_2023-12-01_13h14.16.959.wav,100.38289520004764,100.88288310007192,None,,,,,,220203,001,2023-12-01_13h12.50.376,REPSWITCH1_version2_list3,2022.2.4,143.91968112168752,
REPSWITCH1/PICTURE_719.png,baño,speak,darkblue,filler,2,F,1,2,3,2,Stim2_Set4,0,None,16,15,16,0,15,15,15,,,,,,,,,,,,,,,,,,,,,,,100.88288310007192,101.93166900007054,101.93166900007054,101.93166900007054,101.93166900007054,101.93166900007054,101.93166900007054,101.93166900007054,101.93166900007054,104.95988039998338,104.95988039998338,104.95988039998338,104.95988039998338,104.95988039998338,104.95988039998338,None,0,,,C:\2023\REPSWITCH21092023\REPSWITCH_excgange\REPSWITCH_excgange\data/220203_REPSWITCH1_version2_list3_2023-12-01_13h12.50.376_micRespv2l3_recorded\recording_micRespv2l3_2023-12-01_13h14.21.530.wav,104.95988039998338,,None,,,,,,220203,001,2023-12-01_13h12.50.376,REPSWITCH1_version2_list3,2022.2.4,143.91968112168752,
REPSWITCH1/PICTURE_169.png,espalda,type,gold,nontarget,1,NT,1,2,3,2,Stim8_Set1,1,switch,17,16,17,0,16,16,16,,,,,,,,,,,,,,,,,,,,,,,105.45987200015225,106.61981209996156,106.61981209996156,106.61981209996156,106.61981209996156,106.61981209996156,106.61981209996156,106.61981209996156,106.61981209996156,109.64097710000351,109.64097710000351,109.64097710000351,109.64097710000351,109.64097710000351,109.64097710000351,"['e', 's', 'p', 'a', 'l', 'd', 'a']",0,"[0.9142231000587344, 1.1115914001129568, 1.2351440000347793, 1.3816417001653463, 1.5025264001451433, 1.6091557000763714, 1.6515156000386924]",espalda,C:\2023\REPSWITCH21092023\REPSWITCH_excgange\REPSWITCH_excgange\data/220203_REPSWITCH1_version2_list3_2023-12-01_13h12.50.376_micRespv2l3_recorded\recording_micRespv2l3_2023-12-01_13h14.26.217.wav,109.64097710000351,110.14104890008457,None,,,,,,220203,001,2023-12-01_13h12.50.376,REPSWITCH1_version2_list3,2022.2.4,143.91968112168752,
REPSWITCH1/PICTURE_169.png,espalda,type,gold,repeat,1,T,1,2,3,2,Stim8_Set1,0,None,18,17,18,0,17,17,17,,,,,,,,,,,,,,,,,,,,,,,110.14104890008457,111.20366950007156,111.20366950007156,111.20366950007156,111.20366950007156,111.20366950007156,111.20366950007156,111.20366950007156,111.20366950007156,114.22491850005463,114.22491850005463,114.22491850005463,114.22491850005463,114.22491850005463,114.22491850005463,"['e', 's', 'p', 'a', 'l', 'd', 'a']",0,"[0.9154413000214845, 1.088951899902895, 1.2114534000866115, 1.3081582998856902, 1.4166635000146925, 1.5209194999188185, 1.5517893999349326]",espalda,C:\2023\REPSWITCH21092023\REPSWITCH_excgange\REPSWITCH_excgange\data/220203_REPSWITCH1_version2_list3_2023-12-01_13h12.50.376_micRespv2l3_recorded\recording_micRespv2l3_2023-12-01_13h14.30.801.wav,114.22491850005463,114.72498090006411,None,,,,,,220203,001,2023-12-01_13h12.50.376,REPSWITCH1_version2_list3,2022.2.4,143.91968112168752,
REPSWITCH1/PICTURE_48.png,bombero,speak,darkblue,filler,2,F,1,2,3,2,Stim7_Set4,1,switch,19,18,19,0,18,18,18,,,,,,,,,,,,,,,,,,,,,,,114.72498090006411,115.80156429996714,115.80156429996714,115.80156429996714,115.80156429996714,115.80156429996714,115.80156429996714,115.80156429996714,115.80156429996714,118.82274780003354,118.82274780003354,118.82274780003354,118.82274780003354,118.82274780003354,118.82274780003354,None,0,,,C:\2023\REPSWITCH21092023\REPSWITCH_excgange\REPSWITCH_excgange\data/220203_REPSWITCH1_version2_list3_2023-12-01_13h12.50.376_micRespv2l3_recorded\recording_micRespv2l3_2023-12-01_13h14.35.399.wav,118.82274780003354,119.32280399999581,None,,,,,,220203,001,2023-12-01_13h12.50.376,REPSWITCH1_version2_list3,2022.2.4,143.91968112168752,
REPSWITCH1/PICTURE_19.png,pavo,type,gold,nontarget,1,NT,1,2,3,2,Stim5_Set1,1,switch,20,19,20,0,19,19,19,,,,,,,,,,,,,,,,,,,,,,,119.32280399999581,120.3368802999612,120.3368802999612,120.3368802999612,120.3368802999612,120.3368802999612,120.3368802999612,120.3368802999612,120.3368802999612,123.35805590008385,123.35805590008385,123.35805590008385,123.35805590008385,123.35805590008385,123.35805590008385,"['p', 'a', 'v', 'o']",0,"[1.2365438998676836, 1.2913844999857247, 1.5286838999018073, 1.6133147000800818]",pavo,C:\2023\REPSWITCH21092023\REPSWITCH_excgange\REPSWITCH_excgange\data/220203_REPSWITCH1_version2_list3_2023-12-01_13h12.50.376_micRespv2l3_recorded\recording_micRespv2l3_2023-12-01_13h14.39.934.wav,123.35805590008385,123.85817799996585,None,,,,,,220203,001,2023-12-01_13h12.50.376,REPSWITCH1_version2_list3,2022.2.4,143.91968112168752,
REPSWITCH1/PICTURE_19.png,pavo,type,gold,repeat,1,T,1,2,3,2,Stim5_Set1,0,None,21,20,21,0,20,20,20,,,,,,,,,,,,,,,,,,,,,,,123.85817799996585,124.99713989999145,124.99713989999145,124.99713989999145,124.99713989999145,124.99713989999145,124.99713989999145,124.99713989999145,124.99713989999145,128.02531099994667,128.02531099994667,128.02531099994667,128.02531099994667,128.02531099994667,128.02531099994667,"['p', 'a', 'v', 'o']",0,"[0.8304910999722779, 0.8932781999465078, 1.150425500003621, 1.2420717999339104]",pavo,C:\2023\REPSWITCH21092023\REPSWITCH_excgange\REPSWITCH_excgange\data/220203_REPSWITCH1_version2_list3_2023-12-01_13h12.50.376_micRespv2l3_recorded\recording_micRespv2l3_2023-12-01_13h14.44.596.wav,128.02531099994667,,None,,,,,,220203,001,2023-12-01_13h12.50.376,REPSWITCH1_version2_list3,2022.2.4,143.91968112168752,
REPSWITCH1/PICTURE_319.png,vaca,speak,darkblue,filler,2,F,1,2,3,2,Stim1_Set4,0,None,22,21,22,0,21,21,21,,,,,,,,,,,,,,,,,,,,,,,128.52538010012358,129.68529960000888,129.68529960000888,129.68529960000888,129.68529960000888,129.68529960000888,129.68529960000888,129.68529960000888,129.68529960000888,132.7134503000416,132.7134503000416,132.7134503000416,132.7134503000416,132.7134503000416,132.7134503000416,None,0,,,C:\2023\REPSWITCH21092023\REPSWITCH_excgange\REPSWITCH_excgange\data/220203_REPSWITCH1_version2_list3_2023-12-01_13h12.50.376_micRespv2l3_recorded\recording_micRespv2l3_2023-12-01_13h14.49.284.wav,132.7134503000416,,None,,,,,,220203,001,2023-12-01_13h12.50.376,REPSWITCH1_version2_list3,2022.2.4,143.91968112168752,
REPSWITCH1/PICTURE_338.png,regalo,type,gold,filler,1,F,1,2,3,2,Stim6_Set4,0,None,23,22,23,0,22,22,22,,,,,,,,,,,,,,,,,,,,,,,133.21351150004193,134.24836060008965,134.24836060008965,134.24836060008965,134.24836060008965,134.24836060008965,134.24836060008965,134.24836060008965,134.24836060008965,137.2696061001625,137.2696061001625,137.2696061001625,137.2696061001625,137.2696061001625,137.2696061001625,"['r', 'e', 'g', 'a', 'l', 'o']",0,"[1.0410821998957545, 1.0998479998670518, 1.302426900016144, 1.4788079999852926, 1.539634499931708, 1.713058799970895]",regalo,C:\2023\REPSWITCH21092023\REPSWITCH_excgange\REPSWITCH_excgange\data/220203_REPSWITCH1_version2_list3_2023-12-01_13h12.50.376_micRespv2l3_recorded\recording_micRespv2l3_2023-12-01_13h14.53.846.wav,137.2696061001625,137.76966969994828,None,,,,,,220203,001,2023-12-01_13h12.50.376,REPSWITCH1_version2_list3,2022.2.4,143.91968112168752,
REPSWITCH1/PICTURE_142.png,vaso,type,gold,nontarget,1,NT,1,2,3,2,Stim7_Set1,0,None,24,23,24,0,23,23,23,,,,,,,,,,,,,,,,,,,,,,,137.76966969994828,138.79760350007564,138.79760350007564,138.79760350007564,138.79760350007564,138.79760350007564,138.79760350007564,138.79760350007564,138.79760350007564,141.82575360010378,141.82575360010378,141.82575360010378,141.82575360010378,141.82575360010378,141.82575360010378,"['v', 'a', 's', 'o']",0,"[1.0551730999723077, 1.2395556000992656, 1.3123006999958307, 1.4253006000071764]",vaso,C:\2023\REPSWITCH21092023\REPSWITCH_excgange\REPSWITCH_excgange\data/220203_REPSWITCH1_version2_list3_2023-12-01_13h12.50.376_micRespv2l3_recorded\recording_micRespv2l3_2023-12-01_13h14.58.395.wav,141.82575360010378,,None,,,,,,220203,001,2023-12-01_13h12.50.376,REPSWITCH1_version2_list3,2022.2.4,143.91968112168752,
REPSWITCH1/PICTURE_142.png,vaso,speak,darkblue,switch,2,T,1,2,3,2,Stim7_Set1,0,None,25,24,25,0,24,24,24,,,,,,,,,,,,,,,,,,,,,,,142.32583620003425,143.39539810013957,143.39539810013957,143.39539810013957,143.39539810013957,143.39539810013957,143.39539810013957,143.39539810013957,143.39539810013957,146.4166379000526,146.4166379000526,146.4166379000526,146.4166379000526,146.4166379000526,146.4166379000526,None,0,,,C:\2023\REPSWITCH21092023\REPSWITCH_excgange\REPSWITCH_excgange\data/220203_REPSWITCH1_version2_list3_2023-12-01_13h12.50.376_micRespv2l3_recorded\recording_micRespv2l3_2023-12-01_13h15.02.993.wav,146.4166379000526,146.91671589994803,None,,,,,,220203,001,2023-12-01_13h12.50.376,REPSWITCH1_version2_list3,2022.2.4,143.91968112168752,
REPSWITCH1/PICTURE_687.png,camisa,type,gold,filler,1,F,1,2,3,2,Stim5_Set4,1,switch,26,25,26,0,25,25,25,,,,,,,,,,,,,,,,,,,,,,,146.91671589994803,148.04884220007807,148.04884220007807,148.04884220007807,148.04884220007807,148.04884220007807,148.04884220007807,148.04884220007807,148.04884220007807,151.07001939998008,151.07001939998008,151.07001939998008,151.07001939998008,151.07001939998008,151.07001939998008,"['c', 'a', 'm', 'i', 's', 'a']",0,"[1.531324400100857, 1.5582367999013513, 1.806364299962297, 1.8612230001017451, 1.9940353999845684, 2.044238399947062]",camisa,C:\2023\REPSWITCH21092023\REPSWITCH_excgange\REPSWITCH_excgange\data/220203_REPSWITCH1_version2_list3_2023-12-01_13h12.50.376_micRespv2l3_recorded\recording_micRespv2l3_2023-12-01_13h15.07.646.wav,151.07001939998008,151.57007390004583,None,,,,,,220203,001,2023-12-01_13h12.50.376,REPSWITCH1_version2_list3,2022.2.4,143.91968112168752,
REPSWITCH1/PICTURE_30.png,granja,type,gold,nontarget,1,NT,2,2,3,2,Stim5_Set2,0,None,27,26,27,0,26,26,26,,,,,,,,,,,,,,,,,,,,,,,151.57007390004583,152.60492660012096,152.60492660012096,152.60492660012096,152.60492660012096,152.60492660012096,152.60492660012096,152.60492660012096,152.60492660012096,155.63311460008845,155.63311460008845,155.63311460008845,155.63311460008845,155.63311460008845,155.63311460008845,"['g', 'r', 'a', 'j', 'a']",0,"[1.7166218000929803, 1.8102564001455903, 2.023580600041896, 2.3139315999578685, 2.4993082999717444]",graja,C:\2023\REPSWITCH21092023\REPSWITCH_excgange\REPSWITCH_excgange\data/220203_REPSWITCH1_version2_list3_2023-12-01_13h12.50.376_micRespv2l3_recorded\recording_micRespv2l3_2023-12-01_13h15.12.205.wav,155.63311460008845,156.13314980012365,None,,,,,,220203,001,2023-12-01_13h12.50.376,REPSWITCH1_version2_list3,2022.2.4,143.91968112168752,
REPSWITCH1/PICTURE_30.png,granja,type,gold,repeat,1,T,2,2,3,2,Stim5_Set2,0,None,28,27,28,0,27,27,27,,,,,,,,,,,,,,,,,,,,,,,156.13314980012365,157.20974000007845,157.20974000007845,157.20974000007845,157.20974000007845,157.20974000007845,157.20974000007845,157.20974000007845,157.20974000007845,160.23790540010668,160.23790540010668,160.23790540010668,160.23790540010668,160.23790540010668,160.23790540010668,"['g', 'r', 'a', 'n', 'j', 'a']",0,"[1.080775500042364, 1.118607999989763, 1.328939100028947, 1.46747100003995, 1.6090989999938756, 1.6778645000886172]",granja,C:\2023\REPSWITCH21092023\REPSWITCH_excgange\REPSWITCH_excgange\data/220203_REPSWITCH1_version2_list3_2023-12-01_13h12.50.376_micRespv2l3_recorded\recording_micRespv2l3_2023-12-01_13h15.16.808.wav,160.23790540010668,,None,,,,,,220203,001,2023-12-01_13h12.50.376,REPSWITCH1_version2_list3,2022.2.4,143.91968112168752,
REPSWITCH1/PICTURE_128.png,muñeca,speak,darkblue,filler,2,F,2,2,3,2,Stim4_Set1,0,None,29,28,29,0,28,28,28,,,,,,,,,,,,,,,,,,,,,,,160.7379497999791,161.86310159997083,161.86310159997083,161.86310159997083,161.86310159997083,161.86310159997083,161.86310159997083,161.86310159997083,161.86310159997083,164.89125210000202,164.89125210000202,164.89125210000202,164.89125210000202,164.89125210000202,164.89125210000202,None,0,,,C:\2023\REPSWITCH21092023\REPSWITCH_excgange\REPSWITCH_excgange\data/220203_REPSWITCH1_version2_list3_2023-12-01_13h12.50.376_micRespv2l3_recorded\recording_micRespv2l3_2023-12-01_13h15.21.461.wav,164.89125210000202,,None,,,,,,220203,001,2023-12-01_13h12.50.376,REPSWITCH1_version2_list3,2022.2.4,143.91968112168752,
REPSWITCH1/PICTURE_264.png,mano,type,gold,nontarget,1,NT,2,2,3,2,Stim3_Set2,1,switch,30,29,30,0,29,29,29,,,,,,,,,,,,,,,,,,,,,,,165.3913259000983,166.44704900006764,166.44704900006764,166.44704900006764,166.44704900006764,166.44704900006764,166.44704900006764,166.44704900006764,166.44704900006764,169.46831650007516,169.46831650007516,169.46831650007516,169.46831650007516,169.46831650007516,169.46831650007516,"['m', 'a', 'n', 'o']",0,"[0.9817351000383496, 1.1063052001409233, 1.2338822002056986, 1.3306266001891345]",mano,C:\2023\REPSWITCH21092023\REPSWITCH_excgange\REPSWITCH_excgange\data/220203_REPSWITCH1_version2_list3_2023-12-01_13h12.50.376_micRespv2l3_recorded\recording_micRespv2l3_2023-12-01_13h15.26.045.wav,169.46831650007516,169.9683181999717,None,,,,,,220203,001,2023-12-01_13h12.50.376,REPSWITCH1_version2_list3,2022.2.4,143.91968112168752,
REPSWITCH1/PICTURE_264.png,mano,type,gold,repeat,1,T,2,2,3,2,Stim3_Set2,0,None,31,30,31,0,30,30,30,,,,,,,,,,,,,,,,,,,,,,,169.9683181999717,170.98234330001287,170.98234330001287,170.98234330001287,170.98234330001287,170.98234330001287,170.98234330001287,170.98234330001287,170.98234330001287,174.0035918999929,174.0035918999929,174.0035918999929,174.0035918999929,174.0035918999929,174.0035918999929,"['m', 'a', 'n', 'o']",0,"[0.8157920001540333, 0.8874379000626504, 1.058908100007102, 1.1366541001480073]",mano,C:\2023\REPSWITCH21092023\REPSWITCH_excgange\REPSWITCH_excgange\data/220203_REPSWITCH1_version2_list3_2023-12-01_13h12.50.376_micRespv2l3_recorded\recording_micRespv2l3_2023-12-01_13h15.30.580.wav,174.0035918999929,174.50365109997801,None,,,,,,220203,001,2023-12-01_13h12.50.376,REPSWITCH1_version2_list3,2022.2.4,143.91968112168752,
REPSWITCH1/PICTURE_175.png,pintor,type,gold,nontarget,1,NT,2,2,3,2,Stim1_Set2,0,None,32,31,32,0,31,31,31,,,,,,,,,,,,,,,,,,,,,,,174.50365109997801,175.5732607000973,175.5732607000973,175.5732607000973,175.5732607000973,175.5732607000973,175.5732607000973,175.5732607000973,175.5732607000973,178.60141340014525,178.60141340014525,178.60141340014525,178.60141340014525,178.60141340014525,178.60141340014525,"['p', 'i', 'n', 't', 'o', 'r']",0,"[1.0768408000003546, 1.1695490998681635, 1.3559435999486595, 1.4625692998524755, 1.565233799861744, 1.6639057998545468]",pintor,C:\2023\REPSWITCH21092023\REPSWITCH_excgange\REPSWITCH_excgange\data/220203_REPSWITCH1_version2_list3_2023-12-01_13h12.50.376_micRespv2l3_recorded\recording_micRespv2l3_2023-12-01_13h15.35.172.wav,178.60141340014525,,None,,,,,,220203,001,2023-12-01_13h12.50.376,REPSWITCH1_version2_list3,2022.2.4,143.91968112168752,
REPSWITCH1/PICTURE_175.png,pintor,speak,darkblue,switch,2,T,2,2,3,2,Stim1_Set2,0,None,33,32,33,0,32,32,32,,,,,,,,,,,,,,,,,,,,,,,179.10147590003908,180.33082669996656,180.33082669996656,180.33082669996656,180.33082669996656,180.33082669996656,180.33082669996656,180.33082669996656,180.33082669996656,183.3520125001669,183.3520125001669,183.3520125001669,183.3520125001669,183.3520125001669,183.3520125001669,None,0,,,C:\2023\REPSWITCH21092023\REPSWITCH_excgange\REPSWITCH_excgange\data/220203_REPSWITCH1_version2_list3_2023-12-01_13h12.50.376_micRespv2l3_recorded\recording_micRespv2l3_2023-12-01_13h15.39.929.wav,183.3520125001669,183.85208430001512,None,,,,,,220203,001,2023-12-01_13h12.50.376,REPSWITCH1_version2_list3,2022.2.4,143.91968112168752,
REPSWITCH1/PICTURE_135.png,traje,speak,darkblue,filler,2,F,2,2,3,2,Stim3_Set1,1,repeat,34,33,34,0,33,33,33,,,,,,,,,,,,,,,,,,,,,,,183.85208430001512,184.94946260005236,184.94946260005236,184.94946260005236,184.94946260005236,184.94946260005236,184.94946260005236,184.94946260005236,184.94946260005236,187.9707226001192,187.9707226001192,187.9707226001192,187.9707226001192,187.9707226001192,187.9707226001192,None,0,,,C:\2023\REPSWITCH21092023\REPSWITCH_excgange\REPSWITCH_excgange\data/220203_REPSWITCH1_version2_list3_2023-12-01_13h12.50.376_micRespv2l3_recorded\recording_micRespv2l3_2023-12-01_13h15.44.547.wav,187.9707226001192,188.47074980009347,None,,,,,,220203,001,2023-12-01_13h12.50.376,REPSWITCH1_version2_list3,2022.2.4,143.91968112168752,
REPSWITCH1/PICTURE_446.png,cerdo,speak,darkblue,nontarget,2,NT,2,2,3,2,Stim7_Set2,1,repeat,35,34,35,0,34,34,34,,,,,,,,,,,,,,,,,,,,,,,188.47074980009347,189.55422020005062,189.55422020005062,189.55422020005062,189.55422020005062,189.55422020005062,189.55422020005062,189.55422020005062,189.55422020005062,192.57547709997743,192.57547709997743,192.57547709997743,192.57547709997743,192.57547709997743,192.57547709997743,None,0,,,C:\2023\REPSWITCH21092023\REPSWITCH_excgange\REPSWITCH_excgange\data/220203_REPSWITCH1_version2_list3_2023-12-01_13h12.50.376_micRespv2l3_recorded\recording_micRespv2l3_2023-12-01_13h15.49.152.wav,192.57547709997743,193.07553949998692,None,,,,,,220203,001,2023-12-01_13h12.50.376,REPSWITCH1_version2_list3,2022.2.4,143.91968112168752,
REPSWITCH1/PICTURE_446.png,cerdo,type,gold,switch,1,T,2,2,3,2,Stim7_Set2,0,None,36,35,36,0,35,35,35,,,,,,,,,,,,,,,,,,,,,,,193.07553949998692,194.19374529994093,194.19374529994093,194.19374529994093,194.19374529994093,194.19374529994093,194.19374529994093,194.19374529994093,194.19374529994093,197.2149527000729,197.2149527000729,197.2149527000729,197.2149527000729,197.2149527000729,197.2149527000729,"['c', 'e', 'r', 'd', 'o']",0,"[1.4114051999058574, 1.6047964000608772, 1.6486887999344617, 1.8501599000301212, 1.9310320999938995]",cerdo,C:\2023\REPSWITCH21092023\REPSWITCH_excgange\REPSWITCH_excgange\data/220203_REPSWITCH1_version2_list3_2023-12-01_13h12.50.376_micRespv2l3_recorded\recording_micRespv2l3_2023-12-01_13h15.53.793.wav,197.2149527000729,197.71503009996377,None,,,,,,220203,001,2023-12-01_13h12.50.376,REPSWITCH1_version2_list3,2022.2.4,143.91968112168752,
REPSWITCH1/PICTURE_152.png,caracol,type,gold,nontarget,1,NT,2,2,3,2,Stim2_Set2,1,repeat,37,36,37,0,36,36,36,,,,,,,,,,,,,,,,,,,,,,,197.71503009996377,198.84015800012276,198.84015800012276,198.84015800012276,198.84015800012276,198.84015800012276,198.84015800012276,198.84015800012276,198.84015800012276,201.86137449997477,201.86137449997477,201.86137449997477,201.86137449997477,201.86137449997477,201.86137449997477,"['c', 'a', 'r', 'a', 'c', 'o', 'l']",0,"[0.8140638000331819, 0.9217188998591155, 1.093483799835667, 1.167200499912724, 1.3665738999843597, 1.4492964998353273, 1.6260613999329507]",caracol,C:\2023\REPSWITCH21092023\REPSWITCH_excgange\REPSWITCH_excgange\data/220203_REPSWITCH1_version2_list3_2023-12-01_13h12.50.376_micRespv2l3_recorded\recording_micRespv2l3_2023-12-01_13h15.58.438.wav,201.86137449997477,202.36148399999365,None,,,,,,220203,001,2023-12-01_13h12.50.376,REPSWITCH1_version2_list3,2022.2.4,143.91968112168752,
REPSWITCH1/PICTURE_152.png,caracol,speak,darkblue,switch,2,T,2,2,3,2,Stim2_Set2,0,None,38,37,38,0,37,37,37,,,,,,,,,,,,,,,,,,,,,,,202.36148399999365,203.465855400078,203.465855400078,203.465855400078,203.465855400078,203.465855400078,203.465855400078,203.465855400078,203.465855400078,206.49396610003896,206.49396610003896,206.49396610003896,206.49396610003896,206.49396610003896,206.49396610003896,None,0,,,C:\2023\REPSWITCH21092023\REPSWITCH_excgange\REPSWITCH_excgange\data/220203_REPSWITCH1_version2_list3_2023-12-01_13h12.50.376_micRespv2l3_recorded\recording_micRespv2l3_2023-12-01_13h16.03.064.wav,206.49396610003896,,None,,,,,,220203,001,2023-12-01_13h12.50.376,REPSWITCH1_version2_list3,2022.2.4,143.91968112168752,
REPSWITCH1/PICTURE_16.png,cazador,type,gold,filler,1,F,2,2,3,2,Stim6_Set1,0,None,39,38,39,0,38,38,38,,,,,,,,,,,,,,,,,,,,,,,206.99409570009448,208.05667540011927,208.05667540011927,208.05667540011927,208.05667540011927,208.05667540011927,208.05667540011927,208.05667540011927,208.05667540011927,211.07789900014177,211.07789900014177,211.07789900014177,211.07789900014177,211.07789900014177,211.07789900014177,"['c', 'a', 'z', 'a', 'd', 'r', 'backspace']",0,"[1.176226699957624, 1.299743500072509, 1.540937599958852, 1.6007473000790924, 1.7313071000389755, 1.960498800035566, 2.6772908000275493]",cazad,C:\2023\REPSWITCH21092023\REPSWITCH_excgange\REPSWITCH_excgange\data/220203_REPSWITCH1_version2_list3_2023-12-01_13h12.50.376_micRespv2l3_recorded\recording_micRespv2l3_2023-12-01_13h16.07.654.wav,211.07789900014177,211.57795990002342,None,,,,,,220203,001,2023-12-01_13h12.50.376,REPSWITCH1_version2_list3,2022.2.4,143.91968112168752,
REPSWITCH1/PICTURE_381.png,fresa,speak,darkblue,filler,2,F,2,2,3,2,Stim2_Set1,0,None,40,39,40,0,39,39,39,,,,,,,,,,,,,,,,,,,,,,,211.57795990002342,212.6822514999658,212.6822514999658,212.6822514999658,212.6822514999658,212.6822514999658,212.6822514999658,212.6822514999658,212.6822514999658,215.70346929994412,215.70346929994412,215.70346929994412,215.70346929994412,215.70346929994412,215.70346929994412,None,0,,,C:\2023\REPSWITCH21092023\REPSWITCH_excgange\REPSWITCH_excgange\data/220203_REPSWITCH1_version2_list3_2023-12-01_13h12.50.376_micRespv2l3_recorded\recording_micRespv2l3_2023-12-01_13h16.12.281.wav,215.70346929994412,216.20357639994472,None,,,,,,220203,001,2023-12-01_13h12.50.376,REPSWITCH1_version2_list3,2022.2.4,143.91968112168752,
REPSWITCH1/PICTURE_19.png,pavo,type,gold,filler,1,F,2,2,3,2,Stim5_Set1,0,None,41,40,41,0,40,40,40,,,,,,,,,,,,,,,,,,,,,,,216.20357639994472,217.36343410005793,217.36343410005793,217.36343410005793,217.36343410005793,217.36343410005793,217.36343410005793,217.36343410005793,217.36343410005793,220.38465479994193,220.38465479994193,220.38465479994193,220.38465479994193,220.38465479994193,220.38465479994193,"['p', 'a', 'v', 'o']",0,"[1.0371854999102652, 1.0860160000156611, 1.3003004000056535, 1.3690879999194294]",pavo,C:\2023\REPSWITCH21092023\REPSWITCH_excgange\REPSWITCH_excgange\data/220203_REPSWITCH1_version2_list3_2023-12-01_13h12.50.376_micRespv2l3_recorded\recording_micRespv2l3_2023-12-01_13h16.16.961.wav,220.38465479994193,220.88472780003212,None,,,,,,220203,001,2023-12-01_13h12.50.376,REPSWITCH1_version2_list3,2022.2.4,143.91968112168752,
REPSWITCH1/PICTURE_517.png,cuerda,speak,darkblue,nontarget,2,NT,2,2,3,2,Stim4_Set2,1,switch,42,41,42,0,41,41,41,,,,,,,,,,,,,,,,,,,,,,,220.88472780003212,221.89874120010063,221.89874120010063,221.89874120010063,221.89874120010063,221.89874120010063,221.89874120010063,221.89874120010063,221.89874120010063,224.9199801001232,224.9199801001232,224.9199801001232,224.9199801001232,224.9199801001232,224.9199801001232,None,0,,,C:\2023\REPSWITCH21092023\REPSWITCH_excgange\REPSWITCH_excgange\data/220203_REPSWITCH1_version2_list3_2023-12-01_13h12.50.376_micRespv2l3_recorded\recording_micRespv2l3_2023-12-01_13h16.21.497.wav,224.9199801001232,225.42006610007957,None,,,,,,220203,001,2023-12-01_13h12.50.376,REPSWITCH1_version2_list3,2022.2.4,143.91968112168752,
REPSWITCH1/PICTURE_517.png,cuerda,speak,darkblue,repeat,2,T,2,2,3,2,Stim4_Set2,0,None,43,42,43,0,42,42,42,,,,,,,,,,,,,,,,,,,,,,,225.42006610007957,226.49657199997455,226.49657199997455,226.49657199997455,226.49657199997455,226.49657199997455,226.49657199997455,226.49657199997455,226.49657199997455,229.51781600015238,229.51781600015238,229.51781600015238,229.51781600015238,229.51781600015238,229.51781600015238,None,0,,,C:\2023\REPSWITCH21092023\REPSWITCH_excgange\REPSWITCH_excgange\data/220203_REPSWITCH1_version2_list3_2023-12-01_13h12.50.376_micRespv2l3_recorded\recording_micRespv2l3_2023-12-01_13h16.26.094.wav,229.51781600015238,230.01789350016043,None,,,,,,220203,001,2023-12-01_13h12.50.376,REPSWITCH1_version2_list3,2022.2.4,143.91968112168752,
REPSWITCH1/PICTURE_178.png,puente,type,gold,filler,1,F,2,2,3,2,Stim1_Set1,0,None,44,43,44,0,43,43,43,,,,,,,,,,,,,,,,,,,,,,,230.01789350016043,231.1708070000168,231.1708070000168,231.1708070000168,231.1708070000168,231.1708070000168,231.1708070000168,231.1708070000168,231.1708070000168,234.1920209999662,234.1920209999662,234.1920209999662,234.1920209999662,234.1920209999662,234.1920209999662,"['p', 'u', 'e', 'n', 't', 'e']",0,"[1.0467760998290032, 1.1902740998193622, 1.251072800019756, 1.3827497998718172, 1.4742250998970121, 1.5203998000361025]",puente,C:\2023\REPSWITCH21092023\REPSWITCH_excgange\REPSWITCH_excgange\data/220203_REPSWITCH1_version2_list3_2023-12-01_13h12.50.376_micRespv2l3_recorded\recording_micRespv2l3_2023-12-01_13h16.30.769.wav,234.1920209999662,234.69208550010808,None,,,,,,220203,001,2023-12-01_13h12.50.376,REPSWITCH1_version2_list3,2022.2.4,143.91968112168752,
REPSWITCH1/PICTURE_199.png,falda,speak,darkblue,nontarget,2,NT,2,2,3,2,Stim8_Set2,1,switch,45,44,45,0,44,44,44,,,,,,,,,,,,,,,,,,,,,,,234.69208550010808,235.76861310005188,235.76861310005188,235.76861310005188,235.76861310005188,235.76861310005188,235.76861310005188,235.76861310005188,235.76861310005188,238.79681199998595,238.79681199998595,238.79681199998595,238.79681199998595,238.79681199998595,238.79681199998595,None,0,,,C:\2023\REPSWITCH21092023\REPSWITCH_excgange\REPSWITCH_excgange\data/220203_REPSWITCH1_version2_list3_2023-12-01_13h12.50.376_micRespv2l3_recorded\recording_micRespv2l3_2023-12-01_13h16.35.367.wav,238.79681199998595,,None,,,,,,220203,001,2023-12-01_13h12.50.376,REPSWITCH1_version2_list3,2022.2.4,143.91968112168752,
REPSWITCH1/PICTURE_199.png,falda,speak,darkblue,repeat,2,T,2,2,3,2,Stim8_Set2,0,None,46,45,46,0,45,45,45,,,,,,,,,,,,,,,,,,,,,,,239.29687880002894,240.43597130011767,240.43597130011767,240.43597130011767,240.43597130011767,240.43597130011767,240.43597130011767,240.43597130011767,240.43597130011767,243.45713150012307,243.45713150012307,243.45713150012307,243.45713150012307,243.45713150012307,243.45713150012307,None,0,,,C:\2023\REPSWITCH21092023\REPSWITCH_excgange\REPSWITCH_excgange\data/220203_REPSWITCH1_version2_list3_2023-12-01_13h12.50.376_micRespv2l3_recorded\recording_micRespv2l3_2023-12-01_13h16.40.034.wav,243.45713150012307,243.9571913999971,None,,,,,,220203,001,2023-12-01_13h12.50.376,REPSWITCH1_version2_list3,2022.2.4,143.91968112168752,
REPSWITCH1/PICTURE_169.png,espalda,type,gold,filler,1,F,2,2,3,2,Stim8_Set1,0,None,47,46,47,0,46,46,46,,,,,,,,,,,,,,,,,,,,,,,243.9571913999971,244.98515770002268,244.98515770002268,244.98515770002268,244.98515770002268,244.98515770002268,244.98515770002268,244.98515770002268,244.98515770002268,248.00636240001768,248.00636240001768,248.00636240001768,248.00636240001768,248.00636240001768,248.00636240001768,"['e', 's', 'p', 'a', 'l', 'd', 'a']",0,"[1.0015661001671106, 1.2438203999772668, 1.3765042000450194, 1.4808267999906093, 1.593448500148952, 1.722301100147888, 1.7591812999453396]",espalda,C:\2023\REPSWITCH21092023\REPSWITCH_excgange\REPSWITCH_excgange\data/220203_REPSWITCH1_version2_list3_2023-12-01_13h12.50.376_micRespv2l3_recorded\recording_micRespv2l3_2023-12-01_13h16.44.583.wav,248.00636240001768,248.50642460002564,None,,,,,,220203,001,2023-12-01_13h12.50.376,REPSWITCH1_version2_list3,2022.2.4,143.91968112168752,
REPSWITCH1/PICTURE_142.png,vaso,speak,darkblue,filler,2,F,2,2,3,2,Stim7_Set1,0,None,48,47,48,0,47,47,47,,,,,,,,,,,,,,,,,,,,,,,248.50642460002564,249.60379149997607,249.60379149997607,249.60379149997607,249.60379149997607,249.60379149997607,249.60379149997607,249.60379149997607,249.60379149997607,252.63192069996148,252.63192069996148,252.63192069996148,252.63192069996148,252.63192069996148,252.63192069996148,None,0,,,C:\2023\REPSWITCH21092023\REPSWITCH_excgange\REPSWITCH_excgange\data/220203_REPSWITCH1_version2_list3_2023-12-01_13h12.50.376_micRespv2l3_recorded\recording_micRespv2l3_2023-12-01_13h16.49.203.wav,252.63192069996148,,None,,,,,,220203,001,2023-12-01_13h12.50.376,REPSWITCH1_version2_list3,2022.2.4,143.91968112168752,
REPSWITCH1/PICTURE_552.png,manzana,speak,darkblue,nontarget,2,NT,2,2,3,2,Stim6_Set2,0,None,49,48,49,0,48,48,48,,,,,,,,,,,,,,,,,,,,,,,253.1320257000625,254.27801520004869,254.27801520004869,254.27801520004869,254.27801520004869,254.27801520004869,254.27801520004869,254.27801520004869,254.27801520004869,257.3061597000342,257.3061597000342,257.3061597000342,257.3061597000342,257.3061597000342,257.3061597000342,None,0,,,C:\2023\REPSWITCH21092023\REPSWITCH_excgange\REPSWITCH_excgange\data/220203_REPSWITCH1_version2_list3_2023-12-01_13h12.50.376_micRespv2l3_recorded\recording_micRespv2l3_2023-12-01_13h16.53.876.wav,257.3061597000342,,None,,,,,,220203,001,2023-12-01_13h12.50.376,REPSWITCH1_version2_list3,2022.2.4,143.91968112168752,
REPSWITCH1/PICTURE_552.png,manzana,type,gold,switch,1,T,2,2,3,2,Stim6_Set2,0,None,50,49,50,0,49,49,49,,,,,,,,,,,,,,,,,,,,,,,257.8062571999617,258.98702990007587,258.98702990007587,258.98702990007587,258.98702990007587,258.98702990007587,258.98702990007587,258.98702990007587,258.98702990007587,262.0081595000811,262.0081595000811,262.0081595000811,262.0081595000811,262.0081595000811,262.0081595000811,"['m', 'a', 'n', 'z', 'a', 'n', 'a']",0,"[0.9363039000891149, 1.0030439000111073, 1.6094607000704855, 1.7479906000662595, 1.883593900129199, 2.0778894000686705, 2.3649079999886453]",manzana,C:\2023\REPSWITCH21092023\REPSWITCH_excgange\REPSWITCH_excgange\data/220203_REPSWITCH1_version2_list3_2023-12-01_13h12.50.376_micRespv2l3_recorded\recording_micRespv2l3_2023-12-01_13h16.58.586.wav,262.0081595000811,262.50830300012603,None,,,,,,220203,001,2023-12-01_13h12.50.376,REPSWITCH1_version2_list3,2022.2.4,143.91968112168752,
REPSWITCH1/PICTURE_590.png,escoba,speak,darkblue,filler,2,F,1,2,3,2,Extra3,0,None,51,50,51,0,50,50,50,,,,,,,,,,,,,,,,,,,,,,,262.50830300012603,263.6334697001148,263.6334697001148,263.6334697001148,263.6334697001148,263.6334697001148,263.6334697001148,263.6334697001148,263.6334697001148,266.6546126001049,266.6546126001049,266.6546126001049,266.6546126001049,266.6546126001049,266.6546126001049,None,0,,,C:\2023\REPSWITCH21092023\REPSWITCH_excgange\REPSWITCH_excgange\data/220203_REPSWITCH1_version2_list3_2023-12-01_13h12.50.376_micRespv2l3_recorded\recording_micRespv2l3_2023-12-01_13h17.03.231.wav,266.6546126001049,267.1546953001525,space,267.1546953001525,267.1546953001525,13.074516299879178,,,220203,001,2023-12-01_13h12.50.376,REPSWITCH1_version2_list3,2022.2.4,143.91968112168752,
REPSWITCH1/PICTURE_552.png,manzana,type,gold,filler,1,F,3,2,3,2,Stim6_Set2,0,None,52,51,52,0,51,51,51,,,,,,,,,,,,,,,,,,,,,,,280.2397533999756,281.2954415001441,281.2954415001441,281.2954415001441,281.2954415001441,281.2954415001441,281.2954415001441,281.2954415001441,281.2954415001441,284.3166410000995,284.3166410000995,284.3166410000995,284.3166410000995,284.3166410000995,284.3166410000995,"['m', 'a', 'm', 'z', 'a', 'backspace', 'backspace', 'backspace', 'm']",0,"[1.0708300999831408, 1.495252599939704, 1.6943999999202788, 1.850940499920398, 1.9356554998084903, 2.417403799947351, 2.552398899802938, 2.7008167000021785, 2.9071299999486655]",mam,C:\2023\REPSWITCH21092023\REPSWITCH_excgange\REPSWITCH_excgange\data/220203_REPSWITCH1_version2_list3_2023-12-01_13h12.50.376_micRespv2l3_recorded\recording_micRespv2l3_2023-12-01_13h17.20.894.wav,284.3166410000995,284.81673109997064,None,,,,,,220203,001,2023-12-01_13h12.50.376,REPSWITCH1_version2_list3,2022.2.4,143.91968112168752,
REPSWITCH1/PICTURE_464.png,goma,type,gold,nontarget,1,NT,3,2,3,2,Stim6_Set3,1,repeat,53,52,53,0,52,52,52,,,,,,,,,,,,,,,,,,,,,,,284.81673109997064,285.8932896000333,285.8932896000333,285.8932896000333,285.8932896000333,285.8932896000333,285.8932896000333,285.8932896000333,285.8932896000333,288.91450790013187,288.91450790013187,288.91450790013187,288.91450790013187,288.91450790013187,288.91450790013187,"['g', 'p', 'o', 'm', 'backspace', 'backspace', 'o', 'm', 'a']",0,"[1.4680695999413729, 1.6000324999913573, 1.6374987999442965, 1.773849100107327, 2.1091114999726415, 2.254919500090182, 2.485498500056565, 2.5891529999207705, 2.6768602000083774]",gpoma,C:\2023\REPSWITCH21092023\REPSWITCH_excgange\REPSWITCH_excgange\data/220203_REPSWITCH1_version2_list3_2023-12-01_13h12.50.376_micRespv2l3_recorded\recording_micRespv2l3_2023-12-01_13h17.25.491.wav,288.91450790013187,289.41457769996487,None,,,,,,220203,001,2023-12-01_13h12.50.376,REPSWITCH1_version2_list3,2022.2.4,143.91968112168752,
REPSWITCH1/PICTURE_464.png,goma,speak,darkblue,switch,2,T,3,2,3,2,Stim6_Set3,0,None,54,53,54,0,53,53,53,,,,,,,,,,,,,,,,,,,,,,,289.41457769996487,290.5814056000672,290.5814056000672,290.5814056000672,290.5814056000672,290.5814056000672,290.5814056000672,290.5814056000672,290.5814056000672,293.60955010005273,293.60955010005273,293.60955010005273,293.60955010005273,293.60955010005273,293.60955010005273,None,0,,,C:\2023\REPSWITCH21092023\REPSWITCH_excgange\REPSWITCH_excgange\data/220203_REPSWITCH1_version2_list3_2023-12-01_13h12.50.376_micRespv2l3_recorded\recording_micRespv2l3_2023-12-01_13h17.30.180.wav,293.60955010005273,,None,,,,,,220203,001,2023-12-01_13h12.50.376,REPSWITCH1_version2_list3,2022.2.4,143.91968112168752,
REPSWITCH1/PICTURE_30.png,granja,speak,darkblue,filler,2,F,3,2,3,2,Stim5_Set2,0,None,55,54,55,0,54,54,54,,,,,,,,,,,,,,,,,,,,,,,294.10963049996644,295.3042131999973,295.3042131999973,295.3042131999973,295.3042131999973,295.3042131999973,295.3042131999973,295.3042131999973,295.3042131999973,298.3324347001035,298.3324347001035,298.3324347001035,298.3324347001035,298.3324347001035,298.3324347001035,None,0,,,C:\2023\REPSWITCH21092023\REPSWITCH_excgange\REPSWITCH_excgange\data/220203_REPSWITCH1_version2_list3_2023-12-01_13h12.50.376_micRespv2l3_recorded\recording_micRespv2l3_2023-12-01_13h17.34.903.wav,298.3324347001035,,None,,,,,,220203,001,2023-12-01_13h12.50.376,REPSWITCH1_version2_list3,2022.2.4,143.91968112168752,
REPSWITCH1/PICTURE_235.png,aguja,speak,darkblue,nontarget,2,NT,3,2,3,2,Stim4_Set3,1,repeat,56,55,56,0,55,55,55,,,,,,,,,,,,,,,,,,,,,,,298.8325493000448,299.8812097001355,299.8812097001355,299.8812097001355,299.8812097001355,299.8812097001355,299.8812097001355,299.8812097001355,299.8812097001355,302.9025296000764,302.9025296000764,302.9025296000764,302.9025296000764,302.9025296000764,302.9025296000764,None,0,,,C:\2023\REPSWITCH21092023\REPSWITCH_excgange\REPSWITCH_excgange\data/220203_REPSWITCH1_version2_list3_2023-12-01_13h12.50.376_micRespv2l3_recorded\recording_micRespv2l3_2023-12-01_13h17.39.479.wav,302.9025296000764,303.4025221001357,None,,,,,,220203,001,2023-12-01_13h12.50.376,REPSWITCH1_version2_list3,2022.2.4,143.91968112168752,
REPSWITCH1/PICTURE_235.png,aguja,type,gold,switch,1,T,3,2,3,2,Stim4_Set3,0,None,57,56,57,0,56,56,56,,,,,,,,,,,,,,,,,,,,,,,303.4025221001357,304.5693435999565,304.5693435999565,304.5693435999565,304.5693435999565,304.5693435999565,304.5693435999565,304.5693435999565,304.5693435999565,307.5905728000216,307.5905728000216,307.5905728000216,307.5905728000216,307.5905728000216,307.5905728000216,"['a', 'g', 'u', 'j', 'a']",0,"[0.861116599990055, 1.139160400023684, 1.3106060998979956, 1.498020499944687, 1.6007409999147058]",aguja,C:\2023\REPSWITCH21092023\REPSWITCH_excgange\REPSWITCH_excgange\data/220203_REPSWITCH1_version2_list3_2023-12-01_13h12.50.376_micRespv2l3_recorded\recording_micRespv2l3_2023-12-01_13h17.44.168.wav,307.5905728000216,308.0906663001515,None,,,,,,220203,001,2023-12-01_13h12.50.376,REPSWITCH1_version2_list3,2022.2.4,143.91968112168752,
REPSWITCH1/PICTURE_391.png,cadena,type,gold,filler,1,F,3,2,3,2,Extra2,0,None,58,57,58,0,57,57,57,,,,,,,,,,,,,,,,,,,,,,,308.0906663001515,309.30608320003375,309.30608320003375,309.30608320003375,309.30608320003375,309.30608320003375,309.30608320003375,309.30608320003375,309.30608320003375,312.3272741001565,312.3272741001565,312.3272741001565,312.3272741001565,312.3272741001565,312.3272741001565,"['c', 'a', 'd', 'e', 'n', 'a']",0,"[0.9158128998242319, 0.9726253999397159, 1.1670037999283522, 1.2427438998129219, 1.304538699798286, 1.4065166998188943]",cadena,C:\2023\REPSWITCH21092023\REPSWITCH_excgange\REPSWITCH_excgange\data/220203_REPSWITCH1_version2_list3_2023-12-01_13h12.50.376_micRespv2l3_recorded\recording_micRespv2l3_2023-12-01_13h17.48.904.wav,312.3272741001565,312.8274410001468,None,,,,,,220203,001,2023-12-01_13h12.50.376,REPSWITCH1_version2_list3,2022.2.4,143.91968112168752,
REPSWITCH1/PICTURE_320.png,iglesia,type,gold,nontarget,1,NT,3,2,3,2,Stim8_Set3,0,None,59,58,59,0,58,58,58,,,,,,,,,,,,,,,,,,,,,,,312.8274410001468,313.84831120003946,313.84831120003946,313.84831120003946,313.84831120003946,313.84831120003946,313.84831120003946,313.84831120003946,313.84831120003946,316.8695298000239,316.8695298000239,316.8695298000239,316.8695298000239,316.8695298000239,316.8695298000239,"['i', 'g', 'l', 'e', 's', 'i', 'a']",0,"[0.9126492999494076, 1.3938078000210226, 1.4610077000688761, 1.5427550999447703, 1.7084218000527471, 1.7771920999512076, 1.9017406001221389]",iglesia,C:\2023\REPSWITCH21092023\REPSWITCH_excgange\REPSWITCH_excgange\data/220203_REPSWITCH1_version2_list3_2023-12-01_13h12.50.376_micRespv2l3_recorded\recording_micRespv2l3_2023-12-01_13h17.53.446.wav,316.8695298000239,317.3696302000899,None,,,,,,220203,001,2023-12-01_13h12.50.376,REPSWITCH1_version2_list3,2022.2.4,143.91968112168752,
REPSWITCH1/PICTURE_320.png,iglesia,speak,darkblue,switch,2,T,3,2,3,2,Stim8_Set3,0,None,60,59,60,0,59,59,59,,,,,,,,,,,,,,,,,,,,,,,317.3696302000899,318.4878118999768,318.4878118999768,318.4878118999768,318.4878118999768,318.4878118999768,318.4878118999768,318.4878118999768,318.4878118999768,321.51599830016494,321.51599830016494,321.51599830016494,321.51599830016494,321.51599830016494,321.51599830016494,None,0,,,C:\2023\REPSWITCH21092023\REPSWITCH_excgange\REPSWITCH_excgange\data/220203_REPSWITCH1_version2_list3_2023-12-01_13h12.50.376_micRespv2l3_recorded\recording_micRespv2l3_2023-12-01_13h17.58.087.wav,321.51599830016494,,None,,,,,,220203,001,2023-12-01_13h12.50.376,REPSWITCH1_version2_list3,2022.2.4,143.91968112168752,
REPSWITCH1/PICTURE_175.png,pintor,type,gold,filler,1,F,3,2,3,2,Stim1_Set2,0,None,61,60,61,0,60,60,60,,,,,,,,,,,,,,,,,,,,,,,322.01605910016224,323.1967979001347,323.1967979001347,323.1967979001347,323.1967979001347,323.1967979001347,323.1967979001347,323.1967979001347,323.1967979001347,326.21800470002927,326.21800470002927,326.21800470002927,326.21800470002927,326.21800470002927,326.21800470002927,"['p', 'i', 'n', 't', 'o', 'r']",0,"[1.2605008999817073, 1.3511845998000354, 1.5445552999153733, 1.6375576998107135, 1.7551688000094146, 1.8598263999447227]",pintor,C:\2023\REPSWITCH21092023\REPSWITCH_excgange\REPSWITCH_excgange\data/220203_REPSWITCH1_version2_list3_2023-12-01_13h12.50.376_micRespv2l3_recorded\recording_micRespv2l3_2023-12-01_13h18.02.795.wav,326.21800470002927,326.7180542999413,None,,,,,,220203,001,2023-12-01_13h12.50.376,REPSWITCH1_version2_list3,2022.2.4,143.91968112168752,
REPSWITCH1/PICTURE_271.png,conejo,speak,darkblue,nontarget,2,NT,3,2,3,2,Stim7_Set3,1,switch,62,61,62,0,61,61,61,,,,,,,,,,,,,,,,,,,,,,,326.7180542999413,327.75298560014926,327.75298560014926,327.75298560014926,327.75298560014926,327.75298560014926,327.75298560014926,327.75298560014926,327.75298560014926,330.7810909000691,330.7810909000691,330.7810909000691,330.7810909000691,330.7810909000691,330.7810909000691,None,0,,,C:\2023\REPSWITCH21092023\REPSWITCH_excgange\REPSWITCH_excgange\data/220203_REPSWITCH1_version2_list3_2023-12-01_13h12.50.376_micRespv2l3_recorded\recording_micRespv2l3_2023-12-01_13h18.07.351.wav,330.7810909000691,,None,,,,,,220203,001,2023-12-01_13h12.50.376,REPSWITCH1_version2_list3,2022.2.4,143.91968112168752,
REPSWITCH1/PICTURE_271.png,conejo,speak,darkblue,repeat,2,T,3,2,3,2,Stim7_Set3,0,None,63,62,63,0,62,62,62,,,,,,,,,,,,,,,,,,,,,,,331.28115470008925,332.3577733000275,332.3577733000275,332.3577733000275,332.3577733000275,332.3577733000275,332.3577733000275,332.3577733000275,332.3577733000275,335.3789179001469,335.3789179001469,335.3789179001469,335.3789179001469,335.3789179001469,335.3789179001469,None,0,,,C:\2023\REPSWITCH21092023\REPSWITCH_excgange\REPSWITCH_excgange\data/220203_REPSWITCH1_version2_list3_2023-12-01_13h12.50.376_micRespv2l3_recorded\recording_micRespv2l3_2023-12-01_13h18.11.955.wav,335.3789179001469,335.8790738999378,None,,,,,,220203,001,2023-12-01_13h12.50.376,REPSWITCH1_version2_list3,2022.2.4,143.91968112168752,
REPSWITCH1/PICTURE_446.png,cerdo,speak,darkblue,filler,2,F,3,2,3,2,Stim7_Set2,0,None,64,63,64,0,63,63,63,,,,,,,,,,,,,,,,,,,,,,,335.8790738999378,337.05282939993776,337.05282939993776,337.05282939993776,337.05282939993776,337.05282939993776,337.05282939993776,337.05282939993776,337.05282939993776,340.07396920002066,340.07396920002066,340.07396920002066,340.07396920002066,340.07396920002066,340.07396920002066,None,0,,,C:\2023\REPSWITCH21092023\REPSWITCH_excgange\REPSWITCH_excgange\data/220203_REPSWITCH1_version2_list3_2023-12-01_13h12.50.376_micRespv2l3_recorded\recording_micRespv2l3_2023-12-01_13h18.16.650.wav,340.07396920002066,340.5740559999831,None,,,,,,220203,001,2023-12-01_13h12.50.376,REPSWITCH1_version2_list3,2022.2.4,143.91968112168752,
REPSWITCH1/PICTURE_152.png,caracol,type,gold,filler,1,F,3,2,3,2,Stim2_Set2,0,None,65,64,65,0,64,64,64,,,,,,,,,,,,,,,,,,,,,,,340.5740559999831,341.67838630010374,341.67838630010374,341.67838630010374,341.67838630010374,341.67838630010374,341.67838630010374,341.67838630010374,341.67838630010374,344.7066238000989,344.7066238000989,344.7066238000989,344.7066238000989,344.7066238000989,344.7066238000989,"['c', 'a', 'r', 'a', 'c', 'o', 'l']",0,"[0.8547667001839727, 0.9683829999994487, 1.158708200091496, 1.2637229000683874, 1.4982549999840558, 1.5960028001572937, 1.7684617000631988]",caracol,C:\2023\REPSWITCH21092023\REPSWITCH_excgange\REPSWITCH_excgange\data/220203_REPSWITCH1_version2_list3_2023-12-01_13h12.50.376_micRespv2l3_recorded\recording_micRespv2l3_2023-12-01_13h18.21.278.wav,344.7066238000989,,None,,,,,,220203,001,2023-12-01_13h12.50.376,REPSWITCH1_version2_list3,2022.2.4,143.91968112168752,
REPSWITCH1/PICTURE_576.png,guante,speak,darkblue,nontarget,2,NT,3,2,3,2,Stim1_Set3,1,switch,66,65,66,0,65,65,65,,,,,,,,,,,,,,,,,,,,,,,345.20661889994517,346.3040404000785,346.3040404000785,346.3040404000785,346.3040404000785,346.3040404000785,346.3040404000785,346.3040404000785,346.3040404000785,349.3251782001462,349.3251782001462,349.3251782001462,349.3251782001462,349.3251782001462,349.3251782001462,None,0,,,C:\2023\REPSWITCH21092023\REPSWITCH_excgange\REPSWITCH_excgange\data/220203_REPSWITCH1_version2_list3_2023-12-01_13h12.50.376_micRespv2l3_recorded\recording_micRespv2l3_2023-12-01_13h18.25.902.wav,349.3251782001462,349.8252514000051,None,,,,,,220203,001,2023-12-01_13h12.50.376,REPSWITCH1_version2_list3,2022.2.4,143.91968112168752,
REPSWITCH1/PICTURE_576.png,guante,speak,darkblue,repeat,2,T,3,2,3,2,Stim1_Set3,0,None,67,66,67,0,66,66,66,,,,,,,,,,,,,,,,,,,,,,,349.8252514000051,350.8879138000775,350.8879138000775,350.8879138000775,350.8879138000775,350.8879138000775,350.8879138000775,350.8879138000775,350.8879138000775,353.9091152001638,353.9091152001638,353.9091152001638,353.9091152001638,353.9091152001638,353.9091152001638,None,0,,,C:\2023\REPSWITCH21092023\REPSWITCH_excgange\REPSWITCH_excgange\data/220203_REPSWITCH1_version2_list3_2023-12-01_13h12.50.376_micRespv2l3_recorded\recording_micRespv2l3_2023-12-01_13h18.30.487.wav,353.9091152001638,354.4091889001429,None,,,,,,220203,001,2023-12-01_13h12.50.376,REPSWITCH1_version2_list3,2022.2.4,143.91968112168752,
REPSWITCH1/PICTURE_242.png,cartero,speak,darkblue,nontarget,2,NT,3,2,3,2,Stim3_Set3,0,None,68,67,68,0,67,67,67,,,,,,,,,,,,,,,,,,,,,,,354.4091889001429,355.4649742001202,355.4649742001202,355.4649742001202,355.4649742001202,355.4649742001202,355.4649742001202,355.4649742001202,355.4649742001202,358.4930573001038,358.4930573001038,358.4930573001038,358.4930573001038,358.4930573001038,358.4930573001038,None,0,,,C:\2023\REPSWITCH21092023\REPSWITCH_excgange\REPSWITCH_excgange\data/220203_REPSWITCH1_version2_list3_2023-12-01_13h12.50.376_micRespv2l3_recorded\recording_micRespv2l3_2023-12-01_13h18.35.063.wav,358.4930573001038,,None,,,,,,220203,001,2023-12-01_13h12.50.376,REPSWITCH1_version2_list3,2022.2.4,143.91968112168752,
REPSWITCH1/PICTURE_242.png,cartero,type,gold,switch,1,T,3,2,3,2,Stim3_Set3,0,None,69,68,69,0,68,68,68,,,,,,,,,,,,,,,,,,,,,,,358.9931290000677,360.1252478000242,360.1252478000242,360.1252478000242,360.1252478000242,360.1252478000242,360.1252478000242,360.1252478000242,360.1252478000242,363.14644160005264,363.14644160005264,363.14644160005264,363.14644160005264,363.14644160005264,363.14644160005264,"['c', 'a', 'r', 't', 'e', 'r', 'o']",0,"[0.8636900000274181, 0.9315222001168877, 1.1522344001568854, 1.4025282999500632, 1.5151478999760002, 1.6546819999348372, 1.7516668001189828]",cartero,C:\2023\REPSWITCH21092023\REPSWITCH_excgange\REPSWITCH_excgange\data/220203_REPSWITCH1_version2_list3_2023-12-01_13h12.50.376_micRespv2l3_recorded\recording_micRespv2l3_2023-12-01_13h18.39.723.wav,363.14644160005264,363.64653809997253,None,,,,,,220203,001,2023-12-01_13h12.50.376,REPSWITCH1_version2_list3,2022.2.4,143.91968112168752,
REPSWITCH1/PICTURE_517.png,cuerda,speak,darkblue,filler,2,F,3,2,3,2,Stim4_Set2,0,None,70,69,70,0,69,69,69,,,,,,,,,,,,,,,,,,,,,,,363.64653809997253,364.8064673000481,364.8064673000481,364.8064673000481,364.8064673000481,364.8064673000481,364.8064673000481,364.8064673000481,364.8064673000481,367.834571500076,367.834571500076,367.834571500076,367.834571500076,367.834571500076,367.834571500076,None,0,,,C:\2023\REPSWITCH21092023\REPSWITCH_excgange\REPSWITCH_excgange\data/220203_REPSWITCH1_version2_list3_2023-12-01_13h12.50.376_micRespv2l3_recorded\recording_micRespv2l3_2023-12-01_13h18.44.404.wav,367.834571500076,,None,,,,,,220203,001,2023-12-01_13h12.50.376,REPSWITCH1_version2_list3,2022.2.4,143.91968112168752,
REPSWITCH1/PICTURE_646.png,tronco,type,gold,filler,1,F,3,2,3,2,Extra4,0,None,71,70,71,0,70,70,70,,,,,,,,,,,,,,,,,,,,,,,368.33472939999774,369.3556031000335,369.3556031000335,369.3556031000335,369.3556031000335,369.3556031000335,369.3556031000335,369.3556031000335,369.3556031000335,372.3838031999767,372.3838031999767,372.3838031999767,372.3838031999767,372.3838031999767,372.3838031999767,"['t', 'r', 'o', 'n', 'c', 'o']",0,"[1.1023001000285149, 1.128212499897927, 1.2647573999129236, 1.396669500041753, 1.4773947999347001, 1.5928992999251932]",tronco,C:\2023\REPSWITCH21092023\REPSWITCH_excgange\REPSWITCH_excgange\data/220203_REPSWITCH1_version2_list3_2023-12-01_13h12.50.376_micRespv2l3_recorded\recording_micRespv2l3_2023-12-01_13h18.48.954.wav,372.3838031999767,,None,,,,,,220203,001,2023-12-01_13h12.50.376,REPSWITCH1_version2_list3,2022.2.4,143.91968112168752,
REPSWITCH1/PICTURE_35.png,oreja,type,gold,nontarget,1,NT,3,2,3,2,Stim5_Set3,1,repeat,72,71,72,0,71,71,71,,,,,,,,,,,,,,,,,,,,,,,372.8838623999618,374.0090632000938,374.0090632000938,374.0090632000938,374.0090632000938,374.0090632000938,374.0090632000938,374.0090632000938,374.0090632000938,377.0371662999969,377.0371662999969,377.0371662999969,377.0371662999969,377.0371662999969,377.0371662999969,"['o', 'e', 'r', 'backspace', 'backspace', 'r', 'e', 'j', 'a']",0,"[0.8954488001763821, 1.129957500146702, 1.189788600197062, 1.893772300099954, 2.0442797001451254, 2.134016799973324, 2.177808100124821, 2.250000400003046, 2.363548699999228]",oreja,C:\2023\REPSWITCH21092023\REPSWITCH_excgange\REPSWITCH_excgange\data/220203_REPSWITCH1_version2_list3_2023-12-01_13h12.50.376_micRespv2l3_recorded\recording_micRespv2l3_2023-12-01_13h18.53.608.wav,377.0371662999969,377.53722850000486,None,,,,,,220203,001,2023-12-01_13h12.50.376,REPSWITCH1_version2_list3,2022.2.4,143.91968112168752,
REPSWITCH1/PICTURE_35.png,oreja,type,gold,repeat,1,T,3,2,3,2,Stim5_Set3,0,None,73,72,73,0,72,72,72,,,,,,,,,,,,,,,,,,,,,,,377.53722850000486,378.60685850004666,378.60685850004666,378.60685850004666,378.60685850004666,378.60685850004666,378.60685850004666,378.60685850004666,378.60685850004666,381.6350829999428,381.6350829999428,381.6350829999428,381.6350829999428,381.6350829999428,381.6350829999428,"['o', 'r', 'e', 'j', 'a']",0,"[1.034233900019899, 1.183741700137034, 1.2375501999631524, 1.3890426000580192, 1.4607969000935555]",oreja,C:\2023\REPSWITCH21092023\REPSWITCH_excgange\REPSWITCH_excgange\data/220203_REPSWITCH1_version2_list3_2023-12-01_13h12.50.376_micRespv2l3_recorded\recording_micRespv2l3_2023-12-01_13h18.58.205.wav,381.6350829999428,,None,,,,,,220203,001,2023-12-01_13h12.50.376,REPSWITCH1_version2_list3,2022.2.4,143.91968112168752,
REPSWITCH1/PICTURE_199.png,falda,speak,darkblue,filler,2,F,3,2,3,2,Stim8_Set2,0,None,74,73,74,0,73,73,73,,,,,,,,,,,,,,,,,,,,,,,382.1350410000887,383.36443870002404,383.36443870002404,383.36443870002404,383.36443870002404,383.36443870002404,383.36443870002404,383.36443870002404,383.36443870002404,386.38560330006294,386.38560330006294,386.38560330006294,386.38560330006294,386.38560330006294,386.38560330006294,None,0,,,C:\2023\REPSWITCH21092023\REPSWITCH_excgange\REPSWITCH_excgange\data/220203_REPSWITCH1_version2_list3_2023-12-01_13h12.50.376_micRespv2l3_recorded\recording_micRespv2l3_2023-12-01_13h19.02.962.wav,386.38560330006294,386.88568890001625,None,,,,,,220203,001,2023-12-01_13h12.50.376,REPSWITCH1_version2_list3,2022.2.4,143.91968112168752,
REPSWITCH1/PICTURE_610.png,miel,type,gold,nontarget,1,NT,3,2,3,2,Stim2_Set3,1,switch,75,74,75,0,74,74,74,,,,,,,,,,,,,,,,,,,,,,,386.88568890001625,388.1219941000454,388.1219941000454,388.1219941000454,388.1219941000454,388.1219941000454,388.1219941000454,388.1219941000454,388.1219941000454,391.14325490011834,391.14325490011834,391.14325490011834,391.14325490011834,391.14325490011834,391.14325490011834,"['m', 'i', 'e', 'l']",0,"[1.0387631999328732, 1.128460800042376, 1.2380874000955373, 1.3726353999227285]",miel,C:\2023\REPSWITCH21092023\REPSWITCH_excgange\REPSWITCH_excgange\data/220203_REPSWITCH1_version2_list3_2023-12-01_13h12.50.376_micRespv2l3_recorded\recording_micRespv2l3_2023-12-01_13h19.07.720.wav,391.14325490011834,391.64323229994625,None,,,,,,220203,001,2023-12-01_13h12.50.376,REPSWITCH1_version2_list3,2022.2.4,143.91968112168752,
REPSWITCH1/PICTURE_610.png,miel,type,gold,repeat,1,T,3,2,3,2,Stim2_Set3,0,None,76,75,76,0,75,75,75,,,,,,,,,,,,,,,,,,,,,,,391.64323229994625,392.7268096001353,392.7268096001353,392.7268096001353,392.7268096001353,392.7268096001353,392.7268096001353,392.7268096001353,392.7268096001353,395.75498790014535,395.75498790014535,395.75498790014535,395.75498790014535,395.75498790014535,395.75498790014535,"['m', 'i', 'e', 'l']",0,"[0.8677175999619067, 1.0052239999640733, 1.078013899968937, 1.2374827000312507]",miel,C:\2023\REPSWITCH21092023\REPSWITCH_excgange\REPSWITCH_excgange\data/220203_REPSWITCH1_version2_list3_2023-12-01_13h12.50.376_micRespv2l3_recorded\recording_micRespv2l3_2023-12-01_13h19.12.325.wav,395.75498790014535,,None,,,,,,220203,001,2023-12-01_13h12.50.376,REPSWITCH1_version2_list3,2022.2.4,143.91968112168752,
REPSWITCH1/PICTURE_264.png,mano,type,gold,filler,1,F,3,2,3,2,Stim3_Set2,1,repeat,77,76,77,0,76,76,76,,,,,,,,,,,,,,,,,,,,,,,396.2550528999418,397.33149840007536,397.33149840007536,397.33149840007536,397.33149840007536,397.33149840007536,397.33149840007536,397.33149840007536,397.33149840007536,400.3597003000323,400.3597003000323,400.3597003000323,400.3597003000323,400.3597003000323,400.3597003000323,"['m', 'a', 'n', 'o']",0,"[0.7674773000180721, 0.8973063000012189, 1.0525379001628608, 1.1441434000153095]",mano,C:\2023\REPSWITCH21092023\REPSWITCH_excgange\REPSWITCH_excgange\data/220203_REPSWITCH1_version2_list3_2023-12-01_13h12.50.376_micRespv2l3_recorded\recording_micRespv2l3_2023-12-01_13h19.16.930.wav,400.3597003000323,,None,,,,,,220203,001,2023-12-01_13h12.50.376,REPSWITCH1_version2_list3,2022.2.4,143.91968112168752,
REPSWITCH1/PICTURE_464.png,goma,speak,darkblue,filler,2,F,4,2,3,2,Stim6_Set3,0,None,78,77,78,0,77,77,77,,,,,,,,,,,,,,,,,,,,,,,400.85982040013187,401.943233900005,401.943233900005,401.943233900005,401.943233900005,401.943233900005,401.943233900005,401.943233900005,401.943233900005,404.96443199994974,404.96443199994974,404.96443199994974,404.96443199994974,404.96443199994974,404.96443199994974,None,0,,,C:\2023\REPSWITCH21092023\REPSWITCH_excgange\REPSWITCH_excgange\data/220203_REPSWITCH1_version2_list3_2023-12-01_13h12.50.376_micRespv2l3_recorded\recording_micRespv2l3_2023-12-01_13h19.21.541.wav,404.96443199994974,405.4645612000022,None,,,,,,220203,001,2023-12-01_13h12.50.376,REPSWITCH1_version2_list3,2022.2.4,143.91968112168752,
REPSWITCH1/PICTURE_8.png,pierna,type,gold,nontarget,1,NT,4,2,3,2,Stim3_Set4,1,switch,79,78,79,0,78,78,78,,,,,,,,,,,,,,,,,,,,,,,405.4645612000022,406.64527989993803,406.64527989993803,406.64527989993803,406.64527989993803,406.64527989993803,406.64527989993803,406.64527989993803,406.64527989993803,409.66647369996645,409.66647369996645,409.66647369996645,409.66647369996645,409.66647369996645,409.66647369996645,"['p', 'i', 'e', 'r', 'n', 'a']",0,"[1.0353423999622464, 1.096174999838695, 1.2320471999701113, 1.291210699826479, 1.3967942998278886, 1.510759999975562]",pierna,C:\2023\REPSWITCH21092023\REPSWITCH_excgange\REPSWITCH_excgange\data/220203_REPSWITCH1_version2_list3_2023-12-01_13h12.50.376_micRespv2l3_recorded\recording_micRespv2l3_2023-12-01_13h19.26.243.wav,409.66647369996645,410.16653889999725,None,,,,,,220203,001,2023-12-01_13h12.50.376,REPSWITCH1_version2_list3,2022.2.4,143.91968112168752,
REPSWITCH1/PICTURE_8.png,pierna,type,gold,repeat,1,T,4,2,3,2,Stim3_Set4,0,None,80,79,80,0,79,79,79,,,,,,,,,,,,,,,,,,,,,,,410.16653889999725,411.2778191000689,411.2778191000689,411.2778191000689,411.2778191000689,411.2778191000689,411.2778191000689,411.2778191000689,411.2778191000689,414.3060415999498,414.3060415999498,414.3060415999498,414.3060415999498,414.3060415999498,414.3060415999498,"['p', 'r', 'i', 'backspace', 'backspace', 'e', 'r', 'n', 'a']",0,"[0.8834654001984745, 1.0719613002147526, 1.2056506001390517, 1.528738300083205, 1.8852356001734734, 2.1825626001227647, 2.2527525001205504, 2.873989000217989, 2.9719706000760198]",perna,C:\2023\REPSWITCH21092023\REPSWITCH_excgange\REPSWITCH_excgange\data/220203_REPSWITCH1_version2_list3_2023-12-01_13h12.50.376_micRespv2l3_recorded\recording_micRespv2l3_2023-12-01_13h19.30.877.wav,414.3060415999498,414.80607599997893,None,,,,,,220203,001,2023-12-01_13h12.50.376,REPSWITCH1_version2_list3,2022.2.4,143.91968112168752,
REPSWITCH1/PICTURE_728.png,pulpo,type,gold,nontarget,1,NT,4,2,3,2,Stim8_Set4,1,repeat,81,80,81,0,80,80,80,,,,,,,,,,,,,,,,,,,,,,,414.80607599997893,415.90338400006294,415.90338400006294,415.90338400006294,415.90338400006294,415.90338400006294,415.90338400006294,415.90338400006294,415.90338400006294,418.9246641001664,418.9246641001664,418.9246641001664,418.9246641001664,418.9246641001664,418.9246641001664,"['p', 'u', 'l', 'p', 'o']",0,"[1.0917869000695646, 1.2074804999865592, 1.4614315000362694, 1.5571043000090867, 1.7585694000590593]",pulpo,C:\2023\REPSWITCH21092023\REPSWITCH_excgange\REPSWITCH_excgange\data/220203_REPSWITCH1_version2_list3_2023-12-01_13h12.50.376_micRespv2l3_recorded\recording_micRespv2l3_2023-12-01_13h19.35.501.wav,418.9246641001664,419.4246990000829,None,,,,,,220203,001,2023-12-01_13h12.50.376,REPSWITCH1_version2_list3,2022.2.4,143.91968112168752,
REPSWITCH1/PICTURE_728.png,pulpo,speak,darkblue,switch,2,T,4,2,3,2,Stim8_Set4,0,None,82,81,82,0,81,81,81,,,,,,,,,,,,,,,,,,,,,,,419.4246990000829,420.5567942999769,420.5567942999769,420.5567942999769,420.5567942999769,420.5567942999769,420.5567942999769,420.5567942999769,420.5567942999769,423.58503700001165,423.58503700001165,423.58503700001165,423.58503700001165,423.58503700001165,423.58503700001165,None,0,,,C:\2023\REPSWITCH21092023\REPSWITCH_excgange\REPSWITCH_excgange\data/220203_REPSWITCH1_version2_list3_2023-12-01_13h12.50.376_micRespv2l3_recorded\recording_micRespv2l3_2023-12-01_13h19.40.155.wav,423.58503700001165,424.08501809998415,None,,,,,,220203,001,2023-12-01_13h12.50.376,REPSWITCH1_version2_list3,2022.2.4,143.91968112168752,
REPSWITCH1/PICTURE_235.png,aguja,type,gold,filler,1,F,4,2,3,2,Stim4_Set3,0,None,83,82,83,0,82,82,82,,,,,,,,,,,,,,,,,,,,,,,424.08501809998415,425.26573380012996,425.26573380012996,425.26573380012996,425.26573380012996,425.26573380012996,425.26573380012996,425.26573380012996,425.26573380012996,428.287002600031,428.287002600031,428.287002600031,428.287002600031,428.287002600031,428.287002600031,"['a', 'g', 'u', 'j', 'a']",0,"[0.91745620011352, 1.2655971001368016, 1.331371400039643, 1.547650600085035, 1.6323241000063717]",aguja,C:\2023\REPSWITCH21092023\REPSWITCH_excgange\REPSWITCH_excgange\data/220203_REPSWITCH1_version2_list3_2023-12-01_13h12.50.376_micRespv2l3_recorded\recording_micRespv2l3_2023-12-01_13h19.44.863.wav,428.287002600031,428.7870126001071,None,,,,,,220203,001,2023-12-01_13h12.50.376,REPSWITCH1_version2_list3,2022.2.4,143.91968112168752,
REPSWITCH1/PICTURE_498.png,taza,speak,darkblue,nontarget,2,NT,4,2,3,2,Stim4_Set4,1,switch,84,83,84,0,83,83,83,,,,,,,,,,,,,,,,,,,,,,,428.7870126001071,429.8427788000554,429.8427788000554,429.8427788000554,429.8427788000554,429.8427788000554,429.8427788000554,429.8427788000554,429.8427788000554,432.8639527000487,432.8639527000487,432.8639527000487,432.8639527000487,432.8639527000487,432.8639527000487,None,0,,,C:\2023\REPSWITCH21092023\REPSWITCH_excgange\REPSWITCH_excgange\data/220203_REPSWITCH1_version2_list3_2023-12-01_13h12.50.376_micRespv2l3_recorded\recording_micRespv2l3_2023-12-01_13h19.49.441.wav,432.8639527000487,433.36400580010377,None,,,,,,220203,001,2023-12-01_13h12.50.376,REPSWITCH1_version2_list3,2022.2.4,143.91968112168752,
REPSWITCH1/PICTURE_498.png,taza,speak,darkblue,repeat,2,T,4,2,3,2,Stim4_Set4,0,None,85,84,85,0,84,84,84,,,,,,,,,,,,,,,,,,,,,,,433.36400580010377,434.5030551000964,434.5030551000964,434.5030551000964,434.5030551000964,434.5030551000964,434.5030551000964,434.5030551000964,434.5030551000964,437.5242849001661,437.5242849001661,437.5242849001661,437.5242849001661,437.5242849001661,437.5242849001661,None,0,,,C:\2023\REPSWITCH21092023\REPSWITCH_excgange\REPSWITCH_excgange\data/220203_REPSWITCH1_version2_list3_2023-12-01_13h12.50.376_micRespv2l3_recorded\recording_micRespv2l3_2023-12-01_13h19.54.101.wav,437.5242849001661,438.02437060000375,None,,,,,,220203,001,2023-12-01_13h12.50.376,REPSWITCH1_version2_list3,2022.2.4,143.91968112168752,
REPSWITCH1/PICTURE_719.png,baño,speak,darkblue,nontarget,2,NT,4,2,3,2,Stim2_Set4,0,None,86,85,86,0,85,85,85,,,,,,,,,,,,,,,,,,,,,,,438.02437060000375,439.12866499996744,439.12866499996744,439.12866499996744,439.12866499996744,439.12866499996744,439.12866499996744,439.12866499996744,439.12866499996744,442.1498706000857,442.1498706000857,442.1498706000857,442.1498706000857,442.1498706000857,442.1498706000857,None,0,,,C:\2023\REPSWITCH21092023\REPSWITCH_excgange\REPSWITCH_excgange\data/220203_REPSWITCH1_version2_list3_2023-12-01_13h12.50.376_micRespv2l3_recorded\recording_micRespv2l3_2023-12-01_13h19.58.727.wav,442.1498706000857,442.64997090003453,None,,,,,,220203,001,2023-12-01_13h12.50.376,REPSWITCH1_version2_list3,2022.2.4,143.91968112168752,
REPSWITCH1/PICTURE_719.png,baño,type,gold,switch,1,T,4,2,3,2,Stim2_Set4,0,None,87,86,87,0,86,86,86,,,,,,,,,,,,,,,,,,,,,,,442.64997090003453,443.7542918000836,443.7542918000836,443.7542918000836,443.7542918000836,443.7542918000836,443.7542918000836,443.7542918000836,443.7542918000836,446.7755174001213,446.7755174001213,446.7755174001213,446.7755174001213,446.7755174001213,446.7755174001213,"['b', 'a', 'ñ', 'o']",0,"[1.0571047998964787, 1.1707168000284582, 1.4194622999057174, 1.498676500050351]",baño,C:\2023\REPSWITCH21092023\REPSWITCH_excgange\REPSWITCH_excgange\data/220203_REPSWITCH1_version2_list3_2023-12-01_13h12.50.376_micRespv2l3_recorded\recording_micRespv2l3_2023-12-01_13h20.03.352.wav,446.7755174001213,447.2755780001171,None,,,,,,220203,001,2023-12-01_13h12.50.376,REPSWITCH1_version2_list3,2022.2.4,143.91968112168752,
REPSWITCH1/PICTURE_320.png,iglesia,speak,darkblue,filler,2,F,4,2,3,2,Stim8_Set3,0,None,88,87,88,0,87,87,87,,,,,,,,,,,,,,,,,,,,,,,447.2755780001171,448.3798666000366,448.3798666000366,448.3798666000366,448.3798666000366,448.3798666000366,448.3798666000366,448.3798666000366,448.3798666000366,451.40109660010785,451.40109660010785,451.40109660010785,451.40109660010785,451.40109660010785,451.40109660010785,None,0,,,C:\2023\REPSWITCH21092023\REPSWITCH_excgange\REPSWITCH_excgange\data/220203_REPSWITCH1_version2_list3_2023-12-01_13h12.50.376_micRespv2l3_recorded\recording_micRespv2l3_2023-12-01_13h20.07.978.wav,451.40109660010785,451.90122410003096,None,,,,,,220203,001,2023-12-01_13h12.50.376,REPSWITCH1_version2_list3,2022.2.4,143.91968112168752,
REPSWITCH1/PICTURE_48.png,bombero,type,gold,nontarget,1,NT,4,2,3,2,Stim7_Set4,1,switch,89,88,89,0,88,88,88,,,,,,,,,,,,,,,,,,,,,,,451.90122410003096,452.9986119000241,452.9986119000241,452.9986119000241,452.9986119000241,452.9986119000241,452.9986119000241,452.9986119000241,452.9986119000241,456.0198439999949,456.0198439999949,456.0198439999949,456.0198439999949,456.0198439999949,456.0198439999949,"['c', 'o', 'm', 'b', 'e', 'r', 'o']",0,"[1.6812404999509454, 2.1711023999378085, 2.2757439000997692, 2.5567668001167476, 2.790973300114274, 2.8758696999866515, 2.9556046000216156]",combero,C:\2023\REPSWITCH21092023\REPSWITCH_excgange\REPSWITCH_excgange\data/220203_REPSWITCH1_version2_list3_2023-12-01_13h12.50.376_micRespv2l3_recorded\recording_micRespv2l3_2023-12-01_13h20.12.596.wav,456.0198439999949,456.5198588001076,None,,,,,,220203,001,2023-12-01_13h12.50.376,REPSWITCH1_version2_list3,2022.2.4,143.91968112168752,
REPSWITCH1/PICTURE_48.png,bombero,speak,darkblue,switch,2,T,4,2,3,2,Stim7_Set4,0,None,90,89,90,0,89,89,89,,,,,,,,,,,,,,,,,,,,,,,456.5198588001076,457.6450577999931,457.6450577999931,457.6450577999931,457.6450577999931,457.6450577999931,457.6450577999931,457.6450577999931,457.6450577999931,460.67321200016886,460.67321200016886,460.67321200016886,460.67321200016886,460.67321200016886,460.67321200016886,None,0,,,C:\2023\REPSWITCH21092023\REPSWITCH_excgange\REPSWITCH_excgange\data/220203_REPSWITCH1_version2_list3_2023-12-01_13h12.50.376_micRespv2l3_recorded\recording_micRespv2l3_2023-12-01_13h20.17.244.wav,460.67321200016886,,None,,,,,,220203,001,2023-12-01_13h12.50.376,REPSWITCH1_version2_list3,2022.2.4,143.91968112168752,
REPSWITCH1/PICTURE_576.png,guante,type,gold,filler,1,F,4,2,3,2,Stim1_Set3,0,None,91,90,91,0,90,90,90,,,,,,,,,,,,,,,,,,,,,,,461.1731990999542,462.37479729996994,462.37479729996994,462.37479729996994,462.37479729996994,462.37479729996994,462.37479729996994,462.37479729996994,462.37479729996994,465.39606459997594,465.39606459997594,465.39606459997594,465.39606459997594,465.39606459997594,465.39606459997594,"['g', 'u', 'a', 'n', 't', 'e']",0,"[1.3321586002130061, 1.4391409000381827, 1.5248543000780046, 1.6135590001940727, 1.7530889001209289, 1.8012514000292867]",guante,C:\2023\REPSWITCH21092023\REPSWITCH_excgange\REPSWITCH_excgange\data/220203_REPSWITCH1_version2_list3_2023-12-01_13h12.50.376_micRespv2l3_recorded\recording_micRespv2l3_2023-12-01_13h20.21.972.wav,465.39606459997594,465.8960663001053,None,,,,,,220203,001,2023-12-01_13h12.50.376,REPSWITCH1_version2_list3,2022.2.4,143.91968112168752,
REPSWITCH1/PICTURE_271.png,conejo,speak,darkblue,filler,2,F,4,2,3,2,Stim7_Set3,0,None,92,91,92,0,91,91,91,,,,,,,,,,,,,,,,,,,,,,,465.8960663001053,466.9795783001464,466.9795783001464,466.9795783001464,466.9795783001464,466.9795783001464,466.9795783001464,466.9795783001464,466.9795783001464,470.0077611000743,470.0077611000743,470.0077611000743,470.0077611000743,470.0077611000743,470.0077611000743,None,0,,,C:\2023\REPSWITCH21092023\REPSWITCH_excgange\REPSWITCH_excgange\data/220203_REPSWITCH1_version2_list3_2023-12-01_13h12.50.376_micRespv2l3_recorded\recording_micRespv2l3_2023-12-01_13h20.26.578.wav,470.0077611000743,,None,,,,,,220203,001,2023-12-01_13h12.50.376,REPSWITCH1_version2_list3,2022.2.4,143.91968112168752,
REPSWITCH1/PICTURE_319.png,vaca,speak,darkblue,nontarget,2,NT,4,2,3,2,Stim1_Set4,1,repeat,93,92,93,0,92,92,92,,,,,,,,,,,,,,,,,,,,,,,470.5077990000136,471.5635104000103,471.5635104000103,471.5635104000103,471.5635104000103,471.5635104000103,471.5635104000103,471.5635104000103,471.5635104000103,474.5847269000951,474.5847269000951,474.5847269000951,474.5847269000951,474.5847269000951,474.5847269000951,None,0,,,C:\2023\REPSWITCH21092023\REPSWITCH_excgange\REPSWITCH_excgange\data/220203_REPSWITCH1_version2_list3_2023-12-01_13h12.50.376_micRespv2l3_recorded\recording_micRespv2l3_2023-12-01_13h20.31.161.wav,474.5847269000951,475.0847903001122,None,,,,,,220203,001,2023-12-01_13h12.50.376,REPSWITCH1_version2_list3,2022.2.4,143.91968112168752,
REPSWITCH1/PICTURE_319.png,vaca,speak,darkblue,repeat,2,T,4,2,3,2,Stim1_Set4,0,None,94,93,94,0,93,93,93,,,,,,,,,,,,,,,,,,,,,,,475.0847903001122,476.20297220000066,476.20297220000066,476.20297220000066,476.20297220000066,476.20297220000066,476.20297220000066,476.20297220000066,476.20297220000066,479.2311660000123,479.2311660000123,479.2311660000123,479.2311660000123,479.2311660000123,479.2311660000123,None,0,,,C:\2023\REPSWITCH21092023\REPSWITCH_excgange\REPSWITCH_excgange\data/220203_REPSWITCH1_version2_list3_2023-12-01_13h12.50.376_micRespv2l3_recorded\recording_micRespv2l3_2023-12-01_13h20.35.800.wav,479.2311660000123,,None,,,,,,220203,001,2023-12-01_13h12.50.376,REPSWITCH1_version2_list3,2022.2.4,143.91968112168752,
REPSWITCH1/PICTURE_242.png,cartero,type,gold,filler,1,F,4,2,3,2,Stim3_Set3,0,None,95,94,95,0,94,94,94,,,,,,,,,,,,,,,,,,,,,,,479.73127089999616,480.8286187001504,480.8286187001504,480.8286187001504,480.8286187001504,480.8286187001504,480.8286187001504,480.8286187001504,480.8286187001504,483.8498050000053,483.8498050000053,483.8498050000053,483.8498050000053,483.8498050000053,483.8498050000053,"['c', 'a', 'r', 't', 'e', 'r', 'o']",0,"[1.0546726998873055, 1.2320729999337345, 1.4124694999773055, 1.630372399929911, 1.72804189985618, 1.8805471998639405, 2.119998399866745]",cartero,C:\2023\REPSWITCH21092023\REPSWITCH_excgange\REPSWITCH_excgange\data/220203_REPSWITCH1_version2_list3_2023-12-01_13h12.50.376_micRespv2l3_recorded\recording_micRespv2l3_2023-12-01_13h20.40.426.wav,483.8498050000053,484.349894199986,None,,,,,,220203,001,2023-12-01_13h12.50.376,REPSWITCH1_version2_list3,2022.2.4,143.91968112168752,
REPSWITCH1/PICTURE_35.png,oreja,speak,darkblue,filler,2,F,4,2,3,2,Stim5_Set3,1,switch,96,95,96,0,95,95,95,,,,,,,,,,,,,,,,,,,,,,,484.349894199986,485.4056162999477,485.4056162999477,485.4056162999477,485.4056162999477,485.4056162999477,485.4056162999477,485.4056162999477,485.4056162999477,488.4267833000049,488.4267833000049,488.4267833000049,488.4267833000049,488.4267833000049,488.4267833000049,None,0,,,C:\2023\REPSWITCH21092023\REPSWITCH_excgange\REPSWITCH_excgange\data/220203_REPSWITCH1_version2_list3_2023-12-01_13h12.50.376_micRespv2l3_recorded\recording_micRespv2l3_2023-12-01_13h20.45.004.wav,488.4267833000049,488.92689370014705,None,,,,,,220203,001,2023-12-01_13h12.50.376,REPSWITCH1_version2_list3,2022.2.4,143.91968112168752,
REPSWITCH1/PICTURE_338.png,regalo,speak,darkblue,nontarget,2,NT,4,2,3,2,Stim6_Set4,1,repeat,97,96,97,0,96,96,96,,,,,,,,,,,,,,,,,,,,,,,488.92689370014705,489.9548430000432,489.9548430000432,489.9548430000432,489.9548430000432,489.9548430000432,489.9548430000432,489.9548430000432,489.9548430000432,492.9760036000516,492.9760036000516,492.9760036000516,492.9760036000516,492.9760036000516,492.9760036000516,None,0,,,C:\2023\REPSWITCH21092023\REPSWITCH_excgange\REPSWITCH_excgange\data/220203_REPSWITCH1_version2_list3_2023-12-01_13h12.50.376_micRespv2l3_recorded\recording_micRespv2l3_2023-12-01_13h20.49.553.wav,492.9760036000516,493.47614040016197,None,,,,,,220203,001,2023-12-01_13h12.50.376,REPSWITCH1_version2_list3,2022.2.4,143.91968112168752,
REPSWITCH1/PICTURE_338.png,regalo,type,gold,switch,1,T,4,2,3,2,Stim6_Set4,0,None,98,97,98,0,97,97,97,,,,,,,,,,,,,,,,,,,,,,,493.47614040016197,494.5456831001211,494.5456831001211,494.5456831001211,494.5456831001211,494.5456831001211,494.5456831001211,494.5456831001211,494.5456831001211,497.56687440001406,497.56687440001406,497.56687440001406,497.56687440001406,497.56687440001406,497.56687440001406,"['r', 'e', 'g', 'a', 'l', 'o']",0,"[0.9547802999150008, 1.0354746000375599, 1.423317200038582, 1.5376951999496669, 1.6715460999403149, 1.8359457000624388]",regalo,C:\2023\REPSWITCH21092023\REPSWITCH_excgange\REPSWITCH_excgange\data/220203_REPSWITCH1_version2_list3_2023-12-01_13h12.50.376_micRespv2l3_recorded\recording_micRespv2l3_2023-12-01_13h20.54.144.wav,497.56687440001406,498.0669619999826,None,,,,,,220203,001,2023-12-01_13h12.50.376,REPSWITCH1_version2_list3,2022.2.4,143.91968112168752,
REPSWITCH1/PICTURE_687.png,camisa,type,gold,nontarget,1,NT,4,2,3,2,Stim5_Set4,0,None,99,98,99,0,98,98,98,,,,,,,,,,,,,,,,,,,,,,,498.0669619999826,499.17820980004035,499.17820980004035,499.17820980004035,499.17820980004035,499.17820980004035,499.17820980004035,499.17820980004035,499.17820980004035,502.1994644999504,502.1994644999504,502.1994644999504,502.1994644999504,502.1994644999504,502.1994644999504,"['c', 'a', 'm', 'i', 's', 'a']",0,"[0.9041636998299509, 0.9774666999001056, 1.0731461998075247, 1.1678253000136465, 1.2525400999002159, 1.3171025000046939]",camisa,C:\2023\REPSWITCH21092023\REPSWITCH_excgange\REPSWITCH_excgange\data/220203_REPSWITCH1_version2_list3_2023-12-01_13h12.50.376_micRespv2l3_recorded\recording_micRespv2l3_2023-12-01_13h20.58.776.wav,502.1994644999504,502.69953020010144,None,,,,,,220203,001,2023-12-01_13h12.50.376,REPSWITCH1_version2_list3,2022.2.4,143.91968112168752,
REPSWITCH1/PICTURE_687.png,camisa,type,gold,repeat,1,T,4,2,3,2,Stim5_Set4,0,None,100,99,100,0,99,99,99,,,,,,,,,,,,,,,,,,,,,,,502.69953020010144,503.83162990002893,503.83162990002893,503.83162990002893,503.83162990002893,503.83162990002893,503.83162990002893,503.83162990002893,503.83162990002893,506.8597971999552,506.8597971999552,506.8597971999552,506.8597971999552,506.8597971999552,506.8597971999552,"['c', 'a', 'm', 'i', 's', 'a']",0,"[0.8617852998431772, 0.955444399965927, 1.0979629999492317, 1.1657449000049382, 1.2635252999607474, 1.33301019994542]",camisa,C:\2023\REPSWITCH21092023\REPSWITCH_excgange\REPSWITCH_excgange\data/220203_REPSWITCH1_version2_list3_2023-12-01_13h12.50.376_micRespv2l3_recorded\recording_micRespv2l3_2023-12-01_13h21.03.430.wav,506.8597971999552,,None,,,,,,220203,001,2023-12-01_13h12.50.376,REPSWITCH1_version2_list3,2022.2.4,143.91968112168752,
REPSWITCH1/PICTURE_340.png,espejo,speak,darkblue,filler,2,F,4,2,3,2,Extra1,0,None,101,100,101,0,100,100,100,,,,,,,,,,,,,,,,,,,,,,,507.35985919996165,508.42942450009286,508.42942450009286,508.42942450009286,508.42942450009286,508.42942450009286,508.42942450009286,508.42942450009286,508.42942450009286,511.45762720005587,511.45762720005587,511.45762720005587,511.45762720005587,511.45762720005587,511.45762720005587,None,0,,,C:\2023\REPSWITCH21092023\REPSWITCH_excgange\REPSWITCH_excgange\data/220203_REPSWITCH1_version2_list3_2023-12-01_13h12.50.376_micRespv2l3_recorded\recording_micRespv2l3_2023-12-01_13h21.08.028.wav,511.45762720005587,511.9576753999572,None,,,,,,220203,001,2023-12-01_13h12.50.376,REPSWITCH1_version2_list3,2022.2.4,143.91968112168752,
REPSWITCH1/PICTURE_610.png,miel,type,gold,filler,1,F,4,2,3,2,Stim2_Set3,0,None,102,101,102,0,101,101,101,,,,,,,,,,,,,,,,,,,,,,,511.9576753999572,513.0689622999635,513.0689622999635,513.0689622999635,513.0689622999635,513.0689622999635,513.0689622999635,513.0689622999635,513.0689622999635,516.0901526000816,516.0901526000816,516.0901526000816,516.0901526000816,516.0901526000816,516.0901526000816,"['m', 'i', 'e', 'l']",0,"[0.994165200041607, 1.0948170002084225, 1.1874982002191246, 1.3230066001415253]",miel,C:\2023\REPSWITCH21092023\REPSWITCH_excgange\REPSWITCH_excgange\data/220203_REPSWITCH1_version2_list3_2023-12-01_13h12.50.376_micRespv2l3_recorded\recording_micRespv2l3_2023-12-01_13h21.12.667.wav,516.0901526000816,516.590238200035,space,516.590238200035,516.590238200035,8.527022500056773,,,220203,001,2023-12-01_13h12.50.376,REPSWITCH1_version2_list3,2022.2.4,143.91968112168752,
REPSWITCH1/PICTURE_8.png,pierna,type,gold,filler,1,F,1,4,3,2,Stim3_Set4,0,None,103,102,1,0,102,102,102,,,,,,,,,,,,,,,,,,,,,,,525.1260625000577,526.1817799999844,526.1817799999844,526.1817799999844,526.1817799999844,526.1817799999844,526.1817799999844,526.1817799999844,526.1817799999844,529.2030116999522,529.2030116999522,529.2030116999522,529.2030116999522,529.2030116999522,529.2030116999522,"['p', 'i', 'e', 'r', 'n', 'a']",0,"[1.1732600999530405, 1.2679391999263316, 1.34065099991858, 1.409462400013581, 1.4941421998664737, 1.6417447000276297]",pierna,C:\2023\REPSWITCH21092023\REPSWITCH_excgange\REPSWITCH_excgange\data/220203_REPSWITCH1_version2_list3_2023-12-01_13h12.50.376_micRespv2l3_recorded\recording_micRespv2l3_2023-12-01_13h21.25.779.wav,529.2030116999522,529.7031144001521,None,,,,,,220203,001,2023-12-01_13h12.50.376,REPSWITCH1_version2_list3,2022.2.4,143.91968112168752,
REPSWITCH1/PICTURE_498.png,taza,speak,darkblue,filler,2,F,1,4,3,2,Stim4_Set4,0,None,104,103,2,0,103,103,103,,,,,,,,,,,,,,,,,,,,,,,529.7031144001521,530.7518744000699,530.7518744000699,530.7518744000699,530.7518744000699,530.7518744000699,530.7518744000699,530.7518744000699,530.7518744000699,533.7730279001407,533.7730279001407,533.7730279001407,533.7730279001407,533.7730279001407,533.7730279001407,None,0,,,C:\2023\REPSWITCH21092023\REPSWITCH_excgange\REPSWITCH_excgange\data/220203_REPSWITCH1_version2_list3_2023-12-01_13h12.50.376_micRespv2l3_recorded\recording_micRespv2l3_2023-12-01_13h21.30.350.wav,533.7730279001407,534.2730923001654,None,,,,,,220203,001,2023-12-01_13h12.50.376,REPSWITCH1_version2_list3,2022.2.4,143.91968112168752,
REPSWITCH1/PICTURE_19.png,pavo,speak,darkblue,nontarget,2,NT,1,4,3,2,Stim5_Set1,1,repeat,105,104,3,0,104,104,104,,,,,,,,,,,,,,,,,,,,,,,534.2730923001654,535.3426854000427,535.3426854000427,535.3426854000427,535.3426854000427,535.3426854000427,535.3426854000427,535.3426854000427,535.3426854000427,538.3639146001078,538.3639146001078,538.3639146001078,538.3639146001078,538.3639146001078,538.3639146001078,None,0,,,C:\2023\REPSWITCH21092023\REPSWITCH_excgange\REPSWITCH_excgange\data/220203_REPSWITCH1_version2_list3_2023-12-01_13h12.50.376_micRespv2l3_recorded\recording_micRespv2l3_2023-12-01_13h21.34.941.wav,538.3639146001078,538.8640465999488,None,,,,,,220203,001,2023-12-01_13h12.50.376,REPSWITCH1_version2_list3,2022.2.4,143.91968112168752,
REPSWITCH1/PICTURE_19.png,pavo,speak,darkblue,repeat,2,T,1,4,3,2,Stim5_Set1,0,None,106,105,4,0,105,105,105,,,,,,,,,,,,,,,,,,,,,,,538.8640465999488,539.9613816000056,539.9613816000056,539.9613816000056,539.9613816000056,539.9613816000056,539.9613816000056,539.9613816000056,539.9613816000056,542.9825605000369,542.9825605000369,542.9825605000369,542.9825605000369,542.9825605000369,542.9825605000369,None,0,,,C:\2023\REPSWITCH21092023\REPSWITCH_excgange\REPSWITCH_excgange\data/220203_REPSWITCH1_version2_list3_2023-12-01_13h12.50.376_micRespv2l3_recorded\recording_micRespv2l3_2023-12-01_13h21.39.560.wav,542.9825605000369,543.4826666000299,None,,,,,,220203,001,2023-12-01_13h12.50.376,REPSWITCH1_version2_list3,2022.2.4,143.91968112168752,
REPSWITCH1/PICTURE_319.png,vaca,type,gold,filler,1,F,1,4,3,2,Stim1_Set4,1,repeat,107,106,5,0,106,106,106,,,,,,,,,,,,,,,,,,,,,,,543.4826666000299,544.5661349000875,544.5661349000875,544.5661349000875,544.5661349000875,544.5661349000875,544.5661349000875,544.5661349000875,544.5661349000875,547.5873601001222,547.5873601001222,547.5873601001222,547.5873601001222,547.5873601001222,547.5873601001222,"['v', 'a', 'c', 'a']",0,"[1.0563286000397056, 1.1761274000164121, 1.3647938000503927, 1.428860800107941]",vaca,C:\2023\REPSWITCH21092023\REPSWITCH_excgange\REPSWITCH_excgange\data/220203_REPSWITCH1_version2_list3_2023-12-01_13h12.50.376_micRespv2l3_recorded\recording_micRespv2l3_2023-12-01_13h21.44.164.wav,547.5873601001222,548.0874239001423,None,,,,,,220203,001,2023-12-01_13h12.50.376,REPSWITCH1_version2_list3,2022.2.4,143.91968112168752,
REPSWITCH1/PICTURE_169.png,espalda,speak,darkblue,nontarget,2,NT,1,4,3,2,Stim8_Set1,1,switch,108,107,6,0,107,107,107,,,,,,,,,,,,,,,,,,,,,,,548.0874239001423,549.2542367000133,549.2542367000133,549.2542367000133,549.2542367000133,549.2542367000133,549.2542367000133,549.2542367000133,549.2542367000133,552.282499599969,552.282499599969,552.282499599969,552.282499599969,552.282499599969,552.282499599969,None,0,,,C:\2023\REPSWITCH21092023\REPSWITCH_excgange\REPSWITCH_excgange\data/220203_REPSWITCH1_version2_list3_2023-12-01_13h12.50.376_micRespv2l3_recorded\recording_micRespv2l3_2023-12-01_13h21.48.852.wav,552.282499599969,,None,,,,,,220203,001,2023-12-01_13h12.50.376,REPSWITCH1_version2_list3,2022.2.4,143.91968112168752,
REPSWITCH1/PICTURE_169.png,espalda,speak,darkblue,repeat,2,T,1,4,3,2,Stim8_Set1,0,None,109,108,7,0,108,108,108,,,,,,,,,,,,,,,,,,,,,,,552.7824789001606,553.9284694001544,553.9284694001544,553.9284694001544,553.9284694001544,553.9284694001544,553.9284694001544,553.9284694001544,553.9284694001544,556.9497726000845,556.9497726000845,556.9497726000845,556.9497726000845,556.9497726000845,556.9497726000845,None,0,,,C:\2023\REPSWITCH21092023\REPSWITCH_excgange\REPSWITCH_excgange\data/220203_REPSWITCH1_version2_list3_2023-12-01_13h12.50.376_micRespv2l3_recorded\recording_micRespv2l3_2023-12-01_13h21.53.526.wav,556.9497726000845,557.4497750001028,None,,,,,,220203,001,2023-12-01_13h12.50.376,REPSWITCH1_version2_list3,2022.2.4,143.91968112168752,
REPSWITCH1/PICTURE_728.png,pulpo,type,gold,filler,1,F,1,4,3,2,Stim8_Set4,0,None,110,109,8,0,109,109,109,,,,,,,,,,,,,,,,,,,,,,,557.4497750001028,558.5540694000665,558.5540694000665,558.5540694000665,558.5540694000665,558.5540694000665,558.5540694000665,558.5540694000665,558.5540694000665,561.5752914999612,561.5752914999612,561.5752914999612,561.5752914999612,561.5752914999612,561.5752914999612,"['p', 'u', 'l', 'p', 'o']",0,"[0.9447454998735338, 1.0713153998367488, 1.3607443999499083, 1.4887301998678595, 1.6093325999099761]",pulpo,C:\2023\REPSWITCH21092023\REPSWITCH_excgange\REPSWITCH_excgange\data/220203_REPSWITCH1_version2_list3_2023-12-01_13h12.50.376_micRespv2l3_recorded\recording_micRespv2l3_2023-12-01_13h21.58.153.wav,561.5752914999612,562.0753866999876,None,,,,,,220203,001,2023-12-01_13h12.50.376,REPSWITCH1_version2_list3,2022.2.4,143.91968112168752,
REPSWITCH1/PICTURE_142.png,vaso,speak,darkblue,nontarget,2,NT,1,4,3,2,Stim7_Set1,1,switch,111,110,9,0,110,110,110,,,,,,,,,,,,,,,,,,,,,,,562.0753866999876,563.2282867000904,563.2282867000904,563.2282867000904,563.2282867000904,563.2282867000904,563.2282867000904,563.2282867000904,563.2282867000904,566.2495335999411,566.2495335999411,566.2495335999411,566.2495335999411,566.2495335999411,566.2495335999411,None,0,,,C:\2023\REPSWITCH21092023\REPSWITCH_excgange\REPSWITCH_excgange\data/220203_REPSWITCH1_version2_list3_2023-12-01_13h12.50.376_micRespv2l3_recorded\recording_micRespv2l3_2023-12-01_13h22.02.826.wav,566.2495335999411,566.7496060000267,None,,,,,,220203,001,2023-12-01_13h12.50.376,REPSWITCH1_version2_list3,2022.2.4,143.91968112168752,
REPSWITCH1/PICTURE_142.png,vaso,type,gold,switch,1,T,1,4,3,2,Stim7_Set1,0,None,112,111,10,0,111,111,111,,,,,,,,,,,,,,,,,,,,,,,566.7496060000267,567.7914360000286,567.7914360000286,567.7914360000286,567.7914360000286,567.7914360000286,567.7914360000286,567.7914360000286,567.7914360000286,570.8126560000237,570.8126560000237,570.8126560000237,570.8126560000237,570.8126560000237,570.8126560000237,"['v', 'a', 's', 'o']",0,"[1.0110317999497056, 1.1974019999615848, 1.2824589000083506, 1.4868156998418272]",vaso,C:\2023\REPSWITCH21092023\REPSWITCH_excgange\REPSWITCH_excgange\data/220203_REPSWITCH1_version2_list3_2023-12-01_13h12.50.376_micRespv2l3_recorded\recording_micRespv2l3_2023-12-01_13h22.07.389.wav,570.8126560000237,571.3126993000042,None,,,,,,220203,001,2023-12-01_13h12.50.376,REPSWITCH1_version2_list3,2022.2.4,143.91968112168752,
REPSWITCH1/PICTURE_338.png,regalo,type,gold,filler,1,F,1,4,3,2,Stim6_Set4,1,repeat,113,112,11,0,112,112,112,,,,,,,,,,,,,,,,,,,,,,,571.3126993000042,572.4031458999962,572.4031458999962,572.4031458999962,572.4031458999962,572.4031458999962,572.4031458999962,572.4031458999962,572.4031458999962,575.4243209001143,575.4243209001143,575.4243209001143,575.4243209001143,575.4243209001143,575.4243209001143,"['r', 'e', 'g', 'a', 'l', 'o']",0,"[1.0740717998705804, 1.1687491999473423, 1.3532006999012083, 1.4747897000052035, 1.5754492999985814, 1.7033199998550117]",regalo,C:\2023\REPSWITCH21092023\REPSWITCH_excgange\REPSWITCH_excgange\data/220203_REPSWITCH1_version2_list3_2023-12-01_13h12.50.376_micRespv2l3_recorded\recording_micRespv2l3_2023-12-01_13h22.12.001.wav,575.4243209001143,575.9244212000631,None,,,,,,220203,001,2023-12-01_13h12.50.376,REPSWITCH1_version2_list3,2022.2.4,143.91968112168752,
REPSWITCH1/PICTURE_135.png,traje,type,gold,nontarget,1,NT,1,4,3,2,Stim3_Set1,1,repeat,114,113,12,0,113,113,113,,,,,,,,,,,,,,,,,,,,,,,575.9244212000631,577.0217725001276,577.0217725001276,577.0217725001276,577.0217725001276,577.0217725001276,577.0217725001276,577.0217725001276,577.0217725001276,580.0430080001242,580.0430080001242,580.0430080001242,580.0430080001242,580.0430080001242,580.0430080001242,"['t', 'r', 'a', 'j', 'e']",0,"[1.073848000029102, 1.113662299932912, 1.3149965000338852, 1.5289257999975234, 1.6026830000337213]",traje,C:\2023\REPSWITCH21092023\REPSWITCH_excgange\REPSWITCH_excgange\data/220203_REPSWITCH1_version2_list3_2023-12-01_13h12.50.376_micRespv2l3_recorded\recording_micRespv2l3_2023-12-01_13h22.16.619.wav,580.0430080001242,580.5430630000774,None,,,,,,220203,001,2023-12-01_13h12.50.376,REPSWITCH1_version2_list3,2022.2.4,143.91968112168752,
REPSWITCH1/PICTURE_135.png,traje,speak,darkblue,switch,2,T,1,4,3,2,Stim3_Set1,0,None,115,114,13,0,114,114,114,,,,,,,,,,,,,,,,,,,,,,,580.5430630000774,581.5710043001454,581.5710043001454,581.5710043001454,581.5710043001454,581.5710043001454,581.5710043001454,581.5710043001454,581.5710043001454,584.5922338999808,584.5922338999808,584.5922338999808,584.5922338999808,584.5922338999808,584.5922338999808,None,0,,,C:\2023\REPSWITCH21092023\REPSWITCH_excgange\REPSWITCH_excgange\data/220203_REPSWITCH1_version2_list3_2023-12-01_13h12.50.376_micRespv2l3_recorded\recording_micRespv2l3_2023-12-01_13h22.21.168.wav,584.5922338999808,585.09229280008,None,,,,,,220203,001,2023-12-01_13h12.50.376,REPSWITCH1_version2_list3,2022.2.4,143.91968112168752,
REPSWITCH1/PICTURE_381.png,fresa,speak,darkblue,nontarget,2,NT,1,4,3,2,Stim2_Set1,1,repeat,116,115,14,0,115,115,115,,,,,,,,,,,,,,,,,,,,,,,585.09229280008,586.1549564001616,586.1549564001616,586.1549564001616,586.1549564001616,586.1549564001616,586.1549564001616,586.1549564001616,586.1549564001616,589.176215799991,589.176215799991,589.176215799991,589.176215799991,589.176215799991,589.176215799991,None,0,,,C:\2023\REPSWITCH21092023\REPSWITCH_excgange\REPSWITCH_excgange\data/220203_REPSWITCH1_version2_list3_2023-12-01_13h12.50.376_micRespv2l3_recorded\recording_micRespv2l3_2023-12-01_13h22.25.753.wav,589.176215799991,589.6762329000048,None,,,,,,220203,001,2023-12-01_13h12.50.376,REPSWITCH1_version2_list3,2022.2.4,143.91968112168752,
REPSWITCH1/PICTURE_381.png,fresa,type,gold,switch,1,T,1,4,3,2,Stim2_Set1,0,None,117,116,15,0,116,116,116,,,,,,,,,,,,,,,,,,,,,,,589.6762329000048,590.6972264000215,590.6972264000215,590.6972264000215,590.6972264000215,590.6972264000215,590.6972264000215,590.6972264000215,590.6972264000215,593.7184291000012,593.7184291000012,593.7184291000012,593.7184291000012,593.7184291000012,593.7184291000012,"['f', 'r', 'e', 's', 'a']",0,"[1.1406829999759793, 1.3569519000593573, 1.4429963999427855, 1.6742292998824269, 1.743032099911943]",fresa,C:\2023\REPSWITCH21092023\REPSWITCH_excgange\REPSWITCH_excgange\data/220203_REPSWITCH1_version2_list3_2023-12-01_13h12.50.376_micRespv2l3_recorded\recording_micRespv2l3_2023-12-01_13h22.30.294.wav,593.7184291000012,594.2184927000199,None,,,,,,220203,001,2023-12-01_13h12.50.376,REPSWITCH1_version2_list3,2022.2.4,143.91968112168752,
REPSWITCH1/PICTURE_48.png,bombero,type,gold,filler,1,F,1,4,3,2,Stim7_Set4,0,None,118,117,16,0,117,117,117,,,,,,,,,,,,,,,,,,,,,,,594.2184927000199,595.3714926999528,595.3714926999528,595.3714926999528,595.3714926999528,595.3714926999528,595.3714926999528,595.3714926999528,595.3714926999528,598.3996636001393,598.3996636001393,598.3996636001393,598.3996636001393,598.3996636001393,598.3996636001393,"['b', 'o', 'm', 'b', 'e', 'r', 'o']",0,"[1.3772798001300544, 1.469943700125441, 1.544949100119993, 1.5718551001045853, 1.7680938001722097, 1.8697524000890553, 1.9195540000218898]",bombero,C:\2023\REPSWITCH21092023\REPSWITCH_excgange\REPSWITCH_excgange\data/220203_REPSWITCH1_version2_list3_2023-12-01_13h12.50.376_micRespv2l3_recorded\recording_micRespv2l3_2023-12-01_13h22.34.970.wav,598.3996636001393,,None,,,,,,220203,001,2023-12-01_13h12.50.376,REPSWITCH1_version2_list3,2022.2.4,143.91968112168752,
REPSWITCH1/PICTURE_687.png,camisa,speak,darkblue,filler,2,F,1,4,3,2,Stim5_Set4,0,None,119,118,17,0,118,118,118,,,,,,,,,,,,,,,,,,,,,,,598.8996638001408,599.9970392000396,599.9970392000396,599.9970392000396,599.9970392000396,599.9970392000396,599.9970392000396,599.9970392000396,599.9970392000396,603.018300200114,603.018300200114,603.018300200114,603.018300200114,603.018300200114,603.018300200114,None,0,,,C:\2023\REPSWITCH21092023\REPSWITCH_excgange\REPSWITCH_excgange\data/220203_REPSWITCH1_version2_list3_2023-12-01_13h12.50.376_micRespv2l3_recorded\recording_micRespv2l3_2023-12-01_13h22.39.596.wav,603.018300200114,603.51832500007,None,,,,,,220203,001,2023-12-01_13h12.50.376,REPSWITCH1_version2_list3,2022.2.4,143.91968112168752,
