image;correctAns;respModal;frameColor;repSwitch;sequence;target;set;block;list;exp_version;stimulus;baseline;baseline_condition;trial_no;psychopy_trial;Column1;trialsREPSWITCH.thisRepN;trialsREPSWITCH.thisTrialN;trialsREPSWITCH.thisN;trialsREPSWITCH.thisIndex;textWelcome.started;textboxInstrMain1.started;textboxInstrMain1_2.started;textboxInstrMain1_3.started;keyInstrMain.started;keyInstrMain.keys;keyInstrMain.rt;textboxInstrMain2.started;textboxInstrMain2_2.started;textboxInstrMain2_3.started;textboxInstrMain2_4.started;textboxInstrMain2_5.started;textboxInstrMain2_6.started;textboxInstrMain2_7.started;textboxInstrMain2_8.started;textboxInstrMain2_9.started;textboxInstrMain2_10.started;textboxInstrMain2_11.started;textboxInstrMain2_12.started;keyInstrMain2.started;keyInstrMain2.keys;keyInstrMain2.rt;textBlank500.started;fixationITI.started;fixationITI.stopped;polygonColour.started;polygonWhite.started;imageObject.started;polygonType.started;textInput.started;keyResp.started;micRespv1l1.started;keyResp.keys;keyResp.corr;keyResp.rt;subjResponse;micRespv1l1.clip;textBlankLoop.started;keyPause.keys;textBlankLoop.stopped;polygonColour.stopped;polygonWhite.stopped;imageObject.stopped;polygonType.stopped;textInput.stopped;keyResp.stopped;textboxPause.started;keyPause.started;participant;session;date;expName;psychopyVersion;frameRate;Column2
;;;;;;;;;;;;;;;;;;;;;6.12815E+16;8.62296E+15;8.62296E+15;8.62296E+15;8.62296E+15;space;7.41957E+15;;;;;;;;;;;;;;;;;;;;;;;;;;;;;;;;;;;;;;;;;;231845;1;2023-09-15_12h32.21.379;REPSWITCH1_version1_list1;202224;3.55812E+15;
;;;;;;;;;;;;;;;;;;;;;;;;;;;;9.38371E+15;9.38371E+15;9.38371E+15;9.38371E+15;9.38371E+15;9.38371E+15;9.38371E+15;9.38371E+15;9.38371E+15;9.38371E+15;9.38371E+15;9.38371E+15;9.38371E+15;space;6.53243E+14;;;;;;;;;;;;;;;;;;;;;;;;;;;231845;1;2023-09-15_12h32.21.379;REPSWITCH1_version1_list1;202224;3.55812E+15;
REPSWITCH1/PICTURE_340.png;espejo;type;darkblue;filler;1;F;1;1;1;1;Extra1;0;None;1;0;1;0;0;0;0;;;;;;;;;;;;;;;;;;;;;;;1.00449E+16;1.06406E+16;1.16997E+16;1.16997E+16;1.16997E+16;1.16997E+16;1.16997E+16;1.16997E+16;1.16997E+16;8.7273E+15;['e', 's', 'e', 'j'];0;[1.8728172000000995, 2.048939799999971, 2.288935500000207, 2.6889334000002236];esej;C:\2023\REPSWITCH12092023\REPSWITCH_excgange\REPSWITCH_excgange\data/231845_REPSWITCH1_version1_list1_2023-09-15_12h32.21.379_micRespv1l1_recorded\recording_micRespv1l1_2023-09-15_12h32.31.716.wav;1.47238E+16;None;;;;;;;;;;231845;1;2023-09-15_12h32.21.379;REPSWITCH1_version1_list1;202224;3.55812E+15;
REPSWITCH1/PICTURE_391.png;cadena;speak;gold;filler;2;F;1;1;1;1;Extra2;0;None;2;1;2;0;1;1;1;;;;;;;;;;;;;;;;;;;;;;;;1.52268E+14;1.63232E+15;1.63232E+15;1.63232E+15;1.63232E+15;1.63232E+15;1.63232E+15;1.63232E+15;5.1857E+15;None;0;;;C:\2023\REPSWITCH12092023\REPSWITCH_excgange\REPSWITCH_excgange\data/231845_REPSWITCH1_version1_list1_2023-09-15_12h32.21.379_micRespv1l1_recorded\recording_micRespv1l1_2023-09-15_12h32.36.339.wav;1.93534E+14;None;;;;;;;;;;231845;1;2023-09-15_12h32.21.379;REPSWITCH1_version1_list1;202224;3.55812E+15;
REPSWITCH1/PICTURE_178.png;puente;speak;gold;nontarget;2;NT;1;1;1;1;Stim1_Set1;1;repeat;3;2;3;0;2;2;2;;;;;;;;;;;;;;;;;;;;;;;;1.98527E+16;2.0905E+16;2.0905E+16;2.0905E+16;2.0905E+16;2.0905E+16;2.0905E+16;2.0905E+16;5.1097E+16;None;0;;;C:\2023\REPSWITCH12092023\REPSWITCH_excgange\REPSWITCH_excgange\data/231845_REPSWITCH1_version1_list1_2023-09-15_12h32.21.379_micRespv1l1_recorded\recording_micRespv1l1_2023-09-15_12h32.40.923.wav;2.39293E+15;None;2.4429E+16;;;;;;;;;231845;1;2023-09-15_12h32.21.379;REPSWITCH1_version1_list1;202224;3.55812E+15;
REPSWITCH1/PICTURE_178.png;puente;speak;gold;repeat;2;T;1;1;1;1;Stim1_Set1;0;None;4;3;4;0;3;3;3;;;;;;;;;;;;;;;;;;;;;;;;2.4429E+16;2.54932E+16;2.54932E+16;2.54932E+16;2.54932E+16;2.54932E+16;2.54932E+16;2.54932E+16;1.3142E+16;None;0;;;C:\2023\REPSWITCH12092023\REPSWITCH_excgange\REPSWITCH_excgange\data/231845_REPSWITCH1_version1_list1_2023-09-15_12h32.21.379_micRespv1l1_recorded\recording_micRespv1l1_2023-09-15_12h32.45.505.wav;2.8511E+15;None;2.90108E+16;;;;;;;;;231845;1;2023-09-15_12h32.21.379;REPSWITCH1_version1_list1;202224;3.55812E+15;
REPSWITCH1/PICTURE_319.png;vaca;type;darkblue;filler;1;F;1;1;1;1;Stim1_Set4;0;None;5;4;5;0;4;4;4;;;;;;;;;;;;;;;;;;;;;;;;2.90108E+16;3.01031E+15;3.01031E+15;3.01031E+15;3.01031E+15;3.01031E+15;3.01031E+15;3.01031E+15;4.9413E+15;['v', 'a', 'c', 'a'];0;[1.0216356999999334, 1.165197100000114, 1.2935499000000164, 1.4055805999996664];vaca;C:\2023\REPSWITCH12092023\REPSWITCH_excgange\REPSWITCH_excgange\data/231845_REPSWITCH1_version1_list1_2023-09-15_12h32.21.379_micRespv1l1_recorded\recording_micRespv1l1_2023-09-15_12h32.50.115.wav;3.31207E+14;None;3.36205E+15;;;;;;;;;231845;1;2023-09-15_12h32.21.379;REPSWITCH1_version1_list1;202224;3.55812E+15;
REPSWITCH1/PICTURE_381.png;fresa;speak;gold;nontarget;2;NT;1;1;1;1;Stim2_Set1;1;switch;6;5;6;0;5;5;5;;;;;;;;;;;;;;;;;;;;;;;;3.36205E+15;3.46821E+15;3.46821E+15;3.46821E+15;3.46821E+15;3.46821E+15;3.46821E+15;3.46821E+15;5.1718E+15;None;0;;;C:\2023\REPSWITCH12092023\REPSWITCH_excgange\REPSWITCH_excgange\data/231845_REPSWITCH1_version1_list1_2023-09-15_12h32.21.379_micRespv1l1_recorded\recording_micRespv1l1_2023-09-15_12h32.54.695.wav;3.77026E+15;None;;;;;;;;;;231845;1;2023-09-15_12h32.21.379;REPSWITCH1_version1_list1;202224;3.55812E+15;
REPSWITCH1/PICTURE_381.png;fresa;speak;gold;repeat;2;T;1;1;1;1;Stim2_Set1;0;None;7;6;7;0;6;6;6;;;;;;;;;;;;;;;;;;;;;;;;3.82024E+16;3.92695E+15;3.92695E+15;3.92695E+15;3.92695E+15;3.92695E+15;3.92695E+15;3.92695E+15;1.6027E+16;None;0;;;C:\2023\REPSWITCH12092023\REPSWITCH_excgange\REPSWITCH_excgange\data/231845_REPSWITCH1_version1_list1_2023-09-15_12h32.21.379_micRespv1l1_recorded\recording_micRespv1l1_2023-09-15_12h32.59.282.wav;4.22872E+15;None;4.2787E+15;;;;;;;;;231845;1;2023-09-15_12h32.21.379;REPSWITCH1_version1_list1;202224;3.55812E+15;
REPSWITCH1/PICTURE_719.png;baño;type;darkblue;filler;1;F;1;1;1;1;Stim2_Set4;1;switch;8;7;8;0;7;7;7;;;;;;;;;;;;;;;;;;;;;;;;4.2787E+15;4.38728E+15;4.38728E+15;4.38728E+15;4.38728E+15;4.38728E+15;4.38728E+15;4.38728E+15;5.3595E+16;None;0;;;C:\2023\REPSWITCH12092023\REPSWITCH_excgange\REPSWITCH_excgange\data/231845_REPSWITCH1_version1_list1_2023-09-15_12h32.21.379_micRespv1l1_recorded\recording_micRespv1l1_2023-09-15_12h33.03.888.wav;4.68942E+15;None;4.73939E+15;;;;;;;;;231845;1;2023-09-15_12h32.21.379;REPSWITCH1_version1_list1;202224;3.55812E+15;
REPSWITCH1/PICTURE_135.png;traje;speak;gold;nontarget;2;NT;1;1;1;1;Stim3_Set1;0;None;9;8;9;0;8;8;8;;;;;;;;;;;;;;;;;;;;;;;;4.73939E+15;4.84752E+15;4.84752E+15;4.84752E+15;4.84752E+15;4.84752E+15;4.84752E+15;4.84752E+15;5.0562E+15;None;0;;;C:\2023\REPSWITCH12092023\REPSWITCH_excgange\REPSWITCH_excgange\data/231845_REPSWITCH1_version1_list1_2023-09-15_12h32.21.379_micRespv1l1_recorded\recording_micRespv1l1_2023-09-15_12h33.08.488.wav;5.14953E+15;None;;;;;;;;;;231845;1;2023-09-15_12h32.21.379;REPSWITCH1_version1_list1;202224;3.55812E+15;
REPSWITCH1/PICTURE_135.png;traje;type;darkblue;switch;1;T;1;1;1;1;Stim3_Set1;0;None;10;9;10;0;9;9;9;;;;;;;;;;;;;;;;;;;;;;;;5.19952E+15;530531919;530531919;530531919;530531919;530531919;530531919;530531919;1.3397E+16;None;0;;;C:\2023\REPSWITCH12092023\REPSWITCH_excgange\REPSWITCH_excgange\data/231845_REPSWITCH1_version1_list1_2023-09-15_12h32.21.379_micRespv1l1_recorded\recording_micRespv1l1_2023-09-15_12h33.13.080.wav;5.60884E+15;None;5.65882E+15;5.60884E+15;5.60884E+15;5.60884E+15;5.60884E+15;5.60884E+15;5.60884E+15;;;231845;1;2023-09-15_12h32.21.379;REPSWITCH1_version1_list1;202224;3.55812E+15;
REPSWITCH1/PICTURE_687.png;camisa;speak;gold;filler;2;F;1;1;1;1;Stim5_Set4;0;None;11;10;11;0;10;10;10;;;;;;;;;;;;;;;;;;;;;;;;5.65882E+15;5.76415E+16;5.76415E+16;5.76415E+16;5.76415E+16;5.76415E+16;5.76415E+16;5.76415E+16;4.9144E+15;None;0;;;C:\2023\REPSWITCH12092023\REPSWITCH_excgange\REPSWITCH_excgange\data/231845_REPSWITCH1_version1_list1_2023-09-15_12h32.21.379_micRespv1l1_recorded\recording_micRespv1l1_2023-09-15_12h33.17.653.wav;6.06619E+16;None;;;;;;;;;;231845;1;2023-09-15_12h32.21.379;REPSWITCH1_version1_list1;202224;3.55812E+15;
REPSWITCH1/PICTURE_128.png;muñeca;type;darkblue;nontarget;1;NT;1;1;1;1;Stim4_Set1;1;switch;12;11;12;0;11;11;11;;;;;;;;;;;;;;;;;;;;;;;;6.11617E+15;6.2278E+15;6.2278E+15;6.2278E+15;6.2278E+15;6.2278E+15;6.2278E+15;6.2278E+15;6.1204E+15;None;0;;;C:\2023\REPSWITCH12092023\REPSWITCH_excgange\REPSWITCH_excgange\data/231845_REPSWITCH1_version1_list1_2023-09-15_12h32.21.379_micRespv1l1_recorded\recording_micRespv1l1_2023-09-15_12h33.22.295.wav;6.53021E+15;None;;;;;;;;;;231845;1;2023-09-15_12h32.21.379;REPSWITCH1_version1_list1;202224;3.55812E+15;
REPSWITCH1/PICTURE_128.png;muñeca;speak;gold;switch;2;T;1;1;1;1;Stim4_Set1;0;None;13;12;13;0;12;12;12;;;;;;;;;;;;;;;;;;;;;;;;6.58019E+15;6.6905E+15;6.6905E+15;6.6905E+15;6.6905E+15;6.6905E+15;6.6905E+15;6.6905E+15;1.4037E+16;None;0;;;C:\2023\REPSWITCH12092023\REPSWITCH_excgange\REPSWITCH_excgange\data/231845_REPSWITCH1_version1_list1_2023-09-15_12h32.21.379_micRespv1l1_recorded\recording_micRespv1l1_2023-09-15_12h33.26.919.wav;6.99256E+15;None;7.04254E+15;;;;;;;;;231845;1;2023-09-15_12h32.21.379;REPSWITCH1_version1_list1;202224;3.55812E+15;
REPSWITCH1/PICTURE_8.png;pierna;speak;gold;filler;2;F;1;1;1;1;Stim3_Set4;0;None;14;13;14;0;13;13;13;;;;;;;;;;;;;;;;;;;;;;;;7.04254E+15;7.14868E+15;7.14868E+15;7.14868E+15;7.14868E+15;7.14868E+15;7.14868E+15;7.14868E+15;4.0938E+14;None;0;;;C:\2023\REPSWITCH12092023\REPSWITCH_excgange\REPSWITCH_excgange\data/231845_REPSWITCH1_version1_list1_2023-09-15_12h32.21.379_micRespv1l1_recorded\recording_micRespv1l1_2023-09-15_12h33.31.501.wav;7.45076E+15;None;7.50073E+15;;;;;;;;;231845;1;2023-09-15_12h32.21.379;REPSWITCH1_version1_list1;202224;3.55812E+15;
REPSWITCH1/PICTURE_19.png;pavo;speak;gold;nontarget;2;NT;1;1;1;1;Stim5_Set1;0;None;15;14;15;0;14;14;14;;;;;;;;;;;;;;;;;;;;;;;;7.50073E+15;7.60885E+15;7.60885E+15;7.60885E+15;7.60885E+15;7.60885E+15;7.60885E+15;7.60885E+15;5.2605E+15;None;0;;;C:\2023\REPSWITCH12092023\REPSWITCH_excgange\REPSWITCH_excgange\data/231845_REPSWITCH1_version1_list1_2023-09-15_12h32.21.379_micRespv1l1_recorded\recording_micRespv1l1_2023-09-15_12h33.36.101.wav;7.9109E+15;None;;;;;;;;;;231845;1;2023-09-15_12h32.21.379;REPSWITCH1_version1_list1;202224;3.55812E+15;
REPSWITCH1/PICTURE_19.png;pavo;type;darkblue;switch;1;T;1;1;1;1;Stim5_Set1;0;None;16;15;16;0;15;15;15;;;;;;;;;;;;;;;;;;;;;;;;7.96086E+15;8.06332E+15;8.06332E+15;8.06332E+15;8.06332E+15;8.06332E+15;8.06332E+15;8.06332E+15;1.7996E+16;None;0;;;C:\2023\REPSWITCH12092023\REPSWITCH_excgange\REPSWITCH_excgange\data/231845_REPSWITCH1_version1_list1_2023-09-15_12h32.21.379_micRespv1l1_recorded\recording_micRespv1l1_2023-09-15_12h33.40.652.wav;8.36573E+15;None;8.41571E+15;8.36573E+15;8.36573E+15;8.36573E+15;8.36573E+15;8.36573E+15;8.36573E+15;;;231845;1;2023-09-15_12h32.21.379;REPSWITCH1_version1_list1;202224;3.55812E+15;
REPSWITCH1/PICTURE_16.png;cazador;type;darkblue;nontarget;1;NT;1;1;1;1;Stim6_Set1;1;switch;17;16;17;0;16;16;16;;;;;;;;;;;;;;;;;;;;;;;;8.41571E+15;8.52013E+15;8.52013E+15;8.52013E+15;8.52013E+15;8.52013E+15;8.52013E+15;8.52013E+15;5.2734E+15;None;0;;;C:\2023\REPSWITCH12092023\REPSWITCH_excgange\REPSWITCH_excgange\data/231845_REPSWITCH1_version1_list1_2023-09-15_12h32.21.379_micRespv1l1_recorded\recording_micRespv1l1_2023-09-15_12h33.45.217.wav;8.82225E+15;None;;;;;;;;;;231845;1;2023-09-15_12h32.21.379;REPSWITCH1_version1_list1;202224;3.55812E+15;
REPSWITCH1/PICTURE_16.png;cazador;type;darkblue;repeat;1;T;1;1;1;1;Stim6_Set1;0;None;18;17;18;0;17;17;17;;;;;;;;;;;;;;;;;;;;;;;;8.87224E+15;8.98081E+15;8.98081E+15;8.98081E+15;8.98081E+15;8.98081E+15;8.98081E+15;8.98081E+15;1.6111E+16;None;0;;;C:\2023\REPSWITCH12092023\REPSWITCH_excgange\REPSWITCH_excgange\data/231845_REPSWITCH1_version1_list1_2023-09-15_12h32.21.379_micRespv1l1_recorded\recording_micRespv1l1_2023-09-15_12h33.49.826.wav;9.28324E+15;None;;9.28324E+15;9.28324E+15;9.28324E+15;9.28324E+15;9.28324E+15;9.28324E+15;;;231845;1;2023-09-15_12h32.21.379;REPSWITCH1_version1_list1;202224;3.55812E+15;
REPSWITCH1/PICTURE_498.png;taza;speak;gold;filler;2;F;1;1;1;1;Stim4_Set4;0;None;19;18;19;0;18;18;18;;;;;;;;;;;;;;;;;;;;;;;;9.3332E+15;9.43936E+15;9.43936E+15;9.43936E+15;9.43936E+15;9.43936E+15;9.43936E+15;9.43936E+15;4.9027E+15;None;0;;;C:\2023\REPSWITCH12092023\REPSWITCH_excgange\REPSWITCH_excgange\data/231845_REPSWITCH1_version1_list1_2023-09-15_12h32.21.379_micRespv1l1_recorded\recording_micRespv1l1_2023-09-15_12h33.54.406.wav;9.74113E+15;None;9.79111E+15;;;;;;;;;231845;1;2023-09-15_12h32.21.379;REPSWITCH1_version1_list1;202224;3.55812E+15;
REPSWITCH1/PICTURE_48.png;bombero;type;darkblue;filler;1;F;1;1;1;1;Stim7_Set4;0;None;20;19;20;0;19;19;19;;;;;;;;;;;;;;;;;;;;;;;;9.79111E+15;9.90952E+15;9.90952E+15;9.90952E+15;9.90952E+15;9.90952E+15;9.90952E+15;9.90952E+15;5.2628E+15;None;0;;;C:\2023\REPSWITCH12092023\REPSWITCH_excgange\REPSWITCH_excgange\data/231845_REPSWITCH1_version1_list1_2023-09-15_12h32.21.379_micRespv1l1_recorded\recording_micRespv1l1_2023-09-15_12h33.59.107.wav;1.02115E+16;None;;;;;;;;;;231845;1;2023-09-15_12h32.21.379;REPSWITCH1_version1_list1;202224;3.55812E+15;
REPSWITCH1/PICTURE_142.png;vaso;type;darkblue;nontarget;1;NT;1;1;1;1;Stim7_Set1;1;repeat;21;20;21;0;20;20;20;;;;;;;;;;;;;;;;;;;;;;;;1.02615E+16;1.03741E+15;1.03741E+15;1.03741E+15;1.03741E+15;1.03741E+15;1.03741E+15;1.03741E+15;4.6965E+15;None;0;;;C:\2023\REPSWITCH12092023\REPSWITCH_excgange\REPSWITCH_excgange\data/231845_REPSWITCH1_version1_list1_2023-09-15_12h32.21.379_micRespv1l1_recorded\recording_micRespv1l1_2023-09-15_12h34.03.753.wav;1.06758E+16;None;1.07258E+16;;;;;;;;;231845;1;2023-09-15_12h32.21.379;REPSWITCH1_version1_list1;202224;3.55812E+15;
REPSWITCH1/PICTURE_142.png;vaso;type;darkblue;repeat;1;T;1;1;1;1;Stim7_Set1;0;None;22;21;22;0;21;21;21;;;;;;;;;;;;;;;;;;;;;;;;1.07258E+16;1.08353E+16;1.08353E+16;1.08353E+16;1.08353E+16;1.08353E+16;1.08353E+16;1.08353E+16;1.2741E+15;None;0;;;C:\2023\REPSWITCH12092023\REPSWITCH_excgange\REPSWITCH_excgange\data/231845_REPSWITCH1_version1_list1_2023-09-15_12h32.21.379_micRespv1l1_recorded\recording_micRespv1l1_2023-09-15_12h34.08.365.wav;1.11371E+16;None;1.11871E+16;;;;;;;;;231845;1;2023-09-15_12h32.21.379;REPSWITCH1_version1_list1;202224;3.55812E+15;
REPSWITCH1/PICTURE_338.png;regalo;speak;gold;filler;2;F;1;1;1;1;Stim6_Set4;1;switch;23;22;23;0;22;22;22;;;;;;;;;;;;;;;;;;;;;;;;1.11871E+16;1.12907E+16;1.12907E+16;1.12907E+16;1.12907E+16;1.12907E+16;1.12907E+16;1.12907E+16;4.4548E+14;None;0;;;C:\2023\REPSWITCH12092023\REPSWITCH_excgange\REPSWITCH_excgange\data/231845_REPSWITCH1_version1_list1_2023-09-15_12h32.21.379_micRespv1l1_recorded\recording_micRespv1l1_2023-09-15_12h34.12.919.wav;1.15925E+15;None;1.16425E+16;;;;;;;;;231845;1;2023-09-15_12h32.21.379;REPSWITCH1_version1_list1;202224;3.55812E+15;
REPSWITCH1/PICTURE_728.png;pulpo;type;darkblue;filler;1;F;1;1;1;1;Stim8_Set4;1;switch;24;23;24;0;23;23;23;;;;;;;;;;;;;;;;;;;;;;;;1.16425E+16;1.17448E+16;1.17448E+16;1.17448E+16;1.17448E+16;1.17448E+16;1.17448E+16;1.17448E+16;4.9242E+14;None;0;;;C:\2023\REPSWITCH12092023\REPSWITCH_excgange\REPSWITCH_excgange\data/231845_REPSWITCH1_version1_list1_2023-09-15_12h32.21.379_micRespv1l1_recorded\recording_micRespv1l1_2023-09-15_12h34.17.460.wav;1.20465E+15;None;1.20965E+16;;;;;;;;;231845;1;2023-09-15_12h32.21.379;REPSWITCH1_version1_list1;202224;3.55812E+15;
REPSWITCH1/PICTURE_169.png;espalda;type;darkblue;nontarget;1;NT;1;1;1;1;Stim8_Set1;1;repeat;25;24;25;0;24;24;24;;;;;;;;;;;;;;;;;;;;;;;;1.20965E+16;1.22071E+16;1.22071E+16;1.22071E+16;1.22071E+16;1.22071E+16;1.22071E+16;1.22071E+16;4.8845E+15;None;0;;;C:\2023\REPSWITCH12092023\REPSWITCH_excgange\REPSWITCH_excgange\data/231845_REPSWITCH1_version1_list1_2023-09-15_12h32.21.379_micRespv1l1_recorded\recording_micRespv1l1_2023-09-15_12h34.22.083.wav;1.25089E+16;None;1255883758;;;;;;;;;231845;1;2023-09-15_12h32.21.379;REPSWITCH1_version1_list1;202224;3.55812E+15;
REPSWITCH1/PICTURE_169.png;espalda;speak;gold;switch;2;T;1;1;1;1;Stim8_Set1;0;None;26;25;26;0;25;25;25;;;;;;;;;;;;;;;;;;;;;;;;1255883758;1.26647E+16;1.26647E+16;1.26647E+16;1.26647E+16;1.26647E+16;1.26647E+16;1.26647E+16;1.3316E+16;None;0;;;C:\2023\REPSWITCH12092023\REPSWITCH_excgange\REPSWITCH_excgange\data/231845_REPSWITCH1_version1_list1_2023-09-15_12h32.21.379_micRespv1l1_recorded\recording_micRespv1l1_2023-09-15_12h34.26.661.wav;1.29668E+16;None;;;;;;;;;;231845;1;2023-09-15_12h32.21.379;REPSWITCH1_version1_list1;202224;3.55812E+15;
REPSWITCH1/PICTURE_178.png;puente;speak;gold;filler;2;F;2;1;1;1;Stim1_Set1;0;None;27;26;27;0;26;26;26;;;;;;;;;;;;;;;;;;;;;;;;1.30167E+16;1.31237E+15;1.31237E+15;1.31237E+15;1.31237E+15;1.31237E+15;1.31237E+15;1.31237E+15;1.3781E+16;None;0;;;C:\2023\REPSWITCH12092023\REPSWITCH_excgange\REPSWITCH_excgange\data/231845_REPSWITCH1_version1_list1_2023-09-15_12h32.21.379_micRespv1l1_recorded\recording_micRespv1l1_2023-09-15_12h34.31.252.wav;1.34258E+15;None;1.34758E+15;;;;;;;;;231845;1;2023-09-15_12h32.21.379;REPSWITCH1_version1_list1;202224;3.55812E+15;
REPSWITCH1/PICTURE_175.png;pintor;type;darkblue;nontarget;1;NT;2;1;1;1;Stim1_Set2;1;switch;28;27;28;0;27;27;27;;;;;;;;;;;;;;;;;;;;;;;;1.34758E+15;1.35791E+15;1.35791E+15;1.35791E+15;1.35791E+15;1.35791E+15;1.35791E+15;1.35791E+15;4.3997E+15;None;0;;;C:\2023\REPSWITCH12092023\REPSWITCH_excgange\REPSWITCH_excgange\data/231845_REPSWITCH1_version1_list1_2023-09-15_12h32.21.379_micRespv1l1_recorded\recording_micRespv1l1_2023-09-15_12h34.35.803.wav;1.38809E+16;None;1.39309E+16;;;;;;;;;231845;1;2023-09-15_12h32.21.379;REPSWITCH1_version1_list1;202224;3.55812E+15;
REPSWITCH1/PICTURE_175.png;pintor;type;darkblue;repeat;1;T;2;1;1;1;Stim1_Set2;0;None;29;28;29;0;28;28;28;;;;;;;;;;;;;;;;;;;;;;;;1.39309E+16;1.40437E+16;1.40437E+16;1.40437E+16;1.40437E+16;1.40437E+16;1.40437E+16;1.40437E+16;1.5241E+16;None;0;;;C:\2023\REPSWITCH12092023\REPSWITCH_excgange\REPSWITCH_excgange\data/231845_REPSWITCH1_version1_list1_2023-09-15_12h32.21.379_micRespv1l1_recorded\recording_micRespv1l1_2023-09-15_12h34.40.449.wav;1.43455E+16;None;1.43955E+15;;;;;;;;;231845;1;2023-09-15_12h32.21.379;REPSWITCH1_version1_list1;202224;3.55812E+15;
REPSWITCH1/PICTURE_381.png;fresa;speak;gold;filler;2;F;2;1;1;1;Stim2_Set1;0;None;30;29;30;0;29;29;29;;;;;;;;;;;;;;;;;;;;;;;;1.43955E+15;1.451E+16;1.451E+16;1.451E+16;1.451E+16;1.451E+16;1.451E+16;1.451E+16;1.6986E+16;None;0;;;C:\2023\REPSWITCH12092023\REPSWITCH_excgange\REPSWITCH_excgange\data/231845_REPSWITCH1_version1_list1_2023-09-15_12h32.21.379_micRespv1l1_recorded\recording_micRespv1l1_2023-09-15_12h34.45.111.wav;1.48117E+15;None;1.48617E+15;;;;;;;;;231845;1;2023-09-15_12h32.21.379;REPSWITCH1_version1_list1;202224;3.55812E+15;
REPSWITCH1/PICTURE_152.png;caracol;type;darkblue;nontarget;1;NT;2;1;1;1;Stim2_Set2;1;switch;31;30;31;0;30;30;30;;;;;;;;;;;;;;;;;;;;;;;;1.48617E+15;1.4969E+16;1.4969E+16;1.4969E+16;1.4969E+16;1.4969E+16;1.4969E+16;1.4969E+16;5.428E+15;None;0;;;C:\2023\REPSWITCH12092023\REPSWITCH_excgange\REPSWITCH_excgange\data/231845_REPSWITCH1_version1_list1_2023-09-15_12h32.21.379_micRespv1l1_recorded\recording_micRespv1l1_2023-09-15_12h34.49.704.wav;1.5271E+16;None;;;;;;;;;;231845;1;2023-09-15_12h32.21.379;REPSWITCH1_version1_list1;202224;3.55812E+15;
REPSWITCH1/PICTURE_152.png;caracol;type;darkblue;repeat;1;T;2;1;1;1;Stim2_Set2;0;None;32;31;32;0;31;31;31;;;;;;;;;;;;;;;;;;;;;;;;1.5321E+16;1.54288E+15;1.54288E+15;1.54288E+15;1.54288E+15;1.54288E+15;1.54288E+15;1.54288E+15;1.505E+16;None;0;;;C:\2023\REPSWITCH12092023\REPSWITCH_excgange\REPSWITCH_excgange\data/231845_REPSWITCH1_version1_list1_2023-09-15_12h32.21.379_micRespv1l1_recorded\recording_micRespv1l1_2023-09-15_12h34.54.300.wav;1.57306E+16;None;1.57806E+16;;;;;;;;;231845;1;2023-09-15_12h32.21.379;REPSWITCH1_version1_list1;202224;3.55812E+15;
REPSWITCH1/PICTURE_128.png;muñeca;speak;gold;filler;2;F;2;1;1;1;Stim4_Set1;0;None;33;32;33;0;32;32;32;;;;;;;;;;;;;;;;;;;;;;;;1.57806E+16;1.58867E+16;1.58867E+16;1.58867E+16;1.58867E+16;1.58867E+16;1.58867E+16;1.58867E+16;1.4092E+16;None;0;;;C:\2023\REPSWITCH12092023\REPSWITCH_excgange\REPSWITCH_excgange\data/231845_REPSWITCH1_version1_list1_2023-09-15_12h32.21.379_micRespv1l1_recorded\recording_micRespv1l1_2023-09-15_12h34.58.881.wav;1.61888E+15;None;1.62388E+16;;;;;;;;;231845;1;2023-09-15_12h32.21.379;REPSWITCH1_version1_list1;202224;3.55812E+15;
REPSWITCH1/PICTURE_264.png;mano;type;darkblue;nontarget;1;NT;2;1;1;1;Stim3_Set2;0;None;34;33;34;0;33;33;33;;;;;;;;;;;;;;;;;;;;;;;;1.62388E+16;1.6351E+15;1.6351E+15;1.6351E+15;1.6351E+15;1.6351E+15;1.6351E+15;1.6351E+15;5.0945E+15;None;0;;;C:\2023\REPSWITCH12092023\REPSWITCH_excgange\REPSWITCH_excgange\data/231845_REPSWITCH1_version1_list1_2023-09-15_12h32.21.379_micRespv1l1_recorded\recording_micRespv1l1_2023-09-15_12h35.03.522.wav;1.66528E+15;None;1.67028E+15;;;;;;;;;231845;1;2023-09-15_12h32.21.379;REPSWITCH1_version1_list1;202224;3.55812E+15;
REPSWITCH1/PICTURE_264.png;mano;speak;gold;switch;2;T;2;1;1;1;Stim3_Set2;0;None;35;34;35;0;34;34;34;;;;;;;;;;;;;;;;;;;;;;;;1.67028E+15;1.68064E+15;1.68064E+15;1.68064E+15;1.68064E+15;1.68064E+15;1.68064E+15;1.68064E+15;1.4353E+16;None;0;;;C:\2023\REPSWITCH12092023\REPSWITCH_excgange\REPSWITCH_excgange\data/231845_REPSWITCH1_version1_list1_2023-09-15_12h32.21.379_micRespv1l1_recorded\recording_micRespv1l1_2023-09-15_12h35.08.078.wav;1.71085E+16;None;1.71585E+16;;;;;;;;;231845;1;2023-09-15_12h32.21.379;REPSWITCH1_version1_list1;202224;3.55812E+15;
REPSWITCH1/PICTURE_517.png;cuerda;speak;gold;nontarget;2;NT;2;1;1;1;Stim4_Set2;1;repeat;36;35;36;0;35;35;35;;;;;;;;;;;;;;;;;;;;;;;;1.71585E+16;1.72713E+16;1.72713E+16;1.72713E+16;1.72713E+16;1.72713E+16;1.72713E+16;1.72713E+16;5.1936E+15;None;0;;;C:\2023\REPSWITCH12092023\REPSWITCH_excgange\REPSWITCH_excgange\data/231845_REPSWITCH1_version1_list1_2023-09-15_12h32.21.379_micRespv1l1_recorded\recording_micRespv1l1_2023-09-15_12h35.12.726.wav;1.75731E+16;None;1.76231E+16;;;;;;;;;231845;1;2023-09-15_12h32.21.379;REPSWITCH1_version1_list1;202224;3.55812E+15;
REPSWITCH1/PICTURE_517.png;cuerda;type;darkblue;switch;1;T;2;1;1;1;Stim4_Set2;0;None;37;36;37;0;36;36;36;;;;;;;;;;;;;;;;;;;;;;;;1.76231E+16;1.7725E+15;1.7725E+15;1.7725E+15;1.7725E+15;1.7725E+15;1.7725E+15;1.7725E+15;1.4494E+16;None;0;;;C:\2023\REPSWITCH12092023\REPSWITCH_excgange\REPSWITCH_excgange\data/231845_REPSWITCH1_version1_list1_2023-09-15_12h32.21.379_micRespv1l1_recorded\recording_micRespv1l1_2023-09-15_12h35.17.265.wav;1.80271E+16;None;1.80771E+16;;;;;;;;;231845;1;2023-09-15_12h32.21.379;REPSWITCH1_version1_list1;202224;3.55812E+15;
REPSWITCH1/PICTURE_135.png;traje;type;darkblue;filler;1;F;2;1;1;1;Stim3_Set1;0;None;38;37;38;0;37;37;37;;;;;;;;;;;;;;;;;;;;;;;;1.80771E+16;1.81818E+16;1.81818E+16;1.81818E+16;1.81818E+16;1.81818E+16;1.81818E+16;1.81818E+16;1.3523E+16;None;0;;;C:\2023\REPSWITCH12092023\REPSWITCH_excgange\REPSWITCH_excgange\data/231845_REPSWITCH1_version1_list1_2023-09-15_12h32.21.379_micRespv1l1_recorded\recording_micRespv1l1_2023-09-15_12h35.21.833.wav;1.84839E+16;None;1.85339E+15;;;;;;;;;231845;1;2023-09-15_12h32.21.379;REPSWITCH1_version1_list1;202224;3.55812E+15;
REPSWITCH1/PICTURE_30.png;granja;type;darkblue;nontarget;1;NT;2;1;1;1;Stim5_Set2;1;repeat;39;38;39;0;38;38;38;;;;;;;;;;;;;;;;;;;;;;;;1.85339E+15;1.86456E+15;1.86456E+15;1.86456E+15;1.86456E+15;1.86456E+15;1.86456E+15;1.86456E+15;5.7853E+15;None;0;;;C:\2023\REPSWITCH12092023\REPSWITCH_excgange\REPSWITCH_excgange\data/231845_REPSWITCH1_version1_list1_2023-09-15_12h32.21.379_micRespv1l1_recorded\recording_micRespv1l1_2023-09-15_12h35.26.470.wav;1.89476E+16;None;1.89976E+16;;;;;;;;;231845;1;2023-09-15_12h32.21.379;REPSWITCH1_version1_list1;202224;3.55812E+15;
REPSWITCH1/PICTURE_30.png;granja;speak;gold;switch;2;T;2;1;1;1;Stim5_Set2;0;None;40;39;40;0;39;39;39;;;;;;;;;;;;;;;;;;;;;;;;1.89976E+16;1.91043E+16;1.91043E+16;1.91043E+16;1.91043E+16;1.91043E+16;1.91043E+16;1.91043E+16;2.1042E+15;None;0;;;C:\2023\REPSWITCH12092023\REPSWITCH_excgange\REPSWITCH_excgange\data/231845_REPSWITCH1_version1_list1_2023-09-15_12h32.21.379_micRespv1l1_recorded\recording_micRespv1l1_2023-09-15_12h35.31.061.wav;1.94067E+16;None;1.94566E+16;1.94067E+16;1.94067E+16;1.94067E+16;1.94067E+16;1.94067E+16;1.94067E+16;;;231845;1;2023-09-15_12h32.21.379;REPSWITCH1_version1_list1;202224;3.55812E+15;
REPSWITCH1/PICTURE_142.png;vaso;type;darkblue;filler;1;F;2;1;1;1;Stim7_Set1;0;None;41;40;41;0;40;40;40;;;;;;;;;;;;;;;;;;;;;;;;1.94566E+16;1956688362;1956688362;1956688362;1956688362;1956688362;1956688362;1956688362;1.2962E+16;None;0;;;C:\2023\REPSWITCH12092023\REPSWITCH_excgange\REPSWITCH_excgange\data/231845_REPSWITCH1_version1_list1_2023-09-15_12h32.21.379_micRespv1l1_recorded\recording_micRespv1l1_2023-09-15_12h35.35.695.wav;1.98704E+16;None;;1.98704E+16;1.98704E+16;1.98704E+16;1.98704E+16;1.98704E+16;1.98704E+16;;;231845;1;2023-09-15_12h32.21.379;REPSWITCH1_version1_list1;202224;3.55812E+15;
REPSWITCH1/PICTURE_19.png;pavo;speak;gold;filler;2;F;2;1;1;1;Stim5_Set1;1;switch;42;41;42;0;41;41;41;;;;;;;;;;;;;;;;;;;;;;;;1.99204E+16;2.00206E+16;2.00206E+16;2.00206E+16;2.00206E+16;2.00206E+16;2.00206E+16;2.00206E+16;1.7127E+16;None;0;;;C:\2023\REPSWITCH12092023\REPSWITCH_excgange\REPSWITCH_excgange\data/231845_REPSWITCH1_version1_list1_2023-09-15_12h32.21.379_micRespv1l1_recorded\recording_micRespv1l1_2023-09-15_12h35.40.224.wav;2.0323E+16;None;2.0373E+15;2.0323E+16;2.0323E+16;2.0323E+16;2.0323E+16;2.0323E+16;2.0323E+16;;;231845;1;2023-09-15_12h32.21.379;REPSWITCH1_version1_list1;202224;3.55812E+15;
REPSWITCH1/PICTURE_552.png;manzana;speak;gold;nontarget;2;NT;2;1;1;1;Stim6_Set2;1;repeat;43;42;43;0;42;42;42;;;;;;;;;;;;;;;;;;;;;;;;2.0373E+15;2.04764E+16;2.04764E+16;2.04764E+16;2.04764E+16;2.04764E+16;2.04764E+16;2.04764E+16;5.8305E+15;None;0;;;C:\2023\REPSWITCH12092023\REPSWITCH_excgange\REPSWITCH_excgange\data/231845_REPSWITCH1_version1_list1_2023-09-15_12h32.21.379_micRespv1l1_recorded\recording_micRespv1l1_2023-09-15_12h35.44.777.wav;2.07785E+15;None;;;;;;;;;;231845;1;2023-09-15_12h32.21.379;REPSWITCH1_version1_list1;202224;3.55812E+15;
REPSWITCH1/PICTURE_552.png;manzana;speak;gold;repeat;2;T;2;1;1;1;Stim6_Set2;0;None;44;43;44;0;43;43;43;;;;;;;;;;;;;;;;;;;;;;;;2.08284E+16;2.09353E+16;2.09353E+16;2.09353E+16;2.09353E+16;2.09353E+16;2.09353E+16;2.09353E+16;1.6165E+16;None;0;;;C:\2023\REPSWITCH12092023\REPSWITCH_excgange\REPSWITCH_excgange\data/231845_REPSWITCH1_version1_list1_2023-09-15_12h32.21.379_micRespv1l1_recorded\recording_micRespv1l1_2023-09-15_12h35.49.371.wav;2.12377E+16;None;212877203;2.12377E+16;2.12377E+16;2.12377E+16;2.12377E+16;2.12377E+16;2.12377E+16;;;231845;1;2023-09-15_12h32.21.379;REPSWITCH1_version1_list1;202224;3.55812E+15;
REPSWITCH1/PICTURE_16.png;cazador;type;darkblue;filler;1;F;2;1;1;1;Stim6_Set1;0;None;45;44;45;0;44;44;44;;;;;;;;;;;;;;;;;;;;;;;;212877203;2.13997E+16;2.13997E+16;2.13997E+16;2.13997E+16;2.13997E+16;2.13997E+16;2.13997E+16;1.5544E+16;None;0;;;C:\2023\REPSWITCH12092023\REPSWITCH_excgange\REPSWITCH_excgange\data/231845_REPSWITCH1_version1_list1_2023-09-15_12h32.21.379_micRespv1l1_recorded\recording_micRespv1l1_2023-09-15_12h35.54.009.wav;2.17015E+16;None;2.17515E+16;;;;;;;;;231845;1;2023-09-15_12h32.21.379;REPSWITCH1_version1_list1;202224;3.55812E+15;
REPSWITCH1/PICTURE_446.png;cerdo;speak;gold;nontarget;2;NT;2;1;1;1;Stim7_Set2;1;switch;46;45;46;0;45;45;45;;;;;;;;;;;;;;;;;;;;;;;;2.17515E+16;2.1859E+16;2.1859E+16;2.1859E+16;2.1859E+16;2.1859E+16;2.1859E+16;2.1859E+16;5.5723E+16;None;0;;;C:\2023\REPSWITCH12092023\REPSWITCH_excgange\REPSWITCH_excgange\data/231845_REPSWITCH1_version1_list1_2023-09-15_12h32.21.379_micRespv1l1_recorded\recording_micRespv1l1_2023-09-15_12h35.58.603.wav;2.21611E+16;None;;;;;;;;;;231845;1;2023-09-15_12h32.21.379;REPSWITCH1_version1_list1;202224;3.55812E+15;
REPSWITCH1/PICTURE_446.png;cerdo;speak;gold;repeat;2;T;2;1;1;1;Stim7_Set2;0;None;47;46;47;0;46;46;46;;;;;;;;;;;;;;;;;;;;;;;;2.2211E+16;2.23197E+15;2.23197E+15;2.23197E+15;2.23197E+15;2.23197E+15;2.23197E+15;2.23197E+15;1.5069E+16;None;0;;;C:\2023\REPSWITCH12092023\REPSWITCH_excgange\REPSWITCH_excgange\data/231845_REPSWITCH1_version1_list1_2023-09-15_12h32.21.379_micRespv1l1_recorded\recording_micRespv1l1_2023-09-15_12h36.03.211.wav;2.26217E+16;None;2267172458;;;;;;;;;231845;1;2023-09-15_12h32.21.379;REPSWITCH1_version1_list1;202224;3.55812E+15;
REPSWITCH1/PICTURE_590.png;escoba;type;darkblue;filler;1;F;2;1;1;1;Extra3;0;None;48;47;48;0;47;47;47;;;;;;;;;;;;;;;;;;;;;;;;2267172458;2.27765E+15;2.27765E+15;2.27765E+15;2.27765E+15;2.27765E+15;2.27765E+15;2.27765E+15;4.0765E+15;None;0;;;C:\2023\REPSWITCH12092023\REPSWITCH_excgange\REPSWITCH_excgange\data/231845_REPSWITCH1_version1_list1_2023-09-15_12h32.21.379_micRespv1l1_recorded\recording_micRespv1l1_2023-09-15_12h36.07.779.wav;2.30788E+15;None;2.31288E+16;;;;;;;;;231845;1;2023-09-15_12h32.21.379;REPSWITCH1_version1_list1;202224;3.55812E+15;
REPSWITCH1/PICTURE_169.png;espalda;speak;gold;filler;2;F;2;1;1;1;Stim8_Set1;0;None;49;48;49;0;48;48;48;;;;;;;;;;;;;;;;;;;;;;;;2.31288E+16;2.32383E+16;2.32383E+16;2.32383E+16;2.32383E+16;2.32383E+16;2.32383E+16;2.32383E+16;1.3537E+16;None;0;;;C:\2023\REPSWITCH12092023\REPSWITCH_excgange\REPSWITCH_excgange\data/231845_REPSWITCH1_version1_list1_2023-09-15_12h32.21.379_micRespv1l1_recorded\recording_micRespv1l1_2023-09-15_12h36.12.394.wav;2.35401E+16;None;2359004301;;;;;;;;;231845;1;2023-09-15_12h32.21.379;REPSWITCH1_version1_list1;202224;3.55812E+15;
REPSWITCH1/PICTURE_199.png;falda;speak;gold;nontarget;2;NT;2;1;1;1;Stim8_Set2;1;repeat;50;49;50;0;49;49;49;;;;;;;;;;;;;;;;;;;;;;;;2359004301;2.36973E+16;2.36973E+16;2.36973E+16;2.36973E+16;2.36973E+16;2.36973E+16;2.36973E+16;4.9442E+15;None;0;;;C:\2023\REPSWITCH12092023\REPSWITCH_excgange\REPSWITCH_excgange\data/231845_REPSWITCH1_version1_list1_2023-09-15_12h32.21.379_micRespv1l1_recorded\recording_micRespv1l1_2023-09-15_12h36.16.985.wav;2.39991E+16;None;2404906191;;;;;;;;;231845;1;2023-09-15_12h32.21.379;REPSWITCH1_version1_list1;202224;3.55812E+15;
;;;;;;;;;;;;;;;;;;;;;;;;;;;;;;;;;;;;;;;;;;;;2404906191;2.41552E+15;2.41552E+15;2.41552E+15;2.41552E+15;2.41552E+15;2.41552E+15;2.41552E+15;1.4825E+14;None;0;;;C:\2023\REPSWITCH12092023\REPSWITCH_excgange\REPSWITCH_excgange\data/231845_REPSWITCH1_version1_list1_2023-09-15_12h32.21.379_micRespv1l1_recorded\recording_micRespv1l1_2023-09-15_12h36.21.565.wav;2.4457E+16;;2.45073E+16;;;;;;;2.45073E+16;2.45073E+16;;;;;;;
