image;correctAns;respModal;frameColor;repSwitch;sequence;target;set;block;list;exp_version;stimulus;baseline;baseline_condition;trial_no;psychopy_trial;Column1;trialsREPSWITCH.thisRepN;trialsREPSWITCH.thisTrialN;trialsREPSWITCH.thisN;trialsREPSWITCH.thisIndex;textWelcome.started;textboxInstrMain1.started;textboxInstrMain1_2.started;textboxInstrMain1_3.started;keyInstrMain.started;keyInstrMain.keys;keyInstrMain.rt;textboxInstrMain2.started;textboxInstrMain2_2.started;textboxInstrMain2_3.started;textboxInstrMain2_4.started;textboxInstrMain2_5.started;textboxInstrMain2_6.started;textboxInstrMain2_7.started;textboxInstrMain2_8.started;textboxInstrMain2_9.started;textboxInstrMain2_10.started;textboxInstrMain2_11.started;textboxInstrMain2_12.started;keyInstrMain2.started;keyInstrMain2.keys;keyInstrMain2.rt;fixationITI.started;fixationITI.stopped;polygonColour.started;polygonWhite.started;imageObject.started;polygonType.started;textInput.started;keyResp.started;micRespv2l4.started;polygonColour.stopped;polygonWhite.stopped;imageObject.stopped;polygonType.stopped;textInput.stopped;keyResp.stopped;keyResp.keys;keyResp.corr;keyResp.rt;subjResponse;micRespv2l4.clip;textBlankLoop.started;textBlankLoop.stopped;keyPause.keys;textboxPause.started;keyPause.started;keyPause.rt;textboxGoodbye.started;textboxGoodbye.stopped;participant;session;date;expName;psychopyVersion;frameRate;Column2
;;;;;;;;;;;;;;;;;;;;;8.4711791;10.965373;10.965373;10.965373;10.965373;space;2.1639574;;;;;;;;;;;;;;;;;;;;;;;;;;;;;;;;;;;;;;;;;;;;240204;1;2023-12-01_16h45.36.179;REPSWITCH1_version2_list4;2022.2.4;143.9642282;
;;;;;;;;;;;;;;;;;;;;;;;;;;;;13.1462188;13.1462188;13.1462188;13.1462188;13.1462188;13.1462188;13.1462188;13.1462188;13.1462188;13.1462188;13.1462188;13.1462188;13.1462188;space;2.2863768;;;;;;;;;;;;;;;;;;;;;;;;;;;;;240204;1;2023-12-01_16h45.36.179;REPSWITCH1_version2_list4;2022.2.4;143.9642282;
REPSWITCH1/PICTURE_8.png;pierna;type;gold;filler;1;F;1;4;4;2;Stim3_Set4;0;None;1;0;1;0;0;0;0;;;;;;;;;;;;;;;;;;;;;;;15.5284285;16.6258077;16.6258077;16.6258077;16.6258077;16.6258077;16.6258077;16.6258077;16.6258077;19.6540493;19.6540493;19.6540493;19.6540493;19.6540493;19.6540493;['p', 'i', 'e', 'r', 'n', 'a'];0;[2.1449347999878228, 2.2984037999995053, 2.3552058001514524, 2.4179557999596, 2.5027044001035392, 2.614896100014448];pierna;C:\2023\REPSWITCH21092023\REPSWITCH_excgange\REPSWITCH_excgange\data/240204_REPSWITCH1_version2_list4_2023-12-01_16h45.36.179_micRespv2l4_recorded\recording_micRespv2l4_2023-12-01_16h45.49.120.wav;19.6540493;20.1540746;None;;;;;;240204;1;2023-12-01_16h45.36.179;REPSWITCH1_version2_list4;2022.2.4;143.9642282;
REPSWITCH1/PICTURE_498.png;taza;speak;darkblue;filler;2;F;1;4;4;2;Stim4_Set4;0;None;2;1;2;0;1;1;1;;;;;;;;;;;;;;;;;;;;;;;20.1540746;21.2792244;21.2792244;21.2792244;21.2792244;21.2792244;21.2792244;21.2792244;21.2792244;24.3074537;24.3074537;24.3074537;24.3074537;24.3074537;24.3074537;None;0;;;C:\2023\REPSWITCH21092023\REPSWITCH_excgange\REPSWITCH_excgange\data/240204_REPSWITCH1_version2_list4_2023-12-01_16h45.36.179_micRespv2l4_recorded\recording_micRespv2l4_2023-12-01_16h45.53.771.wav;24.3074537;;None;;;;;;240204;1;2023-12-01_16h45.36.179;REPSWITCH1_version2_list4;2022.2.4;143.9642282;
REPSWITCH1/PICTURE_19.png;pavo;speak;darkblue;nontarget;2;NT;1;4;4;2;Stim5_Set1;1;repeat;3;2;3;0;2;2;2;;;;;;;;;;;;;;;;;;;;;;;24.8074401;25.8284846;25.8284846;25.8284846;25.8284846;25.8284846;25.8284846;25.8284846;25.8284846;28.8496257;28.8496257;28.8496257;28.8496257;28.8496257;28.8496257;None;0;;;C:\2023\REPSWITCH21092023\REPSWITCH_excgange\REPSWITCH_excgange\data/240204_REPSWITCH1_version2_list4_2023-12-01_16h45.36.179_micRespv2l4_recorded\recording_micRespv2l4_2023-12-01_16h45.58.319.wav;28.8496257;29.3497085;None;;;;;;240204;1;2023-12-01_16h45.36.179;REPSWITCH1_version2_list4;2022.2.4;143.9642282;
REPSWITCH1/PICTURE_19.png;pavo;speak;darkblue;repeat;2;T;1;4;4;2;Stim5_Set1;0;None;4;3;4;0;3;3;3;;;;;;;;;;;;;;;;;;;;;;;29.3497085;30.5581997;30.5581997;30.5581997;30.5581997;30.5581997;30.5581997;30.5581997;30.5581997;33.5863752;33.5863752;33.5863752;33.5863752;33.5863752;33.5863752;None;0;;;C:\2023\REPSWITCH21092023\REPSWITCH_excgange\REPSWITCH_excgange\data/240204_REPSWITCH1_version2_list4_2023-12-01_16h45.36.179_micRespv2l4_recorded\recording_micRespv2l4_2023-12-01_16h46.03.050.wav;33.5863752;;None;;;;;;240204;1;2023-12-01_16h45.36.179;REPSWITCH1_version2_list4;2022.2.4;143.9642282;
REPSWITCH1/PICTURE_319.png;vaca;type;gold;filler;1;F;1;4;4;2;Stim1_Set4;1;repeat;5;4;5;0;4;4;4;;;;;;;;;;;;;;;;;;;;;;;34.0864987;35.1699412;35.1699412;35.1699412;35.1699412;35.1699412;35.1699412;35.1699412;35.1699412;38.1911657;38.1911657;38.1911657;38.1911657;38.1911657;38.1911657;['v', 'a', 'c', 'a'];0;[1.1730411001481116, 1.2447376002091914, 1.3723013002891093, 1.4530429001897573];vaca;C:\2023\REPSWITCH21092023\REPSWITCH_excgange\REPSWITCH_excgange\data/240204_REPSWITCH1_version2_list4_2023-12-01_16h45.36.179_micRespv2l4_recorded\recording_micRespv2l4_2023-12-01_16h46.07.661.wav;38.1911657;38.6912278;None;;;;;;240204;1;2023-12-01_16h45.36.179;REPSWITCH1_version2_list4;2022.2.4;143.9642282;
REPSWITCH1/PICTURE_169.png;espalda;speak;darkblue;nontarget;2;NT;1;4;4;2;Stim8_Set1;1;switch;6;5;6;0;5;5;5;;;;;;;;;;;;;;;;;;;;;;;38.6912278;39.8789279;39.8789279;39.8789279;39.8789279;39.8789279;39.8789279;39.8789279;39.8789279;42.9001867;42.9001867;42.9001867;42.9001867;42.9001867;42.9001867;None;0;;;C:\2023\REPSWITCH21092023\REPSWITCH_excgange\REPSWITCH_excgange\data/240204_REPSWITCH1_version2_list4_2023-12-01_16h45.36.179_micRespv2l4_recorded\recording_micRespv2l4_2023-12-01_16h46.12.370.wav;42.9001867;43.4001728;None;;;;;;240204;1;2023-12-01_16h45.36.179;REPSWITCH1_version2_list4;2022.2.4;143.9642282;
REPSWITCH1/PICTURE_169.png;espalda;speak;darkblue;repeat;2;T;1;4;4;2;Stim8_Set1;0;None;7;6;7;0;6;6;6;;;;;;;;;;;;;;;;;;;;;;;43.4001728;44.5670015;44.5670015;44.5670015;44.5670015;44.5670015;44.5670015;44.5670015;44.5670015;47.5882956;47.5882956;47.5882956;47.5882956;47.5882956;47.5882956;None;0;;;C:\2023\REPSWITCH21092023\REPSWITCH_excgange\REPSWITCH_excgange\data/240204_REPSWITCH1_version2_list4_2023-12-01_16h45.36.179_micRespv2l4_recorded\recording_micRespv2l4_2023-12-01_16h46.17.058.wav;47.5882956;48.0882914;None;;;;;;240204;1;2023-12-01_16h45.36.179;REPSWITCH1_version2_list4;2022.2.4;143.9642282;
REPSWITCH1/PICTURE_728.png;pulpo;type;gold;filler;1;F;1;4;4;2;Stim8_Set4;0;None;8;7;8;0;7;7;7;;;;;;;;;;;;;;;;;;;;;;;48.0882914;49.2064722;49.2064722;49.2064722;49.2064722;49.2064722;49.2064722;49.2064722;49.2064722;52.2277962;52.2277962;52.2277962;52.2277962;52.2277962;52.2277962;['p', 'u', 'l', 'p', 'o'];0;[1.8233964000828564, 2.047582400031388, 2.403201699955389, 2.5607030000537634, 2.6654129999224097];pulpo;C:\2023\REPSWITCH21092023\REPSWITCH_excgange\REPSWITCH_excgange\data/240204_REPSWITCH1_version2_list4_2023-12-01_16h45.36.179_micRespv2l4_recorded\recording_micRespv2l4_2023-12-01_16h46.21.697.wav;52.2277962;52.7277941;None;;;;;;240204;1;2023-12-01_16h45.36.179;REPSWITCH1_version2_list4;2022.2.4;143.9642282;
REPSWITCH1/PICTURE_142.png;vaso;speak;darkblue;nontarget;2;NT;1;4;4;2;Stim7_Set1;1;switch;9;8;9;0;8;8;8;;;;;;;;;;;;;;;;;;;;;;;52.7277941;53.9363409;53.9363409;53.9363409;53.9363409;53.9363409;53.9363409;53.9363409;53.9363409;56.9645041;56.9645041;56.9645041;56.9645041;56.9645041;56.9645041;None;0;;;C:\2023\REPSWITCH21092023\REPSWITCH_excgange\REPSWITCH_excgange\data/240204_REPSWITCH1_version2_list4_2023-12-01_16h45.36.179_micRespv2l4_recorded\recording_micRespv2l4_2023-12-01_16h46.26.428.wav;56.9645041;;None;;;;;;240204;1;2023-12-01_16h45.36.179;REPSWITCH1_version2_list4;2022.2.4;143.9642282;
REPSWITCH1/PICTURE_142.png;vaso;type;gold;switch;1;T;1;4;4;2;Stim7_Set1;0;None;10;9;10;0;9;9;9;;;;;;;;;;;;;;;;;;;;;;;57.464481;58.5202337;58.5202337;58.5202337;58.5202337;58.5202337;58.5202337;58.5202337;58.5202337;61.5414146;61.5414146;61.5414146;61.5414146;61.5414146;61.5414146;['v', 'a', 's', 'o'];0;[0.6935305001679808, 0.826067800167948, 0.9137860999908298, 1.0531772000249475];vaso;C:\2023\REPSWITCH21092023\REPSWITCH_excgange\REPSWITCH_excgange\data/240204_REPSWITCH1_version2_list4_2023-12-01_16h45.36.179_micRespv2l4_recorded\recording_micRespv2l4_2023-12-01_16h46.31.011.wav;61.5414146;62.0414711;None;;;;;;240204;1;2023-12-01_16h45.36.179;REPSWITCH1_version2_list4;2022.2.4;143.9642282;
REPSWITCH1/PICTURE_338.png;regalo;type;gold;filler;1;F;1;4;4;2;Stim6_Set4;1;repeat;11;10;11;0;10;10;10;;;;;;;;;;;;;;;;;;;;;;;62.0414711;63.1736161;63.1736161;63.1736161;63.1736161;63.1736161;63.1736161;63.1736161;63.1736161;66.2018464;66.2018464;66.2018464;66.2018464;66.2018464;66.2018464;['r', 'e', 'g', 'a', 'l', 'o'];0;[1.1986462001223117, 1.2643769001588225, 1.3770406001713127, 1.4617543001659214, 1.4976394001860172, 1.8697021000552922];regalo;C:\2023\REPSWITCH21092023\REPSWITCH_excgange\REPSWITCH_excgange\data/240204_REPSWITCH1_version2_list4_2023-12-01_16h45.36.179_micRespv2l4_recorded\recording_micRespv2l4_2023-12-01_16h46.35.665.wav;66.2018464;;None;;;;;;240204;1;2023-12-01_16h45.36.179;REPSWITCH1_version2_list4;2022.2.4;143.9642282;
REPSWITCH1/PICTURE_135.png;traje;type;gold;nontarget;1;NT;1;4;4;2;Stim3_Set1;1;repeat;12;11;12;0;11;11;11;;;;;;;;;;;;;;;;;;;;;;;66.7018454;67.8131669;67.8131669;67.8131669;67.8131669;67.8131669;67.8131669;67.8131669;67.8131669;70.84134;70.84134;70.84134;70.84134;70.84134;70.84134;['t', 'r', 'a', 'j', 'e'];0;[1.0496603001374751, 1.118799899937585, 1.2048526001162827, 1.3059350000694394, 1.379323499975726];traje;C:\2023\REPSWITCH21092023\REPSWITCH_excgange\REPSWITCH_excgange\data/240204_REPSWITCH1_version2_list4_2023-12-01_16h45.36.179_micRespv2l4_recorded\recording_micRespv2l4_2023-12-01_16h46.40.305.wav;70.84134;;None;;;;;;240204;1;2023-12-01_16h45.36.179;REPSWITCH1_version2_list4;2022.2.4;143.9642282;
REPSWITCH1/PICTURE_135.png;traje;speak;darkblue;switch;2;T;1;4;4;2;Stim3_Set1;0;None;13;12;13;0;12;12;12;;;;;;;;;;;;;;;;;;;;;;;71.3414039;72.410992;72.410992;72.410992;72.410992;72.410992;72.410992;72.410992;72.410992;75.4391777;75.4391777;75.4391777;75.4391777;75.4391777;75.4391777;None;0;;;C:\2023\REPSWITCH21092023\REPSWITCH_excgange\REPSWITCH_excgange\data/240204_REPSWITCH1_version2_list4_2023-12-01_16h45.36.179_micRespv2l4_recorded\recording_micRespv2l4_2023-12-01_16h46.44.903.wav;75.4391777;;None;;;;;;240204;1;2023-12-01_16h45.36.179;REPSWITCH1_version2_list4;2022.2.4;143.9642282;
REPSWITCH1/PICTURE_381.png;fresa;speak;darkblue;nontarget;2;NT;1;4;4;2;Stim2_Set1;1;repeat;14;13;14;0;13;13;13;;;;;;;;;;;;;;;;;;;;;;;75.9391617;77.0087597;77.0087597;77.0087597;77.0087597;77.0087597;77.0087597;77.0087597;77.0087597;80.0299858;80.0299858;80.0299858;80.0299858;80.0299858;80.0299858;None;0;;;C:\2023\REPSWITCH21092023\REPSWITCH_excgange\REPSWITCH_excgange\data/240204_REPSWITCH1_version2_list4_2023-12-01_16h45.36.179_micRespv2l4_recorded\recording_micRespv2l4_2023-12-01_16h46.49.500.wav;80.0299858;80.5300475;None;;;;;;240204;1;2023-12-01_16h45.36.179;REPSWITCH1_version2_list4;2022.2.4;143.9642282;
REPSWITCH1/PICTURE_381.png;fresa;type;gold;switch;1;T;1;4;4;2;Stim2_Set1;0;None;15;14;15;0;14;14;14;;;;;;;;;;;;;;;;;;;;;;;80.5300475;81.5719084;81.5719084;81.5719084;81.5719084;81.5719084;81.5719084;81.5719084;81.5719084;84.6000435;84.6000435;84.6000435;84.6000435;84.6000435;84.6000435;['f', 'r', 'e', 's', 'a'];0;[0.9874366000294685, 1.0911453000735492, 1.117936700116843, 1.3139941000845283, 1.4445946000050753];fresa;C:\2023\REPSWITCH21092023\REPSWITCH_excgange\REPSWITCH_excgange\data/240204_REPSWITCH1_version2_list4_2023-12-01_16h45.36.179_micRespv2l4_recorded\recording_micRespv2l4_2023-12-01_16h46.54.063.wav;84.6000435;;None;;;;;;240204;1;2023-12-01_16h45.36.179;REPSWITCH1_version2_list4;2022.2.4;143.9642282;
REPSWITCH1/PICTURE_48.png;bombero;type;gold;filler;1;F;1;4;4;2;Stim7_Set4;0;None;16;15;16;0;15;15;15;;;;;;;;;;;;;;;;;;;;;;;85.1001618;86.1765971;86.1765971;86.1765971;86.1765971;86.1765971;86.1765971;86.1765971;86.1765971;89.2048643;89.2048643;89.2048643;89.2048643;89.2048643;89.2048643;['b', 'o', 'm', 'b', 'e', 'r', 'o'];0;[1.0237785000354052, 1.1683241999708116, 1.3570175000932068, 1.564328300068155, 1.7825825000181794, 1.8533509001135826, 2.0698691001161933];bombero;C:\2023\REPSWITCH21092023\REPSWITCH_excgange\REPSWITCH_excgange\data/240204_REPSWITCH1_version2_list4_2023-12-01_16h45.36.179_micRespv2l4_recorded\recording_micRespv2l4_2023-12-01_16h46.58.667.wav;89.2048643;;None;;;;;;240204;1;2023-12-01_16h45.36.179;REPSWITCH1_version2_list4;2022.2.4;143.9642282;
REPSWITCH1/PICTURE_687.png;camisa;speak;darkblue;filler;2;F;1;4;4;2;Stim5_Set4;0;None;17;16;17;0;16;16;16;;;;;;;;;;;;;;;;;;;;;;;89.7048614;90.7397067;90.7397067;90.7397067;90.7397067;90.7397067;90.7397067;90.7397067;90.7397067;93.7609644;93.7609644;93.7609644;93.7609644;93.7609644;93.7609644;None;0;;;C:\2023\REPSWITCH21092023\REPSWITCH_excgange\REPSWITCH_excgange\data/240204_REPSWITCH1_version2_list4_2023-12-01_16h45.36.179_micRespv2l4_recorded\recording_micRespv2l4_2023-12-01_16h47.03.231.wav;93.7609644;94.2610152;None;;;;;;240204;1;2023-12-01_16h45.36.179;REPSWITCH1_version2_list4;2022.2.4;143.9642282;
REPSWITCH1/PICTURE_128.png;muñeca;type;gold;nontarget;1;NT;1;4;4;2;Stim4_Set1;0;None;18;17;18;0;17;17;17;;;;;;;;;;;;;;;;;;;;;;;94.2610152;95.3514443;95.3514443;95.3514443;95.3514443;95.3514443;95.3514443;95.3514443;95.3514443;98.379578;98.379578;98.379578;98.379578;98.379578;98.379578;['m', 'u', 'l', 'e', 'backspace', 'backspace'];0;[0.9770120002795011, 1.1178203001618385, 1.3581869001500309, 1.387460700236261, 2.1709569001104683, 2.290630900301039, 2.9849774001631886];muñ;C:\2023\REPSWITCH21092023\REPSWITCH_excgange\REPSWITCH_excgange\data/240204_REPSWITCH1_version2_list4_2023-12-01_16h45.36.179_micRespv2l4_recorded\recording_micRespv2l4_2023-12-01_16h47.07.843.wav;98.379578;98.8796683;None;;;;;;240204;1;2023-12-01_16h45.36.179;REPSWITCH1_version2_list4;2022.2.4;143.9642282;
REPSWITCH1/PICTURE_128.png;muñeca;type;gold;repeat;1;T;1;4;4;2;Stim4_Set1;0;None;19;18;19;0;18;18;18;;;;;;;;;;;;;;;;;;;;;;;98.8796683;99.9214665;99.9214665;99.9214665;99.9214665;99.9214665;99.9214665;99.9214665;99.9214665;102.9496415;102.9496415;102.9496415;102.9496415;102.9496415;102.9496415;['m', 'u', 'ñ', 'e', 'c', 'a'];0;[1.1928537001367658, 1.3383625000715256, 2.227784400107339, 2.262668500188738, 2.4430226001422852, 2.656349000055343];muñeca;C:\2023\REPSWITCH21092023\REPSWITCH_excgange\REPSWITCH_excgange\data/240204_REPSWITCH1_version2_list4_2023-12-01_16h45.36.179_micRespv2l4_recorded\recording_micRespv2l4_2023-12-01_16h47.12.413.wav;102.9496415;;None;;;;;;240204;1;2023-12-01_16h45.36.179;REPSWITCH1_version2_list4;2022.2.4;143.9642282;
REPSWITCH1/PICTURE_719.png;baño;speak;darkblue;filler;2;F;1;4;4;2;Stim2_Set4;1;switch;20;19;20;0;19;19;19;;;;;;;;;;;;;;;;;;;;;;;103.4497208;104.5956853;104.5956853;104.5956853;104.5956853;104.5956853;104.5956853;104.5956853;104.5956853;107.616893;107.616893;107.616893;107.616893;107.616893;107.616893;None;0;;;C:\2023\REPSWITCH21092023\REPSWITCH_excgange\REPSWITCH_excgange\data/240204_REPSWITCH1_version2_list4_2023-12-01_16h45.36.179_micRespv2l4_recorded\recording_micRespv2l4_2023-12-01_16h47.17.087.wav;107.616893;108.1169597;None;;;;;;240204;1;2023-12-01_16h45.36.179;REPSWITCH1_version2_list4;2022.2.4;143.9642282;
REPSWITCH1/PICTURE_178.png;puente;type;gold;nontarget;1;NT;1;4;4;2;Stim1_Set1;1;switch;21;20;21;0;20;20;20;;;;;;;;;;;;;;;;;;;;;;;108.1169597;109.2004857;109.2004857;109.2004857;109.2004857;109.2004857;109.2004857;109.2004857;109.2004857;112.2217035;112.2217035;112.2217035;112.2217035;112.2217035;112.2217035;['p', 'u', 'e', 'n', 't', 'e'];0;[1.2043839001562446, 1.4082109001465142, 1.500530200311914, 1.6091925001237541, 1.6491685002110898, 1.7088545002043247];puente;C:\2023\REPSWITCH21092023\REPSWITCH_excgange\REPSWITCH_excgange\data/240204_REPSWITCH1_version2_list4_2023-12-01_16h45.36.179_micRespv2l4_recorded\recording_micRespv2l4_2023-12-01_16h47.21.691.wav;112.2217035;112.7217538;None;;;;;;240204;1;2023-12-01_16h45.36.179;REPSWITCH1_version2_list4;2022.2.4;143.9642282;
REPSWITCH1/PICTURE_178.png;puente;type;gold;repeat;1;T;1;4;4;2;Stim1_Set1;0;None;22;21;22;0;21;21;21;;;;;;;;;;;;;;;;;;;;;;;112.7217538;113.8122064;113.8122064;113.8122064;113.8122064;113.8122064;113.8122064;113.8122064;113.8122064;116.8333987;116.8333987;116.8333987;116.8333987;116.8333987;116.8333987;['p', 'u', 'e', 'n', 't', 'e'];0;[0.8249172999057919, 0.9787095999345183, 1.0145769999362528, 1.106493700062856, 1.121440399903804, 1.202179100131616];puente;C:\2023\REPSWITCH21092023\REPSWITCH_excgange\REPSWITCH_excgange\data/240204_REPSWITCH1_version2_list4_2023-12-01_16h45.36.179_micRespv2l4_recorded\recording_micRespv2l4_2023-12-01_16h47.26.304.wav;116.8333987;117.3334569;None;;;;;;240204;1;2023-12-01_16h45.36.179;REPSWITCH1_version2_list4;2022.2.4;143.9642282;
REPSWITCH1/PICTURE_16.png;cazador;type;gold;nontarget;1;NT;1;4;4;2;Stim6_Set1;1;repeat;23;22;23;0;22;22;22;;;;;;;;;;;;;;;;;;;;;;;117.3334569;118.3683219;118.3683219;118.3683219;118.3683219;118.3683219;118.3683219;118.3683219;118.3683219;121.3965567;121.3965567;121.3965567;121.3965567;121.3965567;121.3965567;['c', 'a', 'a', 'backspace', 'z'];0;[0.9230473001953214, 0.9748997001443058, 1.803302900167182, 2.4951150002889335, 2.927713700104505];caz;C:\2023\REPSWITCH21092023\REPSWITCH_excgange\REPSWITCH_excgange\data/240204_REPSWITCH1_version2_list4_2023-12-01_16h45.36.179_micRespv2l4_recorded\recording_micRespv2l4_2023-12-01_16h47.30.859.wav;121.3965567;;None;;;;;;240204;1;2023-12-01_16h45.36.179;REPSWITCH1_version2_list4;2022.2.4;143.9642282;
REPSWITCH1/PICTURE_16.png;cazador;speak;darkblue;switch;2;T;1;4;4;2;Stim6_Set1;0;None;24;23;24;0;23;23;23;;;;;;;;;;;;;;;;;;;;;;;121.8966193;123.0495338;123.0495338;123.0495338;123.0495338;123.0495338;123.0495338;123.0495338;123.0495338;126.0776901;126.0776901;126.0776901;126.0776901;126.0776901;126.0776901;None;0;;;C:\2023\REPSWITCH21092023\REPSWITCH_excgange\REPSWITCH_excgange\data/240204_REPSWITCH1_version2_list4_2023-12-01_16h45.36.179_micRespv2l4_recorded\recording_micRespv2l4_2023-12-01_16h47.35.541.wav;126.0776901;;None;;;;;;240204;1;2023-12-01_16h45.36.179;REPSWITCH1_version2_list4;2022.2.4;143.9642282;
REPSWITCH1/PICTURE_19.png;pavo;type;gold;filler;1;F;2;4;4;2;Stim5_Set1;0;None;25;24;25;0;24;24;24;;;;;;;;;;;;;;;;;;;;;;;126.5777569;127.7445463;127.7445463;127.7445463;127.7445463;127.7445463;127.7445463;127.7445463;127.7445463;130.772749;130.772749;130.772749;130.772749;130.772749;130.772749;['p', 'a', 'v', 'o'];0;[1.3360959000419825, 1.4018612999934703, 1.488949100021273, 1.6041968001518399];pavo;C:\2023\REPSWITCH21092023\REPSWITCH_excgange\REPSWITCH_excgange\data/240204_REPSWITCH1_version2_list4_2023-12-01_16h45.36.179_micRespv2l4_recorded\recording_micRespv2l4_2023-12-01_16h47.40.236.wav;130.772749;;None;;;;;;240204;1;2023-12-01_16h45.36.179;REPSWITCH1_version2_list4;2022.2.4;143.9642282;
REPSWITCH1/PICTURE_199.png;falda;type;gold;nontarget;1;NT;2;4;4;2;Stim8_Set2;1;repeat;26;25;26;0;25;25;25;;;;;;;;;;;;;;;;;;;;;;;131.272808;132.3354325;132.3354325;132.3354325;132.3354325;132.3354325;132.3354325;132.3354325;132.3354325;135.3636691;135.3636691;135.3636691;135.3636691;135.3636691;135.3636691;['f', 'a', 'l', 'd', 'a'];0;[1.2370462000835687, 1.3446800999809057, 1.4194132001139224, 1.5230644999537617, 1.593962199985981];falda;C:\2023\REPSWITCH21092023\REPSWITCH_excgange\REPSWITCH_excgange\data/240204_REPSWITCH1_version2_list4_2023-12-01_16h45.36.179_micRespv2l4_recorded\recording_micRespv2l4_2023-12-01_16h47.44.827.wav;135.3636691;;None;;;;;;240204;1;2023-12-01_16h45.36.179;REPSWITCH1_version2_list4;2022.2.4;143.9642282;
REPSWITCH1/PICTURE_199.png;falda;type;gold;repeat;1;T;2;4;4;2;Stim8_Set2;0;None;27;26;27;0;26;26;26;;;;;;;;;;;;;;;;;;;;;;;135.863689;136.9332533;136.9332533;136.9332533;136.9332533;136.9332533;136.9332533;136.9332533;136.9332533;139.9614498;139.9614498;139.9614498;139.9614498;139.9614498;139.9614498;['f', 'a', 'l', 'd', 'a'];0;[0.8002504003234208, 0.884026300162077, 1.0251460003200918, 1.128724800189957, 1.2204336002469063];falda;C:\2023\REPSWITCH21092023\REPSWITCH_excgange\REPSWITCH_excgange\data/240204_REPSWITCH1_version2_list4_2023-12-01_16h45.36.179_micRespv2l4_recorded\recording_micRespv2l4_2023-12-01_16h47.49.425.wav;139.9614498;140.4614893;None;;;;;;240204;1;2023-12-01_16h45.36.179;REPSWITCH1_version2_list4;2022.2.4;143.9642282;
REPSWITCH1/PICTURE_178.png;puente;speak;darkblue;filler;2;F;2;4;4;2;Stim1_Set1;1;switch;28;27;28;0;27;27;27;;;;;;;;;;;;;;;;;;;;;;;140.4614893;141.4686248;141.4686248;141.4686248;141.4686248;141.4686248;141.4686248;141.4686248;141.4686248;144.4967755;144.4967755;144.4967755;144.4967755;144.4967755;144.4967755;None;0;;;C:\2023\REPSWITCH21092023\REPSWITCH_excgange\REPSWITCH_excgange\data/240204_REPSWITCH1_version2_list4_2023-12-01_16h45.36.179_micRespv2l4_recorded\recording_micRespv2l4_2023-12-01_16h47.53.959.wav;144.4967755;;None;;;;;;240204;1;2023-12-01_16h45.36.179;REPSWITCH1_version2_list4;2022.2.4;143.9642282;
REPSWITCH1/PICTURE_517.png;cuerda;type;gold;nontarget;1;NT;2;4;4;2;Stim4_Set2;1;switch;29;28;29;0;28;28;28;;;;;;;;;;;;;;;;;;;;;;;144.9968993;146.0664047;146.0664047;146.0664047;146.0664047;146.0664047;146.0664047;146.0664047;146.0664047;149.094558;149.094558;149.094558;149.094558;149.094558;149.094558;['c', 'u', 'e', 'r', 'd', 'a'];0;[1.4994755000807345, 1.5802022002171725, 1.6456073001027107, 1.7034098003059626, 1.8751538002397865, 1.9521680001635104];cuerda;C:\2023\REPSWITCH21092023\REPSWITCH_excgange\REPSWITCH_excgange\data/240204_REPSWITCH1_version2_list4_2023-12-01_16h45.36.179_micRespv2l4_recorded\recording_micRespv2l4_2023-12-01_16h47.58.558.wav;149.094558;149.5946467;None;;;;;;240204;1;2023-12-01_16h45.36.179;REPSWITCH1_version2_list4;2022.2.4;143.9642282;
REPSWITCH1/PICTURE_517.png;cuerda;type;gold;repeat;1;T;2;4;4;2;Stim4_Set2;0;None;30;29;30;0;29;29;29;;;;;;;;;;;;;;;;;;;;;;;149.5946467;150.6295031;150.6295031;150.6295031;150.6295031;150.6295031;150.6295031;150.6295031;150.6295031;153.650723;153.650723;153.650723;153.650723;153.650723;153.650723;['c', 'u', 'e', 'r', 'd', 'a'];0;[0.6619091001339257, 0.7436574001330882, 0.770570500055328, 0.8340133000165224, 1.0073853000067174, 1.0682709000539035];cuerda;C:\2023\REPSWITCH21092023\REPSWITCH_excgange\REPSWITCH_excgange\data/240204_REPSWITCH1_version2_list4_2023-12-01_16h45.36.179_micRespv2l4_recorded\recording_micRespv2l4_2023-12-01_16h48.03.121.wav;153.650723;154.1508084;None;;;;;;240204;1;2023-12-01_16h45.36.179;REPSWITCH1_version2_list4;2022.2.4;143.9642282;
REPSWITCH1/PICTURE_169.png;espalda;type;gold;filler;1;F;2;4;4;2;Stim8_Set1;0;None;31;30;31;0;30;30;30;;;;;;;;;;;;;;;;;;;;;;;154.1508084;155.2134588;155.2134588;155.2134588;155.2134588;155.2134588;155.2134588;155.2134588;155.2134588;158.2416101;158.2416101;158.2416101;158.2416101;158.2416101;158.2416101;['e', 's', 'p', 'a', 'd', 'backspace', 'l', 'd', 'a'];0;[0.8690382000058889, 1.0295565000269562, 1.1053633999545127, 1.228880099952221, 1.3893140000291169, 2.2512133999262005, 2.848158299922943, 2.9109179999213666, 2.9578396999277174];espalda;C:\2023\REPSWITCH21092023\REPSWITCH_excgange\REPSWITCH_excgange\data/240204_REPSWITCH1_version2_list4_2023-12-01_16h45.36.179_micRespv2l4_recorded\recording_micRespv2l4_2023-12-01_16h48.07.705.wav;158.2416101;;None;;;;;;240204;1;2023-12-01_16h45.36.179;REPSWITCH1_version2_list4;2022.2.4;143.9642282;
REPSWITCH1/PICTURE_673.png;tenedor;speak;darkblue;filler;2;F;2;4;4;2;Extra5;0;None;32;31;32;0;31;31;31;;;;;;;;;;;;;;;;;;;;;;;158.741693;159.936312;159.936312;159.936312;159.936312;159.936312;159.936312;159.936312;159.936312;162.9574848;162.9574848;162.9574848;162.9574848;162.9574848;162.9574848;None;0;;;C:\2023\REPSWITCH21092023\REPSWITCH_excgange\REPSWITCH_excgange\data/240204_REPSWITCH1_version2_list4_2023-12-01_16h45.36.179_micRespv2l4_recorded\recording_micRespv2l4_2023-12-01_16h48.12.427.wav;162.9574848;163.4575649;None;;;;;;240204;1;2023-12-01_16h45.36.179;REPSWITCH1_version2_list4;2022.2.4;143.9642282;
REPSWITCH1/PICTURE_142.png;vaso;type;gold;filler;1;F;2;4;4;2;Stim7_Set1;1;switch;33;32;33;0;32;32;32;;;;;;;;;;;;;;;;;;;;;;;163.4575649;164.5341648;164.5341648;164.5341648;164.5341648;164.5341648;164.5341648;164.5341648;164.5341648;167.5553362;167.5553362;167.5553362;167.5553362;167.5553362;167.5553362;['v', 'a', 's', 'o'];0;[0.9328177000861615, 0.9955924001988024, 1.0763011001981795, 1.1550687002018094];vaso;C:\2023\REPSWITCH21092023\REPSWITCH_excgange\REPSWITCH_excgange\data/240204_REPSWITCH1_version2_list4_2023-12-01_16h45.36.179_micRespv2l4_recorded\recording_micRespv2l4_2023-12-01_16h48.17.026.wav;167.5553362;168.0554589;None;;;;;;240204;1;2023-12-01_16h45.36.179;REPSWITCH1_version2_list4;2022.2.4;143.9642282;
REPSWITCH1/PICTURE_552.png;manzana;type;gold;nontarget;1;NT;2;4;4;2;Stim6_Set2;1;repeat;34;33;34;0;33;33;33;;;;;;;;;;;;;;;;;;;;;;;168.0554589;169.1110925;169.1110925;169.1110925;169.1110925;169.1110925;169.1110925;169.1110925;169.1110925;172.1392827;172.1392827;172.1392827;172.1392827;172.1392827;172.1392827;['m', 'a', 'n', 'z', 's', 'z', 'a', 'n', 'a'];0;[0.9094006000086665, 0.9383001001551747, 1.046931000193581, 1.2462718000169843, 1.250218200031668, 2.125011899974197, 2.2339453001040965, 2.2558352001942694, 2.3840139000676572];manszana;C:\2023\REPSWITCH21092023\REPSWITCH_excgange\REPSWITCH_excgange\data/240204_REPSWITCH1_version2_list4_2023-12-01_16h45.36.179_micRespv2l4_recorded\recording_micRespv2l4_2023-12-01_16h48.21.602.wav;172.1392827;;None;;;;;;240204;1;2023-12-01_16h45.36.179;REPSWITCH1_version2_list4;2022.2.4;143.9642282;
REPSWITCH1/PICTURE_552.png;manzana;speak;darkblue;switch;1;T;2;4;4;2;Stim6_Set2;0;None;35;34;35;0;34;34;34;;;;;;;;;;;;;;;;;;;;;;;172.6393313;173.7992456;173.7992456;173.7992456;173.7992456;173.7992456;173.7992456;173.7992456;173.7992456;176.8204521;176.8204521;176.8204521;176.8204521;176.8204521;176.8204521;None;0;;;C:\2023\REPSWITCH21092023\REPSWITCH_excgange\REPSWITCH_excgange\data/240204_REPSWITCH1_version2_list4_2023-12-01_16h45.36.179_micRespv2l4_recorded\recording_micRespv2l4_2023-12-01_16h48.26.291.wav;176.8204521;177.3204905;None;;;;;;240204;1;2023-12-01_16h45.36.179;REPSWITCH1_version2_list4;2022.2.4;143.9642282;
REPSWITCH1/PICTURE_135.png;traje;speak;darkblue;filler;2;F;2;4;4;2;Stim3_Set1;0;None;36;35;36;0;35;35;35;;;;;;;;;;;;;;;;;;;;;;;177.3204905;178.4734969;178.4734969;178.4734969;178.4734969;178.4734969;178.4734969;178.4734969;178.4734969;181.501695;181.501695;181.501695;181.501695;181.501695;181.501695;None;0;;;C:\2023\REPSWITCH21092023\REPSWITCH_excgange\REPSWITCH_excgange\data/240204_REPSWITCH1_version2_list4_2023-12-01_16h45.36.179_micRespv2l4_recorded\recording_micRespv2l4_2023-12-01_16h48.30.965.wav;181.501695;;None;;;;;;240204;1;2023-12-01_16h45.36.179;REPSWITCH1_version2_list4;2022.2.4;143.9642282;
REPSWITCH1/PICTURE_152.png;caracol;speak;darkblue;nontarget;2;NT;2;4;4;2;Stim2_Set2;1;repeat;37;36;37;0;36;36;36;;;;;;;;;;;;;;;;;;;;;;;182.0016988;183.0713347;183.0713347;183.0713347;183.0713347;183.0713347;183.0713347;183.0713347;183.0713347;186.0994192;186.0994192;186.0994192;186.0994192;186.0994192;186.0994192;None;0;;;C:\2023\REPSWITCH21092023\REPSWITCH_excgange\REPSWITCH_excgange\data/240204_REPSWITCH1_version2_list4_2023-12-01_16h45.36.179_micRespv2l4_recorded\recording_micRespv2l4_2023-12-01_16h48.35.563.wav;186.0994192;;None;;;;;;240204;1;2023-12-01_16h45.36.179;REPSWITCH1_version2_list4;2022.2.4;143.9642282;
REPSWITCH1/PICTURE_152.png;caracol;type;gold;switch;1;T;2;4;4;2;Stim2_Set2;0;None;38;37;38;0;37;37;37;;;;;;;;;;;;;;;;;;;;;;;186.5994857;187.6899168;187.6899168;187.6899168;187.6899168;187.6899168;187.6899168;187.6899168;187.6899168;190.7181885;190.7181885;190.7181885;190.7181885;190.7181885;190.7181885;['c', 'a', 'r', 'a', 'c', 'o', 'l'];0;[0.9670226001180708, 1.1065572001971304, 1.2257985000032932, 1.3194884001277387, 1.9653026000596583, 2.0503813000395894, 2.2031543001066893];caracol;C:\2023\REPSWITCH21092023\REPSWITCH_excgange\REPSWITCH_excgange\data/240204_REPSWITCH1_version2_list4_2023-12-01_16h45.36.179_micRespv2l4_recorded\recording_micRespv2l4_2023-12-01_16h48.40.182.wav;190.7181885;;None;;;;;;240204;1;2023-12-01_16h45.36.179;REPSWITCH1_version2_list4;2022.2.4;143.9642282;
REPSWITCH1/PICTURE_381.png;fresa;type;gold;filler;1;F;2;4;4;2;Stim2_Set1;0;None;39;38;39;0;38;38;38;;;;;;;;;;;;;;;;;;;;;;;191.2182301;192.2877518;192.2877518;192.2877518;192.2877518;192.2877518;192.2877518;192.2877518;192.2877518;195.3089928;195.3089928;195.3089928;195.3089928;195.3089928;195.3089928;['f', 'r', 'e', 's', 'a'];0;[0.9846904003061354, 1.0853780002798885, 1.1482437001541257, 1.3375699003227055, 1.4807625003159046];fresa;C:\2023\REPSWITCH21092023\REPSWITCH_excgange\REPSWITCH_excgange\data/240204_REPSWITCH1_version2_list4_2023-12-01_16h45.36.179_micRespv2l4_recorded\recording_micRespv2l4_2023-12-01_16h48.44.778.wav;195.3089928;195.8090313;None;;;;;;240204;1;2023-12-01_16h45.36.179;REPSWITCH1_version2_list4;2022.2.4;143.9642282;
REPSWITCH1/PICTURE_446.png;cerdo;type;gold;nontarget;1;NT;2;4;4;2;Stim7_Set2;1;repeat;40;39;40;0;39;39;39;;;;;;;;;;;;;;;;;;;;;;;195.8090313;196.8994615;196.8994615;196.8994615;196.8994615;196.8994615;196.8994615;196.8994615;196.8994615;199.9276452;199.9276452;199.9276452;199.9276452;199.9276452;199.9276452;['c', 'e', 'r', 'd', 'o'];0;[0.9879273001570255, 1.0669873000588268, 1.1437618001364172, 1.3530714001972228, 1.4916731000412256];cerdo;C:\2023\REPSWITCH21092023\REPSWITCH_excgange\REPSWITCH_excgange\data/240204_REPSWITCH1_version2_list4_2023-12-01_16h45.36.179_micRespv2l4_recorded\recording_micRespv2l4_2023-12-01_16h48.49.391.wav;199.9276452;;None;;;;;;240204;1;2023-12-01_16h45.36.179;REPSWITCH1_version2_list4;2022.2.4;143.9642282;
REPSWITCH1/PICTURE_446.png;cerdo;speak;darkblue;switch;2;T;2;4;4;2;Stim7_Set2;0;None;41;40;41;0;40;40;40;;;;;;;;;;;;;;;;;;;;;;;200.4277129;201.6640408;201.6640408;201.6640408;201.6640408;201.6640408;201.6640408;201.6640408;201.6640408;204.6852198;204.6852198;204.6852198;204.6852198;204.6852198;204.6852198;None;0;;;C:\2023\REPSWITCH21092023\REPSWITCH_excgange\REPSWITCH_excgange\data/240204_REPSWITCH1_version2_list4_2023-12-01_16h45.36.179_micRespv2l4_recorded\recording_micRespv2l4_2023-12-01_16h48.54.156.wav;204.6852198;205.1852871;None;;;;;;240204;1;2023-12-01_16h45.36.179;REPSWITCH1_version2_list4;2022.2.4;143.9642282;
REPSWITCH1/PICTURE_264.png;mano;speak;darkblue;nontarget;2;NT;2;4;4;2;Stim3_Set2;0;None;42;41;42;0;41;41;41;;;;;;;;;;;;;;;;;;;;;;;205.1852871;206.3312865;206.3312865;206.3312865;206.3312865;206.3312865;206.3312865;206.3312865;206.3312865;209.3524655;209.3524655;209.3524655;209.3524655;209.3524655;209.3524655;None;0;;;C:\2023\REPSWITCH21092023\REPSWITCH_excgange\REPSWITCH_excgange\data/240204_REPSWITCH1_version2_list4_2023-12-01_16h45.36.179_micRespv2l4_recorded\recording_micRespv2l4_2023-12-01_16h48.58.822.wav;209.3524655;209.8525256;None;;;;;;240204;1;2023-12-01_16h45.36.179;REPSWITCH1_version2_list4;2022.2.4;143.9642282;
REPSWITCH1/PICTURE_264.png;mano;speak;darkblue;repeat;2;T;2;4;4;2;Stim3_Set2;0;None;43;42;43;0;42;42;42;;;;;;;;;;;;;;;;;;;;;;;209.8525256;210.9985329;210.9985329;210.9985329;210.9985329;210.9985329;210.9985329;210.9985329;210.9985329;214.0197802;214.0197802;214.0197802;214.0197802;214.0197802;214.0197802;None;0;;;C:\2023\REPSWITCH21092023\REPSWITCH_excgange\REPSWITCH_excgange\data/240204_REPSWITCH1_version2_list4_2023-12-01_16h45.36.179_micRespv2l4_recorded\recording_micRespv2l4_2023-12-01_16h49.03.489.wav;214.0197802;214.5198255;None;;;;;;240204;1;2023-12-01_16h45.36.179;REPSWITCH1_version2_list4;2022.2.4;143.9642282;
REPSWITCH1/PICTURE_128.png;muñeca;type;gold;filler;1;F;2;4;4;2;Stim4_Set1;0;None;44;43;44;0;43;43;43;;;;;;;;;;;;;;;;;;;;;;;214.5198255;215.6311655;215.6311655;215.6311655;215.6311655;215.6311655;215.6311655;215.6311655;215.6311655;218.6523096;218.6523096;218.6523096;218.6523096;218.6523096;218.6523096;['m', 'u', 'l', 'ñ', 'e', 'c', 'a'];0;[0.8641333000268787, 0.9996554001700133, 1.2288888001348823, 1.229884000029415, 1.3046319000422955, 1.8132746000774205, 1.8731922002043575];mulñeca;C:\2023\REPSWITCH21092023\REPSWITCH_excgange\REPSWITCH_excgange\data/240204_REPSWITCH1_version2_list4_2023-12-01_16h45.36.179_micRespv2l4_recorded\recording_micRespv2l4_2023-12-01_16h49.08.122.wav;218.6523096;219.1524317;None;;;;;;240204;1;2023-12-01_16h45.36.179;REPSWITCH1_version2_list4;2022.2.4;143.9642282;
REPSWITCH1/PICTURE_30.png;granja;speak;darkblue;nontarget;2;NT;2;4;4;2;Stim5_Set2;1;switch;45;44;45;0;44;44;44;;;;;;;;;;;;;;;;;;;;;;;219.1524317;220.3331215;220.3331215;220.3331215;220.3331215;220.3331215;220.3331215;220.3331215;220.3331215;223.3612808;223.3612808;223.3612808;223.3612808;223.3612808;223.3612808;None;0;;;C:\2023\REPSWITCH21092023\REPSWITCH_excgange\REPSWITCH_excgange\data/240204_REPSWITCH1_version2_list4_2023-12-01_16h45.36.179_micRespv2l4_recorded\recording_micRespv2l4_2023-12-01_16h49.12.826.wav;223.3612808;223.8613283;None;;;;;;240204;1;2023-12-01_16h45.36.179;REPSWITCH1_version2_list4;2022.2.4;143.9642282;
REPSWITCH1/PICTURE_30.png;granja;speak;darkblue;repeat;2;T;2;4;4;2;Stim5_Set2;0;None;46;45;46;0;45;45;45;;;;;;;;;;;;;;;;;;;;;;;223.8613283;225.0421102;225.0421102;225.0421102;225.0421102;225.0421102;225.0421102;225.0421102;225.0421102;228.070239;228.070239;228.070239;228.070239;228.070239;228.070239;None;0;;;C:\2023\REPSWITCH21092023\REPSWITCH_excgange\REPSWITCH_excgange\data/240204_REPSWITCH1_version2_list4_2023-12-01_16h45.36.179_micRespv2l4_recorded\recording_micRespv2l4_2023-12-01_16h49.17.534.wav;228.070239;;None;;;;;;240204;1;2023-12-01_16h45.36.179;REPSWITCH1_version2_list4;2022.2.4;143.9642282;
REPSWITCH1/PICTURE_646.png;tronco;type;gold;filler;1;F;2;4;4;2;Extra4;0;None;47;46;47;0;46;46;46;;;;;;;;;;;;;;;;;;;;;;;228.5702954;229.7093089;229.7093089;229.7093089;229.7093089;229.7093089;229.7093089;229.7093089;229.7093089;232.7305317;232.7305317;232.7305317;232.7305317;232.7305317;232.7305317;['t', 'r', 'o', 'n', 'c', 'o'];0;[0.9866381001193076, 1.0524426002521068, 1.1743116001598537, 1.5820538001134992, 1.726533300243318, 1.77437030011788];tronco;C:\2023\REPSWITCH21092023\REPSWITCH_excgange\REPSWITCH_excgange\data/240204_REPSWITCH1_version2_list4_2023-12-01_16h45.36.179_micRespv2l4_recorded\recording_micRespv2l4_2023-12-01_16h49.22.201.wav;232.7305317;233.2306247;None;;;;;;240204;1;2023-12-01_16h45.36.179;REPSWITCH1_version2_list4;2022.2.4;143.9642282;
REPSWITCH1/PICTURE_16.png;cazador;speak;darkblue;filler;2;F;2;4;4;2;Stim6_Set1;0;None;48;47;48;0;47;47;47;;;;;;;;;;;;;;;;;;;;;;;233.2306247;234.3835559;234.3835559;234.3835559;234.3835559;234.3835559;234.3835559;234.3835559;234.3835559;237.4117268;237.4117268;237.4117268;237.4117268;237.4117268;237.4117268;None;0;;;C:\2023\REPSWITCH21092023\REPSWITCH_excgange\REPSWITCH_excgange\data/240204_REPSWITCH1_version2_list4_2023-12-01_16h45.36.179_micRespv2l4_recorded\recording_micRespv2l4_2023-12-01_16h49.26.875.wav;237.4117268;;None;;;;;;240204;1;2023-12-01_16h45.36.179;REPSWITCH1_version2_list4;2022.2.4;143.9642282;
REPSWITCH1/PICTURE_175.png;pintor;speak;darkblue;nontarget;2;NT;2;4;4;2;Stim1_Set2;1;repeat;49;48;49;0;48;48;48;;;;;;;;;;;;;;;;;;;;;;;237.9118739;239.002225;239.002225;239.002225;239.002225;239.002225;239.002225;239.002225;239.002225;242.0303765;242.0303765;242.0303765;242.0303765;242.0303765;242.0303765;['p', 'backspace'];0;[1.336603800067678, 2.9614651000592858];;C:\2023\REPSWITCH21092023\REPSWITCH_excgange\REPSWITCH_excgange\data/240204_REPSWITCH1_version2_list4_2023-12-01_16h45.36.179_micRespv2l4_recorded\recording_micRespv2l4_2023-12-01_16h49.31.494.wav;242.0303765;;None;;;;;;240204;1;2023-12-01_16h45.36.179;REPSWITCH1_version2_list4;2022.2.4;143.9642282;
REPSWITCH1/PICTURE_175.png;pintor;type;gold;switch;1;T;2;4;4;2;Stim1_Set2;0;None;50;49;50;0;49;49;49;;;;;;;;;;;;;;;;;;;;;;;242.5304388;243.6626196;243.6626196;243.6626196;243.6626196;243.6626196;243.6626196;243.6626196;243.6626196;246.6907303;246.6907303;246.6907303;246.6907303;246.6907303;246.6907303;['p', 'i', 'n', 't', 'o', 'r'];0;[0.8038157001137733, 1.3709203000180423, 1.5192589000798762, 1.6537326001562178, 1.693704399978742, 2.155085999984294];pintor;C:\2023\REPSWITCH21092023\REPSWITCH_excgange\REPSWITCH_excgange\data/240204_REPSWITCH1_version2_list4_2023-12-01_16h45.36.179_micRespv2l4_recorded\recording_micRespv2l4_2023-12-01_16h49.36.154.wav;246.6907303;;None;;;;;;240204;1;2023-12-01_16h45.36.179;REPSWITCH1_version2_list4;2022.2.4;143.9642282;
REPSWITCH1/PICTURE_663.png;columna;speak;darkblue;filler;2;F;4;4;4;2;Extra6;0;None;51;50;51;0;50;50;50;;;;;;;;;;;;;;;;;;;;;;;247.1907949;248.2256677;248.2256677;248.2256677;248.2256677;248.2256677;248.2256677;248.2256677;248.2256677;251.2537898;251.2537898;251.2537898;251.2537898;251.2537898;251.2537898;None;0;;;C:\2023\REPSWITCH21092023\REPSWITCH_excgange\REPSWITCH_excgange\data/240204_REPSWITCH1_version2_list4_2023-12-01_16h45.36.179_micRespv2l4_recorded\recording_micRespv2l4_2023-12-01_16h49.40.718.wav;251.2537898;;space;251.7538948;251.7538948;1.788672;;;240204;1;2023-12-01_16h45.36.179;REPSWITCH1_version2_list4;2022.2.4;143.9642282;
REPSWITCH1/PICTURE_35.png;oreja;type;gold;nontarget;1;NT;3;4;4;2;Stim5_Set3;0;None;52;51;52;0;51;51;51;;;;;;;;;;;;;;;;;;;;;;;253.5527294;254.6223893;254.6223893;254.6223893;254.6223893;254.6223893;254.6223893;254.6223893;254.6223893;257.6504796;257.6504796;257.6504796;257.6504796;257.6504796;257.6504796;['o', 'r', 'e', 'j', 'a'];0;[0.9131478001363575, 1.001852200133726, 1.0606464000884444, 1.1383764001075178, 1.2549549001269042];oreja;C:\2023\REPSWITCH21092023\REPSWITCH_excgange\REPSWITCH_excgange\data/240204_REPSWITCH1_version2_list4_2023-12-01_16h45.36.179_micRespv2l4_recorded\recording_micRespv2l4_2023-12-01_16h49.47.114.wav;257.6504796;258.1506416;None;;;;;;240204;1;2023-12-01_16h45.36.179;REPSWITCH1_version2_list4;2022.2.4;143.9642282;
REPSWITCH1/PICTURE_35.png;oreja;speak;darkblue;switch;2;T;3;4;4;2;Stim5_Set3;0;None;53;52;53;0;52;52;52;;;;;;;;;;;;;;;;;;;;;;;258.1506416;259.1576585;259.1576585;259.1576585;259.1576585;259.1576585;259.1576585;259.1576585;259.1576585;262.1858193;262.1858193;262.1858193;262.1858193;262.1858193;262.1858193;None;0;;;C:\2023\REPSWITCH21092023\REPSWITCH_excgange\REPSWITCH_excgange\data/240204_REPSWITCH1_version2_list4_2023-12-01_16h45.36.179_micRespv2l4_recorded\recording_micRespv2l4_2023-12-01_16h49.51.649.wav;262.1858193;;None;;;;;;240204;1;2023-12-01_16h45.36.179;REPSWITCH1_version2_list4;2022.2.4;143.9642282;
REPSWITCH1/PICTURE_199.png;falda;speak;darkblue;filler;2;F;3;4;4;2;Stim8_Set2;0;None;54;53;54;0;53;53;53;;;;;;;;;;;;;;;;;;;;;;;262.6858923;263.9013295;263.9013295;263.9013295;263.9013295;263.9013295;263.9013295;263.9013295;263.9013295;266.922608;266.922608;266.922608;266.922608;266.922608;266.922608;None;0;;;C:\2023\REPSWITCH21092023\REPSWITCH_excgange\REPSWITCH_excgange\data/240204_REPSWITCH1_version2_list4_2023-12-01_16h45.36.179_micRespv2l4_recorded\recording_micRespv2l4_2023-12-01_16h49.56.392.wav;266.922608;267.4226042;None;;;;;;240204;1;2023-12-01_16h45.36.179;REPSWITCH1_version2_list4;2022.2.4;143.9642282;
REPSWITCH1/PICTURE_576.png;guante;speak;darkblue;nontarget;2;NT;3;4;4;2;Stim1_Set3;1;repeat;55;54;55;0;54;54;54;;;;;;;;;;;;;;;;;;;;;;;267.4226042;268.5685971;268.5685971;268.5685971;268.5685971;268.5685971;268.5685971;268.5685971;268.5685971;271.58984;271.58984;271.58984;271.58984;271.58984;271.58984;None;0;;;C:\2023\REPSWITCH21092023\REPSWITCH_excgange\REPSWITCH_excgange\data/240204_REPSWITCH1_version2_list4_2023-12-01_16h45.36.179_micRespv2l4_recorded\recording_micRespv2l4_2023-12-01_16h50.01.059.wav;271.58984;272.0898807;None;;;;;;240204;1;2023-12-01_16h45.36.179;REPSWITCH1_version2_list4;2022.2.4;143.9642282;
REPSWITCH1/PICTURE_576.png;guante;type;gold;switch;1;T;3;4;4;2;Stim1_Set3;0;None;56;55;56;0;55;55;55;;;;;;;;;;;;;;;;;;;;;;;272.0898807;273.1455816;273.1455816;273.1455816;273.1455816;273.1455816;273.1455816;273.1455816;273.1455816;276.1668689;276.1668689;276.1668689;276.1668689;276.1668689;276.1668689;['g', 'u', 'a', 'n', 't', 'e'];0;[0.8451794001739472, 0.9188801001291722, 1.0424286001361907, 1.0594090002123266, 1.1335523000452667, 1.2151814000681043];guante;C:\2023\REPSWITCH21092023\REPSWITCH_excgange\REPSWITCH_excgange\data/240204_REPSWITCH1_version2_list4_2023-12-01_16h45.36.179_micRespv2l4_recorded\recording_micRespv2l4_2023-12-01_16h50.05.637.wav;276.1668689;276.6668938;None;;;;;;240204;1;2023-12-01_16h45.36.179;REPSWITCH1_version2_list4;2022.2.4;143.9642282;
REPSWITCH1/PICTURE_517.png;cuerda;type;gold;filler;1;F;3;4;4;2;Stim4_Set2;1;repeat;57;56;57;0;56;56;56;;;;;;;;;;;;;;;;;;;;;;;276.6668938;277.7503602;277.7503602;277.7503602;277.7503602;277.7503602;277.7503602;277.7503602;277.7503602;280.7716156;280.7716156;280.7716156;280.7716156;280.7716156;280.7716156;['c', 'u', 'e', 'e', 'u', 'r', 'd', 'a'];0;[0.9291452001780272, 0.9759232001379132, 1.0207778001204133, 1.0347219002433121, 1.0357244000770152, 1.082876100204885, 1.2481221002526581, 1.3148929001763463];cueeurda;C:\2023\REPSWITCH21092023\REPSWITCH_excgange\REPSWITCH_excgange\data/240204_REPSWITCH1_version2_list4_2023-12-01_16h45.36.179_micRespv2l4_recorded\recording_micRespv2l4_2023-12-01_16h50.10.242.wav;280.7716156;281.2716603;None;;;;;;240204;1;2023-12-01_16h45.36.179;REPSWITCH1_version2_list4;2022.2.4;143.9642282;
REPSWITCH1/PICTURE_271.png;conejo;type;gold;nontarget;1;NT;3;4;4;2;Stim7_Set3;1;repeat;58;57;58;0;57;57;57;;;;;;;;;;;;;;;;;;;;;;;281.2716603;282.3273738;282.3273738;282.3273738;282.3273738;282.3273738;282.3273738;282.3273738;282.3273738;285.348547;285.348547;285.348547;285.348547;285.348547;285.348547;['c', 'o', 'n', 'e', 'j', 'o'];0;[0.9878835002891719, 1.0217565002385527, 1.1712646002415568, 1.2011594001669437, 1.6613200001884252, 1.8336438001133502];conejo;C:\2023\REPSWITCH21092023\REPSWITCH_excgange\REPSWITCH_excgange\data/240204_REPSWITCH1_version2_list4_2023-12-01_16h45.36.179_micRespv2l4_recorded\recording_micRespv2l4_2023-12-01_16h50.14.819.wav;285.348547;285.8487278;None;;;;;;240204;1;2023-12-01_16h45.36.179;REPSWITCH1_version2_list4;2022.2.4;143.9642282;
REPSWITCH1/PICTURE_271.png;conejo;speak;darkblue;switch;2;T;3;4;4;2;Stim7_Set3;0;None;59;58;59;0;58;58;58;;;;;;;;;;;;;;;;;;;;;;;285.8487278;286.9182351;286.9182351;286.9182351;286.9182351;286.9182351;286.9182351;286.9182351;286.9182351;289.9464025;289.9464025;289.9464025;289.9464025;289.9464025;289.9464025;None;0;;;C:\2023\REPSWITCH21092023\REPSWITCH_excgange\REPSWITCH_excgange\data/240204_REPSWITCH1_version2_list4_2023-12-01_16h45.36.179_micRespv2l4_recorded\recording_micRespv2l4_2023-12-01_16h50.19.410.wav;289.9464025;;None;;;;;;240204;1;2023-12-01_16h45.36.179;REPSWITCH1_version2_list4;2022.2.4;143.9642282;
REPSWITCH1/PICTURE_552.png;manzana;type;gold;filler;1;F;3;4;4;2;Stim6_Set2;0;None;60;59;60;0;59;59;59;;;;;;;;;;;;;;;;;;;;;;;290.4464521;291.5230763;291.5230763;291.5230763;291.5230763;291.5230763;291.5230763;291.5230763;291.5230763;294.5442816;294.5442816;294.5442816;294.5442816;294.5442816;294.5442816;['m', 'a', 'n', 'z', 'a', 'n', 'a'];0;[0.8375599002465606, 0.9311962001956999, 1.0218887000810355, 1.5692350000608712, 1.6928525001276284, 1.7994972001761198, 1.8795554002281278];manzana;C:\2023\REPSWITCH21092023\REPSWITCH_excgange\REPSWITCH_excgange\data/240204_REPSWITCH1_version2_list4_2023-12-01_16h45.36.179_micRespv2l4_recorded\recording_micRespv2l4_2023-12-01_16h50.24.015.wav;294.5442816;295.0442832;None;;;;;;240204;1;2023-12-01_16h45.36.179;REPSWITCH1_version2_list4;2022.2.4;143.9642282;
REPSWITCH1/PICTURE_242.png;cartero;speak;darkblue;nontarget;2;NT;3;4;4;2;Stim3_Set3;1;switch;61;60;61;0;60;60;60;;;;;;;;;;;;;;;;;;;;;;;295.0442832;296.1972498;296.1972498;296.1972498;296.1972498;296.1972498;296.1972498;296.1972498;296.1972498;299.225374;299.225374;299.225374;299.225374;299.225374;299.225374;None;0;;;C:\2023\REPSWITCH21092023\REPSWITCH_excgange\REPSWITCH_excgange\data/240204_REPSWITCH1_version2_list4_2023-12-01_16h45.36.179_micRespv2l4_recorded\recording_micRespv2l4_2023-12-01_16h50.28.689.wav;299.225374;;None;;;;;;240204;1;2023-12-01_16h45.36.179;REPSWITCH1_version2_list4;2022.2.4;143.9642282;
REPSWITCH1/PICTURE_242.png;cartero;speak;darkblue;repeat;2;T;3;4;4;2;Stim3_Set3;0;None;62;61;62;0;61;61;61;;;;;;;;;;;;;;;;;;;;;;;299.7254427;300.9131726;300.9131726;300.9131726;300.9131726;300.9131726;300.9131726;300.9131726;300.9131726;303.9343883;303.9343883;303.9343883;303.9343883;303.9343883;303.9343883;None;0;;;C:\2023\REPSWITCH21092023\REPSWITCH_excgange\REPSWITCH_excgange\data/240204_REPSWITCH1_version2_list4_2023-12-01_16h45.36.179_micRespv2l4_recorded\recording_micRespv2l4_2023-12-01_16h50.33.404.wav;303.9343883;304.4343824;None;;;;;;240204;1;2023-12-01_16h45.36.179;REPSWITCH1_version2_list4;2022.2.4;143.9642282;
REPSWITCH1/PICTURE_152.png;caracol;speak;darkblue;filler;2;F;3;4;4;2;Stim2_Set2;0;None;63;62;63;0;62;62;62;;;;;;;;;;;;;;;;;;;;;;;304.4343824;305.5456742;305.5456742;305.5456742;305.5456742;305.5456742;305.5456742;305.5456742;305.5456742;308.5668752;308.5668752;308.5668752;308.5668752;308.5668752;308.5668752;None;0;;;C:\2023\REPSWITCH21092023\REPSWITCH_excgange\REPSWITCH_excgange\data/240204_REPSWITCH1_version2_list4_2023-12-01_16h45.36.179_micRespv2l4_recorded\recording_micRespv2l4_2023-12-01_16h50.38.037.wav;308.5668752;309.0669769;None;;;;;;240204;1;2023-12-01_16h45.36.179;REPSWITCH1_version2_list4;2022.2.4;143.9642282;
REPSWITCH1/PICTURE_446.png;cerdo;type;gold;filler;1;F;3;4;4;2;Stim7_Set2;1;switch;64;63;64;0;63;63;63;;;;;;;;;;;;;;;;;;;;;;;309.0669769;310.1226905;310.1226905;310.1226905;310.1226905;310.1226905;310.1226905;310.1226905;310.1226905;313.1508508;313.1508508;313.1508508;313.1508508;313.1508508;313.1508508;['c', 'e', 'r', 'd', 'o'];0;[0.7873225000221282, 0.8961265000980347, 0.9479822001885623, 1.1672383002005517, 1.2728922001551837];cerdo;C:\2023\REPSWITCH21092023\REPSWITCH_excgange\REPSWITCH_excgange\data/240204_REPSWITCH1_version2_list4_2023-12-01_16h45.36.179_micRespv2l4_recorded\recording_micRespv2l4_2023-12-01_16h50.42.614.wav;313.1508508;;None;;;;;;240204;1;2023-12-01_16h45.36.179;REPSWITCH1_version2_list4;2022.2.4;143.9642282;
REPSWITCH1/PICTURE_610.png;miel;speak;darkblue;nontarget;2;NT;3;4;4;2;Stim2_Set3;1;switch;65;64;65;0;64;64;64;;;;;;;;;;;;;;;;;;;;;;;313.650904;314.6788124;314.6788124;314.6788124;314.6788124;314.6788124;314.6788124;314.6788124;314.6788124;317.7070666;317.7070666;317.7070666;317.7070666;317.7070666;317.7070666;None;0;;;C:\2023\REPSWITCH21092023\REPSWITCH_excgange\REPSWITCH_excgange\data/240204_REPSWITCH1_version2_list4_2023-12-01_16h45.36.179_micRespv2l4_recorded\recording_micRespv2l4_2023-12-01_16h50.47.171.wav;317.7070666;;None;;;;;;240204;1;2023-12-01_16h45.36.179;REPSWITCH1_version2_list4;2022.2.4;143.9642282;
REPSWITCH1/PICTURE_610.png;miel;speak;darkblue;repeat;2;T;3;4;4;2;Stim2_Set3;0;None;66;65;66;0;65;65;65;;;;;;;;;;;;;;;;;;;;;;;318.2070478;319.3183326;319.3183326;319.3183326;319.3183326;319.3183326;319.3183326;319.3183326;319.3183326;322.3395297;322.3395297;322.3395297;322.3395297;322.3395297;322.3395297;None;0;;;C:\2023\REPSWITCH21092023\REPSWITCH_excgange\REPSWITCH_excgange\data/240204_REPSWITCH1_version2_list4_2023-12-01_16h45.36.179_micRespv2l4_recorded\recording_micRespv2l4_2023-12-01_16h50.51.809.wav;322.3395297;322.8396176;None;;;;;;240204;1;2023-12-01_16h45.36.179;REPSWITCH1_version2_list4;2022.2.4;143.9642282;
REPSWITCH1/PICTURE_320.png;iglesia;speak;darkblue;nontarget;2;NT;3;4;4;2;Stim8_Set3;1;repeat;67;66;67;0;66;66;66;;;;;;;;;;;;;;;;;;;;;;;322.8396176;323.9787327;323.9787327;323.9787327;323.9787327;323.9787327;323.9787327;323.9787327;323.9787327;327.0068379;327.0068379;327.0068379;327.0068379;327.0068379;327.0068379;None;0;;;C:\2023\REPSWITCH21092023\REPSWITCH_excgange\REPSWITCH_excgange\data/240204_REPSWITCH1_version2_list4_2023-12-01_16h45.36.179_micRespv2l4_recorded\recording_micRespv2l4_2023-12-01_16h50.56.471.wav;327.0068379;;None;;;;;;240204;1;2023-12-01_16h45.36.179;REPSWITCH1_version2_list4;2022.2.4;143.9642282;
REPSWITCH1/PICTURE_320.png;iglesia;type;gold;switch;1;T;3;4;4;2;Stim8_Set3;0;None;68;67;68;0;67;67;67;;;;;;;;;;;;;;;;;;;;;;;327.5068806;328.6042491;328.6042491;328.6042491;328.6042491;328.6042491;328.6042491;328.6042491;328.6042491;331.6254531;331.6254531;331.6254531;331.6254531;331.6254531;331.6254531;['i', 'g', 'e', 'backspace', 'l', 'e', 'i', 'a'];0;[0.8555588000454009, 0.9289279000367969, 1.1312744999304414, 2.209618099965155, 2.463773899944499, 2.521530600031838, 2.664519299985841, 2.791357000125572];igleia;C:\2023\REPSWITCH21092023\REPSWITCH_excgange\REPSWITCH_excgange\data/240204_REPSWITCH1_version2_list4_2023-12-01_16h45.36.179_micRespv2l4_recorded\recording_micRespv2l4_2023-12-01_16h51.01.096.wav;331.6254531;332.1255499;None;;;;;;240204;1;2023-12-01_16h45.36.179;REPSWITCH1_version2_list4;2022.2.4;143.9642282;
REPSWITCH1/PICTURE_30.png;granja;speak;darkblue;filler;2;F;3;4;4;2;Stim5_Set2;0;None;69;68;69;0;68;68;68;;;;;;;;;;;;;;;;;;;;;;;332.1255499;333.2368391;333.2368391;333.2368391;333.2368391;333.2368391;333.2368391;333.2368391;333.2368391;336.2649871;336.2649871;336.2649871;336.2649871;336.2649871;336.2649871;None;0;;;C:\2023\REPSWITCH21092023\REPSWITCH_excgange\REPSWITCH_excgange\data/240204_REPSWITCH1_version2_list4_2023-12-01_16h45.36.179_micRespv2l4_recorded\recording_micRespv2l4_2023-12-01_16h51.05.728.wav;336.2649871;;None;;;;;;240204;1;2023-12-01_16h45.36.179;REPSWITCH1_version2_list4;2022.2.4;143.9642282;
REPSWITCH1/PICTURE_264.png;mano;type;gold;filler;1;F;3;4;4;2;Stim3_Set2;0;None;70;69;70;0;69;69;69;;;;;;;;;;;;;;;;;;;;;;;336.7650519;337.8902077;337.8902077;337.8902077;337.8902077;337.8902077;337.8902077;337.8902077;337.8902077;340.9114071;340.9114071;340.9114071;340.9114071;340.9114071;340.9114071;['m', 'a', 'n', 'o'];0;[0.99941819999367, 1.0661792000755668, 1.1472192001529038, 1.2547067000996321];mano;C:\2023\REPSWITCH21092023\REPSWITCH_excgange\REPSWITCH_excgange\data/240204_REPSWITCH1_version2_list4_2023-12-01_16h45.36.179_micRespv2l4_recorded\recording_micRespv2l4_2023-12-01_16h51.10.382.wav;340.9114071;341.4114747;None;;;;;;240204;1;2023-12-01_16h45.36.179;REPSWITCH1_version2_list4;2022.2.4;143.9642282;
REPSWITCH1/PICTURE_464.png;goma;type;gold;nontarget;1;NT;3;4;4;2;Stim6_Set3;0;None;71;70;71;0;70;70;70;;;;;;;;;;;;;;;;;;;;;;;341.4114747;342.4741345;342.4741345;342.4741345;342.4741345;342.4741345;342.4741345;342.4741345;342.4741345;345.5022898;345.5022898;345.5022898;345.5022898;345.5022898;345.5022898;['g', 'o', 'm', 'a'];0;[1.0315746001433581, 1.1063235001638532, 1.2269066001754254, 1.2757407000754029];goma;C:\2023\REPSWITCH21092023\REPSWITCH_excgange\REPSWITCH_excgange\data/240204_REPSWITCH1_version2_list4_2023-12-01_16h45.36.179_micRespv2l4_recorded\recording_micRespv2l4_2023-12-01_16h51.14.965.wav;345.5022898;;None;;;;;;240204;1;2023-12-01_16h45.36.179;REPSWITCH1_version2_list4;2022.2.4;143.9642282;
REPSWITCH1/PICTURE_464.png;goma;type;gold;repeat;1;T;3;4;4;2;Stim6_Set3;0;None;72;71;72;0;71;71;71;;;;;;;;;;;;;;;;;;;;;;;346.0023558;347.0581404;347.0581404;347.0581404;347.0581404;347.0581404;347.0581404;347.0581404;347.0581404;350.0792794;350.0792794;350.0792794;350.0792794;350.0792794;350.0792794;['g', 'o', 'm', 'a'];0;[0.7880136002786458, 0.8104869001545012, 0.9451829001773149, 0.9790731002576649];goma;C:\2023\REPSWITCH21092023\REPSWITCH_excgange\REPSWITCH_excgange\data/240204_REPSWITCH1_version2_list4_2023-12-01_16h45.36.179_micRespv2l4_recorded\recording_micRespv2l4_2023-12-01_16h51.19.549.wav;350.0792794;350.57941;None;;;;;;240204;1;2023-12-01_16h45.36.179;REPSWITCH1_version2_list4;2022.2.4;143.9642282;
REPSWITCH1/PICTURE_175.png;pintor;speak;darkblue;filler;2;F;3;4;4;2;Stim1_Set2;0;None;73;72;73;0;72;72;72;;;;;;;;;;;;;;;;;;;;;;;350.57941;351.6280973;351.6280973;351.6280973;351.6280973;351.6280973;351.6280973;351.6280973;351.6280973;354.65634;354.65634;354.65634;354.65634;354.65634;354.65634;None;0;;;C:\2023\REPSWITCH21092023\REPSWITCH_excgange\REPSWITCH_excgange\data/240204_REPSWITCH1_version2_list4_2023-12-01_16h45.36.179_micRespv2l4_recorded\recording_micRespv2l4_2023-12-01_16h51.24.120.wav;354.65634;355.1564147;None;;;;;;240204;1;2023-12-01_16h45.36.179;REPSWITCH1_version2_list4;2022.2.4;143.9642282;
REPSWITCH1/PICTURE_235.png;aguja;type;gold;nontarget;1;NT;3;4;4;2;Stim4_Set3;1;switch;74;73;74;0;73;73;73;;;;;;;;;;;;;;;;;;;;;;;355.1564147;356.2676269;356.2676269;356.2676269;356.2676269;356.2676269;356.2676269;356.2676269;356.2676269;359.2888497;359.2888497;359.2888497;359.2888497;359.2888497;359.2888497;['a', 'g', 'u', 'j', 'a'];0;[1.3283287000376731, 1.431974200066179, 1.4987518000416458, 1.7636556001380086, 1.8434150002431124];aguja;C:\2023\REPSWITCH21092023\REPSWITCH_excgange\REPSWITCH_excgange\data/240204_REPSWITCH1_version2_list4_2023-12-01_16h45.36.179_micRespv2l4_recorded\recording_micRespv2l4_2023-12-01_16h51.28.758.wav;359.2888497;359.7889889;None;;;;;;240204;1;2023-12-01_16h45.36.179;REPSWITCH1_version2_list4;2022.2.4;143.9642282;
REPSWITCH1/PICTURE_235.png;aguja;type;gold;repeat;1;T;3;4;4;2;Stim4_Set3;0;None;75;74;75;0;74;74;74;;;;;;;;;;;;;;;;;;;;;;;359.7889889;360.8585214;360.8585214;360.8585214;360.8585214;360.8585214;360.8585214;360.8585214;360.8585214;363.8866673;363.8866673;363.8866673;363.8866673;363.8866673;363.8866673;['a', 'g', 'u', 'j', 'a'];0;[0.5734370001591742, 0.6432009001728147, 0.6641285002697259, 0.8250862001441419, 0.9147823001258075];aguja;C:\2023\REPSWITCH21092023\REPSWITCH_excgange\REPSWITCH_excgange\data/240204_REPSWITCH1_version2_list4_2023-12-01_16h45.36.179_micRespv2l4_recorded\recording_micRespv2l4_2023-12-01_16h51.33.350.wav;363.8866673;;None;;;;;;240204;1;2023-12-01_16h45.36.179;REPSWITCH1_version2_list4;2022.2.4;143.9642282;
REPSWITCH1/PICTURE_576.png;guante;type;gold;filler;1;F;4;4;4;2;Stim1_Set3;1;repeat;76;75;76;0;75;75;75;;;;;;;;;;;;;;;;;;;;;;;364.3867413;365.5396909;365.5396909;365.5396909;365.5396909;365.5396909;365.5396909;365.5396909;365.5396909;368.5608597;368.5608597;368.5608597;368.5608597;368.5608597;368.5608597;['g', 'u', 'a', 'n', 't', 'e'];0;[1.199161000084132, 1.2798826999496669, 1.3526125000789762, 1.4333711001090705, 1.5330411999020725, 1.5939108000602573];guante;C:\2023\REPSWITCH21092023\REPSWITCH_excgange\REPSWITCH_excgange\data/240204_REPSWITCH1_version2_list4_2023-12-01_16h45.36.179_micRespv2l4_recorded\recording_micRespv2l4_2023-12-01_16h51.38.031.wav;368.5608597;369.0609648;None;;;;;;240204;1;2023-12-01_16h45.36.179;REPSWITCH1_version2_list4;2022.2.4;143.9642282;
REPSWITCH1/PICTURE_340.png;espejo;speak;darkblue;filler;2;F;4;4;4;2;Extra1;0;None;77;76;77;0;76;76;76;;;;;;;;;;;;;;;;;;;;;;;369.0609648;370.1514319;370.1514319;370.1514319;370.1514319;370.1514319;370.1514319;370.1514319;370.1514319;373.1796447;373.1796447;373.1796447;373.1796447;373.1796447;373.1796447;None;0;;;C:\2023\REPSWITCH21092023\REPSWITCH_excgange\REPSWITCH_excgange\data/240204_REPSWITCH1_version2_list4_2023-12-01_16h45.36.179_micRespv2l4_recorded\recording_micRespv2l4_2023-12-01_16h51.42.644.wav;373.1796447;;None;;;;;;240204;1;2023-12-01_16h45.36.179;REPSWITCH1_version2_list4;2022.2.4;143.9642282;
REPSWITCH1/PICTURE_464.png;goma;speak;darkblue;filler;2;F;4;4;4;2;Stim6_Set3;1;repeat;78;77;78;0;77;77;77;;;;;;;;;;;;;;;;;;;;;;;373.6796224;374.7353391;374.7353391;374.7353391;374.7353391;374.7353391;374.7353391;374.7353391;374.7353391;377.7565529;377.7565529;377.7565529;377.7565529;377.7565529;377.7565529;None;0;;;C:\2023\REPSWITCH21092023\REPSWITCH_excgange\REPSWITCH_excgange\data/240204_REPSWITCH1_version2_list4_2023-12-01_16h45.36.179_micRespv2l4_recorded\recording_micRespv2l4_2023-12-01_16h51.47.226.wav;377.7565529;378.2566119;None;;;;;;240204;1;2023-12-01_16h45.36.179;REPSWITCH1_version2_list4;2022.2.4;143.9642282;
REPSWITCH1/PICTURE_338.png;regalo;type;gold;nontarget;1;NT;4;4;4;2;Stim6_Set4;0;None;79;78;79;0;78;78;78;;;;;;;;;;;;;;;;;;;;;;;378.2566119;379.3886985;379.3886985;379.3886985;379.3886985;379.3886985;379.3886985;379.3886985;379.3886985;382.4099377;382.4099377;382.4099377;382.4099377;382.4099377;382.4099377;['r', 'e', 'g', 'a', 'l', 'o'];0;[1.0709814000874758, 1.136509400093928, 1.2600230001844466, 1.3377801000606269, 1.4145813002251089, 1.5640169000253081];regalo;C:\2023\REPSWITCH21092023\REPSWITCH_excgange\REPSWITCH_excgange\data/240204_REPSWITCH1_version2_list4_2023-12-01_16h45.36.179_micRespv2l4_recorded\recording_micRespv2l4_2023-12-01_16h51.51.879.wav;382.4099377;382.9099998;None;;;;;;240204;1;2023-12-01_16h45.36.179;REPSWITCH1_version2_list4;2022.2.4;143.9642282;
REPSWITCH1/PICTURE_338.png;regalo;type;gold;repeat;1;T;4;4;4;2;Stim6_Set4;0;None;80;79;80;0;79;79;79;;;;;;;;;;;;;;;;;;;;;;;382.9099998;383.9657119;383.9657119;383.9657119;383.9657119;383.9657119;383.9657119;383.9657119;383.9657119;386.9869682;386.9869682;386.9869682;386.9869682;386.9869682;386.9869682;['r', 'e', 'g', 'a', 'l', 'o'];0;[0.7327190001960844, 0.792524500284344, 0.8922090001869947, 0.9918753001838923, 1.1912735002115369, 1.3253310001455247];regalo;C:\2023\REPSWITCH21092023\REPSWITCH_excgange\REPSWITCH_excgange\data/240204_REPSWITCH1_version2_list4_2023-12-01_16h45.36.179_micRespv2l4_recorded\recording_micRespv2l4_2023-12-01_16h51.56.456.wav;386.9869682;387.4869809;None;;;;;;240204;1;2023-12-01_16h45.36.179;REPSWITCH1_version2_list4;2022.2.4;143.9642282;
REPSWITCH1/PICTURE_8.png;pierna;type;gold;nontarget;1;NT;4;4;4;2;Stim3_Set4;1;repeat;81;80;81;0;80;80;80;;;;;;;;;;;;;;;;;;;;;;;387.4869809;388.5565611;388.5565611;388.5565611;388.5565611;388.5565611;388.5565611;388.5565611;388.5565611;391.5777887;391.5777887;391.5777887;391.5777887;391.5777887;391.5777887;['p', 'e', 'i', 'r', 'n', 'a'];0;[0.9749372000806034, 1.0998058002442122, 1.1057847002521157, 1.1636463000904769, 1.3021163002122194, 1.3529423002619296];peirna;C:\2023\REPSWITCH21092023\REPSWITCH_excgange\REPSWITCH_excgange\data/240204_REPSWITCH1_version2_list4_2023-12-01_16h45.36.179_micRespv2l4_recorded\recording_micRespv2l4_2023-12-01_16h52.01.047.wav;391.5777887;392.0778793;None;;;;;;240204;1;2023-12-01_16h45.36.179;REPSWITCH1_version2_list4;2022.2.4;143.9642282;
REPSWITCH1/PICTURE_8.png;pierna;speak;darkblue;switch;2;T;4;4;4;2;Stim3_Set4;0;None;82;81;82;0;81;81;81;;;;;;;;;;;;;;;;;;;;;;;392.0778793;393.216932;393.216932;393.216932;393.216932;393.216932;393.216932;393.216932;393.216932;396.2381351;396.2381351;396.2381351;396.2381351;396.2381351;396.2381351;None;0;;;C:\2023\REPSWITCH21092023\REPSWITCH_excgange\REPSWITCH_excgange\data/240204_REPSWITCH1_version2_list4_2023-12-01_16h45.36.179_micRespv2l4_recorded\recording_micRespv2l4_2023-12-01_16h52.05.708.wav;396.2381351;396.7382076;None;;;;;;240204;1;2023-12-01_16h45.36.179;REPSWITCH1_version2_list4;2022.2.4;143.9642282;
REPSWITCH1/PICTURE_271.png;conejo;type;gold;filler;1;F;4;4;4;2;Stim7_Set3;0;None;83;82;83;0;82;82;82;;;;;;;;;;;;;;;;;;;;;;;396.7382076;397.7799981;397.7799981;397.7799981;397.7799981;397.7799981;397.7799981;397.7799981;397.7799981;400.8012307;400.8012307;400.8012307;400.8012307;400.8012307;400.8012307;['c', 'o', 'e', 'n', 'j', 'o'];0;[0.7658740000333637, 0.8057144999038428, 0.9283940999303013, 0.9542296000290662, 1.128010499989614, 1.2864210000261664];coenjo;C:\2023\REPSWITCH21092023\REPSWITCH_excgange\REPSWITCH_excgange\data/240204_REPSWITCH1_version2_list4_2023-12-01_16h45.36.179_micRespv2l4_recorded\recording_micRespv2l4_2023-12-01_16h52.10.271.wav;400.8012307;401.3012689;None;;;;;;240204;1;2023-12-01_16h45.36.179;REPSWITCH1_version2_list4;2022.2.4;143.9642282;
REPSWITCH1/PICTURE_687.png;camisa;speak;darkblue;nontarget;2;NT;4;4;4;2;Stim5_Set4;1;switch;84;83;84;0;83;83;83;;;;;;;;;;;;;;;;;;;;;;;401.3012689;402.4195356;402.4195356;402.4195356;402.4195356;402.4195356;402.4195356;402.4195356;402.4195356;405.4407188;405.4407188;405.4407188;405.4407188;405.4407188;405.4407188;None;0;;;C:\2023\REPSWITCH21092023\REPSWITCH_excgange\REPSWITCH_excgange\data/240204_REPSWITCH1_version2_list4_2023-12-01_16h45.36.179_micRespv2l4_recorded\recording_micRespv2l4_2023-12-01_16h52.14.911.wav;405.4407188;405.9408147;None;;;;;;240204;1;2023-12-01_16h45.36.179;REPSWITCH1_version2_list4;2022.2.4;143.9642282;
REPSWITCH1/PICTURE_687.png;camisa;speak;darkblue;repeat;2;T;4;4;4;2;Stim5_Set4;0;None;85;84;85;0;84;84;84;;;;;;;;;;;;;;;;;;;;;;;405.9408147;407.0312082;407.0312082;407.0312082;407.0312082;407.0312082;407.0312082;407.0312082;407.0312082;410.0524359;410.0524359;410.0524359;410.0524359;410.0524359;410.0524359;None;0;;;C:\2023\REPSWITCH21092023\REPSWITCH_excgange\REPSWITCH_excgange\data/240204_REPSWITCH1_version2_list4_2023-12-01_16h45.36.179_micRespv2l4_recorded\recording_micRespv2l4_2023-12-01_16h52.19.522.wav;410.0524359;410.552507;None;;;;;;240204;1;2023-12-01_16h45.36.179;REPSWITCH1_version2_list4;2022.2.4;143.9642282;
REPSWITCH1/PICTURE_319.png;vaca;speak;darkblue;nontarget;2;NT;4;4;4;2;Stim1_Set4;0;None;86;85;86;0;85;85;85;;;;;;;;;;;;;;;;;;;;;;;410.552507;411.6082507;411.6082507;411.6082507;411.6082507;411.6082507;411.6082507;411.6082507;411.6082507;414.6363615;414.6363615;414.6363615;414.6363615;414.6363615;414.6363615;None;0;;;C:\2023\REPSWITCH21092023\REPSWITCH_excgange\REPSWITCH_excgange\data/240204_REPSWITCH1_version2_list4_2023-12-01_16h45.36.179_micRespv2l4_recorded\recording_micRespv2l4_2023-12-01_16h52.24.100.wav;414.6363615;;None;;;;;;240204;1;2023-12-01_16h45.36.179;REPSWITCH1_version2_list4;2022.2.4;143.9642282;
REPSWITCH1/PICTURE_319.png;vaca;type;gold;switch;1;T;4;4;4;2;Stim1_Set4;0;None;87;86;87;0;86;86;86;;;;;;;;;;;;;;;;;;;;;;;415.1364183;416.2894136;416.2894136;416.2894136;416.2894136;416.2894136;416.2894136;416.2894136;416.2894136;419.3106079;419.3106079;419.3106079;419.3106079;419.3106079;419.3106079;['v', 'a', 'c', 'a'];0;[0.76318410015665, 0.8578299002256244, 1.0105818000156432, 1.0813484000973403];vaca;C:\2023\REPSWITCH21092023\REPSWITCH_excgange\REPSWITCH_excgange\data/240204_REPSWITCH1_version2_list4_2023-12-01_16h45.36.179_micRespv2l4_recorded\recording_micRespv2l4_2023-12-01_16h52.28.781.wav;419.3106079;419.8107608;None;;;;;;240204;1;2023-12-01_16h45.36.179;REPSWITCH1_version2_list4;2022.2.4;143.9642282;
REPSWITCH1/PICTURE_242.png;cartero;speak;darkblue;filler;2;F;4;4;4;2;Stim3_Set3;0;None;88;87;88;0;87;87;87;;;;;;;;;;;;;;;;;;;;;;;419.8107608;420.894158;420.894158;420.894158;420.894158;420.894158;420.894158;420.894158;420.894158;423.915425;423.915425;423.915425;423.915425;423.915425;423.915425;None;0;;;C:\2023\REPSWITCH21092023\REPSWITCH_excgange\REPSWITCH_excgange\data/240204_REPSWITCH1_version2_list4_2023-12-01_16h45.36.179_micRespv2l4_recorded\recording_micRespv2l4_2023-12-01_16h52.33.385.wav;423.915425;424.4154405;None;;;;;;240204;1;2023-12-01_16h45.36.179;REPSWITCH1_version2_list4;2022.2.4;143.9642282;
REPSWITCH1/PICTURE_498.png;taza;type;gold;nontarget;1;NT;4;4;4;2;Stim4_Set4;1;switch;89;88;89;0;88;88;88;;;;;;;;;;;;;;;;;;;;;;;424.4154405;425.512818;425.512818;425.512818;425.512818;425.512818;425.512818;425.512818;425.512818;428.534059;428.534059;428.534059;428.534059;428.534059;428.534059;['t', 'a', 'z', 'a'];0;[0.945900300052017, 1.035510400077328, 1.3674217001534998, 1.5790362001862377];taza;C:\2023\REPSWITCH21092023\REPSWITCH_excgange\REPSWITCH_excgange\data/240204_REPSWITCH1_version2_list4_2023-12-01_16h45.36.179_micRespv2l4_recorded\recording_micRespv2l4_2023-12-01_16h52.38.003.wav;428.534059;429.034118;None;;;;;;240204;1;2023-12-01_16h45.36.179;REPSWITCH1_version2_list4;2022.2.4;143.9642282;
REPSWITCH1/PICTURE_498.png;taza;speak;darkblue;switch;2;T;4;4;4;2;Stim4_Set4;0;None;90;89;90;0;89;89;89;;;;;;;;;;;;;;;;;;;;;;;429.034118;430.2079195;430.2079195;430.2079195;430.2079195;430.2079195;430.2079195;430.2079195;430.2079195;433.2360894;433.2360894;433.2360894;433.2360894;433.2360894;433.2360894;None;0;;;C:\2023\REPSWITCH21092023\REPSWITCH_excgange\REPSWITCH_excgange\data/240204_REPSWITCH1_version2_list4_2023-12-01_16h45.36.179_micRespv2l4_recorded\recording_micRespv2l4_2023-12-01_16h52.42.700.wav;433.2360894;;None;;;;;;240204;1;2023-12-01_16h45.36.179;REPSWITCH1_version2_list4;2022.2.4;143.9642282;
REPSWITCH1/PICTURE_391.png;cadena;type;gold;filler;1;F;4;4;4;2;Extra2;0;None;91;90;91;0;90;90;90;;;;;;;;;;;;;;;;;;;;;;;433.7361142;434.9237565;434.9237565;434.9237565;434.9237565;434.9237565;434.9237565;434.9237565;434.9237565;437.9450137;437.9450137;437.9450137;437.9450137;437.9450137;437.9450137;['c', 'a', 'd', 'e', 'n', 'a'];0;[0.9464330000337213, 1.01622510002926, 1.186613499885425, 1.2873223000206053, 1.420133400009945, 1.5108380999881774];cadena;C:\2023\REPSWITCH21092023\REPSWITCH_excgange\REPSWITCH_excgange\data/240204_REPSWITCH1_version2_list4_2023-12-01_16h45.36.179_micRespv2l4_recorded\recording_micRespv2l4_2023-12-01_16h52.47.414.wav;437.9450137;438.4450618;None;;;;;;240204;1;2023-12-01_16h45.36.179;REPSWITCH1_version2_list4;2022.2.4;143.9642282;
REPSWITCH1/PICTURE_610.png;miel;speak;darkblue;filler;2;F;4;4;4;2;Stim2_Set3;0;None;92;91;92;0;91;91;91;;;;;;;;;;;;;;;;;;;;;;;438.4450618;439.4938162;439.4938162;439.4938162;439.4938162;439.4938162;439.4938162;439.4938162;439.4938162;442.522075;442.522075;442.522075;442.522075;442.522075;442.522075;None;0;;;C:\2023\REPSWITCH21092023\REPSWITCH_excgange\REPSWITCH_excgange\data/240204_REPSWITCH1_version2_list4_2023-12-01_16h45.36.179_micRespv2l4_recorded\recording_micRespv2l4_2023-12-01_16h52.51.985.wav;442.522075;;None;;;;;;240204;1;2023-12-01_16h45.36.179;REPSWITCH1_version2_list4;2022.2.4;143.9642282;
REPSWITCH1/PICTURE_48.png;bombero;speak;darkblue;nontarget;2;NT;4;4;4;2;Stim7_Set4;1;repeat;93;92;93;0;92;92;92;;;;;;;;;;;;;;;;;;;;;;;443.0220626;444.1472241;444.1472241;444.1472241;444.1472241;444.1472241;444.1472241;444.1472241;444.1472241;447.1753608;447.1753608;447.1753608;447.1753608;447.1753608;447.1753608;None;0;;;C:\2023\REPSWITCH21092023\REPSWITCH_excgange\REPSWITCH_excgange\data/240204_REPSWITCH1_version2_list4_2023-12-01_16h45.36.179_micRespv2l4_recorded\recording_micRespv2l4_2023-12-01_16h52.56.639.wav;447.1753608;;None;;;;;;240204;1;2023-12-01_16h45.36.179;REPSWITCH1_version2_list4;2022.2.4;143.9642282;
REPSWITCH1/PICTURE_48.png;bombero;speak;darkblue;repeat;2;T;4;4;4;2;Stim7_Set4;0;None;94;93;94;0;93;93;93;;;;;;;;;;;;;;;;;;;;;;;447.6755012;448.7867024;448.7867024;448.7867024;448.7867024;448.7867024;448.7867024;448.7867024;448.7867024;451.8079434;451.8079434;451.8079434;451.8079434;451.8079434;451.8079434;None;0;;;C:\2023\REPSWITCH21092023\REPSWITCH_excgange\REPSWITCH_excgange\data/240204_REPSWITCH1_version2_list4_2023-12-01_16h45.36.179_micRespv2l4_recorded\recording_micRespv2l4_2023-12-01_16h53.01.278.wav;451.8079434;452.3080049;None;;;;;;240204;1;2023-12-01_16h45.36.179;REPSWITCH1_version2_list4;2022.2.4;143.9642282;
REPSWITCH1/PICTURE_320.png;iglesia;type;gold;filler;1;F;4;4;4;2;Stim8_Set3;1;switch;95;94;95;0;94;94;94;;;;;;;;;;;;;;;;;;;;;;;452.3080049;453.3428414;453.3428414;453.3428414;453.3428414;453.3428414;453.3428414;453.3428414;453.3428414;456.3641377;456.3641377;456.3641377;456.3641377;456.3641377;456.3641377;['i', 'g', 'l', 'e', 's', 'i', 'a'];0;[0.9449263999704272, 1.044680600054562, 1.148288100026548, 1.20409270003438, 1.710798199987039, 1.8085309001617134, 1.8538383999839425];iglesia;C:\2023\REPSWITCH21092023\REPSWITCH_excgange\REPSWITCH_excgange\data/240204_REPSWITCH1_version2_list4_2023-12-01_16h45.36.179_micRespv2l4_recorded\recording_micRespv2l4_2023-12-01_16h53.05.834.wav;456.3641377;456.8642296;None;;;;;;240204;1;2023-12-01_16h45.36.179;REPSWITCH1_version2_list4;2022.2.4;143.9642282;
REPSWITCH1/PICTURE_35.png;oreja;speak;darkblue;filler;2;F;4;4;4;2;Stim5_Set3;0;None;96;95;96;0;95;95;95;;;;;;;;;;;;;;;;;;;;;;;456.8642296;457.8852052;457.8852052;457.8852052;457.8852052;457.8852052;457.8852052;457.8852052;457.8852052;460.913277;460.913277;460.913277;460.913277;460.913277;460.913277;None;0;;;C:\2023\REPSWITCH21092023\REPSWITCH_excgange\REPSWITCH_excgange\data/240204_REPSWITCH1_version2_list4_2023-12-01_16h45.36.179_micRespv2l4_recorded\recording_micRespv2l4_2023-12-01_16h53.10.377.wav;460.913277;;None;;;;;;240204;1;2023-12-01_16h45.36.179;REPSWITCH1_version2_list4;2022.2.4;143.9642282;
REPSWITCH1/PICTURE_728.png;pulpo;speak;darkblue;nontarget;2;NT;4;4;4;2;Stim8_Set4;1;repeat;97;96;97;0;96;96;96;;;;;;;;;;;;;;;;;;;;;;;461.41333;462.4690685;462.4690685;462.4690685;462.4690685;462.4690685;462.4690685;462.4690685;462.4690685;465.4902616;465.4902616;465.4902616;465.4902616;465.4902616;465.4902616;None;0;;;C:\2023\REPSWITCH21092023\REPSWITCH_excgange\REPSWITCH_excgange\data/240204_REPSWITCH1_version2_list4_2023-12-01_16h45.36.179_micRespv2l4_recorded\recording_micRespv2l4_2023-12-01_16h53.14.960.wav;465.4902616;465.9903218;None;;;;;;240204;1;2023-12-01_16h45.36.179;REPSWITCH1_version2_list4;2022.2.4;143.9642282;
REPSWITCH1/PICTURE_728.png;pulpo;type;gold;switch;1;T;4;4;4;2;Stim8_Set4;0;None;98;97;98;0;97;97;97;;;;;;;;;;;;;;;;;;;;;;;465.9903218;467.0807717;467.0807717;467.0807717;467.0807717;467.0807717;467.0807717;467.0807717;467.0807717;470.1020099;470.1020099;470.1020099;470.1020099;470.1020099;470.1020099;['p', 'u', 'l', 'p', 'o'];0;[1.6306056000757962, 1.819061400135979, 2.5386573001742363, 2.6692292001098394, 2.7857929000165313];pulpo;C:\2023\REPSWITCH21092023\REPSWITCH_excgange\REPSWITCH_excgange\data/240204_REPSWITCH1_version2_list4_2023-12-01_16h45.36.179_micRespv2l4_recorded\recording_micRespv2l4_2023-12-01_16h53.19.572.wav;470.1020099;470.6020652;None;;;;;;240204;1;2023-12-01_16h45.36.179;REPSWITCH1_version2_list4;2022.2.4;143.9642282;
REPSWITCH1/PICTURE_590.png;escoba;speak;darkblue;filler;2;F;4;4;4;2;Extra3;0;None;99;98;99;0;98;98;98;;;;;;;;;;;;;;;;;;;;;;;470.6020652;471.7064601;471.7064601;471.7064601;471.7064601;471.7064601;471.7064601;471.7064601;471.7064601;474.7345902;474.7345902;474.7345902;474.7345902;474.7345902;474.7345902;None;0;;;C:\2023\REPSWITCH21092023\REPSWITCH_excgange\REPSWITCH_excgange\data/240204_REPSWITCH1_version2_list4_2023-12-01_16h45.36.179_micRespv2l4_recorded\recording_micRespv2l4_2023-12-01_16h53.24.198.wav;474.7345902;;None;;;;;;240204;1;2023-12-01_16h45.36.179;REPSWITCH1_version2_list4;2022.2.4;143.9642282;
REPSWITCH1/PICTURE_235.png;aguja;type;gold;filler;1;F;4;4;4;2;Stim4_Set3;0;None;100;99;100;0;99;99;99;;;;;;;;;;;;;;;;;;;;;;;475.2346338;476.2556239;476.2556239;476.2556239;476.2556239;476.2556239;476.2556239;476.2556239;476.2556239;479.2768359;479.2768359;479.2768359;479.2768359;479.2768359;479.2768359;['a', 'g', 'u', 'j', 'a'];0;[0.8630945000331849, 0.965727600036189, 1.0474680000916123, 1.196003100136295, 1.2637211999390274];aguja;C:\2023\REPSWITCH21092023\REPSWITCH_excgange\REPSWITCH_excgange\data/240204_REPSWITCH1_version2_list4_2023-12-01_16h45.36.179_micRespv2l4_recorded\recording_micRespv2l4_2023-12-01_16h53.28.746.wav;479.2768359;479.776892;None;;;;;;240204;1;2023-12-01_16h45.36.179;REPSWITCH1_version2_list4;2022.2.4;143.9642282;
REPSWITCH1/PICTURE_719.png;baño;type;gold;nontarget;1;NT;4;4;4;2;Stim2_Set4;1;repeat;101;100;101;0;100;100;100;;;;;;;;;;;;;;;;;;;;;;;479.776892;480.832601;480.832601;480.832601;480.832601;480.832601;480.832601;480.832601;480.832601;483.8608028;483.8608028;483.8608028;483.8608028;483.8608028;483.8608028;['b', 'a', 'ñ', 'o'];0;[0.9955657001119107, 1.086201900150627, 1.4431533999741077, 1.5809846001211554];baño;C:\2023\REPSWITCH21092023\REPSWITCH_excgange\REPSWITCH_excgange\data/240204_REPSWITCH1_version2_list4_2023-12-01_16h45.36.179_micRespv2l4_recorded\recording_micRespv2l4_2023-12-01_16h53.33.324.wav;483.8608028;;None;;;;;;240204;1;2023-12-01_16h45.36.179;REPSWITCH1_version2_list4;2022.2.4;143.9642282;
REPSWITCH1/PICTURE_719.png;baño;type;gold;repeat;1;T;4;4;4;2;Stim2_Set4;0;None;102;101;102;0;101;101;101;;;;;;;;;;;;;;;;;;;;;;;484.3608873;485.4652025;485.4652025;485.4652025;485.4652025;485.4652025;485.4652025;485.4652025;485.4652025;488.4933657;488.4933657;488.4933657;488.4933657;488.4933657;488.4933657;['b', 'a', 'ñ', 'o'];0;[0.6728707002475858, 0.7503465001937002, 1.1164879000280052, 1.2360583001282066];baño;C:\2023\REPSWITCH21092023\REPSWITCH_excgange\REPSWITCH_excgange\data/240204_REPSWITCH1_version2_list4_2023-12-01_16h45.36.179_micRespv2l4_recorded\recording_micRespv2l4_2023-12-01_16h53.37.956.wav;488.4933657;;space;488.9933574;488.9933574;1.0075863;;;240204;1;2023-12-01_16h45.36.179;REPSWITCH1_version2_list4;2022.2.4;143.9642282;
REPSWITCH1/PICTURE_646.png;tronco;speak;darkblue;filler;2;F;1;3;4;2;Extra4;0;None;103;102;1;0;102;102;102;;;;;;;;;;;;;;;;;;;;;;;490.01435;491.0770506;491.0770506;491.0770506;491.0770506;491.0770506;491.0770506;491.0770506;491.0770506;494.1051993;494.1051993;494.1051993;494.1051993;494.1051993;494.1051993;None;0;;;C:\2023\REPSWITCH21092023\REPSWITCH_excgange\REPSWITCH_excgange\data/240204_REPSWITCH1_version2_list4_2023-12-01_16h45.36.179_micRespv2l4_recorded\recording_micRespv2l4_2023-12-01_16h53.43.569.wav;494.1051993;;None;;;;;;240204;1;2023-12-01_16h45.36.179;REPSWITCH1_version2_list4;2022.2.4;143.9642282;
REPSWITCH1/PICTURE_340.png;espejo;type;gold;filler;1;F;1;3;4;2;Extra1;0;None;104;103;2;0;103;103;103;;;;;;;;;;;;;;;;;;;;;;;494.6052046;495.6261807;495.6261807;495.6261807;495.6261807;495.6261807;495.6261807;495.6261807;495.6261807;498.6544195;498.6544195;498.6544195;498.6544195;498.6544195;498.6544195;['e', 's', 'p', 'e', 'j', 'o'];0;[0.7870302000083029, 0.9405179000459611, 1.4757912000641227, 1.6679227000568062, 2.24377500009723, 2.3016135999932885];espejo;C:\2023\REPSWITCH21092023\REPSWITCH_excgange\REPSWITCH_excgange\data/240204_REPSWITCH1_version2_list4_2023-12-01_16h45.36.179_micRespv2l4_recorded\recording_micRespv2l4_2023-12-01_16h53.48.118.wav;498.6544195;;None;;;;;;240204;1;2023-12-01_16h45.36.179;REPSWITCH1_version2_list4;2022.2.4;143.9642282;
REPSWITCH1/PICTURE_338.png;regalo;speak;darkblue;filler;2;F;1;3;4;2;Stim6_Set4;0;None;105;104;3;0;104;104;104;;;;;;;;;;;;;;;;;;;;;;;499.1544151;500.314333;500.314333;500.314333;500.314333;500.314333;500.314333;500.314333;500.314333;503.3355693;503.3355693;503.3355693;503.3355693;503.3355693;503.3355693;None;0;;;C:\2023\REPSWITCH21092023\REPSWITCH_excgange\REPSWITCH_excgange\data/240204_REPSWITCH1_version2_list4_2023-12-01_16h45.36.179_micRespv2l4_recorded\recording_micRespv2l4_2023-12-01_16h53.52.806.wav;503.3355693;503.8356111;None;;;;;;240204;1;2023-12-01_16h45.36.179;REPSWITCH1_version2_list4;2022.2.4;143.9642282;
REPSWITCH1/PICTURE_142.png;vaso;speak;darkblue;nontarget;2;NT;1;3;4;2;Stim7_Set1;1;repeat;106;105;4;0;105;105;105;;;;;;;;;;;;;;;;;;;;;;;503.8356111;504.8565738;504.8565738;504.8565738;504.8565738;504.8565738;504.8565738;504.8565738;504.8565738;507.8848169;507.8848169;507.8848169;507.8848169;507.8848169;507.8848169;None;0;;;C:\2023\REPSWITCH21092023\REPSWITCH_excgange\REPSWITCH_excgange\data/240204_REPSWITCH1_version2_list4_2023-12-01_16h45.36.179_micRespv2l4_recorded\recording_micRespv2l4_2023-12-01_16h53.57.348.wav;507.8848169;;None;;;;;;240204;1;2023-12-01_16h45.36.179;REPSWITCH1_version2_list4;2022.2.4;143.9642282;
REPSWITCH1/PICTURE_142.png;vaso;speak;darkblue;repeat;2;T;1;3;4;2;Stim7_Set1;0;None;107;106;5;0;106;106;106;;;;;;;;;;;;;;;;;;;;;;;508.3848166;509.4613221;509.4613221;509.4613221;509.4613221;509.4613221;509.4613221;509.4613221;509.4613221;512.4826596;512.4826596;512.4826596;512.4826596;512.4826596;512.4826596;None;0;;;C:\2023\REPSWITCH21092023\REPSWITCH_excgange\REPSWITCH_excgange\data/240204_REPSWITCH1_version2_list4_2023-12-01_16h45.36.179_micRespv2l4_recorded\recording_micRespv2l4_2023-12-01_16h54.01.953.wav;512.4826596;512.9826422;None;;;;;;240204;1;2023-12-01_16h45.36.179;REPSWITCH1_version2_list4;2022.2.4;143.9642282;
REPSWITCH1/PICTURE_498.png;taza;type;gold;filler;1;F;1;3;4;2;Stim4_Set4;0;None;108;107;6;0;107;107;107;;;;;;;;;;;;;;;;;;;;;;;512.9826422;514.1286434;514.1286434;514.1286434;514.1286434;514.1286434;514.1286434;514.1286434;514.1286434;517.1567974;517.1567974;517.1567974;517.1567974;517.1567974;517.1567974;['t', 'a', 'z', 'a'];0;[0.8567487001419067, 0.9192737000994384, 1.2308388000819832, 1.3274753000587225];taza;C:\2023\REPSWITCH21092023\REPSWITCH_excgange\REPSWITCH_excgange\data/240204_REPSWITCH1_version2_list4_2023-12-01_16h45.36.179_micRespv2l4_recorded\recording_micRespv2l4_2023-12-01_16h54.06.620.wav;517.1567974;;None;;;;;;240204;1;2023-12-01_16h45.36.179;REPSWITCH1_version2_list4;2022.2.4;143.9642282;
REPSWITCH1/PICTURE_16.png;cazador;speak;darkblue;nontarget;2;NT;1;3;4;2;Stim6_Set1;1;switch;109;108;7;0;108;108;108;;;;;;;;;;;;;;;;;;;;;;;517.6568436;518.7750776;518.7750776;518.7750776;518.7750776;518.7750776;518.7750776;518.7750776;518.7750776;521.7962797;521.7962797;521.7962797;521.7962797;521.7962797;521.7962797;None;0;;;C:\2023\REPSWITCH21092023\REPSWITCH_excgange\REPSWITCH_excgange\data/240204_REPSWITCH1_version2_list4_2023-12-01_16h45.36.179_micRespv2l4_recorded\recording_micRespv2l4_2023-12-01_16h54.11.266.wav;521.7962797;522.2963287;None;;;;;;240204;1;2023-12-01_16h45.36.179;REPSWITCH1_version2_list4;2022.2.4;143.9642282;
REPSWITCH1/PICTURE_16.png;cazador;speak;darkblue;repeat;2;T;1;3;4;2;Stim6_Set1;0;None;110;109;8;0;109;109;109;;;;;;;;;;;;;;;;;;;;;;;522.2963287;523.3242718;523.3242718;523.3242718;523.3242718;523.3242718;523.3242718;523.3242718;523.3242718;526.3455144;526.3455144;526.3455144;526.3455144;526.3455144;526.3455144;None;0;;;C:\2023\REPSWITCH21092023\REPSWITCH_excgange\REPSWITCH_excgange\data/240204_REPSWITCH1_version2_list4_2023-12-01_16h45.36.179_micRespv2l4_recorded\recording_micRespv2l4_2023-12-01_16h54.15.815.wav;526.3455144;526.8455667;None;;;;;;240204;1;2023-12-01_16h45.36.179;REPSWITCH1_version2_list4;2022.2.4;143.9642282;
REPSWITCH1/PICTURE_719.png;baño;type;gold;filler;1;F;1;3;4;2;Stim2_Set4;0;None;111;110;9;0;110;110;110;;;;;;;;;;;;;;;;;;;;;;;526.8455667;528.0263596;528.0263596;528.0263596;528.0263596;528.0263596;528.0263596;528.0263596;528.0263596;531.0475635;531.0475635;531.0475635;531.0475635;531.0475635;531.0475635;['b', 'a', 'ñ', 'o'];0;[0.7812790002208203, 0.8589178002439439, 1.2011621003039181, 1.3287645000964403];baño;C:\2023\REPSWITCH21092023\REPSWITCH_excgange\REPSWITCH_excgange\data/240204_REPSWITCH1_version2_list4_2023-12-01_16h45.36.179_micRespv2l4_recorded\recording_micRespv2l4_2023-12-01_16h54.20.517.wav;531.0475635;531.547585;None;;;;;;240204;1;2023-12-01_16h45.36.179;REPSWITCH1_version2_list4;2022.2.4;143.9642282;
REPSWITCH1/PICTURE_169.png;espalda;speak;darkblue;nontarget;2;NT;1;3;4;2;Stim8_Set1;0;None;112;111;10;0;111;111;111;;;;;;;;;;;;;;;;;;;;;;;531.547585;532.6310558;532.6310558;532.6310558;532.6310558;532.6310558;532.6310558;532.6310558;532.6310558;535.6592046;535.6592046;535.6592046;535.6592046;535.6592046;535.6592046;None;0;;;C:\2023\REPSWITCH21092023\REPSWITCH_excgange\REPSWITCH_excgange\data/240204_REPSWITCH1_version2_list4_2023-12-01_16h45.36.179_micRespv2l4_recorded\recording_micRespv2l4_2023-12-01_16h54.25.122.wav;535.6592046;;None;;;;;;240204;1;2023-12-01_16h45.36.179;REPSWITCH1_version2_list4;2022.2.4;143.9642282;
REPSWITCH1/PICTURE_169.png;espalda;type;gold;switch;1;T;1;3;4;2;Stim8_Set1;0;None;113;112;11;0;112;112;112;;;;;;;;;;;;;;;;;;;;;;;536.1592928;537.2844848;537.2844848;537.2844848;537.2844848;537.2844848;537.2844848;537.2844848;537.2844848;540.3056929;540.3056929;540.3056929;540.3056929;540.3056929;540.3056929;['e', 's', 'p', 'a', 'l', 'd', 'a'];0;[0.8916488999966532, 1.0424977999646217, 1.7013091000262648, 1.8013150000479072, 1.8391869000624865, 1.946835800074041, 2.0195798999629915];espalda;C:\2023\REPSWITCH21092023\REPSWITCH_excgange\REPSWITCH_excgange\data/240204_REPSWITCH1_version2_list4_2023-12-01_16h45.36.179_micRespv2l4_recorded\recording_micRespv2l4_2023-12-01_16h54.29.776.wav;540.3056929;540.8057361;None;;;;;;240204;1;2023-12-01_16h45.36.179;REPSWITCH1_version2_list4;2022.2.4;143.9642282;
REPSWITCH1/PICTURE_687.png;camisa;type;gold;filler;1;F;1;3;4;2;Stim5_Set4;0;None;114;113;12;0;113;113;113;;;;;;;;;;;;;;;;;;;;;;;540.8057361;541.8753459;541.8753459;541.8753459;541.8753459;541.8753459;541.8753459;541.8753459;541.8753459;544.8966002;544.8966002;544.8966002;544.8966002;544.8966002;544.8966002;['c', 'a', 'm', 'i', 's', 'a'];0;[1.0243635999504477, 1.0742031999398023, 1.270770699949935, 1.3874240000732243, 1.4272473000455648, 1.5559610000345856];camisa;C:\2023\REPSWITCH21092023\REPSWITCH_excgange\REPSWITCH_excgange\data/240204_REPSWITCH1_version2_list4_2023-12-01_16h45.36.179_micRespv2l4_recorded\recording_micRespv2l4_2023-12-01_16h54.34.367.wav;544.8966002;545.3966137;None;;;;;;240204;1;2023-12-01_16h45.36.179;REPSWITCH1_version2_list4;2022.2.4;143.9642282;
REPSWITCH1/PICTURE_178.png;puente;type;gold;nontarget;1;NT;1;3;4;2;Stim1_Set1;1;repeat;115;114;13;0;114;114;114;;;;;;;;;;;;;;;;;;;;;;;545.3966137;546.4939727;546.4939727;546.4939727;546.4939727;546.4939727;546.4939727;546.4939727;546.4939727;549.5221643;549.5221643;549.5221643;549.5221643;549.5221643;549.5221643;['p', 'u', 'e', 't', 'n', 'e'];0;[0.8036725001875311, 1.4405375001952052, 1.5482400001492351, 1.6358905001543462, 1.64086510008201, 1.7218628001865];puetne;C:\2023\REPSWITCH21092023\REPSWITCH_excgange\REPSWITCH_excgange\data/240204_REPSWITCH1_version2_list4_2023-12-01_16h45.36.179_micRespv2l4_recorded\recording_micRespv2l4_2023-12-01_16h54.38.986.wav;549.5221643;;None;;;;;;240204;1;2023-12-01_16h45.36.179;REPSWITCH1_version2_list4;2022.2.4;143.9642282;
REPSWITCH1/PICTURE_178.png;puente;speak;darkblue;switch;2;T;1;3;4;2;Stim1_Set1;0;None;116;115;14;0;115;115;115;;;;;;;;;;;;;;;;;;;;;;;550.0222054;551.0848633;551.0848633;551.0848633;551.0848633;551.0848633;551.0848633;551.0848633;551.0848633;554.1061085;554.1061085;554.1061085;554.1061085;554.1061085;554.1061085;None;0;;;C:\2023\REPSWITCH21092023\REPSWITCH_excgange\REPSWITCH_excgange\data/240204_REPSWITCH1_version2_list4_2023-12-01_16h45.36.179_micRespv2l4_recorded\recording_micRespv2l4_2023-12-01_16h54.43.576.wav;554.1061085;554.6061735;None;;;;;;240204;1;2023-12-01_16h45.36.179;REPSWITCH1_version2_list4;2022.2.4;143.9642282;
REPSWITCH1/PICTURE_128.png;muñeca;speak;darkblue;nontarget;2;NT;1;3;4;2;Stim4_Set1;1;repeat;117;116;15;0;116;116;116;;;;;;;;;;;;;;;;;;;;;;;554.6061735;555.7868692;555.7868692;555.7868692;555.7868692;555.7868692;555.7868692;555.7868692;555.7868692;558.808098;558.808098;558.808098;558.808098;558.808098;558.808098;None;0;;;C:\2023\REPSWITCH21092023\REPSWITCH_excgange\REPSWITCH_excgange\data/240204_REPSWITCH1_version2_list4_2023-12-01_16h45.36.179_micRespv2l4_recorded\recording_micRespv2l4_2023-12-01_16h54.48.278.wav;558.808098;559.3081728;None;;;;;;240204;1;2023-12-01_16h45.36.179;REPSWITCH1_version2_list4;2022.2.4;143.9642282;
REPSWITCH1/PICTURE_128.png;muñeca;type;gold;switch;1;T;1;3;4;2;Stim4_Set1;0;None;118;117;16;0;117;117;117;;;;;;;;;;;;;;;;;;;;;;;559.3081728;560.5027625;560.5027625;560.5027625;560.5027625;560.5027625;560.5027625;560.5027625;560.5027625;563.5239942;563.5239942;563.5239942;563.5239942;563.5239942;563.5239942;['m', 'u', 'ñ', 'e', 'c', 'a'];0;[0.8787760001141578, 1.0514893000945449, 1.5981553001329303, 1.6490339001175016, 1.8075366001576185, 1.8855702001601458];muñeca;C:\2023\REPSWITCH21092023\REPSWITCH_excgange\REPSWITCH_excgange\data/240204_REPSWITCH1_version2_list4_2023-12-01_16h45.36.179_micRespv2l4_recorded\recording_micRespv2l4_2023-12-01_16h54.52.994.wav;563.5239942;564.0240558;None;;;;;;240204;1;2023-12-01_16h45.36.179;REPSWITCH1_version2_list4;2022.2.4;143.9642282;
REPSWITCH1/PICTURE_319.png;vaca;speak;darkblue;filler;2;F;1;3;4;2;Stim1_Set4;1;switch;119;118;17;0;118;118;118;;;;;;;;;;;;;;;;;;;;;;;564.0240558;565.0936945;565.0936945;565.0936945;565.0936945;565.0936945;565.0936945;565.0936945;565.0936945;568.1218304;568.1218304;568.1218304;568.1218304;568.1218304;568.1218304;None;0;;;C:\2023\REPSWITCH21092023\REPSWITCH_excgange\REPSWITCH_excgange\data/240204_REPSWITCH1_version2_list4_2023-12-01_16h45.36.179_micRespv2l4_recorded\recording_micRespv2l4_2023-12-01_16h54.57.585.wav;568.1218304;;None;;;;;;240204;1;2023-12-01_16h45.36.179;REPSWITCH1_version2_list4;2022.2.4;143.9642282;
REPSWITCH1/PICTURE_728.png;pulpo;speak;darkblue;filler;2;F;1;3;4;2;Stim8_Set4;0;None;120;119;18;0;119;119;119;;;;;;;;;;;;;;;;;;;;;;;568.6219014;569.6498061;569.6498061;569.6498061;569.6498061;569.6498061;569.6498061;569.6498061;569.6498061;572.6710222;572.6710222;572.6710222;572.6710222;572.6710222;572.6710222;['p', 'u', 'l', 'p', 'o'];0;[0.8838204999919981, 1.068324400112033, 1.498466500081122, 1.6120261000469327, 1.705676200101152];pulpo;C:\2023\REPSWITCH21092023\REPSWITCH_excgange\REPSWITCH_excgange\data/240204_REPSWITCH1_version2_list4_2023-12-01_16h45.36.179_micRespv2l4_recorded\recording_micRespv2l4_2023-12-01_16h55.02.141.wav;572.6710222;573.1711044;None;;;;;;240204;1;2023-12-01_16h45.36.179;REPSWITCH1_version2_list4;2022.2.4;143.9642282;
REPSWITCH1/PICTURE_381.png;fresa;type;gold;nontarget;1;NT;1;3;4;2;Stim2_Set1;1;switch;121;120;19;0;120;120;120;;;;;;;;;;;;;;;;;;;;;;;573.1711044;574.3588195;574.3588195;574.3588195;574.3588195;574.3588195;574.3588195;574.3588195;574.3588195;577.3869181;577.3869181;577.3869181;577.3869181;577.3869181;577.3869181;['f', 'r', 'e', 's', 'a'];0;[0.9296426000073552, 1.002573600038886, 1.045689000049606, 1.2430465000215918, 1.3476726000662893];fresa;C:\2023\REPSWITCH21092023\REPSWITCH_excgange\REPSWITCH_excgange\data/240204_REPSWITCH1_version2_list4_2023-12-01_16h45.36.179_micRespv2l4_recorded\recording_micRespv2l4_2023-12-01_16h55.06.850.wav;577.3869181;;None;;;;;;240204;1;2023-12-01_16h45.36.179;REPSWITCH1_version2_list4;2022.2.4;143.9642282;
REPSWITCH1/PICTURE_381.png;fresa;type;gold;repeat;1;T;1;3;4;2;Stim2_Set1;0;None;122;121;20;0;121;121;121;;;;;;;;;;;;;;;;;;;;;;;577.8870484;578.9635811;578.9635811;578.9635811;578.9635811;578.9635811;578.9635811;578.9635811;578.9635811;581.9917096;581.9917096;581.9917096;581.9917096;581.9917096;581.9917096;['f', 'r', 'e', 's', 'a'];0;[0.6815162000712007, 0.8060518000274897, 0.8457748000510037, 1.0530018999706954, 1.1566659999080002];fresa;C:\2023\REPSWITCH21092023\REPSWITCH_excgange\REPSWITCH_excgange\data/240204_REPSWITCH1_version2_list4_2023-12-01_16h45.36.179_micRespv2l4_recorded\recording_micRespv2l4_2023-12-01_16h55.11.456.wav;581.9917096;;None;;;;;;240204;1;2023-12-01_16h45.36.179;REPSWITCH1_version2_list4;2022.2.4;143.9642282;
REPSWITCH1/PICTURE_8.png;pierna;speak;darkblue;filler;2;F;1;3;4;2;Stim3_Set4;0;None;123;122;21;0;122;122;122;;;;;;;;;;;;;;;;;;;;;;;582.4917735;583.5474912;583.5474912;583.5474912;583.5474912;583.5474912;583.5474912;583.5474912;583.5474912;586.5687028;586.5687028;586.5687028;586.5687028;586.5687028;586.5687028;None;0;;;C:\2023\REPSWITCH21092023\REPSWITCH_excgange\REPSWITCH_excgange\data/240204_REPSWITCH1_version2_list4_2023-12-01_16h45.36.179_micRespv2l4_recorded\recording_micRespv2l4_2023-12-01_16h55.16.039.wav;586.5687028;587.0687709;None;;;;;;240204;1;2023-12-01_16h45.36.179;REPSWITCH1_version2_list4;2022.2.4;143.9642282;
REPSWITCH1/PICTURE_48.png;bombero;speak;darkblue;filler;2;F;1;3;4;2;Stim7_Set4;0;None;124;123;22;0;123;123;123;;;;;;;;;;;;;;;;;;;;;;;587.0687709;588.1869849;588.1869849;588.1869849;588.1869849;588.1869849;588.1869849;588.1869849;588.1869849;591.2151435;591.2151435;591.2151435;591.2151435;591.2151435;591.2151435;None;0;;;C:\2023\REPSWITCH21092023\REPSWITCH_excgange\REPSWITCH_excgange\data/240204_REPSWITCH1_version2_list4_2023-12-01_16h45.36.179_micRespv2l4_recorded\recording_micRespv2l4_2023-12-01_16h55.20.679.wav;591.2151435;;None;;;;;;240204;1;2023-12-01_16h45.36.179;REPSWITCH1_version2_list4;2022.2.4;143.9642282;
REPSWITCH1/PICTURE_135.png;traje;type;gold;nontarget;1;NT;1;3;4;2;Stim3_Set1;1;switch;125;124;23;0;124;124;124;;;;;;;;;;;;;;;;;;;;;;;591.7151851;592.8125743;592.8125743;592.8125743;592.8125743;592.8125743;592.8125743;592.8125743;592.8125743;595.8338779;595.8338779;595.8338779;595.8338779;595.8338779;595.8338779;['t', 'r', 'a', 'j', 'e'];0;[1.193614600226283, 1.241457900032401, 1.3281536002177745, 1.4646655002143234, 1.5334713000338525];traje;C:\2023\REPSWITCH21092023\REPSWITCH_excgange\REPSWITCH_excgange\data/240204_REPSWITCH1_version2_list4_2023-12-01_16h45.36.179_micRespv2l4_recorded\recording_micRespv2l4_2023-12-01_16h55.25.304.wav;595.8338779;596.3338839;None;;;;;;240204;1;2023-12-01_16h45.36.179;REPSWITCH1_version2_list4;2022.2.4;143.9642282;
REPSWITCH1/PICTURE_135.png;traje;type;gold;repeat;1;T;1;3;4;2;Stim3_Set1;0;None;126;125;24;0;125;125;125;;;;;;;;;;;;;;;;;;;;;;;596.3338839;597.4382002;597.4382002;597.4382002;597.4382002;597.4382002;597.4382002;597.4382002;597.4382002;600.4593765;600.4593765;600.4593765;600.4593765;600.4593765;600.4593765;['t', 'r', 'a', 'j', 'e'];0;[0.5860970001667738, 0.638919600052759, 0.7188337000552565, 0.8395181000232697, 0.8932640000712126];traje;C:\2023\REPSWITCH21092023\REPSWITCH_excgange\REPSWITCH_excgange\data/240204_REPSWITCH1_version2_list4_2023-12-01_16h45.36.179_micRespv2l4_recorded\recording_micRespv2l4_2023-12-01_16h55.29.930.wav;600.4593765;600.9594802;None;;;;;;240204;1;2023-12-01_16h45.36.179;REPSWITCH1_version2_list4;2022.2.4;143.9642282;
REPSWITCH1/PICTURE_19.png;pavo;type;gold;nontarget;1;NT;1;3;4;2;Stim5_Set1;1;repeat;127;126;25;0;126;126;126;;;;;;;;;;;;;;;;;;;;;;;600.9594802;602.0568896;602.0568896;602.0568896;602.0568896;602.0568896;602.0568896;602.0568896;602.0568896;605.0851531;605.0851531;605.0851531;605.0851531;605.0851531;605.0851531;['p', 'a', 'v', 'o'];0;[0.8522234002593905, 0.9042440003249794, 1.0276903002522886, 1.1037488002330065];pavo;C:\2023\REPSWITCH21092023\REPSWITCH_excgange\REPSWITCH_excgange\data/240204_REPSWITCH1_version2_list4_2023-12-01_16h45.36.179_micRespv2l4_recorded\recording_micRespv2l4_2023-12-01_16h55.34.549.wav;605.0851531;;None;;;;;;240204;1;2023-12-01_16h45.36.179;REPSWITCH1_version2_list4;2022.2.4;143.9642282;
REPSWITCH1/PICTURE_19.png;pavo;speak;darkblue;switch;2;T;1;3;4;2;Stim5_Set1;0;None;128;127;26;0;127;127;127;;;;;;;;;;;;;;;;;;;;;;;605.5850859;606.6824749;606.6824749;606.6824749;606.6824749;606.6824749;606.6824749;606.6824749;606.6824749;609.7107015;609.7107015;609.7107015;609.7107015;609.7107015;609.7107015;None;0;;;C:\2023\REPSWITCH21092023\REPSWITCH_excgange\REPSWITCH_excgange\data/240204_REPSWITCH1_version2_list4_2023-12-01_16h45.36.179_micRespv2l4_recorded\recording_micRespv2l4_2023-12-01_16h55.39.174.wav;609.7107015;;None;;;;;;240204;1;2023-12-01_16h45.36.179;REPSWITCH1_version2_list4;2022.2.4;143.9642282;
REPSWITCH1/PICTURE_142.png;vaso;speak;darkblue;filler;2;F;2;3;4;2;Stim7_Set1;0;None;129;128;27;0;128;128;128;;;;;;;;;;;;;;;;;;;;;;;610.2106909;611.2802812;611.2802812;611.2802812;611.2802812;611.2802812;611.2802812;611.2802812;611.2802812;614.3015116;614.3015116;614.3015116;614.3015116;614.3015116;614.3015116;['v', 'backspace'];0;[0.7818641001358628, 1.8169710000511259];;C:\2023\REPSWITCH21092023\REPSWITCH_excgange\REPSWITCH_excgange\data/240204_REPSWITCH1_version2_list4_2023-12-01_16h45.36.179_micRespv2l4_recorded\recording_micRespv2l4_2023-12-01_16h55.43.771.wav;614.3015116;614.8015912;None;;;;;;240204;1;2023-12-01_16h45.36.179;REPSWITCH1_version2_list4;2022.2.4;143.9642282;
REPSWITCH1/PICTURE_135.png;traje;type;gold;filler;1;F;2;3;4;2;Stim3_Set1;0;None;130;129;28;0;129;129;129;;;;;;;;;;;;;;;;;;;;;;;614.8015912;615.8156142;615.8156142;615.8156142;615.8156142;615.8156142;615.8156142;615.8156142;615.8156142;618.8367989;618.8367989;618.8367989;618.8367989;618.8367989;618.8367989;['t', 'r', 'a', 'j', 'e'];0;[1.0381452001165599, 1.06007120013237, 1.1477810002397746, 1.195956100244075, 1.3225015001371503];traje;C:\2023\REPSWITCH21092023\REPSWITCH_excgange\REPSWITCH_excgange\data/240204_REPSWITCH1_version2_list4_2023-12-01_16h45.36.179_micRespv2l4_recorded\recording_micRespv2l4_2023-12-01_16h55.48.307.wav;618.8367989;619.3368908;None;;;;;;240204;1;2023-12-01_16h45.36.179;REPSWITCH1_version2_list4;2022.2.4;143.9642282;
REPSWITCH1/PICTURE_446.png;cerdo;type;gold;nontarget;1;NT;2;3;4;2;Stim7_Set2;0;None;131;130;29;0;130;130;130;;;;;;;;;;;;;;;;;;;;;;;619.3368908;620.4412133;620.4412133;620.4412133;620.4412133;620.4412133;620.4412133;620.4412133;620.4412133;623.4693587;623.4693587;623.4693587;623.4693587;623.4693587;623.4693587;['c', 'e', 'r', 'd', 'o'];0;[0.9790121000260115, 1.0647174001205713, 1.1048834999091923, 1.2854872001335025, 1.356853400124237];cerdo;C:\2023\REPSWITCH21092023\REPSWITCH_excgange\REPSWITCH_excgange\data/240204_REPSWITCH1_version2_list4_2023-12-01_16h45.36.179_micRespv2l4_recorded\recording_micRespv2l4_2023-12-01_16h55.52.934.wav;623.4693587;;None;;;;;;240204;1;2023-12-01_16h45.36.179;REPSWITCH1_version2_list4;2022.2.4;143.9642282;
REPSWITCH1/PICTURE_446.png;cerdo;type;gold;repeat;1;T;2;3;4;2;Stim7_Set2;0;None;132;131;30;0;131;131;131;;;;;;;;;;;;;;;;;;;;;;;623.9694418;625.0460283;625.0460283;625.0460283;625.0460283;625.0460283;625.0460283;625.0460283;625.0460283;628.0671719;628.0671719;628.0671719;628.0671719;628.0671719;628.0671719;['c', 'e', 'r', 'd', 'o'];0;[0.7366679001133889, 0.9011094002053142, 0.9958321000449359, 1.1283828001469374, 1.2131033001933247];cerdo;C:\2023\REPSWITCH21092023\REPSWITCH_excgange\REPSWITCH_excgange\data/240204_REPSWITCH1_version2_list4_2023-12-01_16h45.36.179_micRespv2l4_recorded\recording_micRespv2l4_2023-12-01_16h55.57.537.wav;628.0671719;628.5673219;None;;;;;;240204;1;2023-12-01_16h45.36.179;REPSWITCH1_version2_list4;2022.2.4;143.9642282;
REPSWITCH1/PICTURE_16.png;cazador;speak;darkblue;filler;2;F;2;3;4;2;Stim6_Set1;0;None;133;132;31;0;132;132;132;;;;;;;;;;;;;;;;;;;;;;;628.5673219;629.8313625;629.8313625;629.8313625;629.8313625;629.8313625;629.8313625;629.8313625;629.8313625;632.859509;632.859509;632.859509;632.859509;632.859509;632.859509;None;0;;;C:\2023\REPSWITCH21092023\REPSWITCH_excgange\REPSWITCH_excgange\data/240204_REPSWITCH1_version2_list4_2023-12-01_16h45.36.179_micRespv2l4_recorded\recording_micRespv2l4_2023-12-01_16h56.02.324.wav;632.859509;;None;;;;;;240204;1;2023-12-01_16h45.36.179;REPSWITCH1_version2_list4;2022.2.4;143.9642282;
REPSWITCH1/PICTURE_552.png;manzana;type;gold;nontarget;1;NT;2;3;4;2;Stim6_Set2;1;switch;134;133;32;0;133;133;133;;;;;;;;;;;;;;;;;;;;;;;633.3596407;634.4430644;634.4430644;634.4430644;634.4430644;634.4430644;634.4430644;634.4430644;634.4430644;637.4712018;637.4712018;637.4712018;637.4712018;637.4712018;637.4712018;['m', 'a', 'n', 'z', 'a', 'n', 'a'];0;[0.8817060000728816, 0.9388490000274032, 1.040424499893561, 1.2079618000425398, 1.2981561000924557, 1.3500880000647157, 1.4313248000107706];manzana;C:\2023\REPSWITCH21092023\REPSWITCH_excgange\REPSWITCH_excgange\data/240204_REPSWITCH1_version2_list4_2023-12-01_16h45.36.179_micRespv2l4_recorded\recording_micRespv2l4_2023-12-01_16h56.06.934.wav;637.4712018;;None;;;;;;240204;1;2023-12-01_16h45.36.179;REPSWITCH1_version2_list4;2022.2.4;143.9642282;
REPSWITCH1/PICTURE_552.png;manzana;type;gold;repeat;1;T;2;3;4;2;Stim6_Set2;0;None;135;134;33;0;134;134;134;;;;;;;;;;;;;;;;;;;;;;;637.971261;639.0686341;639.0686341;639.0686341;639.0686341;639.0686341;639.0686341;639.0686341;639.0686341;642.096796;642.096796;642.096796;642.096796;642.096796;642.096796;['m', 'a', 'n', 'z', 'a', 'n', 'a'];0;[0.7726344000548124, 0.8633225001394749, 0.9570163001772016, 1.0710093001835048, 1.1587051001843065, 1.3975314002018422, 1.471295200055465];manzana;C:\2023\REPSWITCH21092023\REPSWITCH_excgange\REPSWITCH_excgange\data/240204_REPSWITCH1_version2_list4_2023-12-01_16h45.36.179_micRespv2l4_recorded\recording_micRespv2l4_2023-12-01_16h56.11.561.wav;642.096796;;None;;;;;;240204;1;2023-12-01_16h45.36.179;REPSWITCH1_version2_list4;2022.2.4;143.9642282;
REPSWITCH1/PICTURE_517.png;cuerda;type;gold;nontarget;1;NT;2;3;4;2;Stim4_Set2;0;None;136;135;34;0;135;135;135;;;;;;;;;;;;;;;;;;;;;;;642.5968924;643.7498058;643.7498058;643.7498058;643.7498058;643.7498058;643.7498058;643.7498058;643.7498058;646.7780658;646.7780658;646.7780658;646.7780658;646.7780658;646.7780658;['c', 'u', 'e', 'r', 'd', 'a'];0;[0.7025382001884282, 0.7722859000787139, 0.819128000177443, 0.898863899987191, 1.0334340000990778, 1.108178500086069];cuerda;C:\2023\REPSWITCH21092023\REPSWITCH_excgange\REPSWITCH_excgange\data/240204_REPSWITCH1_version2_list4_2023-12-01_16h45.36.179_micRespv2l4_recorded\recording_micRespv2l4_2023-12-01_16h56.16.242.wav;646.7780658;;None;;;;;;240204;1;2023-12-01_16h45.36.179;REPSWITCH1_version2_list4;2022.2.4;143.9642282;
REPSWITCH1/PICTURE_517.png;cuerda;speak;darkblue;switch;2;T;2;3;4;2;Stim4_Set2;0;None;137;136;35;0;136;136;136;;;;;;;;;;;;;;;;;;;;;;;647.2780548;648.4240297;648.4240297;648.4240297;648.4240297;648.4240297;648.4240297;648.4240297;648.4240297;651.4521966;651.4521966;651.4521966;651.4521966;651.4521966;651.4521966;None;0;;;C:\2023\REPSWITCH21092023\REPSWITCH_excgange\REPSWITCH_excgange\data/240204_REPSWITCH1_version2_list4_2023-12-01_16h45.36.179_micRespv2l4_recorded\recording_micRespv2l4_2023-12-01_16h56.20.916.wav;651.4521966;;None;;;;;;240204;1;2023-12-01_16h45.36.179;REPSWITCH1_version2_list4;2022.2.4;143.9642282;
REPSWITCH1/PICTURE_169.png;espalda;speak;darkblue;filler;2;F;2;3;4;2;Stim8_Set1;1;repeat;138;137;36;0;137;137;137;;;;;;;;;;;;;;;;;;;;;;;651.952335;653.1121524;653.1121524;653.1121524;653.1121524;653.1121524;653.1121524;653.1121524;653.1121524;656.1333711;656.1333711;656.1333711;656.1333711;656.1333711;656.1333711;None;0;;;C:\2023\REPSWITCH21092023\REPSWITCH_excgange\REPSWITCH_excgange\data/240204_REPSWITCH1_version2_list4_2023-12-01_16h45.36.179_micRespv2l4_recorded\recording_micRespv2l4_2023-12-01_16h56.25.603.wav;656.1333711;656.6334589;None;;;;;;240204;1;2023-12-01_16h45.36.179;REPSWITCH1_version2_list4;2022.2.4;143.9642282;
REPSWITCH1/PICTURE_30.png;granja;speak;darkblue;nontarget;2;NT;2;3;4;2;Stim5_Set2;1;repeat;139;138;37;0;138;138;138;;;;;;;;;;;;;;;;;;;;;;;656.6334589;657.7030391;657.7030391;657.7030391;657.7030391;657.7030391;657.7030391;657.7030391;657.7030391;660.7312708;660.7312708;660.7312708;660.7312708;660.7312708;660.7312708;None;0;;;C:\2023\REPSWITCH21092023\REPSWITCH_excgange\REPSWITCH_excgange\data/240204_REPSWITCH1_version2_list4_2023-12-01_16h45.36.179_micRespv2l4_recorded\recording_micRespv2l4_2023-12-01_16h56.30.195.wav;660.7312708;;None;;;;;;240204;1;2023-12-01_16h45.36.179;REPSWITCH1_version2_list4;2022.2.4;143.9642282;
REPSWITCH1/PICTURE_30.png;granja;type;gold;switch;1;T;2;3;4;2;Stim5_Set2;0;None;140;139;38;0;139;139;139;;;;;;;;;;;;;;;;;;;;;;;661.2312467;662.3842098;662.3842098;662.3842098;662.3842098;662.3842098;662.3842098;662.3842098;662.3842098;665.4123622;665.4123622;665.4123622;665.4123622;665.4123622;665.4123622;['g', 'r', 'a', 'n', 'j', 'a'];0;[0.8765475002583116, 0.945313700241968, 0.9940918001811951, 1.0729416001122445, 1.2173904001247138, 1.239308200078085];granja;C:\2023\REPSWITCH21092023\REPSWITCH_excgange\REPSWITCH_excgange\data/240204_REPSWITCH1_version2_list4_2023-12-01_16h45.36.179_micRespv2l4_recorded\recording_micRespv2l4_2023-12-01_16h56.34.876.wav;665.4123622;;None;;;;;;240204;1;2023-12-01_16h45.36.179;REPSWITCH1_version2_list4;2022.2.4;143.9642282;
REPSWITCH1/PICTURE_128.png;muñeca;type;gold;filler;1;F;2;3;4;2;Stim4_Set1;1;repeat;141;140;39;0;140;140;140;;;;;;;;;;;;;;;;;;;;;;;665.9124526;667.0446119;667.0446119;667.0446119;667.0446119;667.0446119;667.0446119;667.0446119;667.0446119;670.0728019;670.0728019;670.0728019;670.0728019;670.0728019;670.0728019;['m', 'u', 'l', 'e', 'c', 'a'];0;[0.9098928000312299, 1.0408674001228064, 1.2431271001696587, 1.2839783001691103, 1.4640821001958102, 1.5258621000684798];muleca;C:\2023\REPSWITCH21092023\REPSWITCH_excgange\REPSWITCH_excgange\data/240204_REPSWITCH1_version2_list4_2023-12-01_16h45.36.179_micRespv2l4_recorded\recording_micRespv2l4_2023-12-01_16h56.39.536.wav;670.0728019;;None;;;;;;240204;1;2023-12-01_16h45.36.179;REPSWITCH1_version2_list4;2022.2.4;143.9642282;
