image,correctAns,respModal,frameColor,repSwitch,sequence,target,set,block,list,exp_version,stimulus,baseline,baseline_condition,trial_no,psychopy_trial,Column1,trialsREPSWITCH.thisRepN,trialsREPSWITCH.thisTrialN,trialsREPSWITCH.thisN,trialsREPSWITCH.thisIndex,textWelcome.started,textboxInstrMain1.started,textboxInstrMain1_2.started,textboxInstrMain1_3.started,keyInstrMain.started,keyInstrMain.keys,keyInstrMain.rt,textboxInstrMain2.started,textboxInstrMain2_2.started,textboxInstrMain2_3.started,textboxInstrMain2_4.started,textboxInstrMain2_5.started,textboxInstrMain2_6.started,textboxInstrMain2_7.started,textboxInstrMain2_8.started,textboxInstrMain2_9.started,textboxInstrMain2_10.started,textboxInstrMain2_11.started,textboxInstrMain2_12.started,keyInstrMain2.started,keyInstrMain2.keys,keyInstrMain2.rt,fixationITI.started,fixationITI.stopped,polygonColour.started,polygonWhite.started,imageObject.started,polygonType.started,textInput.started,keyResp.started,micRespv1l1.started,keyResp.keys,keyResp.corr,keyResp.rt,subjResponse,micRespv1l1.clip,textBlankLoop.started,textBlankLoop.stopped,keyPause.keys,polygonColour.stopped,polygonWhite.stopped,imageObject.stopped,polygonType.stopped,textInput.stopped,keyResp.stopped,textboxPause.started,keyPause.started,keyPause.rt,textboxGoodbye.started,textboxGoodbye.stopped,participant,session,date,expName,psychopyVersion,frameRate,
,,,,,,,,,,,,,,,,,,,,,9.605007899925113,12.100792299956083,12.100792299956083,12.100792299956083,12.100792299956083,space,10.878154700156301,,,,,,,,,,,,,,,,,,,,,,,,,,,,,,,,,,,,,,,,,,,,250101,001,2023-12-04_12h08.49.815,REPSWITCH1_version1_list1,2022.2.4,144.05029116692853,
,,,,,,,,,,,,,,,,,,,,,,,,,,,,22.998080600053072,22.998080600053072,22.998080600053072,22.998080600053072,22.998080600053072,22.998080600053072,22.998080600053072,22.998080600053072,22.998080600053072,22.998080600053072,22.998080600053072,22.998080600053072,22.998080600053072,space,4.145624700002372,,,,,,,,,,,,,,,,,,,,,,,,,,,,,250101,001,2023-12-04_12h08.49.815,REPSWITCH1_version1_list1,2022.2.4,144.05029116692853,
REPSWITCH1/PICTURE_340.png,espejo,type,darkblue,filler,1,F,1,1,1,1,Extra1,0,None,1,0,1,0,0,0,0,,,,,,,,,,,,,,,,,,,,,,,27.24861800018698,28.332181400153786,28.332181400153786,28.332181400153786,28.332181400153786,28.332181400153786,28.332181400153786,28.332181400153786,28.332181400153786,"['e', 's', 'p', 'e', 'j', 'o']",0,"[1.1132623003795743, 1.2856932003051043, 1.9602357004769146, 2.1097245002165437, 2.268194100353867, 2.4695213004015386]",espejo,C:\2023\REPSWITCH21092023\REPSWITCH_excgange\REPSWITCH_excgange\data/250101_REPSWITCH1_version1_list1_2023-12-04_12h08.49.815_micRespv1l1_recorded\recording_micRespv1l1_2023-12-04_12h09.13.418.wav,31.353421099949628,31.853496300056577,None,,,,,,,,,,,,250101,001,2023-12-04_12h08.49.815,REPSWITCH1_version1_list1,2022.2.4,144.05029116692853,
REPSWITCH1/PICTURE_391.png,cadena,speak,gold,filler,2,F,1,1,1,1,Extra2,0,None,2,1,2,0,1,1,1,,,,,,,,,,,,,,,,,,,,,,,31.853496300056577,32.9230205998756,32.9230205998756,32.9230205998756,32.9230205998756,32.9230205998756,32.9230205998756,32.9230205998756,32.9230205998756,None,0,,,C:\2023\REPSWITCH21092023\REPSWITCH_excgange\REPSWITCH_excgange\data/250101_REPSWITCH1_version1_list1_2023-12-04_12h08.49.815_micRespv1l1_recorded\recording_micRespv1l1_2023-12-04_12h09.18.014.wav,35.95118879992515,36.451324900146574,None,35.95118879992515,35.95118879992515,35.95118879992515,35.95118879992515,35.95118879992515,35.95118879992515,,,,,,250101,001,2023-12-04_12h08.49.815,REPSWITCH1_version1_list1,2022.2.4,144.05029116692853,
REPSWITCH1/PICTURE_178.png,puente,speak,gold,nontarget,2,NT,1,1,1,1,Stim1_Set1,1,repeat,3,2,3,0,2,2,2,,,,,,,,,,,,,,,,,,,,,,,36.451324900146574,37.50699690030888,37.50699690030888,37.50699690030888,37.50699690030888,37.50699690030888,37.50699690030888,37.50699690030888,37.50699690030888,None,0,,,C:\2023\REPSWITCH21092023\REPSWITCH_excgange\REPSWITCH_excgange\data/250101_REPSWITCH1_version1_list1_2023-12-04_12h08.49.815_micRespv1l1_recorded\recording_micRespv1l1_2023-12-04_12h09.22.597.wav,40.52815160015598,41.02824159990996,None,40.52815160015598,40.52815160015598,40.52815160015598,40.52815160015598,40.52815160015598,40.52815160015598,,,,,,250101,001,2023-12-04_12h08.49.815,REPSWITCH1_version1_list1,2022.2.4,144.05029116692853,
REPSWITCH1/PICTURE_178.png,puente,speak,gold,repeat,2,T,1,1,1,1,Stim1_Set1,0,None,4,3,4,0,3,3,3,,,,,,,,,,,,,,,,,,,,,,,41.02824159990996,42.153384200297296,42.153384200297296,42.153384200297296,42.153384200297296,42.153384200297296,42.153384200297296,42.153384200297296,42.153384200297296,None,0,,,C:\2023\REPSWITCH21092023\REPSWITCH_excgange\REPSWITCH_excgange\data/250101_REPSWITCH1_version1_list1_2023-12-04_12h08.49.815_micRespv1l1_recorded\recording_micRespv1l1_2023-12-04_12h09.27.243.wav,45.17457990022376,45.674668500199914,None,45.17457990022376,45.17457990022376,45.17457990022376,45.17457990022376,45.17457990022376,45.17457990022376,,,,,,250101,001,2023-12-04_12h08.49.815,REPSWITCH1_version1_list1,2022.2.4,144.05029116692853,
REPSWITCH1/PICTURE_319.png,vaca,type,darkblue,filler,1,F,1,1,1,1,Stim1_Set4,0,None,5,4,5,0,4,4,4,,,,,,,,,,,,,,,,,,,,,,,45.674668500199914,46.78594639990479,46.78594639990479,46.78594639990479,46.78594639990479,46.78594639990479,46.78594639990479,46.78594639990479,46.78594639990479,"['v', 'a', 'c', 'a']",0,"[1.4442202001810074, 1.5367693002335727, 1.6962359002791345, 1.852721800096333]",vaca,C:\2023\REPSWITCH21092023\REPSWITCH_excgange\REPSWITCH_excgange\data/250101_REPSWITCH1_version1_list1_2023-12-04_12h08.49.815_micRespv1l1_recorded\recording_micRespv1l1_2023-12-04_12h09.31.876.wav,49.8140791002661,,None,49.8140791002661,49.8140791002661,49.8140791002661,49.8140791002661,49.8140791002661,49.8140791002661,,,,,,250101,001,2023-12-04_12h08.49.815,REPSWITCH1_version1_list1,2022.2.4,144.05029116692853,
REPSWITCH1/PICTURE_381.png,fresa,speak,gold,nontarget,2,NT,1,1,1,1,Stim2_Set1,1,switch,6,5,6,0,5,5,5,,,,,,,,,,,,,,,,,,,,,,,50.31418099999428,51.425431800074875,51.425431800074875,51.425431800074875,51.425431800074875,51.425431800074875,51.425431800074875,51.425431800074875,51.425431800074875,None,0,,,C:\2023\REPSWITCH21092023\REPSWITCH_excgange\REPSWITCH_excgange\data/250101_REPSWITCH1_version1_list1_2023-12-04_12h08.49.815_micRespv1l1_recorded\recording_micRespv1l1_2023-12-04_12h09.36.516.wav,54.45359010016546,54.95365330018103,None,54.45359010016546,54.45359010016546,54.45359010016546,54.45359010016546,54.45359010016546,54.45359010016546,,,,,,250101,001,2023-12-04_12h08.49.815,REPSWITCH1_version1_list1,2022.2.4,144.05029116692853,
REPSWITCH1/PICTURE_381.png,fresa,speak,gold,repeat,2,T,1,1,1,1,Stim2_Set1,0,None,7,6,7,0,6,6,6,,,,,,,,,,,,,,,,,,,,,,,54.95365330018103,56.0093628000468,56.0093628000468,56.0093628000468,56.0093628000468,56.0093628000468,56.0093628000468,56.0093628000468,56.0093628000468,None,0,,,C:\2023\REPSWITCH21092023\REPSWITCH_excgange\REPSWITCH_excgange\data/250101_REPSWITCH1_version1_list1_2023-12-04_12h08.49.815_micRespv1l1_recorded\recording_micRespv1l1_2023-12-04_12h09.41.100.wav,59.037607700098306,,None,59.037607700098306,59.037607700098306,59.037607700098306,59.037607700098306,59.037607700098306,59.037607700098306,,,,,,250101,001,2023-12-04_12h08.49.815,REPSWITCH1_version1_list1,2022.2.4,144.05029116692853,
REPSWITCH1/PICTURE_719.png,baño,type,darkblue,filler,1,F,1,1,1,1,Stim2_Set4,1,switch,8,7,8,0,7,7,7,,,,,,,,,,,,,,,,,,,,,,,59.537594499997795,60.68363180011511,60.68363180011511,60.68363180011511,60.68363180011511,60.68363180011511,60.68363180011511,60.68363180011511,60.68363180011511,"['b', 'a', 'ñ', 'o']",0,"[1.1683519002981484, 1.704035900067538, 1.8654948002658784, 2.0682482002303004]",baño,C:\2023\REPSWITCH21092023\REPSWITCH_excgange\REPSWITCH_excgange\data/250101_REPSWITCH1_version1_list1_2023-12-04_12h08.49.815_micRespv1l1_recorded\recording_micRespv1l1_2023-12-04_12h09.45.774.wav,63.71174670010805,64.21182089997455,None,63.71174670010805,63.71174670010805,63.71174670010805,63.71174670010805,63.71174670010805,63.71174670010805,,,,,,250101,001,2023-12-04_12h08.49.815,REPSWITCH1_version1_list1,2022.2.4,144.05029116692853,
REPSWITCH1/PICTURE_135.png,traje,speak,gold,nontarget,2,NT,1,1,1,1,Stim3_Set1,0,None,9,8,9,0,8,8,8,,,,,,,,,,,,,,,,,,,,,,,64.21182089997455,65.44813510030508,65.44813510030508,65.44813510030508,65.44813510030508,65.44813510030508,65.44813510030508,65.44813510030508,65.44813510030508,None,0,,,C:\2023\REPSWITCH21092023\REPSWITCH_excgange\REPSWITCH_excgange\data/250101_REPSWITCH1_version1_list1_2023-12-04_12h08.49.815_micRespv1l1_recorded\recording_micRespv1l1_2023-12-04_12h09.50.539.wav,68.4763000998646,,None,68.4763000998646,68.4763000998646,68.4763000998646,68.4763000998646,68.4763000998646,68.4763000998646,,,,,,250101,001,2023-12-04_12h08.49.815,REPSWITCH1_version1_list1,2022.2.4,144.05029116692853,
REPSWITCH1/PICTURE_135.png,traje,type,darkblue,switch,1,T,1,1,1,1,Stim3_Set1,0,None,10,9,10,0,9,9,9,,,,,,,,,,,,,,,,,,,,,,,68.97636510012671,70.15705549996346,70.15705549996346,70.15705549996346,70.15705549996346,70.15705549996346,70.15705549996346,70.15705549996346,70.15705549996346,"['t', 'r', 'a', 'j', 'e']",0,"[0.9713733000680804, 1.1445818999782205, 1.4167045000940561, 1.5691835000179708, 1.652904000133276]",traje,C:\2023\REPSWITCH21092023\REPSWITCH_excgange\REPSWITCH_excgange\data/250101_REPSWITCH1_version1_list1_2023-12-04_12h08.49.815_micRespv1l1_recorded\recording_micRespv1l1_2023-12-04_12h09.55.246.wav,73.17830529995263,73.6783670000732,None,73.17830529995263,73.17830529995263,73.17830529995263,73.17830529995263,73.17830529995263,73.17830529995263,,,,,,250101,001,2023-12-04_12h08.49.815,REPSWITCH1_version1_list1,2022.2.4,144.05029116692853,
REPSWITCH1/PICTURE_687.png,camisa,speak,gold,filler,2,F,1,1,1,1,Stim5_Set4,0,None,11,10,11,0,10,10,10,,,,,,,,,,,,,,,,,,,,,,,73.6783670000732,74.79655069997534,74.79655069997534,74.79655069997534,74.79655069997534,74.79655069997534,74.79655069997534,74.79655069997534,74.79655069997534,None,0,,,C:\2023\REPSWITCH21092023\REPSWITCH_excgange\REPSWITCH_excgange\data/250101_REPSWITCH1_version1_list1_2023-12-04_12h08.49.815_micRespv1l1_recorded\recording_micRespv1l1_2023-12-04_12h09.59.886.wav,77.82473140023649,,None,77.82473140023649,77.82473140023649,77.82473140023649,77.82473140023649,77.82473140023649,77.82473140023649,,,,,,250101,001,2023-12-04_12h08.49.815,REPSWITCH1_version1_list1,2022.2.4,144.05029116692853,
REPSWITCH1/PICTURE_128.png,muñeca,type,darkblue,nontarget,1,NT,1,1,1,1,Stim4_Set1,1,switch,12,11,12,0,11,11,11,,,,,,,,,,,,,,,,,,,,,,,78.32479420024902,79.38050570013002,79.38050570013002,79.38050570013002,79.38050570013002,79.38050570013002,79.38050570013002,79.38050570013002,79.38050570013002,"['m', 'u', 'ñ', 'e', 'c', 'a']",0,"[1.227629099972546, 1.4935119999572635, 1.9791470002382994, 2.111999799963087, 2.363146800082177, 2.559530499856919]",muñeca,C:\2023\REPSWITCH21092023\REPSWITCH_excgange\REPSWITCH_excgange\data/250101_REPSWITCH1_version1_list1_2023-12-04_12h08.49.815_micRespv1l1_recorded\recording_micRespv1l1_2023-12-04_12h10.04.471.wav,82.40865470003337,,None,82.40865470003337,82.40865470003337,82.40865470003337,82.40865470003337,82.40865470003337,82.40865470003337,,,,,,250101,001,2023-12-04_12h08.49.815,REPSWITCH1_version1_list1,2022.2.4,144.05029116692853,
REPSWITCH1/PICTURE_128.png,muñeca,speak,gold,switch,2,T,1,1,1,1,Stim4_Set1,0,None,13,12,13,0,12,12,12,,,,,,,,,,,,,,,,,,,,,,,82.90870600007474,84.00613250024617,84.00613250024617,84.00613250024617,84.00613250024617,84.00613250024617,84.00613250024617,84.00613250024617,84.00613250024617,None,0,,,C:\2023\REPSWITCH21092023\REPSWITCH_excgange\REPSWITCH_excgange\data/250101_REPSWITCH1_version1_list1_2023-12-04_12h08.49.815_micRespv1l1_recorded\recording_micRespv1l1_2023-12-04_12h10.09.096.wav,87.02734589995816,87.52741130022332,None,87.02734589995816,87.02734589995816,87.02734589995816,87.02734589995816,87.02734589995816,87.02734589995816,,,,,,250101,001,2023-12-04_12h08.49.815,REPSWITCH1_version1_list1,2022.2.4,144.05029116692853,
REPSWITCH1/PICTURE_8.png,pierna,speak,gold,filler,2,F,1,1,1,1,Stim3_Set4,0,None,14,13,14,0,13,13,13,,,,,,,,,,,,,,,,,,,,,,,87.52741130022332,88.63172010006383,88.63172010006383,88.63172010006383,88.63172010006383,88.63172010006383,88.63172010006383,88.63172010006383,88.63172010006383,None,0,,,C:\2023\REPSWITCH21092023\REPSWITCH_excgange\REPSWITCH_excgange\data/250101_REPSWITCH1_version1_list1_2023-12-04_12h08.49.815_micRespv1l1_recorded\recording_micRespv1l1_2023-12-04_12h10.13.722.wav,91.65994809987023,92.16003270028159,None,91.65994809987023,91.65994809987023,91.65994809987023,91.65994809987023,91.65994809987023,91.65994809987023,,,,,,250101,001,2023-12-04_12h08.49.815,REPSWITCH1_version1_list1,2022.2.4,144.05029116692853,
REPSWITCH1/PICTURE_19.png,pavo,speak,gold,nontarget,2,NT,1,1,1,1,Stim5_Set1,0,None,15,14,15,0,14,14,14,,,,,,,,,,,,,,,,,,,,,,,92.16003270028159,93.20182040007785,93.20182040007785,93.20182040007785,93.20182040007785,93.20182040007785,93.20182040007785,93.20182040007785,93.20182040007785,None,0,,,C:\2023\REPSWITCH21092023\REPSWITCH_excgange\REPSWITCH_excgange\data/250101_REPSWITCH1_version1_list1_2023-12-04_12h08.49.815_micRespv1l1_recorded\recording_micRespv1l1_2023-12-04_12h10.18.292.wav,96.22991769993678,,None,96.22991769993678,96.22991769993678,96.22991769993678,96.22991769993678,96.22991769993678,96.22991769993678,,,,,,250101,001,2023-12-04_12h08.49.815,REPSWITCH1_version1_list1,2022.2.4,144.05029116692853,
REPSWITCH1/PICTURE_19.png,pavo,type,darkblue,switch,1,T,1,1,1,1,Stim5_Set1,0,None,16,15,16,0,15,15,15,,,,,,,,,,,,,,,,,,,,,,,96.7300093001686,97.79958039987832,97.79958039987832,97.79958039987832,97.79958039987832,97.79958039987832,97.79958039987832,97.79958039987832,97.79958039987832,"['p', 'a', 'v', 'o']",0,"[0.9609008999541402, 1.122350700199604, 1.3994297999888659, 1.5064913001842797]",pavo,C:\2023\REPSWITCH21092023\REPSWITCH_excgange\REPSWITCH_excgange\data/250101_REPSWITCH1_version1_list1_2023-12-04_12h08.49.815_micRespv1l1_recorded\recording_micRespv1l1_2023-12-04_12h10.22.890.wav,100.82772180018947,,None,100.82772180018947,100.82772180018947,100.82772180018947,100.82772180018947,100.82772180018947,100.82772180018947,,,,,,250101,001,2023-12-04_12h08.49.815,REPSWITCH1_version1_list1,2022.2.4,144.05029116692853,
REPSWITCH1/PICTURE_16.png,cazador,type,darkblue,nontarget,1,NT,1,1,1,1,Stim6_Set1,1,switch,17,16,17,0,16,16,16,,,,,,,,,,,,,,,,,,,,,,,101.32782929996029,102.34185820026323,102.34185820026323,102.34185820026323,102.34185820026323,102.34185820026323,102.34185820026323,102.34185820026323,102.34185820026323,"['c', 'a', 'z', 'a', 'd', 'o', 'r']",0,"[1.0891440999694169, 1.2347313002683222, 1.7252759002149105, 1.8950634002685547, 2.0036957999691367, 2.1740137999877334, 2.2787580001167953]",cazador,C:\2023\REPSWITCH21092023\REPSWITCH_excgange\REPSWITCH_excgange\data/250101_REPSWITCH1_version1_list1_2023-12-04_12h08.49.815_micRespv1l1_recorded\recording_micRespv1l1_2023-12-04_12h10.27.432.wav,105.37002780009061,,None,105.37002780009061,105.37002780009061,105.37002780009061,105.37002780009061,105.37002780009061,105.37002780009061,,,,,,250101,001,2023-12-04_12h08.49.815,REPSWITCH1_version1_list1,2022.2.4,144.05029116692853,
REPSWITCH1/PICTURE_16.png,cazador,type,darkblue,repeat,1,T,1,1,1,1,Stim6_Set1,0,None,18,17,18,0,17,17,17,,,,,,,,,,,,,,,,,,,,,,,105.87016949988902,106.92579910019413,106.92579910019413,106.92579910019413,106.92579910019413,106.92579910019413,106.92579910019413,106.92579910019413,106.92579910019413,"['c', 'a', 'z', 'a', 'd', 'o', 'r']",0,"[0.8223521998152137, 0.9618836999870837, 1.2060314998961985, 1.3898494997993112, 1.5772711001336575, 1.7233370002359152, 2.0654911999590695]",cazador,C:\2023\REPSWITCH21092023\REPSWITCH_excgange\REPSWITCH_excgange\data/250101_REPSWITCH1_version1_list1_2023-12-04_12h08.49.815_micRespv1l1_recorded\recording_micRespv1l1_2023-12-04_12h10.32.017.wav,109.95396810024977,,None,109.95396810024977,109.95396810024977,109.95396810024977,109.95396810024977,109.95396810024977,109.95396810024977,,,,,,250101,001,2023-12-04_12h08.49.815,REPSWITCH1_version1_list1,2022.2.4,144.05029116692853,
REPSWITCH1/PICTURE_498.png,taza,speak,gold,filler,2,F,1,1,1,1,Stim4_Set4,0,None,19,18,19,0,18,18,18,,,,,,,,,,,,,,,,,,,,,,,110.45403120014817,111.57223979989067,111.57223979989067,111.57223979989067,111.57223979989067,111.57223979989067,111.57223979989067,111.57223979989067,111.57223979989067,None,0,,,C:\2023\REPSWITCH21092023\REPSWITCH_excgange\REPSWITCH_excgange\data/250101_REPSWITCH1_version1_list1_2023-12-04_12h08.49.815_micRespv1l1_recorded\recording_micRespv1l1_2023-12-04_12h10.36.662.wav,114.60038409987465,,None,114.60038409987465,114.60038409987465,114.60038409987465,114.60038409987465,114.60038409987465,114.60038409987465,,,,,,250101,001,2023-12-04_12h08.49.815,REPSWITCH1_version1_list1,2022.2.4,144.05029116692853,
REPSWITCH1/PICTURE_48.png,bombero,type,darkblue,filler,1,F,1,1,1,1,Stim7_Set4,0,None,20,19,20,0,19,19,19,,,,,,,,,,,,,,,,,,,,,,,115.1004762002267,116.13541050022468,116.13541050022468,116.13541050022468,116.13541050022468,116.13541050022468,116.13541050022468,116.13541050022468,116.13541050022468,"['b', 'o', 'm', 'b', 'e', 'r', 'o']",0,"[1.0714098000898957, 1.2039744001813233, 1.5082447999157012, 1.8216995000839233, 2.0312222000211477, 2.181580999866128, 2.329161399975419]",bombero,C:\2023\REPSWITCH21092023\REPSWITCH_excgange\REPSWITCH_excgange\data/250101_REPSWITCH1_version1_list1_2023-12-04_12h08.49.815_micRespv1l1_recorded\recording_micRespv1l1_2023-12-04_12h10.41.226.wav,119.1565287001431,119.6566058001481,None,119.1565287001431,119.1565287001431,119.1565287001431,119.1565287001431,119.1565287001431,119.1565287001431,,,,,,250101,001,2023-12-04_12h08.49.815,REPSWITCH1_version1_list1,2022.2.4,144.05029116692853,
REPSWITCH1/PICTURE_142.png,vaso,type,darkblue,nontarget,1,NT,1,1,1,1,Stim7_Set1,1,repeat,21,20,21,0,20,20,20,,,,,,,,,,,,,,,,,,,,,,,119.6566058001481,120.69146930007264,120.69146930007264,120.69146930007264,120.69146930007264,120.69146930007264,120.69146930007264,120.69146930007264,120.69146930007264,"['v', 'a', 's', 'o']",0,"[1.0546891000121832, 1.2912286999635398, 1.4538444001227617, 1.615207599941641]",vaso,C:\2023\REPSWITCH21092023\REPSWITCH_excgange\REPSWITCH_excgange\data/250101_REPSWITCH1_version1_list1_2023-12-04_12h08.49.815_micRespv1l1_recorded\recording_micRespv1l1_2023-12-04_12h10.45.782.wav,123.71272910013795,124.21276250015944,None,123.71272910013795,123.71272910013795,123.71272910013795,123.71272910013795,123.71272910013795,123.71272910013795,,,,,,250101,001,2023-12-04_12h08.49.815,REPSWITCH1_version1_list1,2022.2.4,144.05029116692853,
REPSWITCH1/PICTURE_142.png,vaso,type,darkblue,repeat,1,T,1,1,1,1,Stim7_Set1,0,None,22,21,22,0,21,21,21,,,,,,,,,,,,,,,,,,,,,,,124.21276250015944,125.25464980024844,125.25464980024844,125.25464980024844,125.25464980024844,125.25464980024844,125.25464980024844,125.25464980024844,125.25464980024844,"['v', 'a', 's', 'o']",0,"[0.7704584999009967, 0.9817500002682209, 1.1417753999121487, 1.3387032998725772]",vaso,C:\2023\REPSWITCH21092023\REPSWITCH_excgange\REPSWITCH_excgange\data/250101_REPSWITCH1_version1_list1_2023-12-04_12h08.49.815_micRespv1l1_recorded\recording_micRespv1l1_2023-12-04_12h10.50.345.wav,128.27578249992803,128.77588920015842,None,128.27578249992803,128.27578249992803,128.27578249992803,128.27578249992803,128.27578249992803,128.27578249992803,,,,,,250101,001,2023-12-04_12h08.49.815,REPSWITCH1_version1_list1,2022.2.4,144.05029116692853,
REPSWITCH1/PICTURE_338.png,regalo,speak,gold,filler,2,F,1,1,1,1,Stim6_Set4,1,switch,23,22,23,0,22,22,22,,,,,,,,,,,,,,,,,,,,,,,128.77588920015842,129.9705501999706,129.9705501999706,129.9705501999706,129.9705501999706,129.9705501999706,129.9705501999706,129.9705501999706,129.9705501999706,None,0,,,C:\2023\REPSWITCH21092023\REPSWITCH_excgange\REPSWITCH_excgange\data/250101_REPSWITCH1_version1_list1_2023-12-04_12h08.49.815_micRespv1l1_recorded\recording_micRespv1l1_2023-12-04_12h10.55.060.wav,132.99862200021744,,None,132.99862200021744,132.99862200021744,132.99862200021744,132.99862200021744,132.99862200021744,132.99862200021744,,,,,,250101,001,2023-12-04_12h08.49.815,REPSWITCH1_version1_list1,2022.2.4,144.05029116692853,
REPSWITCH1/PICTURE_728.png,pulpo,type,darkblue,filler,1,F,1,1,1,1,Stim8_Set4,1,switch,24,23,24,0,23,23,23,,,,,,,,,,,,,,,,,,,,,,,133.49870210001245,134.6864248001948,134.6864248001948,134.6864248001948,134.6864248001948,134.6864248001948,134.6864248001948,134.6864248001948,134.6864248001948,['p'],0,[2.685159900225699],p,C:\2023\REPSWITCH21092023\REPSWITCH_excgange\REPSWITCH_excgange\data/250101_REPSWITCH1_version1_list1_2023-12-04_12h08.49.815_micRespv1l1_recorded\recording_micRespv1l1_2023-12-04_12h10.59.776.wav,137.70758889988065,138.20765460003167,None,137.70758889988065,137.70758889988065,137.70758889988065,137.70758889988065,137.70758889988065,137.70758889988065,,,,,,250101,001,2023-12-04_12h08.49.815,REPSWITCH1_version1_list1,2022.2.4,144.05029116692853,
REPSWITCH1/PICTURE_169.png,espalda,type,darkblue,nontarget,1,NT,1,1,1,1,Stim8_Set1,1,repeat,25,24,25,0,24,24,24,,,,,,,,,,,,,,,,,,,,,,,138.20765460003167,139.24949239986017,139.24949239986017,139.24949239986017,139.24949239986017,139.24949239986017,139.24949239986017,139.24949239986017,139.24949239986017,"['e', 's', 'p', 'a', 'l', 'd', 'a']",0,"[0.8828277997672558, 1.0745161999948323, 1.269437300041318, 1.3830071999691427, 1.4897503997199237, 1.6050939001142979, 1.6728868996724486]",espalda,C:\2023\REPSWITCH21092023\REPSWITCH_excgange\REPSWITCH_excgange\data/250101_REPSWITCH1_version1_list1_2023-12-04_12h08.49.815_micRespv1l1_recorded\recording_micRespv1l1_2023-12-04_12h11.04.340.wav,142.27763380017132,,None,142.27763380017132,142.27763380017132,142.27763380017132,142.27763380017132,142.27763380017132,142.27763380017132,,,,,,250101,001,2023-12-04_12h08.49.815,REPSWITCH1_version1_list1,2022.2.4,144.05029116692853,
REPSWITCH1/PICTURE_169.png,espalda,speak,gold,switch,2,T,1,1,1,1,Stim8_Set1,0,None,26,25,26,0,25,25,25,,,,,,,,,,,,,,,,,,,,,,,142.7777710002847,143.84733300004154,143.84733300004154,143.84733300004154,143.84733300004154,143.84733300004154,143.84733300004154,143.84733300004154,143.84733300004154,None,0,,,C:\2023\REPSWITCH21092023\REPSWITCH_excgange\REPSWITCH_excgange\data/250101_REPSWITCH1_version1_list1_2023-12-04_12h08.49.815_micRespv1l1_recorded\recording_micRespv1l1_2023-12-04_12h11.08.937.wav,146.86852520005777,147.36858120001853,None,146.86852520005777,146.86852520005777,146.86852520005777,146.86852520005777,146.86852520005777,146.86852520005777,,,,,,250101,001,2023-12-04_12h08.49.815,REPSWITCH1_version1_list1,2022.2.4,144.05029116692853,
REPSWITCH1/PICTURE_178.png,puente,speak,gold,filler,2,F,2,1,1,1,Stim1_Set1,0,None,27,26,27,0,26,26,26,,,,,,,,,,,,,,,,,,,,,,,147.36858120001853,148.43821820011362,148.43821820011362,148.43821820011362,148.43821820011362,148.43821820011362,148.43821820011362,148.43821820011362,148.43821820011362,None,0,,,C:\2023\REPSWITCH21092023\REPSWITCH_excgange\REPSWITCH_excgange\data/250101_REPSWITCH1_version1_list1_2023-12-04_12h08.49.815_micRespv1l1_recorded\recording_micRespv1l1_2023-12-04_12h11.13.528.wav,151.46635559992865,,None,151.46635559992865,151.46635559992865,151.46635559992865,151.46635559992865,151.46635559992865,151.46635559992865,,,,,,250101,001,2023-12-04_12h08.49.815,REPSWITCH1_version1_list1,2022.2.4,144.05029116692853,
REPSWITCH1/PICTURE_175.png,pintor,type,darkblue,nontarget,1,NT,2,1,1,1,Stim1_Set2,1,switch,28,27,28,0,27,27,27,,,,,,,,,,,,,,,,,,,,,,,151.96650600014254,153.1472066002898,153.1472066002898,153.1472066002898,153.1472066002898,153.1472066002898,153.1472066002898,153.1472066002898,153.1472066002898,"['p', 'i', 'n', 't', 'o', 'r']",0,"[1.0988135999068618, 1.3224539998918772, 1.5597044001333416, 1.649396900087595, 2.1377694997936487, 2.2120778001844883]",pintor,C:\2023\REPSWITCH21092023\REPSWITCH_excgange\REPSWITCH_excgange\data/250101_REPSWITCH1_version1_list1_2023-12-04_12h08.49.815_micRespv1l1_recorded\recording_micRespv1l1_2023-12-04_12h11.18.237.wav,156.16838899999857,156.6684420001693,None,156.16838899999857,156.16838899999857,156.16838899999857,156.16838899999857,156.16838899999857,156.16838899999857,,,,,,250101,001,2023-12-04_12h08.49.815,REPSWITCH1_version1_list1,2022.2.4,144.05029116692853,
REPSWITCH1/PICTURE_175.png,pintor,type,darkblue,repeat,1,T,2,1,1,1,Stim1_Set2,0,None,29,28,29,0,28,28,28,,,,,,,,,,,,,,,,,,,,,,,156.6684420001693,157.8352502998896,157.8352502998896,157.8352502998896,157.8352502998896,157.8352502998896,157.8352502998896,157.8352502998896,157.8352502998896,"['p', 'i', 'n', 't', 'o', 'r']",0,"[0.8865437000058591, 1.127726100385189, 1.3791571003384888, 1.6056533004157245, 1.842222400009632, 2.0704508000053465]",pintor,C:\2023\REPSWITCH21092023\REPSWITCH_excgange\REPSWITCH_excgange\data/250101_REPSWITCH1_version1_list1_2023-12-04_12h08.49.815_micRespv1l1_recorded\recording_micRespv1l1_2023-12-04_12h11.22.926.wav,160.86345560010523,,None,160.86345560010523,160.86345560010523,160.86345560010523,160.86345560010523,160.86345560010523,160.86345560010523,,,,,,250101,001,2023-12-04_12h08.49.815,REPSWITCH1_version1_list1,2022.2.4,144.05029116692853,
REPSWITCH1/PICTURE_381.png,fresa,speak,gold,filler,2,F,2,1,1,1,Stim2_Set1,0,None,30,29,30,0,29,29,29,,,,,,,,,,,,,,,,,,,,,,,161.36351109994575,162.4747482999228,162.4747482999228,162.4747482999228,162.4747482999228,162.4747482999228,162.4747482999228,162.4747482999228,162.4747482999228,None,0,,,C:\2023\REPSWITCH21092023\REPSWITCH_excgange\REPSWITCH_excgange\data/250101_REPSWITCH1_version1_list1_2023-12-04_12h08.49.815_micRespv1l1_recorded\recording_micRespv1l1_2023-12-04_12h11.27.566.wav,165.50294680008665,,None,165.50294680008665,165.50294680008665,165.50294680008665,165.50294680008665,165.50294680008665,165.50294680008665,,,,,,250101,001,2023-12-04_12h08.49.815,REPSWITCH1_version1_list1,2022.2.4,144.05029116692853,
REPSWITCH1/PICTURE_152.png,caracol,type,darkblue,nontarget,1,NT,2,1,1,1,Stim2_Set2,1,switch,31,30,31,0,30,30,30,,,,,,,,,,,,,,,,,,,,,,,166.00300250016153,167.10035720001906,167.10035720001906,167.10035720001906,167.10035720001906,167.10035720001906,167.10035720001906,167.10035720001906,167.10035720001906,"['c', 'a', 'r', 'a', 'c', 'o', 'l']",0,"[0.9127645003609359, 1.0941889001987875, 1.2666716002859175, 1.4250990003347397, 1.6074831001460552, 1.7378665003925562, 1.9137011002749205]",caracol,C:\2023\REPSWITCH21092023\REPSWITCH_excgange\REPSWITCH_excgange\data/250101_REPSWITCH1_version1_list1_2023-12-04_12h08.49.815_micRespv1l1_recorded\recording_micRespv1l1_2023-12-04_12h11.32.191.wav,170.12859850004315,,None,170.12859850004315,170.12859850004315,170.12859850004315,170.12859850004315,170.12859850004315,170.12859850004315,,,,,,250101,001,2023-12-04_12h08.49.815,REPSWITCH1_version1_list1,2022.2.4,144.05029116692853,
REPSWITCH1/PICTURE_152.png,caracol,type,darkblue,repeat,1,T,2,1,1,1,Stim2_Set2,0,None,32,31,32,0,31,31,31,,,,,,,,,,,,,,,,,,,,,,,170.62859030021355,171.65650040004402,171.65650040004402,171.65650040004402,171.65650040004402,171.65650040004402,171.65650040004402,171.65650040004402,171.65650040004402,"['c', 'a', 'r', 'a', 'c', 'o', 'l']",0,"[1.0576356002129614, 1.2100194999948144, 1.4116814001463354, 1.5585242002271116, 1.7621404002420604, 1.8707910003140569, 2.1073937001638114]",caracol,C:\2023\REPSWITCH21092023\REPSWITCH_excgange\REPSWITCH_excgange\data/250101_REPSWITCH1_version1_list1_2023-12-04_12h08.49.815_micRespv1l1_recorded\recording_micRespv1l1_2023-12-04_12h11.36.747.wav,174.67776239989325,175.17782230023295,None,174.67776239989325,174.67776239989325,174.67776239989325,174.67776239989325,174.67776239989325,174.67776239989325,,,,,,250101,001,2023-12-04_12h08.49.815,REPSWITCH1_version1_list1,2022.2.4,144.05029116692853,
REPSWITCH1/PICTURE_128.png,muñeca,speak,gold,filler,2,F,2,1,1,1,Stim4_Set1,0,None,33,32,33,0,32,32,32,,,,,,,,,,,,,,,,,,,,,,,175.17782230023295,176.2473865998909,176.2473865998909,176.2473865998909,176.2473865998909,176.2473865998909,176.2473865998909,176.2473865998909,176.2473865998909,None,0,,,C:\2023\REPSWITCH21092023\REPSWITCH_excgange\REPSWITCH_excgange\data/250101_REPSWITCH1_version1_list1_2023-12-04_12h08.49.815_micRespv1l1_recorded\recording_micRespv1l1_2023-12-04_12h11.41.338.wav,179.2755586002022,,None,179.2755586002022,179.2755586002022,179.2755586002022,179.2755586002022,179.2755586002022,179.2755586002022,,,,,,250101,001,2023-12-04_12h08.49.815,REPSWITCH1_version1_list1,2022.2.4,144.05029116692853,
REPSWITCH1/PICTURE_264.png,mano,type,darkblue,nontarget,1,NT,2,1,1,1,Stim3_Set2,0,None,34,33,34,0,33,33,33,,,,,,,,,,,,,,,,,,,,,,,179.77562180021778,180.89384450018406,180.89384450018406,180.89384450018406,180.89384450018406,180.89384450018406,180.89384450018406,180.89384450018406,180.89384450018406,"['m', 'a', 'n', 'o']",0,"[0.9635781003162265, 1.097115300130099, 1.2107337000779808, 1.4379370003007352]",mano,C:\2023\REPSWITCH21092023\REPSWITCH_excgange\REPSWITCH_excgange\data/250101_REPSWITCH1_version1_list1_2023-12-04_12h08.49.815_micRespv1l1_recorded\recording_micRespv1l1_2023-12-04_12h11.45.983.wav,183.91511030029505,184.4151329002343,None,183.91511030029505,183.91511030029505,183.91511030029505,183.91511030029505,183.91511030029505,183.91511030029505,,,,,,250101,001,2023-12-04_12h08.49.815,REPSWITCH1_version1_list1,2022.2.4,144.05029116692853,
REPSWITCH1/PICTURE_264.png,mano,speak,gold,switch,2,T,2,1,1,1,Stim3_Set2,0,None,35,34,35,0,34,34,34,,,,,,,,,,,,,,,,,,,,,,,184.4151329002343,185.4638773999177,185.4638773999177,185.4638773999177,185.4638773999177,185.4638773999177,185.4638773999177,185.4638773999177,185.4638773999177,None,0,,,C:\2023\REPSWITCH21092023\REPSWITCH_excgange\REPSWITCH_excgange\data/250101_REPSWITCH1_version1_list1_2023-12-04_12h08.49.815_micRespv1l1_recorded\recording_micRespv1l1_2023-12-04_12h11.50.554.wav,188.48514400003478,188.9851934001781,None,188.48514400003478,188.48514400003478,188.48514400003478,188.48514400003478,188.48514400003478,188.48514400003478,,,,,,250101,001,2023-12-04_12h08.49.815,REPSWITCH1_version1_list1,2022.2.4,144.05029116692853,
REPSWITCH1/PICTURE_517.png,cuerda,speak,gold,nontarget,2,NT,2,1,1,1,Stim4_Set2,1,repeat,36,35,36,0,35,35,35,,,,,,,,,,,,,,,,,,,,,,,188.9851934001781,190.08948779990897,190.08948779990897,190.08948779990897,190.08948779990897,190.08948779990897,190.08948779990897,190.08948779990897,190.08948779990897,None,0,,,C:\2023\REPSWITCH21092023\REPSWITCH_excgange\REPSWITCH_excgange\data/250101_REPSWITCH1_version1_list1_2023-12-04_12h08.49.815_micRespv1l1_recorded\recording_micRespv1l1_2023-12-04_12h11.55.180.wav,193.11772749992087,,None,193.11772749992087,193.11772749992087,193.11772749992087,193.11772749992087,193.11772749992087,193.11772749992087,,,,,,250101,001,2023-12-04_12h08.49.815,REPSWITCH1_version1_list1,2022.2.4,144.05029116692853,
REPSWITCH1/PICTURE_517.png,cuerda,type,darkblue,switch,1,T,2,1,1,1,Stim4_Set2,0,None,37,36,37,0,36,36,36,,,,,,,,,,,,,,,,,,,,,,,193.61770810000598,194.70123600028455,194.70123600028455,194.70123600028455,194.70123600028455,194.70123600028455,194.70123600028455,194.70123600028455,194.70123600028455,"['c', 'u', 'e', 'r', 'd', 'a']",0,"[0.8531487002037466, 1.0325458003208041, 1.15910889999941, 1.2847017999738455, 1.4740675003267825, 1.6504657003097236]",cuerda,C:\2023\REPSWITCH21092023\REPSWITCH_excgange\REPSWITCH_excgange\data/250101_REPSWITCH1_version1_list1_2023-12-04_12h08.49.815_micRespv1l1_recorded\recording_micRespv1l1_2023-12-04_12h11.59.792.wav,197.72242620028555,198.22250510007143,None,197.72242620028555,197.72242620028555,197.72242620028555,197.72242620028555,197.72242620028555,197.72242620028555,,,,,,250101,001,2023-12-04_12h08.49.815,REPSWITCH1_version1_list1,2022.2.4,144.05029116692853,
REPSWITCH1/PICTURE_135.png,traje,type,darkblue,filler,1,F,2,1,1,1,Stim3_Set1,0,None,38,37,38,0,37,37,37,,,,,,,,,,,,,,,,,,,,,,,198.22250510007143,199.31988590024412,199.31988590024412,199.31988590024412,199.31988590024412,199.31988590024412,199.31988590024412,199.31988590024412,199.31988590024412,"['t', 'r', 'a', 'j', 'e']",0,"[0.8735271003097296, 1.0379588003270328, 1.2341991001740098, 1.398469400126487, 1.4781314004212618]",traje,C:\2023\REPSWITCH21092023\REPSWITCH_excgange\REPSWITCH_excgange\data/250101_REPSWITCH1_version1_list1_2023-12-04_12h08.49.815_micRespv1l1_recorded\recording_micRespv1l1_2023-12-04_12h12.04.411.wav,202.34118360001594,202.84118269989267,None,202.34118360001594,202.34118360001594,202.34118360001594,202.34118360001594,202.34118360001594,202.34118360001594,,,,,,250101,001,2023-12-04_12h08.49.815,REPSWITCH1_version1_list1,2022.2.4,144.05029116692853,
REPSWITCH1/PICTURE_30.png,granja,type,darkblue,nontarget,1,NT,2,1,1,1,Stim5_Set2,1,repeat,39,38,39,0,38,38,38,,,,,,,,,,,,,,,,,,,,,,,202.84118269989267,203.94547240016982,203.94547240016982,203.94547240016982,203.94547240016982,203.94547240016982,203.94547240016982,203.94547240016982,203.94547240016982,None,0,,,C:\2023\REPSWITCH21092023\REPSWITCH_excgange\REPSWITCH_excgange\data/250101_REPSWITCH1_version1_list1_2023-12-04_12h08.49.815_micRespv1l1_recorded\recording_micRespv1l1_2023-12-04_12h12.09.036.wav,206.97364600002766,,None,206.97364600002766,206.97364600002766,206.97364600002766,206.97364600002766,206.97364600002766,206.97364600002766,,,,,,250101,001,2023-12-04_12h08.49.815,REPSWITCH1_version1_list1,2022.2.4,144.05029116692853,
REPSWITCH1/PICTURE_30.png,granja,speak,gold,switch,2,T,2,1,1,1,Stim5_Set2,0,None,40,39,40,0,39,39,39,,,,,,,,,,,,,,,,,,,,,,,207.4737396002747,208.54342020023614,208.54342020023614,208.54342020023614,208.54342020023614,208.54342020023614,208.54342020023614,208.54342020023614,208.54342020023614,None,0,,,C:\2023\REPSWITCH21092023\REPSWITCH_excgange\REPSWITCH_excgange\data/250101_REPSWITCH1_version1_list1_2023-12-04_12h08.49.815_micRespv1l1_recorded\recording_micRespv1l1_2023-12-04_12h12.13.633.wav,211.56451770011336,212.0645872000605,None,211.56451770011336,211.56451770011336,211.56451770011336,211.56451770011336,211.56451770011336,211.56451770011336,,,,,,250101,001,2023-12-04_12h08.49.815,REPSWITCH1_version1_list1,2022.2.4,144.05029116692853,
REPSWITCH1/PICTURE_142.png,vaso,type,darkblue,filler,1,F,2,1,1,1,Stim7_Set1,0,None,41,40,41,0,40,40,40,,,,,,,,,,,,,,,,,,,,,,,212.0645872000605,213.16894670017064,213.16894670017064,213.16894670017064,213.16894670017064,213.16894670017064,213.16894670017064,213.16894670017064,213.16894670017064,"['v', 'a', 's', 'o']",0,"[0.9300119001418352, 1.1852001999504864, 1.372882700059563, 1.5462985001504421]",vaso,C:\2023\REPSWITCH21092023\REPSWITCH_excgange\REPSWITCH_excgange\data/250101_REPSWITCH1_version1_list1_2023-12-04_12h08.49.815_micRespv1l1_recorded\recording_micRespv1l1_2023-12-04_12h12.18.259.wav,216.19016800029203,216.6902262000367,None,216.19016800029203,216.19016800029203,216.19016800029203,216.19016800029203,216.19016800029203,216.19016800029203,,,,,,250101,001,2023-12-04_12h08.49.815,REPSWITCH1_version1_list1,2022.2.4,144.05029116692853,
REPSWITCH1/PICTURE_19.png,pavo,speak,gold,filler,2,F,2,1,1,1,Stim5_Set1,1,switch,42,41,42,0,41,41,41,,,,,,,,,,,,,,,,,,,,,,,216.6902262000367,217.75287780025974,217.75287780025974,217.75287780025974,217.75287780025974,217.75287780025974,217.75287780025974,217.75287780025974,217.75287780025974,None,0,,,C:\2023\REPSWITCH21092023\REPSWITCH_excgange\REPSWITCH_excgange\data/250101_REPSWITCH1_version1_list1_2023-12-04_12h08.49.815_micRespv1l1_recorded\recording_micRespv1l1_2023-12-04_12h12.22.844.wav,220.78104320028797,,None,220.78104320028797,220.78104320028797,220.78104320028797,220.78104320028797,220.78104320028797,220.78104320028797,,,,,,250101,001,2023-12-04_12h08.49.815,REPSWITCH1_version1_list1,2022.2.4,144.05029116692853,
REPSWITCH1/PICTURE_552.png,manzana,speak,gold,nontarget,2,NT,2,1,1,1,Stim6_Set2,1,repeat,43,42,43,0,42,42,42,,,,,,,,,,,,,,,,,,,,,,,221.28114080009982,222.37157900026068,222.37157900026068,222.37157900026068,222.37157900026068,222.37157900026068,222.37157900026068,222.37157900026068,222.37157900026068,None,0,,,C:\2023\REPSWITCH21092023\REPSWITCH_excgange\REPSWITCH_excgange\data/250101_REPSWITCH1_version1_list1_2023-12-04_12h08.49.815_micRespv1l1_recorded\recording_micRespv1l1_2023-12-04_12h12.27.462.wav,225.39280930021778,225.89282209984958,None,225.39280930021778,225.39280930021778,225.39280930021778,225.39280930021778,225.39280930021778,225.39280930021778,,,,,,250101,001,2023-12-04_12h08.49.815,REPSWITCH1_version1_list1,2022.2.4,144.05029116692853,
REPSWITCH1/PICTURE_552.png,manzana,speak,gold,repeat,2,T,2,1,1,1,Stim6_Set2,0,None,44,43,44,0,43,43,43,,,,,,,,,,,,,,,,,,,,,,,225.89282209984958,226.94155600015074,226.94155600015074,226.94155600015074,226.94155600015074,226.94155600015074,226.94155600015074,226.94155600015074,226.94155600015074,None,0,,,C:\2023\REPSWITCH21092023\REPSWITCH_excgange\REPSWITCH_excgange\data/250101_REPSWITCH1_version1_list1_2023-12-04_12h08.49.815_micRespv1l1_recorded\recording_micRespv1l1_2023-12-04_12h12.32.032.wav,229.96276700031012,230.46283120010048,None,229.96276700031012,229.96276700031012,229.96276700031012,229.96276700031012,229.96276700031012,229.96276700031012,,,,,,250101,001,2023-12-04_12h08.49.815,REPSWITCH1_version1_list1,2022.2.4,144.05029116692853,
REPSWITCH1/PICTURE_16.png,cazador,type,darkblue,filler,1,F,2,1,1,1,Stim6_Set1,0,None,45,44,45,0,44,44,44,,,,,,,,,,,,,,,,,,,,,,,230.46283120010048,231.54642970021814,231.54642970021814,231.54642970021814,231.54642970021814,231.54642970021814,231.54642970021814,231.54642970021814,231.54642970021814,"['c', 'a', 'z', 'a', 'd', 'o', 'r']",0,"[0.9851926998235285, 1.143686099909246, 1.599781900178641, 1.8759572999551892, 2.0456783999688923, 2.194128599949181, 2.315758000127971]",cazador,C:\2023\REPSWITCH21092023\REPSWITCH_excgange\REPSWITCH_excgange\data/250101_REPSWITCH1_version1_list1_2023-12-04_12h08.49.815_micRespv1l1_recorded\recording_micRespv1l1_2023-12-04_12h12.36.637.wav,234.57449989998713,,None,234.57449989998713,234.57449989998713,234.57449989998713,234.57449989998713,234.57449989998713,234.57449989998713,,,,,,250101,001,2023-12-04_12h08.49.815,REPSWITCH1_version1_list1,2022.2.4,144.05029116692853,
REPSWITCH1/PICTURE_446.png,cerdo,speak,gold,nontarget,2,NT,2,1,1,1,Stim7_Set2,1,switch,46,45,46,0,45,45,45,,,,,,,,,,,,,,,,,,,,,,,235.0745585002005,236.16499479999766,236.16499479999766,236.16499479999766,236.16499479999766,236.16499479999766,236.16499479999766,236.16499479999766,236.16499479999766,None,0,,,C:\2023\REPSWITCH21092023\REPSWITCH_excgange\REPSWITCH_excgange\data/250101_REPSWITCH1_version1_list1_2023-12-04_12h08.49.815_micRespv1l1_recorded\recording_micRespv1l1_2023-12-04_12h12.41.256.wav,239.19319500029087,,None,239.19319500029087,239.19319500029087,239.19319500029087,239.19319500029087,239.19319500029087,239.19319500029087,,,,,,250101,001,2023-12-04_12h08.49.815,REPSWITCH1_version1_list1,2022.2.4,144.05029116692853,
REPSWITCH1/PICTURE_446.png,cerdo,speak,gold,repeat,2,T,2,1,1,1,Stim7_Set2,0,None,47,46,47,0,46,46,46,,,,,,,,,,,,,,,,,,,,,,,239.6932311002165,240.8601305000484,240.8601305000484,240.8601305000484,240.8601305000484,240.8601305000484,240.8601305000484,240.8601305000484,240.8601305000484,None,0,,,C:\2023\REPSWITCH21092023\REPSWITCH_excgange\REPSWITCH_excgange\data/250101_REPSWITCH1_version1_list1_2023-12-04_12h08.49.815_micRespv1l1_recorded\recording_micRespv1l1_2023-12-04_12h12.45.951.wav,243.88127270014957,244.38136640004814,None,243.88127270014957,243.88127270014957,243.88127270014957,243.88127270014957,243.88127270014957,243.88127270014957,,,,,,250101,001,2023-12-04_12h08.49.815,REPSWITCH1_version1_list1,2022.2.4,144.05029116692853,
REPSWITCH1/PICTURE_590.png,escoba,type,darkblue,filler,1,F,2,1,1,1,Extra3,0,None,48,47,48,0,47,47,47,,,,,,,,,,,,,,,,,,,,,,,244.38136640004814,245.42322860006243,245.42322860006243,245.42322860006243,245.42322860006243,245.42322860006243,245.42322860006243,245.42322860006243,245.42322860006243,"['e', 's', 'c', 'o', 'b', 'a']",0,"[0.9211732000112534, 1.1184356003068388, 1.3445244003087282, 1.460137499962002, 1.6445317002944648, 1.9215617999434471]",escoba,C:\2023\REPSWITCH21092023\REPSWITCH_excgange\REPSWITCH_excgange\data/250101_REPSWITCH1_version1_list1_2023-12-04_12h08.49.815_micRespv1l1_recorded\recording_micRespv1l1_2023-12-04_12h12.50.513.wav,248.44437430007383,248.94446430029348,None,248.44437430007383,248.44437430007383,248.44437430007383,248.44437430007383,248.44437430007383,248.44437430007383,,,,,,250101,001,2023-12-04_12h08.49.815,REPSWITCH1_version1_list1,2022.2.4,144.05029116692853,
REPSWITCH1/PICTURE_169.png,espalda,speak,gold,filler,2,F,2,1,1,1,Stim8_Set1,0,None,49,48,49,0,48,48,48,,,,,,,,,,,,,,,,,,,,,,,248.94446430029348,250.0140287000686,250.0140287000686,250.0140287000686,250.0140287000686,250.0140287000686,250.0140287000686,250.0140287000686,250.0140287000686,None,0,,,C:\2023\REPSWITCH21092023\REPSWITCH_excgange\REPSWITCH_excgange\data/250101_REPSWITCH1_version1_list1_2023-12-04_12h08.49.815_micRespv1l1_recorded\recording_micRespv1l1_2023-12-04_12h12.55.104.wav,253.042232000269,,None,253.042232000269,253.042232000269,253.042232000269,253.042232000269,253.042232000269,253.042232000269,,,,,,250101,001,2023-12-04_12h08.49.815,REPSWITCH1_version1_list1,2022.2.4,144.05029116692853,
REPSWITCH1/PICTURE_199.png,falda,speak,gold,nontarget,2,NT,2,1,1,1,Stim8_Set2,1,repeat,50,49,50,0,49,49,49,,,,,,,,,,,,,,,,,,,,,,,253.5423634001054,254.75774430017918,254.75774430017918,254.75774430017918,254.75774430017918,254.75774430017918,254.75774430017918,254.75774430017918,254.75774430017918,None,0,,,C:\2023\REPSWITCH21092023\REPSWITCH_excgange\REPSWITCH_excgange\data/250101_REPSWITCH1_version1_list1_2023-12-04_12h08.49.815_micRespv1l1_recorded\recording_micRespv1l1_2023-12-04_12h12.59.848.wav,257.785898800008,,None,257.785898800008,257.785898800008,257.785898800008,257.785898800008,257.785898800008,257.785898800008,,,,,,250101,001,2023-12-04_12h08.49.815,REPSWITCH1_version1_list1,2022.2.4,144.05029116692853,
REPSWITCH1/PICTURE_199.png,falda,type,darkblue,switch,1,T,2,1,1,1,Stim8_Set2,0,None,51,50,51,0,50,50,50,,,,,,,,,,,,,,,,,,,,,,,258.28595789987594,259.37644750019535,259.37644750019535,259.37644750019535,259.37644750019535,259.37644750019535,259.37644750019535,259.37644750019535,259.37644750019535,"['f', 'a', 'l', 'd', 'a']",0,"[1.0198164004832506, 1.2281039003282785, 1.40539660025388, 1.5622684000991285, 1.6131161004304886]",falda,C:\2023\REPSWITCH21092023\REPSWITCH_excgange\REPSWITCH_excgange\data/250101_REPSWITCH1_version1_list1_2023-12-04_12h08.49.815_micRespv1l1_recorded\recording_micRespv1l1_2023-12-04_12h13.04.467.wav,262.39760280027986,262.8976656999439,space,262.39760280027986,262.39760280027986,262.39760280027986,262.39760280027986,262.39760280027986,262.39760280027986,262.8976656999439,262.8976656999439,17.311782700009644,,,250101,001,2023-12-04_12h08.49.815,REPSWITCH1_version1_list1,2022.2.4,144.05029116692853,
REPSWITCH1/PICTURE_576.png,guante,type,darkblue,nontarget,1,NT,3,1,1,1,Stim1_Set3,0,None,52,51,52,0,51,51,51,,,,,,,,,,,,,,,,,,,,,,,280.21941559994593,281.31677210005,281.31677210005,281.31677210005,281.31677210005,281.31677210005,281.31677210005,281.31677210005,281.31677210005,"['g', 'u', 'a', 'n', 't', 'e']",0,"[1.2699692002497613, 1.414475700352341, 1.5639782003127038, 1.7345231003127992, 1.8590323999524117, 2.06433380022645]",guante,C:\2023\REPSWITCH21092023\REPSWITCH_excgange\REPSWITCH_excgange\data/250101_REPSWITCH1_version1_list1_2023-12-04_12h08.49.815_micRespv1l1_recorded\recording_micRespv1l1_2023-12-04_12h13.26.408.wav,284.344955699984,,None,284.344955699984,284.344955699984,284.344955699984,284.344955699984,284.344955699984,284.344955699984,,,,,,250101,001,2023-12-04_12h08.49.815,REPSWITCH1_version1_list1,2022.2.4,144.05029116692853,
REPSWITCH1/PICTURE_576.png,guante,speak,gold,switch,2,T,3,1,1,1,Stim1_Set3,0,None,53,52,53,0,52,52,52,,,,,,,,,,,,,,,,,,,,,,,284.84508639993146,286.0327492998913,286.0327492998913,286.0327492998913,286.0327492998913,286.0327492998913,286.0327492998913,286.0327492998913,286.0327492998913,None,0,,,C:\2023\REPSWITCH21092023\REPSWITCH_excgange\REPSWITCH_excgange\data/250101_REPSWITCH1_version1_list1_2023-12-04_12h08.49.815_micRespv1l1_recorded\recording_micRespv1l1_2023-12-04_12h13.31.123.wav,289.05387309985235,289.5539724002592,None,289.05387309985235,289.05387309985235,289.05387309985235,289.05387309985235,289.05387309985235,289.05387309985235,,,,,,250101,001,2023-12-04_12h08.49.815,REPSWITCH1_version1_list1,2022.2.4,144.05029116692853,
REPSWITCH1/PICTURE_646.png,tronco,speak,gold,filler,2,F,3,1,1,1,Extra4,0,None,54,53,54,0,53,53,53,,,,,,,,,,,,,,,,,,,,,,,289.5539724002592,290.6930348998867,290.6930348998867,290.6930348998867,290.6930348998867,290.6930348998867,290.6930348998867,290.6930348998867,290.6930348998867,None,0,,,C:\2023\REPSWITCH21092023\REPSWITCH_excgange\REPSWITCH_excgange\data/250101_REPSWITCH1_version1_list1_2023-12-04_12h08.49.815_micRespv1l1_recorded\recording_micRespv1l1_2023-12-04_12h13.35.783.wav,293.7142783002928,294.2142916000448,None,293.7142783002928,293.7142783002928,293.7142783002928,293.7142783002928,293.7142783002928,293.7142783002928,,,,,,250101,001,2023-12-04_12h08.49.815,REPSWITCH1_version1_list1,2022.2.4,144.05029116692853,
REPSWITCH1/PICTURE_610.png,miel,speak,gold,nontarget,2,NT,3,1,1,1,Stim2_Set3,1,repeat,55,54,55,0,54,54,54,,,,,,,,,,,,,,,,,,,,,,,294.2142916000448,295.33944710018113,295.33944710018113,295.33944710018113,295.33944710018113,295.33944710018113,295.33944710018113,295.33944710018113,295.33944710018113,None,0,,,C:\2023\REPSWITCH21092023\REPSWITCH_excgange\REPSWITCH_excgange\data/250101_REPSWITCH1_version1_list1_2023-12-04_12h08.49.815_micRespv1l1_recorded\recording_micRespv1l1_2023-12-04_12h13.40.430.wav,298.3676106003113,,None,298.3676106003113,298.3676106003113,298.3676106003113,298.3676106003113,298.3676106003113,298.3676106003113,,,,,,250101,001,2023-12-04_12h08.49.815,REPSWITCH1_version1_list1,2022.2.4,144.05029116692853,
REPSWITCH1/PICTURE_610.png,miel,type,darkblue,switch,1,T,3,1,1,1,Stim2_Set3,0,None,56,55,56,0,55,55,55,,,,,,,,,,,,,,,,,,,,,,,298.86767480010167,300.0067528001964,300.0067528001964,300.0067528001964,300.0067528001964,300.0067528001964,300.0067528001964,300.0067528001964,300.0067528001964,"['m', 'i', 'e', 'l']",0,"[0.997547899838537, 1.1798479999415576, 1.3393497997894883, 1.5076127997599542]",miel,C:\2023\REPSWITCH21092023\REPSWITCH_excgange\REPSWITCH_excgange\data/250101_REPSWITCH1_version1_list1_2023-12-04_12h08.49.815_micRespv1l1_recorded\recording_micRespv1l1_2023-12-04_12h13.45.096.wav,303.02797090029344,303.52803400019184,None,303.02797090029344,303.02797090029344,303.02797090029344,303.02797090029344,303.02797090029344,303.02797090029344,,,,,,250101,001,2023-12-04_12h08.49.815,REPSWITCH1_version1_list1,2022.2.4,144.05029116692853,
REPSWITCH1/PICTURE_175.png,pintor,type,darkblue,filler,1,F,3,1,1,1,Stim1_Set2,1,repeat,57,56,57,0,56,56,56,,,,,,,,,,,,,,,,,,,,,,,303.52803400019184,304.63927280018106,304.63927280018106,304.63927280018106,304.63927280018106,304.63927280018106,304.63927280018106,304.63927280018106,304.63927280018106,"['p', 'i', 'n', 't', 'o', 'r']",0,"[0.9608751004561782, 1.1980205001309514, 1.7457044003531337, 2.192358700092882, 2.365047300234437, 2.4637120002880692]",pintor,C:\2023\REPSWITCH21092023\REPSWITCH_excgange\REPSWITCH_excgange\data/250101_REPSWITCH1_version1_list1_2023-12-04_12h08.49.815_micRespv1l1_recorded\recording_micRespv1l1_2023-12-04_12h13.49.729.wav,307.6605644999072,308.16056630015373,None,307.6605644999072,307.6605644999072,307.6605644999072,307.6605644999072,307.6605644999072,307.6605644999072,,,,,,250101,001,2023-12-04_12h08.49.815,REPSWITCH1_version1_list1,2022.2.4,144.05029116692853,
REPSWITCH1/PICTURE_242.png,cartero,type,darkblue,nontarget,1,NT,3,1,1,1,Stim3_Set3,1,repeat,58,57,58,0,57,57,57,,,,,,,,,,,,,,,,,,,,,,,308.16056630015373,309.25099160009995,309.25099160009995,309.25099160009995,309.25099160009995,309.25099160009995,309.25099160009995,309.25099160009995,309.25099160009995,"['c', 'a', 'r', 't', 'e', 'r', 'o']",0,"[1.0141515000723302, 1.1792656001634896, 1.4618898001499474, 1.6385829001665115, 1.8067658003419638, 1.9442986003123224, 2.0990207004360855]",cartero,C:\2023\REPSWITCH21092023\REPSWITCH_excgange\REPSWITCH_excgange\data/250101_REPSWITCH1_version1_list1_2023-12-04_12h08.49.815_micRespv1l1_recorded\recording_micRespv1l1_2023-12-04_12h13.54.342.wav,312.27924539987,,None,312.27924539987,312.27924539987,312.27924539987,312.27924539987,312.27924539987,312.27924539987,,,,,,250101,001,2023-12-04_12h08.49.815,REPSWITCH1_version1_list1,2022.2.4,144.05029116692853,
REPSWITCH1/PICTURE_242.png,cartero,speak,gold,switch,2,T,3,1,1,1,Stim3_Set3,0,None,59,58,59,0,58,58,58,,,,,,,,,,,,,,,,,,,,,,,312.7792584002018,313.80714050028473,313.80714050028473,313.80714050028473,313.80714050028473,313.80714050028473,313.80714050028473,313.80714050028473,313.80714050028473,None,0,,,C:\2023\REPSWITCH21092023\REPSWITCH_excgange\REPSWITCH_excgange\data/250101_REPSWITCH1_version1_list1_2023-12-04_12h08.49.815_micRespv1l1_recorded\recording_micRespv1l1_2023-12-04_12h13.58.898.wav,316.82835890026763,317.3284475002438,None,316.82835890026763,316.82835890026763,316.82835890026763,316.82835890026763,316.82835890026763,316.82835890026763,,,,,,250101,001,2023-12-04_12h08.49.815,REPSWITCH1_version1_list1,2022.2.4,144.05029116692853,
REPSWITCH1/PICTURE_152.png,caracol,speak,gold,filler,2,F,3,1,1,1,Stim2_Set2,0,None,60,59,60,0,59,59,59,,,,,,,,,,,,,,,,,,,,,,,317.3284475002438,318.384209100157,318.384209100157,318.384209100157,318.384209100157,318.384209100157,318.384209100157,318.384209100157,318.384209100157,None,0,,,C:\2023\REPSWITCH21092023\REPSWITCH_excgange\REPSWITCH_excgange\data/250101_REPSWITCH1_version1_list1_2023-12-04_12h08.49.815_micRespv1l1_recorded\recording_micRespv1l1_2023-12-04_12h14.03.475.wav,321.4124022000469,,None,321.4124022000469,321.4124022000469,321.4124022000469,321.4124022000469,321.4124022000469,321.4124022000469,,,,,,250101,001,2023-12-04_12h08.49.815,REPSWITCH1_version1_list1,2022.2.4,144.05029116692853,
REPSWITCH1/PICTURE_517.png,cuerda,type,darkblue,filler,1,F,3,1,1,1,Stim4_Set2,0,None,61,60,61,0,60,60,60,,,,,,,,,,,,,,,,,,,,,,,321.9123980002478,323.0722810002044,323.0722810002044,323.0722810002044,323.0722810002044,323.0722810002044,323.0722810002044,323.0722810002044,323.0722810002044,"['c', 'u', 'e', 'r', 'd', 'a']",0,"[0.8680934002622962, 1.1301422002725303, 1.2487220000475645, 1.377293800469488, 1.547779300250113, 1.7412865003570914]",cuerda,C:\2023\REPSWITCH21092023\REPSWITCH_excgange\REPSWITCH_excgange\data/250101_REPSWITCH1_version1_list1_2023-12-04_12h08.49.815_micRespv1l1_recorded\recording_micRespv1l1_2023-12-04_12h14.08.163.wav,326.1004389002919,,None,326.1004389002919,326.1004389002919,326.1004389002919,326.1004389002919,326.1004389002919,326.1004389002919,,,,,,250101,001,2023-12-04_12h08.49.815,REPSWITCH1_version1_list1,2022.2.4,144.05029116692853,
REPSWITCH1/PICTURE_235.png,aguja,speak,gold,nontarget,2,NT,3,1,1,1,Stim4_Set3,1,switch,62,61,62,0,61,61,61,,,,,,,,,,,,,,,,,,,,,,,326.600488900207,327.6562149999663,327.6562149999663,327.6562149999663,327.6562149999663,327.6562149999663,327.6562149999663,327.6562149999663,327.6562149999663,None,0,,,C:\2023\REPSWITCH21092023\REPSWITCH_excgange\REPSWITCH_excgange\data/250101_REPSWITCH1_version1_list1_2023-12-04_12h08.49.815_micRespv1l1_recorded\recording_micRespv1l1_2023-12-04_12h14.12.747.wav,330.68439000006765,,None,330.68439000006765,330.68439000006765,330.68439000006765,330.68439000006765,330.68439000006765,330.68439000006765,,,,,,250101,001,2023-12-04_12h08.49.815,REPSWITCH1_version1_list1,2022.2.4,144.05029116692853,
REPSWITCH1/PICTURE_235.png,aguja,speak,gold,repeat,2,T,3,1,1,1,Stim4_Set3,0,None,63,62,63,0,62,62,62,,,,,,,,,,,,,,,,,,,,,,,331.18442910024896,332.3374165999703,332.3374165999703,332.3374165999703,332.3374165999703,332.3374165999703,332.3374165999703,332.3374165999703,332.3374165999703,None,0,,,C:\2023\REPSWITCH21092023\REPSWITCH_excgange\REPSWITCH_excgange\data/250101_REPSWITCH1_version1_list1_2023-12-04_12h08.49.815_micRespv1l1_recorded\recording_micRespv1l1_2023-12-04_12h14.17.426.wav,335.3585763000883,335.8586488002911,None,335.3585763000883,335.3585763000883,335.3585763000883,335.3585763000883,335.3585763000883,335.3585763000883,,,,,,250101,001,2023-12-04_12h08.49.815,REPSWITCH1_version1_list1,2022.2.4,144.05029116692853,
REPSWITCH1/PICTURE_30.png,granja,type,darkblue,filler,1,F,3,1,1,1,Stim5_Set2,0,None,64,63,64,0,63,63,63,,,,,,,,,,,,,,,,,,,,,,,335.8586488002911,336.94214740023017,336.94214740023017,336.94214740023017,336.94214740023017,336.94214740023017,336.94214740023017,336.94214740023017,336.94214740023017,"['g', 'r', 'a', 'n', 'j', 'a']",0,"[1.3377628000453115, 2.0463426001369953, 2.25217550015077, 2.3907429999671876, 2.561180999968201, 2.636921899858862]",granja,C:\2023\REPSWITCH21092023\REPSWITCH_excgange\REPSWITCH_excgange\data/250101_REPSWITCH1_version1_list1_2023-12-04_12h08.49.815_micRespv1l1_recorded\recording_micRespv1l1_2023-12-04_12h14.22.033.wav,339.97033390030265,,None,339.97033390030265,339.97033390030265,339.97033390030265,339.97033390030265,339.97033390030265,339.97033390030265,,,,,,250101,001,2023-12-04_12h08.49.815,REPSWITCH1_version1_list1,2022.2.4,144.05029116692853,
REPSWITCH1/PICTURE_552.png,manzana,speak,gold,filler,2,F,3,1,1,1,Stim6_Set2,1,switch,65,64,65,0,64,64,64,,,,,,,,,,,,,,,,,,,,,,,340.4703802000731,341.5816780999303,341.5816780999303,341.5816780999303,341.5816780999303,341.5816780999303,341.5816780999303,341.5816780999303,341.5816780999303,None,0,,,C:\2023\REPSWITCH21092023\REPSWITCH_excgange\REPSWITCH_excgange\data/250101_REPSWITCH1_version1_list1_2023-12-04_12h08.49.815_micRespv1l1_recorded\recording_micRespv1l1_2023-12-04_12h14.26.673.wav,344.6098079001531,,None,344.6098079001531,344.6098079001531,344.6098079001531,344.6098079001531,344.6098079001531,344.6098079001531,,,,,,250101,001,2023-12-04_12h08.49.815,REPSWITCH1_version1_list1,2022.2.4,144.05029116692853,
REPSWITCH1/PICTURE_35.png,oreja,speak,gold,nontarget,2,NT,3,1,1,1,Stim5_Set3,1,repeat,66,65,66,0,65,65,65,,,,,,,,,,,,,,,,,,,,,,,345.1098919999786,346.1239791000262,346.1239791000262,346.1239791000262,346.1239791000262,346.1239791000262,346.1239791000262,346.1239791000262,346.1239791000262,None,0,,,C:\2023\REPSWITCH21092023\REPSWITCH_excgange\REPSWITCH_excgange\data/250101_REPSWITCH1_version1_list1_2023-12-04_12h08.49.815_micRespv1l1_recorded\recording_micRespv1l1_2023-12-04_12h14.31.214.wav,349.1451246002689,349.6451968001202,None,349.1451246002689,349.1451246002689,349.1451246002689,349.1451246002689,349.1451246002689,349.1451246002689,,,,,,250101,001,2023-12-04_12h08.49.815,REPSWITCH1_version1_list1,2022.2.4,144.05029116692853,
REPSWITCH1/PICTURE_35.png,oreja,speak,gold,repeat,2,T,3,1,1,1,Stim5_Set3,0,None,67,66,67,0,66,66,66,,,,,,,,,,,,,,,,,,,,,,,349.6451968001202,350.77042829990387,350.77042829990387,350.77042829990387,350.77042829990387,350.77042829990387,350.77042829990387,350.77042829990387,350.77042829990387,None,0,,,C:\2023\REPSWITCH21092023\REPSWITCH_excgange\REPSWITCH_excgange\data/250101_REPSWITCH1_version1_list1_2023-12-04_12h08.49.815_micRespv1l1_recorded\recording_micRespv1l1_2023-12-04_12h14.35.860.wav,353.79159100027755,354.2916307002306,None,353.79159100027755,353.79159100027755,353.79159100027755,353.79159100027755,353.79159100027755,353.79159100027755,,,,,,250101,001,2023-12-04_12h08.49.815,REPSWITCH1_version1_list1,2022.2.4,144.05029116692853,
REPSWITCH1/PICTURE_673.png,tenedor,type,darkblue,filler,1,F,3,1,1,1,Extra5,0,None,68,67,68,0,67,67,67,,,,,,,,,,,,,,,,,,,,,,,354.2916307002306,355.3126349998638,355.3126349998638,355.3126349998638,355.3126349998638,355.3126349998638,355.3126349998638,355.3126349998638,355.3126349998638,"['t', 'e', 'n', 'e', 'd', 'o', 'r']",0,"[0.9332544002681971, 1.1475332002155483, 1.290310200303793, 1.3764315005391836, 1.5570950005203485, 1.701606200542301, 1.8581186002120376]",tenedor,C:\2023\REPSWITCH21092023\REPSWITCH_excgange\REPSWITCH_excgange\data/250101_REPSWITCH1_version1_list1_2023-12-04_12h08.49.815_micRespv1l1_recorded\recording_micRespv1l1_2023-12-04_12h14.40.403.wav,358.33385520009324,358.83399740001187,None,358.33385520009324,358.33385520009324,358.33385520009324,358.33385520009324,358.33385520009324,358.33385520009324,,,,,,250101,001,2023-12-04_12h08.49.815,REPSWITCH1_version1_list1,2022.2.4,144.05029116692853,
REPSWITCH1/PICTURE_464.png,goma,speak,gold,nontarget,2,NT,3,1,1,1,Stim6_Set3,0,None,69,68,69,0,68,68,68,,,,,,,,,,,,,,,,,,,,,,,358.83399740001187,360.0354879000224,360.0354879000224,360.0354879000224,360.0354879000224,360.0354879000224,360.0354879000224,360.0354879000224,360.0354879000224,None,0,,,C:\2023\REPSWITCH21092023\REPSWITCH_excgange\REPSWITCH_excgange\data/250101_REPSWITCH1_version1_list1_2023-12-04_12h08.49.815_micRespv1l1_recorded\recording_micRespv1l1_2023-12-04_12h14.45.127.wav,363.0636964002624,,None,363.0636964002624,363.0636964002624,363.0636964002624,363.0636964002624,363.0636964002624,363.0636964002624,,,,,,250101,001,2023-12-04_12h08.49.815,REPSWITCH1_version1_list1,2022.2.4,144.05029116692853,
REPSWITCH1/PICTURE_464.png,goma,type,darkblue,switch,1,T,3,1,1,1,Stim6_Set3,0,None,70,69,70,0,69,69,69,,,,,,,,,,,,,,,,,,,,,,,363.56370150018483,364.64720789995044,364.64720789995044,364.64720789995044,364.64720789995044,364.64720789995044,364.64720789995044,364.64720789995044,364.64720789995044,"['g', 'o', 'm', 'a']",0,"[0.9026123001240194, 1.0433574002236128, 1.2686265003867447, 1.4480611002072692]",goma,C:\2023\REPSWITCH21092023\REPSWITCH_excgange\REPSWITCH_excgange\data/250101_REPSWITCH1_version1_list1_2023-12-04_12h08.49.815_micRespv1l1_recorded\recording_micRespv1l1_2023-12-04_12h14.49.737.wav,367.6684236000292,368.1684560002759,None,367.6684236000292,367.6684236000292,367.6684236000292,367.6684236000292,367.6684236000292,367.6684236000292,,,,,,250101,001,2023-12-04_12h08.49.815,REPSWITCH1_version1_list1,2022.2.4,144.05029116692853,
REPSWITCH1/PICTURE_264.png,mano,speak,gold,filler,2,F,3,1,1,1,Stim3_Set2,0,None,71,70,71,0,70,70,70,,,,,,,,,,,,,,,,,,,,,,,368.1684560002759,369.21721020014957,369.21721020014957,369.21721020014957,369.21721020014957,369.21721020014957,369.21721020014957,369.21721020014957,369.21721020014957,None,0,,,C:\2023\REPSWITCH21092023\REPSWITCH_excgange\REPSWITCH_excgange\data/250101_REPSWITCH1_version1_list1_2023-12-04_12h08.49.815_micRespv1l1_recorded\recording_micRespv1l1_2023-12-04_12h14.54.308.wav,372.2454305002466,,None,372.2454305002466,372.2454305002466,372.2454305002466,372.2454305002466,372.2454305002466,372.2454305002466,,,,,,250101,001,2023-12-04_12h08.49.815,REPSWITCH1_version1_list1,2022.2.4,144.05029116692853,
REPSWITCH1/PICTURE_271.png,conejo,type,darkblue,nontarget,1,NT,3,1,1,1,Stim7_Set3,1,switch,72,71,72,0,71,71,71,,,,,,,,,,,,,,,,,,,,,,,372.74545679986477,373.84980509988964,373.84980509988964,373.84980509988964,373.84980509988964,373.84980509988964,373.84980509988964,373.84980509988964,373.84980509988964,"['c', 'o', 'n', 'e', 'j', 'o']",0,"[0.864423600025475, 1.0206915000453591, 1.2787890997715294, 1.39841330004856, 1.5276084998622537, 1.7269782000221312]",conejo,C:\2023\REPSWITCH21092023\REPSWITCH_excgange\REPSWITCH_excgange\data/250101_REPSWITCH1_version1_list1_2023-12-04_12h08.49.815_micRespv1l1_recorded\recording_micRespv1l1_2023-12-04_12h14.58.940.wav,376.87796230008826,,None,376.87796230008826,376.87796230008826,376.87796230008826,376.87796230008826,376.87796230008826,376.87796230008826,,,,,,250101,001,2023-12-04_12h08.49.815,REPSWITCH1_version1_list1,2022.2.4,144.05029116692853,
REPSWITCH1/PICTURE_271.png,conejo,type,darkblue,repeat,1,T,3,1,1,1,Stim7_Set3,0,None,73,72,73,0,72,72,72,,,,,,,,,,,,,,,,,,,,,,,377.3780265999958,378.43379290029407,378.43379290029407,378.43379290029407,378.43379290029407,378.43379290029407,378.43379290029407,378.43379290029407,378.43379290029407,"['c', 'o', 'n', 'e', 'j', 'o']",0,"[0.995647800154984, 1.0790424002334476, 1.3271652003750205, 1.4786416999995708, 1.5848171999678016, 1.761177200358361]",conejo,C:\2023\REPSWITCH21092023\REPSWITCH_excgange\REPSWITCH_excgange\data/250101_REPSWITCH1_version1_list1_2023-12-04_12h08.49.815_micRespv1l1_recorded\recording_micRespv1l1_2023-12-04_12h15.03.525.wav,381.46195890009403,,None,381.46195890009403,381.46195890009403,381.46195890009403,381.46195890009403,381.46195890009403,381.46195890009403,,,,,,250101,001,2023-12-04_12h08.49.815,REPSWITCH1_version1_list1,2022.2.4,144.05029116692853,
REPSWITCH1/PICTURE_446.png,cerdo,speak,gold,filler,2,F,3,1,1,1,Stim7_Set2,0,None,74,73,74,0,73,73,73,,,,,,,,,,,,,,,,,,,,,,,381.9619725001976,383.14275110000744,383.14275110000744,383.14275110000744,383.14275110000744,383.14275110000744,383.14275110000744,383.14275110000744,383.14275110000744,None,0,,,C:\2023\REPSWITCH21092023\REPSWITCH_excgange\REPSWITCH_excgange\data/250101_REPSWITCH1_version1_list1_2023-12-04_12h08.49.815_micRespv1l1_recorded\recording_micRespv1l1_2023-12-04_12h15.08.233.wav,386.1638970999047,386.6639717002399,None,386.1638970999047,386.1638970999047,386.1638970999047,386.1638970999047,386.1638970999047,386.1638970999047,,,,,,250101,001,2023-12-04_12h08.49.815,REPSWITCH1_version1_list1,2022.2.4,144.05029116692853,
REPSWITCH1/PICTURE_199.png,falda,type,darkblue,filler,1,F,3,1,1,1,Stim8_Set2,1,switch,75,74,75,0,74,74,74,,,,,,,,,,,,,,,,,,,,,,,386.6639717002399,387.7127286000177,387.7127286000177,387.7127286000177,387.7127286000177,387.7127286000177,387.7127286000177,387.7127286000177,387.7127286000177,"['f', 'a', 'l', 'd', 'a']",0,"[0.8168917000293732, 1.0254263002425432, 1.1563587002456188, 1.268978700041771, 1.3490297999233007]",falda,C:\2023\REPSWITCH21092023\REPSWITCH_excgange\REPSWITCH_excgange\data/250101_REPSWITCH1_version1_list1_2023-12-04_12h08.49.815_micRespv1l1_recorded\recording_micRespv1l1_2023-12-04_12h15.12.803.wav,390.73395929997787,391.2340211002156,None,390.73395929997787,390.73395929997787,390.73395929997787,390.73395929997787,390.73395929997787,390.73395929997787,,,,,,250101,001,2023-12-04_12h08.49.815,REPSWITCH1_version1_list1,2022.2.4,144.05029116692853,
REPSWITCH1/PICTURE_320.png,iglesia,type,darkblue,nontarget,1,NT,3,1,1,1,Stim8_Set3,1,repeat,76,75,76,0,75,75,75,,,,,,,,,,,,,,,,,,,,,,,391.2340211002156,392.34528069989756,392.34528069989756,392.34528069989756,392.34528069989756,392.34528069989756,392.34528069989756,392.34528069989756,392.34528069989756,"['i', 'g', 'l', 'e', 's', 'i', 'a']",0,"[1.2312835999764502, 1.4276864998973906, 1.5693675000220537, 1.6841659001074731, 1.875855399761349, 1.987492499873042, 2.1001154999248683]",iglesia,C:\2023\REPSWITCH21092023\REPSWITCH_excgange\REPSWITCH_excgange\data/250101_REPSWITCH1_version1_list1_2023-12-04_12h08.49.815_micRespv1l1_recorded\recording_micRespv1l1_2023-12-04_12h15.17.436.wav,395.37349160015583,,None,395.37349160015583,395.37349160015583,395.37349160015583,395.37349160015583,395.37349160015583,395.37349160015583,,,,,,250101,001,2023-12-04_12h08.49.815,REPSWITCH1_version1_list1,2022.2.4,144.05029116692853,
REPSWITCH1/PICTURE_320.png,iglesia,type,darkblue,repeat,1,T,3,1,1,1,Stim8_Set3,0,None,77,76,77,0,76,76,76,,,,,,,,,,,,,,,,,,,,,,,395.87348490022123,397.0056586000137,397.0056586000137,397.0056586000137,397.0056586000137,397.0056586000137,397.0056586000137,397.0056586000137,397.0056586000137,"['i', 'g', 'l', 'e', 's', 'backspace']",0,"[0.983398400247097, 1.1348761999979615, 1.2976094000041485, 1.399607100058347, 1.5978981000371277, 2.3311776001937687]",igle,C:\2023\REPSWITCH21092023\REPSWITCH_excgange\REPSWITCH_excgange\data/250101_REPSWITCH1_version1_list1_2023-12-04_12h08.49.815_micRespv1l1_recorded\recording_micRespv1l1_2023-12-04_12h15.22.096.wav,400.0338500002399,,None,400.0338500002399,400.0338500002399,400.0338500002399,400.0338500002399,400.0338500002399,400.0338500002399,,,,,,250101,001,2023-12-04_12h08.49.815,REPSWITCH1_version1_list1,2022.2.4,144.05029116692853,
REPSWITCH1/PICTURE_576.png,guante,speak,gold,filler,2,F,4,1,1,1,Stim1_Set3,0,None,78,77,78,0,77,77,77,,,,,,,,,,,,,,,,,,,,,,,400.53385289991274,401.59654700011015,401.59654700011015,401.59654700011015,401.59654700011015,401.59654700011015,401.59654700011015,401.59654700011015,401.59654700011015,None,0,,,C:\2023\REPSWITCH21092023\REPSWITCH_excgange\REPSWITCH_excgange\data/250101_REPSWITCH1_version1_list1_2023-12-04_12h08.49.815_micRespv1l1_recorded\recording_micRespv1l1_2023-12-04_12h15.26.687.wav,404.62464450020343,,None,404.62464450020343,404.62464450020343,404.62464450020343,404.62464450020343,404.62464450020343,404.62464450020343,,,,,,250101,001,2023-12-04_12h08.49.815,REPSWITCH1_version1_list1,2022.2.4,144.05029116692853,
REPSWITCH1/PICTURE_319.png,vaca,type,darkblue,nontarget,1,NT,4,1,1,1,Stim1_Set4,1,switch,79,78,79,0,78,78,78,,,,,,,,,,,,,,,,,,,,,,,405.12473799986765,406.27074200008065,406.27074200008065,406.27074200008065,406.27074200008065,406.27074200008065,406.27074200008065,406.27074200008065,406.27074200008065,"['v', 'a', 'c', 'a']",0,"[0.8101030001416802, 1.0135740004479885, 1.1949271000921726, 1.3305079001002014]",vaca,C:\2023\REPSWITCH21092023\REPSWITCH_excgange\REPSWITCH_excgange\data/250101_REPSWITCH1_version1_list1_2023-12-04_12h08.49.815_micRespv1l1_recorded\recording_micRespv1l1_2023-12-04_12h15.31.360.wav,409.2919510002248,409.7919787000865,None,409.2919510002248,409.2919510002248,409.2919510002248,409.2919510002248,409.2919510002248,409.2919510002248,,,,,,250101,001,2023-12-04_12h08.49.815,REPSWITCH1_version1_list1,2022.2.4,144.05029116692853,
REPSWITCH1/PICTURE_319.png,vaca,type,darkblue,repeat,1,T,4,1,1,1,Stim1_Set4,0,None,80,79,80,0,79,79,79,,,,,,,,,,,,,,,,,,,,,,,409.7919787000865,410.9311134000309,410.9311134000309,410.9311134000309,410.9311134000309,410.9311134000309,410.9311134000309,410.9311134000309,410.9311134000309,"['v', 'a', 'c', 'a']",0,"[0.9100960004143417, 1.118614200502634, 1.296029000543058, 1.4285717001184821]",vaca,C:\2023\REPSWITCH21092023\REPSWITCH_excgange\REPSWITCH_excgange\data/250101_REPSWITCH1_version1_list1_2023-12-04_12h08.49.815_micRespv1l1_recorded\recording_micRespv1l1_2023-12-04_12h15.36.022.wav,413.95922930026427,,None,413.95922930026427,413.95922930026427,413.95922930026427,413.95922930026427,413.95922930026427,413.95922930026427,,,,,,250101,001,2023-12-04_12h08.49.815,REPSWITCH1_version1_list1,2022.2.4,144.05029116692853,
REPSWITCH1/PICTURE_719.png,baño,type,darkblue,nontarget,1,NT,4,1,1,1,Stim2_Set4,0,None,81,80,81,0,80,80,80,,,,,,,,,,,,,,,,,,,,,,,414.45930139999837,415.52191640017554,415.52191640017554,415.52191640017554,415.52191640017554,415.52191640017554,415.52191640017554,415.52191640017554,415.52191640017554,"['b', 'a', 'ñ', 'o']",0,"[1.2696978002786636, 1.5099138002842665, 1.661363699939102, 1.8477471000514925]",baño,C:\2023\REPSWITCH21092023\REPSWITCH_excgange\REPSWITCH_excgange\data/250101_REPSWITCH1_version1_list1_2023-12-04_12h08.49.815_micRespv1l1_recorded\recording_micRespv1l1_2023-12-04_12h15.40.612.wav,418.5501115000807,,None,418.5501115000807,418.5501115000807,418.5501115000807,418.5501115000807,418.5501115000807,418.5501115000807,,,,,,250101,001,2023-12-04_12h08.49.815,REPSWITCH1_version1_list1,2022.2.4,144.05029116692853,
REPSWITCH1/PICTURE_719.png,baño,speak,gold,switch,2,T,4,1,1,1,Stim2_Set4,0,None,82,81,82,0,81,81,81,,,,,,,,,,,,,,,,,,,,,,,419.0501601998694,420.2030969001353,420.2030969001353,420.2030969001353,420.2030969001353,420.2030969001353,420.2030969001353,420.2030969001353,420.2030969001353,None,0,,,C:\2023\REPSWITCH21092023\REPSWITCH_excgange\REPSWITCH_excgange\data/250101_REPSWITCH1_version1_list1_2023-12-04_12h08.49.815_micRespv1l1_recorded\recording_micRespv1l1_2023-12-04_12h15.45.294.wav,423.23128130007535,,None,423.23128130007535,423.23128130007535,423.23128130007535,423.23128130007535,423.23128130007535,423.23128130007535,,,,,,250101,001,2023-12-04_12h08.49.815,REPSWITCH1_version1_list1,2022.2.4,144.05029116692853,
REPSWITCH1/PICTURE_242.png,cartero,speak,gold,filler,2,F,4,1,1,1,Stim3_Set3,1,repeat,83,82,83,0,82,82,82,,,,,,,,,,,,,,,,,,,,,,,423.7313482002355,424.8009179001674,424.8009179001674,424.8009179001674,424.8009179001674,424.8009179001674,424.8009179001674,424.8009179001674,424.8009179001674,None,0,,,C:\2023\REPSWITCH21092023\REPSWITCH_excgange\REPSWITCH_excgange\data/250101_REPSWITCH1_version1_list1_2023-12-04_12h08.49.815_micRespv1l1_recorded\recording_micRespv1l1_2023-12-04_12h15.49.891.wav,427.8291858001612,,None,427.8291858001612,427.8291858001612,427.8291858001612,427.8291858001612,427.8291858001612,427.8291858001612,,,,,,250101,001,2023-12-04_12h08.49.815,REPSWITCH1_version1_list1,2022.2.4,144.05029116692853,
REPSWITCH1/PICTURE_610.png,miel,type,darkblue,filler,1,F,4,1,1,1,Stim2_Set3,0,None,84,83,84,0,83,83,83,,,,,,,,,,,,,,,,,,,,,,,428.3291616998613,429.48910710029304,429.48910710029304,429.48910710029304,429.48910710029304,429.48910710029304,429.48910710029304,429.48910710029304,429.48910710029304,"['m', 'i', 'e', 'l']",0,"[0.9557042997330427, 1.1490591000765562, 1.292541999835521, 1.4652734999544919]",miel,C:\2023\REPSWITCH21092023\REPSWITCH_excgange\REPSWITCH_excgange\data/250101_REPSWITCH1_version1_list1_2023-12-04_12h08.49.815_micRespv1l1_recorded\recording_micRespv1l1_2023-12-04_12h15.54.579.wav,432.5102490000427,433.0103481998667,None,432.5102490000427,432.5102490000427,432.5102490000427,432.5102490000427,432.5102490000427,432.5102490000427,,,,,,250101,001,2023-12-04_12h08.49.815,REPSWITCH1_version1_list1,2022.2.4,144.05029116692853,
REPSWITCH1/PICTURE_8.png,pierna,speak,gold,nontarget,2,NT,4,1,1,1,Stim3_Set4,1,switch,85,84,85,0,84,84,84,,,,,,,,,,,,,,,,,,,,,,,433.0103481998667,434.14939959999174,434.14939959999174,434.14939959999174,434.14939959999174,434.14939959999174,434.14939959999174,434.14939959999174,434.14939959999174,None,0,,,C:\2023\REPSWITCH21092023\REPSWITCH_excgange\REPSWITCH_excgange\data/250101_REPSWITCH1_version1_list1_2023-12-04_12h08.49.815_micRespv1l1_recorded\recording_micRespv1l1_2023-12-04_12h15.59.240.wav,437.17760429996997,,None,437.17760429996997,437.17760429996997,437.17760429996997,437.17760429996997,437.17760429996997,437.17760429996997,,,,,,250101,001,2023-12-04_12h08.49.815,REPSWITCH1_version1_list1,2022.2.4,144.05029116692853,
REPSWITCH1/PICTURE_8.png,pierna,speak,gold,repeat,2,T,4,1,1,1,Stim3_Set4,0,None,86,85,86,0,85,85,85,,,,,,,,,,,,,,,,,,,,,,,437.67760290019214,438.71250580018386,438.71250580018386,438.71250580018386,438.71250580018386,438.71250580018386,438.71250580018386,438.71250580018386,438.71250580018386,None,0,,,C:\2023\REPSWITCH21092023\REPSWITCH_excgange\REPSWITCH_excgange\data/250101_REPSWITCH1_version1_list1_2023-12-04_12h08.49.815_micRespv1l1_recorded\recording_micRespv1l1_2023-12-04_12h16.03.802.wav,441.7337909000926,442.2338574002497,None,441.7337909000926,441.7337909000926,441.7337909000926,441.7337909000926,441.7337909000926,441.7337909000926,,,,,,250101,001,2023-12-04_12h08.49.815,REPSWITCH1_version1_list1,2022.2.4,144.05029116692853,
REPSWITCH1/PICTURE_498.png,taza,speak,gold,nontarget,2,NT,4,1,1,1,Stim4_Set4,1,repeat,87,86,87,0,86,86,86,,,,,,,,,,,,,,,,,,,,,,,442.2338574002497,443.2964344001375,443.2964344001375,443.2964344001375,443.2964344001375,443.2964344001375,443.2964344001375,443.2964344001375,443.2964344001375,None,0,,,C:\2023\REPSWITCH21092023\REPSWITCH_excgange\REPSWITCH_excgange\data/250101_REPSWITCH1_version1_list1_2023-12-04_12h08.49.815_micRespv1l1_recorded\recording_micRespv1l1_2023-12-04_12h16.08.387.wav,446.31763540022075,446.81771059986204,None,446.31763540022075,446.31763540022075,446.31763540022075,446.31763540022075,446.31763540022075,446.31763540022075,,,,,,250101,001,2023-12-04_12h08.49.815,REPSWITCH1_version1_list1,2022.2.4,144.05029116692853,
REPSWITCH1/PICTURE_498.png,taza,type,darkblue,switch,1,T,4,1,1,1,Stim4_Set4,0,None,88,87,88,0,87,87,87,,,,,,,,,,,,,,,,,,,,,,,446.81771059986204,447.9012150000781,447.9012150000781,447.9012150000781,447.9012150000781,447.9012150000781,447.9012150000781,447.9012150000781,447.9012150000781,"['t', 'a', 'z', 'a']",0,"[1.0259370999410748, 1.2751023001037538, 1.489344300236553, 1.6498437002301216]",taza,C:\2023\REPSWITCH21092023\REPSWITCH_excgange\REPSWITCH_excgange\data/250101_REPSWITCH1_version1_list1_2023-12-04_12h08.49.815_micRespv1l1_recorded\recording_micRespv1l1_2023-12-04_12h16.12.991.wav,450.92240699985996,451.422453999985,None,450.92240699985996,450.92240699985996,450.92240699985996,450.92240699985996,450.92240699985996,450.92240699985996,,,,,,250101,001,2023-12-04_12h08.49.815,REPSWITCH1_version1_list1,2022.2.4,144.05029116692853,
REPSWITCH1/PICTURE_235.png,aguja,speak,gold,filler,2,F,4,1,1,1,Stim4_Set3,0,None,89,88,89,0,88,88,88,,,,,,,,,,,,,,,,,,,,,,,451.422453999985,452.5407016002573,452.5407016002573,452.5407016002573,452.5407016002573,452.5407016002573,452.5407016002573,452.5407016002573,452.5407016002573,None,0,,,C:\2023\REPSWITCH21092023\REPSWITCH_excgange\REPSWITCH_excgange\data/250101_REPSWITCH1_version1_list1_2023-12-04_12h08.49.815_micRespv1l1_recorded\recording_micRespv1l1_2023-12-04_12h16.17.631.wav,455.56189240003005,456.0619979999028,None,455.56189240003005,455.56189240003005,455.56189240003005,455.56189240003005,455.56189240003005,455.56189240003005,,,,,,250101,001,2023-12-04_12h08.49.815,REPSWITCH1_version1_list1,2022.2.4,144.05029116692853,
REPSWITCH1/PICTURE_35.png,oreja,type,darkblue,filler,1,F,4,1,1,1,Stim5_Set3,0,None,90,89,90,0,89,89,89,,,,,,,,,,,,,,,,,,,,,,,456.0619979999028,457.08306010020897,457.08306010020897,457.08306010020897,457.08306010020897,457.08306010020897,457.08306010020897,457.08306010020897,457.08306010020897,"['o', 'r', 'e', 'j', 'a']",0,"[0.9448638004250824, 1.0175873003900051, 1.1182161001488566, 1.2883310001343489, 1.4168704003095627]",oreja,C:\2023\REPSWITCH21092023\REPSWITCH_excgange\REPSWITCH_excgange\data/250101_REPSWITCH1_version1_list1_2023-12-04_12h08.49.815_micRespv1l1_recorded\recording_micRespv1l1_2023-12-04_12h16.22.173.wav,460.1041900999844,460.6042642998509,None,460.1041900999844,460.1041900999844,460.1041900999844,460.1041900999844,460.1041900999844,460.1041900999844,,,,,,250101,001,2023-12-04_12h08.49.815,REPSWITCH1_version1_list1,2022.2.4,144.05029116692853,
REPSWITCH1/PICTURE_687.png,camisa,type,darkblue,nontarget,1,NT,4,1,1,1,Stim5_Set4,1,repeat,91,90,91,0,90,90,90,,,,,,,,,,,,,,,,,,,,,,,460.6042642998509,461.729406000115,461.729406000115,461.729406000115,461.729406000115,461.729406000115,461.729406000115,461.729406000115,461.729406000115,"['c', 'a', 'm', 'i', 's', 'a']",0,"[0.9528736001811922, 1.1068811998702586, 1.2516911998391151, 1.4183098999783397, 1.4910598997958004, 1.614711499772966]",camisa,C:\2023\REPSWITCH21092023\REPSWITCH_excgange\REPSWITCH_excgange\data/250101_REPSWITCH1_version1_list1_2023-12-04_12h08.49.815_micRespv1l1_recorded\recording_micRespv1l1_2023-12-04_12h16.26.820.wav,464.75061349989846,465.25069889985025,None,464.75061349989846,464.75061349989846,464.75061349989846,464.75061349989846,464.75061349989846,464.75061349989846,,,,,,250101,001,2023-12-04_12h08.49.815,REPSWITCH1_version1_list1,2022.2.4,144.05029116692853,
REPSWITCH1/PICTURE_687.png,camisa,speak,gold,switch,2,T,4,1,1,1,Stim5_Set4,0,None,92,91,92,0,91,91,91,,,,,,,,,,,,,,,,,,,,,,,465.25069889985025,466.3133276998997,466.3133276998997,466.3133276998997,466.3133276998997,466.3133276998997,466.3133276998997,466.3133276998997,466.3133276998997,None,0,,,C:\2023\REPSWITCH21092023\REPSWITCH_excgange\REPSWITCH_excgange\data/250101_REPSWITCH1_version1_list1_2023-12-04_12h08.49.815_micRespv1l1_recorded\recording_micRespv1l1_2023-12-04_12h16.31.404.wav,469.3345540999435,469.8346140999347,None,469.3345540999435,469.3345540999435,469.3345540999435,469.3345540999435,469.3345540999435,469.3345540999435,,,,,,250101,001,2023-12-04_12h08.49.815,REPSWITCH1_version1_list1,2022.2.4,144.05029116692853,
REPSWITCH1/PICTURE_338.png,regalo,speak,gold,nontarget,2,NT,4,1,1,1,Stim6_Set4,0,None,93,92,93,0,92,92,92,,,,,,,,,,,,,,,,,,,,,,,469.8346140999347,470.9320260998793,470.9320260998793,470.9320260998793,470.9320260998793,470.9320260998793,470.9320260998793,470.9320260998793,470.9320260998793,None,0,,,C:\2023\REPSWITCH21092023\REPSWITCH_excgange\REPSWITCH_excgange\data/250101_REPSWITCH1_version1_list1_2023-12-04_12h08.49.815_micRespv1l1_recorded\recording_micRespv1l1_2023-12-04_12h16.36.022.wav,473.9532324001193,474.45337009988725,None,473.9532324001193,473.9532324001193,473.9532324001193,473.9532324001193,473.9532324001193,473.9532324001193,,,,,,250101,001,2023-12-04_12h08.49.815,REPSWITCH1_version1_list1,2022.2.4,144.05029116692853,
REPSWITCH1/PICTURE_338.png,regalo,speak,gold,repeat,2,T,4,1,1,1,Stim6_Set4,0,None,94,93,94,0,93,93,93,,,,,,,,,,,,,,,,,,,,,,,474.45337009988725,475.5714934002608,475.5714934002608,475.5714934002608,475.5714934002608,475.5714934002608,475.5714934002608,475.5714934002608,475.5714934002608,None,0,,,C:\2023\REPSWITCH21092023\REPSWITCH_excgange\REPSWITCH_excgange\data/250101_REPSWITCH1_version1_list1_2023-12-04_12h08.49.815_micRespv1l1_recorded\recording_micRespv1l1_2023-12-04_12h16.40.661.wav,478.5927007999271,479.0927873002365,None,478.5927007999271,478.5927007999271,478.5927007999271,478.5927007999271,478.5927007999271,478.5927007999271,,,,,,250101,001,2023-12-04_12h08.49.815,REPSWITCH1_version1_list1,2022.2.4,144.05029116692853,
REPSWITCH1/PICTURE_663.png,columna,type,darkblue,filler,1,F,4,1,1,1,Extra6,0,None,95,94,95,0,94,94,94,,,,,,,,,,,,,,,,,,,,,,,479.0927873002365,480.1762985000387,480.1762985000387,480.1762985000387,480.1762985000387,480.1762985000387,480.1762985000387,480.1762985000387,480.1762985000387,"['c', 'o', 'l', 'u', 'm', 'n', 'a']",0,"[1.0506393001414835, 1.2323357998393476, 1.4226890001446009, 1.6778560997918248, 1.8972394997254014, 2.079631899949163, 2.1344516999088228]",columna,C:\2023\REPSWITCH21092023\REPSWITCH_excgange\REPSWITCH_excgange\data/250101_REPSWITCH1_version1_list1_2023-12-04_12h08.49.815_micRespv1l1_recorded\recording_micRespv1l1_2023-12-04_12h16.45.267.wav,483.19754069997,483.69756880030036,None,483.19754069997,483.19754069997,483.19754069997,483.19754069997,483.19754069997,483.19754069997,,,,,,250101,001,2023-12-04_12h08.49.815,REPSWITCH1_version1_list1,2022.2.4,144.05029116692853,
REPSWITCH1/PICTURE_271.png,conejo,speak,gold,filler,2,F,4,1,1,1,Stim7_Set3,0,None,96,95,96,0,95,95,95,,,,,,,,,,,,,,,,,,,,,,,483.69756880030036,484.85048530017957,484.85048530017957,484.85048530017957,484.85048530017957,484.85048530017957,484.85048530017957,484.85048530017957,484.85048530017957,None,0,,,C:\2023\REPSWITCH21092023\REPSWITCH_excgange\REPSWITCH_excgange\data/250101_REPSWITCH1_version1_list1_2023-12-04_12h08.49.815_micRespv1l1_recorded\recording_micRespv1l1_2023-12-04_12h16.49.941.wav,487.87171950004995,488.37179809994996,None,487.87171950004995,487.87171950004995,487.87171950004995,487.87171950004995,487.87171950004995,487.87171950004995,,,,,,250101,001,2023-12-04_12h08.49.815,REPSWITCH1_version1_list1,2022.2.4,144.05029116692853,
REPSWITCH1/PICTURE_48.png,bombero,speak,gold,nontarget,2,NT,4,1,1,1,Stim7_Set4,0,None,97,96,97,0,96,96,96,,,,,,,,,,,,,,,,,,,,,,,488.37179809994996,489.4692668998614,489.4692668998614,489.4692668998614,489.4692668998614,489.4692668998614,489.4692668998614,489.4692668998614,489.4692668998614,None,0,,,C:\2023\REPSWITCH21092023\REPSWITCH_excgange\REPSWITCH_excgange\data/250101_REPSWITCH1_version1_list1_2023-12-04_12h08.49.815_micRespv1l1_recorded\recording_micRespv1l1_2023-12-04_12h16.54.559.wav,492.49037879984826,492.9905031998642,None,492.49037879984826,492.49037879984826,492.49037879984826,492.49037879984826,492.49037879984826,492.49037879984826,,,,,,250101,001,2023-12-04_12h08.49.815,REPSWITCH1_version1_list1,2022.2.4,144.05029116692853,
REPSWITCH1/PICTURE_48.png,bombero,type,darkblue,switch,1,T,4,1,1,1,Stim7_Set4,0,None,98,97,98,0,97,97,97,,,,,,,,,,,,,,,,,,,,,,,492.9905031998642,494.05310690030456,494.05310690030456,494.05310690030456,494.05310690030456,494.05310690030456,494.05310690030456,494.05310690030456,494.05310690030456,"['b', 'o', 'm', 'b', 'e', 'r', 'o']",0,"[1.1214958997443318, 1.2595355999656022, 1.5020248000510037, 1.6624805997125804, 1.9019630998373032, 2.074244999792427, 2.2080735000781715]",bombero,C:\2023\REPSWITCH21092023\REPSWITCH_excgange\REPSWITCH_excgange\data/250101_REPSWITCH1_version1_list1_2023-12-04_12h08.49.815_micRespv1l1_recorded\recording_micRespv1l1_2023-12-04_12h16.59.142.wav,497.07434249995276,497.57438499992713,None,497.07434249995276,497.07434249995276,497.07434249995276,497.07434249995276,497.07434249995276,497.07434249995276,,,,,,250101,001,2023-12-04_12h08.49.815,REPSWITCH1_version1_list1,2022.2.4,144.05029116692853,
REPSWITCH1/PICTURE_728.png,pulpo,type,darkblue,nontarget,1,NT,4,1,1,1,Stim8_Set4,0,None,99,98,99,0,98,98,98,,,,,,,,,,,,,,,,,,,,,,,497.57438499992713,498.6578966998495,498.6578966998495,498.6578966998495,498.6578966998495,498.6578966998495,498.6578966998495,498.6578966998495,498.6578966998495,"['p', 'u', 'l', 'p', 'o']",0,"[0.9295462002046406, 1.188720699865371, 1.4587250999175012, 1.6361716999672353, 1.7685735002160072]",pulpo,C:\2023\REPSWITCH21092023\REPSWITCH_excgange\REPSWITCH_excgange\data/250101_REPSWITCH1_version1_list1_2023-12-04_12h08.49.815_micRespv1l1_recorded\recording_micRespv1l1_2023-12-04_12h17.03.748.wav,501.67914800019935,502.179176799953,None,501.67914800019935,501.67914800019935,501.67914800019935,501.67914800019935,501.67914800019935,501.67914800019935,,,,,,250101,001,2023-12-04_12h08.49.815,REPSWITCH1_version1_list1,2022.2.4,144.05029116692853,
REPSWITCH1/PICTURE_728.png,pulpo,type,darkblue,repeat,1,T,4,1,1,1,Stim8_Set4,0,None,100,99,100,0,99,99,99,,,,,,,,,,,,,,,,,,,,,,,502.179176799953,503.32521070027724,503.32521070027724,503.32521070027724,503.32521070027724,503.32521070027724,503.32521070027724,503.32521070027724,503.32521070027724,"['p', 'i', 'l', 'p', 'o']",0,"[0.7830905001610518, 0.999709399882704, 1.207268999889493, 1.3985573002137244, 1.5473874998278916]",pilpo,C:\2023\REPSWITCH21092023\REPSWITCH_excgange\REPSWITCH_excgange\data/250101_REPSWITCH1_version1_list1_2023-12-04_12h08.49.815_micRespv1l1_recorded\recording_micRespv1l1_2023-12-04_12h17.08.415.wav,506.3463709000498,506.84642750024796,None,506.3463709000498,506.3463709000498,506.3463709000498,506.3463709000498,506.3463709000498,506.3463709000498,,,,,,250101,001,2023-12-04_12h08.49.815,REPSWITCH1_version1_list1,2022.2.4,144.05029116692853,
REPSWITCH1/PICTURE_320.png,iglesia,speak,gold,filler,1,F,4,1,1,1,Stim8_Set3,0,None,101,100,101,0,100,100,100,,,,,,,,,,,,,,,,,,,,,,,506.84642750024796,507.94383150013164,507.94383150013164,507.94383150013164,507.94383150013164,507.94383150013164,507.94383150013164,507.94383150013164,507.94383150013164,None,0,,,C:\2023\REPSWITCH21092023\REPSWITCH_excgange\REPSWITCH_excgange\data/250101_REPSWITCH1_version1_list1_2023-12-04_12h08.49.815_micRespv1l1_recorded\recording_micRespv1l1_2023-12-04_12h17.13.034.wav,510.96504960022867,511.4651160002686,None,510.96504960022867,510.96504960022867,510.96504960022867,510.96504960022867,510.96504960022867,510.96504960022867,,,,,,250101,001,2023-12-04_12h08.49.815,REPSWITCH1_version1_list1,2022.2.4,144.05029116692853,
REPSWITCH1/PICTURE_464.png,goma,type,darkblue,filler,1,F,4,1,1,1,Stim6_Set3,0,None,102,101,102,0,101,101,101,,,,,,,,,,,,,,,,,,,,,,,511.4651160002686,512.5764309000224,512.5764309000224,512.5764309000224,512.5764309000224,512.5764309000224,512.5764309000224,512.5764309000224,512.5764309000224,"['g', 'o', 'm', 'a']",0,"[1.2053129002451897, 1.3029848001897335, 1.5400720001198351, 1.6796053000725806]",goma,C:\2023\REPSWITCH21092023\REPSWITCH_excgange\REPSWITCH_excgange\data/250101_REPSWITCH1_version1_list1_2023-12-04_12h08.49.815_micRespv1l1_recorded\recording_micRespv1l1_2023-12-04_12h17.17.666.wav,515.5975811001845,516.0977547001094,space,515.5975811001845,515.5975811001845,515.5975811001845,515.5975811001845,515.5975811001845,515.5975811001845,516.0977547001094,516.0977547001094,19.540104900021106,,,250101,001,2023-12-04_12h08.49.815,REPSWITCH1_version1_list1,2022.2.4,144.05029116692853,
REPSWITCH1/PICTURE_663.png,columna,type,darkblue,filler,1,F,1,2,1,1,Extra6,0,None,103,102,1,0,102,102,102,,,,,,,,,,,,,,,,,,,,,,,535.6488598999567,536.7185005000792,536.7185005000792,536.7185005000792,536.7185005000792,536.7185005000792,536.7185005000792,536.7185005000792,536.7185005000792,"['c', 'o', 'l', 'u', 'm', 'n', 'a']",0,"[0.9746856996789575, 1.135448900051415, 1.2884792000986636, 1.4848759998567402, 1.6675247997045517, 1.8278614999726415, 1.9026708998717368]",columna,C:\2023\REPSWITCH21092023\REPSWITCH_excgange\REPSWITCH_excgange\data/250101_REPSWITCH1_version1_list1_2023-12-04_12h08.49.815_micRespv1l1_recorded\recording_micRespv1l1_2023-12-04_12h17.41.809.wav,539.7465908001177,,None,539.7465908001177,539.7465908001177,539.7465908001177,539.7465908001177,539.7465908001177,539.7465908001177,,,,,,250101,001,2023-12-04_12h08.49.815,REPSWITCH1_version1_list1,2022.2.4,144.05029116692853,
REPSWITCH1/PICTURE_128.png,muñeca,speak,gold,nontarget,2,NT,1,2,1,1,Stim4_Set1,1,switch,104,103,2,0,103,103,103,,,,,,,,,,,,,,,,,,,,,,,540.246682500001,541.3163227001205,541.3163227001205,541.3163227001205,541.3163227001205,541.3163227001205,541.3163227001205,541.3163227001205,541.3163227001205,None,0,,,C:\2023\REPSWITCH21092023\REPSWITCH_excgange\REPSWITCH_excgange\data/250101_REPSWITCH1_version1_list1_2023-12-04_12h08.49.815_micRespv1l1_recorded\recording_micRespv1l1_2023-12-04_12h17.46.407.wav,544.3444179999642,,None,544.3444179999642,544.3444179999642,544.3444179999642,544.3444179999642,544.3444179999642,544.3444179999642,,,,,,250101,001,2023-12-04_12h08.49.815,REPSWITCH1_version1_list1,2022.2.4,144.05029116692853,
REPSWITCH1/PICTURE_128.png,muñeca,speak,gold,repeat,2,T,1,2,1,1,Stim4_Set1,0,None,105,104,3,0,104,104,104,,,,,,,,,,,,,,,,,,,,,,,544.8444881001487,545.9279713002034,545.9279713002034,545.9279713002034,545.9279713002034,545.9279713002034,545.9279713002034,545.9279713002034,545.9279713002034,None,0,,,C:\2023\REPSWITCH21092023\REPSWITCH_excgange\REPSWITCH_excgange\data/250101_REPSWITCH1_version1_list1_2023-12-04_12h08.49.815_micRespv1l1_recorded\recording_micRespv1l1_2023-12-04_12h17.51.018.wav,548.9492260999978,549.4492871002294,None,548.9492260999978,548.9492260999978,548.9492260999978,548.9492260999978,548.9492260999978,548.9492260999978,,,,,,250101,001,2023-12-04_12h08.49.815,REPSWITCH1_version1_list1,2022.2.4,144.05029116692853,
REPSWITCH1/PICTURE_8.png,pierna,type,darkblue,filler,1,F,1,2,1,1,Stim3_Set4,0,None,106,105,4,0,105,105,105,,,,,,,,,,,,,,,,,,,,,,,549.4492871002294,550.4911009999923,550.4911009999923,550.4911009999923,550.4911009999923,550.4911009999923,550.4911009999923,550.4911009999923,550.4911009999923,"['p', 'i', 'e', 'r', 'n', 'a']",0,"[0.9776733005419374, 1.2180688004009426, 1.3595841005444527, 1.5110760005190969, 1.647977700456977, 1.8084049001336098]",pierna,C:\2023\REPSWITCH21092023\REPSWITCH_excgange\REPSWITCH_excgange\data/250101_REPSWITCH1_version1_list1_2023-12-04_12h08.49.815_micRespv1l1_recorded\recording_micRespv1l1_2023-12-04_12h17.55.581.wav,553.512286500074,554.0124369002879,None,553.512286500074,553.512286500074,553.512286500074,553.512286500074,553.512286500074,553.512286500074,,,,,,250101,001,2023-12-04_12h08.49.815,REPSWITCH1_version1_list1,2022.2.4,144.05029116692853,
REPSWITCH1/PICTURE_135.png,traje,speak,gold,nontarget,2,NT,1,2,1,1,Stim3_Set1,1,switch,107,106,5,0,106,106,106,,,,,,,,,,,,,,,,,,,,,,,554.0124369002879,555.0889878002927,555.0889878002927,555.0889878002927,555.0889878002927,555.0889878002927,555.0889878002927,555.0889878002927,555.0889878002927,None,0,,,C:\2023\REPSWITCH21092023\REPSWITCH_excgange\REPSWITCH_excgange\data/250101_REPSWITCH1_version1_list1_2023-12-04_12h08.49.815_micRespv1l1_recorded\recording_micRespv1l1_2023-12-04_12h18.00.179.wav,558.1101107001305,558.6102090002969,None,558.1101107001305,558.1101107001305,558.1101107001305,558.1101107001305,558.1101107001305,558.1101107001305,,,,,,250101,001,2023-12-04_12h08.49.815,REPSWITCH1_version1_list1,2022.2.4,144.05029116692853,
REPSWITCH1/PICTURE_135.png,traje,speak,gold,repeat,2,T,1,2,1,1,Stim3_Set1,0,None,108,107,6,0,107,107,107,,,,,,,,,,,,,,,,,,,,,,,558.6102090002969,559.6312163001858,559.6312163001858,559.6312163001858,559.6312163001858,559.6312163001858,559.6312163001858,559.6312163001858,559.6312163001858,None,0,,,C:\2023\REPSWITCH21092023\REPSWITCH_excgange\REPSWITCH_excgange\data/250101_REPSWITCH1_version1_list1_2023-12-04_12h08.49.815_micRespv1l1_recorded\recording_micRespv1l1_2023-12-04_12h18.04.722.wav,562.6523684002459,563.1524403998628,None,562.6523684002459,562.6523684002459,562.6523684002459,562.6523684002459,562.6523684002459,562.6523684002459,,,,,,250101,001,2023-12-04_12h08.49.815,REPSWITCH1_version1_list1,2022.2.4,144.05029116692853,
REPSWITCH1/PICTURE_673.png,tenedor,type,darkblue,filler,1,F,1,2,1,1,Extra5,0,None,109,108,7,0,108,108,108,,,,,,,,,,,,,,,,,,,,,,,563.1524403998628,564.2081957999617,564.2081957999617,564.2081957999617,564.2081957999617,564.2081957999617,564.2081957999617,564.2081957999617,564.2081957999617,"['t', 'e', 'n', 'e', 'd', 'o', 'r']",0,"[0.9492826000787318, 1.1087735001929104, 1.2605964001268148, 1.3037650003097951, 1.4651843002066016, 1.583123900461942, 1.6807924001477659]",tenedor,C:\2023\REPSWITCH21092023\REPSWITCH_excgange\REPSWITCH_excgange\data/250101_REPSWITCH1_version1_list1_2023-12-04_12h08.49.815_micRespv1l1_recorded\recording_micRespv1l1_2023-12-04_12h18.09.299.wav,567.2293636999093,567.7294292002916,None,567.2293636999093,567.2293636999093,567.2293636999093,567.2293636999093,567.2293636999093,567.2293636999093,,,,,,250101,001,2023-12-04_12h08.49.815,REPSWITCH1_version1_list1,2022.2.4,144.05029116692853,
REPSWITCH1/PICTURE_728.png,pulpo,speak,gold,filler,2,F,1,2,1,1,Stim8_Set4,0,None,110,109,8,0,109,109,109,,,,,,,,,,,,,,,,,,,,,,,567.7294292002916,568.8337694001384,568.8337694001384,568.8337694001384,568.8337694001384,568.8337694001384,568.8337694001384,568.8337694001384,568.8337694001384,None,0,,,C:\2023\REPSWITCH21092023\REPSWITCH_excgange\REPSWITCH_excgange\data/250101_REPSWITCH1_version1_list1_2023-12-04_12h08.49.815_micRespv1l1_recorded\recording_micRespv1l1_2023-12-04_12h18.13.925.wav,571.8619647002779,,None,571.8619647002779,571.8619647002779,571.8619647002779,571.8619647002779,571.8619647002779,571.8619647002779,,,,,,250101,001,2023-12-04_12h08.49.815,REPSWITCH1_version1_list1,2022.2.4,144.05029116692853,
REPSWITCH1/PICTURE_16.png,cazador,speak,gold,nontarget,2,NT,1,2,1,1,Stim6_Set1,1,repeat,111,110,9,0,110,110,110,,,,,,,,,,,,,,,,,,,,,,,572.3620183998719,573.480286099948,573.480286099948,573.480286099948,573.480286099948,573.480286099948,573.480286099948,573.480286099948,573.480286099948,None,0,,,C:\2023\REPSWITCH21092023\REPSWITCH_excgange\REPSWITCH_excgange\data/250101_REPSWITCH1_version1_list1_2023-12-04_12h08.49.815_micRespv1l1_recorded\recording_micRespv1l1_2023-12-04_12h18.18.570.wav,576.5014698002487,577.0015656999312,None,576.5014698002487,576.5014698002487,576.5014698002487,576.5014698002487,576.5014698002487,576.5014698002487,,,,,,250101,001,2023-12-04_12h08.49.815,REPSWITCH1_version1_list1,2022.2.4,144.05029116692853,
REPSWITCH1/PICTURE_16.png,cazador,type,darkblue,switch,1,T,1,2,1,1,Stim6_Set1,0,None,112,111,10,0,111,111,111,,,,,,,,,,,,,,,,,,,,,,,577.0015656999312,578.0502941999584,578.0502941999584,578.0502941999584,578.0502941999584,578.0502941999584,578.0502941999584,578.0502941999584,578.0502941999584,"['c', 'a', 'z', 'a', 'd', 'o', 'r']",0,"[1.2122481004334986, 1.3757035001181066, 1.5641482002101839, 1.7544972002506256, 1.9153773002326488, 2.0227345004677773, 2.1347478004172444]",cazador,C:\2023\REPSWITCH21092023\REPSWITCH_excgange\REPSWITCH_excgange\data/250101_REPSWITCH1_version1_list1_2023-12-04_12h08.49.815_micRespv1l1_recorded\recording_micRespv1l1_2023-12-04_12h18.23.141.wav,581.0714638000354,581.5715629998595,None,581.0714638000354,581.0714638000354,581.0714638000354,581.0714638000354,581.0714638000354,581.0714638000354,,,,,,250101,001,2023-12-04_12h08.49.815,REPSWITCH1_version1_list1,2022.2.4,144.05029116692853,
REPSWITCH1/PICTURE_498.png,taza,type,darkblue,filler,1,F,1,2,1,1,Stim4_Set4,1,repeat,113,112,11,0,112,112,112,,,,,,,,,,,,,,,,,,,,,,,581.5715629998595,582.7245090003125,582.7245090003125,582.7245090003125,582.7245090003125,582.7245090003125,582.7245090003125,582.7245090003125,582.7245090003125,"['t', 'a', 'z', 'a']",0,"[0.9887176002375782, 1.2298487001098692, 1.4285079999826849, 1.5959157003089786]",taza,C:\2023\REPSWITCH21092023\REPSWITCH_excgange\REPSWITCH_excgange\data/250101_REPSWITCH1_version1_list1_2023-12-04_12h08.49.815_micRespv1l1_recorded\recording_micRespv1l1_2023-12-04_12h18.27.815.wav,585.7456915001385,586.2457821001299,None,585.7456915001385,585.7456915001385,585.7456915001385,585.7456915001385,585.7456915001385,585.7456915001385,,,,,,250101,001,2023-12-04_12h08.49.815,REPSWITCH1_version1_list1,2022.2.4,144.05029116692853,
REPSWITCH1/PICTURE_381.png,fresa,type,darkblue,nontarget,1,NT,1,2,1,1,Stim2_Set1,1,repeat,114,113,12,0,113,113,113,,,,,,,,,,,,,,,,,,,,,,,586.2457821001299,587.3918397002853,587.3918397002853,587.3918397002853,587.3918397002853,587.3918397002853,587.3918397002853,587.3918397002853,587.3918397002853,"['f', 'r', 'e', 's', 'a']",0,"[0.8950396999716759, 1.0584710999391973, 1.2030241000466049, 1.3807347998954356, 1.552194899879396]",fresa,C:\2023\REPSWITCH21092023\REPSWITCH_excgange\REPSWITCH_excgange\data/250101_REPSWITCH1_version1_list1_2023-12-04_12h08.49.815_micRespv1l1_recorded\recording_micRespv1l1_2023-12-04_12h18.32.481.wav,590.4130482003093,590.9130363999866,None,590.4130482003093,590.4130482003093,590.4130482003093,590.4130482003093,590.4130482003093,590.4130482003093,,,,,,250101,001,2023-12-04_12h08.49.815,REPSWITCH1_version1_list1,2022.2.4,144.05029116692853,
REPSWITCH1/PICTURE_381.png,fresa,speak,gold,switch,2,T,1,2,1,1,Stim2_Set1,0,None,115,114,13,0,114,114,114,,,,,,,,,,,,,,,,,,,,,,,590.9130363999866,592.0382725000381,592.0382725000381,592.0382725000381,592.0382725000381,592.0382725000381,592.0382725000381,592.0382725000381,592.0382725000381,None,0,,,C:\2023\REPSWITCH21092023\REPSWITCH_excgange\REPSWITCH_excgange\data/250101_REPSWITCH1_version1_list1_2023-12-04_12h08.49.815_micRespv1l1_recorded\recording_micRespv1l1_2023-12-04_12h18.37.129.wav,595.0664404002018,,None,595.0664404002018,595.0664404002018,595.0664404002018,595.0664404002018,595.0664404002018,595.0664404002018,,,,,,250101,001,2023-12-04_12h08.49.815,REPSWITCH1_version1_list1,2022.2.4,144.05029116692853,
REPSWITCH1/PICTURE_178.png,puente,speak,gold,nontarget,2,NT,1,2,1,1,Stim1_Set1,0,None,116,115,14,0,115,115,115,,,,,,,,,,,,,,,,,,,,,,,595.5664284001105,596.6985674002208,596.6985674002208,596.6985674002208,596.6985674002208,596.6985674002208,596.6985674002208,596.6985674002208,596.6985674002208,None,0,,,C:\2023\REPSWITCH21092023\REPSWITCH_excgange\REPSWITCH_excgange\data/250101_REPSWITCH1_version1_list1_2023-12-04_12h08.49.815_micRespv1l1_recorded\recording_micRespv1l1_2023-12-04_12h18.41.789.wav,599.7197945001535,600.2198549001478,None,599.7197945001535,599.7197945001535,599.7197945001535,599.7197945001535,599.7197945001535,599.7197945001535,,,,,,250101,001,2023-12-04_12h08.49.815,REPSWITCH1_version1_list1,2022.2.4,144.05029116692853,
REPSWITCH1/PICTURE_178.png,puente,type,darkblue,switch,1,T,1,2,1,1,Stim1_Set1,0,None,117,116,15,0,116,116,116,,,,,,,,,,,,,,,,,,,,,,,600.2198549001478,601.2477838001214,601.2477838001214,601.2477838001214,601.2477838001214,601.2477838001214,601.2477838001214,601.2477838001214,601.2477838001214,"['p', 'u', 'e', 'n', 't', 'e']",0,"[0.9997466001659632, 1.3210233999416232, 1.5234254002571106, 1.6961759002879262, 1.8100797003135085, 1.9729045000858605]",puente,C:\2023\REPSWITCH21092023\REPSWITCH_excgange\REPSWITCH_excgange\data/250101_REPSWITCH1_version1_list1_2023-12-04_12h08.49.815_micRespv1l1_recorded\recording_micRespv1l1_2023-12-04_12h18.46.338.wav,604.2689879001118,604.7691321000457,None,604.2689879001118,604.2689879001118,604.2689879001118,604.2689879001118,604.2689879001118,604.2689879001118,,,,,,250101,001,2023-12-04_12h08.49.815,REPSWITCH1_version1_list1,2022.2.4,144.05029116692853,
REPSWITCH1/PICTURE_719.png,baño,speak,gold,filler,2,F,1,2,1,1,Stim2_Set4,0,None,118,117,16,0,117,117,117,,,,,,,,,,,,,,,,,,,,,,,604.7691321000457,605.8526149000973,605.8526149000973,605.8526149000973,605.8526149000973,605.8526149000973,605.8526149000973,605.8526149000973,605.8526149000973,None,0,,,C:\2023\REPSWITCH21092023\REPSWITCH_excgange\REPSWITCH_excgange\data/250101_REPSWITCH1_version1_list1_2023-12-04_12h08.49.815_micRespv1l1_recorded\recording_micRespv1l1_2023-12-04_12h18.50.943.wav,608.8807129999623,,None,608.8807129999623,608.8807129999623,608.8807129999623,608.8807129999623,608.8807129999623,608.8807129999623,,,,,,250101,001,2023-12-04_12h08.49.815,REPSWITCH1_version1_list1,2022.2.4,144.05029116692853,
REPSWITCH1/PICTURE_169.png,espalda,type,darkblue,nontarget,1,NT,1,2,1,1,Stim8_Set1,1,switch,119,118,17,0,118,118,118,,,,,,,,,,,,,,,,,,,,,,,609.3807806000113,610.485163600184,610.485163600184,610.485163600184,610.485163600184,610.485163600184,610.485163600184,610.485163600184,610.485163600184,"['e', 's', 'p', 'a', 'l', 'd', 'a']",0,"[0.7995929000899196, 0.9849348999559879, 1.1111103002913296, 1.1949865999631584, 1.3217961001209915, 1.4264354999177158, 1.5100954002700746]",espalda,C:\2023\REPSWITCH21092023\REPSWITCH_excgange\REPSWITCH_excgange\data/250101_REPSWITCH1_version1_list1_2023-12-04_12h08.49.815_micRespv1l1_recorded\recording_micRespv1l1_2023-12-04_12h18.55.575.wav,613.5063816001639,614.0063801002689,None,613.5063816001639,613.5063816001639,613.5063816001639,613.5063816001639,613.5063816001639,613.5063816001639,,,,,,250101,001,2023-12-04_12h08.49.815,REPSWITCH1_version1_list1,2022.2.4,144.05029116692853,
REPSWITCH1/PICTURE_169.png,espalda,type,darkblue,repeat,1,T,1,2,1,1,Stim8_Set1,0,None,120,119,18,0,119,119,119,,,,,,,,,,,,,,,,,,,,,,,614.0063801002689,615.0343629000708,615.0343629000708,615.0343629000708,615.0343629000708,615.0343629000708,615.0343629000708,615.0343629000708,615.0343629000708,"['e', 's', 'p', 'a', 'l', 'd', 'a']",0,"[0.6847923002205789, 0.8761424999684095, 1.034615300130099, 1.1333177001215518, 1.2887869998812675, 1.4183449000120163, 1.4532375000417233]",espalda,C:\2023\REPSWITCH21092023\REPSWITCH_excgange\REPSWITCH_excgange\data/250101_REPSWITCH1_version1_list1_2023-12-04_12h08.49.815_micRespv1l1_recorded\recording_micRespv1l1_2023-12-04_12h19.00.124.wav,618.0555159999058,618.5555773000233,None,618.0555159999058,618.0555159999058,618.0555159999058,618.0555159999058,618.0555159999058,618.0555159999058,,,,,,250101,001,2023-12-04_12h08.49.815,REPSWITCH1_version1_list1,2022.2.4,144.05029116692853,
REPSWITCH1/PICTURE_48.png,bombero,speak,gold,filler,2,F,1,2,1,1,Stim7_Set4,1,switch,121,120,19,0,120,120,120,,,,,,,,,,,,,,,,,,,,,,,618.5555773000233,619.6807487001643,619.6807487001643,619.6807487001643,619.6807487001643,619.6807487001643,619.6807487001643,619.6807487001643,619.6807487001643,None,0,,,C:\2023\REPSWITCH21092023\REPSWITCH_excgange\REPSWITCH_excgange\data/250101_REPSWITCH1_version1_list1_2023-12-04_12h08.49.815_micRespv1l1_recorded\recording_micRespv1l1_2023-12-04_12h19.04.771.wav,622.7089289999567,623.2090572998859,None,622.7089289999567,622.7089289999567,622.7089289999567,622.7089289999567,622.7089289999567,622.7089289999567,,,,,,250101,001,2023-12-04_12h08.49.815,REPSWITCH1_version1_list1,2022.2.4,144.05029116692853,
