image,correctAns,respModal,frameColor,repSwitch,sequence,target,set,block,list,exp_version,stimulus,baseline,baseline_condition,trial_no,psychopy_trial,Column1,trialsREPSWITCH.thisRepN,trialsREPSWITCH.thisTrialN,trialsREPSWITCH.thisN,trialsREPSWITCH.thisIndex,textWelcome.started,textboxInstrMain1.started,textboxInstrMain1_2.started,textboxInstrMain1_3.started,keyInstrMain.started,keyInstrMain.keys,keyInstrMain.rt,textboxInstrMain2.started,textboxInstrMain2_2.started,textboxInstrMain2_3.started,textboxInstrMain2_4.started,textboxInstrMain2_5.started,textboxInstrMain2_6.started,textboxInstrMain2_7.started,textboxInstrMain2_8.started,textboxInstrMain2_9.started,textboxInstrMain2_10.started,textboxInstrMain2_11.started,textboxInstrMain2_12.started,keyInstrMain2.started,keyInstrMain2.keys,keyInstrMain2.rt,fixationITI.started,fixationITI.stopped,polygonColour.started,polygonWhite.started,imageObject.started,polygonType.started,textInput.started,keyResp.started,micRespv2l1.started,keyResp.keys,keyResp.corr,keyResp.rt,subjResponse,micRespv2l1.clip,textBlankLoop.started,textBlankLoop.stopped,keyPause.keys,polygonColour.stopped,polygonWhite.stopped,imageObject.stopped,polygonType.stopped,textInput.stopped,keyResp.stopped,textboxPause.started,keyPause.started,keyPause.rt,textboxGoodbye.started,textboxGoodbye.stopped,participant,session,date,expName,psychopyVersion,frameRate,
,,,,,,,,,,,,,,,,,,,,,9.875689200125635,12.36879019998014,12.36879019998014,12.36879019998014,12.36879019998014,space,2.9226540997624397,,,,,,,,,,,,,,,,,,,,,,,,,,,,,,,,,,,,,,,,,,,,260201,001,2023-12-04_14h44.55.523,REPSWITCH1_version2_list1,2022.2.4,144.0517434851105,
,,,,,,,,,,,,,,,,,,,,,,,,,,,,15.306676800362766,15.306676800362766,15.306676800362766,15.306676800362766,15.306676800362766,15.306676800362766,15.306676800362766,15.306676800362766,15.306676800362766,15.306676800362766,15.306676800362766,15.306676800362766,15.306676800362766,space,1.479956999886781,,,,,,,,,,,,,,,,,,,,,,,,,,,,,260201,001,2023-12-04_14h44.55.523,REPSWITCH1_version2_list1,2022.2.4,144.0517434851105,
REPSWITCH1/PICTURE_340.png,espejo,type,gold,filler,1,F,1,1,1,2,Extra1,0,None,1,0,1,0,0,0,0,,,,,,,,,,,,,,,,,,,,,,,16.883278800174594,18.11264150030911,18.11264150030911,18.11264150030911,18.11264150030911,18.11264150030911,18.11264150030911,18.11264150030911,18.11264150030911,"['e', 's', 'p', 'e', 'j', 'o']",0,"[0.9871137998998165, 1.2003347999416292, 1.4701568996533751, 1.7323336000554264, 2.013318999670446, 2.0931420996785164]",espejo,C:\2023\REPSWITCH21092023\REPSWITCH_excgange\REPSWITCH_excgange\data/260201_REPSWITCH1_version2_list1_2023-12-04_14h44.55.523_micRespv2l1_recorded\recording_micRespv2l1_2023-12-04_14h45.08.536.wav,21.13390860008076,21.633898200001568,None,,,,,,,,,,,,260201,001,2023-12-04_14h44.55.523,REPSWITCH1_version2_list1,2022.2.4,144.0517434851105,
REPSWITCH1/PICTURE_391.png,cadena,speak,darkblue,filler,2,F,1,1,1,2,Extra2,0,None,2,1,2,0,1,1,1,,,,,,,,,,,,,,,,,,,,,,,21.633898200001568,22.71042300015688,22.71042300015688,22.71042300015688,22.71042300015688,22.71042300015688,22.71042300015688,22.71042300015688,22.71042300015688,None,0,,,C:\2023\REPSWITCH21092023\REPSWITCH_excgange\REPSWITCH_excgange\data/260201_REPSWITCH1_version2_list1_2023-12-04_14h44.55.523_micRespv2l1_recorded\recording_micRespv2l1_2023-12-04_14h45.13.138.wav,25.738596600014716,,None,25.738596600014716,25.738596600014716,25.738596600014716,25.738596600014716,25.738596600014716,25.738596600014716,,,,,,260201,001,2023-12-04_14h44.55.523,REPSWITCH1_version2_list1,2022.2.4,144.0517434851105,
REPSWITCH1/PICTURE_178.png,puente,speak,darkblue,nontarget,2,NT,1,1,1,2,Stim1_Set1,1,repeat,3,2,3,0,2,2,2,,,,,,,,,,,,,,,,,,,,,,,26.238674400374293,27.287478000391275,27.287478000391275,27.287478000391275,27.287478000391275,27.287478000391275,27.287478000391275,27.287478000391275,27.287478000391275,None,0,,,C:\2023\REPSWITCH21092023\REPSWITCH_excgange\REPSWITCH_excgange\data/260201_REPSWITCH1_version2_list1_2023-12-04_14h44.55.523_micRespv2l1_recorded\recording_micRespv2l1_2023-12-04_14h45.17.715.wav,30.30861880024895,30.808720000088215,None,30.30861880024895,30.30861880024895,30.30861880024895,30.30861880024895,30.30861880024895,30.30861880024895,,,,,,260201,001,2023-12-04_14h44.55.523,REPSWITCH1_version2_list1,2022.2.4,144.0517434851105,
REPSWITCH1/PICTURE_178.png,puente,speak,darkblue,repeat,2,T,1,1,1,2,Stim1_Set1,0,None,4,3,4,0,3,3,3,,,,,,,,,,,,,,,,,,,,,,,30.808720000088215,31.9060839000158,31.9060839000158,31.9060839000158,31.9060839000158,31.9060839000158,31.9060839000158,31.9060839000158,31.9060839000158,None,0,,,C:\2023\REPSWITCH21092023\REPSWITCH_excgange\REPSWITCH_excgange\data/260201_REPSWITCH1_version2_list1_2023-12-04_14h44.55.523_micRespv2l1_recorded\recording_micRespv2l1_2023-12-04_14h45.22.333.wav,34.92730260035023,35.42744820006192,None,34.92730260035023,34.92730260035023,34.92730260035023,34.92730260035023,34.92730260035023,34.92730260035023,,,,,,260201,001,2023-12-04_14h44.55.523,REPSWITCH1_version2_list1,2022.2.4,144.0517434851105,
REPSWITCH1/PICTURE_319.png,vaca,type,gold,filler,1,F,1,1,1,2,Stim1_Set4,0,None,5,4,5,0,4,4,4,,,,,,,,,,,,,,,,,,,,,,,35.42744820006192,36.63589770020917,36.63589770020917,36.63589770020917,36.63589770020917,36.63589770020917,36.63589770020917,36.63589770020917,36.63589770020917,"['v', 'a', 'c', 'a']",0,"[1.2582940999418497, 1.4075754000805318, 1.5490621998906136, 1.6574957999400795]",vaca,C:\2023\REPSWITCH21092023\REPSWITCH_excgange\REPSWITCH_excgange\data/260201_REPSWITCH1_version2_list1_2023-12-04_14h44.55.523_micRespv2l1_recorded\recording_micRespv2l1_2023-12-04_14h45.27.063.wav,39.66406160034239,,None,39.66406160034239,39.66406160034239,39.66406160034239,39.66406160034239,39.66406160034239,39.66406160034239,,,,,,260201,001,2023-12-04_14h44.55.523,REPSWITCH1_version2_list1,2022.2.4,144.0517434851105,
REPSWITCH1/PICTURE_381.png,fresa,speak,darkblue,nontarget,2,NT,1,1,1,2,Stim2_Set1,1,switch,6,5,6,0,5,5,5,,,,,,,,,,,,,,,,,,,,,,,40.164072500076145,41.28233900014311,41.28233900014311,41.28233900014311,41.28233900014311,41.28233900014311,41.28233900014311,41.28233900014311,41.28233900014311,None,0,,,C:\2023\REPSWITCH21092023\REPSWITCH_excgange\REPSWITCH_excgange\data/260201_REPSWITCH1_version2_list1_2023-12-04_14h44.55.523_micRespv2l1_recorded\recording_micRespv2l1_2023-12-04_14h45.31.711.wav,44.31047879997641,,None,44.31047879997641,44.31047879997641,44.31047879997641,44.31047879997641,44.31047879997641,44.31047879997641,,,,,,260201,001,2023-12-04_14h44.55.523,REPSWITCH1_version2_list1,2022.2.4,144.0517434851105,
REPSWITCH1/PICTURE_381.png,fresa,speak,darkblue,repeat,2,T,1,1,1,2,Stim2_Set1,0,None,7,6,7,0,6,6,6,,,,,,,,,,,,,,,,,,,,,,,44.810560800135136,45.9148572999984,45.9148572999984,45.9148572999984,45.9148572999984,45.9148572999984,45.9148572999984,45.9148572999984,45.9148572999984,None,0,,,C:\2023\REPSWITCH21092023\REPSWITCH_excgange\REPSWITCH_excgange\data/260201_REPSWITCH1_version2_list1_2023-12-04_14h44.55.523_micRespv2l1_recorded\recording_micRespv2l1_2023-12-04_14h45.36.343.wav,48.94301340030506,,None,48.94301340030506,48.94301340030506,48.94301340030506,48.94301340030506,48.94301340030506,48.94301340030506,,,,,,260201,001,2023-12-04_14h44.55.523,REPSWITCH1_version2_list1,2022.2.4,144.0517434851105,
REPSWITCH1/PICTURE_719.png,baño,type,gold,filler,1,F,1,1,1,2,Stim2_Set4,1,switch,8,7,8,0,7,7,7,,,,,,,,,,,,,,,,,,,,,,,49.44308610027656,50.540533600375056,50.540533600375056,50.540533600375056,50.540533600375056,50.540533600375056,50.540533600375056,50.540533600375056,50.540533600375056,"['b', 'a', 'ñ', 'o']",0,"[1.2368268999271095, 1.4371250001713634, 1.8361546001397073, 1.930855100043118]",baño,C:\2023\REPSWITCH21092023\REPSWITCH_excgange\REPSWITCH_excgange\data/260201_REPSWITCH1_version2_list1_2023-12-04_14h44.55.523_micRespv2l1_recorded\recording_micRespv2l1_2023-12-04_14h45.40.969.wav,53.56864780001342,,None,53.56864780001342,53.56864780001342,53.56864780001342,53.56864780001342,53.56864780001342,53.56864780001342,,,,,,260201,001,2023-12-04_14h44.55.523,REPSWITCH1_version2_list1,2022.2.4,144.0517434851105,
REPSWITCH1/PICTURE_135.png,traje,speak,darkblue,nontarget,2,NT,1,1,1,2,Stim3_Set1,0,None,9,8,9,0,8,8,8,,,,,,,,,,,,,,,,,,,,,,,54.06872000033036,55.11054210038856,55.11054210038856,55.11054210038856,55.11054210038856,55.11054210038856,55.11054210038856,55.11054210038856,55.11054210038856,None,0,,,C:\2023\REPSWITCH21092023\REPSWITCH_excgange\REPSWITCH_excgange\data/260201_REPSWITCH1_version2_list1_2023-12-04_14h44.55.523_micRespv2l1_recorded\recording_micRespv2l1_2023-12-04_14h45.45.539.wav,58.13868400035426,,None,58.13868400035426,58.13868400035426,58.13868400035426,58.13868400035426,58.13868400035426,58.13868400035426,,,,,,260201,001,2023-12-04_14h44.55.523,REPSWITCH1_version2_list1,2022.2.4,144.0517434851105,
REPSWITCH1/PICTURE_135.png,traje,type,gold,switch,1,T,1,1,1,2,Stim3_Set1,0,None,10,9,10,0,9,9,9,,,,,,,,,,,,,,,,,,,,,,,58.63874640036374,59.826400600373745,59.826400600373745,59.826400600373745,59.826400600373745,59.826400600373745,59.826400600373745,59.826400600373745,59.826400600373745,"['t', 'r', 'a', 'j', 'e']",0,"[1.1363289998844266, 1.3266644002869725, 1.4901292999275029, 1.7293306002393365, 1.8341129999607801]",traje,C:\2023\REPSWITCH21092023\REPSWITCH_excgange\REPSWITCH_excgange\data/260201_REPSWITCH1_version2_list1_2023-12-04_14h44.55.523_micRespv2l1_recorded\recording_micRespv2l1_2023-12-04_14h45.50.254.wav,62.854632100090384,,None,62.854632100090384,62.854632100090384,62.854632100090384,62.854632100090384,62.854632100090384,62.854632100090384,,,,,,260201,001,2023-12-04_14h44.55.523,REPSWITCH1_version2_list1,2022.2.4,144.0517434851105,
REPSWITCH1/PICTURE_687.png,camisa,speak,darkblue,filler,2,F,1,1,1,2,Stim5_Set4,0,None,11,10,11,0,10,10,10,,,,,,,,,,,,,,,,,,,,,,,63.3546451004222,64.4659235002473,64.4659235002473,64.4659235002473,64.4659235002473,64.4659235002473,64.4659235002473,64.4659235002473,64.4659235002473,None,0,,,C:\2023\REPSWITCH21092023\REPSWITCH_excgange\REPSWITCH_excgange\data/260201_REPSWITCH1_version2_list1_2023-12-04_14h44.55.523_micRespv2l1_recorded\recording_micRespv2l1_2023-12-04_14h45.54.894.wav,67.49406320042908,,None,67.49406320042908,67.49406320042908,67.49406320042908,67.49406320042908,67.49406320042908,67.49406320042908,,,,,,260201,001,2023-12-04_14h44.55.523,REPSWITCH1_version2_list1,2022.2.4,144.0517434851105,
REPSWITCH1/PICTURE_128.png,muñeca,type,gold,nontarget,1,NT,1,1,1,2,Stim4_Set1,1,switch,12,11,12,0,11,11,11,,,,,,,,,,,,,,,,,,,,,,,67.99411710025743,69.13317910023034,69.13317910023034,69.13317910023034,69.13317910023034,69.13317910023034,69.13317910023034,69.13317910023034,69.13317910023034,"['m', 'e']",0,"[1.5679081999696791, 2.301897400058806]",me,C:\2023\REPSWITCH21092023\REPSWITCH_excgange\REPSWITCH_excgange\data/260201_REPSWITCH1_version2_list1_2023-12-04_14h44.55.523_micRespv2l1_recorded\recording_micRespv2l1_2023-12-04_14h45.59.561.wav,72.16137460013852,,None,72.16137460013852,72.16137460013852,72.16137460013852,72.16137460013852,72.16137460013852,72.16137460013852,,,,,,260201,001,2023-12-04_14h44.55.523,REPSWITCH1_version2_list1,2022.2.4,144.0517434851105,
REPSWITCH1/PICTURE_128.png,muñeca,speak,darkblue,switch,2,T,1,1,1,2,Stim4_Set1,0,None,13,12,13,0,12,12,12,,,,,,,,,,,,,,,,,,,,,,,72.66143370000646,73.76576860016212,73.76576860016212,73.76576860016212,73.76576860016212,73.76576860016212,73.76576860016212,73.76576860016212,73.76576860016212,None,0,,,C:\2023\REPSWITCH21092023\REPSWITCH_excgange\REPSWITCH_excgange\data/260201_REPSWITCH1_version2_list1_2023-12-04_14h44.55.523_micRespv2l1_recorded\recording_micRespv2l1_2023-12-04_14h46.04.194.wav,76.7869403003715,77.28701710002497,None,76.7869403003715,76.7869403003715,76.7869403003715,76.7869403003715,76.7869403003715,76.7869403003715,,,,,,260201,001,2023-12-04_14h44.55.523,REPSWITCH1_version2_list1,2022.2.4,144.0517434851105,
REPSWITCH1/PICTURE_8.png,pierna,speak,darkblue,filler,2,F,1,1,1,2,Stim3_Set4,0,None,14,13,14,0,13,13,13,,,,,,,,,,,,,,,,,,,,,,,77.28701710002497,78.32188480021432,78.32188480021432,78.32188480021432,78.32188480021432,78.32188480021432,78.32188480021432,78.32188480021432,78.32188480021432,None,0,,,C:\2023\REPSWITCH21092023\REPSWITCH_excgange\REPSWITCH_excgange\data/260201_REPSWITCH1_version2_list1_2023-12-04_14h44.55.523_micRespv2l1_recorded\recording_micRespv2l1_2023-12-04_14h46.08.749.wav,81.343179800082,81.84318990027532,None,81.343179800082,81.343179800082,81.343179800082,81.343179800082,81.343179800082,81.343179800082,,,,,,260201,001,2023-12-04_14h44.55.523,REPSWITCH1_version2_list1,2022.2.4,144.0517434851105,
REPSWITCH1/PICTURE_19.png,pavo,speak,darkblue,nontarget,2,NT,1,1,1,2,Stim5_Set1,0,None,15,14,15,0,14,14,14,,,,,,,,,,,,,,,,,,,,,,,81.84318990027532,82.96833880012855,82.96833880012855,82.96833880012855,82.96833880012855,82.96833880012855,82.96833880012855,82.96833880012855,82.96833880012855,None,0,,,C:\2023\REPSWITCH21092023\REPSWITCH_excgange\REPSWITCH_excgange\data/260201_REPSWITCH1_version2_list1_2023-12-04_14h44.55.523_micRespv2l1_recorded\recording_micRespv2l1_2023-12-04_14h46.13.396.wav,85.9965536003001,,None,85.9965536003001,85.9965536003001,85.9965536003001,85.9965536003001,85.9965536003001,85.9965536003001,,,,,,260201,001,2023-12-04_14h44.55.523,REPSWITCH1_version2_list1,2022.2.4,144.0517434851105,
REPSWITCH1/PICTURE_19.png,pavo,type,gold,switch,1,T,1,1,1,2,Stim5_Set1,0,None,16,15,16,0,15,15,15,,,,,,,,,,,,,,,,,,,,,,,86.49659000011161,87.53150430042297,87.53150430042297,87.53150430042297,87.53150430042297,87.53150430042297,87.53150430042297,87.53150430042297,87.53150430042297,"['p', 'a', 'v', 'o']",0,"[0.8973308997228742, 1.0557912001386285, 1.406587999779731, 1.5391820999793708]",pavo,C:\2023\REPSWITCH21092023\REPSWITCH_excgange\REPSWITCH_excgange\data/260201_REPSWITCH1_version2_list1_2023-12-04_14h44.55.523_micRespv2l1_recorded\recording_micRespv2l1_2023-12-04_14h46.17.959.wav,90.55961720040068,,None,90.55961720040068,90.55961720040068,90.55961720040068,90.55961720040068,90.55961720040068,90.55961720040068,,,,,,260201,001,2023-12-04_14h44.55.523,REPSWITCH1_version2_list1,2022.2.4,144.0517434851105,
REPSWITCH1/PICTURE_16.png,cazador,type,gold,nontarget,1,NT,1,1,1,2,Stim6_Set1,1,switch,17,16,17,0,16,16,16,,,,,,,,,,,,,,,,,,,,,,,91.05967410001904,92.13620840013027,92.13620840013027,92.13620840013027,92.13620840013027,92.13620840013027,92.13620840013027,92.13620840013027,92.13620840013027,"['c', 'a', 'z', 'a', 'd', 'o', 'r']",0,"[1.777231500018388, 1.9867997001856565, 2.2020749002695084, 2.328215999994427, 2.5464672003872693, 2.6982523002661765, 2.787950500380248]",cazador,C:\2023\REPSWITCH21092023\REPSWITCH_excgange\REPSWITCH_excgange\data/260201_REPSWITCH1_version2_list1_2023-12-04_14h44.55.523_micRespv2l1_recorded\recording_micRespv2l1_2023-12-04_14h46.22.565.wav,95.16439770022407,,None,95.16439770022407,95.16439770022407,95.16439770022407,95.16439770022407,95.16439770022407,95.16439770022407,,,,,,260201,001,2023-12-04_14h44.55.523,REPSWITCH1_version2_list1,2022.2.4,144.0517434851105,
REPSWITCH1/PICTURE_16.png,cazador,type,gold,repeat,1,T,1,1,1,2,Stim6_Set1,0,None,18,17,18,0,17,17,17,,,,,,,,,,,,,,,,,,,,,,,95.66452320013195,96.73402580013499,96.73402580013499,96.73402580013499,96.73402580013499,96.73402580013499,96.73402580013499,96.73402580013499,96.73402580013499,"['c', 'a', 'z', 'a', 'd', 'o', 'r']",0,"[1.0650277002714574, 1.1566981002688408, 1.319156200159341, 1.436877700034529, 1.6301242001354694, 1.763780000153929, 1.859457100275904]",cazador,C:\2023\REPSWITCH21092023\REPSWITCH_excgange\REPSWITCH_excgange\data/260201_REPSWITCH1_version2_list1_2023-12-04_14h44.55.523_micRespv2l1_recorded\recording_micRespv2l1_2023-12-04_14h46.27.162.wav,99.76228590030223,,None,99.76228590030223,99.76228590030223,99.76228590030223,99.76228590030223,99.76228590030223,99.76228590030223,,,,,,260201,001,2023-12-04_14h44.55.523,REPSWITCH1_version2_list1,2022.2.4,144.0517434851105,
REPSWITCH1/PICTURE_498.png,taza,speak,darkblue,filler,2,F,1,1,1,2,Stim4_Set4,0,None,19,18,19,0,18,18,18,,,,,,,,,,,,,,,,,,,,,,,100.26235830038786,101.36662810016423,101.36662810016423,101.36662810016423,101.36662810016423,101.36662810016423,101.36662810016423,101.36662810016423,101.36662810016423,None,0,,,C:\2023\REPSWITCH21092023\REPSWITCH_excgange\REPSWITCH_excgange\data/260201_REPSWITCH1_version2_list1_2023-12-04_14h44.55.523_micRespv2l1_recorded\recording_micRespv2l1_2023-12-04_14h46.31.795.wav,104.39480520039797,,None,104.39480520039797,104.39480520039797,104.39480520039797,104.39480520039797,104.39480520039797,104.39480520039797,,,,,,260201,001,2023-12-04_14h44.55.523,REPSWITCH1_version2_list1,2022.2.4,144.0517434851105,
REPSWITCH1/PICTURE_48.png,bombero,type,gold,filler,1,F,1,1,1,2,Stim7_Set4,0,None,20,19,20,0,19,19,19,,,,,,,,,,,,,,,,,,,,,,,104.8948377002962,105.97831330029294,105.97831330029294,105.97831330029294,105.97831330029294,105.97831330029294,105.97831330029294,105.97831330029294,105.97831330029294,"['b', 'm', 'b', 'e', 'r', 'o']",0,"[1.1164758997038007, 1.5548244998790324, 2.0693777999840677, 2.169048999901861, 2.2487431997433305, 2.5191116998903453]",bmbero,C:\2023\REPSWITCH21092023\REPSWITCH_excgange\REPSWITCH_excgange\data/260201_REPSWITCH1_version2_list1_2023-12-04_14h44.55.523_micRespv2l1_recorded\recording_micRespv2l1_2023-12-04_14h46.36.406.wav,108.99952420033514,109.49967860011384,None,108.99952420033514,108.99952420033514,108.99952420033514,108.99952420033514,108.99952420033514,108.99952420033514,,,,,,260201,001,2023-12-04_14h44.55.523,REPSWITCH1_version2_list1,2022.2.4,144.0517434851105,
REPSWITCH1/PICTURE_142.png,vaso,type,gold,nontarget,1,NT,1,1,1,2,Stim7_Set1,1,repeat,21,20,21,0,20,20,20,,,,,,,,,,,,,,,,,,,,,,,109.49967860011384,110.59695610031486,110.59695610031486,110.59695610031486,110.59695610031486,110.59695610031486,110.59695610031486,110.59695610031486,110.59695610031486,"['v', 'a', 's', 'o']",0,"[1.1887607001699507, 1.2976434002630413, 1.5690761003643274, 1.7433337001129985]",vaso,C:\2023\REPSWITCH21092023\REPSWITCH_excgange\REPSWITCH_excgange\data/260201_REPSWITCH1_version2_list1_2023-12-04_14h44.55.523_micRespv2l1_recorded\recording_micRespv2l1_2023-12-04_14h46.41.025.wav,113.62512170011178,,None,113.62512170011178,113.62512170011178,113.62512170011178,113.62512170011178,113.62512170011178,113.62512170011178,,,,,,260201,001,2023-12-04_14h44.55.523,REPSWITCH1_version2_list1,2022.2.4,144.0517434851105,
REPSWITCH1/PICTURE_142.png,vaso,type,gold,repeat,1,T,1,1,1,2,Stim7_Set1,0,None,22,21,22,0,21,21,21,,,,,,,,,,,,,,,,,,,,,,,114.12520860042423,115.18092339998111,115.18092339998111,115.18092339998111,115.18092339998111,115.18092339998111,115.18092339998111,115.18092339998111,115.18092339998111,"['v', 'a', 's', 'o']",0,"[1.5818219003267586, 1.68447280023247, 1.7453495999798179, 1.9404474003240466]",vaso,C:\2023\REPSWITCH21092023\REPSWITCH_excgange\REPSWITCH_excgange\data/260201_REPSWITCH1_version2_list1_2023-12-04_14h44.55.523_micRespv2l1_recorded\recording_micRespv2l1_2023-12-04_14h46.45.609.wav,118.2091402001679,118.70913030020893,None,118.2091402001679,118.2091402001679,118.2091402001679,118.2091402001679,118.2091402001679,118.2091402001679,,,,,,260201,001,2023-12-04_14h44.55.523,REPSWITCH1_version2_list1,2022.2.4,144.0517434851105,
REPSWITCH1/PICTURE_338.png,regalo,speak,darkblue,filler,2,F,1,1,1,2,Stim6_Set4,1,switch,23,22,23,0,22,22,22,,,,,,,,,,,,,,,,,,,,,,,118.70913030020893,119.86908510001376,119.86908510001376,119.86908510001376,119.86908510001376,119.86908510001376,119.86908510001376,119.86908510001376,119.86908510001376,None,0,,,C:\2023\REPSWITCH21092023\REPSWITCH_excgange\REPSWITCH_excgange\data/260201_REPSWITCH1_version2_list1_2023-12-04_14h44.55.523_micRespv2l1_recorded\recording_micRespv2l1_2023-12-04_14h46.50.297.wav,122.8972110003233,,None,122.8972110003233,122.8972110003233,122.8972110003233,122.8972110003233,122.8972110003233,122.8972110003233,,,,,,260201,001,2023-12-04_14h44.55.523,REPSWITCH1_version2_list1,2022.2.4,144.0517434851105,
REPSWITCH1/PICTURE_728.png,pulpo,type,gold,filler,1,F,1,1,1,2,Stim8_Set4,1,switch,24,23,24,0,23,23,23,,,,,,,,,,,,,,,,,,,,,,,123.39726860029623,124.43909280002117,124.43909280002117,124.43909280002117,124.43909280002117,124.43909280002117,124.43909280002117,124.43909280002117,124.43909280002117,"['p', 'u', 'l', 'p', 'o']",0,"[1.1167951002717018, 1.315077600069344, 1.5473349001258612, 1.8752619000151753, 1.9701070003211498]",pulpo,C:\2023\REPSWITCH21092023\REPSWITCH_excgange\REPSWITCH_excgange\data/260201_REPSWITCH1_version2_list1_2023-12-04_14h44.55.523_micRespv2l1_recorded\recording_micRespv2l1_2023-12-04_14h46.54.867.wav,127.46029240032658,127.96036890009418,None,127.46029240032658,127.46029240032658,127.46029240032658,127.46029240032658,127.46029240032658,127.46029240032658,,,,,,260201,001,2023-12-04_14h44.55.523,REPSWITCH1_version2_list1,2022.2.4,144.0517434851105,
REPSWITCH1/PICTURE_169.png,espalda,type,gold,nontarget,1,NT,1,1,1,2,Stim8_Set1,1,repeat,25,24,25,0,24,24,24,,,,,,,,,,,,,,,,,,,,,,,127.96036890009418,129.04389940015972,129.04389940015972,129.04389940015972,129.04389940015972,129.04389940015972,129.04389940015972,129.04389940015972,129.04389940015972,"['e', 's', 'p', 'a', 'l', 'd', 'a']",0,"[1.3139622998423874, 1.5277220997959375, 1.6823212997987866, 1.8022243999876082, 1.906865299679339, 2.020799999590963, 2.281201799865812]",espalda,C:\2023\REPSWITCH21092023\REPSWITCH_excgange\REPSWITCH_excgange\data/260201_REPSWITCH1_version2_list1_2023-12-04_14h44.55.523_micRespv2l1_recorded\recording_micRespv2l1_2023-12-04_14h46.59.472.wav,132.06505150021985,132.56511320034042,None,132.06505150021985,132.06505150021985,132.06505150021985,132.06505150021985,132.06505150021985,132.06505150021985,,,,,,260201,001,2023-12-04_14h44.55.523,REPSWITCH1_version2_list1,2022.2.4,144.0517434851105,
REPSWITCH1/PICTURE_169.png,espalda,speak,darkblue,switch,2,T,1,1,1,2,Stim8_Set1,0,None,26,25,26,0,25,25,25,,,,,,,,,,,,,,,,,,,,,,,132.56511320034042,133.66257180040702,133.66257180040702,133.66257180040702,133.66257180040702,133.66257180040702,133.66257180040702,133.66257180040702,133.66257180040702,None,0,,,C:\2023\REPSWITCH21092023\REPSWITCH_excgange\REPSWITCH_excgange\data/260201_REPSWITCH1_version2_list1_2023-12-04_14h44.55.523_micRespv2l1_recorded\recording_micRespv2l1_2023-12-04_14h47.04.090.wav,136.69066520035267,,None,136.69066520035267,136.69066520035267,136.69066520035267,136.69066520035267,136.69066520035267,136.69066520035267,,,,,,260201,001,2023-12-04_14h44.55.523,REPSWITCH1_version2_list1,2022.2.4,144.0517434851105,
REPSWITCH1/PICTURE_178.png,puente,speak,darkblue,filler,2,F,2,1,1,2,Stim1_Set1,0,None,27,26,27,0,26,26,26,,,,,,,,,,,,,,,,,,,,,,,137.19074610015377,138.20475340029225,138.20475340029225,138.20475340029225,138.20475340029225,138.20475340029225,138.20475340029225,138.20475340029225,138.20475340029225,None,0,,,C:\2023\REPSWITCH21092023\REPSWITCH_excgange\REPSWITCH_excgange\data/260201_REPSWITCH1_version2_list1_2023-12-04_14h44.55.523_micRespv2l1_recorded\recording_micRespv2l1_2023-12-04_14h47.08.633.wav,141.23292650002986,,None,141.23292650002986,141.23292650002986,141.23292650002986,141.23292650002986,141.23292650002986,141.23292650002986,,,,,,260201,001,2023-12-04_14h44.55.523,REPSWITCH1_version2_list1,2022.2.4,144.0517434851105,
REPSWITCH1/PICTURE_175.png,pintor,type,gold,nontarget,1,NT,2,1,1,2,Stim1_Set2,1,switch,28,27,28,0,27,27,27,,,,,,,,,,,,,,,,,,,,,,,141.73297190014273,142.8720563002862,142.8720563002862,142.8720563002862,142.8720563002862,142.8720563002862,142.8720563002862,142.8720563002862,142.8720563002862,"['p', 'i', 'n', 't', 'o', 'r']",0,"[1.0752281001769006, 1.273554699961096, 1.4688659003004432, 1.6034442000091076, 1.7080947002395988, 1.8200596002861857]",pintor,C:\2023\REPSWITCH21092023\REPSWITCH_excgange\REPSWITCH_excgange\data/260201_REPSWITCH1_version2_list1_2023-12-04_14h44.55.523_micRespv2l1_recorded\recording_micRespv2l1_2023-12-04_14h47.13.299.wav,145.89326060004532,146.39335000002757,None,145.89326060004532,145.89326060004532,145.89326060004532,145.89326060004532,145.89326060004532,145.89326060004532,,,,,,260201,001,2023-12-04_14h44.55.523,REPSWITCH1_version2_list1,2022.2.4,144.0517434851105,
REPSWITCH1/PICTURE_175.png,pintor,type,gold,repeat,1,T,2,1,1,2,Stim1_Set2,0,None,29,28,29,0,28,28,28,,,,,,,,,,,,,,,,,,,,,,,146.39335000002757,147.4560112003237,147.4560112003237,147.4560112003237,147.4560112003237,147.4560112003237,147.4560112003237,147.4560112003237,147.4560112003237,"['p', 'i', 'n', 't', 'o', 'r']",0,"[0.7219207999296486, 0.9511640998534858, 1.0980001999996603, 1.2475670999847353, 1.352218999993056, 1.4716747999191284]",pintor,C:\2023\REPSWITCH21092023\REPSWITCH_excgange\REPSWITCH_excgange\data/260201_REPSWITCH1_version2_list1_2023-12-04_14h44.55.523_micRespv2l1_recorded\recording_micRespv2l1_2023-12-04_14h47.17.884.wav,150.4771956000477,150.9772699000314,None,150.4771956000477,150.4771956000477,150.4771956000477,150.4771956000477,150.4771956000477,150.4771956000477,,,,,,260201,001,2023-12-04_14h44.55.523,REPSWITCH1_version2_list1,2022.2.4,144.0517434851105,
REPSWITCH1/PICTURE_381.png,fresa,speak,darkblue,filler,2,F,2,1,1,2,Stim2_Set1,0,None,30,29,30,0,29,29,29,,,,,,,,,,,,,,,,,,,,,,,150.9772699000314,152.10938929999247,152.10938929999247,152.10938929999247,152.10938929999247,152.10938929999247,152.10938929999247,152.10938929999247,152.10938929999247,None,0,,,C:\2023\REPSWITCH21092023\REPSWITCH_excgange\REPSWITCH_excgange\data/260201_REPSWITCH1_version2_list1_2023-12-04_14h44.55.523_micRespv2l1_recorded\recording_micRespv2l1_2023-12-04_14h47.22.538.wav,155.13755750004202,,None,155.13755750004202,155.13755750004202,155.13755750004202,155.13755750004202,155.13755750004202,155.13755750004202,,,,,,260201,001,2023-12-04_14h44.55.523,REPSWITCH1_version2_list1,2022.2.4,144.0517434851105,
REPSWITCH1/PICTURE_152.png,caracol,type,gold,nontarget,1,NT,2,1,1,2,Stim2_Set2,1,switch,31,30,31,0,30,30,30,,,,,,,,,,,,,,,,,,,,,,,155.63761950004846,156.70720000006258,156.70720000006258,156.70720000006258,156.70720000006258,156.70720000006258,156.70720000006258,156.70720000006258,156.70720000006258,"['c', 'a', 'r', 'a', 'c', 'o', 'l']",0,"[0.9024282996542752, 1.1076170997694135, 1.2938016997650266, 1.5176750998944044, 1.740892699919641, 1.853827599901706, 2.0076154000125825]",caracol,C:\2023\REPSWITCH21092023\REPSWITCH_excgange\REPSWITCH_excgange\data/260201_REPSWITCH1_version2_list1_2023-12-04_14h44.55.523_micRespv2l1_recorded\recording_micRespv2l1_2023-12-04_14h47.27.134.wav,159.72840940020978,160.22850379999727,None,159.72840940020978,159.72840940020978,159.72840940020978,159.72840940020978,159.72840940020978,159.72840940020978,,,,,,260201,001,2023-12-04_14h44.55.523,REPSWITCH1_version2_list1,2022.2.4,144.0517434851105,
REPSWITCH1/PICTURE_152.png,caracol,type,gold,repeat,1,T,2,1,1,2,Stim2_Set2,0,None,32,31,32,0,31,31,31,,,,,,,,,,,,,,,,,,,,,,,160.22850379999727,161.28420340036973,161.28420340036973,161.28420340036973,161.28420340036973,161.28420340036973,161.28420340036973,161.28420340036973,161.28420340036973,"['c', 'a', 'r', 'a', 'c', 'o', 'l']",0,"[0.7037654002197087, 0.9213245999999344, 1.1206490001641214, 1.301234600134194, 1.5108503000810742, 1.5988937001675367, 1.7603685003705323]",caracol,C:\2023\REPSWITCH21092023\REPSWITCH_excgange\REPSWITCH_excgange\data/260201_REPSWITCH1_version2_list1_2023-12-04_14h44.55.523_micRespv2l1_recorded\recording_micRespv2l1_2023-12-04_14h47.31.712.wav,164.31236900016665,,None,164.31236900016665,164.31236900016665,164.31236900016665,164.31236900016665,164.31236900016665,164.31236900016665,,,,,,260201,001,2023-12-04_14h44.55.523,REPSWITCH1_version2_list1,2022.2.4,144.0517434851105,
REPSWITCH1/PICTURE_128.png,muñeca,speak,darkblue,filler,2,F,2,1,1,2,Stim4_Set1,0,None,33,32,33,0,32,32,32,,,,,,,,,,,,,,,,,,,,,,,164.81250120000914,165.88897530036047,165.88897530036047,165.88897530036047,165.88897530036047,165.88897530036047,165.88897530036047,165.88897530036047,165.88897530036047,None,0,,,C:\2023\REPSWITCH21092023\REPSWITCH_excgange\REPSWITCH_excgange\data/260201_REPSWITCH1_version2_list1_2023-12-04_14h44.55.523_micRespv2l1_recorded\recording_micRespv2l1_2023-12-04_14h47.36.317.wav,168.91711580008268,,None,168.91711580008268,168.91711580008268,168.91711580008268,168.91711580008268,168.91711580008268,168.91711580008268,,,,,,260201,001,2023-12-04_14h44.55.523,REPSWITCH1_version2_list1,2022.2.4,144.0517434851105,
REPSWITCH1/PICTURE_264.png,mano,type,gold,nontarget,1,NT,2,1,1,2,Stim3_Set2,0,None,34,33,34,0,33,33,33,,,,,,,,,,,,,,,,,,,,,,,169.417201500386,170.66745610022917,170.66745610022917,170.66745610022917,170.66745610022917,170.66745610022917,170.66745610022917,170.66745610022917,170.66745610022917,"['a', 'backspace', 'm', 'a', 'n', 'o']",0,"[1.4985883999615908, 2.0591858997941017, 2.383734399918467, 2.542165799997747, 2.6288843997754157, 2.7245741998776793]",mano,C:\2023\REPSWITCH21092023\REPSWITCH_excgange\REPSWITCH_excgange\data/260201_REPSWITCH1_version2_list1_2023-12-04_14h44.55.523_micRespv2l1_recorded\recording_micRespv2l1_2023-12-04_14h47.41.095.wav,173.6885956004262,174.18870980013162,None,173.6885956004262,173.6885956004262,173.6885956004262,173.6885956004262,173.6885956004262,173.6885956004262,,,,,,260201,001,2023-12-04_14h44.55.523,REPSWITCH1_version2_list1,2022.2.4,144.0517434851105,
REPSWITCH1/PICTURE_264.png,mano,speak,darkblue,switch,2,T,2,1,1,2,Stim3_Set2,0,None,35,34,35,0,34,34,34,,,,,,,,,,,,,,,,,,,,,,,174.18870980013162,175.27908450039104,175.27908450039104,175.27908450039104,175.27908450039104,175.27908450039104,175.27908450039104,175.27908450039104,175.27908450039104,None,0,,,C:\2023\REPSWITCH21092023\REPSWITCH_excgange\REPSWITCH_excgange\data/260201_REPSWITCH1_version2_list1_2023-12-04_14h44.55.523_micRespv2l1_recorded\recording_micRespv2l1_2023-12-04_14h47.45.707.wav,178.3073076000437,,None,178.3073076000437,178.3073076000437,178.3073076000437,178.3073076000437,178.3073076000437,178.3073076000437,,,,,,260201,001,2023-12-04_14h44.55.523,REPSWITCH1_version2_list1,2022.2.4,144.0517434851105,
REPSWITCH1/PICTURE_517.png,cuerda,speak,darkblue,nontarget,2,NT,2,1,1,2,Stim4_Set2,1,repeat,36,35,36,0,35,35,35,,,,,,,,,,,,,,,,,,,,,,,178.80739910015836,179.9186118002981,179.9186118002981,179.9186118002981,179.9186118002981,179.9186118002981,179.9186118002981,179.9186118002981,179.9186118002981,None,0,,,C:\2023\REPSWITCH21092023\REPSWITCH_excgange\REPSWITCH_excgange\data/260201_REPSWITCH1_version2_list1_2023-12-04_14h44.55.523_micRespv2l1_recorded\recording_micRespv2l1_2023-12-04_14h47.50.347.wav,182.94676280021667,,None,182.94676280021667,182.94676280021667,182.94676280021667,182.94676280021667,182.94676280021667,182.94676280021667,,,,,,260201,001,2023-12-04_14h44.55.523,REPSWITCH1_version2_list1,2022.2.4,144.0517434851105,
REPSWITCH1/PICTURE_517.png,cuerda,type,gold,switch,1,T,2,1,1,2,Stim4_Set2,0,None,37,36,37,0,36,36,36,,,,,,,,,,,,,,,,,,,,,,,183.4468249003403,184.55807440029457,184.55807440029457,184.55807440029457,184.55807440029457,184.55807440029457,184.55807440029457,184.55807440029457,184.55807440029457,"['c', 'u', 'e', 'r', 'd', 'a']",0,"[0.9494558000005782, 1.172216400038451, 1.2907846998423338, 1.3718888997100294, 1.599981099832803, 1.8314963998273015]",cuerda,C:\2023\REPSWITCH21092023\REPSWITCH_excgange\REPSWITCH_excgange\data/260201_REPSWITCH1_version2_list1_2023-12-04_14h44.55.523_micRespv2l1_recorded\recording_micRespv2l1_2023-12-04_14h47.54.985.wav,187.58626310015097,,None,187.58626310015097,187.58626310015097,187.58626310015097,187.58626310015097,187.58626310015097,187.58626310015097,,,,,,260201,001,2023-12-04_14h44.55.523,REPSWITCH1_version2_list1,2022.2.4,144.0517434851105,
REPSWITCH1/PICTURE_135.png,traje,type,gold,filler,1,F,2,1,1,2,Stim3_Set1,0,None,38,37,38,0,37,37,37,,,,,,,,,,,,,,,,,,,,,,,188.08632610039786,189.20450410014018,189.20450410014018,189.20450410014018,189.20450410014018,189.20450410014018,189.20450410014018,189.20450410014018,189.20450410014018,"['t', 'r', 'a', 'j', 'e']",0,"[1.0705116000026464, 1.2121335002593696, 1.369925200007856, 1.5685366000980139, 1.6635708003304899]",traje,C:\2023\REPSWITCH21092023\REPSWITCH_excgange\REPSWITCH_excgange\data/260201_REPSWITCH1_version2_list1_2023-12-04_14h44.55.523_micRespv2l1_recorded\recording_micRespv2l1_2023-12-04_14h47.59.633.wav,192.23270840011537,,None,192.23270840011537,192.23270840011537,192.23270840011537,192.23270840011537,192.23270840011537,192.23270840011537,,,,,,260201,001,2023-12-04_14h44.55.523,REPSWITCH1_version2_list1,2022.2.4,144.0517434851105,
REPSWITCH1/PICTURE_30.png,granja,type,gold,nontarget,1,NT,2,1,1,2,Stim5_Set2,1,repeat,39,38,39,0,38,38,38,,,,,,,,,,,,,,,,,,,,,,,192.73275790037587,193.75371340010315,193.75371340010315,193.75371340010315,193.75371340010315,193.75371340010315,193.75371340010315,193.75371340010315,193.75371340010315,"['g', 'r', 'a', 'n', 'j', 'a']",0,"[1.2059492003172636, 1.391268900129944, 1.5652736001648009, 1.8127510002814233, 1.9912097002379596, 2.0919119003228843]",granja,C:\2023\REPSWITCH21092023\REPSWITCH_excgange\REPSWITCH_excgange\data/260201_REPSWITCH1_version2_list1_2023-12-04_14h44.55.523_micRespv2l1_recorded\recording_micRespv2l1_2023-12-04_14h48.04.182.wav,196.78187830001116,197.2819528002292,None,196.78187830001116,196.78187830001116,196.78187830001116,196.78187830001116,196.78187830001116,196.78187830001116,,,,,,260201,001,2023-12-04_14h44.55.523,REPSWITCH1_version2_list1,2022.2.4,144.0517434851105,
REPSWITCH1/PICTURE_30.png,granja,speak,darkblue,switch,2,T,2,1,1,2,Stim5_Set2,0,None,40,39,40,0,39,39,39,,,,,,,,,,,,,,,,,,,,,,,197.2819528002292,198.32375350035727,198.32375350035727,198.32375350035727,198.32375350035727,198.32375350035727,198.32375350035727,198.32375350035727,198.32375350035727,None,0,,,C:\2023\REPSWITCH21092023\REPSWITCH_excgange\REPSWITCH_excgange\data/260201_REPSWITCH1_version2_list1_2023-12-04_14h44.55.523_micRespv2l1_recorded\recording_micRespv2l1_2023-12-04_14h48.08.752.wav,201.35200310032815,,None,201.35200310032815,201.35200310032815,201.35200310032815,201.35200310032815,201.35200310032815,201.35200310032815,,,,,,260201,001,2023-12-04_14h44.55.523,REPSWITCH1_version2_list1,2022.2.4,144.0517434851105,
REPSWITCH1/PICTURE_142.png,vaso,type,gold,filler,1,F,2,1,1,2,Stim7_Set1,0,None,41,40,41,0,40,40,40,,,,,,,,,,,,,,,,,,,,,,,201.8519849004224,202.94942630035803,202.94942630035803,202.94942630035803,202.94942630035803,202.94942630035803,202.94942630035803,202.94942630035803,202.94942630035803,"['v', 'a', 's', 'o']",0,"[0.9330028002150357, 1.0741721000522375, 1.1669471999630332, 1.344276700168848]",vaso,C:\2023\REPSWITCH21092023\REPSWITCH_excgange\REPSWITCH_excgange\data/260201_REPSWITCH1_version2_list1_2023-12-04_14h44.55.523_micRespv2l1_recorded\recording_micRespv2l1_2023-12-04_14h48.13.377.wav,205.97061850037426,206.4706872003153,None,205.97061850037426,205.97061850037426,205.97061850037426,205.97061850037426,205.97061850037426,205.97061850037426,,,,,,260201,001,2023-12-04_14h44.55.523,REPSWITCH1_version2_list1,2022.2.4,144.0517434851105,
REPSWITCH1/PICTURE_19.png,pavo,speak,darkblue,filler,2,F,2,1,1,2,Stim5_Set1,1,switch,42,41,42,0,41,41,41,,,,,,,,,,,,,,,,,,,,,,,206.4706872003153,207.56110290018842,207.56110290018842,207.56110290018842,207.56110290018842,207.56110290018842,207.56110290018842,207.56110290018842,207.56110290018842,None,0,,,C:\2023\REPSWITCH21092023\REPSWITCH_excgange\REPSWITCH_excgange\data/260201_REPSWITCH1_version2_list1_2023-12-04_14h44.55.523_micRespv2l1_recorded\recording_micRespv2l1_2023-12-04_14h48.17.989.wav,210.58237460022792,211.0824053999968,None,210.58237460022792,210.58237460022792,210.58237460022792,210.58237460022792,210.58237460022792,210.58237460022792,,,,,,260201,001,2023-12-04_14h44.55.523,REPSWITCH1_version2_list1,2022.2.4,144.0517434851105,
REPSWITCH1/PICTURE_552.png,manzana,speak,darkblue,nontarget,2,NT,2,1,1,2,Stim6_Set2,1,repeat,43,42,43,0,42,42,42,,,,,,,,,,,,,,,,,,,,,,,211.0824053999968,212.15891790017486,212.15891790017486,212.15891790017486,212.15891790017486,212.15891790017486,212.15891790017486,212.15891790017486,212.15891790017486,None,0,,,C:\2023\REPSWITCH21092023\REPSWITCH_excgange\REPSWITCH_excgange\data/260201_REPSWITCH1_version2_list1_2023-12-04_14h44.55.523_micRespv2l1_recorded\recording_micRespv2l1_2023-12-04_14h48.22.587.wav,215.18710350012407,,None,215.18710350012407,215.18710350012407,215.18710350012407,215.18710350012407,215.18710350012407,215.18710350012407,,,,,,260201,001,2023-12-04_14h44.55.523,REPSWITCH1_version2_list1,2022.2.4,144.0517434851105,
REPSWITCH1/PICTURE_552.png,manzana,speak,darkblue,repeat,2,T,2,1,1,2,Stim6_Set2,0,None,44,43,44,0,43,43,43,,,,,,,,,,,,,,,,,,,,,,,215.68717290041968,216.72204690007493,216.72204690007493,216.72204690007493,216.72204690007493,216.72204690007493,216.72204690007493,216.72204690007493,216.72204690007493,None,0,,,C:\2023\REPSWITCH21092023\REPSWITCH_excgange\REPSWITCH_excgange\data/260201_REPSWITCH1_version2_list1_2023-12-04_14h44.55.523_micRespv2l1_recorded\recording_micRespv2l1_2023-12-04_14h48.27.150.wav,219.7502125003375,,None,219.7502125003375,219.7502125003375,219.7502125003375,219.7502125003375,219.7502125003375,219.7502125003375,,,,,,260201,001,2023-12-04_14h44.55.523,REPSWITCH1_version2_list1,2022.2.4,144.0517434851105,
REPSWITCH1/PICTURE_16.png,cazador,type,gold,filler,1,F,2,1,1,2,Stim6_Set1,0,None,45,44,45,0,44,44,44,,,,,,,,,,,,,,,,,,,,,,,220.25027760025114,221.31297480035573,221.31297480035573,221.31297480035573,221.31297480035573,221.31297480035573,221.31297480035573,221.31297480035573,221.31297480035573,"['c', 'a', 'z', 'a', 'd', 'o', 'r']",0,"[1.1426509004086256, 1.262251800391823, 1.4807236003689468, 1.6374664003960788, 1.8577991002239287, 1.969416500069201, 2.0601203003898263]",cazador,C:\2023\REPSWITCH21092023\REPSWITCH_excgange\REPSWITCH_excgange\data/260201_REPSWITCH1_version2_list1_2023-12-04_14h44.55.523_micRespv2l1_recorded\recording_micRespv2l1_2023-12-04_14h48.31.741.wav,224.34106860030442,,None,224.34106860030442,224.34106860030442,224.34106860030442,224.34106860030442,224.34106860030442,224.34106860030442,,,,,,260201,001,2023-12-04_14h44.55.523,REPSWITCH1_version2_list1,2022.2.4,144.0517434851105,
REPSWITCH1/PICTURE_446.png,cerdo,speak,darkblue,nontarget,2,NT,2,1,1,2,Stim7_Set2,1,switch,46,45,46,0,45,45,45,,,,,,,,,,,,,,,,,,,,,,,224.84121810039505,225.98720220010728,225.98720220010728,225.98720220010728,225.98720220010728,225.98720220010728,225.98720220010728,225.98720220010728,225.98720220010728,None,0,,,C:\2023\REPSWITCH21092023\REPSWITCH_excgange\REPSWITCH_excgange\data/260201_REPSWITCH1_version2_list1_2023-12-04_14h44.55.523_micRespv2l1_recorded\recording_micRespv2l1_2023-12-04_14h48.36.415.wav,229.01539010042325,,None,229.01539010042325,229.01539010042325,229.01539010042325,229.01539010042325,229.01539010042325,229.01539010042325,,,,,,260201,001,2023-12-04_14h44.55.523,REPSWITCH1_version2_list1,2022.2.4,144.0517434851105,
REPSWITCH1/PICTURE_446.png,cerdo,speak,darkblue,repeat,2,T,2,1,1,2,Stim7_Set2,0,None,47,46,47,0,46,46,46,,,,,,,,,,,,,,,,,,,,,,,229.515364699997,230.5363376000896,230.5363376000896,230.5363376000896,230.5363376000896,230.5363376000896,230.5363376000896,230.5363376000896,230.5363376000896,None,0,,,C:\2023\REPSWITCH21092023\REPSWITCH_excgange\REPSWITCH_excgange\data/260201_REPSWITCH1_version2_list1_2023-12-04_14h44.55.523_micRespv2l1_recorded\recording_micRespv2l1_2023-12-04_14h48.40.964.wav,233.56450920039788,,None,233.56450920039788,233.56450920039788,233.56450920039788,233.56450920039788,233.56450920039788,233.56450920039788,,,,,,260201,001,2023-12-04_14h44.55.523,REPSWITCH1_version2_list1,2022.2.4,144.0517434851105,
REPSWITCH1/PICTURE_590.png,escoba,type,gold,filler,1,F,2,1,1,2,Extra3,0,None,48,47,48,0,47,47,47,,,,,,,,,,,,,,,,,,,,,,,234.0645960001275,235.14114140020683,235.14114140020683,235.14114140020683,235.14114140020683,235.14114140020683,235.14114140020683,235.14114140020683,235.14114140020683,"['e', 's', 'c', 'o', 'b', 'a']",0,"[1.137014599982649, 1.34123450005427, 1.572483700234443, 1.704367300029844, 1.936601399909705, 2.0153308999724686]",escoba,C:\2023\REPSWITCH21092023\REPSWITCH_excgange\REPSWITCH_excgange\data/260201_REPSWITCH1_version2_list1_2023-12-04_14h44.55.523_micRespv2l1_recorded\recording_micRespv2l1_2023-12-04_14h48.45.568.wav,238.16235690005124,238.66245830012485,None,238.16235690005124,238.16235690005124,238.16235690005124,238.16235690005124,238.16235690005124,238.16235690005124,,,,,,260201,001,2023-12-04_14h44.55.523,REPSWITCH1_version2_list1,2022.2.4,144.0517434851105,
REPSWITCH1/PICTURE_169.png,espalda,speak,darkblue,filler,2,F,2,1,1,2,Stim8_Set1,0,None,49,48,49,0,48,48,48,,,,,,,,,,,,,,,,,,,,,,,238.66245830012485,239.76673950022087,239.76673950022087,239.76673950022087,239.76673950022087,239.76673950022087,239.76673950022087,239.76673950022087,239.76673950022087,None,0,,,C:\2023\REPSWITCH21092023\REPSWITCH_excgange\REPSWITCH_excgange\data/260201_REPSWITCH1_version2_list1_2023-12-04_14h44.55.523_micRespv2l1_recorded\recording_micRespv2l1_2023-12-04_14h48.50.194.wav,242.79487920040265,,None,242.79487920040265,242.79487920040265,242.79487920040265,242.79487920040265,242.79487920040265,242.79487920040265,,,,,,260201,001,2023-12-04_14h44.55.523,REPSWITCH1_version2_list1,2022.2.4,144.0517434851105,
REPSWITCH1/PICTURE_199.png,falda,speak,darkblue,nontarget,2,NT,2,1,1,2,Stim8_Set2,1,repeat,50,49,50,0,49,49,49,,,,,,,,,,,,,,,,,,,,,,,243.29499150021002,244.40622340003029,244.40622340003029,244.40622340003029,244.40622340003029,244.40622340003029,244.40622340003029,244.40622340003029,244.40622340003029,None,0,,,C:\2023\REPSWITCH21092023\REPSWITCH_excgange\REPSWITCH_excgange\data/260201_REPSWITCH1_version2_list1_2023-12-04_14h44.55.523_micRespv2l1_recorded\recording_micRespv2l1_2023-12-04_14h48.54.833.wav,247.42745600035414,247.92751020006835,None,247.42745600035414,247.42745600035414,247.42745600035414,247.42745600035414,247.42745600035414,247.42745600035414,,,,,,260201,001,2023-12-04_14h44.55.523,REPSWITCH1_version2_list1,2022.2.4,144.0517434851105,
REPSWITCH1/PICTURE_199.png,falda,type,gold,switch,1,T,2,1,1,2,Stim8_Set2,0,None,51,50,51,0,50,50,50,,,,,,,,,,,,,,,,,,,,,,,247.92751020006835,249.0249048001133,249.0249048001133,249.0249048001133,249.0249048001133,249.0249048001133,249.0249048001133,249.0249048001133,249.0249048001133,"['f', 'a', 'l', 'a', 'd']",0,"[1.2954818001016974, 1.5087468000128865, 1.6591831999830902, 1.8743997002020478, 1.8763668001629412]",falad,C:\2023\REPSWITCH21092023\REPSWITCH_excgange\REPSWITCH_excgange\data/260201_REPSWITCH1_version2_list1_2023-12-04_14h44.55.523_micRespv2l1_recorded\recording_micRespv2l1_2023-12-04_14h48.59.453.wav,252.0530451000668,,space,252.0530451000668,252.0530451000668,252.0530451000668,252.0530451000668,252.0530451000668,252.0530451000668,252.5530962003395,252.5530962003395,6.919912899844348,,,260201,001,2023-12-04_14h44.55.523,REPSWITCH1_version2_list1,2022.2.4,144.0517434851105,
REPSWITCH1/PICTURE_576.png,guante,type,gold,nontarget,1,NT,3,1,1,2,Stim1_Set3,0,None,52,51,52,0,51,51,51,,,,,,,,,,,,,,,,,,,,,,,259.4846225003712,260.60973490029573,260.60973490029573,260.60973490029573,260.60973490029573,260.60973490029573,260.60973490029573,260.60973490029573,260.60973490029573,"['g', 'u', 'a', 'n', 't', 'e']",0,"[1.2428093003109097, 1.3655493003316224, 1.5369766000658274, 1.6479174001142383, 1.8791307001374662, 1.9193803002126515]",guante,C:\2023\REPSWITCH21092023\REPSWITCH_excgange\REPSWITCH_excgange\data/260201_REPSWITCH1_version2_list1_2023-12-04_14h44.55.523_micRespv2l1_recorded\recording_micRespv2l1_2023-12-04_14h49.11.037.wav,263.63789770007133,,None,263.63789770007133,263.63789770007133,263.63789770007133,263.63789770007133,263.63789770007133,263.63789770007133,,,,,,260201,001,2023-12-04_14h44.55.523,REPSWITCH1_version2_list1,2022.2.4,144.0517434851105,
REPSWITCH1/PICTURE_576.png,guante,speak,darkblue,switch,2,T,3,1,1,2,Stim1_Set3,0,None,53,52,53,0,52,52,52,,,,,,,,,,,,,,,,,,,,,,,264.13796790037304,265.2076305001974,265.2076305001974,265.2076305001974,265.2076305001974,265.2076305001974,265.2076305001974,265.2076305001974,265.2076305001974,None,0,,,C:\2023\REPSWITCH21092023\REPSWITCH_excgange\REPSWITCH_excgange\data/260201_REPSWITCH1_version2_list1_2023-12-04_14h44.55.523_micRespv2l1_recorded\recording_micRespv2l1_2023-12-04_14h49.15.636.wav,268.23575440002605,,None,268.23575440002605,268.23575440002605,268.23575440002605,268.23575440002605,268.23575440002605,268.23575440002605,,,,,,260201,001,2023-12-04_14h44.55.523,REPSWITCH1_version2_list1,2022.2.4,144.0517434851105,
REPSWITCH1/PICTURE_646.png,tronco,speak,darkblue,filler,2,F,3,1,1,2,Extra4,0,None,54,53,54,0,53,53,53,,,,,,,,,,,,,,,,,,,,,,,268.735817800276,269.833265400026,269.833265400026,269.833265400026,269.833265400026,269.833265400026,269.833265400026,269.833265400026,269.833265400026,None,0,,,C:\2023\REPSWITCH21092023\REPSWITCH_excgange\REPSWITCH_excgange\data/260201_REPSWITCH1_version2_list1_2023-12-04_14h44.55.523_micRespv2l1_recorded\recording_micRespv2l1_2023-12-04_14h49.20.261.wav,272.8613826003857,,None,272.8613826003857,272.8613826003857,272.8613826003857,272.8613826003857,272.8613826003857,272.8613826003857,,,,,,260201,001,2023-12-04_14h44.55.523,REPSWITCH1_version2_list1,2022.2.4,144.0517434851105,
REPSWITCH1/PICTURE_610.png,miel,speak,darkblue,nontarget,2,NT,3,1,1,2,Stim2_Set3,1,repeat,55,54,55,0,54,54,54,,,,,,,,,,,,,,,,,,,,,,,273.36150300037116,274.389323099982,274.389323099982,274.389323099982,274.389323099982,274.389323099982,274.389323099982,274.389323099982,274.389323099982,None,0,,,C:\2023\REPSWITCH21092023\REPSWITCH_excgange\REPSWITCH_excgange\data/260201_REPSWITCH1_version2_list1_2023-12-04_14h44.55.523_micRespv2l1_recorded\recording_micRespv2l1_2023-12-04_14h49.24.817.wav,277.4105724003166,277.91070390027016,None,277.4105724003166,277.4105724003166,277.4105724003166,277.4105724003166,277.4105724003166,277.4105724003166,,,,,,260201,001,2023-12-04_14h44.55.523,REPSWITCH1_version2_list1,2022.2.4,144.0517434851105,
REPSWITCH1/PICTURE_610.png,miel,type,gold,switch,1,T,3,1,1,2,Stim2_Set3,0,None,56,55,56,0,55,55,55,,,,,,,,,,,,,,,,,,,,,,,277.91070390027016,278.93854780029505,278.93854780029505,278.93854780029505,278.93854780029505,278.93854780029505,278.93854780029505,278.93854780029505,278.93854780029505,"['m', 'i', 'e', 'l']",0,"[1.0540478001348674, 1.1655732998624444, 1.43177800020203, 2.0987285999581218]",miel,C:\2023\REPSWITCH21092023\REPSWITCH_excgange\REPSWITCH_excgange\data/260201_REPSWITCH1_version2_list1_2023-12-04_14h44.55.523_micRespv2l1_recorded\recording_micRespv2l1_2023-12-04_14h49.29.366.wav,281.9597771000117,282.4598666001111,None,281.9597771000117,281.9597771000117,281.9597771000117,281.9597771000117,281.9597771000117,281.9597771000117,,,,,,260201,001,2023-12-04_14h44.55.523,REPSWITCH1_version2_list1,2022.2.4,144.0517434851105,
REPSWITCH1/PICTURE_175.png,pintor,type,gold,filler,1,F,3,1,1,2,Stim1_Set2,1,repeat,57,56,57,0,56,56,56,,,,,,,,,,,,,,,,,,,,,,,282.4598666001111,283.48774560028687,283.48774560028687,283.48774560028687,283.48774560028687,283.48774560028687,283.48774560028687,283.48774560028687,283.48774560028687,"['p', 'i', 'n', 't', 'o', 'r']",0,"[1.0826181997545063, 1.3313076999038458, 1.4897094001062214, 1.6282080998644233, 1.7448748000897467, 1.8265864998102188]",pintor,C:\2023\REPSWITCH21092023\REPSWITCH_excgange\REPSWITCH_excgange\data/260201_REPSWITCH1_version2_list1_2023-12-04_14h44.55.523_micRespv2l1_recorded\recording_micRespv2l1_2023-12-04_14h49.33.916.wav,286.50895300041884,287.00902940006927,None,286.50895300041884,286.50895300041884,286.50895300041884,286.50895300041884,286.50895300041884,286.50895300041884,,,,,,260201,001,2023-12-04_14h44.55.523,REPSWITCH1_version2_list1,2022.2.4,144.0517434851105,
REPSWITCH1/PICTURE_242.png,cartero,type,gold,nontarget,1,NT,3,1,1,2,Stim3_Set3,1,repeat,58,57,58,0,57,57,57,,,,,,,,,,,,,,,,,,,,,,,287.00902940006927,288.17586640035734,288.17586640035734,288.17586640035734,288.17586640035734,288.17586640035734,288.17586640035734,288.17586640035734,288.17586640035734,"['c', 'a', 'r', 't', 'e', 'r', 'o']",0,"[0.9271627999842167, 1.1178071997128427, 1.3320553000085056, 1.5534059996716678, 1.6450972999446094, 1.7836270998232067, 1.970969199668616]",cartero,C:\2023\REPSWITCH21092023\REPSWITCH_excgange\REPSWITCH_excgange\data/260201_REPSWITCH1_version2_list1_2023-12-04_14h44.55.523_micRespv2l1_recorded\recording_micRespv2l1_2023-12-04_14h49.38.603.wav,291.1970693003386,291.6971668000333,None,291.1970693003386,291.1970693003386,291.1970693003386,291.1970693003386,291.1970693003386,291.1970693003386,,,,,,260201,001,2023-12-04_14h44.55.523,REPSWITCH1_version2_list1,2022.2.4,144.0517434851105,
REPSWITCH1/PICTURE_242.png,cartero,speak,darkblue,switch,2,T,3,1,1,2,Stim3_Set3,0,None,59,58,59,0,58,58,58,,,,,,,,,,,,,,,,,,,,,,,291.6971668000333,292.7112162001431,292.7112162001431,292.7112162001431,292.7112162001431,292.7112162001431,292.7112162001431,292.7112162001431,292.7112162001431,None,0,,,C:\2023\REPSWITCH21092023\REPSWITCH_excgange\REPSWITCH_excgange\data/260201_REPSWITCH1_version2_list1_2023-12-04_14h44.55.523_micRespv2l1_recorded\recording_micRespv2l1_2023-12-04_14h49.43.139.wav,295.7394075002521,,None,295.7394075002521,295.7394075002521,295.7394075002521,295.7394075002521,295.7394075002521,295.7394075002521,,,,,,260201,001,2023-12-04_14h44.55.523,REPSWITCH1_version2_list1,2022.2.4,144.0517434851105,
REPSWITCH1/PICTURE_152.png,caracol,speak,darkblue,filler,2,F,3,1,1,2,Stim2_Set2,0,None,60,59,60,0,59,59,59,,,,,,,,,,,,,,,,,,,,,,,296.2394299004227,297.36463640024886,297.36463640024886,297.36463640024886,297.36463640024886,297.36463640024886,297.36463640024886,297.36463640024886,297.36463640024886,None,0,,,C:\2023\REPSWITCH21092023\REPSWITCH_excgange\REPSWITCH_excgange\data/260201_REPSWITCH1_version2_list1_2023-12-04_14h44.55.523_micRespv2l1_recorded\recording_micRespv2l1_2023-12-04_14h49.47.792.wav,300.3927738000639,,None,300.3927738000639,300.3927738000639,300.3927738000639,300.3927738000639,300.3927738000639,300.3927738000639,,,,,,260201,001,2023-12-04_14h44.55.523,REPSWITCH1_version2_list1,2022.2.4,144.0517434851105,
REPSWITCH1/PICTURE_517.png,cuerda,type,gold,filler,1,F,3,1,1,2,Stim4_Set2,0,None,61,60,61,0,60,60,60,,,,,,,,,,,,,,,,,,,,,,,300.89282200019807,302.0458130002953,302.0458130002953,302.0458130002953,302.0458130002953,302.0458130002953,302.0458130002953,302.0458130002953,302.0458130002953,"['c', 'u', 'e', 'r', 'd', 'a']",0,"[1.0167625001631677, 1.1845209999009967, 1.3010995001532137, 1.3785047000274062, 1.597163800150156, 1.8193950997665524]",cuerda,C:\2023\REPSWITCH21092023\REPSWITCH_excgange\REPSWITCH_excgange\data/260201_REPSWITCH1_version2_list1_2023-12-04_14h44.55.523_micRespv2l1_recorded\recording_micRespv2l1_2023-12-04_14h49.52.473.wav,305.06696740025654,305.5670234002173,None,305.06696740025654,305.06696740025654,305.06696740025654,305.06696740025654,305.06696740025654,305.06696740025654,,,,,,260201,001,2023-12-04_14h44.55.523,REPSWITCH1_version2_list1,2022.2.4,144.0517434851105,
REPSWITCH1/PICTURE_235.png,aguja,speak,darkblue,nontarget,2,NT,3,1,1,2,Stim4_Set3,1,switch,62,61,62,0,61,61,61,,,,,,,,,,,,,,,,,,,,,,,305.5670234002173,306.615865400061,306.615865400061,306.615865400061,306.615865400061,306.615865400061,306.615865400061,306.615865400061,306.615865400061,None,0,,,C:\2023\REPSWITCH21092023\REPSWITCH_excgange\REPSWITCH_excgange\data/260201_REPSWITCH1_version2_list1_2023-12-04_14h44.55.523_micRespv2l1_recorded\recording_micRespv2l1_2023-12-04_14h49.57.044.wav,309.64394900016487,,None,309.64394900016487,309.64394900016487,309.64394900016487,309.64394900016487,309.64394900016487,309.64394900016487,,,,,,260201,001,2023-12-04_14h44.55.523,REPSWITCH1_version2_list1,2022.2.4,144.0517434851105,
REPSWITCH1/PICTURE_235.png,aguja,speak,darkblue,repeat,2,T,3,1,1,2,Stim4_Set3,0,None,63,62,63,0,62,62,62,,,,,,,,,,,,,,,,,,,,,,,310.144085300155,311.20668320031837,311.20668320031837,311.20668320031837,311.20668320031837,311.20668320031837,311.20668320031837,311.20668320031837,311.20668320031837,None,0,,,C:\2023\REPSWITCH21092023\REPSWITCH_excgange\REPSWITCH_excgange\data/260201_REPSWITCH1_version2_list1_2023-12-04_14h44.55.523_micRespv2l1_recorded\recording_micRespv2l1_2023-12-04_14h50.01.633.wav,314.22788690030575,314.72795070009306,None,314.22788690030575,314.22788690030575,314.22788690030575,314.22788690030575,314.22788690030575,314.22788690030575,,,,,,260201,001,2023-12-04_14h44.55.523,REPSWITCH1_version2_list1,2022.2.4,144.0517434851105,
REPSWITCH1/PICTURE_30.png,granja,type,gold,filler,1,F,3,1,1,2,Stim5_Set2,0,None,64,63,64,0,63,63,63,,,,,,,,,,,,,,,,,,,,,,,314.72795070009306,315.8600688003935,315.8600688003935,315.8600688003935,315.8600688003935,315.8600688003935,315.8600688003935,315.8600688003935,315.8600688003935,"['g', 'r', 'a', 'n', 'j', 'a']",0,"[1.080770400352776, 1.159328100271523, 1.4569435003213584, 1.5475685000419617, 1.720313400030136, 1.8322336999699473]",granja,C:\2023\REPSWITCH21092023\REPSWITCH_excgange\REPSWITCH_excgange\data/260201_REPSWITCH1_version2_list1_2023-12-04_14h44.55.523_micRespv2l1_recorded\recording_micRespv2l1_2023-12-04_14h50.06.288.wav,318.8813614002429,319.3814407000318,None,318.8813614002429,318.8813614002429,318.8813614002429,318.8813614002429,318.8813614002429,318.8813614002429,,,,,,260201,001,2023-12-04_14h44.55.523,REPSWITCH1_version2_list1,2022.2.4,144.0517434851105,
REPSWITCH1/PICTURE_552.png,manzana,speak,darkblue,filler,2,F,3,1,1,2,Stim6_Set2,1,switch,65,64,65,0,64,64,64,,,,,,,,,,,,,,,,,,,,,,,319.3814407000318,320.4995816000737,320.4995816000737,320.4995816000737,320.4995816000737,320.4995816000737,320.4995816000737,320.4995816000737,320.4995816000737,None,0,,,C:\2023\REPSWITCH21092023\REPSWITCH_excgange\REPSWITCH_excgange\data/260201_REPSWITCH1_version2_list1_2023-12-04_14h44.55.523_micRespv2l1_recorded\recording_micRespv2l1_2023-12-04_14h50.10.927.wav,323.5208744001575,324.0208526002243,None,323.5208744001575,323.5208744001575,323.5208744001575,323.5208744001575,323.5208744001575,323.5208744001575,,,,,,260201,001,2023-12-04_14h44.55.523,REPSWITCH1_version2_list1,2022.2.4,144.0517434851105,
REPSWITCH1/PICTURE_35.png,oreja,speak,darkblue,nontarget,2,NT,3,1,1,2,Stim5_Set3,1,repeat,66,65,66,0,65,65,65,,,,,,,,,,,,,,,,,,,,,,,324.0208526002243,325.12524790037423,325.12524790037423,325.12524790037423,325.12524790037423,325.12524790037423,325.12524790037423,325.12524790037423,325.12524790037423,None,0,,,C:\2023\REPSWITCH21092023\REPSWITCH_excgange\REPSWITCH_excgange\data/260201_REPSWITCH1_version2_list1_2023-12-04_14h44.55.523_micRespv2l1_recorded\recording_micRespv2l1_2023-12-04_14h50.15.553.wav,328.1534212999977,,None,328.1534212999977,328.1534212999977,328.1534212999977,328.1534212999977,328.1534212999977,328.1534212999977,,,,,,260201,001,2023-12-04_14h44.55.523,REPSWITCH1_version2_list1,2022.2.4,144.0517434851105,
REPSWITCH1/PICTURE_35.png,oreja,speak,darkblue,repeat,2,T,3,1,1,2,Stim5_Set3,0,None,67,66,67,0,66,66,66,,,,,,,,,,,,,,,,,,,,,,,328.65341570042074,329.8202403001487,329.8202403001487,329.8202403001487,329.8202403001487,329.8202403001487,329.8202403001487,329.8202403001487,329.8202403001487,None,0,,,C:\2023\REPSWITCH21092023\REPSWITCH_excgange\REPSWITCH_excgange\data/260201_REPSWITCH1_version2_list1_2023-12-04_14h44.55.523_micRespv2l1_recorded\recording_micRespv2l1_2023-12-04_14h50.20.246.wav,332.8414764003828,333.3415322001092,None,332.8414764003828,332.8414764003828,332.8414764003828,332.8414764003828,332.8414764003828,332.8414764003828,,,,,,260201,001,2023-12-04_14h44.55.523,REPSWITCH1_version2_list1,2022.2.4,144.0517434851105,
REPSWITCH1/PICTURE_673.png,tenedor,type,gold,filler,1,F,3,1,1,2,Extra5,0,None,68,67,68,0,67,67,67,,,,,,,,,,,,,,,,,,,,,,,333.3415322001092,334.37637419998646,334.37637419998646,334.37637419998646,334.37637419998646,334.37637419998646,334.37637419998646,334.37637419998646,334.37637419998646,"['t', 'e', 'n', 'e', 'd', 'o', 'r']",0,"[1.1133996997959912, 1.3137193000875413, 1.4569795997813344, 1.5127885998226702, 1.8057718998752534, 1.91340889967978, 2.033846799749881]",tenedor,C:\2023\REPSWITCH21092023\REPSWITCH_excgange\REPSWITCH_excgange\data/260201_REPSWITCH1_version2_list1_2023-12-04_14h44.55.523_micRespv2l1_recorded\recording_micRespv2l1_2023-12-04_14h50.24.803.wav,337.39759010029957,337.89769770018756,None,337.39759010029957,337.39759010029957,337.39759010029957,337.39759010029957,337.39759010029957,337.39759010029957,,,,,,260201,001,2023-12-04_14h44.55.523,REPSWITCH1_version2_list1,2022.2.4,144.0517434851105,
REPSWITCH1/PICTURE_464.png,goma,speak,darkblue,nontarget,2,NT,3,1,1,2,Stim6_Set3,0,None,69,68,69,0,68,68,68,,,,,,,,,,,,,,,,,,,,,,,337.89769770018756,338.99507790012285,338.99507790012285,338.99507790012285,338.99507790012285,338.99507790012285,338.99507790012285,338.99507790012285,338.99507790012285,"['g', 'o', 'a', 'backspace', 'backspace', 'backspace']",0,"[1.1090412000194192, 1.4016586001962423, 1.6219068001955748, 2.0863744001835585, 2.278885700274259, 2.5294111003167927]",,C:\2023\REPSWITCH21092023\REPSWITCH_excgange\REPSWITCH_excgange\data/260201_REPSWITCH1_version2_list1_2023-12-04_14h44.55.523_micRespv2l1_recorded\recording_micRespv2l1_2023-12-04_14h50.29.422.wav,342.0162625000812,342.5163485002704,None,342.0162625000812,342.0162625000812,342.0162625000812,342.0162625000812,342.0162625000812,342.0162625000812,,,,,,260201,001,2023-12-04_14h44.55.523,REPSWITCH1_version2_list1,2022.2.4,144.0517434851105,
REPSWITCH1/PICTURE_464.png,goma,type,gold,switch,1,T,3,1,1,2,Stim6_Set3,0,None,70,69,70,0,69,69,69,,,,,,,,,,,,,,,,,,,,,,,342.5163485002704,343.5373408002779,343.5373408002779,343.5373408002779,343.5373408002779,343.5373408002779,343.5373408002779,343.5373408002779,343.5373408002779,"['g', 'o', 'm', 'a']",0,"[1.1212579002603889, 1.2298904000781476, 1.512953500263393, 1.66739990003407]",goma,C:\2023\REPSWITCH21092023\REPSWITCH_excgange\REPSWITCH_excgange\data/260201_REPSWITCH1_version2_list1_2023-12-04_14h44.55.523_micRespv2l1_recorded\recording_micRespv2l1_2023-12-04_14h50.33.965.wav,346.5585280000232,347.0586148002185,None,346.5585280000232,346.5585280000232,346.5585280000232,346.5585280000232,346.5585280000232,346.5585280000232,,,,,,260201,001,2023-12-04_14h44.55.523,REPSWITCH1_version2_list1,2022.2.4,144.0517434851105,
REPSWITCH1/PICTURE_264.png,mano,speak,darkblue,filler,2,F,3,1,1,2,Stim3_Set2,0,None,71,70,71,0,70,70,70,,,,,,,,,,,,,,,,,,,,,,,347.0586148002185,348.13515930017456,348.13515930017456,348.13515930017456,348.13515930017456,348.13515930017456,348.13515930017456,348.13515930017456,348.13515930017456,None,0,,,C:\2023\REPSWITCH21092023\REPSWITCH_excgange\REPSWITCH_excgange\data/260201_REPSWITCH1_version2_list1_2023-12-04_14h44.55.523_micRespv2l1_recorded\recording_micRespv2l1_2023-12-04_14h50.38.563.wav,351.1563834003173,351.65644580032676,None,351.1563834003173,351.1563834003173,351.1563834003173,351.1563834003173,351.1563834003173,351.1563834003173,,,,,,260201,001,2023-12-04_14h44.55.523,REPSWITCH1_version2_list1,2022.2.4,144.0517434851105,
REPSWITCH1/PICTURE_271.png,conejo,type,gold,nontarget,1,NT,3,1,1,2,Stim7_Set3,1,switch,72,71,72,0,71,71,71,,,,,,,,,,,,,,,,,,,,,,,351.65644580032676,352.73303040023893,352.73303040023893,352.73303040023893,352.73303040023893,352.73303040023893,352.73303040023893,352.73303040023893,352.73303040023893,"['c', 'o', 'n', 'e', 'j', 'o']",0,"[0.8865858996286988, 0.9507901999168098, 1.1168708996847272, 1.267498499713838, 1.3820817000232637, 1.4400851000100374]",conejo,C:\2023\REPSWITCH21092023\REPSWITCH_excgange\REPSWITCH_excgange\data/260201_REPSWITCH1_version2_list1_2023-12-04_14h44.55.523_micRespv2l1_recorded\recording_micRespv2l1_2023-12-04_14h50.43.161.wav,355.75422060023993,356.2543411999941,None,355.75422060023993,355.75422060023993,355.75422060023993,355.75422060023993,355.75422060023993,355.75422060023993,,,,,,260201,001,2023-12-04_14h44.55.523,REPSWITCH1_version2_list1,2022.2.4,144.0517434851105,
REPSWITCH1/PICTURE_271.png,conejo,type,gold,repeat,1,T,3,1,1,2,Stim7_Set3,0,None,73,72,73,0,72,72,72,,,,,,,,,,,,,,,,,,,,,,,356.2543411999941,357.27531870035455,357.27531870035455,357.27531870035455,357.27531870035455,357.27531870035455,357.27531870035455,357.27531870035455,357.27531870035455,"['c', 'o', 'n', 'e', 'j', 'o']",0,"[1.069361099973321, 1.100240200292319, 1.352689000312239, 1.499672600068152, 1.5994282001629472, 1.7042404003441334]",conejo,C:\2023\REPSWITCH21092023\REPSWITCH_excgange\REPSWITCH_excgange\data/260201_REPSWITCH1_version2_list1_2023-12-04_14h44.55.523_micRespv2l1_recorded\recording_micRespv2l1_2023-12-04_14h50.47.704.wav,360.3034128001891,,None,360.3034128001891,360.3034128001891,360.3034128001891,360.3034128001891,360.3034128001891,360.3034128001891,,,,,,260201,001,2023-12-04_14h44.55.523,REPSWITCH1_version2_list1,2022.2.4,144.0517434851105,
REPSWITCH1/PICTURE_446.png,cerdo,speak,darkblue,filler,2,F,3,1,1,2,Stim7_Set2,0,None,74,73,74,0,73,73,73,,,,,,,,,,,,,,,,,,,,,,,360.80347859999165,361.9216998000629,361.9216998000629,361.9216998000629,361.9216998000629,361.9216998000629,361.9216998000629,361.9216998000629,361.9216998000629,None,0,,,C:\2023\REPSWITCH21092023\REPSWITCH_excgange\REPSWITCH_excgange\data/260201_REPSWITCH1_version2_list1_2023-12-04_14h44.55.523_micRespv2l1_recorded\recording_micRespv2l1_2023-12-04_14h50.52.350.wav,364.94981550006196,,None,364.94981550006196,364.94981550006196,364.94981550006196,364.94981550006196,364.94981550006196,364.94981550006196,,,,,,260201,001,2023-12-04_14h44.55.523,REPSWITCH1_version2_list1,2022.2.4,144.0517434851105,
REPSWITCH1/PICTURE_199.png,falda,type,gold,filler,1,F,3,1,1,2,Stim8_Set2,1,switch,75,74,75,0,74,74,74,,,,,,,,,,,,,,,,,,,,,,,365.4498968999833,366.51953270006925,366.51953270006925,366.51953270006925,366.51953270006925,366.51953270006925,366.51953270006925,366.51953270006925,366.51953270006925,"['f', 'a', 'l', 'd', 'a']",0,"[1.1683793999254704, 1.4135342999361455, 1.4995404002256691, 1.6520165000110865, 1.730750999879092]",falda,C:\2023\REPSWITCH21092023\REPSWITCH_excgange\REPSWITCH_excgange\data/260201_REPSWITCH1_version2_list1_2023-12-04_14h44.55.523_micRespv2l1_recorded\recording_micRespv2l1_2023-12-04_14h50.56.947.wav,369.54081530030817,370.04080370021984,None,369.54081530030817,369.54081530030817,369.54081530030817,369.54081530030817,369.54081530030817,369.54081530030817,,,,,,260201,001,2023-12-04_14h44.55.523,REPSWITCH1_version2_list1,2022.2.4,144.0517434851105,
REPSWITCH1/PICTURE_320.png,iglesia,type,gold,nontarget,1,NT,3,1,1,2,Stim8_Set3,1,repeat,76,75,76,0,75,75,75,,,,,,,,,,,,,,,,,,,,,,,370.04080370021984,371.1520499000326,371.1520499000326,371.1520499000326,371.1520499000326,371.1520499000326,371.1520499000326,371.1520499000326,371.1520499000326,"['i', 'g', 'e', 'backspace', 'l', 's']",0,"[1.2068997998721898, 1.3693602997809649, 1.6000160998664796, 2.088254699949175, 2.3543503996916115, 2.5102085997350514]",igls,C:\2023\REPSWITCH21092023\REPSWITCH_excgange\REPSWITCH_excgange\data/260201_REPSWITCH1_version2_list1_2023-12-04_14h44.55.523_micRespv2l1_recorded\recording_micRespv2l1_2023-12-04_14h51.01.581.wav,374.1802537003532,,None,374.1802537003532,374.1802537003532,374.1802537003532,374.1802537003532,374.1802537003532,374.1802537003532,,,,,,260201,001,2023-12-04_14h44.55.523,REPSWITCH1_version2_list1,2022.2.4,144.0517434851105,
REPSWITCH1/PICTURE_320.png,iglesia,type,gold,repeat,1,T,3,1,1,2,Stim8_Set3,0,None,77,76,77,0,76,76,76,,,,,,,,,,,,,,,,,,,,,,,374.68027120037004,375.88878210028633,375.88878210028633,375.88878210028633,375.88878210028633,375.88878210028633,375.88878210028633,375.88878210028633,375.88878210028633,"['i', 'g', 'l', 'e', 's']",0,"[1.704088999889791, 1.867515899706632, 2.0017045000568032, 2.755768799688667, 2.948394499719143]",igles,C:\2023\REPSWITCH21092023\REPSWITCH_excgange\REPSWITCH_excgange\data/260201_REPSWITCH1_version2_list1_2023-12-04_14h44.55.523_micRespv2l1_recorded\recording_micRespv2l1_2023-12-04_14h51.06.317.wav,378.9169528000057,,None,378.9169528000057,378.9169528000057,378.9169528000057,378.9169528000057,378.9169528000057,378.9169528000057,,,,,,260201,001,2023-12-04_14h44.55.523,REPSWITCH1_version2_list1,2022.2.4,144.0517434851105,
REPSWITCH1/PICTURE_576.png,guante,speak,darkblue,filler,2,F,4,1,1,2,Stim1_Set3,0,None,78,77,78,0,77,77,77,,,,,,,,,,,,,,,,,,,,,,,379.41701010009274,380.59078590013087,380.59078590013087,380.59078590013087,380.59078590013087,380.59078590013087,380.59078590013087,380.59078590013087,380.59078590013087,None,0,,,C:\2023\REPSWITCH21092023\REPSWITCH_excgange\REPSWITCH_excgange\data/260201_REPSWITCH1_version2_list1_2023-12-04_14h44.55.523_micRespv2l1_recorded\recording_micRespv2l1_2023-12-04_14h51.11.019.wav,383.61902130022645,,None,383.61902130022645,383.61902130022645,383.61902130022645,383.61902130022645,383.61902130022645,383.61902130022645,,,,,,260201,001,2023-12-04_14h44.55.523,REPSWITCH1_version2_list1,2022.2.4,144.0517434851105,
REPSWITCH1/PICTURE_319.png,vaca,type,gold,nontarget,1,NT,4,1,1,2,Stim1_Set4,1,switch,79,78,79,0,78,78,78,,,,,,,,,,,,,,,,,,,,,,,384.11905540013686,385.2441760003567,385.2441760003567,385.2441760003567,385.2441760003567,385.2441760003567,385.2441760003567,385.2441760003567,385.2441760003567,"['v', 'a', 'c', 'a']",0,"[1.4260688000358641, 1.5291854999959469, 1.6607280001044273, 1.7544109001755714]",vaca,C:\2023\REPSWITCH21092023\REPSWITCH_excgange\REPSWITCH_excgange\data/260201_REPSWITCH1_version2_list1_2023-12-04_14h44.55.523_micRespv2l1_recorded\recording_micRespv2l1_2023-12-04_14h51.15.672.wav,388.2654401003383,388.76548750000075,None,388.2654401003383,388.2654401003383,388.2654401003383,388.2654401003383,388.2654401003383,388.2654401003383,,,,,,260201,001,2023-12-04_14h44.55.523,REPSWITCH1_version2_list1,2022.2.4,144.0517434851105,
REPSWITCH1/PICTURE_319.png,vaca,type,gold,repeat,1,T,4,1,1,2,Stim1_Set4,0,None,80,79,80,0,79,79,79,,,,,,,,,,,,,,,,,,,,,,,388.76548750000075,389.86287500010803,389.86287500010803,389.86287500010803,389.86287500010803,389.86287500010803,389.86287500010803,389.86287500010803,389.86287500010803,"['v', 'a', 'c', 'a']",0,"[1.0841526999138296, 1.2037521000020206, 1.3224216997623444, 1.4289663000963628]",vaca,C:\2023\REPSWITCH21092023\REPSWITCH_excgange\REPSWITCH_excgange\data/260201_REPSWITCH1_version2_list1_2023-12-04_14h44.55.523_micRespv2l1_recorded\recording_micRespv2l1_2023-12-04_14h51.20.290.wav,392.884094200097,393.3841508002952,None,392.884094200097,392.884094200097,392.884094200097,392.884094200097,392.884094200097,392.884094200097,,,,,,260201,001,2023-12-04_14h44.55.523,REPSWITCH1_version2_list1,2022.2.4,144.0517434851105,
REPSWITCH1/PICTURE_719.png,baño,type,gold,nontarget,1,NT,4,1,1,2,Stim2_Set4,0,None,81,80,81,0,80,80,80,,,,,,,,,,,,,,,,,,,,,,,393.3841508002952,394.4954718002118,394.4954718002118,394.4954718002118,394.4954718002118,394.4954718002118,394.4954718002118,394.4954718002118,394.4954718002118,"['b', 'a', 'ñ', 'o']",0,"[1.0877562002278864, 1.2942512002773583, 1.5435315002687275, 1.6292775999754667]",baño,C:\2023\REPSWITCH21092023\REPSWITCH_excgange\REPSWITCH_excgange\data/260201_REPSWITCH1_version2_list1_2023-12-04_14h44.55.523_micRespv2l1_recorded\recording_micRespv2l1_2023-12-04_14h51.24.923.wav,397.5235833004117,,None,397.5235833004117,397.5235833004117,397.5235833004117,397.5235833004117,397.5235833004117,397.5235833004117,,,,,,260201,001,2023-12-04_14h44.55.523,REPSWITCH1_version2_list1,2022.2.4,144.0517434851105,
REPSWITCH1/PICTURE_719.png,baño,speak,darkblue,switch,2,T,4,1,1,2,Stim2_Set4,0,None,82,81,82,0,81,81,81,,,,,,,,,,,,,,,,,,,,,,,398.02365040034056,399.14882170036435,399.14882170036435,399.14882170036435,399.14882170036435,399.14882170036435,399.14882170036435,399.14882170036435,399.14882170036435,None,0,,,C:\2023\REPSWITCH21092023\REPSWITCH_excgange\REPSWITCH_excgange\data/260201_REPSWITCH1_version2_list1_2023-12-04_14h44.55.523_micRespv2l1_recorded\recording_micRespv2l1_2023-12-04_14h51.29.576.wav,402.17694360017776,,None,402.17694360017776,402.17694360017776,402.17694360017776,402.17694360017776,402.17694360017776,402.17694360017776,,,,,,260201,001,2023-12-04_14h44.55.523,REPSWITCH1_version2_list1,2022.2.4,144.0517434851105,
REPSWITCH1/PICTURE_242.png,cartero,speak,darkblue,filler,2,F,4,1,1,2,Stim3_Set3,1,repeat,83,82,83,0,82,82,82,,,,,,,,,,,,,,,,,,,,,,,402.67701550014317,403.73274680040777,403.73274680040777,403.73274680040777,403.73274680040777,403.73274680040777,403.73274680040777,403.73274680040777,403.73274680040777,None,0,,,C:\2023\REPSWITCH21092023\REPSWITCH_excgange\REPSWITCH_excgange\data/260201_REPSWITCH1_version2_list1_2023-12-04_14h44.55.523_micRespv2l1_recorded\recording_micRespv2l1_2023-12-04_14h51.34.161.wav,406.7609516000375,,None,406.7609516000375,406.7609516000375,406.7609516000375,406.7609516000375,406.7609516000375,406.7609516000375,,,,,,260201,001,2023-12-04_14h44.55.523,REPSWITCH1_version2_list1,2022.2.4,144.0517434851105,
REPSWITCH1/PICTURE_610.png,miel,type,gold,filler,1,F,4,1,1,2,Stim2_Set3,0,None,84,83,84,0,83,83,83,,,,,,,,,,,,,,,,,,,,,,,407.2609600001015,408.34452130040154,408.34452130040154,408.34452130040154,408.34452130040154,408.34452130040154,408.34452130040154,408.34452130040154,408.34452130040154,"['m', 'i', 'e', 'l']",0,"[0.9126528999768198, 1.0232432000339031, 1.2256796001456678, 1.3402574001811445]",miel,C:\2023\REPSWITCH21092023\REPSWITCH_excgange\REPSWITCH_excgange\data/260201_REPSWITCH1_version2_list1_2023-12-04_14h44.55.523_micRespv2l1_recorded\recording_micRespv2l1_2023-12-04_14h51.38.772.wav,411.3726354003884,,None,411.3726354003884,411.3726354003884,411.3726354003884,411.3726354003884,411.3726354003884,411.3726354003884,,,,,,260201,001,2023-12-04_14h44.55.523,REPSWITCH1_version2_list1,2022.2.4,144.0517434851105,
REPSWITCH1/PICTURE_8.png,pierna,speak,darkblue,nontarget,2,NT,4,1,1,2,Stim3_Set4,1,switch,85,84,85,0,84,84,84,,,,,,,,,,,,,,,,,,,,,,,411.8726968001574,413.0464572003111,413.0464572003111,413.0464572003111,413.0464572003111,413.0464572003111,413.0464572003111,413.0464572003111,413.0464572003111,None,0,,,C:\2023\REPSWITCH21092023\REPSWITCH_excgange\REPSWITCH_excgange\data/260201_REPSWITCH1_version2_list1_2023-12-04_14h44.55.523_micRespv2l1_recorded\recording_micRespv2l1_2023-12-04_14h51.43.474.wav,416.0677603003569,416.56775780022144,None,416.0677603003569,416.0677603003569,416.0677603003569,416.0677603003569,416.0677603003569,416.0677603003569,,,,,,260201,001,2023-12-04_14h44.55.523,REPSWITCH1_version2_list1,2022.2.4,144.0517434851105,
REPSWITCH1/PICTURE_8.png,pierna,speak,darkblue,repeat,2,T,4,1,1,2,Stim3_Set4,0,None,86,85,86,0,85,85,85,,,,,,,,,,,,,,,,,,,,,,,416.56775780022144,417.6512155001983,417.6512155001983,417.6512155001983,417.6512155001983,417.6512155001983,417.6512155001983,417.6512155001983,417.6512155001983,None,0,,,C:\2023\REPSWITCH21092023\REPSWITCH_excgange\REPSWITCH_excgange\data/260201_REPSWITCH1_version2_list1_2023-12-04_14h44.55.523_micRespv2l1_recorded\recording_micRespv2l1_2023-12-04_14h51.48.079.wav,420.67242860002443,421.17259530024603,None,420.67242860002443,420.67242860002443,420.67242860002443,420.67242860002443,420.67242860002443,420.67242860002443,,,,,,260201,001,2023-12-04_14h44.55.523,REPSWITCH1_version2_list1,2022.2.4,144.0517434851105,
REPSWITCH1/PICTURE_498.png,taza,speak,darkblue,nontarget,2,NT,4,1,1,2,Stim4_Set4,1,repeat,87,86,87,0,86,86,86,,,,,,,,,,,,,,,,,,,,,,,421.17259530024603,422.22821390023455,422.22821390023455,422.22821390023455,422.22821390023455,422.22821390023455,422.22821390023455,422.22821390023455,422.22821390023455,None,0,,,C:\2023\REPSWITCH21092023\REPSWITCH_excgange\REPSWITCH_excgange\data/260201_REPSWITCH1_version2_list1_2023-12-04_14h44.55.523_micRespv2l1_recorded\recording_micRespv2l1_2023-12-04_14h51.52.656.wav,425.2563703004271,,None,425.2563703004271,425.2563703004271,425.2563703004271,425.2563703004271,425.2563703004271,425.2563703004271,,,,,,260201,001,2023-12-04_14h44.55.523,REPSWITCH1_version2_list1,2022.2.4,144.0517434851105,
REPSWITCH1/PICTURE_498.png,taza,type,gold,switch,1,T,4,1,1,2,Stim4_Set4,0,None,88,87,88,0,87,87,87,,,,,,,,,,,,,,,,,,,,,,,425.7564706001431,426.7982572000474,426.7982572000474,426.7982572000474,426.7982572000474,426.7982572000474,426.7982572000474,426.7982572000474,426.7982572000474,"['t', 'a', 'z', 'a']",0,"[1.1176701001822948, 1.2940982999280095, 1.4696843000128865, 1.6192180998623371]",taza,C:\2023\REPSWITCH21092023\REPSWITCH_excgange\REPSWITCH_excgange\data/260201_REPSWITCH1_version2_list1_2023-12-04_14h44.55.523_micRespv2l1_recorded\recording_micRespv2l1_2023-12-04_14h51.57.226.wav,429.81946390029043,430.31957130040973,None,429.81946390029043,429.81946390029043,429.81946390029043,429.81946390029043,429.81946390029043,429.81946390029043,,,,,,260201,001,2023-12-04_14h44.55.523,REPSWITCH1_version2_list1,2022.2.4,144.0517434851105,
REPSWITCH1/PICTURE_235.png,aguja,speak,darkblue,filler,2,F,4,1,1,2,Stim4_Set3,0,None,89,88,89,0,88,88,88,,,,,,,,,,,,,,,,,,,,,,,430.31957130040973,431.40999010019004,431.40999010019004,431.40999010019004,431.40999010019004,431.40999010019004,431.40999010019004,431.40999010019004,431.40999010019004,None,0,,,C:\2023\REPSWITCH21092023\REPSWITCH_excgange\REPSWITCH_excgange\data/260201_REPSWITCH1_version2_list1_2023-12-04_14h44.55.523_micRespv2l1_recorded\recording_micRespv2l1_2023-12-04_14h52.01.837.wav,434.4312816001475,434.9312790003605,None,434.4312816001475,434.4312816001475,434.4312816001475,434.4312816001475,434.4312816001475,434.4312816001475,,,,,,260201,001,2023-12-04_14h44.55.523,REPSWITCH1_version2_list1,2022.2.4,144.0517434851105,
REPSWITCH1/PICTURE_35.png,oreja,type,gold,filler,1,F,4,1,1,2,Stim5_Set3,0,None,90,89,90,0,89,89,89,,,,,,,,,,,,,,,,,,,,,,,434.9312790003605,436.0147566003725,436.0147566003725,436.0147566003725,436.0147566003725,436.0147566003725,436.0147566003725,436.0147566003725,436.0147566003725,"['o', 'r', 'e', 'j', 'a']",0,"[1.5584447998553514, 1.6932936999946833, 1.8081902000121772, 1.9367066002450883, 2.1071383003145456]",oreja,C:\2023\REPSWITCH21092023\REPSWITCH_excgange\REPSWITCH_excgange\data/260201_REPSWITCH1_version2_list1_2023-12-04_14h44.55.523_micRespv2l1_recorded\recording_micRespv2l1_2023-12-04_14h52.06.442.wav,439.0359662002884,439.536029800307,None,439.0359662002884,439.0359662002884,439.0359662002884,439.0359662002884,439.0359662002884,439.0359662002884,,,,,,260201,001,2023-12-04_14h44.55.523,REPSWITCH1_version2_list1,2022.2.4,144.0517434851105,
REPSWITCH1/PICTURE_687.png,camisa,type,gold,nontarget,1,NT,4,1,1,2,Stim5_Set4,1,repeat,91,90,91,0,90,90,90,,,,,,,,,,,,,,,,,,,,,,,439.536029800307,440.6682019000873,440.6682019000873,440.6682019000873,440.6682019000873,440.6682019000873,440.6682019000873,440.6682019000873,440.6682019000873,"['c', 'a', 'm', 'i', 's', 'a']",0,"[1.1335106999613345, 1.36893119988963, 1.4207884999923408, 1.5224649999290705, 1.6420726999640465, 1.7217505001462996]",camisa,C:\2023\REPSWITCH21092023\REPSWITCH_excgange\REPSWITCH_excgange\data/260201_REPSWITCH1_version2_list1_2023-12-04_14h44.55.523_micRespv2l1_recorded\recording_micRespv2l1_2023-12-04_14h52.11.097.wav,443.6963096000254,,None,443.6963096000254,443.6963096000254,443.6963096000254,443.6963096000254,443.6963096000254,443.6963096000254,,,,,,260201,001,2023-12-04_14h44.55.523,REPSWITCH1_version2_list1,2022.2.4,144.0517434851105,
REPSWITCH1/PICTURE_687.png,camisa,speak,darkblue,switch,2,T,4,1,1,2,Stim5_Set4,0,None,92,91,92,0,91,91,91,,,,,,,,,,,,,,,,,,,,,,,444.19639140041545,445.3354947003536,445.3354947003536,445.3354947003536,445.3354947003536,445.3354947003536,445.3354947003536,445.3354947003536,445.3354947003536,None,0,,,C:\2023\REPSWITCH21092023\REPSWITCH_excgange\REPSWITCH_excgange\data/260201_REPSWITCH1_version2_list1_2023-12-04_14h44.55.523_micRespv2l1_recorded\recording_micRespv2l1_2023-12-04_14h52.15.764.wav,448.3636017004028,,None,448.3636017004028,448.3636017004028,448.3636017004028,448.3636017004028,448.3636017004028,448.3636017004028,,,,,,260201,001,2023-12-04_14h44.55.523,REPSWITCH1_version2_list1,2022.2.4,144.0517434851105,
REPSWITCH1/PICTURE_338.png,regalo,speak,darkblue,nontarget,2,NT,4,1,1,2,Stim6_Set4,0,None,93,92,93,0,92,92,92,,,,,,,,,,,,,,,,,,,,,,,448.86374070029706,450.1138471001759,450.1138471001759,450.1138471001759,450.1138471001759,450.1138471001759,450.1138471001759,450.1138471001759,450.1138471001759,None,0,,,C:\2023\REPSWITCH21092023\REPSWITCH_excgange\REPSWITCH_excgange\data/260201_REPSWITCH1_version2_list1_2023-12-04_14h44.55.523_micRespv2l1_recorded\recording_micRespv2l1_2023-12-04_14h52.20.541.wav,453.1420514001511,,None,453.1420514001511,453.1420514001511,453.1420514001511,453.1420514001511,453.1420514001511,453.1420514001511,,,,,,260201,001,2023-12-04_14h44.55.523,REPSWITCH1_version2_list1,2022.2.4,144.0517434851105,
REPSWITCH1/PICTURE_338.png,regalo,speak,darkblue,repeat,2,T,4,1,1,2,Stim6_Set4,0,None,94,93,94,0,93,93,93,,,,,,,,,,,,,,,,,,,,,,,453.6420778003521,454.7325081001036,454.7325081001036,454.7325081001036,454.7325081001036,454.7325081001036,454.7325081001036,454.7325081001036,454.7325081001036,None,0,,,C:\2023\REPSWITCH21092023\REPSWITCH_excgange\REPSWITCH_excgange\data/260201_REPSWITCH1_version2_list1_2023-12-04_14h44.55.523_micRespv2l1_recorded\recording_micRespv2l1_2023-12-04_14h52.25.161.wav,457.76066950010136,,None,457.76066950010136,457.76066950010136,457.76066950010136,457.76066950010136,457.76066950010136,457.76066950010136,,,,,,260201,001,2023-12-04_14h44.55.523,REPSWITCH1_version2_list1,2022.2.4,144.0517434851105,
REPSWITCH1/PICTURE_663.png,columna,type,gold,filler,1,F,4,1,1,2,Extra6,0,None,95,94,95,0,94,94,94,,,,,,,,,,,,,,,,,,,,,,,458.26080880034715,459.3928230004385,459.3928230004385,459.3928230004385,459.3928230004385,459.3928230004385,459.3928230004385,459.3928230004385,459.3928230004385,"['c', 'o', 'l', 'u', 'm', 'n', 'a']",0,"[0.8822242002934217, 0.9817095003090799, 1.1759708002209663, 1.400594100356102, 1.6071085999719799, 1.7913983999751508, 1.8756758999079466]",columna,C:\2023\REPSWITCH21092023\REPSWITCH_excgange\REPSWITCH_excgange\data/260201_REPSWITCH1_version2_list1_2023-12-04_14h44.55.523_micRespv2l1_recorded\recording_micRespv2l1_2023-12-04_14h52.29.820.wav,462.4140588003211,462.9141795001924,None,462.4140588003211,462.4140588003211,462.4140588003211,462.4140588003211,462.4140588003211,462.4140588003211,,,,,,260201,001,2023-12-04_14h44.55.523,REPSWITCH1_version2_list1,2022.2.4,144.0517434851105,
REPSWITCH1/PICTURE_271.png,conejo,speak,darkblue,filler,2,F,4,1,1,2,Stim7_Set3,0,None,96,95,96,0,95,95,95,,,,,,,,,,,,,,,,,,,,,,,462.9141795001924,464.04628040036187,464.04628040036187,464.04628040036187,464.04628040036187,464.04628040036187,464.04628040036187,464.04628040036187,464.04628040036187,None,0,,,C:\2023\REPSWITCH21092023\REPSWITCH_excgange\REPSWITCH_excgange\data/260201_REPSWITCH1_version2_list1_2023-12-04_14h44.55.523_micRespv2l1_recorded\recording_micRespv2l1_2023-12-04_14h52.34.474.wav,467.07440680032596,,None,467.07440680032596,467.07440680032596,467.07440680032596,467.07440680032596,467.07440680032596,467.07440680032596,,,,,,260201,001,2023-12-04_14h44.55.523,REPSWITCH1_version2_list1,2022.2.4,144.0517434851105,
REPSWITCH1/PICTURE_48.png,bombero,speak,darkblue,nontarget,2,NT,4,1,1,2,Stim7_Set4,0,None,97,96,97,0,96,96,96,,,,,,,,,,,,,,,,,,,,,,,467.57447070023045,468.6301468000747,468.6301468000747,468.6301468000747,468.6301468000747,468.6301468000747,468.6301468000747,468.6301468000747,468.6301468000747,None,0,,,C:\2023\REPSWITCH21092023\REPSWITCH_excgange\REPSWITCH_excgange\data/260201_REPSWITCH1_version2_list1_2023-12-04_14h44.55.523_micRespv2l1_recorded\recording_micRespv2l1_2023-12-04_14h52.39.058.wav,471.6583245000802,472.15847060037777,None,471.6583245000802,471.6583245000802,471.6583245000802,471.6583245000802,471.6583245000802,471.6583245000802,,,,,,260201,001,2023-12-04_14h44.55.523,REPSWITCH1_version2_list1,2022.2.4,144.0517434851105,
REPSWITCH1/PICTURE_48.png,bombero,type,gold,switch,1,T,4,1,1,2,Stim7_Set4,0,None,98,97,98,0,97,97,97,,,,,,,,,,,,,,,,,,,,,,,472.15847060037777,473.2001919001341,473.2001919001341,473.2001919001341,473.2001919001341,473.2001919001341,473.2001919001341,473.2001919001341,473.2001919001341,"['b', 'o', 'm', 'b', 'e', 'r', 'o']",0,"[1.2763682003133, 1.5315422001294792, 1.6292531001381576, 1.9931215001270175, 2.1286706998944283, 2.187397399917245, 2.326056499965489]",bombero,C:\2023\REPSWITCH21092023\REPSWITCH_excgange\REPSWITCH_excgange\data/260201_REPSWITCH1_version2_list1_2023-12-04_14h44.55.523_micRespv2l1_recorded\recording_micRespv2l1_2023-12-04_14h52.43.628.wav,476.2214406002313,476.7215057001449,None,476.2214406002313,476.2214406002313,476.2214406002313,476.2214406002313,476.2214406002313,476.2214406002313,,,,,,260201,001,2023-12-04_14h44.55.523,REPSWITCH1_version2_list1,2022.2.4,144.0517434851105,
REPSWITCH1/PICTURE_728.png,pulpo,type,gold,nontarget,1,NT,4,1,1,2,Stim8_Set4,0,None,99,98,99,0,98,98,98,,,,,,,,,,,,,,,,,,,,,,,476.7215057001449,477.86746350023896,477.86746350023896,477.86746350023896,477.86746350023896,477.86746350023896,477.86746350023896,477.86746350023896,477.86746350023896,"['p', 'u', 'l', 'p', 'o']",0,"[0.9173324997536838, 1.1702506998553872, 1.728852499742061, 1.9819942996837199, 2.060732000041753]",pulpo,C:\2023\REPSWITCH21092023\REPSWITCH_excgange\REPSWITCH_excgange\data/260201_REPSWITCH1_version2_list1_2023-12-04_14h44.55.523_micRespv2l1_recorded\recording_micRespv2l1_2023-12-04_14h52.48.295.wav,480.8886988000013,481.3887640000321,None,480.8886988000013,480.8886988000013,480.8886988000013,480.8886988000013,480.8886988000013,480.8886988000013,,,,,,260201,001,2023-12-04_14h44.55.523,REPSWITCH1_version2_list1,2022.2.4,144.0517434851105,
REPSWITCH1/PICTURE_728.png,pulpo,type,gold,repeat,1,T,4,1,1,2,Stim8_Set4,0,None,100,99,100,0,99,99,99,,,,,,,,,,,,,,,,,,,,,,,481.3887640000321,482.47919049998745,482.47919049998745,482.47919049998745,482.47919049998745,482.47919049998745,482.47919049998745,482.47919049998745,482.47919049998745,"['p', 'u', 'l', 'o', 'p', 'o']",0,"[0.833001300226897, 1.199732200242579, 1.4728482002392411, 1.629326700232923, 1.8005425003357232, 1.881680500227958]",pulopo,C:\2023\REPSWITCH21092023\REPSWITCH_excgange\REPSWITCH_excgange\data/260201_REPSWITCH1_version2_list1_2023-12-04_14h44.55.523_micRespv2l1_recorded\recording_micRespv2l1_2023-12-04_14h52.52.907.wav,485.50737730041146,,None,485.50737730041146,485.50737730041146,485.50737730041146,485.50737730041146,485.50737730041146,485.50737730041146,,,,,,260201,001,2023-12-04_14h44.55.523,REPSWITCH1_version2_list1,2022.2.4,144.0517434851105,
REPSWITCH1/PICTURE_320.png,iglesia,speak,darkblue,filler,1,F,4,1,1,2,Stim8_Set3,0,None,101,100,101,0,100,100,100,,,,,,,,,,,,,,,,,,,,,,,486.00751919997856,487.1256991000846,487.1256991000846,487.1256991000846,487.1256991000846,487.1256991000846,487.1256991000846,487.1256991000846,487.1256991000846,None,0,,,C:\2023\REPSWITCH21092023\REPSWITCH_excgange\REPSWITCH_excgange\data/260201_REPSWITCH1_version2_list1_2023-12-04_14h44.55.523_micRespv2l1_recorded\recording_micRespv2l1_2023-12-04_14h52.57.553.wav,490.1468917001039,490.6469061002135,None,490.1468917001039,490.1468917001039,490.1468917001039,490.1468917001039,490.1468917001039,490.1468917001039,,,,,,260201,001,2023-12-04_14h44.55.523,REPSWITCH1_version2_list1,2022.2.4,144.0517434851105,
REPSWITCH1/PICTURE_464.png,goma,type,gold,filler,1,F,4,1,1,2,Stim6_Set3,0,None,102,101,102,0,101,101,101,,,,,,,,,,,,,,,,,,,,,,,490.6469061002135,491.7929970002733,491.7929970002733,491.7929970002733,491.7929970002733,491.7929970002733,491.7929970002733,491.7929970002733,491.7929970002733,"['g', 'o', 'm', 'a']",0,"[1.0936942002736032, 1.3200198002159595, 1.5044487998820841, 1.683157800231129]",goma,C:\2023\REPSWITCH21092023\REPSWITCH_excgange\REPSWITCH_excgange\data/260201_REPSWITCH1_version2_list1_2023-12-04_14h44.55.523_micRespv2l1_recorded\recording_micRespv2l1_2023-12-04_14h53.02.220.wav,494.81415220024064,495.3142216000706,space,494.81415220024064,494.81415220024064,494.81415220024064,494.81415220024064,494.81415220024064,494.81415220024064,495.3142216000706,495.3142216000706,3.651586199644953,,,260201,001,2023-12-04_14h44.55.523,REPSWITCH1_version2_list1,2022.2.4,144.0517434851105,
REPSWITCH1/PICTURE_663.png,columna,type,gold,filler,1,F,1,2,1,2,Extra6,0,None,103,102,1,0,102,102,102,,,,,,,,,,,,,,,,,,,,,,,498.97442960040644,500.14822190022096,500.14822190022096,500.14822190022096,500.14822190022096,500.14822190022096,500.14822190022096,500.14822190022096,500.14822190022096,"['c', 'o', 'l', 'u', 'm', 'n', 'a']",0,"[1.3080088999122381, 1.4096530000679195, 1.5909686000086367, 1.8262160001322627, 2.037504800129682, 2.2038227999582887, 2.297559699974954]",columna,C:\2023\REPSWITCH21092023\REPSWITCH_excgange\REPSWITCH_excgange\data/260201_REPSWITCH1_version2_list1_2023-12-04_14h44.55.523_micRespv2l1_recorded\recording_micRespv2l1_2023-12-04_14h53.10.575.wav,503.16939790034667,503.66948560019955,None,503.16939790034667,503.16939790034667,503.16939790034667,503.16939790034667,503.16939790034667,503.16939790034667,,,,,,260201,001,2023-12-04_14h44.55.523,REPSWITCH1_version2_list1,2022.2.4,144.0517434851105,
REPSWITCH1/PICTURE_128.png,muñeca,speak,darkblue,nontarget,2,NT,1,2,1,2,Stim4_Set1,1,switch,104,103,2,0,103,103,103,,,,,,,,,,,,,,,,,,,,,,,503.66948560019955,504.725259100087,504.725259100087,504.725259100087,504.725259100087,504.725259100087,504.725259100087,504.725259100087,504.725259100087,None,0,,,C:\2023\REPSWITCH21092023\REPSWITCH_excgange\REPSWITCH_excgange\data/260201_REPSWITCH1_version2_list1_2023-12-04_14h44.55.523_micRespv2l1_recorded\recording_micRespv2l1_2023-12-04_14h53.15.153.wav,507.74641730031,508.2464691000059,None,507.74641730031,507.74641730031,507.74641730031,507.74641730031,507.74641730031,507.74641730031,,,,,,260201,001,2023-12-04_14h44.55.523,REPSWITCH1_version2_list1,2022.2.4,144.0517434851105,
REPSWITCH1/PICTURE_128.png,muñeca,speak,darkblue,repeat,2,T,1,2,1,2,Stim4_Set1,0,None,105,104,3,0,104,104,104,,,,,,,,,,,,,,,,,,,,,,,508.2464691000059,509.316072600428,509.316072600428,509.316072600428,509.316072600428,509.316072600428,509.316072600428,509.316072600428,509.316072600428,None,0,,,C:\2023\REPSWITCH21092023\REPSWITCH_excgange\REPSWITCH_excgange\data/260201_REPSWITCH1_version2_list1_2023-12-04_14h44.55.523_micRespv2l1_recorded\recording_micRespv2l1_2023-12-04_14h53.19.743.wav,512.3372859000228,512.8373372000642,None,512.3372859000228,512.3372859000228,512.3372859000228,512.3372859000228,512.3372859000228,512.3372859000228,,,,,,260201,001,2023-12-04_14h44.55.523,REPSWITCH1_version2_list1,2022.2.4,144.0517434851105,
REPSWITCH1/PICTURE_8.png,pierna,type,gold,filler,1,F,1,2,1,2,Stim3_Set4,0,None,106,105,4,0,105,105,105,,,,,,,,,,,,,,,,,,,,,,,512.8373372000642,513.8722018999979,513.8722018999979,513.8722018999979,513.8722018999979,513.8722018999979,513.8722018999979,513.8722018999979,513.8722018999979,"['p', 'i', 'e', 'r', 'n', 'a']",0,"[1.0953609999269247, 1.3052834998816252, 1.453773200046271, 1.497634300030768, 1.6491199000738561, 1.7786928000859916]",pierna,C:\2023\REPSWITCH21092023\REPSWITCH_excgange\REPSWITCH_excgange\data/260201_REPSWITCH1_version2_list1_2023-12-04_14h44.55.523_micRespv2l1_recorded\recording_micRespv2l1_2023-12-04_14h53.24.299.wav,516.8934294003993,517.3935200003907,None,516.8934294003993,516.8934294003993,516.8934294003993,516.8934294003993,516.8934294003993,516.8934294003993,,,,,,260201,001,2023-12-04_14h44.55.523,REPSWITCH1_version2_list1,2022.2.4,144.0517434851105,
REPSWITCH1/PICTURE_135.png,traje,speak,darkblue,nontarget,2,NT,1,2,1,2,Stim3_Set1,1,switch,107,106,5,0,106,106,106,,,,,,,,,,,,,,,,,,,,,,,517.3935200003907,518.5394867002033,518.5394867002033,518.5394867002033,518.5394867002033,518.5394867002033,518.5394867002033,518.5394867002033,518.5394867002033,None,0,,,C:\2023\REPSWITCH21092023\REPSWITCH_excgange\REPSWITCH_excgange\data/260201_REPSWITCH1_version2_list1_2023-12-04_14h44.55.523_micRespv2l1_recorded\recording_micRespv2l1_2023-12-04_14h53.28.967.wav,521.5676891002804,,None,521.5676891002804,521.5676891002804,521.5676891002804,521.5676891002804,521.5676891002804,521.5676891002804,,,,,,260201,001,2023-12-04_14h44.55.523,REPSWITCH1_version2_list1,2022.2.4,144.0517434851105,
REPSWITCH1/PICTURE_135.png,traje,speak,darkblue,repeat,2,T,1,2,1,2,Stim3_Set1,0,None,108,107,6,0,107,107,107,,,,,,,,,,,,,,,,,,,,,,,522.0677370000631,523.0817644000053,523.0817644000053,523.0817644000053,523.0817644000053,523.0817644000053,523.0817644000053,523.0817644000053,523.0817644000053,None,0,,,C:\2023\REPSWITCH21092023\REPSWITCH_excgange\REPSWITCH_excgange\data/260201_REPSWITCH1_version2_list1_2023-12-04_14h44.55.523_micRespv2l1_recorded\recording_micRespv2l1_2023-12-04_14h53.33.509.wav,526.1030647000298,526.6030642003752,None,526.1030647000298,526.1030647000298,526.1030647000298,526.1030647000298,526.1030647000298,526.1030647000298,,,,,,260201,001,2023-12-04_14h44.55.523,REPSWITCH1_version2_list1,2022.2.4,144.0517434851105,
REPSWITCH1/PICTURE_673.png,tenedor,type,gold,filler,1,F,1,2,1,2,Extra5,0,None,109,108,7,0,108,108,108,,,,,,,,,,,,,,,,,,,,,,,526.6030642003752,527.644884200301,527.644884200301,527.644884200301,527.644884200301,527.644884200301,527.644884200301,527.644884200301,527.644884200301,"['t', 'e', 'n', 'e', 'd', 'o', 'r']",0,"[0.9565856996923685, 1.1550055998377502, 1.257584400009364, 1.321807499974966, 1.5440300996415317, 1.642758899834007, 1.769287799950689]",tenedor,C:\2023\REPSWITCH21092023\REPSWITCH_excgange\REPSWITCH_excgange\data/260201_REPSWITCH1_version2_list1_2023-12-04_14h44.55.523_micRespv2l1_recorded\recording_micRespv2l1_2023-12-04_14h53.38.072.wav,530.6661022002809,531.1661647004075,None,530.6661022002809,530.6661022002809,530.6661022002809,530.6661022002809,530.6661022002809,530.6661022002809,,,,,,260201,001,2023-12-04_14h44.55.523,REPSWITCH1_version2_list1,2022.2.4,144.0517434851105,
REPSWITCH1/PICTURE_728.png,pulpo,speak,darkblue,filler,2,F,1,2,1,2,Stim8_Set4,0,None,110,109,8,0,109,109,109,,,,,,,,,,,,,,,,,,,,,,,531.1661647004075,532.2496824003756,532.2496824003756,532.2496824003756,532.2496824003756,532.2496824003756,532.2496824003756,532.2496824003756,532.2496824003756,None,0,,,C:\2023\REPSWITCH21092023\REPSWITCH_excgange\REPSWITCH_excgange\data/260201_REPSWITCH1_version2_list1_2023-12-04_14h44.55.523_micRespv2l1_recorded\recording_micRespv2l1_2023-12-04_14h53.42.677.wav,535.2709054001607,535.7709110002033,None,535.2709054001607,535.2709054001607,535.2709054001607,535.2709054001607,535.2709054001607,535.2709054001607,,,,,,260201,001,2023-12-04_14h44.55.523,REPSWITCH1_version2_list1,2022.2.4,144.0517434851105,
REPSWITCH1/PICTURE_16.png,cazador,speak,darkblue,nontarget,2,NT,1,2,1,2,Stim6_Set1,1,repeat,111,110,9,0,110,110,110,,,,,,,,,,,,,,,,,,,,,,,535.7709110002033,536.8822755003348,536.8822755003348,536.8822755003348,536.8822755003348,536.8822755003348,536.8822755003348,536.8822755003348,536.8822755003348,None,0,,,C:\2023\REPSWITCH21092023\REPSWITCH_excgange\REPSWITCH_excgange\data/260201_REPSWITCH1_version2_list1_2023-12-04_14h44.55.523_micRespv2l1_recorded\recording_micRespv2l1_2023-12-04_14h53.47.310.wav,539.9104503002018,,None,539.9104503002018,539.9104503002018,539.9104503002018,539.9104503002018,539.9104503002018,539.9104503002018,,,,,,260201,001,2023-12-04_14h44.55.523,REPSWITCH1_version2_list1,2022.2.4,144.0517434851105,
REPSWITCH1/PICTURE_16.png,cazador,type,gold,switch,1,T,1,2,1,2,Stim6_Set1,0,None,112,111,10,0,111,111,111,,,,,,,,,,,,,,,,,,,,,,,540.4104340001941,541.5148138999939,541.5148138999939,541.5148138999939,541.5148138999939,541.5148138999939,541.5148138999939,541.5148138999939,541.5148138999939,"['c', 'a', 'z', 'a', 'd', 'o', 'r']",0,"[0.9073173999786377, 1.1801821002736688, 1.4512841003015637, 1.5808534999378026, 1.7935278001241386, 1.929297000169754, 2.016968199983239]",cazador,C:\2023\REPSWITCH21092023\REPSWITCH_excgange\REPSWITCH_excgange\data/260201_REPSWITCH1_version2_list1_2023-12-04_14h44.55.523_micRespv2l1_recorded\recording_micRespv2l1_2023-12-04_14h53.51.942.wav,544.535956799984,545.0361179001629,None,544.535956799984,544.535956799984,544.535956799984,544.535956799984,544.535956799984,544.535956799984,,,,,,260201,001,2023-12-04_14h44.55.523,REPSWITCH1_version2_list1,2022.2.4,144.0517434851105,
REPSWITCH1/PICTURE_498.png,taza,type,gold,filler,1,F,1,2,1,2,Stim4_Set4,1,repeat,113,112,11,0,112,112,112,,,,,,,,,,,,,,,,,,,,,,,545.0361179001629,546.0570198004134,546.0570198004134,546.0570198004134,546.0570198004134,546.0570198004134,546.0570198004134,546.0570198004134,546.0570198004134,"['t', 'a', 'z', 'a']",0,"[1.107919099740684, 1.268488499801606, 1.3780652997083962, 1.5118721998296678]",taza,C:\2023\REPSWITCH21092023\REPSWITCH_excgange\REPSWITCH_excgange\data/260201_REPSWITCH1_version2_list1_2023-12-04_14h44.55.523_micRespv2l1_recorded\recording_micRespv2l1_2023-12-04_14h53.56.484.wav,549.0783212003298,549.5783069999889,None,549.0783212003298,549.0783212003298,549.0783212003298,549.0783212003298,549.0783212003298,549.0783212003298,,,,,,260201,001,2023-12-04_14h44.55.523,REPSWITCH1_version2_list1,2022.2.4,144.0517434851105,
REPSWITCH1/PICTURE_381.png,fresa,type,gold,nontarget,1,NT,1,2,1,2,Stim2_Set1,1,repeat,114,113,12,0,113,113,113,,,,,,,,,,,,,,,,,,,,,,,549.5783069999889,550.6965284002945,550.6965284002945,550.6965284002945,550.6965284002945,550.6965284002945,550.6965284002945,550.6965284002945,550.6965284002945,"['f', 'r', 'e', 's', 'a']",0,"[1.0288849999196827, 1.2311638998799026, 1.3319190996699035, 1.5740393996238708, 1.6618172000162303]",fresa,C:\2023\REPSWITCH21092023\REPSWITCH_excgange\REPSWITCH_excgange\data/260201_REPSWITCH1_version2_list1_2023-12-04_14h44.55.523_micRespv2l1_recorded\recording_micRespv2l1_2023-12-04_14h54.01.124.wav,553.7246681000106,,None,553.7246681000106,553.7246681000106,553.7246681000106,553.7246681000106,553.7246681000106,553.7246681000106,,,,,,260201,001,2023-12-04_14h44.55.523,REPSWITCH1_version2_list1,2022.2.4,144.0517434851105,
REPSWITCH1/PICTURE_381.png,fresa,speak,darkblue,switch,2,T,1,2,1,2,Stim2_Set1,0,None,115,114,13,0,114,114,114,,,,,,,,,,,,,,,,,,,,,,,554.2247264999896,555.2596317003481,555.2596317003481,555.2596317003481,555.2596317003481,555.2596317003481,555.2596317003481,555.2596317003481,555.2596317003481,None,0,,,C:\2023\REPSWITCH21092023\REPSWITCH_excgange\REPSWITCH_excgange\data/260201_REPSWITCH1_version2_list1_2023-12-04_14h44.55.523_micRespv2l1_recorded\recording_micRespv2l1_2023-12-04_14h54.05.687.wav,558.2877542003989,,None,558.2877542003989,558.2877542003989,558.2877542003989,558.2877542003989,558.2877542003989,558.2877542003989,,,,,,260201,001,2023-12-04_14h44.55.523,REPSWITCH1_version2_list1,2022.2.4,144.0517434851105,
REPSWITCH1/PICTURE_178.png,puente,speak,darkblue,nontarget,2,NT,1,2,1,2,Stim1_Set1,0,None,116,115,14,0,115,115,115,,,,,,,,,,,,,,,,,,,,,,,558.7878229999915,559.8713456001133,559.8713456001133,559.8713456001133,559.8713456001133,559.8713456001133,559.8713456001133,559.8713456001133,559.8713456001133,None,0,,,C:\2023\REPSWITCH21092023\REPSWITCH_excgange\REPSWITCH_excgange\data/260201_REPSWITCH1_version2_list1_2023-12-04_14h44.55.523_micRespv2l1_recorded\recording_micRespv2l1_2023-12-04_14h54.10.299.wav,562.8925570002757,563.3926977002993,None,562.8925570002757,562.8925570002757,562.8925570002757,562.8925570002757,562.8925570002757,562.8925570002757,,,,,,260201,001,2023-12-04_14h44.55.523,REPSWITCH1_version2_list1,2022.2.4,144.0517434851105,
REPSWITCH1/PICTURE_178.png,puente,type,gold,switch,1,T,1,2,1,2,Stim1_Set1,0,None,117,116,15,0,116,116,116,,,,,,,,,,,,,,,,,,,,,,,563.3926977002993,564.5456434004009,564.5456434004009,564.5456434004009,564.5456434004009,564.5456434004009,564.5456434004009,564.5456434004009,564.5456434004009,"['p', 'u', 'e', 'n', 't', 'e']",0,"[1.2336834999732673, 1.4888281002640724, 1.5998013000935316, 1.7592692002654076, 1.8250195998698473, 1.961601400282234]",puente,C:\2023\REPSWITCH21092023\REPSWITCH_excgange\REPSWITCH_excgange\data/260201_REPSWITCH1_version2_list1_2023-12-04_14h44.55.523_micRespv2l1_recorded\recording_micRespv2l1_2023-12-04_14h54.14.973.wav,567.566762200091,568.0668974001892,None,567.566762200091,567.566762200091,567.566762200091,567.566762200091,567.566762200091,567.566762200091,,,,,,260201,001,2023-12-04_14h44.55.523,REPSWITCH1_version2_list1,2022.2.4,144.0517434851105,
REPSWITCH1/PICTURE_719.png,baño,speak,darkblue,filler,2,F,1,2,1,2,Stim2_Set4,0,None,118,117,16,0,117,117,117,,,,,,,,,,,,,,,,,,,,,,,568.0668974001892,569.129510300234,569.129510300234,569.129510300234,569.129510300234,569.129510300234,569.129510300234,569.129510300234,569.129510300234,None,0,,,C:\2023\REPSWITCH21092023\REPSWITCH_excgange\REPSWITCH_excgange\data/260201_REPSWITCH1_version2_list1_2023-12-04_14h44.55.523_micRespv2l1_recorded\recording_micRespv2l1_2023-12-04_14h54.19.557.wav,572.1576887001283,,None,572.1576887001283,572.1576887001283,572.1576887001283,572.1576887001283,572.1576887001283,572.1576887001283,,,,,,260201,001,2023-12-04_14h44.55.523,REPSWITCH1_version2_list1,2022.2.4,144.0517434851105,
REPSWITCH1/PICTURE_169.png,espalda,type,gold,nontarget,1,NT,1,2,1,2,Stim8_Set1,1,switch,119,118,17,0,118,118,118,,,,,,,,,,,,,,,,,,,,,,,572.6577175003476,573.6717634000815,573.6717634000815,573.6717634000815,573.6717634000815,573.6717634000815,573.6717634000815,573.6717634000815,573.6717634000815,"['e', 's', 'p', 'a', 'l', 'd', 'a']",0,"[1.1544637996703386, 1.3726073997095227, 1.5393422995693982, 1.6758902999572456, 1.7716532996855676, 1.888855699915439, 2.3037318997085094]",espalda,C:\2023\REPSWITCH21092023\REPSWITCH_excgange\REPSWITCH_excgange\data/260201_REPSWITCH1_version2_list1_2023-12-04_14h44.55.523_micRespv2l1_recorded\recording_micRespv2l1_2023-12-04_14h54.24.099.wav,576.6929590003565,577.1930480003357,None,576.6929590003565,576.6929590003565,576.6929590003565,576.6929590003565,576.6929590003565,576.6929590003565,,,,,,260201,001,2023-12-04_14h44.55.523,REPSWITCH1_version2_list1,2022.2.4,144.0517434851105,
REPSWITCH1/PICTURE_169.png,espalda,type,gold,repeat,1,T,1,2,1,2,Stim8_Set1,0,None,120,119,18,0,119,119,119,,,,,,,,,,,,,,,,,,,,,,,577.1930480003357,578.4154118001461,578.4154118001461,578.4154118001461,578.4154118001461,578.4154118001461,578.4154118001461,578.4154118001461,578.4154118001461,"['e', 's', 'p', 'a', 'l', 'd', 'a']",0,"[0.9380550999194384, 1.138721900060773, 1.2454345999285579, 1.3777220002375543, 1.4877407001331449, 1.627823700197041, 1.7983270999975502]",espalda,C:\2023\REPSWITCH21092023\REPSWITCH_excgange\REPSWITCH_excgange\data/260201_REPSWITCH1_version2_list1_2023-12-04_14h44.55.523_micRespv2l1_recorded\recording_micRespv2l1_2023-12-04_14h54.28.843.wav,581.4366286001168,581.9367901002988,None,581.4366286001168,581.4366286001168,581.4366286001168,581.4366286001168,581.4366286001168,581.4366286001168,,,,,,260201,001,2023-12-04_14h44.55.523,REPSWITCH1_version2_list1,2022.2.4,144.0517434851105,
REPSWITCH1/PICTURE_48.png,bombero,speak,darkblue,filler,2,F,1,2,1,2,Stim7_Set4,1,switch,121,120,19,0,120,120,120,,,,,,,,,,,,,,,,,,,,,,,581.9367901002988,583.1175083001144,583.1175083001144,583.1175083001144,583.1175083001144,583.1175083001144,583.1175083001144,583.1175083001144,583.1175083001144,None,0,,,C:\2023\REPSWITCH21092023\REPSWITCH_excgange\REPSWITCH_excgange\data/260201_REPSWITCH1_version2_list1_2023-12-04_14h44.55.523_micRespv2l1_recorded\recording_micRespv2l1_2023-12-04_14h54.33.546.wav,586.1386557002552,586.6387126003392,None,586.1386557002552,586.1386557002552,586.1386557002552,586.1386557002552,586.1386557002552,586.1386557002552,,,,,,260201,001,2023-12-04_14h44.55.523,REPSWITCH1_version2_list1,2022.2.4,144.0517434851105,
