image;correctAns;respModal;frameColor;repSwitch;sequence;target;set;block;list;exp_version;stimulus;baseline;baseline_condition;trial_no;psychopy_trial;Column1;trialsREPSWITCH.thisRepN;trialsREPSWITCH.thisTrialN;trialsREPSWITCH.thisN;trialsREPSWITCH.thisIndex;textWelcome.started;textboxInstrMain1.started;textboxInstrMain1_2.started;textboxInstrMain1_3.started;keyInstrMain.started;keyInstrMain.keys;keyInstrMain.rt;textboxInstrMain2.started;textboxInstrMain2_2.started;textboxInstrMain2_3.started;textboxInstrMain2_4.started;textboxInstrMain2_5.started;textboxInstrMain2_6.started;textboxInstrMain2_7.started;textboxInstrMain2_8.started;textboxInstrMain2_9.started;textboxInstrMain2_10.started;textboxInstrMain2_11.started;textboxInstrMain2_12.started;keyInstrMain2.started;keyInstrMain2.keys;keyInstrMain2.rt;fixationITI.started;fixationITI.stopped;polygonColour.started;polygonWhite.started;imageObject.started;polygonType.started;textInput.started;keyResp.started;micRespv1l3.started;keyResp.keys;keyResp.corr;keyResp.rt;subjResponse;micRespv1l3.clip;textBlankLoop.started;textBlankLoop.stopped;keyPause.keys;polygonColour.stopped;polygonWhite.stopped;imageObject.stopped;polygonType.stopped;textInput.stopped;keyResp.stopped;textboxPause.started;keyPause.started;keyPause.rt;textboxGoodbye.started;textboxGoodbye.stopped;participant;session;date;expName;psychopyVersion;frameRate;Column2
 ;;;;;;;;;;;;;;;;;;;;;9.0287001;11.5286779;11.5286779;11.5286779;11.5286779;space;3.2907976;;;;;;;;;;;;;;;;;;;;;;;;;;;;;;;;;;;;;;;;;;;;290103;1;2023-12-05_09h31.12.909;REPSWITCH1_version1_list3;2022.2.4;143.896279;
;;;;;;;;;;;;;;;;;;;;;;;;;;;;14.8346509;14.8346509;14.8346509;14.8346509;14.8346509;14.8346509;14.8346509;14.8346509;14.8346509;14.8346509;14.8346509;14.8346509;14.8346509;space;2.4831126;;;;;;;;;;;;;;;;;;;;;;;;;;;;;290103;1;2023-12-05_09h31.12.909;REPSWITCH1_version1_list3;2022.2.4;143.896279;
REPSWITCH1/PICTURE_663.png;columna;type;darkblue;filler;1;F;1;2;3;1;Extra6;0;None;1;0;1;0;0;0;0;;;;;;;;;;;;;;;;;;;;;;;17.4183168;18.4740715;18.4740715;18.4740715;18.4740715;18.4740715;18.4740715;18.4740715;18.4740715;['c', 'o', 'l', 'u', 'm', 'n', 'a'];0;[1.2446959004737437, 1.5160894002765417, 1.6586059001274407, 1.8649933002889156, 2.0282124001532793, 2.1637983000837266, 2.2415215000510216];columna;C:\2023\REPSWITCH21092023\REPSWITCH_excgange\REPSWITCH_excgange\data/290103_REPSWITCH1_version1_list3_2023-12-05_09h31.12.909_micRespv1l3_recorded\recording_micRespv1l3_2023-12-05_09h31.27.238.wav;21.4952706;21.9953073;None;;;;;;;;;;;;290103;1;2023-12-05_09h31.12.909;REPSWITCH1_version1_list3;2022.2.4;143.896279;
REPSWITCH1/PICTURE_128.png;muñeca;speak;gold;nontarget;2;NT;1;2;3;1;Stim4_Set1;1;switch;2;1;2;0;1;1;1;;;;;;;;;;;;;;;;;;;;;;;21.9953073;23.08577;23.08577;23.08577;23.08577;23.08577;23.08577;23.08577;23.08577;None;0;;;C:\2023\REPSWITCH21092023\REPSWITCH_excgange\REPSWITCH_excgange\data/290103_REPSWITCH1_version1_list3_2023-12-05_09h31.12.909_micRespv1l3_recorded\recording_micRespv1l3_2023-12-05_09h31.31.853.wav;26.1139131;;None;26.1139131;26.1139131;26.1139131;26.1139131;26.1139131;26.1139131;;;;;;290103;1;2023-12-05_09h31.12.909;REPSWITCH1_version1_list3;2022.2.4;143.896279;
REPSWITCH1/PICTURE_128.png;muñeca;speak;gold;repeat;2;T;1;2;3;1;Stim4_Set1;0;None;3;2;3;0;2;2;2;;;;;;;;;;;;;;;;;;;;;;;26.6140281;27.6627975;27.6627975;27.6627975;27.6627975;27.6627975;27.6627975;27.6627975;27.6627975;None;0;;;C:\2023\REPSWITCH21092023\REPSWITCH_excgange\REPSWITCH_excgange\data/290103_REPSWITCH1_version1_list3_2023-12-05_09h31.12.909_micRespv1l3_recorded\recording_micRespv1l3_2023-12-05_09h31.36.430.wav;30.6839376;31.1840285;None;30.6839376;30.6839376;30.6839376;30.6839376;30.6839376;30.6839376;;;;;;290103;1;2023-12-05_09h31.12.909;REPSWITCH1_version1_list3;2022.2.4;143.896279;
REPSWITCH1/PICTURE_8.png;pierna;type;darkblue;filler;1;F;1;2;3;1;Stim3_Set4;0;None;4;3;4;0;3;3;3;;;;;;;;;;;;;;;;;;;;;;;31.1840285;32.3300299;32.3300299;32.3300299;32.3300299;32.3300299;32.3300299;32.3300299;32.3300299;['p', 'i', 'e', 'r'];0;[2.192247500177473, 2.4354143999516964, 2.508664600085467, 2.7108762999996543];pier;C:\2023\REPSWITCH21092023\REPSWITCH_excgange\REPSWITCH_excgange\data/290103_REPSWITCH1_version1_list3_2023-12-05_09h31.12.909_micRespv1l3_recorded\recording_micRespv1l3_2023-12-05_09h31.41.097.wav;35.3512555;35.8512956;None;35.3512555;35.3512555;35.3512555;35.3512555;35.3512555;35.3512555;;;;;;290103;1;2023-12-05_09h31.12.909;REPSWITCH1_version1_list3;2022.2.4;143.896279;
REPSWITCH1/PICTURE_135.png;traje;speak;gold;nontarget;2;NT;1;2;3;1;Stim3_Set1;1;switch;5;4;5;0;4;4;4;;;;;;;;;;;;;;;;;;;;;;;35.8512956;36.9417269;36.9417269;36.9417269;36.9417269;36.9417269;36.9417269;36.9417269;36.9417269;None;0;;;C:\2023\REPSWITCH21092023\REPSWITCH_excgange\REPSWITCH_excgange\data/290103_REPSWITCH1_version1_list3_2023-12-05_09h31.12.909_micRespv1l3_recorded\recording_micRespv1l3_2023-12-05_09h31.45.710.wav;39.9699049;;None;39.9699049;39.9699049;39.9699049;39.9699049;39.9699049;39.9699049;;;;;;290103;1;2023-12-05_09h31.12.909;REPSWITCH1_version1_list3;2022.2.4;143.896279;
REPSWITCH1/PICTURE_135.png;traje;speak;gold;repeat;2;T;1;2;3;1;Stim3_Set1;0;None;6;5;6;0;5;5;5;;;;;;;;;;;;;;;;;;;;;;;40.4699789;41.5534379;41.5534379;41.5534379;41.5534379;41.5534379;41.5534379;41.5534379;41.5534379;None;0;;;C:\2023\REPSWITCH21092023\REPSWITCH_excgange\REPSWITCH_excgange\data/290103_REPSWITCH1_version1_list3_2023-12-05_09h31.12.909_micRespv1l3_recorded\recording_micRespv1l3_2023-12-05_09h31.50.320.wav;44.5746998;45.0747533;None;44.5746998;44.5746998;44.5746998;44.5746998;44.5746998;44.5746998;;;;;;290103;1;2023-12-05_09h31.12.909;REPSWITCH1_version1_list3;2022.2.4;143.896279;
REPSWITCH1/PICTURE_673.png;tenedor;type;darkblue;filler;1;F;1;2;3;1;Extra5;0;None;7;6;7;0;6;6;6;;;;;;;;;;;;;;;;;;;;;;;45.0747533;46.2137679;46.2137679;46.2137679;46.2137679;46.2137679;46.2137679;46.2137679;46.2137679;['t', 'e', 'n', 'e', 'd', 'o', 'r'];0;[0.6984521998092532, 0.8150598001666367, 0.9410949000157416, 1.0163162001408637, 1.1992458999156952, 1.3258128999732435, 1.4364563999697566];tenedor;C:\2023\REPSWITCH21092023\REPSWITCH_excgange\REPSWITCH_excgange\data/290103_REPSWITCH1_version1_list3_2023-12-05_09h31.12.909_micRespv1l3_recorded\recording_micRespv1l3_2023-12-05_09h31.54.981.wav;49.2419727;;None;49.2419727;49.2419727;49.2419727;49.2419727;49.2419727;49.2419727;;;;;;290103;1;2023-12-05_09h31.12.909;REPSWITCH1_version1_list3;2022.2.4;143.896279;
REPSWITCH1/PICTURE_728.png;pulpo;speak;gold;filler;2;F;1;2;3;1;Stim8_Set4;0;None;8;7;8;0;7;7;7;;;;;;;;;;;;;;;;;;;;;;;49.7420336;50.8324842;50.8324842;50.8324842;50.8324842;50.8324842;50.8324842;50.8324842;50.8324842;None;0;;;C:\2023\REPSWITCH21092023\REPSWITCH_excgange\REPSWITCH_excgange\data/290103_REPSWITCH1_version1_list3_2023-12-05_09h31.12.909_micRespv1l3_recorded\recording_micRespv1l3_2023-12-05_09h31.59.599.wav;53.8606386;;None;53.8606386;53.8606386;53.8606386;53.8606386;53.8606386;53.8606386;;;;;;290103;1;2023-12-05_09h31.12.909;REPSWITCH1_version1_list3;2022.2.4;143.896279;
REPSWITCH1/PICTURE_16.png;cazador;speak;gold;nontarget;2;NT;1;2;3;1;Stim6_Set1;1;repeat;9;8;9;0;8;8;8;;;;;;;;;;;;;;;;;;;;;;;54.3607318;55.4025102;55.4025102;55.4025102;55.4025102;55.4025102;55.4025102;55.4025102;55.4025102;None;0;;;C:\2023\REPSWITCH21092023\REPSWITCH_excgange\REPSWITCH_excgange\data/290103_REPSWITCH1_version1_list3_2023-12-05_09h31.12.909_micRespv1l3_recorded\recording_micRespv1l3_2023-12-05_09h32.04.170.wav;58.4306445;;None;58.4306445;58.4306445;58.4306445;58.4306445;58.4306445;58.4306445;;;;;;290103;1;2023-12-05_09h31.12.909;REPSWITCH1_version1_list3;2022.2.4;143.896279;
REPSWITCH1/PICTURE_16.png;cazador;type;darkblue;switch;1;T;1;2;3;1;Stim6_Set1;0;None;10;9;10;0;9;9;9;;;;;;;;;;;;;;;;;;;;;;;58.9307407;60.0836626;60.0836626;60.0836626;60.0836626;60.0836626;60.0836626;60.0836626;60.0836626;['c', 'a', 'z', 'a', 'd', 'o', 'r'];0;[0.8126849997788668, 0.8885613000020385, 1.1455852999351919, 1.2542535997927189, 1.3379755998030305, 1.7261165999807417, 1.8110523000359535];cazador;C:\2023\REPSWITCH21092023\REPSWITCH_excgange\REPSWITCH_excgange\data/290103_REPSWITCH1_version1_list3_2023-12-05_09h31.12.909_micRespv1l3_recorded\recording_micRespv1l3_2023-12-05_09h32.08.851.wav;63.1049008;63.6049702;None;63.1049008;63.1049008;63.1049008;63.1049008;63.1049008;63.1049008;;;;;;290103;1;2023-12-05_09h31.12.909;REPSWITCH1_version1_list3;2022.2.4;143.896279;
REPSWITCH1/PICTURE_498.png;taza;type;darkblue;filler;1;F;1;2;3;1;Stim4_Set4;1;repeat;11;10;11;0;10;10;10;;;;;;;;;;;;;;;;;;;;;;;63.6049702;64.6328638;64.6328638;64.6328638;64.6328638;64.6328638;64.6328638;64.6328638;64.6328638;['t', 'a', 'z', 'a'];0;[0.8230016999877989, 0.8867768002673984, 1.028362300246954, 1.1306328000500798];taza;C:\2023\REPSWITCH21092023\REPSWITCH_excgange\REPSWITCH_excgange\data/290103_REPSWITCH1_version1_list3_2023-12-05_09h31.12.909_micRespv1l3_recorded\recording_micRespv1l3_2023-12-05_09h32.13.399.wav;67.654185;68.1541824;None;67.654185;67.654185;67.654185;67.654185;67.654185;67.654185;;;;;;290103;1;2023-12-05_09h31.12.909;REPSWITCH1_version1_list3;2022.2.4;143.896279;
REPSWITCH1/PICTURE_381.png;fresa;type;darkblue;nontarget;1;NT;1;2;3;1;Stim2_Set1;1;repeat;12;11;12;0;11;11;11;;;;;;;;;;;;;;;;;;;;;;;68.1541824;69.3349292;69.3349292;69.3349292;69.3349292;69.3349292;69.3349292;69.3349292;69.3349292;['f', 'r', 'e', 's', 'a'];0;[0.7753898999653757, 0.9438591999933124, 1.1273066001012921, 1.19203419983387, 1.353492199908942];fresa;C:\2023\REPSWITCH21092023\REPSWITCH_excgange\REPSWITCH_excgange\data/290103_REPSWITCH1_version1_list3_2023-12-05_09h31.12.909_micRespv1l3_recorded\recording_micRespv1l3_2023-12-05_09h32.18.102.wav;72.3561984;72.8561716;None;72.3561984;72.3561984;72.3561984;72.3561984;72.3561984;72.3561984;;;;;;290103;1;2023-12-05_09h31.12.909;REPSWITCH1_version1_list3;2022.2.4;143.896279;
REPSWITCH1/PICTURE_381.png;fresa;speak;gold;switch;2;T;1;2;3;1;Stim2_Set1;0;None;13;12;13;0;12;12;12;;;;;;;;;;;;;;;;;;;;;;;72.8561716;73.9188034;73.9188034;73.9188034;73.9188034;73.9188034;73.9188034;73.9188034;73.9188034;None;0;;;C:\2023\REPSWITCH21092023\REPSWITCH_excgange\REPSWITCH_excgange\data/290103_REPSWITCH1_version1_list3_2023-12-05_09h31.12.909_micRespv1l3_recorded\recording_micRespv1l3_2023-12-05_09h32.22.686.wav;76.9469848;;None;76.9469848;76.9469848;76.9469848;76.9469848;76.9469848;76.9469848;;;;;;290103;1;2023-12-05_09h31.12.909;REPSWITCH1_version1_list3;2022.2.4;143.896279;
REPSWITCH1/PICTURE_178.png;puente;speak;gold;nontarget;2;NT;1;2;3;1;Stim1_Set1;0;None;14;13;14;0;13;13;13;;;;;;;;;;;;;;;;;;;;;;;77.4471462;78.544414;78.544414;78.544414;78.544414;78.544414;78.544414;78.544414;78.544414;None;0;;;C:\2023\REPSWITCH21092023\REPSWITCH_excgange\REPSWITCH_excgange\data/290103_REPSWITCH1_version1_list3_2023-12-05_09h31.12.909_micRespv1l3_recorded\recording_micRespv1l3_2023-12-05_09h32.27.311.wav;81.5656657;82.0657276;None;81.5656657;81.5656657;81.5656657;81.5656657;81.5656657;81.5656657;;;;;;290103;1;2023-12-05_09h31.12.909;REPSWITCH1_version1_list3;2022.2.4;143.896279;
REPSWITCH1/PICTURE_178.png;puente;type;darkblue;switch;1;T;1;2;3;1;Stim1_Set1;0;None;15;14;15;0;14;14;14;;;;;;;;;;;;;;;;;;;;;;;82.0657276;83.1769876;83.1769876;83.1769876;83.1769876;83.1769876;83.1769876;83.1769876;83.1769876;['p', 'u', 'e', 'n', 't', 'e'];0;[0.828498899936676, 1.1522915000095963, 1.4133113999851048, 1.5358624001964927, 1.7914622998796403, 1.854302499908954];puente;C:\2023\REPSWITCH21092023\REPSWITCH_excgange\REPSWITCH_excgange\data/290103_REPSWITCH1_version1_list3_2023-12-05_09h31.12.909_micRespv1l3_recorded\recording_micRespv1l3_2023-12-05_09h32.31.944.wav;86.2051597;;None;86.2051597;86.2051597;86.2051597;86.2051597;86.2051597;86.2051597;;;;;;290103;1;2023-12-05_09h31.12.909;REPSWITCH1_version1_list3;2022.2.4;143.896279;
REPSWITCH1/PICTURE_719.png;baño;speak;gold;filler;2;F;1;2;3;1;Stim2_Set4;0;None;16;15;16;0;15;15;15;;;;;;;;;;;;;;;;;;;;;;;86.7051938;87.8651854;87.8651854;87.8651854;87.8651854;87.8651854;87.8651854;87.8651854;87.8651854;None;0;;;C:\2023\REPSWITCH21092023\REPSWITCH_excgange\REPSWITCH_excgange\data/290103_REPSWITCH1_version1_list3_2023-12-05_09h31.12.909_micRespv1l3_recorded\recording_micRespv1l3_2023-12-05_09h32.36.634.wav;90.8932637;;None;90.8932637;90.8932637;90.8932637;90.8932637;90.8932637;90.8932637;;;;;;290103;1;2023-12-05_09h31.12.909;REPSWITCH1_version1_list3;2022.2.4;143.896279;
REPSWITCH1/PICTURE_169.png;espalda;type;darkblue;nontarget;1;NT;1;2;3;1;Stim8_Set1;1;switch;17;16;17;0;16;16;16;;;;;;;;;;;;;;;;;;;;;;;91.3933056;92.4976455;92.4976455;92.4976455;92.4976455;92.4976455;92.4976455;92.4976455;92.4976455;['e', 's', 'p', 'a', 'l', 'd', 'a'];0;[1.0095607000403106, 1.1989275999367237, 1.3431526999920607, 1.424872700124979, 1.5065927002578974, 1.6721038999967277, 1.868411600124091];espalda;C:\2023\REPSWITCH21092023\REPSWITCH_excgange\REPSWITCH_excgange\data/290103_REPSWITCH1_version1_list3_2023-12-05_09h31.12.909_micRespv1l3_recorded\recording_micRespv1l3_2023-12-05_09h32.41.264.wav;95.5189541;96.0189568;None;95.5189541;95.5189541;95.5189541;95.5189541;95.5189541;95.5189541;;;;;;290103;1;2023-12-05_09h31.12.909;REPSWITCH1_version1_list3;2022.2.4;143.896279;
REPSWITCH1/PICTURE_169.png;espalda;type;darkblue;repeat;1;T;1;2;3;1;Stim8_Set1;0;None;18;17;18;0;17;17;17;;;;;;;;;;;;;;;;;;;;;;;96.0189568;97.1510604;97.1510604;97.1510604;97.1510604;97.1510604;97.1510604;97.1510604;97.1510604;['e', 'e', 'backspace', 's', 'p', 'a', 'l', 'd', 'a'];0;[0.8001702004112303, 0.9476650999858975, 1.8516730000264943, 1.9941213000565767, 2.14960620040074, 2.2343081003054976, 2.374845600221306, 2.4858682001940906, 2.68422339996323];espalda;C:\2023\REPSWITCH21092023\REPSWITCH_excgange\REPSWITCH_excgange\data/290103_REPSWITCH1_version1_list3_2023-12-05_09h31.12.909_micRespv1l3_recorded\recording_micRespv1l3_2023-12-05_09h32.45.919.wav;100.1792329;;None;100.1792329;100.1792329;100.1792329;100.1792329;100.1792329;100.1792329;;;;;;290103;1;2023-12-05_09h31.12.909;REPSWITCH1_version1_list3;2022.2.4;143.896279;
REPSWITCH1/PICTURE_48.png;bombero;speak;gold;filler;2;F;1;2;3;1;Stim7_Set4;1;switch;19;18;19;0;18;18;18;;;;;;;;;;;;;;;;;;;;;;;100.6792497;101.8739126;101.8739126;101.8739126;101.8739126;101.8739126;101.8739126;101.8739126;101.8739126;None;0;;;C:\2023\REPSWITCH21092023\REPSWITCH_excgange\REPSWITCH_excgange\data/290103_REPSWITCH1_version1_list3_2023-12-05_09h31.12.909_micRespv1l3_recorded\recording_micRespv1l3_2023-12-05_09h32.50.642.wav;104.8951077;105.3951742;None;104.8951077;104.8951077;104.8951077;104.8951077;104.8951077;104.8951077;;;;;;290103;1;2023-12-05_09h31.12.909;REPSWITCH1_version1_list3;2022.2.4;143.896279;
REPSWITCH1/PICTURE_19.png;pavo;type;darkblue;nontarget;1;NT;1;2;3;1;Stim5_Set1;1;switch;20;19;20;0;19;19;19;;;;;;;;;;;;;;;;;;;;;;;105.3951742;106.4856331;106.4856331;106.4856331;106.4856331;106.4856331;106.4856331;106.4856331;106.4856331;['p', 'a', 'v', 'o'];0;[0.8875373997725546, 0.9702488998882473, 1.1238791001960635, 1.3860102999024093];pavo;C:\2023\REPSWITCH21092023\REPSWITCH_excgange\REPSWITCH_excgange\data/290103_REPSWITCH1_version1_list3_2023-12-05_09h31.12.909_micRespv1l3_recorded\recording_micRespv1l3_2023-12-05_09h32.55.254.wav;109.5138207;;None;109.5138207;109.5138207;109.5138207;109.5138207;109.5138207;109.5138207;;;;;;290103;1;2023-12-05_09h31.12.909;REPSWITCH1_version1_list3;2022.2.4;143.896279;
REPSWITCH1/PICTURE_19.png;pavo;type;darkblue;repeat;1;T;1;2;3;1;Stim5_Set1;0;None;21;20;21;0;20;20;20;;;;;;;;;;;;;;;;;;;;;;;110.013921;111.1667898;111.1667898;111.1667898;111.1667898;111.1667898;111.1667898;111.1667898;111.1667898;['p', 'a', 'v', 'o'];0;[0.6968963998369873, 0.8055297001264989, 1.024793399963528, 1.3003643001429737];pavo;C:\2023\REPSWITCH21092023\REPSWITCH_excgange\REPSWITCH_excgange\data/290103_REPSWITCH1_version1_list3_2023-12-05_09h31.12.909_micRespv1l3_recorded\recording_micRespv1l3_2023-12-05_09h32.59.935.wav;114.19495;;None;114.19495;114.19495;114.19495;114.19495;114.19495;114.19495;;;;;;290103;1;2023-12-05_09h31.12.909;REPSWITCH1_version1_list3;2022.2.4;143.896279;
REPSWITCH1/PICTURE_319.png;vaca;speak;gold;filler;2;F;1;2;3;1;Stim1_Set4;0;None;22;21;22;0;21;21;21;;;;;;;;;;;;;;;;;;;;;;;114.6950103;115.8132409;115.8132409;115.8132409;115.8132409;115.8132409;115.8132409;115.8132409;115.8132409;None;0;;;C:\2023\REPSWITCH21092023\REPSWITCH_excgange\REPSWITCH_excgange\data/290103_REPSWITCH1_version1_list3_2023-12-05_09h31.12.909_micRespv1l3_recorded\recording_micRespv1l3_2023-12-05_09h33.04.581.wav;118.8344956;119.3345888;None;118.8344956;118.8344956;118.8344956;118.8344956;118.8344956;118.8344956;;;;;;290103;1;2023-12-05_09h31.12.909;REPSWITCH1_version1_list3;2022.2.4;143.896279;
REPSWITCH1/PICTURE_338.png;regalo;type;darkblue;filler;1;F;1;2;3;1;Stim6_Set4;0;None;23;22;23;0;22;22;22;;;;;;;;;;;;;;;;;;;;;;;119.3345888;120.4805134;120.4805134;120.4805134;120.4805134;120.4805134;120.4805134;120.4805134;120.4805134;['r', 'e', 'f', 'a', 'backspace', 'backspace', 'g', 'a', 'l', 'o'];0;[0.7128678997978568, 0.7960886000655591, 0.89572269981727, 1.0871160998940468, 1.435908599756658, 1.5265803998336196, 1.8116234000772238, 1.838886999990791, 2.186706599779427, 2.3084744000807405];regalo;C:\2023\REPSWITCH21092023\REPSWITCH_excgange\REPSWITCH_excgange\data/290103_REPSWITCH1_version1_list3_2023-12-05_09h31.12.909_micRespv1l3_recorded\recording_micRespv1l3_2023-12-05_09h33.09.248.wav;123.5017154;124.0018712;None;123.5017154;123.5017154;123.5017154;123.5017154;123.5017154;123.5017154;;;;;;290103;1;2023-12-05_09h31.12.909;REPSWITCH1_version1_list3;2022.2.4;143.896279;
REPSWITCH1/PICTURE_142.png;vaso;type;darkblue;nontarget;1;NT;1;2;3;1;Stim7_Set1;0;None;24;23;24;0;23;23;23;;;;;;;;;;;;;;;;;;;;;;;124.0018712;125.0852563;125.0852563;125.0852563;125.0852563;125.0852563;125.0852563;125.0852563;125.0852563;['v', 'a', 's', 'o'];0;[0.8290813001804054, 0.9432826000265777, 1.105362500064075, 1.357525700237602];vaso;C:\2023\REPSWITCH21092023\REPSWITCH_excgange\REPSWITCH_excgange\data/290103_REPSWITCH1_version1_list3_2023-12-05_09h31.12.909_micRespv1l3_recorded\recording_micRespv1l3_2023-12-05_09h33.13.853.wav;128.113427;;None;128.113427;128.113427;128.113427;128.113427;128.113427;128.113427;;;;;;290103;1;2023-12-05_09h31.12.909;REPSWITCH1_version1_list3;2022.2.4;143.896279;
REPSWITCH1/PICTURE_142.png;vaso;speak;gold;switch;2;T;1;2;3;1;Stim7_Set1;0;None;25;24;25;0;24;24;24;;;;;;;;;;;;;;;;;;;;;;;128.6135776;129.6692743;129.6692743;129.6692743;129.6692743;129.6692743;129.6692743;129.6692743;129.6692743;None;0;;;C:\2023\REPSWITCH21092023\REPSWITCH_excgange\REPSWITCH_excgange\data/290103_REPSWITCH1_version1_list3_2023-12-05_09h31.12.909_micRespv1l3_recorded\recording_micRespv1l3_2023-12-05_09h33.18.436.wav;132.6904204;133.190472;None;132.6904204;132.6904204;132.6904204;132.6904204;132.6904204;132.6904204;;;;;;290103;1;2023-12-05_09h31.12.909;REPSWITCH1_version1_list3;2022.2.4;143.896279;
REPSWITCH1/PICTURE_687.png;camisa;type;darkblue;filler;1;F;1;2;3;1;Stim5_Set4;1;switch;26;25;26;0;25;25;25;;;;;;;;;;;;;;;;;;;;;;;133.190472;134.2045443;134.2045443;134.2045443;134.2045443;134.2045443;134.2045443;134.2045443;134.2045443;['c', 'a', 'm', 'i', 's', 'a'];0;[0.9848259999416769, 1.0967492000199854, 1.4336343999020755, 1.5104724001139402, 1.613235800061375, 1.7887440999038517];camisa;C:\2023\REPSWITCH21092023\REPSWITCH_excgange\REPSWITCH_excgange\data/290103_REPSWITCH1_version1_list3_2023-12-05_09h31.12.909_micRespv1l3_recorded\recording_micRespv1l3_2023-12-05_09h33.22.971.wav;137.2257708;137.7258316;None;137.2257708;137.2257708;137.2257708;137.2257708;137.2257708;137.2257708;;;;;;290103;1;2023-12-05_09h31.12.909;REPSWITCH1_version1_list3;2022.2.4;143.896279;
REPSWITCH1/PICTURE_30.png;granja;type;darkblue;nontarget;1;NT;2;2;3;1;Stim5_Set2;0;None;27;26;27;0;26;26;26;;;;;;;;;;;;;;;;;;;;;;;137.7258316;138.8162659;138.8162659;138.8162659;138.8162659;138.8162659;138.8162659;138.8162659;138.8162659;['g', 'r', 'a', 'n', 'j', 'a'];0;[0.823362700175494, 1.0276736002415419, 1.120362600311637, 1.3625276004895568, 1.5534304003231227, 1.6461038002744317];granja;C:\2023\REPSWITCH21092023\REPSWITCH_excgange\REPSWITCH_excgange\data/290103_REPSWITCH1_version1_list3_2023-12-05_09h31.12.909_micRespv1l3_recorded\recording_micRespv1l3_2023-12-05_09h33.27.585.wav;141.8444669;;None;141.8444669;141.8444669;141.8444669;141.8444669;141.8444669;141.8444669;;;;;;290103;1;2023-12-05_09h31.12.909;REPSWITCH1_version1_list3;2022.2.4;143.896279;
REPSWITCH1/PICTURE_30.png;granja;type;darkblue;repeat;1;T;2;2;3;1;Stim5_Set2;0;None;28;27;28;0;27;27;27;;;;;;;;;;;;;;;;;;;;;;;142.344478;143.4210049;143.4210049;143.4210049;143.4210049;143.4210049;143.4210049;143.4210049;143.4210049;['g', 'r', 'a', 'n', 'j', 'a'];0;[0.6164569999091327, 0.7922546998597682, 0.9119043000973761, 1.1211498999036849, 1.2756194001995027, 1.3673070999793708];granja;C:\2023\REPSWITCH21092023\REPSWITCH_excgange\REPSWITCH_excgange\data/290103_REPSWITCH1_version1_list3_2023-12-05_09h31.12.909_micRespv1l3_recorded\recording_micRespv1l3_2023-12-05_09h33.32.189.wav;146.4492717;;None;146.4492717;146.4492717;146.4492717;146.4492717;146.4492717;146.4492717;;;;;;290103;1;2023-12-05_09h31.12.909;REPSWITCH1_version1_list3;2022.2.4;143.896279;
REPSWITCH1/PICTURE_128.png;muñeca;speak;gold;filler;2;F;2;2;3;1;Stim4_Set1;0;None;29;28;29;0;28;28;28;;;;;;;;;;;;;;;;;;;;;;;146.949241;148.0258343;148.0258343;148.0258343;148.0258343;148.0258343;148.0258343;148.0258343;148.0258343;None;0;;;C:\2023\REPSWITCH21092023\REPSWITCH_excgange\REPSWITCH_excgange\data/290103_REPSWITCH1_version1_list3_2023-12-05_09h31.12.909_micRespv1l3_recorded\recording_micRespv1l3_2023-12-05_09h33.36.794.wav;151.0539878;;None;151.0539878;151.0539878;151.0539878;151.0539878;151.0539878;151.0539878;;;;;;290103;1;2023-12-05_09h31.12.909;REPSWITCH1_version1_list3;2022.2.4;143.896279;
REPSWITCH1/PICTURE_264.png;mano;type;darkblue;nontarget;1;NT;2;2;3;1;Stim3_Set2;1;switch;30;29;30;0;29;29;29;;;;;;;;;;;;;;;;;;;;;;;151.5540324;152.5888837;152.5888837;152.5888837;152.5888837;152.5888837;152.5888837;152.5888837;152.5888837;['m', 'a', 'n', 'o'];0;[0.8474229997955263, 0.9331173999235034, 1.0258148000575602, 1.1314249001443386];mano;C:\2023\REPSWITCH21092023\REPSWITCH_excgange\REPSWITCH_excgange\data/290103_REPSWITCH1_version1_list3_2023-12-05_09h31.12.909_micRespv1l3_recorded\recording_micRespv1l3_2023-12-05_09h33.41.357.wav;155.6170823;;None;155.6170823;155.6170823;155.6170823;155.6170823;155.6170823;155.6170823;;;;;;290103;1;2023-12-05_09h31.12.909;REPSWITCH1_version1_list3;2022.2.4;143.896279;
REPSWITCH1/PICTURE_264.png;mano;type;darkblue;repeat;1;T;2;2;3;1;Stim3_Set2;0;None;31;30;31;0;30;30;30;;;;;;;;;;;;;;;;;;;;;;;156.1172062;157.1728416;157.1728416;157.1728416;157.1728416;157.1728416;157.1728416;157.1728416;157.1728416;['m', 'a', 'n', 'o'];0;[0.5511890002526343, 0.6349365003407001, 0.7365602003410459, 0.8322713002562523];mano;C:\2023\REPSWITCH21092023\REPSWITCH_excgange\REPSWITCH_excgange\data/290103_REPSWITCH1_version1_list3_2023-12-05_09h31.12.909_micRespv1l3_recorded\recording_micRespv1l3_2023-12-05_09h33.45.941.wav;160.2010712;;None;160.2010712;160.2010712;160.2010712;160.2010712;160.2010712;160.2010712;;;;;;290103;1;2023-12-05_09h31.12.909;REPSWITCH1_version1_list3;2022.2.4;143.896279;
REPSWITCH1/PICTURE_175.png;pintor;type;darkblue;nontarget;1;NT;2;2;3;1;Stim1_Set2;0;None;32;31;32;0;31;31;31;;;;;;;;;;;;;;;;;;;;;;;160.7010316;161.7845426;161.7845426;161.7845426;161.7845426;161.7845426;161.7845426;161.7845426;161.7845426;['p', 'i', 'n', 't', 'o', 'r'];0;[0.8564588003791869, 1.1285443003289402, 1.287327100057155, 1.4607381001114845, 1.5292829000391066, 1.6435495000332594];pintor;C:\2023\REPSWITCH21092023\REPSWITCH_excgange\REPSWITCH_excgange\data/290103_REPSWITCH1_version1_list3_2023-12-05_09h31.12.909_micRespv1l3_recorded\recording_micRespv1l3_2023-12-05_09h33.50.552.wav;164.8058221;165.3058447;None;164.8058221;164.8058221;164.8058221;164.8058221;164.8058221;164.8058221;;;;;;290103;1;2023-12-05_09h31.12.909;REPSWITCH1_version1_list3;2022.2.4;143.896279;
REPSWITCH1/PICTURE_175.png;pintor;speak;gold;switch;2;T;2;2;3;1;Stim1_Set2;0;None;33;32;33;0;32;32;32;;;;;;;;;;;;;;;;;;;;;;;165.3058447;166.3407052;166.3407052;166.3407052;166.3407052;166.3407052;166.3407052;166.3407052;166.3407052;None;0;;;C:\2023\REPSWITCH21092023\REPSWITCH_excgange\REPSWITCH_excgange\data/290103_REPSWITCH1_version1_list3_2023-12-05_09h31.12.909_micRespv1l3_recorded\recording_micRespv1l3_2023-12-05_09h33.55.107.wav;169.3618999;169.8619988;None;169.3618999;169.3618999;169.3618999;169.3618999;169.3618999;169.3618999;;;;;;290103;1;2023-12-05_09h31.12.909;REPSWITCH1_version1_list3;2022.2.4;143.896279;
REPSWITCH1/PICTURE_135.png;traje;speak;gold;filler;2;F;2;2;3;1;Stim3_Set1;1;repeat;34;33;34;0;33;33;33;;;;;;;;;;;;;;;;;;;;;;;169.8619988;170.9454733;170.9454733;170.9454733;170.9454733;170.9454733;170.9454733;170.9454733;170.9454733;None;0;;;C:\2023\REPSWITCH21092023\REPSWITCH_excgange\REPSWITCH_excgange\data/290103_REPSWITCH1_version1_list3_2023-12-05_09h31.12.909_micRespv1l3_recorded\recording_micRespv1l3_2023-12-05_09h33.59.712.wav;173.9667093;174.4667711;None;173.9667093;173.9667093;173.9667093;173.9667093;173.9667093;173.9667093;;;;;;290103;1;2023-12-05_09h31.12.909;REPSWITCH1_version1_list3;2022.2.4;143.896279;
REPSWITCH1/PICTURE_446.png;cerdo;speak;gold;nontarget;2;NT;2;2;3;1;Stim7_Set2;1;repeat;35;34;35;0;34;34;34;;;;;;;;;;;;;;;;;;;;;;;174.4667711;175.661425;175.661425;175.661425;175.661425;175.661425;175.661425;175.661425;175.661425;None;0;;;C:\2023\REPSWITCH21092023\REPSWITCH_excgange\REPSWITCH_excgange\data/290103_REPSWITCH1_version1_list3_2023-12-05_09h31.12.909_micRespv1l3_recorded\recording_micRespv1l3_2023-12-05_09h34.04.427.wav;178.6825954;179.1826726;None;178.6825954;178.6825954;178.6825954;178.6825954;178.6825954;178.6825954;;;;;;290103;1;2023-12-05_09h31.12.909;REPSWITCH1_version1_list3;2022.2.4;143.896279;
REPSWITCH1/PICTURE_446.png;cerdo;type;darkblue;switch;1;T;2;2;3;1;Stim7_Set2;0;None;36;35;36;0;35;35;35;;;;;;;;;;;;;;;;;;;;;;;179.1826726;180.2522575;180.2522575;180.2522575;180.2522575;180.2522575;180.2522575;180.2522575;180.2522575;['c', 'e', 'r', 'd', 'o'];0;[0.6498274002224207, 0.8156185001134872, 1.3450877000577748, 1.611146700102836, 1.7188703999854624];cerdo;C:\2023\REPSWITCH21092023\REPSWITCH_excgange\REPSWITCH_excgange\data/290103_REPSWITCH1_version1_list3_2023-12-05_09h31.12.909_micRespv1l3_recorded\recording_micRespv1l3_2023-12-05_09h34.09.020.wav;183.2735248;183.7736013;None;183.2735248;183.2735248;183.2735248;183.2735248;183.2735248;183.2735248;;;;;;290103;1;2023-12-05_09h31.12.909;REPSWITCH1_version1_list3;2022.2.4;143.896279;
REPSWITCH1/PICTURE_152.png;caracol;type;darkblue;nontarget;1;NT;2;2;3;1;Stim2_Set2;1;repeat;37;36;37;0;36;36;36;;;;;;;;;;;;;;;;;;;;;;;183.7736013;184.8223553;184.8223553;184.8223553;184.8223553;184.8223553;184.8223553;184.8223553;184.8223553;['c', 'a', 'r', 'a', 'c', 'o', 'l'];0;[0.7298312000930309, 0.8304869001731277, 0.9122283002361655, 1.0238483999855816, 1.0397912999615073, 1.4121998003683984, 1.5248229000717402];caracol;C:\2023\REPSWITCH21092023\REPSWITCH_excgange\REPSWITCH_excgange\data/290103_REPSWITCH1_version1_list3_2023-12-05_09h31.12.909_micRespv1l3_recorded\recording_micRespv1l3_2023-12-05_09h34.13.590.wav;187.8504602;;None;187.8504602;187.8504602;187.8504602;187.8504602;187.8504602;187.8504602;;;;;;290103;1;2023-12-05_09h31.12.909;REPSWITCH1_version1_list3;2022.2.4;143.896279;
REPSWITCH1/PICTURE_152.png;caracol;speak;gold;switch;2;T;2;2;3;1;Stim2_Set2;0;None;38;37;38;0;37;37;37;;;;;;;;;;;;;;;;;;;;;;;188.35054;189.4965502;189.4965502;189.4965502;189.4965502;189.4965502;189.4965502;189.4965502;189.4965502;None;0;;;C:\2023\REPSWITCH21092023\REPSWITCH_excgange\REPSWITCH_excgange\data/290103_REPSWITCH1_version1_list3_2023-12-05_09h31.12.909_micRespv1l3_recorded\recording_micRespv1l3_2023-12-05_09h34.18.265.wav;192.5177611;193.0178911;None;192.5177611;192.5177611;192.5177611;192.5177611;192.5177611;192.5177611;;;;;;290103;1;2023-12-05_09h31.12.909;REPSWITCH1_version1_list3;2022.2.4;143.896279;
REPSWITCH1/PICTURE_16.png;cazador;type;darkblue;filler;1;F;2;2;3;1;Stim6_Set1;0;None;39;38;39;0;38;38;38;;;;;;;;;;;;;;;;;;;;;;;193.0178911;194.1569219;194.1569219;194.1569219;194.1569219;194.1569219;194.1569219;194.1569219;194.1569219;['c', 'a', 'z', 'a', 'd', 'o', 'r'];0;[0.7462855004705489, 0.8478169003501534, 1.2593153002671897, 1.368940000422299, 1.567648600321263, 1.6990463002584875, 1.788745800498873];cazador;C:\2023\REPSWITCH21092023\REPSWITCH_excgange\REPSWITCH_excgange\data/290103_REPSWITCH1_version1_list3_2023-12-05_09h31.12.909_micRespv1l3_recorded\recording_micRespv1l3_2023-12-05_09h34.22.925.wav;197.1780752;197.6781637;None;197.1780752;197.1780752;197.1780752;197.1780752;197.1780752;197.1780752;;;;;;290103;1;2023-12-05_09h31.12.909;REPSWITCH1_version1_list3;2022.2.4;143.896279;
REPSWITCH1/PICTURE_381.png;fresa;speak;gold;filler;2;F;2;2;3;1;Stim2_Set1;0;None;40;39;40;0;39;39;39;;;;;;;;;;;;;;;;;;;;;;;197.6781637;198.858849;198.858849;198.858849;198.858849;198.858849;198.858849;198.858849;198.858849;None;0;;;C:\2023\REPSWITCH21092023\REPSWITCH_excgange\REPSWITCH_excgange\data/290103_REPSWITCH1_version1_list3_2023-12-05_09h31.12.909_micRespv1l3_recorded\recording_micRespv1l3_2023-12-05_09h34.27.626.wav;201.8870431;;None;201.8870431;201.8870431;201.8870431;201.8870431;201.8870431;201.8870431;;;;;;290103;1;2023-12-05_09h31.12.909;REPSWITCH1_version1_list3;2022.2.4;143.896279;
REPSWITCH1/PICTURE_19.png;pavo;type;darkblue;filler;1;F;2;2;3;1;Stim5_Set1;0;None;41;40;41;0;40;40;40;;;;;;;;;;;;;;;;;;;;;;;202.3871123;203.4288978;203.4288978;203.4288978;203.4288978;203.4288978;203.4288978;203.4288978;203.4288978;['p', 'a', 'v', 'o'];0;[0.781197200063616, 0.8620039001107216, 1.1025035004131496, 1.3247852004133165];pavo;C:\2023\REPSWITCH21092023\REPSWITCH_excgange\REPSWITCH_excgange\data/290103_REPSWITCH1_version1_list3_2023-12-05_09h31.12.909_micRespv1l3_recorded\recording_micRespv1l3_2023-12-05_09h34.32.196.wav;206.4571011;;None;206.4571011;206.4571011;206.4571011;206.4571011;206.4571011;206.4571011;;;;;;290103;1;2023-12-05_09h31.12.909;REPSWITCH1_version1_list3;2022.2.4;143.896279;
REPSWITCH1/PICTURE_517.png;cuerda;speak;gold;nontarget;2;NT;2;2;3;1;Stim4_Set2;1;switch;42;41;42;0;41;41;41;;;;;;;;;;;;;;;;;;;;;;;206.9572199;208.0129321;208.0129321;208.0129321;208.0129321;208.0129321;208.0129321;208.0129321;208.0129321;None;0;;;C:\2023\REPSWITCH21092023\REPSWITCH_excgange\REPSWITCH_excgange\data/290103_REPSWITCH1_version1_list3_2023-12-05_09h31.12.909_micRespv1l3_recorded\recording_micRespv1l3_2023-12-05_09h34.36.781.wav;211.041008;;None;211.041008;211.041008;211.041008;211.041008;211.041008;211.041008;;;;;;290103;1;2023-12-05_09h31.12.909;REPSWITCH1_version1_list3;2022.2.4;143.896279;
REPSWITCH1/PICTURE_517.png;cuerda;speak;gold;repeat;2;T;2;2;3;1;Stim4_Set2;0;None;43;42;43;0;42;42;42;;;;;;;;;;;;;;;;;;;;;;;211.5410954;212.5829689;212.5829689;212.5829689;212.5829689;212.5829689;212.5829689;212.5829689;212.5829689;None;0;;;C:\2023\REPSWITCH21092023\REPSWITCH_excgange\REPSWITCH_excgange\data/290103_REPSWITCH1_version1_list3_2023-12-05_09h31.12.909_micRespv1l3_recorded\recording_micRespv1l3_2023-12-05_09h34.41.350.wav;215.6041918;216.1042657;None;215.6041918;215.6041918;215.6041918;215.6041918;215.6041918;215.6041918;;;;;;290103;1;2023-12-05_09h31.12.909;REPSWITCH1_version1_list3;2022.2.4;143.896279;
REPSWITCH1/PICTURE_178.png;puente;type;darkblue;filler;1;F;2;2;3;1;Stim1_Set1;0;None;44;43;44;0;43;43;43;;;;;;;;;;;;;;;;;;;;;;;216.1042657;217.1530026;217.1530026;217.1530026;217.1530026;217.1530026;217.1530026;217.1530026;217.1530026;['p', 'u', 'e', 'w', 'n', 'e', 'backspace', 'backspace'];0;[1.1970355003140867, 1.5017550000920892, 1.6841267002746463, 1.6851588003337383, 1.7081128000281751, 2.0313014001585543, 2.817479600198567, 2.9540221001952887];puw;C:\2023\REPSWITCH21092023\REPSWITCH_excgange\REPSWITCH_excgange\data/290103_REPSWITCH1_version1_list3_2023-12-05_09h31.12.909_micRespv1l3_recorded\recording_micRespv1l3_2023-12-05_09h34.45.920.wav;220.1741801;220.6742891;None;220.1741801;220.1741801;220.1741801;220.1741801;220.1741801;220.1741801;;;;;;290103;1;2023-12-05_09h31.12.909;REPSWITCH1_version1_list3;2022.2.4;143.896279;
REPSWITCH1/PICTURE_199.png;falda;speak;gold;nontarget;2;NT;2;2;3;1;Stim8_Set2;1;switch;45;44;45;0;44;44;44;;;;;;;;;;;;;;;;;;;;;;;220.6742891;221.8411264;221.8411264;221.8411264;221.8411264;221.8411264;221.8411264;221.8411264;221.8411264;None;0;;;C:\2023\REPSWITCH21092023\REPSWITCH_excgange\REPSWITCH_excgange\data/290103_REPSWITCH1_version1_list3_2023-12-05_09h31.12.909_micRespv1l3_recorded\recording_micRespv1l3_2023-12-05_09h34.50.609.wav;224.8692144;;None;224.8692144;224.8692144;224.8692144;224.8692144;224.8692144;224.8692144;;;;;;290103;1;2023-12-05_09h31.12.909;REPSWITCH1_version1_list3;2022.2.4;143.896279;
REPSWITCH1/PICTURE_199.png;falda;speak;gold;repeat;2;T;2;2;3;1;Stim8_Set2;0;None;46;45;46;0;45;45;45;;;;;;;;;;;;;;;;;;;;;;;225.3692765;226.5639178;226.5639178;226.5639178;226.5639178;226.5639178;226.5639178;226.5639178;226.5639178;None;0;;;C:\2023\REPSWITCH21092023\REPSWITCH_excgange\REPSWITCH_excgange\data/290103_REPSWITCH1_version1_list3_2023-12-05_09h31.12.909_micRespv1l3_recorded\recording_micRespv1l3_2023-12-05_09h34.55.331.wav;229.5851771;230.0851692;None;229.5851771;229.5851771;229.5851771;229.5851771;229.5851771;229.5851771;;;;;;290103;1;2023-12-05_09h31.12.909;REPSWITCH1_version1_list3;2022.2.4;143.896279;
REPSWITCH1/PICTURE_169.png;espalda;type;darkblue;filler;1;F;2;2;3;1;Stim8_Set1;0;None;47;46;47;0;46;46;46;;;;;;;;;;;;;;;;;;;;;;;230.0851692;231.1825511;231.1825511;231.1825511;231.1825511;231.1825511;231.1825511;231.1825511;231.1825511;['e', 's', 'p', 'a', 'l', 'd', 'a'];0;[0.7963557001203299, 1.0095999003387988, 1.1479373001493514, 1.230750999879092, 1.3283200999721885, 1.4578471002168953, 1.6711706002242863];espalda;C:\2023\REPSWITCH21092023\REPSWITCH_excgange\REPSWITCH_excgange\data/290103_REPSWITCH1_version1_list3_2023-12-05_09h31.12.909_micRespv1l3_recorded\recording_micRespv1l3_2023-12-05_09h34.59.949.wav;234.2038077;234.7038683;None;234.2038077;234.2038077;234.2038077;234.2038077;234.2038077;234.2038077;;;;;;290103;1;2023-12-05_09h31.12.909;REPSWITCH1_version1_list3;2022.2.4;143.896279;
REPSWITCH1/PICTURE_142.png;vaso;speak;gold;filler;2;F;2;2;3;1;Stim7_Set1;0;None;48;47;48;0;47;47;47;;;;;;;;;;;;;;;;;;;;;;;234.7038683;235.8082007;235.8082007;235.8082007;235.8082007;235.8082007;235.8082007;235.8082007;235.8082007;None;0;;;C:\2023\REPSWITCH21092023\REPSWITCH_excgange\REPSWITCH_excgange\data/290103_REPSWITCH1_version1_list3_2023-12-05_09h31.12.909_micRespv1l3_recorded\recording_micRespv1l3_2023-12-05_09h35.04.575.wav;238.8293821;239.3294752;None;238.8293821;238.8293821;238.8293821;238.8293821;238.8293821;238.8293821;;;;;;290103;1;2023-12-05_09h31.12.909;REPSWITCH1_version1_list3;2022.2.4;143.896279;
REPSWITCH1/PICTURE_552.png;manzana;speak;gold;nontarget;2;NT;2;2;3;1;Stim6_Set2;0;None;49;48;49;0;48;48;48;;;;;;;;;;;;;;;;;;;;;;;239.3294752;240.5102003;240.5102003;240.5102003;240.5102003;240.5102003;240.5102003;240.5102003;240.5102003;None;0;;;C:\2023\REPSWITCH21092023\REPSWITCH_excgange\REPSWITCH_excgange\data/290103_REPSWITCH1_version1_list3_2023-12-05_09h31.12.909_micRespv1l3_recorded\recording_micRespv1l3_2023-12-05_09h35.09.277.wav;243.5313967;244.0315496;None;243.5313967;243.5313967;243.5313967;243.5313967;243.5313967;243.5313967;;;;;;290103;1;2023-12-05_09h31.12.909;REPSWITCH1_version1_list3;2022.2.4;143.896279;
REPSWITCH1/PICTURE_552.png;manzana;type;darkblue;switch;1;T;2;2;3;1;Stim6_Set2;0;None;50;49;50;0;49;49;49;;;;;;;;;;;;;;;;;;;;;;;244.0315496;245.1566594;245.1566594;245.1566594;245.1566594;245.1566594;245.1566594;245.1566594;245.1566594;['m', 'a', 'n', 'z', 'a', 'n', 'a'];0;[0.886111999861896, 1.0336366998963058, 1.0874573001638055, 1.387887999881059, 1.5054889000020921, 1.6500590001232922, 1.7277357000857592];manzana;C:\2023\REPSWITCH21092023\REPSWITCH_excgange\REPSWITCH_excgange\data/290103_REPSWITCH1_version1_list3_2023-12-05_09h31.12.909_micRespv1l3_recorded\recording_micRespv1l3_2023-12-05_09h35.13.923.wav;248.1778624;248.6779985;None;248.1778624;248.1778624;248.1778624;248.1778624;248.1778624;248.1778624;;;;;;290103;1;2023-12-05_09h31.12.909;REPSWITCH1_version1_list3;2022.2.4;143.896279;
REPSWITCH1/PICTURE_590.png;escoba;speak;gold;filler;2;F;1;2;3;1;Extra3;0;None;51;50;51;0;50;50;50;;;;;;;;;;;;;;;;;;;;;;;248.6779985;249.7892048;249.7892048;249.7892048;249.7892048;249.7892048;249.7892048;249.7892048;249.7892048;None;0;;;C:\2023\REPSWITCH21092023\REPSWITCH_excgange\REPSWITCH_excgange\data/290103_REPSWITCH1_version1_list3_2023-12-05_09h31.12.909_micRespv1l3_recorded\recording_micRespv1l3_2023-12-05_09h35.18.557.wav;252.817354;;space;252.817354;252.817354;252.817354;252.817354;252.817354;252.817354;253.3173976;253.3173976;1.9506402;;;290103;1;2023-12-05_09h31.12.909;REPSWITCH1_version1_list3;2022.2.4;143.896279;
REPSWITCH1/PICTURE_552.png;manzana;type;darkblue;filler;1;F;3;2;3;1;Stim6_Set2;0;None;52;51;52;0;51;51;51;;;;;;;;;;;;;;;;;;;;;;;255.2760159;256.4636951;256.4636951;256.4636951;256.4636951;256.4636951;256.4636951;256.4636951;256.4636951;['m', 'a', 'n', 'z', 'a', 'n', 'a'];0;[0.7993232002481818, 0.8800363000482321, 0.9610631000250578, 1.0949094998650253, 1.2496552001684904, 1.3333708001300693, 1.4091850998811424];manzana;C:\2023\REPSWITCH21092023\REPSWITCH_excgange\REPSWITCH_excgange\data/290103_REPSWITCH1_version1_list3_2023-12-05_09h31.12.909_micRespv1l3_recorded\recording_micRespv1l3_2023-12-05_09h35.25.230.wav;259.4849057;259.9849751;None;259.4849057;259.4849057;259.4849057;259.4849057;259.4849057;259.4849057;;;;;;290103;1;2023-12-05_09h31.12.909;REPSWITCH1_version1_list3;2022.2.4;143.896279;
REPSWITCH1/PICTURE_464.png;goma;type;darkblue;nontarget;1;NT;3;2;3;1;Stim6_Set3;1;repeat;53;52;53;0;52;52;52;;;;;;;;;;;;;;;;;;;;;;;259.9849751;261.1726533;261.1726533;261.1726533;261.1726533;261.1726533;261.1726533;261.1726533;261.1726533;['g', 'o', 'm', 'a'];0;[0.7733316998928785, 1.1553206001408398, 1.2747112000361085, 1.4045092002488673];goma;C:\2023\REPSWITCH21092023\REPSWITCH_excgange\REPSWITCH_excgange\data/290103_REPSWITCH1_version1_list3_2023-12-05_09h31.12.909_micRespv1l3_recorded\recording_micRespv1l3_2023-12-05_09h35.29.940.wav;264.1938899;264.6939325;None;264.1938899;264.1938899;264.1938899;264.1938899;264.1938899;264.1938899;;;;;;290103;1;2023-12-05_09h31.12.909;REPSWITCH1_version1_list3;2022.2.4;143.896279;
REPSWITCH1/PICTURE_464.png;goma;speak;gold;switch;2;T;3;2;3;1;Stim6_Set3;0;None;54;53;54;0;53;53;53;;;;;;;;;;;;;;;;;;;;;;;264.6939325;265.7913454;265.7913454;265.7913454;265.7913454;265.7913454;265.7913454;265.7913454;265.7913454;None;0;;;C:\2023\REPSWITCH21092023\REPSWITCH_excgange\REPSWITCH_excgange\data/290103_REPSWITCH1_version1_list3_2023-12-05_09h31.12.909_micRespv1l3_recorded\recording_micRespv1l3_2023-12-05_09h35.34.559.wav;268.8125257;269.3125857;None;268.8125257;268.8125257;268.8125257;268.8125257;268.8125257;268.8125257;;;;;;290103;1;2023-12-05_09h31.12.909;REPSWITCH1_version1_list3;2022.2.4;143.896279;
REPSWITCH1/PICTURE_30.png;granja;speak;gold;filler;2;F;3;2;3;1;Stim5_Set2;0;None;55;54;55;0;54;54;54;;;;;;;;;;;;;;;;;;;;;;;269.3125857;270.5905742;270.5905742;270.5905742;270.5905742;270.5905742;270.5905742;270.5905742;270.5905742;None;0;;;C:\2023\REPSWITCH21092023\REPSWITCH_excgange\REPSWITCH_excgange\data/290103_REPSWITCH1_version1_list3_2023-12-05_09h31.12.909_micRespv1l3_recorded\recording_micRespv1l3_2023-12-05_09h35.39.357.wav;273.611772;274.1118271;None;273.611772;273.611772;273.611772;273.611772;273.611772;273.611772;;;;;;290103;1;2023-12-05_09h31.12.909;REPSWITCH1_version1_list3;2022.2.4;143.896279;
REPSWITCH1/PICTURE_235.png;aguja;speak;gold;nontarget;2;NT;3;2;3;1;Stim4_Set3;1;repeat;56;55;56;0;55;55;55;;;;;;;;;;;;;;;;;;;;;;;274.1118271;275.2439025;275.2439025;275.2439025;275.2439025;275.2439025;275.2439025;275.2439025;275.2439025;None;0;;;C:\2023\REPSWITCH21092023\REPSWITCH_excgange\REPSWITCH_excgange\data/290103_REPSWITCH1_version1_list3_2023-12-05_09h31.12.909_micRespv1l3_recorded\recording_micRespv1l3_2023-12-05_09h35.44.011.wav;278.2651564;278.7651901;None;278.2651564;278.2651564;278.2651564;278.2651564;278.2651564;278.2651564;;;;;;290103;1;2023-12-05_09h31.12.909;REPSWITCH1_version1_list3;2022.2.4;143.896279;
REPSWITCH1/PICTURE_235.png;aguja;type;darkblue;switch;1;T;3;2;3;1;Stim4_Set3;0;None;57;56;57;0;56;56;56;;;;;;;;;;;;;;;;;;;;;;;278.7651901;279.8278491;279.8278491;279.8278491;279.8278491;279.8278491;279.8278491;279.8278491;279.8278491;['a', 'g', 'u', 'j', 'a'];0;[0.8743805000558496, 1.1125662000849843, 1.1900062002241611, 1.3976723002269864, 1.482373600360006];aguja;C:\2023\REPSWITCH21092023\REPSWITCH_excgange\REPSWITCH_excgange\data/290103_REPSWITCH1_version1_list3_2023-12-05_09h31.12.909_micRespv1l3_recorded\recording_micRespv1l3_2023-12-05_09h35.48.596.wav;282.8490675;283.3491424;None;282.8490675;282.8490675;282.8490675;282.8490675;282.8490675;282.8490675;;;;;;290103;1;2023-12-05_09h31.12.909;REPSWITCH1_version1_list3;2022.2.4;143.896279;
REPSWITCH1/PICTURE_391.png;cadena;type;darkblue;filler;1;F;3;2;3;1;Extra2;0;None;58;57;58;0;57;57;57;;;;;;;;;;;;;;;;;;;;;;;283.3491424;284.5368128;284.5368128;284.5368128;284.5368128;284.5368128;284.5368128;284.5368128;284.5368128;['c', 'a', 'd', 'e', 'n', 'a'];0;[1.0097809000872076, 1.21209179982543, 1.5321412002667785, 1.6336086001247168, 1.7601299001835287, 1.888693300075829];cadena;C:\2023\REPSWITCH21092023\REPSWITCH_excgange\REPSWITCH_excgange\data/290103_REPSWITCH1_version1_list3_2023-12-05_09h31.12.909_micRespv1l3_recorded\recording_micRespv1l3_2023-12-05_09h35.53.304.wav;287.5580201;288.0581112;None;287.5580201;287.5580201;287.5580201;287.5580201;287.5580201;287.5580201;;;;;;290103;1;2023-12-05_09h31.12.909;REPSWITCH1_version1_list3;2022.2.4;143.896279;
REPSWITCH1/PICTURE_320.png;iglesia;type;darkblue;nontarget;1;NT;3;2;3;1;Stim8_Set3;0;None;59;58;59;0;58;58;58;;;;;;;;;;;;;;;;;;;;;;;288.0581112;289.1137884;289.1137884;289.1137884;289.1137884;289.1137884;289.1137884;289.1137884;289.1137884;['e', 'backspace', 'i', 'g', 'l', 'e', 's', 'i', 'a'];0;[1.0562234004028141, 1.5034470004029572, 1.8333421000279486, 2.0168113000690937, 2.2338491999544203, 2.3239121004007757, 2.500140900257975, 2.582864200230688, 2.6615691003389657];iglesia;C:\2023\REPSWITCH21092023\REPSWITCH_excgange\REPSWITCH_excgange\data/290103_REPSWITCH1_version1_list3_2023-12-05_09h31.12.909_micRespv1l3_recorded\recording_micRespv1l3_2023-12-05_09h35.57.882.wav;292.1419464;;None;292.1419464;292.1419464;292.1419464;292.1419464;292.1419464;292.1419464;;;;;;290103;1;2023-12-05_09h31.12.909;REPSWITCH1_version1_list3;2022.2.4;143.896279;
REPSWITCH1/PICTURE_320.png;iglesia;speak;gold;switch;2;T;3;2;3;1;Stim8_Set3;0;None;60;59;60;0;59;59;59;;;;;;;;;;;;;;;;;;;;;;;292.642069;293.7671964;293.7671964;293.7671964;293.7671964;293.7671964;293.7671964;293.7671964;293.7671964;None;0;;;C:\2023\REPSWITCH21092023\REPSWITCH_excgange\REPSWITCH_excgange\data/290103_REPSWITCH1_version1_list3_2023-12-05_09h31.12.909_micRespv1l3_recorded\recording_micRespv1l3_2023-12-05_09h36.02.534.wav;296.7884229;297.2884894;None;296.7884229;296.7884229;296.7884229;296.7884229;296.7884229;296.7884229;;;;;;290103;1;2023-12-05_09h31.12.909;REPSWITCH1_version1_list3;2022.2.4;143.896279;
REPSWITCH1/PICTURE_175.png;pintor;type;darkblue;filler;1;F;3;2;3;1;Stim1_Set2;0;None;61;60;61;0;60;60;60;;;;;;;;;;;;;;;;;;;;;;;297.2884894;298.3511111;298.3511111;298.3511111;298.3511111;298.3511111;298.3511111;298.3511111;298.3511111;['p', 'i', 'n', 't', 'o', 'r'];0;[0.9265997000038624, 1.171664500143379, 1.2925437004305422, 1.4809080003760755, 1.5616351002827287, 1.6832399000413716];pintor;C:\2023\REPSWITCH21092023\REPSWITCH_excgange\REPSWITCH_excgange\data/290103_REPSWITCH1_version1_list3_2023-12-05_09h31.12.909_micRespv1l3_recorded\recording_micRespv1l3_2023-12-05_09h36.07.118.wav;301.3793501;;None;301.3793501;301.3793501;301.3793501;301.3793501;301.3793501;301.3793501;;;;;;290103;1;2023-12-05_09h31.12.909;REPSWITCH1_version1_list3;2022.2.4;143.896279;
REPSWITCH1/PICTURE_271.png;conejo;speak;gold;nontarget;2;NT;3;2;3;1;Stim7_Set3;1;switch;62;61;62;0;61;61;61;;;;;;;;;;;;;;;;;;;;;;;301.8793462;302.8864229;302.8864229;302.8864229;302.8864229;302.8864229;302.8864229;302.8864229;302.8864229;None;0;;;C:\2023\REPSWITCH21092023\REPSWITCH_excgange\REPSWITCH_excgange\data/290103_REPSWITCH1_version1_list3_2023-12-05_09h31.12.909_micRespv1l3_recorded\recording_micRespv1l3_2023-12-05_09h36.11.655.wav;305.9147011;;None;305.9147011;305.9147011;305.9147011;305.9147011;305.9147011;305.9147011;;;;;;290103;1;2023-12-05_09h31.12.909;REPSWITCH1_version1_list3;2022.2.4;143.896279;
REPSWITCH1/PICTURE_271.png;conejo;speak;gold;repeat;2;T;3;2;3;1;Stim7_Set3;0;None;63;62;63;0;62;62;62;;;;;;;;;;;;;;;;;;;;;;;306.4146944;307.546802;307.546802;307.546802;307.546802;307.546802;307.546802;307.546802;307.546802;None;0;;;C:\2023\REPSWITCH21092023\REPSWITCH_excgange\REPSWITCH_excgange\data/290103_REPSWITCH1_version1_list3_2023-12-05_09h31.12.909_micRespv1l3_recorded\recording_micRespv1l3_2023-12-05_09h36.16.315.wav;310.5749669;;None;310.5749669;310.5749669;310.5749669;310.5749669;310.5749669;310.5749669;;;;;;290103;1;2023-12-05_09h31.12.909;REPSWITCH1_version1_list3;2022.2.4;143.896279;
REPSWITCH1/PICTURE_446.png;cerdo;speak;gold;filler;2;F;3;2;3;1;Stim7_Set2;0;None;64;63;64;0;63;63;63;;;;;;;;;;;;;;;;;;;;;;;311.075023;312.1584874;312.1584874;312.1584874;312.1584874;312.1584874;312.1584874;312.1584874;312.1584874;None;0;;;C:\2023\REPSWITCH21092023\REPSWITCH_excgange\REPSWITCH_excgange\data/290103_REPSWITCH1_version1_list3_2023-12-05_09h31.12.909_micRespv1l3_recorded\recording_micRespv1l3_2023-12-05_09h36.20.925.wav;315.1797014;315.6798346;None;315.1797014;315.1797014;315.1797014;315.1797014;315.1797014;315.1797014;;;;;;290103;1;2023-12-05_09h31.12.909;REPSWITCH1_version1_list3;2022.2.4;143.896279;
REPSWITCH1/PICTURE_152.png;caracol;type;darkblue;filler;1;F;3;2;3;1;Stim2_Set2;0;None;65;64;65;0;64;64;64;;;;;;;;;;;;;;;;;;;;;;;315.6798346;316.7563344;316.7563344;316.7563344;316.7563344;316.7563344;316.7563344;316.7563344;316.7563344;['c', 'a', 'r', 'a', 'c', 'o', 'l'];0;[0.5656222002580762, 0.8357976004481316, 0.9970346004702151, 1.1066551003605127, 1.1754253003746271, 1.6021187002770603, 1.7318544001318514];caracol;C:\2023\REPSWITCH21092023\REPSWITCH_excgange\REPSWITCH_excgange\data/290103_REPSWITCH1_version1_list3_2023-12-05_09h31.12.909_micRespv1l3_recorded\recording_micRespv1l3_2023-12-05_09h36.25.523.wav;319.7845577;;None;319.7845577;319.7845577;319.7845577;319.7845577;319.7845577;319.7845577;;;;;;290103;1;2023-12-05_09h31.12.909;REPSWITCH1_version1_list3;2022.2.4;143.896279;
REPSWITCH1/PICTURE_576.png;guante;speak;gold;nontarget;2;NT;3;2;3;1;Stim1_Set3;1;switch;66;65;66;0;65;65;65;;;;;;;;;;;;;;;;;;;;;;;320.2845742;321.3680274;321.3680274;321.3680274;321.3680274;321.3680274;321.3680274;321.3680274;321.3680274;None;0;;;C:\2023\REPSWITCH21092023\REPSWITCH_excgange\REPSWITCH_excgange\data/290103_REPSWITCH1_version1_list3_2023-12-05_09h31.12.909_micRespv1l3_recorded\recording_micRespv1l3_2023-12-05_09h36.30.135.wav;324.3962051;;None;324.3962051;324.3962051;324.3962051;324.3962051;324.3962051;324.3962051;;;;;;290103;1;2023-12-05_09h31.12.909;REPSWITCH1_version1_list3;2022.2.4;143.896279;
REPSWITCH1/PICTURE_576.png;guante;speak;gold;repeat;2;T;3;2;3;1;Stim1_Set3;0;None;67;66;67;0;66;66;66;;;;;;;;;;;;;;;;;;;;;;;324.8962647;326.0005869;326.0005869;326.0005869;326.0005869;326.0005869;326.0005869;326.0005869;326.0005869;None;0;;;C:\2023\REPSWITCH21092023\REPSWITCH_excgange\REPSWITCH_excgange\data/290103_REPSWITCH1_version1_list3_2023-12-05_09h31.12.909_micRespv1l3_recorded\recording_micRespv1l3_2023-12-05_09h36.34.768.wav;329.0218389;329.5219084;None;329.0218389;329.0218389;329.0218389;329.0218389;329.0218389;329.0218389;;;;;;290103;1;2023-12-05_09h31.12.909;REPSWITCH1_version1_list3;2022.2.4;143.896279;
REPSWITCH1/PICTURE_242.png;cartero;speak;gold;nontarget;2;NT;3;2;3;1;Stim3_Set3;0;None;68;67;68;0;67;67;67;;;;;;;;;;;;;;;;;;;;;;;329.5219084;330.6817656;330.6817656;330.6817656;330.6817656;330.6817656;330.6817656;330.6817656;330.6817656;None;0;;;C:\2023\REPSWITCH21092023\REPSWITCH_excgange\REPSWITCH_excgange\data/290103_REPSWITCH1_version1_list3_2023-12-05_09h31.12.909_micRespv1l3_recorded\recording_micRespv1l3_2023-12-05_09h36.39.449.wav;333.7099898;;None;333.7099898;333.7099898;333.7099898;333.7099898;333.7099898;333.7099898;;;;;;290103;1;2023-12-05_09h31.12.909;REPSWITCH1_version1_list3;2022.2.4;143.896279;
REPSWITCH1/PICTURE_242.png;cartero;type;darkblue;switch;1;T;3;2;3;1;Stim3_Set3;0;None;69;68;69;0;68;68;68;;;;;;;;;;;;;;;;;;;;;;;334.2100896;335.3421517;335.3421517;335.3421517;335.3421517;335.3421517;335.3421517;335.3421517;335.3421517;['c', 'a', 'r', 't', 'e', 'r', 'o'];0;[0.8945954004302621, 0.9842836004681885, 1.0790321002714336, 1.2055338001810014, 1.2952139005064964, 1.4461166001856327, 1.5766680003143847];cartero;C:\2023\REPSWITCH21092023\REPSWITCH_excgange\REPSWITCH_excgange\data/290103_REPSWITCH1_version1_list3_2023-12-05_09h31.12.909_micRespv1l3_recorded\recording_micRespv1l3_2023-12-05_09h36.44.109.wav;338.3633169;338.863371;None;338.3633169;338.3633169;338.3633169;338.3633169;338.3633169;338.3633169;;;;;;290103;1;2023-12-05_09h31.12.909;REPSWITCH1_version1_list3;2022.2.4;143.896279;
REPSWITCH1/PICTURE_517.png;cuerda;speak;gold;filler;2;F;3;2;3;1;Stim4_Set2;0;None;70;69;70;0;69;69;69;;;;;;;;;;;;;;;;;;;;;;;338.863371;339.9468831;339.9468831;339.9468831;339.9468831;339.9468831;339.9468831;339.9468831;339.9468831;None;0;;;C:\2023\REPSWITCH21092023\REPSWITCH_excgange\REPSWITCH_excgange\data/290103_REPSWITCH1_version1_list3_2023-12-05_09h31.12.909_micRespv1l3_recorded\recording_micRespv1l3_2023-12-05_09h36.48.715.wav;342.9751257;;None;342.9751257;342.9751257;342.9751257;342.9751257;342.9751257;342.9751257;;;;;;290103;1;2023-12-05_09h31.12.909;REPSWITCH1_version1_list3;2022.2.4;143.896279;
REPSWITCH1/PICTURE_646.png;tronco;type;darkblue;filler;1;F;3;2;3;1;Extra4;0;None;71;70;71;0;70;70;70;;;;;;;;;;;;;;;;;;;;;;;343.4751196;344.5516433;344.5516433;344.5516433;344.5516433;344.5516433;344.5516433;344.5516433;344.5516433;['t', 'r', 'o', 'n', 'c', 'o'];0;[0.7595271002501249, 0.9657616000622511, 1.1920896004885435, 1.3086265004239976, 1.4840398002415895, 1.6089920001104474];tronco;C:\2023\REPSWITCH21092023\REPSWITCH_excgange\REPSWITCH_excgange\data/290103_REPSWITCH1_version1_list3_2023-12-05_09h31.12.909_micRespv1l3_recorded\recording_micRespv1l3_2023-12-05_09h36.53.320.wav;347.5798168;;None;347.5798168;347.5798168;347.5798168;347.5798168;347.5798168;347.5798168;;;;;;290103;1;2023-12-05_09h31.12.909;REPSWITCH1_version1_list3;2022.2.4;143.896279;
REPSWITCH1/PICTURE_35.png;oreja;type;darkblue;nontarget;1;NT;3;2;3;1;Stim5_Set3;1;repeat;72;71;72;0;71;71;71;;;;;;;;;;;;;;;;;;;;;;;348.0798963;349.2466942;349.2466942;349.2466942;349.2466942;349.2466942;349.2466942;349.2466942;349.2466942;['o', 'r', 'e', 'j', 'a'];0;[0.9123758999630809, 1.093290800228715, 1.2899635001085699, 1.4316503000445664, 1.5362419001758099];oreja;C:\2023\REPSWITCH21092023\REPSWITCH_excgange\REPSWITCH_excgange\data/290103_REPSWITCH1_version1_list3_2023-12-05_09h31.12.909_micRespv1l3_recorded\recording_micRespv1l3_2023-12-05_09h36.58.015.wav;352.2749628;;None;352.2749628;352.2749628;352.2749628;352.2749628;352.2749628;352.2749628;;;;;;290103;1;2023-12-05_09h31.12.909;REPSWITCH1_version1_list3;2022.2.4;143.896279;
REPSWITCH1/PICTURE_35.png;oreja;type;darkblue;repeat;1;T;3;2;3;1;Stim5_Set3;0;None;73;72;73;0;72;72;72;;;;;;;;;;;;;;;;;;;;;;;352.7749606;353.879331;353.879331;353.879331;353.879331;353.879331;353.879331;353.879331;353.879331;['o', 'r', 'e', 'j', 'a'];0;[0.6230231001973152, 0.7731035002507269, 0.9371608002111316, 1.0591104999184608, 1.1737399999983609];oreja;C:\2023\REPSWITCH21092023\REPSWITCH_excgange\REPSWITCH_excgange\data/290103_REPSWITCH1_version1_list3_2023-12-05_09h31.12.909_micRespv1l3_recorded\recording_micRespv1l3_2023-12-05_09h37.02.646.wav;356.9005146;357.4005582;None;356.9005146;356.9005146;356.9005146;356.9005146;356.9005146;356.9005146;;;;;;290103;1;2023-12-05_09h31.12.909;REPSWITCH1_version1_list3;2022.2.4;143.896279;
REPSWITCH1/PICTURE_199.png;falda;speak;gold;filler;2;F;3;2;3;1;Stim8_Set2;0;None;74;73;74;0;73;73;73;;;;;;;;;;;;;;;;;;;;;;;357.4005582;358.4631987;358.4631987;358.4631987;358.4631987;358.4631987;358.4631987;358.4631987;358.4631987;None;0;;;C:\2023\REPSWITCH21092023\REPSWITCH_excgange\REPSWITCH_excgange\data/290103_REPSWITCH1_version1_list3_2023-12-05_09h31.12.909_micRespv1l3_recorded\recording_micRespv1l3_2023-12-05_09h37.07.231.wav;361.4844032;361.9845048;None;361.4844032;361.4844032;361.4844032;361.4844032;361.4844032;361.4844032;;;;;;290103;1;2023-12-05_09h31.12.909;REPSWITCH1_version1_list3;2022.2.4;143.896279;
REPSWITCH1/PICTURE_610.png;miel;type;darkblue;nontarget;1;NT;3;2;3;1;Stim2_Set3;1;switch;75;74;75;0;74;74;74;;;;;;;;;;;;;;;;;;;;;;;361.9845048;362.9985145;362.9985145;362.9985145;362.9985145;362.9985145;362.9985145;362.9985145;362.9985145;['m', 'i', 'e', 'l'];0;[0.7868194999173284, 0.9024875001050532, 1.017639999743551, 1.142245199996978];miel;C:\2023\REPSWITCH21092023\REPSWITCH_excgange\REPSWITCH_excgange\data/290103_REPSWITCH1_version1_list3_2023-12-05_09h31.12.909_micRespv1l3_recorded\recording_micRespv1l3_2023-12-05_09h37.11.766.wav;366.0197602;366.5198214;None;366.0197602;366.0197602;366.0197602;366.0197602;366.0197602;366.0197602;;;;;;290103;1;2023-12-05_09h31.12.909;REPSWITCH1_version1_list3;2022.2.4;143.896279;
REPSWITCH1/PICTURE_610.png;miel;type;darkblue;repeat;1;T;3;2;3;1;Stim2_Set3;0;None;76;75;76;0;75;75;75;;;;;;;;;;;;;;;;;;;;;;;366.5198214;367.6589255;367.6589255;367.6589255;367.6589255;367.6589255;367.6589255;367.6589255;367.6589255;['m', 'i', 'e', 'l'];0;[0.640593099873513, 0.7594200000166893, 0.8541015000082552, 0.9877017000690103];miel;C:\2023\REPSWITCH21092023\REPSWITCH_excgange\REPSWITCH_excgange\data/290103_REPSWITCH1_version1_list3_2023-12-05_09h31.12.909_micRespv1l3_recorded\recording_micRespv1l3_2023-12-05_09h37.16.427.wav;370.6870478;;None;370.6870478;370.6870478;370.6870478;370.6870478;370.6870478;370.6870478;;;;;;290103;1;2023-12-05_09h31.12.909;REPSWITCH1_version1_list3;2022.2.4;143.896279;
REPSWITCH1/PICTURE_264.png;mano;type;darkblue;filler;1;F;3;2;3;1;Stim3_Set2;1;repeat;77;76;77;0;76;76;76;;;;;;;;;;;;;;;;;;;;;;;371.1871041;372.2011957;372.2011957;372.2011957;372.2011957;372.2011957;372.2011957;372.2011957;372.2011957;['m', 'a', 'n', 'o'];0;[0.6305105001665652, 0.7534035001881421, 0.9389081001281738, 1.026588600128889];mano;C:\2023\REPSWITCH21092023\REPSWITCH_excgange\REPSWITCH_excgange\data/290103_REPSWITCH1_version1_list3_2023-12-05_09h31.12.909_micRespv1l3_recorded\recording_micRespv1l3_2023-12-05_09h37.20.970.wav;375.2292807;;None;375.2292807;375.2292807;375.2292807;375.2292807;375.2292807;375.2292807;;;;;;290103;1;2023-12-05_09h31.12.909;REPSWITCH1_version1_list3;2022.2.4;143.896279;
REPSWITCH1/PICTURE_464.png;goma;speak;gold;filler;2;F;4;2;3;1;Stim6_Set3;0;None;78;77;78;0;77;77;77;;;;;;;;;;;;;;;;;;;;;;;375.729346;376.9309975;376.9309975;376.9309975;376.9309975;376.9309975;376.9309975;376.9309975;376.9309975;None;0;;;C:\2023\REPSWITCH21092023\REPSWITCH_excgange\REPSWITCH_excgange\data/290103_REPSWITCH1_version1_list3_2023-12-05_09h31.12.909_micRespv1l3_recorded\recording_micRespv1l3_2023-12-05_09h37.25.698.wav;379.952112;380.4521902;None;379.952112;379.952112;379.952112;379.952112;379.952112;379.952112;;;;;;290103;1;2023-12-05_09h31.12.909;REPSWITCH1_version1_list3;2022.2.4;143.896279;
REPSWITCH1/PICTURE_8.png;pierna;type;darkblue;nontarget;1;NT;4;2;3;1;Stim3_Set4;1;switch;79;78;79;0;78;78;78;;;;;;;;;;;;;;;;;;;;;;;380.4521902;381.5774352;381.5774352;381.5774352;381.5774352;381.5774352;381.5774352;381.5774352;381.5774352;['p', 'i', 'e', 'r', 'n', 'a'];0;[1.3093302003107965, 1.5357107003219426, 1.672198900487274, 1.8280546003952622, 1.9307204000651836, 2.072484000120312];pierna;C:\2023\REPSWITCH21092023\REPSWITCH_excgange\REPSWITCH_excgange\data/290103_REPSWITCH1_version1_list3_2023-12-05_09h31.12.909_micRespv1l3_recorded\recording_micRespv1l3_2023-12-05_09h37.30.344.wav;384.5985974;385.0987056;None;384.5985974;384.5985974;384.5985974;384.5985974;384.5985974;384.5985974;;;;;;290103;1;2023-12-05_09h31.12.909;REPSWITCH1_version1_list3;2022.2.4;143.896279;
REPSWITCH1/PICTURE_8.png;pierna;type;darkblue;repeat;1;T;4;2;3;1;Stim3_Set4;0;None;80;79;80;0;79;79;79;;;;;;;;;;;;;;;;;;;;;;;385.0987056;386.2099491;386.2099491;386.2099491;386.2099491;386.2099491;386.2099491;386.2099491;386.2099491;['p', 'i', 'e', 'r', 'n', 'a'];0;[0.6274024997837842, 0.8568417001515627, 0.9535175999626517, 1.1269378000870347, 1.2385661001317203, 1.364188500214368];pierna;C:\2023\REPSWITCH21092023\REPSWITCH_excgange\REPSWITCH_excgange\data/290103_REPSWITCH1_version1_list3_2023-12-05_09h31.12.909_micRespv1l3_recorded\recording_micRespv1l3_2023-12-05_09h37.34.977.wav;389.2311357;389.7311883;None;389.2311357;389.2311357;389.2311357;389.2311357;389.2311357;389.2311357;;;;;;290103;1;2023-12-05_09h31.12.909;REPSWITCH1_version1_list3;2022.2.4;143.896279;
REPSWITCH1/PICTURE_728.png;pulpo;type;darkblue;nontarget;1;NT;4;2;3;1;Stim8_Set4;1;repeat;81;80;81;0;80;80;80;;;;;;;;;;;;;;;;;;;;;;;389.7311883;390.9050075;390.9050075;390.9050075;390.9050075;390.9050075;390.9050075;390.9050075;390.9050075;['p', 'u', 'l', 'p', 'o'];0;[1.2358645000495017, 1.4988692998886108, 1.745815800037235, 1.8973173000849783, 2.1652166000567377];pulpo;C:\2023\REPSWITCH21092023\REPSWITCH_excgange\REPSWITCH_excgange\data/290103_REPSWITCH1_version1_list3_2023-12-05_09h31.12.909_micRespv1l3_recorded\recording_micRespv1l3_2023-12-05_09h37.39.672.wav;393.9261858;394.4263233;None;393.9261858;393.9261858;393.9261858;393.9261858;393.9261858;393.9261858;;;;;;290103;1;2023-12-05_09h31.12.909;REPSWITCH1_version1_list3;2022.2.4;143.896279;
REPSWITCH1/PICTURE_728.png;pulpo;speak;gold;switch;2;T;4;2;3;1;Stim8_Set4;0;None;82;81;82;0;81;81;81;;;;;;;;;;;;;;;;;;;;;;;394.4263233;395.4750523;395.4750523;395.4750523;395.4750523;395.4750523;395.4750523;395.4750523;395.4750523;None;0;;;C:\2023\REPSWITCH21092023\REPSWITCH_excgange\REPSWITCH_excgange\data/290103_REPSWITCH1_version1_list3_2023-12-05_09h31.12.909_micRespv1l3_recorded\recording_micRespv1l3_2023-12-05_09h37.44.242.wav;398.4962218;398.9963659;None;398.4962218;398.4962218;398.4962218;398.4962218;398.4962218;398.4962218;;;;;;290103;1;2023-12-05_09h31.12.909;REPSWITCH1_version1_list3;2022.2.4;143.896279;
REPSWITCH1/PICTURE_235.png;aguja;type;darkblue;filler;1;F;4;2;3;1;Stim4_Set3;0;None;83;82;83;0;82;82;82;;;;;;;;;;;;;;;;;;;;;;;398.9963659;400.0867674;400.0867674;400.0867674;400.0867674;400.0867674;400.0867674;400.0867674;400.0867674;['a', 'g', 'u', 'j', 'a'];0;[0.8072564001195133, 0.9627153002656996, 1.0544135998934507, 1.2340446002781391, 1.3319574999623];aguja;C:\2023\REPSWITCH21092023\REPSWITCH_excgange\REPSWITCH_excgange\data/290103_REPSWITCH1_version1_list3_2023-12-05_09h31.12.909_micRespv1l3_recorded\recording_micRespv1l3_2023-12-05_09h37.48.854.wav;403.1079787;403.6080273;None;403.1079787;403.1079787;403.1079787;403.1079787;403.1079787;403.1079787;;;;;;290103;1;2023-12-05_09h31.12.909;REPSWITCH1_version1_list3;2022.2.4;143.896279;
REPSWITCH1/PICTURE_498.png;taza;speak;gold;nontarget;2;NT;4;2;3;1;Stim4_Set4;1;switch;84;83;84;0;83;83;83;;;;;;;;;;;;;;;;;;;;;;;403.6080273;404.733184;404.733184;404.733184;404.733184;404.733184;404.733184;404.733184;404.733184;None;0;;;C:\2023\REPSWITCH21092023\REPSWITCH_excgange\REPSWITCH_excgange\data/290103_REPSWITCH1_version1_list3_2023-12-05_09h31.12.909_micRespv1l3_recorded\recording_micRespv1l3_2023-12-05_09h37.53.500.wav;407.7613418;;None;407.7613418;407.7613418;407.7613418;407.7613418;407.7613418;407.7613418;;;;;;290103;1;2023-12-05_09h31.12.909;REPSWITCH1_version1_list3;2022.2.4;143.896279;
REPSWITCH1/PICTURE_498.png;taza;speak;gold;repeat;2;T;4;2;3;1;Stim4_Set4;0;None;85;84;85;0;84;84;84;;;;;;;;;;;;;;;;;;;;;;;408.2614973;409.4004813;409.4004813;409.4004813;409.4004813;409.4004813;409.4004813;409.4004813;409.4004813;None;0;;;C:\2023\REPSWITCH21092023\REPSWITCH_excgange\REPSWITCH_excgange\data/290103_REPSWITCH1_version1_list3_2023-12-05_09h31.12.909_micRespv1l3_recorded\recording_micRespv1l3_2023-12-05_09h37.58.168.wav;412.4286531;;None;412.4286531;412.4286531;412.4286531;412.4286531;412.4286531;412.4286531;;;;;;290103;1;2023-12-05_09h31.12.909;REPSWITCH1_version1_list3;2022.2.4;143.896279;
REPSWITCH1/PICTURE_719.png;baño;speak;gold;nontarget;2;NT;4;2;3;1;Stim2_Set4;0;None;86;85;86;0;85;85;85;;;;;;;;;;;;;;;;;;;;;;;412.928713;413.9427189;413.9427189;413.9427189;413.9427189;413.9427189;413.9427189;413.9427189;413.9427189;None;0;;;C:\2023\REPSWITCH21092023\REPSWITCH_excgange\REPSWITCH_excgange\data/290103_REPSWITCH1_version1_list3_2023-12-05_09h31.12.909_micRespv1l3_recorded\recording_micRespv1l3_2023-12-05_09h38.02.710.wav;416.9709082;;None;416.9709082;416.9709082;416.9709082;416.9709082;416.9709082;416.9709082;;;;;;290103;1;2023-12-05_09h31.12.909;REPSWITCH1_version1_list3;2022.2.4;143.896279;
REPSWITCH1/PICTURE_719.png;baño;type;darkblue;switch;1;T;4;2;3;1;Stim2_Set4;0;None;87;86;87;0;86;86;86;;;;;;;;;;;;;;;;;;;;;;;417.47105;418.6378137;418.6378137;418.6378137;418.6378137;418.6378137;418.6378137;418.6378137;418.6378137;['b', 'a', 'ñ', 'o'];0;[0.5321333999745548, 0.6472165999002755, 0.9429159997962415, 1.1187233999371529];baño;C:\2023\REPSWITCH21092023\REPSWITCH_excgange\REPSWITCH_excgange\data/290103_REPSWITCH1_version1_list3_2023-12-05_09h31.12.909_micRespv1l3_recorded\recording_micRespv1l3_2023-12-05_09h38.07.405.wav;421.6590593;422.1590865;None;421.6590593;421.6590593;421.6590593;421.6590593;421.6590593;421.6590593;;;;;;290103;1;2023-12-05_09h31.12.909;REPSWITCH1_version1_list3;2022.2.4;143.896279;
REPSWITCH1/PICTURE_320.png;iglesia;speak;gold;filler;2;F;4;2;3;1;Stim8_Set3;0;None;88;87;88;0;87;87;87;;;;;;;;;;;;;;;;;;;;;;;422.1590865;423.2426577;423.2426577;423.2426577;423.2426577;423.2426577;423.2426577;423.2426577;423.2426577;None;0;;;C:\2023\REPSWITCH21092023\REPSWITCH_excgange\REPSWITCH_excgange\data/290103_REPSWITCH1_version1_list3_2023-12-05_09h31.12.909_micRespv1l3_recorded\recording_micRespv1l3_2023-12-05_09h38.12.010.wav;426.2637681;426.7638431;None;426.2637681;426.2637681;426.2637681;426.2637681;426.2637681;426.2637681;;;;;;290103;1;2023-12-05_09h31.12.909;REPSWITCH1_version1_list3;2022.2.4;143.896279;
REPSWITCH1/PICTURE_48.png;bombero;type;darkblue;nontarget;1;NT;4;2;3;1;Stim7_Set4;1;switch;89;88;89;0;88;88;88;;;;;;;;;;;;;;;;;;;;;;;426.7638431;427.9515656;427.9515656;427.9515656;427.9515656;427.9515656;427.9515656;427.9515656;427.9515656;['b', 'o', 'm', 'b', 'e', 'r', 'o'];0;[0.7336906003765762, 1.1410383004695177, 1.296502500306815, 1.559584400150925, 1.6552364001981914, 1.7955195000395179, 1.8982069003395736];bombero;C:\2023\REPSWITCH21092023\REPSWITCH_excgange\REPSWITCH_excgange\data/290103_REPSWITCH1_version1_list3_2023-12-05_09h31.12.909_micRespv1l3_recorded\recording_micRespv1l3_2023-12-05_09h38.16.719.wav;430.9727177;431.4728225;None;430.9727177;430.9727177;430.9727177;430.9727177;430.9727177;430.9727177;;;;;;290103;1;2023-12-05_09h31.12.909;REPSWITCH1_version1_list3;2022.2.4;143.896279;
REPSWITCH1/PICTURE_48.png;bombero;speak;gold;switch;2;T;4;2;3;1;Stim7_Set4;0;None;90;89;90;0;89;89;89;;;;;;;;;;;;;;;;;;;;;;;431.4728225;432.5841026;432.5841026;432.5841026;432.5841026;432.5841026;432.5841026;432.5841026;432.5841026;None;0;;;C:\2023\REPSWITCH21092023\REPSWITCH_excgange\REPSWITCH_excgange\data/290103_REPSWITCH1_version1_list3_2023-12-05_09h31.12.909_micRespv1l3_recorded\recording_micRespv1l3_2023-12-05_09h38.21.351.wav;435.6053378;436.1053806;None;435.6053378;435.6053378;435.6053378;435.6053378;435.6053378;435.6053378;;;;;;290103;1;2023-12-05_09h31.12.909;REPSWITCH1_version1_list3;2022.2.4;143.896279;
REPSWITCH1/PICTURE_576.png;guante;type;darkblue;filler;1;F;4;2;3;1;Stim1_Set3;0;None;91;90;91;0;90;90;90;;;;;;;;;;;;;;;;;;;;;;;436.1053806;437.2166166;437.2166166;437.2166166;437.2166166;437.2166166;437.2166166;437.2166166;437.2166166;['g', 'u', 'a', 'n', 'e', 't', 'e'];0;[0.7364601003937423, 0.8949116002768278, 1.0604036003351212, 1.1222449000924826, 1.3268966004252434, 1.3278952003456652, 2.003133099991828];guante;C:\2023\REPSWITCH21092023\REPSWITCH_excgange\REPSWITCH_excgange\data/290103_REPSWITCH1_version1_list3_2023-12-05_09h31.12.909_micRespv1l3_recorded\recording_micRespv1l3_2023-12-05_09h38.25.983.wav;440.2378835;440.7379329;None;440.2378835;440.2378835;440.2378835;440.2378835;440.2378835;440.2378835;;;;;;290103;1;2023-12-05_09h31.12.909;REPSWITCH1_version1_list3;2022.2.4;143.896279;
REPSWITCH1/PICTURE_271.png;conejo;speak;gold;filler;2;F;4;2;3;1;Stim7_Set3;0;None;92;91;92;0;91;91;91;;;;;;;;;;;;;;;;;;;;;;;440.7379329;441.7727928;441.7727928;441.7727928;441.7727928;441.7727928;441.7727928;441.7727928;441.7727928;None;0;;;C:\2023\REPSWITCH21092023\REPSWITCH_excgange\REPSWITCH_excgange\data/290103_REPSWITCH1_version1_list3_2023-12-05_09h31.12.909_micRespv1l3_recorded\recording_micRespv1l3_2023-12-05_09h38.30.540.wav;444.8010206;;None;444.8010206;444.8010206;444.8010206;444.8010206;444.8010206;444.8010206;;;;;;290103;1;2023-12-05_09h31.12.909;REPSWITCH1_version1_list3;2022.2.4;143.896279;
REPSWITCH1/PICTURE_319.png;vaca;speak;gold;nontarget;2;NT;4;2;3;1;Stim1_Set4;1;repeat;93;92;93;0;92;92;92;;;;;;;;;;;;;;;;;;;;;;;445.3010252;446.3359249;446.3359249;446.3359249;446.3359249;446.3359249;446.3359249;446.3359249;446.3359249;None;0;;;C:\2023\REPSWITCH21092023\REPSWITCH_excgange\REPSWITCH_excgange\data/290103_REPSWITCH1_version1_list3_2023-12-05_09h31.12.909_micRespv1l3_recorded\recording_micRespv1l3_2023-12-05_09h38.35.103.wav;449.3640697;;None;449.3640697;449.3640697;449.3640697;449.3640697;449.3640697;449.3640697;;;;;;290103;1;2023-12-05_09h31.12.909;REPSWITCH1_version1_list3;2022.2.4;143.896279;
REPSWITCH1/PICTURE_319.png;vaca;speak;gold;repeat;2;T;4;2;3;1;Stim1_Set4;0;None;94;93;94;0;93;93;93;;;;;;;;;;;;;;;;;;;;;;;449.8641813;450.9337152;450.9337152;450.9337152;450.9337152;450.9337152;450.9337152;450.9337152;450.9337152;None;0;;;C:\2023\REPSWITCH21092023\REPSWITCH_excgange\REPSWITCH_excgange\data/290103_REPSWITCH1_version1_list3_2023-12-05_09h31.12.909_micRespv1l3_recorded\recording_micRespv1l3_2023-12-05_09h38.39.701.wav;453.9618894;;None;453.9618894;453.9618894;453.9618894;453.9618894;453.9618894;453.9618894;;;;;;290103;1;2023-12-05_09h31.12.909;REPSWITCH1_version1_list3;2022.2.4;143.896279;
REPSWITCH1/PICTURE_242.png;cartero;type;darkblue;filler;1;F;4;2;3;1;Stim3_Set3;0;None;95;94;95;0;94;94;94;;;;;;;;;;;;;;;;;;;;;;;454.4620308;455.6774193;455.6774193;455.6774193;455.6774193;455.6774193;455.6774193;455.6774193;455.6774193;['c', 'a', 'r', 't', 'e', 'r', 'o'];0;[0.722994000185281, 0.8249790002591908, 0.9166323998942971, 1.039091399870813, 1.1356692002154887, 1.3034156002104282, 1.4233327000401914];cartero;C:\2023\REPSWITCH21092023\REPSWITCH_excgange\REPSWITCH_excgange\data/290103_REPSWITCH1_version1_list3_2023-12-05_09h31.12.909_micRespv1l3_recorded\recording_micRespv1l3_2023-12-05_09h38.44.444.wav;458.6986048;459.1987595;None;458.6986048;458.6986048;458.6986048;458.6986048;458.6986048;458.6986048;;;;;;290103;1;2023-12-05_09h31.12.909;REPSWITCH1_version1_list3;2022.2.4;143.896279;
REPSWITCH1/PICTURE_35.png;oreja;speak;gold;filler;2;F;4;2;3;1;Stim5_Set3;1;switch;96;95;96;0;95;95;95;;;;;;;;;;;;;;;;;;;;;;;459.1987595;460.3655071;460.3655071;460.3655071;460.3655071;460.3655071;460.3655071;460.3655071;460.3655071;None;0;;;C:\2023\REPSWITCH21092023\REPSWITCH_excgange\REPSWITCH_excgange\data/290103_REPSWITCH1_version1_list3_2023-12-05_09h31.12.909_micRespv1l3_recorded\recording_micRespv1l3_2023-12-05_09h38.49.132.wav;463.3867092;463.8868082;None;463.3867092;463.3867092;463.3867092;463.3867092;463.3867092;463.3867092;;;;;;290103;1;2023-12-05_09h31.12.909;REPSWITCH1_version1_list3;2022.2.4;143.896279;
REPSWITCH1/PICTURE_338.png;regalo;speak;gold;nontarget;2;NT;4;2;3;1;Stim6_Set4;1;repeat;97;96;97;0;96;96;96;;;;;;;;;;;;;;;;;;;;;;;463.8868082;464.9981338;464.9981338;464.9981338;464.9981338;464.9981338;464.9981338;464.9981338;464.9981338;None;0;;;C:\2023\REPSWITCH21092023\REPSWITCH_excgange\REPSWITCH_excgange\data/290103_REPSWITCH1_version1_list3_2023-12-05_09h31.12.909_micRespv1l3_recorded\recording_micRespv1l3_2023-12-05_09h38.53.766.wav;468.0262866;;None;468.0262866;468.0262866;468.0262866;468.0262866;468.0262866;468.0262866;;;;;;290103;1;2023-12-05_09h31.12.909;REPSWITCH1_version1_list3;2022.2.4;143.896279;
REPSWITCH1/PICTURE_338.png;regalo;type;darkblue;switch;1;T;4;2;3;1;Stim6_Set4;0;None;98;97;98;0;97;97;97;;;;;;;;;;;;;;;;;;;;;;;468.5263543;469.7556594;469.7556594;469.7556594;469.7556594;469.7556594;469.7556594;469.7556594;469.7556594;['r', 'e', 'g', 'a', 'l', 'o'];0;[0.7233523004688323, 0.9190034004859626, 1.0544965001754463, 1.1896286001428962, 1.398932700511068, 1.5544591001234949];regalo;C:\2023\REPSWITCH21092023\REPSWITCH_excgange\REPSWITCH_excgange\data/290103_REPSWITCH1_version1_list3_2023-12-05_09h31.12.909_micRespv1l3_recorded\recording_micRespv1l3_2023-12-05_09h38.58.523.wav;472.7768491;473.276942;None;472.7768491;472.7768491;472.7768491;472.7768491;472.7768491;472.7768491;;;;;;290103;1;2023-12-05_09h31.12.909;REPSWITCH1_version1_list3;2022.2.4;143.896279;
REPSWITCH1/PICTURE_687.png;camisa;type;darkblue;nontarget;1;NT;4;2;3;1;Stim5_Set4;0;None;99;98;99;0;98;98;98;;;;;;;;;;;;;;;;;;;;;;;473.276942;474.3604882;474.3604882;474.3604882;474.3604882;474.3604882;474.3604882;474.3604882;474.3604882;['c', 'a', 'm', 'i', 's', 'a'];0;[0.7922265999950469, 0.871951799839735, 1.177854500245303, 1.2305842000059783, 1.3402522997930646, 1.5087137999944389];camisa;C:\2023\REPSWITCH21092023\REPSWITCH_excgange\REPSWITCH_excgange\data/290103_REPSWITCH1_version1_list3_2023-12-05_09h31.12.909_micRespv1l3_recorded\recording_micRespv1l3_2023-12-05_09h39.03.128.wav;477.3816416;477.8817144;None;477.3816416;477.3816416;477.3816416;477.3816416;477.3816416;477.3816416;;;;;;290103;1;2023-12-05_09h31.12.909;REPSWITCH1_version1_list3;2022.2.4;143.896279;
REPSWITCH1/PICTURE_687.png;camisa;type;darkblue;repeat;1;T;4;2;3;1;Stim5_Set4;0;None;100;99;100;0;99;99;99;;;;;;;;;;;;;;;;;;;;;;;477.8817144;479.0069139;479.0069139;479.0069139;479.0069139;479.0069139;479.0069139;479.0069139;479.0069139;['c', 'a', 'm', 'i', 's', 'a'];0;[0.777651000302285, 0.8596827001310885, 1.185795800294727, 1.247588800266385, 1.3704484002664685, 1.5398769001476467];camisa;C:\2023\REPSWITCH21092023\REPSWITCH_excgange\REPSWITCH_excgange\data/290103_REPSWITCH1_version1_list3_2023-12-05_09h31.12.909_micRespv1l3_recorded\recording_micRespv1l3_2023-12-05_09h39.07.774.wav;482.0280692;482.5281308;None;482.0280692;482.0280692;482.0280692;482.0280692;482.0280692;482.0280692;;;;;;290103;1;2023-12-05_09h31.12.909;REPSWITCH1_version1_list3;2022.2.4;143.896279;
REPSWITCH1/PICTURE_340.png;espejo;speak;gold;filler;2;F;4;2;3;1;Extra1;0;None;101;100;101;0;100;100;100;;;;;;;;;;;;;;;;;;;;;;;482.5281308;483.5422128;483.5422128;483.5422128;483.5422128;483.5422128;483.5422128;483.5422128;483.5422128;None;0;;;C:\2023\REPSWITCH21092023\REPSWITCH_excgange\REPSWITCH_excgange\data/290103_REPSWITCH1_version1_list3_2023-12-05_09h31.12.909_micRespv1l3_recorded\recording_micRespv1l3_2023-12-05_09h39.12.310.wav;486.5704093;;None;486.5704093;486.5704093;486.5704093;486.5704093;486.5704093;486.5704093;;;;;;290103;1;2023-12-05_09h31.12.909;REPSWITCH1_version1_list3;2022.2.4;143.896279;
REPSWITCH1/PICTURE_610.png;miel;type;darkblue;filler;1;F;4;2;3;1;Stim2_Set3;0;None;102;101;102;0;101;101;101;;;;;;;;;;;;;;;;;;;;;;;487.0704807;488.1470125;488.1470125;488.1470125;488.1470125;488.1470125;488.1470125;488.1470125;488.1470125;['m', 'i', 'e', 'l'];0;[0.8117196001112461, 0.9224070003256202, 1.0101183000952005, 1.1437423001043499];miel;C:\2023\REPSWITCH21092023\REPSWITCH_excgange\REPSWITCH_excgange\data/290103_REPSWITCH1_version1_list3_2023-12-05_09h31.12.909_micRespv1l3_recorded\recording_micRespv1l3_2023-12-05_09h39.16.914.wav;491.1681561;491.6682074;space;491.1681561;491.1681561;491.1681561;491.1681561;491.1681561;491.1681561;491.6682074;491.6682074;16.8194721;;;290103;1;2023-12-05_09h31.12.909;REPSWITCH1_version1_list3;2022.2.4;143.896279;
REPSWITCH1/PICTURE_8.png;pierna;type;darkblue;filler;1;F;1;4;3;1;Stim3_Set4;0;None;103;102;1;0;102;102;102;;;;;;;;;;;;;;;;;;;;;;;508.4968502;509.5525283;509.5525283;509.5525283;509.5525283;509.5525283;509.5525283;509.5525283;509.5525283;['o', 'backspace', 'p', 'u', 'i', 'e', 'r', 'n', 'a'];0;[0.9191435002721846, 1.5277508003637195, 1.760991900227964, 2.065841800067574, 2.0668405001051724, 2.1435887003317475, 2.3340808004140854, 2.5444523002952337, 2.6092923004180193];pierna;C:\2023\REPSWITCH21092023\REPSWITCH_excgange\REPSWITCH_excgange\data/290103_REPSWITCH1_version1_list3_2023-12-05_09h31.12.909_micRespv1l3_recorded\recording_micRespv1l3_2023-12-05_09h39.38.319.wav;512.5738508;513.0739109;None;512.5738508;512.5738508;512.5738508;512.5738508;512.5738508;512.5738508;;;;;;290103;1;2023-12-05_09h31.12.909;REPSWITCH1_version1_list3;2022.2.4;143.896279;
REPSWITCH1/PICTURE_498.png;taza;speak;gold;filler;2;F;1;4;3;1;Stim4_Set4;0;None;104;103;2;0;103;103;103;;;;;;;;;;;;;;;;;;;;;;;513.0739109;514.2059907;514.2059907;514.2059907;514.2059907;514.2059907;514.2059907;514.2059907;514.2059907;None;0;;;C:\2023\REPSWITCH21092023\REPSWITCH_excgange\REPSWITCH_excgange\data/290103_REPSWITCH1_version1_list3_2023-12-05_09h31.12.909_micRespv1l3_recorded\recording_micRespv1l3_2023-12-05_09h39.42.974.wav;517.2340715;;None;517.2340715;517.2340715;517.2340715;517.2340715;517.2340715;517.2340715;;;;;;290103;1;2023-12-05_09h31.12.909;REPSWITCH1_version1_list3;2022.2.4;143.896279;
REPSWITCH1/PICTURE_19.png;pavo;speak;gold;nontarget;2;NT;1;4;3;1;Stim5_Set1;1;repeat;105;104;3;0;104;104;104;;;;;;;;;;;;;;;;;;;;;;;517.7341507;518.8176979;518.8176979;518.8176979;518.8176979;518.8176979;518.8176979;518.8176979;518.8176979;None;0;;;C:\2023\REPSWITCH21092023\REPSWITCH_excgange\REPSWITCH_excgange\data/290103_REPSWITCH1_version1_list3_2023-12-05_09h31.12.909_micRespv1l3_recorded\recording_micRespv1l3_2023-12-05_09h39.47.585.wav;521.8388746;522.3389477;None;521.8388746;521.8388746;521.8388746;521.8388746;521.8388746;521.8388746;;;;;;290103;1;2023-12-05_09h31.12.909;REPSWITCH1_version1_list3;2022.2.4;143.896279;
REPSWITCH1/PICTURE_19.png;pavo;speak;gold;repeat;2;T;1;4;3;1;Stim5_Set1;0;None;106;105;4;0;105;105;105;;;;;;;;;;;;;;;;;;;;;;;522.3389477;523.3529659;523.3529659;523.3529659;523.3529659;523.3529659;523.3529659;523.3529659;523.3529659;None;0;;;C:\2023\REPSWITCH21092023\REPSWITCH_excgange\REPSWITCH_excgange\data/290103_REPSWITCH1_version1_list3_2023-12-05_09h31.12.909_micRespv1l3_recorded\recording_micRespv1l3_2023-12-05_09h39.52.120.wav;526.3811279;;None;526.3811279;526.3811279;526.3811279;526.3811279;526.3811279;526.3811279;;;;;;290103;1;2023-12-05_09h31.12.909;REPSWITCH1_version1_list3;2022.2.4;143.896279;
REPSWITCH1/PICTURE_319.png;vaca;type;darkblue;filler;1;F;1;4;3;1;Stim1_Set4;1;repeat;107;106;5;0;106;106;106;;;;;;;;;;;;;;;;;;;;;;;526.881259;527.9924898;527.9924898;527.9924898;527.9924898;527.9924898;527.9924898;527.9924898;527.9924898;['v', 'a', 'c', 'a'];0;[0.8248859001323581, 0.9504599999636412, 1.0145123000256717, 1.1072466000914574];vaca;C:\2023\REPSWITCH21092023\REPSWITCH_excgange\REPSWITCH_excgange\data/290103_REPSWITCH1_version1_list3_2023-12-05_09h31.12.909_micRespv1l3_recorded\recording_micRespv1l3_2023-12-05_09h39.56.760.wav;531.013678;531.5137602;None;531.013678;531.013678;531.013678;531.013678;531.013678;531.013678;;;;;;290103;1;2023-12-05_09h31.12.909;REPSWITCH1_version1_list3;2022.2.4;143.896279;
REPSWITCH1/PICTURE_169.png;espalda;speak;gold;nontarget;2;NT;1;4;3;1;Stim8_Set1;1;switch;108;107;6;0;107;107;107;;;;;;;;;;;;;;;;;;;;;;;531.5137602;532.5694641;532.5694641;532.5694641;532.5694641;532.5694641;532.5694641;532.5694641;532.5694641;None;0;;;C:\2023\REPSWITCH21092023\REPSWITCH_excgange\REPSWITCH_excgange\data/290103_REPSWITCH1_version1_list3_2023-12-05_09h31.12.909_micRespv1l3_recorded\recording_micRespv1l3_2023-12-05_09h40.01.337.wav;535.5977072;;None;535.5977072;535.5977072;535.5977072;535.5977072;535.5977072;535.5977072;;;;;;290103;1;2023-12-05_09h31.12.909;REPSWITCH1_version1_list3;2022.2.4;143.896279;
REPSWITCH1/PICTURE_169.png;espalda;speak;gold;repeat;2;T;1;4;3;1;Stim8_Set1;0;None;109;108;7;0;108;108;108;;;;;;;;;;;;;;;;;;;;;;;536.0977757;537.2298269;537.2298269;537.2298269;537.2298269;537.2298269;537.2298269;537.2298269;537.2298269;None;0;;;C:\2023\REPSWITCH21092023\REPSWITCH_excgange\REPSWITCH_excgange\data/290103_REPSWITCH1_version1_list3_2023-12-05_09h31.12.909_micRespv1l3_recorded\recording_micRespv1l3_2023-12-05_09h40.05.997.wav;540.2511033;540.7510725;None;540.2511033;540.2511033;540.2511033;540.2511033;540.2511033;540.2511033;;;;;;290103;1;2023-12-05_09h31.12.909;REPSWITCH1_version1_list3;2022.2.4;143.896279;
REPSWITCH1/PICTURE_728.png;pulpo;type;darkblue;filler;1;F;1;4;3;1;Stim8_Set4;0;None;110;109;8;0;109;109;109;;;;;;;;;;;;;;;;;;;;;;;540.7510725;541.8415035;541.8415035;541.8415035;541.8415035;541.8415035;541.8415035;541.8415035;541.8415035;['p', 'u', 'l', 'p', 'o'];0;[0.5465961997397244, 0.9054229999892414, 1.2165218000300229, 1.3470602999441326, 1.4967962997034192];pulpo;C:\2023\REPSWITCH21092023\REPSWITCH_excgange\REPSWITCH_excgange\data/290103_REPSWITCH1_version1_list3_2023-12-05_09h31.12.909_micRespv1l3_recorded\recording_micRespv1l3_2023-12-05_09h40.10.609.wav;544.8627379;545.3628162;None;544.8627379;544.8627379;544.8627379;544.8627379;544.8627379;544.8627379;;;;;;290103;1;2023-12-05_09h31.12.909;REPSWITCH1_version1_list3;2022.2.4;143.896279;
REPSWITCH1/PICTURE_142.png;vaso;speak;gold;nontarget;2;NT;1;4;3;1;Stim7_Set1;1;switch;111;110;9;0;110;110;110;;;;;;;;;;;;;;;;;;;;;;;545.3628162;546.5296685;546.5296685;546.5296685;546.5296685;546.5296685;546.5296685;546.5296685;546.5296685;None;0;;;C:\2023\REPSWITCH21092023\REPSWITCH_excgange\REPSWITCH_excgange\data/290103_REPSWITCH1_version1_list3_2023-12-05_09h31.12.909_micRespv1l3_recorded\recording_micRespv1l3_2023-12-05_09h40.15.298.wav;549.5577934;;None;549.5577934;549.5577934;549.5577934;549.5577934;549.5577934;549.5577934;;;;;;290103;1;2023-12-05_09h31.12.909;REPSWITCH1_version1_list3;2022.2.4;143.896279;
REPSWITCH1/PICTURE_142.png;vaso;type;darkblue;switch;1;T;1;4;3;1;Stim7_Set1;0;None;112;111;10;0;111;111;111;;;;;;;;;;;;;;;;;;;;;;;550.0579288;551.2872075;551.2872075;551.2872075;551.2872075;551.2872075;551.2872075;551.2872075;551.2872075;['v', 'a', 's', 'o'];0;[0.42869560001417994, 0.5273636002093554, 0.7598971999250352, 0.9306173999793828];vaso;C:\2023\REPSWITCH21092023\REPSWITCH_excgange\REPSWITCH_excgange\data/290103_REPSWITCH1_version1_list3_2023-12-05_09h31.12.909_micRespv1l3_recorded\recording_micRespv1l3_2023-12-05_09h40.20.054.wav;554.3084244;554.8084982;None;554.3084244;554.3084244;554.3084244;554.3084244;554.3084244;554.3084244;;;;;;290103;1;2023-12-05_09h31.12.909;REPSWITCH1_version1_list3;2022.2.4;143.896279;
REPSWITCH1/PICTURE_338.png;regalo;type;darkblue;filler;1;F;1;4;3;1;Stim6_Set4;1;repeat;113;112;11;0;112;112;112;;;;;;;;;;;;;;;;;;;;;;;554.8084982;555.8919758;555.8919758;555.8919758;555.8919758;555.8919758;555.8919758;555.8919758;555.8919758;['r', 'e', 'g', 'a', 'l', 'o'];0;[0.7292854003608227, 0.8180030002258718, 0.9226634004153311, 1.067467000335455, 1.3249366004019976, 1.4475290002301335];regalo;C:\2023\REPSWITCH21092023\REPSWITCH_excgange\REPSWITCH_excgange\data/290103_REPSWITCH1_version1_list3_2023-12-05_09h31.12.909_micRespv1l3_recorded\recording_micRespv1l3_2023-12-05_09h40.24.660.wav;558.9201163;;None;558.9201163;558.9201163;558.9201163;558.9201163;558.9201163;558.9201163;;;;;;290103;1;2023-12-05_09h31.12.909;REPSWITCH1_version1_list3;2022.2.4;143.896279;
REPSWITCH1/PICTURE_135.png;traje;type;darkblue;nontarget;1;NT;1;4;3;1;Stim3_Set1;1;repeat;114;113;12;0;113;113;113;;;;;;;;;;;;;;;;;;;;;;;559.4201829;560.4967656;560.4967656;560.4967656;560.4967656;560.4967656;560.4967656;560.4967656;560.4967656;['t', 'r', 'a', 'j', 'e'];0;[0.8854971001856029, 1.0160190998576581, 1.111954600084573, 1.357846099883318, 1.438544699922204];traje;C:\2023\REPSWITCH21092023\REPSWITCH_excgange\REPSWITCH_excgange\data/290103_REPSWITCH1_version1_list3_2023-12-05_09h31.12.909_micRespv1l3_recorded\recording_micRespv1l3_2023-12-05_09h40.29.264.wav;563.524934;;None;563.524934;563.524934;563.524934;563.524934;563.524934;563.524934;;;;;;290103;1;2023-12-05_09h31.12.909;REPSWITCH1_version1_list3;2022.2.4;143.896279;
REPSWITCH1/PICTURE_135.png;traje;speak;gold;switch;2;T;1;4;3;1;Stim3_Set1;0;None;115;114;13;0;114;114;114;;;;;;;;;;;;;;;;;;;;;;;564.0249937;565.0459569;565.0459569;565.0459569;565.0459569;565.0459569;565.0459569;565.0459569;565.0459569;None;0;;;C:\2023\REPSWITCH21092023\REPSWITCH_excgange\REPSWITCH_excgange\data/290103_REPSWITCH1_version1_list3_2023-12-05_09h31.12.909_micRespv1l3_recorded\recording_micRespv1l3_2023-12-05_09h40.33.814.wav;568.0740999;;None;568.0740999;568.0740999;568.0740999;568.0740999;568.0740999;568.0740999;;;;;;290103;1;2023-12-05_09h31.12.909;REPSWITCH1_version1_list3;2022.2.4;143.896279;
REPSWITCH1/PICTURE_381.png;fresa;speak;gold;nontarget;2;NT;1;4;3;1;Stim2_Set1;1;repeat;116;115;14;0;115;115;115;;;;;;;;;;;;;;;;;;;;;;;568.574166;569.6159994;569.6159994;569.6159994;569.6159994;569.6159994;569.6159994;569.6159994;569.6159994;None;0;;;C:\2023\REPSWITCH21092023\REPSWITCH_excgange\REPSWITCH_excgange\data/290103_REPSWITCH1_version1_list3_2023-12-05_09h31.12.909_micRespv1l3_recorded\recording_micRespv1l3_2023-12-05_09h40.38.383.wav;572.6372122;573.137287;None;572.6372122;572.6372122;572.6372122;572.6372122;572.6372122;572.6372122;;;;;;290103;1;2023-12-05_09h31.12.909;REPSWITCH1_version1_list3;2022.2.4;143.896279;
REPSWITCH1/PICTURE_381.png;fresa;type;darkblue;switch;1;T;1;4;3;1;Stim2_Set1;0;None;117;116;15;0;116;116;116;;;;;;;;;;;;;;;;;;;;;;;573.137287;574.2207912;574.2207912;574.2207912;574.2207912;574.2207912;574.2207912;574.2207912;574.2207912;['f', 'r', 'e', 's', 'a'];0;[1.1231569000519812, 1.2905884999781847, 1.4393607000820339, 1.5540094999596477, 1.704497799742967];fresa;C:\2023\REPSWITCH21092023\REPSWITCH_excgange\REPSWITCH_excgange\data/290103_REPSWITCH1_version1_list3_2023-12-05_09h31.12.909_micRespv1l3_recorded\recording_micRespv1l3_2023-12-05_09h40.42.988.wav;577.2420225;577.7420374;None;577.2420225;577.2420225;577.2420225;577.2420225;577.2420225;577.2420225;;;;;;290103;1;2023-12-05_09h31.12.909;REPSWITCH1_version1_list3;2022.2.4;143.896279;
REPSWITCH1/PICTURE_48.png;bombero;type;darkblue;filler;1;F;1;4;3;1;Stim7_Set4;0;None;118;117;16;0;117;117;117;;;;;;;;;;;;;;;;;;;;;;;577.7420374;578.999236;578.999236;578.999236;578.999236;578.999236;578.999236;578.999236;578.999236;['b', 'o', 'm', 'b', 'e', 'r', 'o'];0;[0.8601827998645604, 1.1900844001211226, 1.3479833002202213, 1.603231799788773, 1.718157900031656, 1.874636999797076, 1.9613999999128282];bombero;C:\2023\REPSWITCH21092023\REPSWITCH_excgange\REPSWITCH_excgange\data/290103_REPSWITCH1_version1_list3_2023-12-05_09h31.12.909_micRespv1l3_recorded\recording_micRespv1l3_2023-12-05_09h40.47.767.wav;582.0204169;582.5205566;None;582.0204169;582.0204169;582.0204169;582.0204169;582.0204169;582.0204169;;;;;;290103;1;2023-12-05_09h31.12.909;REPSWITCH1_version1_list3;2022.2.4;143.896279;
REPSWITCH1/PICTURE_687.png;camisa;speak;gold;filler;2;F;1;4;3;1;Stim5_Set4;0;None;119;118;17;0;118;118;118;;;;;;;;;;;;;;;;;;;;;;;582.5205566;583.6178288;583.6178288;583.6178288;583.6178288;583.6178288;583.6178288;583.6178288;583.6178288;None;0;;;C:\2023\REPSWITCH21092023\REPSWITCH_excgange\REPSWITCH_excgange\data/290103_REPSWITCH1_version1_list3_2023-12-05_09h31.12.909_micRespv1l3_recorded\recording_micRespv1l3_2023-12-05_09h40.52.385.wav;586.6390451;587.1391261;None;586.6390451;586.6390451;586.6390451;586.6390451;586.6390451;586.6390451;;;;;;290103;1;2023-12-05_09h31.12.909;REPSWITCH1_version1_list3;2022.2.4;143.896279;
REPSWITCH1/PICTURE_128.png;muñeca;type;darkblue;nontarget;1;NT;1;4;3;1;Stim4_Set1;0;None;120;119;18;0;119;119;119;;;;;;;;;;;;;;;;;;;;;;;587.1391261;588.2365705;588.2365705;588.2365705;588.2365705;588.2365705;588.2365705;588.2365705;588.2365705;['m', 'u', 'ñ', 'e', 'c', 'a'];0;[0.8856027000583708, 1.0751263001002371, 1.4777815002016723, 1.6835781000554562, 1.8105040001682937, 1.9390710000880063];muñeca;C:\2023\REPSWITCH21092023\REPSWITCH_excgange\REPSWITCH_excgange\data/290103_REPSWITCH1_version1_list3_2023-12-05_09h31.12.909_micRespv1l3_recorded\recording_micRespv1l3_2023-12-05_09h40.57.004.wav;591.2577404;591.7578229;None;591.2577404;591.2577404;591.2577404;591.2577404;591.2577404;591.2577404;;;;;;290103;1;2023-12-05_09h31.12.909;REPSWITCH1_version1_list3;2022.2.4;143.896279;
REPSWITCH1/PICTURE_128.png;muñeca;type;darkblue;repeat;1;T;1;4;3;1;Stim4_Set1;0;None;121;120;19;0;120;120;120;;;;;;;;;;;;;;;;;;;;;;;591.7578229;592.8204722;592.8204722;592.8204722;592.8204722;592.8204722;592.8204722;592.8204722;592.8204722;['m', 'u', 'ñ', 'e', 'c', 'a'];0;[0.6684448001906276, 0.8558140001259744, 1.2099500000476837, 1.4344476000405848, 1.565138999838382, 1.7007288997992873];muñeca;C:\2023\REPSWITCH21092023\REPSWITCH_excgange\REPSWITCH_excgange\data/290103_REPSWITCH1_version1_list3_2023-12-05_09h31.12.909_micRespv1l3_recorded\recording_micRespv1l3_2023-12-05_09h41.01.588.wav;595.8486245;;None;595.8486245;595.8486245;595.8486245;595.8486245;595.8486245;595.8486245;;;;;;290103;1;2023-12-05_09h31.12.909;REPSWITCH1_version1_list3;2022.2.4;143.896279;
REPSWITCH1/PICTURE_719.png;baño;speak;gold;filler;2;F;1;4;3;1;Stim2_Set4;1;switch;122;121;20;0;121;121;121;;;;;;;;;;;;;;;;;;;;;;;596.3486785;597.4807789;597.4807789;597.4807789;597.4807789;597.4807789;597.4807789;597.4807789;597.4807789;None;0;;;C:\2023\REPSWITCH21092023\REPSWITCH_excgange\REPSWITCH_excgange\data/290103_REPSWITCH1_version1_list3_2023-12-05_09h31.12.909_micRespv1l3_recorded\recording_micRespv1l3_2023-12-05_09h41.06.248.wav;600.5090392;;None;600.5090392;600.5090392;600.5090392;600.5090392;600.5090392;600.5090392;;;;;;290103;1;2023-12-05_09h31.12.909;REPSWITCH1_version1_list3;2022.2.4;143.896279;
REPSWITCH1/PICTURE_178.png;puente;type;darkblue;nontarget;1;NT;1;4;3;1;Stim1_Set1;1;switch;123;122;21;0;122;122;122;;;;;;;;;;;;;;;;;;;;;;;601.009029;602.1897251;602.1897251;602.1897251;602.1897251;602.1897251;602.1897251;602.1897251;602.1897251;['p', 'u', 'e', 'n', 't', 'e'];0;[0.9113791999407113, 1.1521749999374151, 1.2847318002022803, 1.333821200300008, 1.5077047999948263, 1.5745085002854466];puente;C:\2023\REPSWITCH21092023\REPSWITCH_excgange\REPSWITCH_excgange\data/290103_REPSWITCH1_version1_list3_2023-12-05_09h31.12.909_micRespv1l3_recorded\recording_micRespv1l3_2023-12-05_09h41.10.956.wav;605.2109726;605.7110095;None;605.2109726;605.2109726;605.2109726;605.2109726;605.2109726;605.2109726;;;;;;290103;1;2023-12-05_09h31.12.909;REPSWITCH1_version1_list3;2022.2.4;143.896279;
REPSWITCH1/PICTURE_178.png;puente;type;darkblue;repeat;1;T;1;4;3;1;Stim1_Set1;0;None;124;123;22;0;123;123;123;;;;;;;;;;;;;;;;;;;;;;;605.7110095;606.815344;606.815344;606.815344;606.815344;606.815344;606.815344;606.815344;606.815344;['p', 'u', 'e', 'n', 't', 'e'];0;[0.723466600291431, 0.9637170000933111, 1.0858000004664063, 1.1544796000234783, 1.3502777004614472, 1.4421965000219643];puente;C:\2023\REPSWITCH21092023\REPSWITCH_excgange\REPSWITCH_excgange\data/290103_REPSWITCH1_version1_list3_2023-12-05_09h31.12.909_micRespv1l3_recorded\recording_micRespv1l3_2023-12-05_09h41.15.582.wav;609.8366538;610.3366487;None;609.8366538;609.8366538;609.8366538;609.8366538;609.8366538;609.8366538;;;;;;290103;1;2023-12-05_09h31.12.909;REPSWITCH1_version1_list3;2022.2.4;143.896279;
REPSWITCH1/PICTURE_16.png;cazador;type;darkblue;nontarget;1;NT;1;4;3;1;Stim6_Set1;1;repeat;125;124;23;0;124;124;124;;;;;;;;;;;;;;;;;;;;;;;610.3366487;611.4965294;611.4965294;611.4965294;611.4965294;611.4965294;611.4965294;611.4965294;611.4965294;['c', 'a', 'z', 'a', 'd', 'o', 'r'];0;[1.2764564999379218, 1.3751715999096632, 1.558555900119245, 1.6622137003578246, 1.8625551001168787, 2.0031524002552032, 2.1330717001110315];cazador;C:\2023\REPSWITCH21092023\REPSWITCH_excgange\REPSWITCH_excgange\data/290103_REPSWITCH1_version1_list3_2023-12-05_09h31.12.909_micRespv1l3_recorded\recording_micRespv1l3_2023-12-05_09h41.20.265.wav;614.5246995;;None;614.5246995;614.5246995;614.5246995;614.5246995;614.5246995;614.5246995;;;;;;290103;1;2023-12-05_09h31.12.909;REPSWITCH1_version1_list3;2022.2.4;143.896279;
REPSWITCH1/PICTURE_16.png;cazador;speak;gold;switch;2;T;1;4;3;1;Stim6_Set1;0;None;126;125;24;0;125;125;125;;;;;;;;;;;;;;;;;;;;;;;615.024833;616.0526944;616.0526944;616.0526944;616.0526944;616.0526944;616.0526944;616.0526944;616.0526944;None;0;;;C:\2023\REPSWITCH21092023\REPSWITCH_excgange\REPSWITCH_excgange\data/290103_REPSWITCH1_version1_list3_2023-12-05_09h31.12.909_micRespv1l3_recorded\recording_micRespv1l3_2023-12-05_09h41.24.820.wav;619.0809204;;None;619.0809204;619.0809204;619.0809204;619.0809204;619.0809204;619.0809204;;;;;;290103;1;2023-12-05_09h31.12.909;REPSWITCH1_version1_list3;2022.2.4;143.896279;
REPSWITCH1/PICTURE_19.png;pavo;type;darkblue;filler;1;F;2;4;3;1;Stim5_Set1;0;None;127;126;25;0;126;126;126;;;;;;;;;;;;;;;;;;;;;;;619.5809142;620.5949297;620.5949297;620.5949297;620.5949297;620.5949297;620.5949297;620.5949297;620.5949297;['p', 'a', 'v', 'o'];0;[0.7241866001859307, 0.8241685000248253, 1.1393968001939356, 1.541384800337255];pavo;C:\2023\REPSWITCH21092023\REPSWITCH_excgange\REPSWITCH_excgange\data/290103_REPSWITCH1_version1_list3_2023-12-05_09h31.12.909_micRespv1l3_recorded\recording_micRespv1l3_2023-12-05_09h41.29.362.wav;623.6231824;;None;623.6231824;623.6231824;623.6231824;623.6231824;623.6231824;623.6231824;;;;;;290103;1;2023-12-05_09h31.12.909;REPSWITCH1_version1_list3;2022.2.4;143.896279;
REPSWITCH1/PICTURE_199.png;falda;type;darkblue;nontarget;1;NT;2;4;3;1;Stim8_Set2;1;repeat;128;127;26;0;127;127;127;;;;;;;;;;;;;;;;;;;;;;;624.1231565;625.2345087;625.2345087;625.2345087;625.2345087;625.2345087;625.2345087;625.2345087;625.2345087;['f', 'a', 'l', 'd', 'a'];0;[0.7165330001153052, 0.8191780000925064, 1.1479050000198185, 1.2157475999556482, 1.4142984999343753];falda;C:\2023\REPSWITCH21092023\REPSWITCH_excgange\REPSWITCH_excgange\data/290103_REPSWITCH1_version1_list3_2023-12-05_09h31.12.909_micRespv1l3_recorded\recording_micRespv1l3_2023-12-05_09h41.34.001.wav;628.2626081;;None;628.2626081;628.2626081;628.2626081;628.2626081;628.2626081;628.2626081;;;;;;290103;1;2023-12-05_09h31.12.909;REPSWITCH1_version1_list3;2022.2.4;143.896279;
REPSWITCH1/PICTURE_199.png;falda;type;darkblue;repeat;1;T;2;4;3;1;Stim8_Set2;0;None;129;128;27;0;128;128;128;;;;;;;;;;;;;;;;;;;;;;;628.7626796;629.9017602;629.9017602;629.9017602;629.9017602;629.9017602;629.9017602;629.9017602;629.9017602;['f', 'a', 'l', 'd', 'a'];0;[0.8035976001992822, 0.887308300472796, 1.2234979001805186, 1.2623473005369306, 1.4709078003652394];falda;C:\2023\REPSWITCH21092023\REPSWITCH_excgange\REPSWITCH_excgange\data/290103_REPSWITCH1_version1_list3_2023-12-05_09h31.12.909_micRespv1l3_recorded\recording_micRespv1l3_2023-12-05_09h41.38.669.wav;632.9229242;633.423007;None;632.9229242;632.9229242;632.9229242;632.9229242;632.9229242;632.9229242;;;;;;290103;1;2023-12-05_09h31.12.909;REPSWITCH1_version1_list3;2022.2.4;143.896279;
REPSWITCH1/PICTURE_178.png;puente;speak;gold;filler;2;F;2;4;3;1;Stim1_Set1;1;switch;130;129;28;0;129;129;129;;;;;;;;;;;;;;;;;;;;;;;633.423007;634.6037096;634.6037096;634.6037096;634.6037096;634.6037096;634.6037096;634.6037096;634.6037096;None;0;;;C:\2023\REPSWITCH21092023\REPSWITCH_excgange\REPSWITCH_excgange\data/290103_REPSWITCH1_version1_list3_2023-12-05_09h31.12.909_micRespv1l3_recorded\recording_micRespv1l3_2023-12-05_09h41.43.371.wav;637.6250257;638.1250078;None;637.6250257;637.6250257;637.6250257;637.6250257;637.6250257;637.6250257;;;;;;290103;1;2023-12-05_09h31.12.909;REPSWITCH1_version1_list3;2022.2.4;143.896279;
REPSWITCH1/PICTURE_517.png;cuerda;type;darkblue;nontarget;1;NT;2;4;3;1;Stim4_Set2;1;switch;131;130;29;0;130;130;130;;;;;;;;;;;;;;;;;;;;;;;638.1250078;639.1390518;639.1390518;639.1390518;639.1390518;639.1390518;639.1390518;639.1390518;639.1390518;['c', 'u', 'e', 'r', 'd', 'a'];0;[1.144520599860698, 1.2073097000829875, 1.4137903000228107, 1.5702724000439048, 1.666339199990034, 1.7537976000458002];cuerda;C:\2023\REPSWITCH21092023\REPSWITCH_excgange\REPSWITCH_excgange\data/290103_REPSWITCH1_version1_list3_2023-12-05_09h31.12.909_micRespv1l3_recorded\recording_micRespv1l3_2023-12-05_09h41.47.906.wav;642.160285;642.6603576;None;642.160285;642.160285;642.160285;642.160285;642.160285;642.160285;;;;;;290103;1;2023-12-05_09h31.12.909;REPSWITCH1_version1_list3;2022.2.4;143.896279;
REPSWITCH1/PICTURE_517.png;cuerda;type;darkblue;repeat;1;T;2;4;3;1;Stim4_Set2;0;None;132;131;30;0;131;131;131;;;;;;;;;;;;;;;;;;;;;;;642.6603576;643.7438441;643.7438441;643.7438441;643.7438441;643.7438441;643.7438441;643.7438441;643.7438441;['c', 'u', 'e', 'r', 'd', 'a'];0;[0.7041627001017332, 0.8336906000040472, 0.9433224000968039, 1.0802338002249599, 1.214822200126946, 1.2536877999082208];cuerda;C:\2023\REPSWITCH21092023\REPSWITCH_excgange\REPSWITCH_excgange\data/290103_REPSWITCH1_version1_list3_2023-12-05_09h31.12.909_micRespv1l3_recorded\recording_micRespv1l3_2023-12-05_09h41.52.512.wav;646.7720143;;None;646.7720143;646.7720143;646.7720143;646.7720143;646.7720143;646.7720143;;;;;;290103;1;2023-12-05_09h31.12.909;REPSWITCH1_version1_list3;2022.2.4;143.896279;
REPSWITCH1/PICTURE_169.png;espalda;type;darkblue;filler;1;F;2;4;3;1;Stim8_Set1;0;None;133;132;31;0;132;132;132;;;;;;;;;;;;;;;;;;;;;;;647.2720375;648.3069452;648.3069452;648.3069452;648.3069452;648.3069452;648.3069452;648.3069452;648.3069452;['e', 's', 'p', 'a', 'l', 'd', 'a'];0;[0.7177836000919342, 0.9281490002758801, 1.0441770004108548, 1.132869700435549, 1.145832400303334, 1.3152572005055845, 1.5229300004430115];espalda;C:\2023\REPSWITCH21092023\REPSWITCH_excgange\REPSWITCH_excgange\data/290103_REPSWITCH1_version1_list3_2023-12-05_09h31.12.909_micRespv1l3_recorded\recording_micRespv1l3_2023-12-05_09h41.57.074.wav;651.3351438;;None;651.3351438;651.3351438;651.3351438;651.3351438;651.3351438;651.3351438;;;;;;290103;1;2023-12-05_09h31.12.909;REPSWITCH1_version1_list3;2022.2.4;143.896279;
REPSWITCH1/PICTURE_673.png;tenedor;speak;gold;filler;2;F;2;4;3;1;Extra5;0;None;134;133;32;0;133;133;133;;;;;;;;;;;;;;;;;;;;;;;651.8351436;652.9672488;652.9672488;652.9672488;652.9672488;652.9672488;652.9672488;652.9672488;652.9672488;None;0;;;C:\2023\REPSWITCH21092023\REPSWITCH_excgange\REPSWITCH_excgange\data/290103_REPSWITCH1_version1_list3_2023-12-05_09h31.12.909_micRespv1l3_recorded\recording_micRespv1l3_2023-12-05_09h42.01.734.wav;655.988511;656.4886266;None;655.988511;655.988511;655.988511;655.988511;655.988511;655.988511;;;;;;290103;1;2023-12-05_09h31.12.909;REPSWITCH1_version1_list3;2022.2.4;143.896279;
REPSWITCH1/PICTURE_142.png;vaso;type;darkblue;filler;1;F;2;4;3;1;Stim7_Set1;1;switch;135;134;33;0;134;134;134;;;;;;;;;;;;;;;;;;;;;;;656.4886266;657.5095307;657.5095307;657.5095307;657.5095307;657.5095307;657.5095307;657.5095307;657.5095307;['v', 'a', 's', 'o'];0;[0.9235045001842082, 1.0241494001820683, 1.183618400245905, 1.4136200002394617];vaso;C:\2023\REPSWITCH21092023\REPSWITCH_excgange\REPSWITCH_excgange\data/290103_REPSWITCH1_version1_list3_2023-12-05_09h31.12.909_micRespv1l3_recorded\recording_micRespv1l3_2023-12-05_09h42.06.276.wav;660.5307656;661.0308946;None;660.5307656;660.5307656;660.5307656;660.5307656;660.5307656;660.5307656;;;;;;290103;1;2023-12-05_09h31.12.909;REPSWITCH1_version1_list3;2022.2.4;143.896279;
REPSWITCH1/PICTURE_552.png;manzana;type;darkblue;nontarget;1;NT;2;4;3;1;Stim6_Set2;1;repeat;136;135;34;0;135;135;135;;;;;;;;;;;;;;;;;;;;;;;661.0308946;662.1281878;662.1281878;662.1281878;662.1281878;662.1281878;662.1281878;662.1281878;662.1281878;['m', 'a', 'n', 'z', 'a', 'n', 'a'];0;[0.7816355000250041, 0.8644202002324164, 0.9738447000272572, 1.0778430001810193, 1.184424600098282, 1.2392080002464354, 1.396682900376618];manzana;C:\2023\REPSWITCH21092023\REPSWITCH_excgange\REPSWITCH_excgange\data/290103_REPSWITCH1_version1_list3_2023-12-05_09h31.12.909_micRespv1l3_recorded\recording_micRespv1l3_2023-12-05_09h42.10.895.wav;665.1493856;665.6495647;None;665.1493856;665.1493856;665.1493856;665.1493856;665.1493856;665.1493856;;;;;;290103;1;2023-12-05_09h31.12.909;REPSWITCH1_version1_list3;2022.2.4;143.896279;
REPSWITCH1/PICTURE_552.png;manzana;speak;gold;switch;1;T;2;4;3;1;Stim6_Set2;0;None;137;136;35;0;136;136;136;;;;;;;;;;;;;;;;;;;;;;;665.6495647;666.7051866;666.7051866;666.7051866;666.7051866;666.7051866;666.7051866;666.7051866;666.7051866;None;0;;;C:\2023\REPSWITCH21092023\REPSWITCH_excgange\REPSWITCH_excgange\data/290103_REPSWITCH1_version1_list3_2023-12-05_09h31.12.909_micRespv1l3_recorded\recording_micRespv1l3_2023-12-05_09h42.15.473.wav;669.7263747;670.2264655;None;669.7263747;669.7263747;669.7263747;669.7263747;669.7263747;669.7263747;;;;;;290103;1;2023-12-05_09h31.12.909;REPSWITCH1_version1_list3;2022.2.4;143.896279;
REPSWITCH1/PICTURE_135.png;traje;speak;gold;filler;2;F;2;4;3;1;Stim3_Set1;0;None;138;137;36;0;137;137;137;;;;;;;;;;;;;;;;;;;;;;;670.2264655;671.3169167;671.3169167;671.3169167;671.3169167;671.3169167;671.3169167;671.3169167;671.3169167;None;0;;;C:\2023\REPSWITCH21092023\REPSWITCH_excgange\REPSWITCH_excgange\data/290103_REPSWITCH1_version1_list3_2023-12-05_09h31.12.909_micRespv1l3_recorded\recording_micRespv1l3_2023-12-05_09h42.20.084.wav;674.3450513;;None;674.3450513;674.3450513;674.3450513;674.3450513;674.3450513;674.3450513;;;;;;290103;1;2023-12-05_09h31.12.909;REPSWITCH1_version1_list3;2022.2.4;143.896279;
REPSWITCH1/PICTURE_152.png;caracol;speak;gold;nontarget;2;NT;2;4;3;1;Stim2_Set2;1;repeat;139;138;37;0;138;138;138;;;;;;;;;;;;;;;;;;;;;;;674.8451138;676.0119765;676.0119765;676.0119765;676.0119765;676.0119765;676.0119765;676.0119765;676.0119765;None;0;;;C:\2023\REPSWITCH21092023\REPSWITCH_excgange\REPSWITCH_excgange\data/290103_REPSWITCH1_version1_list3_2023-12-05_09h31.12.909_micRespv1l3_recorded\recording_micRespv1l3_2023-12-05_09h42.24.780.wav;679.0400965;;None;679.0400965;679.0400965;679.0400965;679.0400965;679.0400965;679.0400965;;;;;;290103;1;2023-12-05_09h31.12.909;REPSWITCH1_version1_list3;2022.2.4;143.896279;
REPSWITCH1/PICTURE_152.png;caracol;type;darkblue;switch;1;T;2;4;3;1;Stim2_Set2;0;None;140;139;38;0;139;139;139;;;;;;;;;;;;;;;;;;;;;;;679.5401801;680.651518;680.651518;680.651518;680.651518;680.651518;680.651518;680.651518;680.651518;['c', 'a', 'r', 'a', 'c', 'o', 'l'];0;[0.8260245001874864, 0.927638300228864, 1.0482888002879918, 1.1132839005440474, 1.2019460001029074, 1.645877200178802, 1.7871955004520714];caracol;C:\2023\REPSWITCH21092023\REPSWITCH_excgange\REPSWITCH_excgange\data/290103_REPSWITCH1_version1_list3_2023-12-05_09h31.12.909_micRespv1l3_recorded\recording_micRespv1l3_2023-12-05_09h42.29.419.wav;683.6726586;684.1727642;None;683.6726586;683.6726586;683.6726586;683.6726586;683.6726586;683.6726586;;;;;;290103;1;2023-12-05_09h31.12.909;REPSWITCH1_version1_list3;2022.2.4;143.896279;
