image,correctAns,respModal,frameColor,repSwitch,sequence,target,set,block,list,exp_version,stimulus,baseline,baseline_condition,trial_no,psychopy_trial,Column1,trialsREPSWITCH.thisRepN,trialsREPSWITCH.thisTrialN,trialsREPSWITCH.thisN,trialsREPSWITCH.thisIndex,textWelcome.started,textboxInstrMain1.started,textboxInstrMain1_2.started,textboxInstrMain1_3.started,keyInstrMain.started,keyInstrMain.keys,keyInstrMain.rt,textboxInstrMain2.started,textboxInstrMain2_2.started,textboxInstrMain2_3.started,textboxInstrMain2_4.started,textboxInstrMain2_5.started,textboxInstrMain2_6.started,textboxInstrMain2_7.started,textboxInstrMain2_8.started,textboxInstrMain2_9.started,textboxInstrMain2_10.started,textboxInstrMain2_11.started,textboxInstrMain2_12.started,keyInstrMain2.started,keyInstrMain2.keys,keyInstrMain2.rt,fixationITI.started,fixationITI.stopped,polygonColour.started,polygonWhite.started,imageObject.started,polygonType.started,textInput.started,keyResp.started,micRespv1l3.started,keyResp.keys,keyResp.corr,keyResp.rt,subjResponse,micRespv1l3.clip,textBlankLoop.started,textBlankLoop.stopped,keyPause.keys,polygonColour.stopped,polygonWhite.stopped,imageObject.stopped,polygonType.stopped,textInput.stopped,keyResp.stopped,textboxPause.started,keyPause.started,keyPause.rt,textboxGoodbye.started,textboxGoodbye.stopped,participant,session,date,expName,psychopyVersion,frameRate,
,,,,,,,,,,,,,,,,,,,,,9.028700099792331,11.52867789985612,11.52867789985612,11.52867789985612,11.52867789985612,space,3.290797600056976,,,,,,,,,,,,,,,,,,,,,,,,,,,,,,,,,,,,,,,,,,,,290103,001,2023-12-05_09h31.12.909,REPSWITCH1_version1_list3,2022.2.4,143.89627895996645,
,,,,,,,,,,,,,,,,,,,,,,,,,,,,14.83465090021491,14.83465090021491,14.83465090021491,14.83465090021491,14.83465090021491,14.83465090021491,14.83465090021491,14.83465090021491,14.83465090021491,14.83465090021491,14.83465090021491,14.83465090021491,14.83465090021491,space,2.4831125997006893,,,,,,,,,,,,,,,,,,,,,,,,,,,,,290103,001,2023-12-05_09h31.12.909,REPSWITCH1_version1_list3,2022.2.4,143.89627895996645,
REPSWITCH1/PICTURE_663.png,columna,type,darkblue,filler,1,F,1,2,3,1,Extra6,0,None,1,0,1,0,0,0,0,,,,,,,,,,,,,,,,,,,,,,,17.418316800147295,18.47407149989158,18.47407149989158,18.47407149989158,18.47407149989158,18.47407149989158,18.47407149989158,18.47407149989158,18.47407149989158,"['c', 'o', 'l', 'u', 'm', 'n', 'a']",0,"[1.2446959004737437, 1.5160894002765417, 1.6586059001274407, 1.8649933002889156, 2.0282124001532793, 2.1637983000837266, 2.2415215000510216]",columna,C:\2023\REPSWITCH21092023\REPSWITCH_excgange\REPSWITCH_excgange\data/290103_REPSWITCH1_version1_list3_2023-12-05_09h31.12.909_micRespv1l3_recorded\recording_micRespv1l3_2023-12-05_09h31.27.238.wav,21.495270600076765,21.9953073002398,None,,,,,,,,,,,,290103,001,2023-12-05_09h31.12.909,REPSWITCH1_version1_list3,2022.2.4,143.89627895996645,
REPSWITCH1/PICTURE_128.png,muñeca,speak,gold,nontarget,2,NT,1,2,3,1,Stim4_Set1,1,switch,2,1,2,0,1,1,1,,,,,,,,,,,,,,,,,,,,,,,21.9953073002398,23.08577000023797,23.08577000023797,23.08577000023797,23.08577000023797,23.08577000023797,23.08577000023797,23.08577000023797,23.08577000023797,None,0,,,C:\2023\REPSWITCH21092023\REPSWITCH_excgange\REPSWITCH_excgange\data/290103_REPSWITCH1_version1_list3_2023-12-05_09h31.12.909_micRespv1l3_recorded\recording_micRespv1l3_2023-12-05_09h31.31.853.wav,26.113913100212812,,None,26.113913100212812,26.113913100212812,26.113913100212812,26.113913100212812,26.113913100212812,26.113913100212812,,,,,,290103,001,2023-12-05_09h31.12.909,REPSWITCH1_version1_list3,2022.2.4,143.89627895996645,
REPSWITCH1/PICTURE_128.png,muñeca,speak,gold,repeat,2,T,1,2,3,1,Stim4_Set1,0,None,3,2,3,0,2,2,2,,,,,,,,,,,,,,,,,,,,,,,26.614028099924326,27.662797499913722,27.662797499913722,27.662797499913722,27.662797499913722,27.662797499913722,27.662797499913722,27.662797499913722,27.662797499913722,None,0,,,C:\2023\REPSWITCH21092023\REPSWITCH_excgange\REPSWITCH_excgange\data/290103_REPSWITCH1_version1_list3_2023-12-05_09h31.12.909_micRespv1l3_recorded\recording_micRespv1l3_2023-12-05_09h31.36.430.wav,30.683937599882483,31.184028500225395,None,30.683937599882483,30.683937599882483,30.683937599882483,30.683937599882483,30.683937599882483,30.683937599882483,,,,,,290103,001,2023-12-05_09h31.12.909,REPSWITCH1_version1_list3,2022.2.4,143.89627895996645,
REPSWITCH1/PICTURE_8.png,pierna,type,darkblue,filler,1,F,1,2,3,1,Stim3_Set4,0,None,4,3,4,0,3,3,3,,,,,,,,,,,,,,,,,,,,,,,31.184028500225395,32.330029900185764,32.330029900185764,32.330029900185764,32.330029900185764,32.330029900185764,32.330029900185764,32.330029900185764,32.330029900185764,"['p', 'i', 'e', 'r']",0,"[2.192247500177473, 2.4354143999516964, 2.508664600085467, 2.7108762999996543]",pier,C:\2023\REPSWITCH21092023\REPSWITCH_excgange\REPSWITCH_excgange\data/290103_REPSWITCH1_version1_list3_2023-12-05_09h31.12.909_micRespv1l3_recorded\recording_micRespv1l3_2023-12-05_09h31.41.097.wav,35.35125550022349,35.85129560017958,None,35.35125550022349,35.35125550022349,35.35125550022349,35.35125550022349,35.35125550022349,35.35125550022349,,,,,,290103,001,2023-12-05_09h31.12.909,REPSWITCH1_version1_list3,2022.2.4,143.89627895996645,
REPSWITCH1/PICTURE_135.png,traje,speak,gold,nontarget,2,NT,1,2,3,1,Stim3_Set1,1,switch,5,4,5,0,4,4,4,,,,,,,,,,,,,,,,,,,,,,,35.85129560017958,36.94172690017149,36.94172690017149,36.94172690017149,36.94172690017149,36.94172690017149,36.94172690017149,36.94172690017149,36.94172690017149,None,0,,,C:\2023\REPSWITCH21092023\REPSWITCH_excgange\REPSWITCH_excgange\data/290103_REPSWITCH1_version1_list3_2023-12-05_09h31.12.909_micRespv1l3_recorded\recording_micRespv1l3_2023-12-05_09h31.45.710.wav,39.96990490006283,,None,39.96990490006283,39.96990490006283,39.96990490006283,39.96990490006283,39.96990490006283,39.96990490006283,,,,,,290103,001,2023-12-05_09h31.12.909,REPSWITCH1_version1_list3,2022.2.4,143.89627895996645,
REPSWITCH1/PICTURE_135.png,traje,speak,gold,repeat,2,T,1,2,3,1,Stim3_Set1,0,None,6,5,6,0,5,5,5,,,,,,,,,,,,,,,,,,,,,,,40.46997890016064,41.553437899798155,41.553437899798155,41.553437899798155,41.553437899798155,41.553437899798155,41.553437899798155,41.553437899798155,41.553437899798155,None,0,,,C:\2023\REPSWITCH21092023\REPSWITCH_excgange\REPSWITCH_excgange\data/290103_REPSWITCH1_version1_list3_2023-12-05_09h31.12.909_micRespv1l3_recorded\recording_micRespv1l3_2023-12-05_09h31.50.320.wav,44.57469979999587,45.07475329982117,None,44.57469979999587,44.57469979999587,44.57469979999587,44.57469979999587,44.57469979999587,44.57469979999587,,,,,,290103,001,2023-12-05_09h31.12.909,REPSWITCH1_version1_list3,2022.2.4,143.89627895996645,
REPSWITCH1/PICTURE_673.png,tenedor,type,darkblue,filler,1,F,1,2,3,1,Extra5,0,None,7,6,7,0,6,6,6,,,,,,,,,,,,,,,,,,,,,,,45.07475329982117,46.21376790013164,46.21376790013164,46.21376790013164,46.21376790013164,46.21376790013164,46.21376790013164,46.21376790013164,46.21376790013164,"['t', 'e', 'n', 'e', 'd', 'o', 'r']",0,"[0.6984521998092532, 0.8150598001666367, 0.9410949000157416, 1.0163162001408637, 1.1992458999156952, 1.3258128999732435, 1.4364563999697566]",tenedor,C:\2023\REPSWITCH21092023\REPSWITCH_excgange\REPSWITCH_excgange\data/290103_REPSWITCH1_version1_list3_2023-12-05_09h31.12.909_micRespv1l3_recorded\recording_micRespv1l3_2023-12-05_09h31.54.981.wav,49.24197270022705,,None,49.24197270022705,49.24197270022705,49.24197270022705,49.24197270022705,49.24197270022705,49.24197270022705,,,,,,290103,001,2023-12-05_09h31.12.909,REPSWITCH1_version1_list3,2022.2.4,143.89627895996645,
REPSWITCH1/PICTURE_728.png,pulpo,speak,gold,filler,2,F,1,2,3,1,Stim8_Set4,0,None,8,7,8,0,7,7,7,,,,,,,,,,,,,,,,,,,,,,,49.74203359987587,50.83248420013115,50.83248420013115,50.83248420013115,50.83248420013115,50.83248420013115,50.83248420013115,50.83248420013115,50.83248420013115,None,0,,,C:\2023\REPSWITCH21092023\REPSWITCH_excgange\REPSWITCH_excgange\data/290103_REPSWITCH1_version1_list3_2023-12-05_09h31.12.909_micRespv1l3_recorded\recording_micRespv1l3_2023-12-05_09h31.59.599.wav,53.86063859984279,,None,53.86063859984279,53.86063859984279,53.86063859984279,53.86063859984279,53.86063859984279,53.86063859984279,,,,,,290103,001,2023-12-05_09h31.12.909,REPSWITCH1_version1_list3,2022.2.4,143.89627895996645,
REPSWITCH1/PICTURE_16.png,cazador,speak,gold,nontarget,2,NT,1,2,3,1,Stim6_Set1,1,repeat,9,8,9,0,8,8,8,,,,,,,,,,,,,,,,,,,,,,,54.360731800086796,55.40251020016149,55.40251020016149,55.40251020016149,55.40251020016149,55.40251020016149,55.40251020016149,55.40251020016149,55.40251020016149,None,0,,,C:\2023\REPSWITCH21092023\REPSWITCH_excgange\REPSWITCH_excgange\data/290103_REPSWITCH1_version1_list3_2023-12-05_09h31.12.909_micRespv1l3_recorded\recording_micRespv1l3_2023-12-05_09h32.04.170.wav,58.43064450006932,,None,58.43064450006932,58.43064450006932,58.43064450006932,58.43064450006932,58.43064450006932,58.43064450006932,,,,,,290103,001,2023-12-05_09h31.12.909,REPSWITCH1_version1_list3,2022.2.4,143.89627895996645,
REPSWITCH1/PICTURE_16.png,cazador,type,darkblue,switch,1,T,1,2,3,1,Stim6_Set1,0,None,10,9,10,0,9,9,9,,,,,,,,,,,,,,,,,,,,,,,58.93074070010334,60.08366259979084,60.08366259979084,60.08366259979084,60.08366259979084,60.08366259979084,60.08366259979084,60.08366259979084,60.08366259979084,"['c', 'a', 'z', 'a', 'd', 'o', 'r']",0,"[0.8126849997788668, 0.8885613000020385, 1.1455852999351919, 1.2542535997927189, 1.3379755998030305, 1.7261165999807417, 1.8110523000359535]",cazador,C:\2023\REPSWITCH21092023\REPSWITCH_excgange\REPSWITCH_excgange\data/290103_REPSWITCH1_version1_list3_2023-12-05_09h31.12.909_micRespv1l3_recorded\recording_micRespv1l3_2023-12-05_09h32.08.851.wav,63.10490080015734,63.60497019998729,None,63.10490080015734,63.10490080015734,63.10490080015734,63.10490080015734,63.10490080015734,63.10490080015734,,,,,,290103,001,2023-12-05_09h31.12.909,REPSWITCH1_version1_list3,2022.2.4,143.89627895996645,
REPSWITCH1/PICTURE_498.png,taza,type,darkblue,filler,1,F,1,2,3,1,Stim4_Set4,1,repeat,11,10,11,0,10,10,10,,,,,,,,,,,,,,,,,,,,,,,63.60497019998729,64.63286380004138,64.63286380004138,64.63286380004138,64.63286380004138,64.63286380004138,64.63286380004138,64.63286380004138,64.63286380004138,"['t', 'a', 'z', 'a']",0,"[0.8230016999877989, 0.8867768002673984, 1.028362300246954, 1.1306328000500798]",taza,C:\2023\REPSWITCH21092023\REPSWITCH_excgange\REPSWITCH_excgange\data/290103_REPSWITCH1_version1_list3_2023-12-05_09h31.12.909_micRespv1l3_recorded\recording_micRespv1l3_2023-12-05_09h32.13.399.wav,67.65418499987572,68.15418240008876,None,67.65418499987572,67.65418499987572,67.65418499987572,67.65418499987572,67.65418499987572,67.65418499987572,,,,,,290103,001,2023-12-05_09h31.12.909,REPSWITCH1_version1_list3,2022.2.4,143.89627895996645,
REPSWITCH1/PICTURE_381.png,fresa,type,darkblue,nontarget,1,NT,1,2,3,1,Stim2_Set1,1,repeat,12,11,12,0,11,11,11,,,,,,,,,,,,,,,,,,,,,,,68.15418240008876,69.3349291998893,69.3349291998893,69.3349291998893,69.3349291998893,69.3349291998893,69.3349291998893,69.3349291998893,69.3349291998893,"['f', 'r', 'e', 's', 'a']",0,"[0.7753898999653757, 0.9438591999933124, 1.1273066001012921, 1.19203419983387, 1.353492199908942]",fresa,C:\2023\REPSWITCH21092023\REPSWITCH_excgange\REPSWITCH_excgange\data/290103_REPSWITCH1_version1_list3_2023-12-05_09h31.12.909_micRespv1l3_recorded\recording_micRespv1l3_2023-12-05_09h32.18.102.wav,72.35619839979336,72.85617160005495,None,72.35619839979336,72.35619839979336,72.35619839979336,72.35619839979336,72.35619839979336,72.35619839979336,,,,,,290103,001,2023-12-05_09h31.12.909,REPSWITCH1_version1_list3,2022.2.4,143.89627895996645,
REPSWITCH1/PICTURE_381.png,fresa,speak,gold,switch,2,T,1,2,3,1,Stim2_Set1,0,None,13,12,13,0,12,12,12,,,,,,,,,,,,,,,,,,,,,,,72.85617160005495,73.91880339989439,73.91880339989439,73.91880339989439,73.91880339989439,73.91880339989439,73.91880339989439,73.91880339989439,73.91880339989439,None,0,,,C:\2023\REPSWITCH21092023\REPSWITCH_excgange\REPSWITCH_excgange\data/290103_REPSWITCH1_version1_list3_2023-12-05_09h31.12.909_micRespv1l3_recorded\recording_micRespv1l3_2023-12-05_09h32.22.686.wav,76.94698480004445,,None,76.94698480004445,76.94698480004445,76.94698480004445,76.94698480004445,76.94698480004445,76.94698480004445,,,,,,290103,001,2023-12-05_09h31.12.909,REPSWITCH1_version1_list3,2022.2.4,143.89627895996645,
REPSWITCH1/PICTURE_178.png,puente,speak,gold,nontarget,2,NT,1,2,3,1,Stim1_Set1,0,None,14,13,14,0,13,13,13,,,,,,,,,,,,,,,,,,,,,,,77.44714620010927,78.54441400012001,78.54441400012001,78.54441400012001,78.54441400012001,78.54441400012001,78.54441400012001,78.54441400012001,78.54441400012001,None,0,,,C:\2023\REPSWITCH21092023\REPSWITCH_excgange\REPSWITCH_excgange\data/290103_REPSWITCH1_version1_list3_2023-12-05_09h31.12.909_micRespv1l3_recorded\recording_micRespv1l3_2023-12-05_09h32.27.311.wav,81.56566570000723,82.06572759989649,None,81.56566570000723,81.56566570000723,81.56566570000723,81.56566570000723,81.56566570000723,81.56566570000723,,,,,,290103,001,2023-12-05_09h31.12.909,REPSWITCH1_version1_list3,2022.2.4,143.89627895996645,
REPSWITCH1/PICTURE_178.png,puente,type,darkblue,switch,1,T,1,2,3,1,Stim1_Set1,0,None,15,14,15,0,14,14,14,,,,,,,,,,,,,,,,,,,,,,,82.06572759989649,83.17698760004714,83.17698760004714,83.17698760004714,83.17698760004714,83.17698760004714,83.17698760004714,83.17698760004714,83.17698760004714,"['p', 'u', 'e', 'n', 't', 'e']",0,"[0.828498899936676, 1.1522915000095963, 1.4133113999851048, 1.5358624001964927, 1.7914622998796403, 1.854302499908954]",puente,C:\2023\REPSWITCH21092023\REPSWITCH_excgange\REPSWITCH_excgange\data/290103_REPSWITCH1_version1_list3_2023-12-05_09h31.12.909_micRespv1l3_recorded\recording_micRespv1l3_2023-12-05_09h32.31.944.wav,86.20515970000997,,None,86.20515970000997,86.20515970000997,86.20515970000997,86.20515970000997,86.20515970000997,86.20515970000997,,,,,,290103,001,2023-12-05_09h31.12.909,REPSWITCH1_version1_list3,2022.2.4,143.89627895996645,
REPSWITCH1/PICTURE_719.png,baño,speak,gold,filler,2,F,1,2,3,1,Stim2_Set4,0,None,16,15,16,0,15,15,15,,,,,,,,,,,,,,,,,,,,,,,86.70519379992038,87.86518540000543,87.86518540000543,87.86518540000543,87.86518540000543,87.86518540000543,87.86518540000543,87.86518540000543,87.86518540000543,None,0,,,C:\2023\REPSWITCH21092023\REPSWITCH_excgange\REPSWITCH_excgange\data/290103_REPSWITCH1_version1_list3_2023-12-05_09h31.12.909_micRespv1l3_recorded\recording_micRespv1l3_2023-12-05_09h32.36.634.wav,90.89326369995251,,None,90.89326369995251,90.89326369995251,90.89326369995251,90.89326369995251,90.89326369995251,90.89326369995251,,,,,,290103,001,2023-12-05_09h31.12.909,REPSWITCH1_version1_list3,2022.2.4,143.89627895996645,
REPSWITCH1/PICTURE_169.png,espalda,type,darkblue,nontarget,1,NT,1,2,3,1,Stim8_Set1,1,switch,17,16,17,0,16,16,16,,,,,,,,,,,,,,,,,,,,,,,91.39330560015514,92.49764550011605,92.49764550011605,92.49764550011605,92.49764550011605,92.49764550011605,92.49764550011605,92.49764550011605,92.49764550011605,"['e', 's', 'p', 'a', 'l', 'd', 'a']",0,"[1.0095607000403106, 1.1989275999367237, 1.3431526999920607, 1.424872700124979, 1.5065927002578974, 1.6721038999967277, 1.868411600124091]",espalda,C:\2023\REPSWITCH21092023\REPSWITCH_excgange\REPSWITCH_excgange\data/290103_REPSWITCH1_version1_list3_2023-12-05_09h31.12.909_micRespv1l3_recorded\recording_micRespv1l3_2023-12-05_09h32.41.264.wav,95.51895410008729,96.01895679999143,None,95.51895410008729,95.51895410008729,95.51895410008729,95.51895410008729,95.51895410008729,95.51895410008729,,,,,,290103,001,2023-12-05_09h31.12.909,REPSWITCH1_version1_list3,2022.2.4,143.89627895996645,
REPSWITCH1/PICTURE_169.png,espalda,type,darkblue,repeat,1,T,1,2,3,1,Stim8_Set1,0,None,18,17,18,0,17,17,17,,,,,,,,,,,,,,,,,,,,,,,96.01895679999143,97.15106040006503,97.15106040006503,97.15106040006503,97.15106040006503,97.15106040006503,97.15106040006503,97.15106040006503,97.15106040006503,"['e', 'e', 'backspace', 's', 'p', 'a', 'l', 'd', 'a']",0,"[0.8001702004112303, 0.9476650999858975, 1.8516730000264943, 1.9941213000565767, 2.14960620040074, 2.2343081003054976, 2.374845600221306, 2.4858682001940906, 2.68422339996323]",espalda,C:\2023\REPSWITCH21092023\REPSWITCH_excgange\REPSWITCH_excgange\data/290103_REPSWITCH1_version1_list3_2023-12-05_09h31.12.909_micRespv1l3_recorded\recording_micRespv1l3_2023-12-05_09h32.45.919.wav,100.17923290003091,,None,100.17923290003091,100.17923290003091,100.17923290003091,100.17923290003091,100.17923290003091,100.17923290003091,,,,,,290103,001,2023-12-05_09h31.12.909,REPSWITCH1_version1_list3,2022.2.4,143.89627895996645,
REPSWITCH1/PICTURE_48.png,bombero,speak,gold,filler,2,F,1,2,3,1,Stim7_Set4,1,switch,19,18,19,0,18,18,18,,,,,,,,,,,,,,,,,,,,,,,100.67924970015883,101.87391259986907,101.87391259986907,101.87391259986907,101.87391259986907,101.87391259986907,101.87391259986907,101.87391259986907,101.87391259986907,None,0,,,C:\2023\REPSWITCH21092023\REPSWITCH_excgange\REPSWITCH_excgange\data/290103_REPSWITCH1_version1_list3_2023-12-05_09h31.12.909_micRespv1l3_recorded\recording_micRespv1l3_2023-12-05_09h32.50.642.wav,104.8951077000238,105.39517420018092,None,104.8951077000238,104.8951077000238,104.8951077000238,104.8951077000238,104.8951077000238,104.8951077000238,,,,,,290103,001,2023-12-05_09h31.12.909,REPSWITCH1_version1_list3,2022.2.4,143.89627895996645,
REPSWITCH1/PICTURE_19.png,pavo,type,darkblue,nontarget,1,NT,1,2,3,1,Stim5_Set1,1,switch,20,19,20,0,19,19,19,,,,,,,,,,,,,,,,,,,,,,,105.39517420018092,106.48563309991732,106.48563309991732,106.48563309991732,106.48563309991732,106.48563309991732,106.48563309991732,106.48563309991732,106.48563309991732,"['p', 'a', 'v', 'o']",0,"[0.8875373997725546, 0.9702488998882473, 1.1238791001960635, 1.3860102999024093]",pavo,C:\2023\REPSWITCH21092023\REPSWITCH_excgange\REPSWITCH_excgange\data/290103_REPSWITCH1_version1_list3_2023-12-05_09h31.12.909_micRespv1l3_recorded\recording_micRespv1l3_2023-12-05_09h32.55.254.wav,109.51382069988176,,None,109.51382069988176,109.51382069988176,109.51382069988176,109.51382069988176,109.51382069988176,109.51382069988176,,,,,,290103,001,2023-12-05_09h31.12.909,REPSWITCH1_version1_list3,2022.2.4,143.89627895996645,
REPSWITCH1/PICTURE_19.png,pavo,type,darkblue,repeat,1,T,1,2,3,1,Stim5_Set1,0,None,21,20,21,0,20,20,20,,,,,,,,,,,,,,,,,,,,,,,110.01392100006342,111.16678979992867,111.16678979992867,111.16678979992867,111.16678979992867,111.16678979992867,111.16678979992867,111.16678979992867,111.16678979992867,"['p', 'a', 'v', 'o']",0,"[0.6968963998369873, 0.8055297001264989, 1.024793399963528, 1.3003643001429737]",pavo,C:\2023\REPSWITCH21092023\REPSWITCH_excgange\REPSWITCH_excgange\data/290103_REPSWITCH1_version1_list3_2023-12-05_09h31.12.909_micRespv1l3_recorded\recording_micRespv1l3_2023-12-05_09h32.59.935.wav,114.1949499999173,,None,114.1949499999173,114.1949499999173,114.1949499999173,114.1949499999173,114.1949499999173,114.1949499999173,,,,,,290103,001,2023-12-05_09h31.12.909,REPSWITCH1_version1_list3,2022.2.4,143.89627895996645,
REPSWITCH1/PICTURE_319.png,vaca,speak,gold,filler,2,F,1,2,3,1,Stim1_Set4,0,None,22,21,22,0,21,21,21,,,,,,,,,,,,,,,,,,,,,,,114.69501029979438,115.81324090017006,115.81324090017006,115.81324090017006,115.81324090017006,115.81324090017006,115.81324090017006,115.81324090017006,115.81324090017006,None,0,,,C:\2023\REPSWITCH21092023\REPSWITCH_excgange\REPSWITCH_excgange\data/290103_REPSWITCH1_version1_list3_2023-12-05_09h31.12.909_micRespv1l3_recorded\recording_micRespv1l3_2023-12-05_09h33.04.581.wav,118.83449559984729,119.3345888000913,None,118.83449559984729,118.83449559984729,118.83449559984729,118.83449559984729,118.83449559984729,118.83449559984729,,,,,,290103,001,2023-12-05_09h31.12.909,REPSWITCH1_version1_list3,2022.2.4,143.89627895996645,
REPSWITCH1/PICTURE_338.png,regalo,type,darkblue,filler,1,F,1,2,3,1,Stim6_Set4,0,None,23,22,23,0,22,22,22,,,,,,,,,,,,,,,,,,,,,,,119.3345888000913,120.48051339993253,120.48051339993253,120.48051339993253,120.48051339993253,120.48051339993253,120.48051339993253,120.48051339993253,120.48051339993253,"['r', 'e', 'f', 'a', 'backspace', 'backspace', 'g', 'a', 'l', 'o']",0,"[0.7128678997978568, 0.7960886000655591, 0.89572269981727, 1.0871160998940468, 1.435908599756658, 1.5265803998336196, 1.8116234000772238, 1.838886999990791, 2.186706599779427, 2.3084744000807405]",regalo,C:\2023\REPSWITCH21092023\REPSWITCH_excgange\REPSWITCH_excgange\data/290103_REPSWITCH1_version1_list3_2023-12-05_09h31.12.909_micRespv1l3_recorded\recording_micRespv1l3_2023-12-05_09h33.09.248.wav,123.50171539979056,124.00187119981274,None,123.50171539979056,123.50171539979056,123.50171539979056,123.50171539979056,123.50171539979056,123.50171539979056,,,,,,290103,001,2023-12-05_09h31.12.909,REPSWITCH1_version1_list3,2022.2.4,143.89627895996645,
REPSWITCH1/PICTURE_142.png,vaso,type,darkblue,nontarget,1,NT,1,2,3,1,Stim7_Set1,0,None,24,23,24,0,23,23,23,,,,,,,,,,,,,,,,,,,,,,,124.00187119981274,125.08525629993528,125.08525629993528,125.08525629993528,125.08525629993528,125.08525629993528,125.08525629993528,125.08525629993528,125.08525629993528,"['v', 'a', 's', 'o']",0,"[0.8290813001804054, 0.9432826000265777, 1.105362500064075, 1.357525700237602]",vaso,C:\2023\REPSWITCH21092023\REPSWITCH_excgange\REPSWITCH_excgange\data/290103_REPSWITCH1_version1_list3_2023-12-05_09h31.12.909_micRespv1l3_recorded\recording_micRespv1l3_2023-12-05_09h33.13.853.wav,128.11342700012028,,None,128.11342700012028,128.11342700012028,128.11342700012028,128.11342700012028,128.11342700012028,128.11342700012028,,,,,,290103,001,2023-12-05_09h31.12.909,REPSWITCH1_version1_list3,2022.2.4,143.89627895996645,
REPSWITCH1/PICTURE_142.png,vaso,speak,gold,switch,2,T,1,2,3,1,Stim7_Set1,0,None,25,24,25,0,24,24,24,,,,,,,,,,,,,,,,,,,,,,,128.61357760010287,129.66927429987118,129.66927429987118,129.66927429987118,129.66927429987118,129.66927429987118,129.66927429987118,129.66927429987118,129.66927429987118,None,0,,,C:\2023\REPSWITCH21092023\REPSWITCH_excgange\REPSWITCH_excgange\data/290103_REPSWITCH1_version1_list3_2023-12-05_09h31.12.909_micRespv1l3_recorded\recording_micRespv1l3_2023-12-05_09h33.18.436.wav,132.69042039988562,133.19047199981287,None,132.69042039988562,132.69042039988562,132.69042039988562,132.69042039988562,132.69042039988562,132.69042039988562,,,,,,290103,001,2023-12-05_09h31.12.909,REPSWITCH1_version1_list3,2022.2.4,143.89627895996645,
REPSWITCH1/PICTURE_687.png,camisa,type,darkblue,filler,1,F,1,2,3,1,Stim5_Set4,1,switch,26,25,26,0,25,25,25,,,,,,,,,,,,,,,,,,,,,,,133.19047199981287,134.20454430021346,134.20454430021346,134.20454430021346,134.20454430021346,134.20454430021346,134.20454430021346,134.20454430021346,134.20454430021346,"['c', 'a', 'm', 'i', 's', 'a']",0,"[0.9848259999416769, 1.0967492000199854, 1.4336343999020755, 1.5104724001139402, 1.613235800061375, 1.7887440999038517]",camisa,C:\2023\REPSWITCH21092023\REPSWITCH_excgange\REPSWITCH_excgange\data/290103_REPSWITCH1_version1_list3_2023-12-05_09h31.12.909_micRespv1l3_recorded\recording_micRespv1l3_2023-12-05_09h33.22.971.wav,137.2257707999088,137.7258315999061,None,137.2257707999088,137.2257707999088,137.2257707999088,137.2257707999088,137.2257707999088,137.2257707999088,,,,,,290103,001,2023-12-05_09h31.12.909,REPSWITCH1_version1_list3,2022.2.4,143.89627895996645,
REPSWITCH1/PICTURE_30.png,granja,type,darkblue,nontarget,1,NT,2,2,3,1,Stim5_Set2,0,None,27,26,27,0,26,26,26,,,,,,,,,,,,,,,,,,,,,,,137.7258315999061,138.81626590015367,138.81626590015367,138.81626590015367,138.81626590015367,138.81626590015367,138.81626590015367,138.81626590015367,138.81626590015367,"['g', 'r', 'a', 'n', 'j', 'a']",0,"[0.823362700175494, 1.0276736002415419, 1.120362600311637, 1.3625276004895568, 1.5534304003231227, 1.6461038002744317]",granja,C:\2023\REPSWITCH21092023\REPSWITCH_excgange\REPSWITCH_excgange\data/290103_REPSWITCH1_version1_list3_2023-12-05_09h31.12.909_micRespv1l3_recorded\recording_micRespv1l3_2023-12-05_09h33.27.585.wav,141.8444668999873,,None,141.8444668999873,141.8444668999873,141.8444668999873,141.8444668999873,141.8444668999873,141.8444668999873,,,,,,290103,001,2023-12-05_09h31.12.909,REPSWITCH1_version1_list3,2022.2.4,143.89627895996645,
REPSWITCH1/PICTURE_30.png,granja,type,darkblue,repeat,1,T,2,2,3,1,Stim5_Set2,0,None,28,27,28,0,27,27,27,,,,,,,,,,,,,,,,,,,,,,,142.34447799995542,143.42100489977747,143.42100489977747,143.42100489977747,143.42100489977747,143.42100489977747,143.42100489977747,143.42100489977747,143.42100489977747,"['g', 'r', 'a', 'n', 'j', 'a']",0,"[0.6164569999091327, 0.7922546998597682, 0.9119043000973761, 1.1211498999036849, 1.2756194001995027, 1.3673070999793708]",granja,C:\2023\REPSWITCH21092023\REPSWITCH_excgange\REPSWITCH_excgange\data/290103_REPSWITCH1_version1_list3_2023-12-05_09h31.12.909_micRespv1l3_recorded\recording_micRespv1l3_2023-12-05_09h33.32.189.wav,146.44927169987932,,None,146.44927169987932,146.44927169987932,146.44927169987932,146.44927169987932,146.44927169987932,146.44927169987932,,,,,,290103,001,2023-12-05_09h31.12.909,REPSWITCH1_version1_list3,2022.2.4,143.89627895996645,
REPSWITCH1/PICTURE_128.png,muñeca,speak,gold,filler,2,F,2,2,3,1,Stim4_Set1,0,None,29,28,29,0,28,28,28,,,,,,,,,,,,,,,,,,,,,,,146.94924100022763,148.02583430008963,148.02583430008963,148.02583430008963,148.02583430008963,148.02583430008963,148.02583430008963,148.02583430008963,148.02583430008963,None,0,,,C:\2023\REPSWITCH21092023\REPSWITCH_excgange\REPSWITCH_excgange\data/290103_REPSWITCH1_version1_list3_2023-12-05_09h31.12.909_micRespv1l3_recorded\recording_micRespv1l3_2023-12-05_09h33.36.794.wav,151.05398780014366,,None,151.05398780014366,151.05398780014366,151.05398780014366,151.05398780014366,151.05398780014366,151.05398780014366,,,,,,290103,001,2023-12-05_09h31.12.909,REPSWITCH1_version1_list3,2022.2.4,143.89627895996645,
REPSWITCH1/PICTURE_264.png,mano,type,darkblue,nontarget,1,NT,2,2,3,1,Stim3_Set2,1,switch,30,29,30,0,29,29,29,,,,,,,,,,,,,,,,,,,,,,,151.55403239978477,152.58888369984925,152.58888369984925,152.58888369984925,152.58888369984925,152.58888369984925,152.58888369984925,152.58888369984925,152.58888369984925,"['m', 'a', 'n', 'o']",0,"[0.8474229997955263, 0.9331173999235034, 1.0258148000575602, 1.1314249001443386]",mano,C:\2023\REPSWITCH21092023\REPSWITCH_excgange\REPSWITCH_excgange\data/290103_REPSWITCH1_version1_list3_2023-12-05_09h31.12.909_micRespv1l3_recorded\recording_micRespv1l3_2023-12-05_09h33.41.357.wav,155.61708230013028,,None,155.61708230013028,155.61708230013028,155.61708230013028,155.61708230013028,155.61708230013028,155.61708230013028,,,,,,290103,001,2023-12-05_09h31.12.909,REPSWITCH1_version1_list3,2022.2.4,143.89627895996645,
REPSWITCH1/PICTURE_264.png,mano,type,darkblue,repeat,1,T,2,2,3,1,Stim3_Set2,0,None,31,30,31,0,30,30,30,,,,,,,,,,,,,,,,,,,,,,,156.11720620002598,157.17284160014242,157.17284160014242,157.17284160014242,157.17284160014242,157.17284160014242,157.17284160014242,157.17284160014242,157.17284160014242,"['m', 'a', 'n', 'o']",0,"[0.5511890002526343, 0.6349365003407001, 0.7365602003410459, 0.8322713002562523]",mano,C:\2023\REPSWITCH21092023\REPSWITCH_excgange\REPSWITCH_excgange\data/290103_REPSWITCH1_version1_list3_2023-12-05_09h31.12.909_micRespv1l3_recorded\recording_micRespv1l3_2023-12-05_09h33.45.941.wav,160.201071199961,,None,160.201071199961,160.201071199961,160.201071199961,160.201071199961,160.201071199961,160.201071199961,,,,,,290103,001,2023-12-05_09h31.12.909,REPSWITCH1_version1_list3,2022.2.4,143.89627895996645,
REPSWITCH1/PICTURE_175.png,pintor,type,darkblue,nontarget,1,NT,2,2,3,1,Stim1_Set2,0,None,32,31,32,0,31,31,31,,,,,,,,,,,,,,,,,,,,,,,160.70103160012513,161.7845426001586,161.7845426001586,161.7845426001586,161.7845426001586,161.7845426001586,161.7845426001586,161.7845426001586,161.7845426001586,"['p', 'i', 'n', 't', 'o', 'r']",0,"[0.8564588003791869, 1.1285443003289402, 1.287327100057155, 1.4607381001114845, 1.5292829000391066, 1.6435495000332594]",pintor,C:\2023\REPSWITCH21092023\REPSWITCH_excgange\REPSWITCH_excgange\data/290103_REPSWITCH1_version1_list3_2023-12-05_09h31.12.909_micRespv1l3_recorded\recording_micRespv1l3_2023-12-05_09h33.50.552.wav,164.80582210002467,165.30584469996393,None,164.80582210002467,164.80582210002467,164.80582210002467,164.80582210002467,164.80582210002467,164.80582210002467,,,,,,290103,001,2023-12-05_09h31.12.909,REPSWITCH1_version1_list3,2022.2.4,143.89627895996645,
REPSWITCH1/PICTURE_175.png,pintor,speak,gold,switch,2,T,2,2,3,1,Stim1_Set2,0,None,33,32,33,0,32,32,32,,,,,,,,,,,,,,,,,,,,,,,165.30584469996393,166.34070520009845,166.34070520009845,166.34070520009845,166.34070520009845,166.34070520009845,166.34070520009845,166.34070520009845,166.34070520009845,None,0,,,C:\2023\REPSWITCH21092023\REPSWITCH_excgange\REPSWITCH_excgange\data/290103_REPSWITCH1_version1_list3_2023-12-05_09h31.12.909_micRespv1l3_recorded\recording_micRespv1l3_2023-12-05_09h33.55.107.wav,169.36189989978448,169.8619988001883,None,169.36189989978448,169.36189989978448,169.36189989978448,169.36189989978448,169.36189989978448,169.36189989978448,,,,,,290103,001,2023-12-05_09h31.12.909,REPSWITCH1_version1_list3,2022.2.4,143.89627895996645,
REPSWITCH1/PICTURE_135.png,traje,speak,gold,filler,2,F,2,2,3,1,Stim3_Set1,1,repeat,34,33,34,0,33,33,33,,,,,,,,,,,,,,,,,,,,,,,169.8619988001883,170.94547329982743,170.94547329982743,170.94547329982743,170.94547329982743,170.94547329982743,170.94547329982743,170.94547329982743,170.94547329982743,None,0,,,C:\2023\REPSWITCH21092023\REPSWITCH_excgange\REPSWITCH_excgange\data/290103_REPSWITCH1_version1_list3_2023-12-05_09h31.12.909_micRespv1l3_recorded\recording_micRespv1l3_2023-12-05_09h33.59.712.wav,173.96670929994434,174.4667711001821,None,173.96670929994434,173.96670929994434,173.96670929994434,173.96670929994434,173.96670929994434,173.96670929994434,,,,,,290103,001,2023-12-05_09h31.12.909,REPSWITCH1_version1_list3,2022.2.4,143.89627895996645,
REPSWITCH1/PICTURE_446.png,cerdo,speak,gold,nontarget,2,NT,2,2,3,1,Stim7_Set2,1,repeat,35,34,35,0,34,34,34,,,,,,,,,,,,,,,,,,,,,,,174.4667711001821,175.66142500005662,175.66142500005662,175.66142500005662,175.66142500005662,175.66142500005662,175.66142500005662,175.66142500005662,175.66142500005662,None,0,,,C:\2023\REPSWITCH21092023\REPSWITCH_excgange\REPSWITCH_excgange\data/290103_REPSWITCH1_version1_list3_2023-12-05_09h31.12.909_micRespv1l3_recorded\recording_micRespv1l3_2023-12-05_09h34.04.427.wav,178.6825954001397,179.1826725997962,None,178.6825954001397,178.6825954001397,178.6825954001397,178.6825954001397,178.6825954001397,178.6825954001397,,,,,,290103,001,2023-12-05_09h31.12.909,REPSWITCH1_version1_list3,2022.2.4,143.89627895996645,
REPSWITCH1/PICTURE_446.png,cerdo,type,darkblue,switch,1,T,2,2,3,1,Stim7_Set2,0,None,36,35,36,0,35,35,35,,,,,,,,,,,,,,,,,,,,,,,179.1826725997962,180.25225749984384,180.25225749984384,180.25225749984384,180.25225749984384,180.25225749984384,180.25225749984384,180.25225749984384,180.25225749984384,"['c', 'e', 'r', 'd', 'o']",0,"[0.6498274002224207, 0.8156185001134872, 1.3450877000577748, 1.611146700102836, 1.7188703999854624]",cerdo,C:\2023\REPSWITCH21092023\REPSWITCH_excgange\REPSWITCH_excgange\data/290103_REPSWITCH1_version1_list3_2023-12-05_09h31.12.909_micRespv1l3_recorded\recording_micRespv1l3_2023-12-05_09h34.09.020.wav,183.27352479984984,183.7736013000831,None,183.27352479984984,183.27352479984984,183.27352479984984,183.27352479984984,183.27352479984984,183.27352479984984,,,,,,290103,001,2023-12-05_09h31.12.909,REPSWITCH1_version1_list3,2022.2.4,143.89627895996645,
REPSWITCH1/PICTURE_152.png,caracol,type,darkblue,nontarget,1,NT,2,2,3,1,Stim2_Set2,1,repeat,37,36,37,0,36,36,36,,,,,,,,,,,,,,,,,,,,,,,183.7736013000831,184.82235530018806,184.82235530018806,184.82235530018806,184.82235530018806,184.82235530018806,184.82235530018806,184.82235530018806,184.82235530018806,"['c', 'a', 'r', 'a', 'c', 'o', 'l']",0,"[0.7298312000930309, 0.8304869001731277, 0.9122283002361655, 1.0238483999855816, 1.0397912999615073, 1.4121998003683984, 1.5248229000717402]",caracol,C:\2023\REPSWITCH21092023\REPSWITCH_excgange\REPSWITCH_excgange\data/290103_REPSWITCH1_version1_list3_2023-12-05_09h31.12.909_micRespv1l3_recorded\recording_micRespv1l3_2023-12-05_09h34.13.590.wav,187.85046020010486,,None,187.85046020010486,187.85046020010486,187.85046020010486,187.85046020010486,187.85046020010486,187.85046020010486,,,,,,290103,001,2023-12-05_09h31.12.909,REPSWITCH1_version1_list3,2022.2.4,143.89627895996645,
REPSWITCH1/PICTURE_152.png,caracol,speak,gold,switch,2,T,2,2,3,1,Stim2_Set2,0,None,38,37,38,0,37,37,37,,,,,,,,,,,,,,,,,,,,,,,188.350540000014,189.49655020004138,189.49655020004138,189.49655020004138,189.49655020004138,189.49655020004138,189.49655020004138,189.49655020004138,189.49655020004138,None,0,,,C:\2023\REPSWITCH21092023\REPSWITCH_excgange\REPSWITCH_excgange\data/290103_REPSWITCH1_version1_list3_2023-12-05_09h31.12.909_micRespv1l3_recorded\recording_micRespv1l3_2023-12-05_09h34.18.265.wav,192.5177611000836,193.01789110014215,None,192.5177611000836,192.5177611000836,192.5177611000836,192.5177611000836,192.5177611000836,192.5177611000836,,,,,,290103,001,2023-12-05_09h31.12.909,REPSWITCH1_version1_list3,2022.2.4,143.89627895996645,
REPSWITCH1/PICTURE_16.png,cazador,type,darkblue,filler,1,F,2,2,3,1,Stim6_Set1,0,None,39,38,39,0,38,38,38,,,,,,,,,,,,,,,,,,,,,,,193.01789110014215,194.1569218998775,194.1569218998775,194.1569218998775,194.1569218998775,194.1569218998775,194.1569218998775,194.1569218998775,194.1569218998775,"['c', 'a', 'z', 'a', 'd', 'o', 'r']",0,"[0.7462855004705489, 0.8478169003501534, 1.2593153002671897, 1.368940000422299, 1.567648600321263, 1.6990463002584875, 1.788745800498873]",cazador,C:\2023\REPSWITCH21092023\REPSWITCH_excgange\REPSWITCH_excgange\data/290103_REPSWITCH1_version1_list3_2023-12-05_09h31.12.909_micRespv1l3_recorded\recording_micRespv1l3_2023-12-05_09h34.22.925.wav,197.17807519994676,197.67816369980574,None,197.17807519994676,197.17807519994676,197.17807519994676,197.17807519994676,197.17807519994676,197.17807519994676,,,,,,290103,001,2023-12-05_09h31.12.909,REPSWITCH1_version1_list3,2022.2.4,143.89627895996645,
REPSWITCH1/PICTURE_381.png,fresa,speak,gold,filler,2,F,2,2,3,1,Stim2_Set1,0,None,40,39,40,0,39,39,39,,,,,,,,,,,,,,,,,,,,,,,197.67816369980574,198.85884900018573,198.85884900018573,198.85884900018573,198.85884900018573,198.85884900018573,198.85884900018573,198.85884900018573,198.85884900018573,None,0,,,C:\2023\REPSWITCH21092023\REPSWITCH_excgange\REPSWITCH_excgange\data/290103_REPSWITCH1_version1_list3_2023-12-05_09h31.12.909_micRespv1l3_recorded\recording_micRespv1l3_2023-12-05_09h34.27.626.wav,201.88704309985042,,None,201.88704309985042,201.88704309985042,201.88704309985042,201.88704309985042,201.88704309985042,201.88704309985042,,,,,,290103,001,2023-12-05_09h31.12.909,REPSWITCH1_version1_list3,2022.2.4,143.89627895996645,
REPSWITCH1/PICTURE_19.png,pavo,type,darkblue,filler,1,F,2,2,3,1,Stim5_Set1,0,None,41,40,41,0,40,40,40,,,,,,,,,,,,,,,,,,,,,,,202.38711229991168,203.42889779992402,203.42889779992402,203.42889779992402,203.42889779992402,203.42889779992402,203.42889779992402,203.42889779992402,203.42889779992402,"['p', 'a', 'v', 'o']",0,"[0.781197200063616, 0.8620039001107216, 1.1025035004131496, 1.3247852004133165]",pavo,C:\2023\REPSWITCH21092023\REPSWITCH_excgange\REPSWITCH_excgange\data/290103_REPSWITCH1_version1_list3_2023-12-05_09h31.12.909_micRespv1l3_recorded\recording_micRespv1l3_2023-12-05_09h34.32.196.wav,206.45710110012442,,None,206.45710110012442,206.45710110012442,206.45710110012442,206.45710110012442,206.45710110012442,206.45710110012442,,,,,,290103,001,2023-12-05_09h31.12.909,REPSWITCH1_version1_list3,2022.2.4,143.89627895996645,
REPSWITCH1/PICTURE_517.png,cuerda,speak,gold,nontarget,2,NT,2,2,3,1,Stim4_Set2,1,switch,42,41,42,0,41,41,41,,,,,,,,,,,,,,,,,,,,,,,206.9572199000977,208.0129320998676,208.0129320998676,208.0129320998676,208.0129320998676,208.0129320998676,208.0129320998676,208.0129320998676,208.0129320998676,None,0,,,C:\2023\REPSWITCH21092023\REPSWITCH_excgange\REPSWITCH_excgange\data/290103_REPSWITCH1_version1_list3_2023-12-05_09h31.12.909_micRespv1l3_recorded\recording_micRespv1l3_2023-12-05_09h34.36.781.wav,211.04100799979642,,None,211.04100799979642,211.04100799979642,211.04100799979642,211.04100799979642,211.04100799979642,211.04100799979642,,,,,,290103,001,2023-12-05_09h31.12.909,REPSWITCH1_version1_list3,2022.2.4,143.89627895996645,
REPSWITCH1/PICTURE_517.png,cuerda,speak,gold,repeat,2,T,2,2,3,1,Stim4_Set2,0,None,43,42,43,0,42,42,42,,,,,,,,,,,,,,,,,,,,,,,211.5410954002291,212.5829688999802,212.5829688999802,212.5829688999802,212.5829688999802,212.5829688999802,212.5829688999802,212.5829688999802,212.5829688999802,None,0,,,C:\2023\REPSWITCH21092023\REPSWITCH_excgange\REPSWITCH_excgange\data/290103_REPSWITCH1_version1_list3_2023-12-05_09h31.12.909_micRespv1l3_recorded\recording_micRespv1l3_2023-12-05_09h34.41.350.wav,215.60419180011377,216.1042657000944,None,215.60419180011377,215.60419180011377,215.60419180011377,215.60419180011377,215.60419180011377,215.60419180011377,,,,,,290103,001,2023-12-05_09h31.12.909,REPSWITCH1_version1_list3,2022.2.4,143.89627895996645,
REPSWITCH1/PICTURE_178.png,puente,type,darkblue,filler,1,F,2,2,3,1,Stim1_Set1,0,None,44,43,44,0,43,43,43,,,,,,,,,,,,,,,,,,,,,,,216.1042657000944,217.15300260018557,217.15300260018557,217.15300260018557,217.15300260018557,217.15300260018557,217.15300260018557,217.15300260018557,217.15300260018557,"['p', 'u', 'e', 'w', 'n', 'e', 'backspace', 'backspace']",0,"[1.1970355003140867, 1.5017550000920892, 1.6841267002746463, 1.6851588003337383, 1.7081128000281751, 2.0313014001585543, 2.817479600198567, 2.9540221001952887]",puw,C:\2023\REPSWITCH21092023\REPSWITCH_excgange\REPSWITCH_excgange\data/290103_REPSWITCH1_version1_list3_2023-12-05_09h31.12.909_micRespv1l3_recorded\recording_micRespv1l3_2023-12-05_09h34.45.920.wav,220.17418010020629,220.6742890998721,None,220.17418010020629,220.17418010020629,220.17418010020629,220.17418010020629,220.17418010020629,220.17418010020629,,,,,,290103,001,2023-12-05_09h31.12.909,REPSWITCH1_version1_list3,2022.2.4,143.89627895996645,
REPSWITCH1/PICTURE_199.png,falda,speak,gold,nontarget,2,NT,2,2,3,1,Stim8_Set2,1,switch,45,44,45,0,44,44,44,,,,,,,,,,,,,,,,,,,,,,,220.6742890998721,221.84112640004605,221.84112640004605,221.84112640004605,221.84112640004605,221.84112640004605,221.84112640004605,221.84112640004605,221.84112640004605,None,0,,,C:\2023\REPSWITCH21092023\REPSWITCH_excgange\REPSWITCH_excgange\data/290103_REPSWITCH1_version1_list3_2023-12-05_09h31.12.909_micRespv1l3_recorded\recording_micRespv1l3_2023-12-05_09h34.50.609.wav,224.8692144001834,,None,224.8692144001834,224.8692144001834,224.8692144001834,224.8692144001834,224.8692144001834,224.8692144001834,,,,,,290103,001,2023-12-05_09h31.12.909,REPSWITCH1_version1_list3,2022.2.4,143.89627895996645,
REPSWITCH1/PICTURE_199.png,falda,speak,gold,repeat,2,T,2,2,3,1,Stim8_Set2,0,None,46,45,46,0,45,45,45,,,,,,,,,,,,,,,,,,,,,,,225.36927649984136,226.5639177998528,226.5639177998528,226.5639177998528,226.5639177998528,226.5639177998528,226.5639177998528,226.5639177998528,226.5639177998528,None,0,,,C:\2023\REPSWITCH21092023\REPSWITCH_excgange\REPSWITCH_excgange\data/290103_REPSWITCH1_version1_list3_2023-12-05_09h31.12.909_micRespv1l3_recorded\recording_micRespv1l3_2023-12-05_09h34.55.331.wav,229.58517709979787,230.08516919985414,None,229.58517709979787,229.58517709979787,229.58517709979787,229.58517709979787,229.58517709979787,229.58517709979787,,,,,,290103,001,2023-12-05_09h31.12.909,REPSWITCH1_version1_list3,2022.2.4,143.89627895996645,
REPSWITCH1/PICTURE_169.png,espalda,type,darkblue,filler,1,F,2,2,3,1,Stim8_Set1,0,None,47,46,47,0,46,46,46,,,,,,,,,,,,,,,,,,,,,,,230.08516919985414,231.18255109991878,231.18255109991878,231.18255109991878,231.18255109991878,231.18255109991878,231.18255109991878,231.18255109991878,231.18255109991878,"['e', 's', 'p', 'a', 'l', 'd', 'a']",0,"[0.7963557001203299, 1.0095999003387988, 1.1479373001493514, 1.230750999879092, 1.3283200999721885, 1.4578471002168953, 1.6711706002242863]",espalda,C:\2023\REPSWITCH21092023\REPSWITCH_excgange\REPSWITCH_excgange\data/290103_REPSWITCH1_version1_list3_2023-12-05_09h31.12.909_micRespv1l3_recorded\recording_micRespv1l3_2023-12-05_09h34.59.949.wav,234.20380769995973,234.70386830018833,None,234.20380769995973,234.20380769995973,234.20380769995973,234.20380769995973,234.20380769995973,234.20380769995973,,,,,,290103,001,2023-12-05_09h31.12.909,REPSWITCH1_version1_list3,2022.2.4,143.89627895996645,
REPSWITCH1/PICTURE_142.png,vaso,speak,gold,filler,2,F,2,2,3,1,Stim7_Set1,0,None,48,47,48,0,47,47,47,,,,,,,,,,,,,,,,,,,,,,,234.70386830018833,235.80820070020854,235.80820070020854,235.80820070020854,235.80820070020854,235.80820070020854,235.80820070020854,235.80820070020854,235.80820070020854,None,0,,,C:\2023\REPSWITCH21092023\REPSWITCH_excgange\REPSWITCH_excgange\data/290103_REPSWITCH1_version1_list3_2023-12-05_09h31.12.909_micRespv1l3_recorded\recording_micRespv1l3_2023-12-05_09h35.04.575.wav,238.82938210014254,239.3294751998037,None,238.82938210014254,238.82938210014254,238.82938210014254,238.82938210014254,238.82938210014254,238.82938210014254,,,,,,290103,001,2023-12-05_09h31.12.909,REPSWITCH1_version1_list3,2022.2.4,143.89627895996645,
REPSWITCH1/PICTURE_552.png,manzana,speak,gold,nontarget,2,NT,2,2,3,1,Stim6_Set2,0,None,49,48,49,0,48,48,48,,,,,,,,,,,,,,,,,,,,,,,239.3294751998037,240.51020029978827,240.51020029978827,240.51020029978827,240.51020029978827,240.51020029978827,240.51020029978827,240.51020029978827,240.51020029978827,None,0,,,C:\2023\REPSWITCH21092023\REPSWITCH_excgange\REPSWITCH_excgange\data/290103_REPSWITCH1_version1_list3_2023-12-05_09h31.12.909_micRespv1l3_recorded\recording_micRespv1l3_2023-12-05_09h35.09.277.wav,243.5313967000693,244.031549599953,None,243.5313967000693,243.5313967000693,243.5313967000693,243.5313967000693,243.5313967000693,243.5313967000693,,,,,,290103,001,2023-12-05_09h31.12.909,REPSWITCH1_version1_list3,2022.2.4,143.89627895996645,
REPSWITCH1/PICTURE_552.png,manzana,type,darkblue,switch,1,T,2,2,3,1,Stim6_Set2,0,None,50,49,50,0,49,49,49,,,,,,,,,,,,,,,,,,,,,,,244.031549599953,245.15665940009058,245.15665940009058,245.15665940009058,245.15665940009058,245.15665940009058,245.15665940009058,245.15665940009058,245.15665940009058,"['m', 'a', 'n', 'z', 'a', 'n', 'a']",0,"[0.886111999861896, 1.0336366998963058, 1.0874573001638055, 1.387887999881059, 1.5054889000020921, 1.6500590001232922, 1.7277357000857592]",manzana,C:\2023\REPSWITCH21092023\REPSWITCH_excgange\REPSWITCH_excgange\data/290103_REPSWITCH1_version1_list3_2023-12-05_09h31.12.909_micRespv1l3_recorded\recording_micRespv1l3_2023-12-05_09h35.13.923.wav,248.17786240018904,248.6779984999448,None,248.17786240018904,248.17786240018904,248.17786240018904,248.17786240018904,248.17786240018904,248.17786240018904,,,,,,290103,001,2023-12-05_09h31.12.909,REPSWITCH1_version1_list3,2022.2.4,143.89627895996645,
REPSWITCH1/PICTURE_590.png,escoba,speak,gold,filler,2,F,1,2,3,1,Extra3,0,None,51,50,51,0,50,50,50,,,,,,,,,,,,,,,,,,,,,,,248.6779984999448,249.7892048000358,249.7892048000358,249.7892048000358,249.7892048000358,249.7892048000358,249.7892048000358,249.7892048000358,249.7892048000358,None,0,,,C:\2023\REPSWITCH21092023\REPSWITCH_excgange\REPSWITCH_excgange\data/290103_REPSWITCH1_version1_list3_2023-12-05_09h31.12.909_micRespv1l3_recorded\recording_micRespv1l3_2023-12-05_09h35.18.557.wav,252.8173540001735,,space,252.8173540001735,252.8173540001735,252.8173540001735,252.8173540001735,252.8173540001735,252.8173540001735,253.31739760003984,253.31739760003984,1.9506402001716197,,,290103,001,2023-12-05_09h31.12.909,REPSWITCH1_version1_list3,2022.2.4,143.89627895996645,
REPSWITCH1/PICTURE_552.png,manzana,type,darkblue,filler,1,F,3,2,3,1,Stim6_Set2,0,None,52,51,52,0,51,51,51,,,,,,,,,,,,,,,,,,,,,,,255.27601590007544,256.46369510004297,256.46369510004297,256.46369510004297,256.46369510004297,256.46369510004297,256.46369510004297,256.46369510004297,256.46369510004297,"['m', 'a', 'n', 'z', 'a', 'n', 'a']",0,"[0.7993232002481818, 0.8800363000482321, 0.9610631000250578, 1.0949094998650253, 1.2496552001684904, 1.3333708001300693, 1.4091850998811424]",manzana,C:\2023\REPSWITCH21092023\REPSWITCH_excgange\REPSWITCH_excgange\data/290103_REPSWITCH1_version1_list3_2023-12-05_09h31.12.909_micRespv1l3_recorded\recording_micRespv1l3_2023-12-05_09h35.25.230.wav,259.4849057001993,259.98497510002926,None,259.4849057001993,259.4849057001993,259.4849057001993,259.4849057001993,259.4849057001993,259.4849057001993,,,,,,290103,001,2023-12-05_09h31.12.909,REPSWITCH1_version1_list3,2022.2.4,143.89627895996645,
REPSWITCH1/PICTURE_464.png,goma,type,darkblue,nontarget,1,NT,3,2,3,1,Stim6_Set3,1,repeat,53,52,53,0,52,52,52,,,,,,,,,,,,,,,,,,,,,,,259.98497510002926,261.172653300222,261.172653300222,261.172653300222,261.172653300222,261.172653300222,261.172653300222,261.172653300222,261.172653300222,"['g', 'o', 'm', 'a']",0,"[0.7733316998928785, 1.1553206001408398, 1.2747112000361085, 1.4045092002488673]",goma,C:\2023\REPSWITCH21092023\REPSWITCH_excgange\REPSWITCH_excgange\data/290103_REPSWITCH1_version1_list3_2023-12-05_09h31.12.909_micRespv1l3_recorded\recording_micRespv1l3_2023-12-05_09h35.29.940.wav,264.19388990011066,264.6939325002022,None,264.19388990011066,264.19388990011066,264.19388990011066,264.19388990011066,264.19388990011066,264.19388990011066,,,,,,290103,001,2023-12-05_09h31.12.909,REPSWITCH1_version1_list3,2022.2.4,143.89627895996645,
REPSWITCH1/PICTURE_464.png,goma,speak,gold,switch,2,T,3,2,3,1,Stim6_Set3,0,None,54,53,54,0,53,53,53,,,,,,,,,,,,,,,,,,,,,,,264.6939325002022,265.7913453998044,265.7913453998044,265.7913453998044,265.7913453998044,265.7913453998044,265.7913453998044,265.7913453998044,265.7913453998044,None,0,,,C:\2023\REPSWITCH21092023\REPSWITCH_excgange\REPSWITCH_excgange\data/290103_REPSWITCH1_version1_list3_2023-12-05_09h31.12.909_micRespv1l3_recorded\recording_micRespv1l3_2023-12-05_09h35.34.559.wav,268.81252569984645,269.31258569983765,None,268.81252569984645,268.81252569984645,268.81252569984645,268.81252569984645,268.81252569984645,268.81252569984645,,,,,,290103,001,2023-12-05_09h31.12.909,REPSWITCH1_version1_list3,2022.2.4,143.89627895996645,
REPSWITCH1/PICTURE_30.png,granja,speak,gold,filler,2,F,3,2,3,1,Stim5_Set2,0,None,55,54,55,0,54,54,54,,,,,,,,,,,,,,,,,,,,,,,269.31258569983765,270.59057419979945,270.59057419979945,270.59057419979945,270.59057419979945,270.59057419979945,270.59057419979945,270.59057419979945,270.59057419979945,None,0,,,C:\2023\REPSWITCH21092023\REPSWITCH_excgange\REPSWITCH_excgange\data/290103_REPSWITCH1_version1_list3_2023-12-05_09h31.12.909_micRespv1l3_recorded\recording_micRespv1l3_2023-12-05_09h35.39.357.wav,273.6117719998583,274.11182710016146,None,273.6117719998583,273.6117719998583,273.6117719998583,273.6117719998583,273.6117719998583,273.6117719998583,,,,,,290103,001,2023-12-05_09h31.12.909,REPSWITCH1_version1_list3,2022.2.4,143.89627895996645,
REPSWITCH1/PICTURE_235.png,aguja,speak,gold,nontarget,2,NT,3,2,3,1,Stim4_Set3,1,repeat,56,55,56,0,55,55,55,,,,,,,,,,,,,,,,,,,,,,,274.11182710016146,275.2439024997875,275.2439024997875,275.2439024997875,275.2439024997875,275.2439024997875,275.2439024997875,275.2439024997875,275.2439024997875,None,0,,,C:\2023\REPSWITCH21092023\REPSWITCH_excgange\REPSWITCH_excgange\data/290103_REPSWITCH1_version1_list3_2023-12-05_09h31.12.909_micRespv1l3_recorded\recording_micRespv1l3_2023-12-05_09h35.44.011.wav,278.2651563999243,278.76519009983167,None,278.2651563999243,278.2651563999243,278.2651563999243,278.2651563999243,278.2651563999243,278.2651563999243,,,,,,290103,001,2023-12-05_09h31.12.909,REPSWITCH1_version1_list3,2022.2.4,143.89627895996645,
REPSWITCH1/PICTURE_235.png,aguja,type,darkblue,switch,1,T,3,2,3,1,Stim4_Set3,0,None,57,56,57,0,56,56,56,,,,,,,,,,,,,,,,,,,,,,,278.76519009983167,279.8278490998782,279.8278490998782,279.8278490998782,279.8278490998782,279.8278490998782,279.8278490998782,279.8278490998782,279.8278490998782,"['a', 'g', 'u', 'j', 'a']",0,"[0.8743805000558496, 1.1125662000849843, 1.1900062002241611, 1.3976723002269864, 1.482373600360006]",aguja,C:\2023\REPSWITCH21092023\REPSWITCH_excgange\REPSWITCH_excgange\data/290103_REPSWITCH1_version1_list3_2023-12-05_09h31.12.909_micRespv1l3_recorded\recording_micRespv1l3_2023-12-05_09h35.48.596.wav,282.8490674998611,283.3491424000822,None,282.8490674998611,282.8490674998611,282.8490674998611,282.8490674998611,282.8490674998611,282.8490674998611,,,,,,290103,001,2023-12-05_09h31.12.909,REPSWITCH1_version1_list3,2022.2.4,143.89627895996645,
REPSWITCH1/PICTURE_391.png,cadena,type,darkblue,filler,1,F,3,2,3,1,Extra2,0,None,58,57,58,0,57,57,57,,,,,,,,,,,,,,,,,,,,,,,283.3491424000822,284.5368127999827,284.5368127999827,284.5368127999827,284.5368127999827,284.5368127999827,284.5368127999827,284.5368127999827,284.5368127999827,"['c', 'a', 'd', 'e', 'n', 'a']",0,"[1.0097809000872076, 1.21209179982543, 1.5321412002667785, 1.6336086001247168, 1.7601299001835287, 1.888693300075829]",cadena,C:\2023\REPSWITCH21092023\REPSWITCH_excgange\REPSWITCH_excgange\data/290103_REPSWITCH1_version1_list3_2023-12-05_09h31.12.909_micRespv1l3_recorded\recording_micRespv1l3_2023-12-05_09h35.53.304.wav,287.5580200999975,288.0581112001091,None,287.5580200999975,287.5580200999975,287.5580200999975,287.5580200999975,287.5580200999975,287.5580200999975,,,,,,290103,001,2023-12-05_09h31.12.909,REPSWITCH1_version1_list3,2022.2.4,143.89627895996645,
REPSWITCH1/PICTURE_320.png,iglesia,type,darkblue,nontarget,1,NT,3,2,3,1,Stim8_Set3,0,None,59,58,59,0,58,58,58,,,,,,,,,,,,,,,,,,,,,,,288.0581112001091,289.11378839984536,289.11378839984536,289.11378839984536,289.11378839984536,289.11378839984536,289.11378839984536,289.11378839984536,289.11378839984536,"['e', 'backspace', 'i', 'g', 'l', 'e', 's', 'i', 'a']",0,"[1.0562234004028141, 1.5034470004029572, 1.8333421000279486, 2.0168113000690937, 2.2338491999544203, 2.3239121004007757, 2.500140900257975, 2.582864200230688, 2.6615691003389657]",iglesia,C:\2023\REPSWITCH21092023\REPSWITCH_excgange\REPSWITCH_excgange\data/290103_REPSWITCH1_version1_list3_2023-12-05_09h31.12.909_micRespv1l3_recorded\recording_micRespv1l3_2023-12-05_09h35.57.882.wav,292.1419464000501,,None,292.1419464000501,292.1419464000501,292.1419464000501,292.1419464000501,292.1419464000501,292.1419464000501,,,,,,290103,001,2023-12-05_09h31.12.909,REPSWITCH1_version1_list3,2022.2.4,143.89627895996645,
REPSWITCH1/PICTURE_320.png,iglesia,speak,gold,switch,2,T,3,2,3,1,Stim8_Set3,0,None,60,59,60,0,59,59,59,,,,,,,,,,,,,,,,,,,,,,,292.64206899981946,293.76719640009105,293.76719640009105,293.76719640009105,293.76719640009105,293.76719640009105,293.76719640009105,293.76719640009105,293.76719640009105,None,0,,,C:\2023\REPSWITCH21092023\REPSWITCH_excgange\REPSWITCH_excgange\data/290103_REPSWITCH1_version1_list3_2023-12-05_09h31.12.909_micRespv1l3_recorded\recording_micRespv1l3_2023-12-05_09h36.02.534.wav,296.7884228997864,297.2884893999435,None,296.7884228997864,296.7884228997864,296.7884228997864,296.7884228997864,296.7884228997864,296.7884228997864,,,,,,290103,001,2023-12-05_09h31.12.909,REPSWITCH1_version1_list3,2022.2.4,143.89627895996645,
REPSWITCH1/PICTURE_175.png,pintor,type,darkblue,filler,1,F,3,2,3,1,Stim1_Set2,0,None,61,60,61,0,60,60,60,,,,,,,,,,,,,,,,,,,,,,,297.2884893999435,298.3511111000553,298.3511111000553,298.3511111000553,298.3511111000553,298.3511111000553,298.3511111000553,298.3511111000553,298.3511111000553,"['p', 'i', 'n', 't', 'o', 'r']",0,"[0.9265997000038624, 1.171664500143379, 1.2925437004305422, 1.4809080003760755, 1.5616351002827287, 1.6832399000413716]",pintor,C:\2023\REPSWITCH21092023\REPSWITCH_excgange\REPSWITCH_excgange\data/290103_REPSWITCH1_version1_list3_2023-12-05_09h31.12.909_micRespv1l3_recorded\recording_micRespv1l3_2023-12-05_09h36.07.118.wav,301.37935010017827,,None,301.37935010017827,301.37935010017827,301.37935010017827,301.37935010017827,301.37935010017827,301.37935010017827,,,,,,290103,001,2023-12-05_09h31.12.909,REPSWITCH1_version1_list3,2022.2.4,143.89627895996645,
REPSWITCH1/PICTURE_271.png,conejo,speak,gold,nontarget,2,NT,3,2,3,1,Stim7_Set3,1,switch,62,61,62,0,61,61,61,,,,,,,,,,,,,,,,,,,,,,,301.87934619979933,302.88642290001735,302.88642290001735,302.88642290001735,302.88642290001735,302.88642290001735,302.88642290001735,302.88642290001735,302.88642290001735,None,0,,,C:\2023\REPSWITCH21092023\REPSWITCH_excgange\REPSWITCH_excgange\data/290103_REPSWITCH1_version1_list3_2023-12-05_09h31.12.909_micRespv1l3_recorded\recording_micRespv1l3_2023-12-05_09h36.11.655.wav,305.9147010999732,,None,305.9147010999732,305.9147010999732,305.9147010999732,305.9147010999732,305.9147010999732,305.9147010999732,,,,,,290103,001,2023-12-05_09h31.12.909,REPSWITCH1_version1_list3,2022.2.4,143.89627895996645,
REPSWITCH1/PICTURE_271.png,conejo,speak,gold,repeat,2,T,3,2,3,1,Stim7_Set3,0,None,63,62,63,0,62,62,62,,,,,,,,,,,,,,,,,,,,,,,306.41469440003857,307.54680200014263,307.54680200014263,307.54680200014263,307.54680200014263,307.54680200014263,307.54680200014263,307.54680200014263,307.54680200014263,None,0,,,C:\2023\REPSWITCH21092023\REPSWITCH_excgange\REPSWITCH_excgange\data/290103_REPSWITCH1_version1_list3_2023-12-05_09h31.12.909_micRespv1l3_recorded\recording_micRespv1l3_2023-12-05_09h36.16.315.wav,310.57496690005064,,None,310.57496690005064,310.57496690005064,310.57496690005064,310.57496690005064,310.57496690005064,310.57496690005064,,,,,,290103,001,2023-12-05_09h31.12.909,REPSWITCH1_version1_list3,2022.2.4,143.89627895996645,
REPSWITCH1/PICTURE_446.png,cerdo,speak,gold,filler,2,F,3,2,3,1,Stim7_Set2,0,None,64,63,64,0,63,63,63,,,,,,,,,,,,,,,,,,,,,,,311.07502300012857,312.15848740004003,312.15848740004003,312.15848740004003,312.15848740004003,312.15848740004003,312.15848740004003,312.15848740004003,312.15848740004003,None,0,,,C:\2023\REPSWITCH21092023\REPSWITCH_excgange\REPSWITCH_excgange\data/290103_REPSWITCH1_version1_list3_2023-12-05_09h31.12.909_micRespv1l3_recorded\recording_micRespv1l3_2023-12-05_09h36.20.925.wav,315.1797013999894,315.67983460007235,None,315.1797013999894,315.1797013999894,315.1797013999894,315.1797013999894,315.1797013999894,315.1797013999894,,,,,,290103,001,2023-12-05_09h31.12.909,REPSWITCH1_version1_list3,2022.2.4,143.89627895996645,
REPSWITCH1/PICTURE_152.png,caracol,type,darkblue,filler,1,F,3,2,3,1,Stim2_Set2,0,None,65,64,65,0,64,64,64,,,,,,,,,,,,,,,,,,,,,,,315.67983460007235,316.7563343998045,316.7563343998045,316.7563343998045,316.7563343998045,316.7563343998045,316.7563343998045,316.7563343998045,316.7563343998045,"['c', 'a', 'r', 'a', 'c', 'o', 'l']",0,"[0.5656222002580762, 0.8357976004481316, 0.9970346004702151, 1.1066551003605127, 1.1754253003746271, 1.6021187002770603, 1.7318544001318514]",caracol,C:\2023\REPSWITCH21092023\REPSWITCH_excgange\REPSWITCH_excgange\data/290103_REPSWITCH1_version1_list3_2023-12-05_09h31.12.909_micRespv1l3_recorded\recording_micRespv1l3_2023-12-05_09h36.25.523.wav,319.78455770015717,,None,319.78455770015717,319.78455770015717,319.78455770015717,319.78455770015717,319.78455770015717,319.78455770015717,,,,,,290103,001,2023-12-05_09h31.12.909,REPSWITCH1_version1_list3,2022.2.4,143.89627895996645,
REPSWITCH1/PICTURE_576.png,guante,speak,gold,nontarget,2,NT,3,2,3,1,Stim1_Set3,1,switch,66,65,66,0,65,65,65,,,,,,,,,,,,,,,,,,,,,,,320.28457419993356,321.3680274002254,321.3680274002254,321.3680274002254,321.3680274002254,321.3680274002254,321.3680274002254,321.3680274002254,321.3680274002254,None,0,,,C:\2023\REPSWITCH21092023\REPSWITCH_excgange\REPSWITCH_excgange\data/290103_REPSWITCH1_version1_list3_2023-12-05_09h31.12.909_micRespv1l3_recorded\recording_micRespv1l3_2023-12-05_09h36.30.135.wav,324.3962051002309,,None,324.3962051002309,324.3962051002309,324.3962051002309,324.3962051002309,324.3962051002309,324.3962051002309,,,,,,290103,001,2023-12-05_09h31.12.909,REPSWITCH1_version1_list3,2022.2.4,143.89627895996645,
REPSWITCH1/PICTURE_576.png,guante,speak,gold,repeat,2,T,3,2,3,1,Stim1_Set3,0,None,67,66,67,0,66,66,66,,,,,,,,,,,,,,,,,,,,,,,324.89626470021904,326.00058689992875,326.00058689992875,326.00058689992875,326.00058689992875,326.00058689992875,326.00058689992875,326.00058689992875,326.00058689992875,None,0,,,C:\2023\REPSWITCH21092023\REPSWITCH_excgange\REPSWITCH_excgange\data/290103_REPSWITCH1_version1_list3_2023-12-05_09h31.12.909_micRespv1l3_recorded\recording_micRespv1l3_2023-12-05_09h36.34.768.wav,329.0218389001675,329.5219084001146,None,329.0218389001675,329.0218389001675,329.0218389001675,329.0218389001675,329.0218389001675,329.0218389001675,,,,,,290103,001,2023-12-05_09h31.12.909,REPSWITCH1_version1_list3,2022.2.4,143.89627895996645,
REPSWITCH1/PICTURE_242.png,cartero,speak,gold,nontarget,2,NT,3,2,3,1,Stim3_Set3,0,None,68,67,68,0,67,67,67,,,,,,,,,,,,,,,,,,,,,,,329.5219084001146,330.6817656001076,330.6817656001076,330.6817656001076,330.6817656001076,330.6817656001076,330.6817656001076,330.6817656001076,330.6817656001076,None,0,,,C:\2023\REPSWITCH21092023\REPSWITCH_excgange\REPSWITCH_excgange\data/290103_REPSWITCH1_version1_list3_2023-12-05_09h31.12.909_micRespv1l3_recorded\recording_micRespv1l3_2023-12-05_09h36.39.449.wav,333.7099898001179,,None,333.7099898001179,333.7099898001179,333.7099898001179,333.7099898001179,333.7099898001179,333.7099898001179,,,,,,290103,001,2023-12-05_09h31.12.909,REPSWITCH1_version1_list3,2022.2.4,143.89627895996645,
REPSWITCH1/PICTURE_242.png,cartero,type,darkblue,switch,1,T,3,2,3,1,Stim3_Set3,0,None,69,68,69,0,68,68,68,,,,,,,,,,,,,,,,,,,,,,,334.21008960017934,335.34215170005336,335.34215170005336,335.34215170005336,335.34215170005336,335.34215170005336,335.34215170005336,335.34215170005336,335.34215170005336,"['c', 'a', 'r', 't', 'e', 'r', 'o']",0,"[0.8945954004302621, 0.9842836004681885, 1.0790321002714336, 1.2055338001810014, 1.2952139005064964, 1.4461166001856327, 1.5766680003143847]",cartero,C:\2023\REPSWITCH21092023\REPSWITCH_excgange\REPSWITCH_excgange\data/290103_REPSWITCH1_version1_list3_2023-12-05_09h31.12.909_micRespv1l3_recorded\recording_micRespv1l3_2023-12-05_09h36.44.109.wav,338.36331690009683,338.86337100015953,None,338.36331690009683,338.36331690009683,338.36331690009683,338.36331690009683,338.36331690009683,338.36331690009683,,,,,,290103,001,2023-12-05_09h31.12.909,REPSWITCH1_version1_list3,2022.2.4,143.89627895996645,
REPSWITCH1/PICTURE_517.png,cuerda,speak,gold,filler,2,F,3,2,3,1,Stim4_Set2,0,None,70,69,70,0,69,69,69,,,,,,,,,,,,,,,,,,,,,,,338.86337100015953,339.94688310008496,339.94688310008496,339.94688310008496,339.94688310008496,339.94688310008496,339.94688310008496,339.94688310008496,339.94688310008496,None,0,,,C:\2023\REPSWITCH21092023\REPSWITCH_excgange\REPSWITCH_excgange\data/290103_REPSWITCH1_version1_list3_2023-12-05_09h31.12.909_micRespv1l3_recorded\recording_micRespv1l3_2023-12-05_09h36.48.715.wav,342.97512570023537,,None,342.97512570023537,342.97512570023537,342.97512570023537,342.97512570023537,342.97512570023537,342.97512570023537,,,,,,290103,001,2023-12-05_09h31.12.909,REPSWITCH1_version1_list3,2022.2.4,143.89627895996645,
REPSWITCH1/PICTURE_646.png,tronco,type,darkblue,filler,1,F,3,2,3,1,Extra4,0,None,71,70,71,0,70,70,70,,,,,,,,,,,,,,,,,,,,,,,343.4751196000725,344.5516432998702,344.5516432998702,344.5516432998702,344.5516432998702,344.5516432998702,344.5516432998702,344.5516432998702,344.5516432998702,"['t', 'r', 'o', 'n', 'c', 'o']",0,"[0.7595271002501249, 0.9657616000622511, 1.1920896004885435, 1.3086265004239976, 1.4840398002415895, 1.6089920001104474]",tronco,C:\2023\REPSWITCH21092023\REPSWITCH_excgange\REPSWITCH_excgange\data/290103_REPSWITCH1_version1_list3_2023-12-05_09h31.12.909_micRespv1l3_recorded\recording_micRespv1l3_2023-12-05_09h36.53.320.wav,347.5798168000765,,None,347.5798168000765,347.5798168000765,347.5798168000765,347.5798168000765,347.5798168000765,347.5798168000765,,,,,,290103,001,2023-12-05_09h31.12.909,REPSWITCH1_version1_list3,2022.2.4,143.89627895996645,
REPSWITCH1/PICTURE_35.png,oreja,type,darkblue,nontarget,1,NT,3,2,3,1,Stim5_Set3,1,repeat,72,71,72,0,71,71,71,,,,,,,,,,,,,,,,,,,,,,,348.0798963000998,349.24669420020655,349.24669420020655,349.24669420020655,349.24669420020655,349.24669420020655,349.24669420020655,349.24669420020655,349.24669420020655,"['o', 'r', 'e', 'j', 'a']",0,"[0.9123758999630809, 1.093290800228715, 1.2899635001085699, 1.4316503000445664, 1.5362419001758099]",oreja,C:\2023\REPSWITCH21092023\REPSWITCH_excgange\REPSWITCH_excgange\data/290103_REPSWITCH1_version1_list3_2023-12-05_09h31.12.909_micRespv1l3_recorded\recording_micRespv1l3_2023-12-05_09h36.58.015.wav,352.27496280008927,,None,352.27496280008927,352.27496280008927,352.27496280008927,352.27496280008927,352.27496280008927,352.27496280008927,,,,,,290103,001,2023-12-05_09h31.12.909,REPSWITCH1_version1_list3,2022.2.4,143.89627895996645,
REPSWITCH1/PICTURE_35.png,oreja,type,darkblue,repeat,1,T,3,2,3,1,Stim5_Set3,0,None,73,72,73,0,72,72,72,,,,,,,,,,,,,,,,,,,,,,,352.7749605998397,353.87933100014925,353.87933100014925,353.87933100014925,353.87933100014925,353.87933100014925,353.87933100014925,353.87933100014925,353.87933100014925,"['o', 'r', 'e', 'j', 'a']",0,"[0.6230231001973152, 0.7731035002507269, 0.9371608002111316, 1.0591104999184608, 1.1737399999983609]",oreja,C:\2023\REPSWITCH21092023\REPSWITCH_excgange\REPSWITCH_excgange\data/290103_REPSWITCH1_version1_list3_2023-12-05_09h31.12.909_micRespv1l3_recorded\recording_micRespv1l3_2023-12-05_09h37.02.646.wav,356.90051459986717,357.40055820019916,None,356.90051459986717,356.90051459986717,356.90051459986717,356.90051459986717,356.90051459986717,356.90051459986717,,,,,,290103,001,2023-12-05_09h31.12.909,REPSWITCH1_version1_list3,2022.2.4,143.89627895996645,
REPSWITCH1/PICTURE_199.png,falda,speak,gold,filler,2,F,3,2,3,1,Stim8_Set2,0,None,74,73,74,0,73,73,73,,,,,,,,,,,,,,,,,,,,,,,357.40055820019916,358.4631986999884,358.4631986999884,358.4631986999884,358.4631986999884,358.4631986999884,358.4631986999884,358.4631986999884,358.4631986999884,None,0,,,C:\2023\REPSWITCH21092023\REPSWITCH_excgange\REPSWITCH_excgange\data/290103_REPSWITCH1_version1_list3_2023-12-05_09h31.12.909_micRespv1l3_recorded\recording_micRespv1l3_2023-12-05_09h37.07.231.wav,361.4844031999819,361.9845047998242,None,361.4844031999819,361.4844031999819,361.4844031999819,361.4844031999819,361.4844031999819,361.4844031999819,,,,,,290103,001,2023-12-05_09h31.12.909,REPSWITCH1_version1_list3,2022.2.4,143.89627895996645,
REPSWITCH1/PICTURE_610.png,miel,type,darkblue,nontarget,1,NT,3,2,3,1,Stim2_Set3,1,switch,75,74,75,0,74,74,74,,,,,,,,,,,,,,,,,,,,,,,361.9845047998242,362.99851449998096,362.99851449998096,362.99851449998096,362.99851449998096,362.99851449998096,362.99851449998096,362.99851449998096,362.99851449998096,"['m', 'i', 'e', 'l']",0,"[0.7868194999173284, 0.9024875001050532, 1.017639999743551, 1.142245199996978]",miel,C:\2023\REPSWITCH21092023\REPSWITCH_excgange\REPSWITCH_excgange\data/290103_REPSWITCH1_version1_list3_2023-12-05_09h31.12.909_micRespv1l3_recorded\recording_micRespv1l3_2023-12-05_09h37.11.766.wav,366.0197601998225,366.51982139982283,None,366.0197601998225,366.0197601998225,366.0197601998225,366.0197601998225,366.0197601998225,366.0197601998225,,,,,,290103,001,2023-12-05_09h31.12.909,REPSWITCH1_version1_list3,2022.2.4,143.89627895996645,
REPSWITCH1/PICTURE_610.png,miel,type,darkblue,repeat,1,T,3,2,3,1,Stim2_Set3,0,None,76,75,76,0,75,75,75,,,,,,,,,,,,,,,,,,,,,,,366.51982139982283,367.6589255002327,367.6589255002327,367.6589255002327,367.6589255002327,367.6589255002327,367.6589255002327,367.6589255002327,367.6589255002327,"['m', 'i', 'e', 'l']",0,"[0.640593099873513, 0.7594200000166893, 0.8541015000082552, 0.9877017000690103]",miel,C:\2023\REPSWITCH21092023\REPSWITCH_excgange\REPSWITCH_excgange\data/290103_REPSWITCH1_version1_list3_2023-12-05_09h31.12.909_micRespv1l3_recorded\recording_micRespv1l3_2023-12-05_09h37.16.427.wav,370.6870478000492,,None,370.6870478000492,370.6870478000492,370.6870478000492,370.6870478000492,370.6870478000492,370.6870478000492,,,,,,290103,001,2023-12-05_09h31.12.909,REPSWITCH1_version1_list3,2022.2.4,143.89627895996645,
REPSWITCH1/PICTURE_264.png,mano,type,darkblue,filler,1,F,3,2,3,1,Stim3_Set2,1,repeat,77,76,77,0,76,76,76,,,,,,,,,,,,,,,,,,,,,,,371.1871040998958,372.2011957000941,372.2011957000941,372.2011957000941,372.2011957000941,372.2011957000941,372.2011957000941,372.2011957000941,372.2011957000941,"['m', 'a', 'n', 'o']",0,"[0.6305105001665652, 0.7534035001881421, 0.9389081001281738, 1.026588600128889]",mano,C:\2023\REPSWITCH21092023\REPSWITCH_excgange\REPSWITCH_excgange\data/290103_REPSWITCH1_version1_list3_2023-12-05_09h31.12.909_micRespv1l3_recorded\recording_micRespv1l3_2023-12-05_09h37.20.970.wav,375.2292806999758,,None,375.2292806999758,375.2292806999758,375.2292806999758,375.2292806999758,375.2292806999758,375.2292806999758,,,,,,290103,001,2023-12-05_09h31.12.909,REPSWITCH1_version1_list3,2022.2.4,143.89627895996645,
REPSWITCH1/PICTURE_464.png,goma,speak,gold,filler,2,F,4,2,3,1,Stim6_Set3,0,None,78,77,78,0,77,77,77,,,,,,,,,,,,,,,,,,,,,,,375.72934600012377,376.9309975001961,376.9309975001961,376.9309975001961,376.9309975001961,376.9309975001961,376.9309975001961,376.9309975001961,376.9309975001961,None,0,,,C:\2023\REPSWITCH21092023\REPSWITCH_excgange\REPSWITCH_excgange\data/290103_REPSWITCH1_version1_list3_2023-12-05_09h31.12.909_micRespv1l3_recorded\recording_micRespv1l3_2023-12-05_09h37.25.698.wav,379.95211199996993,380.4521901998669,None,379.95211199996993,379.95211199996993,379.95211199996993,379.95211199996993,379.95211199996993,379.95211199996993,,,,,,290103,001,2023-12-05_09h31.12.909,REPSWITCH1_version1_list3,2022.2.4,143.89627895996645,
REPSWITCH1/PICTURE_8.png,pierna,type,darkblue,nontarget,1,NT,4,2,3,1,Stim3_Set4,1,switch,79,78,79,0,78,78,78,,,,,,,,,,,,,,,,,,,,,,,380.4521901998669,381.5774352001026,381.5774352001026,381.5774352001026,381.5774352001026,381.5774352001026,381.5774352001026,381.5774352001026,381.5774352001026,"['p', 'i', 'e', 'r', 'n', 'a']",0,"[1.3093302003107965, 1.5357107003219426, 1.672198900487274, 1.8280546003952622, 1.9307204000651836, 2.072484000120312]",pierna,C:\2023\REPSWITCH21092023\REPSWITCH_excgange\REPSWITCH_excgange\data/290103_REPSWITCH1_version1_list3_2023-12-05_09h31.12.909_micRespv1l3_recorded\recording_micRespv1l3_2023-12-05_09h37.30.344.wav,384.5985973998904,385.0987056000158,None,384.5985973998904,384.5985973998904,384.5985973998904,384.5985973998904,384.5985973998904,384.5985973998904,,,,,,290103,001,2023-12-05_09h31.12.909,REPSWITCH1_version1_list3,2022.2.4,143.89627895996645,
REPSWITCH1/PICTURE_8.png,pierna,type,darkblue,repeat,1,T,4,2,3,1,Stim3_Set4,0,None,80,79,80,0,79,79,79,,,,,,,,,,,,,,,,,,,,,,,385.0987056000158,386.2099490999244,386.2099490999244,386.2099490999244,386.2099490999244,386.2099490999244,386.2099490999244,386.2099490999244,386.2099490999244,"['p', 'i', 'e', 'r', 'n', 'a']",0,"[0.6274024997837842, 0.8568417001515627, 0.9535175999626517, 1.1269378000870347, 1.2385661001317203, 1.364188500214368]",pierna,C:\2023\REPSWITCH21092023\REPSWITCH_excgange\REPSWITCH_excgange\data/290103_REPSWITCH1_version1_list3_2023-12-05_09h31.12.909_micRespv1l3_recorded\recording_micRespv1l3_2023-12-05_09h37.34.977.wav,389.231135699898,389.7311883000657,None,389.231135699898,389.231135699898,389.231135699898,389.231135699898,389.231135699898,389.231135699898,,,,,,290103,001,2023-12-05_09h31.12.909,REPSWITCH1_version1_list3,2022.2.4,143.89627895996645,
REPSWITCH1/PICTURE_728.png,pulpo,type,darkblue,nontarget,1,NT,4,2,3,1,Stim8_Set4,1,repeat,81,80,81,0,80,80,80,,,,,,,,,,,,,,,,,,,,,,,389.7311883000657,390.90500750020146,390.90500750020146,390.90500750020146,390.90500750020146,390.90500750020146,390.90500750020146,390.90500750020146,390.90500750020146,"['p', 'u', 'l', 'p', 'o']",0,"[1.2358645000495017, 1.4988692998886108, 1.745815800037235, 1.8973173000849783, 2.1652166000567377]",pulpo,C:\2023\REPSWITCH21092023\REPSWITCH_excgange\REPSWITCH_excgange\data/290103_REPSWITCH1_version1_list3_2023-12-05_09h31.12.909_micRespv1l3_recorded\recording_micRespv1l3_2023-12-05_09h37.39.672.wav,393.92618580022827,394.4263233002275,None,393.92618580022827,393.92618580022827,393.92618580022827,393.92618580022827,393.92618580022827,393.92618580022827,,,,,,290103,001,2023-12-05_09h31.12.909,REPSWITCH1_version1_list3,2022.2.4,143.89627895996645,
REPSWITCH1/PICTURE_728.png,pulpo,speak,gold,switch,2,T,4,2,3,1,Stim8_Set4,0,None,82,81,82,0,81,81,81,,,,,,,,,,,,,,,,,,,,,,,394.4263233002275,395.4750522999093,395.4750522999093,395.4750522999093,395.4750522999093,395.4750522999093,395.4750522999093,395.4750522999093,395.4750522999093,None,0,,,C:\2023\REPSWITCH21092023\REPSWITCH_excgange\REPSWITCH_excgange\data/290103_REPSWITCH1_version1_list3_2023-12-05_09h31.12.909_micRespv1l3_recorded\recording_micRespv1l3_2023-12-05_09h37.44.242.wav,398.4962217998691,398.99636590015143,None,398.4962217998691,398.4962217998691,398.4962217998691,398.4962217998691,398.4962217998691,398.4962217998691,,,,,,290103,001,2023-12-05_09h31.12.909,REPSWITCH1_version1_list3,2022.2.4,143.89627895996645,
REPSWITCH1/PICTURE_235.png,aguja,type,darkblue,filler,1,F,4,2,3,1,Stim4_Set3,0,None,83,82,83,0,82,82,82,,,,,,,,,,,,,,,,,,,,,,,398.99636590015143,400.08676740014926,400.08676740014926,400.08676740014926,400.08676740014926,400.08676740014926,400.08676740014926,400.08676740014926,400.08676740014926,"['a', 'g', 'u', 'j', 'a']",0,"[0.8072564001195133, 0.9627153002656996, 1.0544135998934507, 1.2340446002781391, 1.3319574999623]",aguja,C:\2023\REPSWITCH21092023\REPSWITCH_excgange\REPSWITCH_excgange\data/290103_REPSWITCH1_version1_list3_2023-12-05_09h31.12.909_micRespv1l3_recorded\recording_micRespv1l3_2023-12-05_09h37.48.854.wav,403.1079787001945,403.6080272998661,None,403.1079787001945,403.1079787001945,403.1079787001945,403.1079787001945,403.1079787001945,403.1079787001945,,,,,,290103,001,2023-12-05_09h31.12.909,REPSWITCH1_version1_list3,2022.2.4,143.89627895996645,
REPSWITCH1/PICTURE_498.png,taza,speak,gold,nontarget,2,NT,4,2,3,1,Stim4_Set4,1,switch,84,83,84,0,83,83,83,,,,,,,,,,,,,,,,,,,,,,,403.6080272998661,404.73318400001153,404.73318400001153,404.73318400001153,404.73318400001153,404.73318400001153,404.73318400001153,404.73318400001153,404.73318400001153,None,0,,,C:\2023\REPSWITCH21092023\REPSWITCH_excgange\REPSWITCH_excgange\data/290103_REPSWITCH1_version1_list3_2023-12-05_09h31.12.909_micRespv1l3_recorded\recording_micRespv1l3_2023-12-05_09h37.53.500.wav,407.7613417999819,,None,407.7613417999819,407.7613417999819,407.7613417999819,407.7613417999819,407.7613417999819,407.7613417999819,,,,,,290103,001,2023-12-05_09h31.12.909,REPSWITCH1_version1_list3,2022.2.4,143.89627895996645,
REPSWITCH1/PICTURE_498.png,taza,speak,gold,repeat,2,T,4,2,3,1,Stim4_Set4,0,None,85,84,85,0,84,84,84,,,,,,,,,,,,,,,,,,,,,,,408.2614973001182,409.40048129996285,409.40048129996285,409.40048129996285,409.40048129996285,409.40048129996285,409.40048129996285,409.40048129996285,409.40048129996285,None,0,,,C:\2023\REPSWITCH21092023\REPSWITCH_excgange\REPSWITCH_excgange\data/290103_REPSWITCH1_version1_list3_2023-12-05_09h31.12.909_micRespv1l3_recorded\recording_micRespv1l3_2023-12-05_09h37.58.168.wav,412.4286531000398,,None,412.4286531000398,412.4286531000398,412.4286531000398,412.4286531000398,412.4286531000398,412.4286531000398,,,,,,290103,001,2023-12-05_09h31.12.909,REPSWITCH1_version1_list3,2022.2.4,143.89627895996645,
REPSWITCH1/PICTURE_719.png,baño,speak,gold,nontarget,2,NT,4,2,3,1,Stim2_Set4,0,None,86,85,86,0,85,85,85,,,,,,,,,,,,,,,,,,,,,,,412.92871299991384,413.9427188998088,413.9427188998088,413.9427188998088,413.9427188998088,413.9427188998088,413.9427188998088,413.9427188998088,413.9427188998088,None,0,,,C:\2023\REPSWITCH21092023\REPSWITCH_excgange\REPSWITCH_excgange\data/290103_REPSWITCH1_version1_list3_2023-12-05_09h31.12.909_micRespv1l3_recorded\recording_micRespv1l3_2023-12-05_09h38.02.710.wav,416.9709081999026,,None,416.9709081999026,416.9709081999026,416.9709081999026,416.9709081999026,416.9709081999026,416.9709081999026,,,,,,290103,001,2023-12-05_09h31.12.909,REPSWITCH1_version1_list3,2022.2.4,143.89627895996645,
REPSWITCH1/PICTURE_719.png,baño,type,darkblue,switch,1,T,4,2,3,1,Stim2_Set4,0,None,87,86,87,0,86,86,86,,,,,,,,,,,,,,,,,,,,,,,417.4710499998182,418.6378136998974,418.6378136998974,418.6378136998974,418.6378136998974,418.6378136998974,418.6378136998974,418.6378136998974,418.6378136998974,"['b', 'a', 'ñ', 'o']",0,"[0.5321333999745548, 0.6472165999002755, 0.9429159997962415, 1.1187233999371529]",baño,C:\2023\REPSWITCH21092023\REPSWITCH_excgange\REPSWITCH_excgange\data/290103_REPSWITCH1_version1_list3_2023-12-05_09h31.12.909_micRespv1l3_recorded\recording_micRespv1l3_2023-12-05_09h38.07.405.wav,421.6590593000874,422.15908649982885,None,421.6590593000874,421.6590593000874,421.6590593000874,421.6590593000874,421.6590593000874,421.6590593000874,,,,,,290103,001,2023-12-05_09h31.12.909,REPSWITCH1_version1_list3,2022.2.4,143.89627895996645,
REPSWITCH1/PICTURE_320.png,iglesia,speak,gold,filler,2,F,4,2,3,1,Stim8_Set3,0,None,88,87,88,0,87,87,87,,,,,,,,,,,,,,,,,,,,,,,422.15908649982885,423.2426577000879,423.2426577000879,423.2426577000879,423.2426577000879,423.2426577000879,423.2426577000879,423.2426577000879,423.2426577000879,None,0,,,C:\2023\REPSWITCH21092023\REPSWITCH_excgange\REPSWITCH_excgange\data/290103_REPSWITCH1_version1_list3_2023-12-05_09h31.12.909_micRespv1l3_recorded\recording_micRespv1l3_2023-12-05_09h38.12.010.wav,426.26376810017973,426.7638431000523,None,426.26376810017973,426.26376810017973,426.26376810017973,426.26376810017973,426.26376810017973,426.26376810017973,,,,,,290103,001,2023-12-05_09h31.12.909,REPSWITCH1_version1_list3,2022.2.4,143.89627895996645,
REPSWITCH1/PICTURE_48.png,bombero,type,darkblue,nontarget,1,NT,4,2,3,1,Stim7_Set4,1,switch,89,88,89,0,88,88,88,,,,,,,,,,,,,,,,,,,,,,,426.7638431000523,427.9515656000003,427.9515656000003,427.9515656000003,427.9515656000003,427.9515656000003,427.9515656000003,427.9515656000003,427.9515656000003,"['b', 'o', 'm', 'b', 'e', 'r', 'o']",0,"[0.7336906003765762, 1.1410383004695177, 1.296502500306815, 1.559584400150925, 1.6552364001981914, 1.7955195000395179, 1.8982069003395736]",bombero,C:\2023\REPSWITCH21092023\REPSWITCH_excgange\REPSWITCH_excgange\data/290103_REPSWITCH1_version1_list3_2023-12-05_09h31.12.909_micRespv1l3_recorded\recording_micRespv1l3_2023-12-05_09h38.16.719.wav,430.97271770006046,431.47282249992713,None,430.97271770006046,430.97271770006046,430.97271770006046,430.97271770006046,430.97271770006046,430.97271770006046,,,,,,290103,001,2023-12-05_09h31.12.909,REPSWITCH1_version1_list3,2022.2.4,143.89627895996645,
REPSWITCH1/PICTURE_48.png,bombero,speak,gold,switch,2,T,4,2,3,1,Stim7_Set4,0,None,90,89,90,0,89,89,89,,,,,,,,,,,,,,,,,,,,,,,431.47282249992713,432.5841025998816,432.5841025998816,432.5841025998816,432.5841025998816,432.5841025998816,432.5841025998816,432.5841025998816,432.5841025998816,None,0,,,C:\2023\REPSWITCH21092023\REPSWITCH_excgange\REPSWITCH_excgange\data/290103_REPSWITCH1_version1_list3_2023-12-05_09h31.12.909_micRespv1l3_recorded\recording_micRespv1l3_2023-12-05_09h38.21.351.wav,435.6053377999924,436.10538059985265,None,435.6053377999924,435.6053377999924,435.6053377999924,435.6053377999924,435.6053377999924,435.6053377999924,,,,,,290103,001,2023-12-05_09h31.12.909,REPSWITCH1_version1_list3,2022.2.4,143.89627895996645,
REPSWITCH1/PICTURE_576.png,guante,type,darkblue,filler,1,F,4,2,3,1,Stim1_Set3,0,None,91,90,91,0,90,90,90,,,,,,,,,,,,,,,,,,,,,,,436.10538059985265,437.21661659982055,437.21661659982055,437.21661659982055,437.21661659982055,437.21661659982055,437.21661659982055,437.21661659982055,437.21661659982055,"['g', 'u', 'a', 'n', 'e', 't', 'e']",0,"[0.7364601003937423, 0.8949116002768278, 1.0604036003351212, 1.1222449000924826, 1.3268966004252434, 1.3278952003456652, 2.003133099991828]",guante,C:\2023\REPSWITCH21092023\REPSWITCH_excgange\REPSWITCH_excgange\data/290103_REPSWITCH1_version1_list3_2023-12-05_09h31.12.909_micRespv1l3_recorded\recording_micRespv1l3_2023-12-05_09h38.25.983.wav,440.2378834998235,440.73793289996684,None,440.2378834998235,440.2378834998235,440.2378834998235,440.2378834998235,440.2378834998235,440.2378834998235,,,,,,290103,001,2023-12-05_09h31.12.909,REPSWITCH1_version1_list3,2022.2.4,143.89627895996645,
REPSWITCH1/PICTURE_271.png,conejo,speak,gold,filler,2,F,4,2,3,1,Stim7_Set3,0,None,92,91,92,0,91,91,91,,,,,,,,,,,,,,,,,,,,,,,440.73793289996684,441.77279279986396,441.77279279986396,441.77279279986396,441.77279279986396,441.77279279986396,441.77279279986396,441.77279279986396,441.77279279986396,None,0,,,C:\2023\REPSWITCH21092023\REPSWITCH_excgange\REPSWITCH_excgange\data/290103_REPSWITCH1_version1_list3_2023-12-05_09h31.12.909_micRespv1l3_recorded\recording_micRespv1l3_2023-12-05_09h38.30.540.wav,444.8010205999017,,None,444.8010205999017,444.8010205999017,444.8010205999017,444.8010205999017,444.8010205999017,444.8010205999017,,,,,,290103,001,2023-12-05_09h31.12.909,REPSWITCH1_version1_list3,2022.2.4,143.89627895996645,
REPSWITCH1/PICTURE_319.png,vaca,speak,gold,nontarget,2,NT,4,2,3,1,Stim1_Set4,1,repeat,93,92,93,0,92,92,92,,,,,,,,,,,,,,,,,,,,,,,445.30102520016953,446.3359249001369,446.3359249001369,446.3359249001369,446.3359249001369,446.3359249001369,446.3359249001369,446.3359249001369,446.3359249001369,None,0,,,C:\2023\REPSWITCH21092023\REPSWITCH_excgange\REPSWITCH_excgange\data/290103_REPSWITCH1_version1_list3_2023-12-05_09h31.12.909_micRespv1l3_recorded\recording_micRespv1l3_2023-12-05_09h38.35.103.wav,449.3640697002411,,None,449.3640697002411,449.3640697002411,449.3640697002411,449.3640697002411,449.3640697002411,449.3640697002411,,,,,,290103,001,2023-12-05_09h31.12.909,REPSWITCH1_version1_list3,2022.2.4,143.89627895996645,
REPSWITCH1/PICTURE_319.png,vaca,speak,gold,repeat,2,T,4,2,3,1,Stim1_Set4,0,None,94,93,94,0,93,93,93,,,,,,,,,,,,,,,,,,,,,,,449.86418130015954,450.93371520005167,450.93371520005167,450.93371520005167,450.93371520005167,450.93371520005167,450.93371520005167,450.93371520005167,450.93371520005167,None,0,,,C:\2023\REPSWITCH21092023\REPSWITCH_excgange\REPSWITCH_excgange\data/290103_REPSWITCH1_version1_list3_2023-12-05_09h31.12.909_micRespv1l3_recorded\recording_micRespv1l3_2023-12-05_09h38.39.701.wav,453.9618894001469,,None,453.9618894001469,453.9618894001469,453.9618894001469,453.9618894001469,453.9618894001469,453.9618894001469,,,,,,290103,001,2023-12-05_09h31.12.909,REPSWITCH1_version1_list3,2022.2.4,143.89627895996645,
REPSWITCH1/PICTURE_242.png,cartero,type,darkblue,filler,1,F,4,2,3,1,Stim3_Set3,0,None,95,94,95,0,94,94,94,,,,,,,,,,,,,,,,,,,,,,,454.46203080005944,455.6774193001911,455.6774193001911,455.6774193001911,455.6774193001911,455.6774193001911,455.6774193001911,455.6774193001911,455.6774193001911,"['c', 'a', 'r', 't', 'e', 'r', 'o']",0,"[0.722994000185281, 0.8249790002591908, 0.9166323998942971, 1.039091399870813, 1.1356692002154887, 1.3034156002104282, 1.4233327000401914]",cartero,C:\2023\REPSWITCH21092023\REPSWITCH_excgange\REPSWITCH_excgange\data/290103_REPSWITCH1_version1_list3_2023-12-05_09h31.12.909_micRespv1l3_recorded\recording_micRespv1l3_2023-12-05_09h38.44.444.wav,458.6986047998071,459.1987594999373,None,458.6986047998071,458.6986047998071,458.6986047998071,458.6986047998071,458.6986047998071,458.6986047998071,,,,,,290103,001,2023-12-05_09h31.12.909,REPSWITCH1_version1_list3,2022.2.4,143.89627895996645,
REPSWITCH1/PICTURE_35.png,oreja,speak,gold,filler,2,F,4,2,3,1,Stim5_Set3,1,switch,96,95,96,0,95,95,95,,,,,,,,,,,,,,,,,,,,,,,459.1987594999373,460.36550709977746,460.36550709977746,460.36550709977746,460.36550709977746,460.36550709977746,460.36550709977746,460.36550709977746,460.36550709977746,None,0,,,C:\2023\REPSWITCH21092023\REPSWITCH_excgange\REPSWITCH_excgange\data/290103_REPSWITCH1_version1_list3_2023-12-05_09h31.12.909_micRespv1l3_recorded\recording_micRespv1l3_2023-12-05_09h38.49.132.wav,463.3867092002183,463.886808199808,None,463.3867092002183,463.3867092002183,463.3867092002183,463.3867092002183,463.3867092002183,463.3867092002183,,,,,,290103,001,2023-12-05_09h31.12.909,REPSWITCH1_version1_list3,2022.2.4,143.89627895996645,
REPSWITCH1/PICTURE_338.png,regalo,speak,gold,nontarget,2,NT,4,2,3,1,Stim6_Set4,1,repeat,97,96,97,0,96,96,96,,,,,,,,,,,,,,,,,,,,,,,463.886808199808,464.9981337999925,464.9981337999925,464.9981337999925,464.9981337999925,464.9981337999925,464.9981337999925,464.9981337999925,464.9981337999925,None,0,,,C:\2023\REPSWITCH21092023\REPSWITCH_excgange\REPSWITCH_excgange\data/290103_REPSWITCH1_version1_list3_2023-12-05_09h31.12.909_micRespv1l3_recorded\recording_micRespv1l3_2023-12-05_09h38.53.766.wav,468.0262866001576,,None,468.0262866001576,468.0262866001576,468.0262866001576,468.0262866001576,468.0262866001576,468.0262866001576,,,,,,290103,001,2023-12-05_09h31.12.909,REPSWITCH1_version1_list3,2022.2.4,143.89627895996645,
REPSWITCH1/PICTURE_338.png,regalo,type,darkblue,switch,1,T,4,2,3,1,Stim6_Set4,0,None,98,97,98,0,97,97,97,,,,,,,,,,,,,,,,,,,,,,,468.5263542998582,469.7556594000198,469.7556594000198,469.7556594000198,469.7556594000198,469.7556594000198,469.7556594000198,469.7556594000198,469.7556594000198,"['r', 'e', 'g', 'a', 'l', 'o']",0,"[0.7233523004688323, 0.9190034004859626, 1.0544965001754463, 1.1896286001428962, 1.398932700511068, 1.5544591001234949]",regalo,C:\2023\REPSWITCH21092023\REPSWITCH_excgange\REPSWITCH_excgange\data/290103_REPSWITCH1_version1_list3_2023-12-05_09h31.12.909_micRespv1l3_recorded\recording_micRespv1l3_2023-12-05_09h38.58.523.wav,472.7768490999006,473.27694199979305,None,472.7768490999006,472.7768490999006,472.7768490999006,472.7768490999006,472.7768490999006,472.7768490999006,,,,,,290103,001,2023-12-05_09h31.12.909,REPSWITCH1_version1_list3,2022.2.4,143.89627895996645,
REPSWITCH1/PICTURE_687.png,camisa,type,darkblue,nontarget,1,NT,4,2,3,1,Stim5_Set4,0,None,99,98,99,0,98,98,98,,,,,,,,,,,,,,,,,,,,,,,473.27694199979305,474.36048820009455,474.36048820009455,474.36048820009455,474.36048820009455,474.36048820009455,474.36048820009455,474.36048820009455,474.36048820009455,"['c', 'a', 'm', 'i', 's', 'a']",0,"[0.7922265999950469, 0.871951799839735, 1.177854500245303, 1.2305842000059783, 1.3402522997930646, 1.5087137999944389]",camisa,C:\2023\REPSWITCH21092023\REPSWITCH_excgange\REPSWITCH_excgange\data/290103_REPSWITCH1_version1_list3_2023-12-05_09h31.12.909_micRespv1l3_recorded\recording_micRespv1l3_2023-12-05_09h39.03.128.wav,477.38164159981534,477.881714399904,None,477.38164159981534,477.38164159981534,477.38164159981534,477.38164159981534,477.38164159981534,477.38164159981534,,,,,,290103,001,2023-12-05_09h31.12.909,REPSWITCH1_version1_list3,2022.2.4,143.89627895996645,
REPSWITCH1/PICTURE_687.png,camisa,type,darkblue,repeat,1,T,4,2,3,1,Stim5_Set4,0,None,100,99,100,0,99,99,99,,,,,,,,,,,,,,,,,,,,,,,477.881714399904,479.0069138999097,479.0069138999097,479.0069138999097,479.0069138999097,479.0069138999097,479.0069138999097,479.0069138999097,479.0069138999097,"['c', 'a', 'm', 'i', 's', 'a']",0,"[0.777651000302285, 0.8596827001310885, 1.185795800294727, 1.247588800266385, 1.3704484002664685, 1.5398769001476467]",camisa,C:\2023\REPSWITCH21092023\REPSWITCH_excgange\REPSWITCH_excgange\data/290103_REPSWITCH1_version1_list3_2023-12-05_09h31.12.909_micRespv1l3_recorded\recording_micRespv1l3_2023-12-05_09h39.07.774.wav,482.0280691999942,482.5281307999976,None,482.0280691999942,482.0280691999942,482.0280691999942,482.0280691999942,482.0280691999942,482.0280691999942,,,,,,290103,001,2023-12-05_09h31.12.909,REPSWITCH1_version1_list3,2022.2.4,143.89627895996645,
REPSWITCH1/PICTURE_340.png,espejo,speak,gold,filler,2,F,4,2,3,1,Extra1,0,None,101,100,101,0,100,100,100,,,,,,,,,,,,,,,,,,,,,,,482.5281307999976,483.5422128001228,483.5422128001228,483.5422128001228,483.5422128001228,483.5422128001228,483.5422128001228,483.5422128001228,483.5422128001228,None,0,,,C:\2023\REPSWITCH21092023\REPSWITCH_excgange\REPSWITCH_excgange\data/290103_REPSWITCH1_version1_list3_2023-12-05_09h31.12.909_micRespv1l3_recorded\recording_micRespv1l3_2023-12-05_09h39.12.310.wav,486.57040929980576,,None,486.57040929980576,486.57040929980576,486.57040929980576,486.57040929980576,486.57040929980576,486.57040929980576,,,,,,290103,001,2023-12-05_09h31.12.909,REPSWITCH1_version1_list3,2022.2.4,143.89627895996645,
REPSWITCH1/PICTURE_610.png,miel,type,darkblue,filler,1,F,4,2,3,1,Stim2_Set3,0,None,102,101,102,0,101,101,101,,,,,,,,,,,,,,,,,,,,,,,487.0704807001166,488.1470125000924,488.1470125000924,488.1470125000924,488.1470125000924,488.1470125000924,488.1470125000924,488.1470125000924,488.1470125000924,"['m', 'i', 'e', 'l']",0,"[0.8117196001112461, 0.9224070003256202, 1.0101183000952005, 1.1437423001043499]",miel,C:\2023\REPSWITCH21092023\REPSWITCH_excgange\REPSWITCH_excgange\data/290103_REPSWITCH1_version1_list3_2023-12-05_09h31.12.909_micRespv1l3_recorded\recording_micRespv1l3_2023-12-05_09h39.16.914.wav,491.1681560999714,491.66820740001276,space,491.1681560999714,491.1681560999714,491.1681560999714,491.1681560999714,491.1681560999714,491.1681560999714,491.66820740001276,491.66820740001276,16.819472100120038,,,290103,001,2023-12-05_09h31.12.909,REPSWITCH1_version1_list3,2022.2.4,143.89627895996645,
REPSWITCH1/PICTURE_8.png,pierna,type,darkblue,filler,1,F,1,4,3,1,Stim3_Set4,0,None,103,102,1,0,102,102,102,,,,,,,,,,,,,,,,,,,,,,,508.4968501999974,509.55252829985693,509.55252829985693,509.55252829985693,509.55252829985693,509.55252829985693,509.55252829985693,509.55252829985693,509.55252829985693,"['o', 'backspace', 'p', 'u', 'i', 'e', 'r', 'n', 'a']",0,"[0.9191435002721846, 1.5277508003637195, 1.760991900227964, 2.065841800067574, 2.0668405001051724, 2.1435887003317475, 2.3340808004140854, 2.5444523002952337, 2.6092923004180193]",pierna,C:\2023\REPSWITCH21092023\REPSWITCH_excgange\REPSWITCH_excgange\data/290103_REPSWITCH1_version1_list3_2023-12-05_09h31.12.909_micRespv1l3_recorded\recording_micRespv1l3_2023-12-05_09h39.38.319.wav,512.5738507998176,513.073910899926,None,512.5738507998176,512.5738507998176,512.5738507998176,512.5738507998176,512.5738507998176,512.5738507998176,,,,,,290103,001,2023-12-05_09h31.12.909,REPSWITCH1_version1_list3,2022.2.4,143.89627895996645,
REPSWITCH1/PICTURE_498.png,taza,speak,gold,filler,2,F,1,4,3,1,Stim4_Set4,0,None,104,103,2,0,103,103,103,,,,,,,,,,,,,,,,,,,,,,,513.073910899926,514.2059907000512,514.2059907000512,514.2059907000512,514.2059907000512,514.2059907000512,514.2059907000512,514.2059907000512,514.2059907000512,None,0,,,C:\2023\REPSWITCH21092023\REPSWITCH_excgange\REPSWITCH_excgange\data/290103_REPSWITCH1_version1_list3_2023-12-05_09h31.12.909_micRespv1l3_recorded\recording_micRespv1l3_2023-12-05_09h39.42.974.wav,517.2340715001337,,None,517.2340715001337,517.2340715001337,517.2340715001337,517.2340715001337,517.2340715001337,517.2340715001337,,,,,,290103,001,2023-12-05_09h31.12.909,REPSWITCH1_version1_list3,2022.2.4,143.89627895996645,
REPSWITCH1/PICTURE_19.png,pavo,speak,gold,nontarget,2,NT,1,4,3,1,Stim5_Set1,1,repeat,105,104,3,0,104,104,104,,,,,,,,,,,,,,,,,,,,,,,517.7341506998055,518.8176978998818,518.8176978998818,518.8176978998818,518.8176978998818,518.8176978998818,518.8176978998818,518.8176978998818,518.8176978998818,None,0,,,C:\2023\REPSWITCH21092023\REPSWITCH_excgange\REPSWITCH_excgange\data/290103_REPSWITCH1_version1_list3_2023-12-05_09h31.12.909_micRespv1l3_recorded\recording_micRespv1l3_2023-12-05_09h39.47.585.wav,521.8388745998964,522.3389476998709,None,521.8388745998964,521.8388745998964,521.8388745998964,521.8388745998964,521.8388745998964,521.8388745998964,,,,,,290103,001,2023-12-05_09h31.12.909,REPSWITCH1_version1_list3,2022.2.4,143.89627895996645,
REPSWITCH1/PICTURE_19.png,pavo,speak,gold,repeat,2,T,1,4,3,1,Stim5_Set1,0,None,106,105,4,0,105,105,105,,,,,,,,,,,,,,,,,,,,,,,522.3389476998709,523.3529659002088,523.3529659002088,523.3529659002088,523.3529659002088,523.3529659002088,523.3529659002088,523.3529659002088,523.3529659002088,None,0,,,C:\2023\REPSWITCH21092023\REPSWITCH_excgange\REPSWITCH_excgange\data/290103_REPSWITCH1_version1_list3_2023-12-05_09h31.12.909_micRespv1l3_recorded\recording_micRespv1l3_2023-12-05_09h39.52.120.wav,526.3811278999783,,None,526.3811278999783,526.3811278999783,526.3811278999783,526.3811278999783,526.3811278999783,526.3811278999783,,,,,,290103,001,2023-12-05_09h31.12.909,REPSWITCH1_version1_list3,2022.2.4,143.89627895996645,
REPSWITCH1/PICTURE_319.png,vaca,type,darkblue,filler,1,F,1,4,3,1,Stim1_Set4,1,repeat,107,106,5,0,106,106,106,,,,,,,,,,,,,,,,,,,,,,,526.8812589999288,527.9924897998571,527.9924897998571,527.9924897998571,527.9924897998571,527.9924897998571,527.9924897998571,527.9924897998571,527.9924897998571,"['v', 'a', 'c', 'a']",0,"[0.8248859001323581, 0.9504599999636412, 1.0145123000256717, 1.1072466000914574]",vaca,C:\2023\REPSWITCH21092023\REPSWITCH_excgange\REPSWITCH_excgange\data/290103_REPSWITCH1_version1_list3_2023-12-05_09h31.12.909_micRespv1l3_recorded\recording_micRespv1l3_2023-12-05_09h39.56.760.wav,531.0136779998429,531.513760200236,None,531.0136779998429,531.0136779998429,531.0136779998429,531.0136779998429,531.0136779998429,531.0136779998429,,,,,,290103,001,2023-12-05_09h31.12.909,REPSWITCH1_version1_list3,2022.2.4,143.89627895996645,
REPSWITCH1/PICTURE_169.png,espalda,speak,gold,nontarget,2,NT,1,4,3,1,Stim8_Set1,1,switch,108,107,6,0,107,107,107,,,,,,,,,,,,,,,,,,,,,,,531.513760200236,532.5694641000591,532.5694641000591,532.5694641000591,532.5694641000591,532.5694641000591,532.5694641000591,532.5694641000591,532.5694641000591,None,0,,,C:\2023\REPSWITCH21092023\REPSWITCH_excgange\REPSWITCH_excgange\data/290103_REPSWITCH1_version1_list3_2023-12-05_09h31.12.909_micRespv1l3_recorded\recording_micRespv1l3_2023-12-05_09h40.01.337.wav,535.5977071998641,,None,535.5977071998641,535.5977071998641,535.5977071998641,535.5977071998641,535.5977071998641,535.5977071998641,,,,,,290103,001,2023-12-05_09h31.12.909,REPSWITCH1_version1_list3,2022.2.4,143.89627895996645,
REPSWITCH1/PICTURE_169.png,espalda,speak,gold,repeat,2,T,1,4,3,1,Stim8_Set1,0,None,109,108,7,0,108,108,108,,,,,,,,,,,,,,,,,,,,,,,536.0977757000364,537.2298269001767,537.2298269001767,537.2298269001767,537.2298269001767,537.2298269001767,537.2298269001767,537.2298269001767,537.2298269001767,None,0,,,C:\2023\REPSWITCH21092023\REPSWITCH_excgange\REPSWITCH_excgange\data/290103_REPSWITCH1_version1_list3_2023-12-05_09h31.12.909_micRespv1l3_recorded\recording_micRespv1l3_2023-12-05_09h40.05.997.wav,540.2511033001356,540.751072499901,None,540.2511033001356,540.2511033001356,540.2511033001356,540.2511033001356,540.2511033001356,540.2511033001356,,,,,,290103,001,2023-12-05_09h31.12.909,REPSWITCH1_version1_list3,2022.2.4,143.89627895996645,
REPSWITCH1/PICTURE_728.png,pulpo,type,darkblue,filler,1,F,1,4,3,1,Stim8_Set4,0,None,110,109,8,0,109,109,109,,,,,,,,,,,,,,,,,,,,,,,540.751072499901,541.8415035000071,541.8415035000071,541.8415035000071,541.8415035000071,541.8415035000071,541.8415035000071,541.8415035000071,541.8415035000071,"['p', 'u', 'l', 'p', 'o']",0,"[0.5465961997397244, 0.9054229999892414, 1.2165218000300229, 1.3470602999441326, 1.4967962997034192]",pulpo,C:\2023\REPSWITCH21092023\REPSWITCH_excgange\REPSWITCH_excgange\data/290103_REPSWITCH1_version1_list3_2023-12-05_09h31.12.909_micRespv1l3_recorded\recording_micRespv1l3_2023-12-05_09h40.10.609.wav,544.8627379001118,545.362816200126,None,544.8627379001118,544.8627379001118,544.8627379001118,544.8627379001118,544.8627379001118,544.8627379001118,,,,,,290103,001,2023-12-05_09h31.12.909,REPSWITCH1_version1_list3,2022.2.4,143.89627895996645,
REPSWITCH1/PICTURE_142.png,vaso,speak,gold,nontarget,2,NT,1,4,3,1,Stim7_Set1,1,switch,111,110,9,0,110,110,110,,,,,,,,,,,,,,,,,,,,,,,545.362816200126,546.5296685001813,546.5296685001813,546.5296685001813,546.5296685001813,546.5296685001813,546.5296685001813,546.5296685001813,546.5296685001813,None,0,,,C:\2023\REPSWITCH21092023\REPSWITCH_excgange\REPSWITCH_excgange\data/290103_REPSWITCH1_version1_list3_2023-12-05_09h31.12.909_micRespv1l3_recorded\recording_micRespv1l3_2023-12-05_09h40.15.298.wav,549.5577933997847,,None,549.5577933997847,549.5577933997847,549.5577933997847,549.5577933997847,549.5577933997847,549.5577933997847,,,,,,290103,001,2023-12-05_09h31.12.909,REPSWITCH1_version1_list3,2022.2.4,143.89627895996645,
REPSWITCH1/PICTURE_142.png,vaso,type,darkblue,switch,1,T,1,4,3,1,Stim7_Set1,0,None,112,111,10,0,111,111,111,,,,,,,,,,,,,,,,,,,,,,,550.0579288001172,551.2872075000778,551.2872075000778,551.2872075000778,551.2872075000778,551.2872075000778,551.2872075000778,551.2872075000778,551.2872075000778,"['v', 'a', 's', 'o']",0,"[0.42869560001417994, 0.5273636002093554, 0.7598971999250352, 0.9306173999793828]",vaso,C:\2023\REPSWITCH21092023\REPSWITCH_excgange\REPSWITCH_excgange\data/290103_REPSWITCH1_version1_list3_2023-12-05_09h31.12.909_micRespv1l3_recorded\recording_micRespv1l3_2023-12-05_09h40.20.054.wav,554.3084244001657,554.8084982000291,None,554.3084244001657,554.3084244001657,554.3084244001657,554.3084244001657,554.3084244001657,554.3084244001657,,,,,,290103,001,2023-12-05_09h31.12.909,REPSWITCH1_version1_list3,2022.2.4,143.89627895996645,
REPSWITCH1/PICTURE_338.png,regalo,type,darkblue,filler,1,F,1,4,3,1,Stim6_Set4,1,repeat,113,112,11,0,112,112,112,,,,,,,,,,,,,,,,,,,,,,,554.8084982000291,555.8919758000411,555.8919758000411,555.8919758000411,555.8919758000411,555.8919758000411,555.8919758000411,555.8919758000411,555.8919758000411,"['r', 'e', 'g', 'a', 'l', 'o']",0,"[0.7292854003608227, 0.8180030002258718, 0.9226634004153311, 1.067467000335455, 1.3249366004019976, 1.4475290002301335]",regalo,C:\2023\REPSWITCH21092023\REPSWITCH_excgange\REPSWITCH_excgange\data/290103_REPSWITCH1_version1_list3_2023-12-05_09h31.12.909_micRespv1l3_recorded\recording_micRespv1l3_2023-12-05_09h40.24.660.wav,558.920116300229,,None,558.920116300229,558.920116300229,558.920116300229,558.920116300229,558.920116300229,558.920116300229,,,,,,290103,001,2023-12-05_09h31.12.909,REPSWITCH1_version1_list3,2022.2.4,143.89627895996645,
REPSWITCH1/PICTURE_135.png,traje,type,darkblue,nontarget,1,NT,1,4,3,1,Stim3_Set1,1,repeat,114,113,12,0,113,113,113,,,,,,,,,,,,,,,,,,,,,,,559.4201829000376,560.4967656000517,560.4967656000517,560.4967656000517,560.4967656000517,560.4967656000517,560.4967656000517,560.4967656000517,560.4967656000517,"['t', 'r', 'a', 'j', 'e']",0,"[0.8854971001856029, 1.0160190998576581, 1.111954600084573, 1.357846099883318, 1.438544699922204]",traje,C:\2023\REPSWITCH21092023\REPSWITCH_excgange\REPSWITCH_excgange\data/290103_REPSWITCH1_version1_list3_2023-12-05_09h31.12.909_micRespv1l3_recorded\recording_micRespv1l3_2023-12-05_09h40.29.264.wav,563.52493399987,,None,563.52493399987,563.52493399987,563.52493399987,563.52493399987,563.52493399987,563.52493399987,,,,,,290103,001,2023-12-05_09h31.12.909,REPSWITCH1_version1_list3,2022.2.4,143.89627895996645,
REPSWITCH1/PICTURE_135.png,traje,speak,gold,switch,2,T,1,4,3,1,Stim3_Set1,0,None,115,114,13,0,114,114,114,,,,,,,,,,,,,,,,,,,,,,,564.0249936999753,565.0459568998776,565.0459568998776,565.0459568998776,565.0459568998776,565.0459568998776,565.0459568998776,565.0459568998776,565.0459568998776,None,0,,,C:\2023\REPSWITCH21092023\REPSWITCH_excgange\REPSWITCH_excgange\data/290103_REPSWITCH1_version1_list3_2023-12-05_09h31.12.909_micRespv1l3_recorded\recording_micRespv1l3_2023-12-05_09h40.33.814.wav,568.074099900201,,None,568.074099900201,568.074099900201,568.074099900201,568.074099900201,568.074099900201,568.074099900201,,,,,,290103,001,2023-12-05_09h31.12.909,REPSWITCH1_version1_list3,2022.2.4,143.89627895996645,
REPSWITCH1/PICTURE_381.png,fresa,speak,gold,nontarget,2,NT,1,4,3,1,Stim2_Set1,1,repeat,116,115,14,0,115,115,115,,,,,,,,,,,,,,,,,,,,,,,568.5741659998894,569.61599940015,569.61599940015,569.61599940015,569.61599940015,569.61599940015,569.61599940015,569.61599940015,569.61599940015,None,0,,,C:\2023\REPSWITCH21092023\REPSWITCH_excgange\REPSWITCH_excgange\data/290103_REPSWITCH1_version1_list3_2023-12-05_09h31.12.909_micRespv1l3_recorded\recording_micRespv1l3_2023-12-05_09h40.38.383.wav,572.6372122000903,573.1372870001942,None,572.6372122000903,572.6372122000903,572.6372122000903,572.6372122000903,572.6372122000903,572.6372122000903,,,,,,290103,001,2023-12-05_09h31.12.909,REPSWITCH1_version1_list3,2022.2.4,143.89627895996645,
REPSWITCH1/PICTURE_381.png,fresa,type,darkblue,switch,1,T,1,4,3,1,Stim2_Set1,0,None,117,116,15,0,116,116,116,,,,,,,,,,,,,,,,,,,,,,,573.1372870001942,574.2207912001759,574.2207912001759,574.2207912001759,574.2207912001759,574.2207912001759,574.2207912001759,574.2207912001759,574.2207912001759,"['f', 'r', 'e', 's', 'a']",0,"[1.1231569000519812, 1.2905884999781847, 1.4393607000820339, 1.5540094999596477, 1.704497799742967]",fresa,C:\2023\REPSWITCH21092023\REPSWITCH_excgange\REPSWITCH_excgange\data/290103_REPSWITCH1_version1_list3_2023-12-05_09h31.12.909_micRespv1l3_recorded\recording_micRespv1l3_2023-12-05_09h40.42.988.wav,577.2420224999078,577.7420374001376,None,577.2420224999078,577.2420224999078,577.2420224999078,577.2420224999078,577.2420224999078,577.2420224999078,,,,,,290103,001,2023-12-05_09h31.12.909,REPSWITCH1_version1_list3,2022.2.4,143.89627895996645,
REPSWITCH1/PICTURE_48.png,bombero,type,darkblue,filler,1,F,1,4,3,1,Stim7_Set4,0,None,118,117,16,0,117,117,117,,,,,,,,,,,,,,,,,,,,,,,577.7420374001376,578.9992360002361,578.9992360002361,578.9992360002361,578.9992360002361,578.9992360002361,578.9992360002361,578.9992360002361,578.9992360002361,"['b', 'o', 'm', 'b', 'e', 'r', 'o']",0,"[0.8601827998645604, 1.1900844001211226, 1.3479833002202213, 1.603231799788773, 1.718157900031656, 1.874636999797076, 1.9613999999128282]",bombero,C:\2023\REPSWITCH21092023\REPSWITCH_excgange\REPSWITCH_excgange\data/290103_REPSWITCH1_version1_list3_2023-12-05_09h31.12.909_micRespv1l3_recorded\recording_micRespv1l3_2023-12-05_09h40.47.767.wav,582.0204169000499,582.5205565998331,None,582.0204169000499,582.0204169000499,582.0204169000499,582.0204169000499,582.0204169000499,582.0204169000499,,,,,,290103,001,2023-12-05_09h31.12.909,REPSWITCH1_version1_list3,2022.2.4,143.89627895996645,
REPSWITCH1/PICTURE_687.png,camisa,speak,gold,filler,2,F,1,4,3,1,Stim5_Set4,0,None,119,118,17,0,118,118,118,,,,,,,,,,,,,,,,,,,,,,,582.5205565998331,583.6178287998773,583.6178287998773,583.6178287998773,583.6178287998773,583.6178287998773,583.6178287998773,583.6178287998773,583.6178287998773,None,0,,,C:\2023\REPSWITCH21092023\REPSWITCH_excgange\REPSWITCH_excgange\data/290103_REPSWITCH1_version1_list3_2023-12-05_09h31.12.909_micRespv1l3_recorded\recording_micRespv1l3_2023-12-05_09h40.52.385.wav,586.6390451001935,587.1391261001118,None,586.6390451001935,586.6390451001935,586.6390451001935,586.6390451001935,586.6390451001935,586.6390451001935,,,,,,290103,001,2023-12-05_09h31.12.909,REPSWITCH1_version1_list3,2022.2.4,143.89627895996645,
REPSWITCH1/PICTURE_128.png,muñeca,type,darkblue,nontarget,1,NT,1,4,3,1,Stim4_Set1,0,None,120,119,18,0,119,119,119,,,,,,,,,,,,,,,,,,,,,,,587.1391261001118,588.2365704998374,588.2365704998374,588.2365704998374,588.2365704998374,588.2365704998374,588.2365704998374,588.2365704998374,588.2365704998374,"['m', 'u', 'ñ', 'e', 'c', 'a']",0,"[0.8856027000583708, 1.0751263001002371, 1.4777815002016723, 1.6835781000554562, 1.8105040001682937, 1.9390710000880063]",muñeca,C:\2023\REPSWITCH21092023\REPSWITCH_excgange\REPSWITCH_excgange\data/290103_REPSWITCH1_version1_list3_2023-12-05_09h31.12.909_micRespv1l3_recorded\recording_micRespv1l3_2023-12-05_09h40.57.004.wav,591.2577403998002,591.7578229000792,None,591.2577403998002,591.2577403998002,591.2577403998002,591.2577403998002,591.2577403998002,591.2577403998002,,,,,,290103,001,2023-12-05_09h31.12.909,REPSWITCH1_version1_list3,2022.2.4,143.89627895996645,
