image;correctAns;respModal;frameColor;modalSymb;repSwitch;sequence;target;trialsPractice.thisRepN;trialsPractice.thisTrialN;trialsPractice.thisN;trialsPractice.thisIndex;textWelcomePractice.started;textBlank500.started;textInstrPractice.started;keyInstrPractice.started;keyInstrPractice.keys;keyInstrPractice.rt;textBlank500.stopped;fixationITI.started;fixationITI.stopped;polygonCol.started;polygonWh.started;imagePractice.started;textCue.started;polygonText.started;textPractice.started;keyPractice.started;micPractice.started;micPractice.stopped;keyPractice.keys;keyPractice.corr;subjResponse;micPractice.clip;keyPractice.rt;polygonCol.stopped;polygonWh.stopped;imagePractice.stopped;textCue.stopped;polygonText.stopped;textPractice.stopped;keyPractice.stopped;text.started;participant;session;date;expName;psychopyVersion;frameRate;Column1
;;;;;;;;;;;;2,07754E+15;2,27897E+16;2,32904E+15;2,32904E+15;space;1,03728E+15;;;;;;;;;;;;;;;;;;;;;;;;;;2;1;2023-06-12_09h53.36.110;REPSWITCH_1_Practice;202225;5,98726E+16;
REPSWITCH1_Practice/PICTURE_612.png;rana;speak;yellow;REPSWITCH1_Practice/lips.png;nontarget;2;NT;0;0;0;0;;2,90052E+16;;;;;2,48709E+15;2,48709E+15;2,61219E+14;2,61219E+14;2,61219E+14;2,61219E+14;2,61219E+14;2,61219E+14;2,61219E+14;2,61219E+14;4,5386E+15;2,13279E+16;None;0;;D:\GitHub\experiment1\data/2_REPSWITCH_1_Practice_2023-06-12_09h53.36.110_micPractice_recorded\recording_micPractice_2023-06-12_09h53.49.365.wav;;;;;;;;;;2;1;2023-06-12_09h53.36.110;REPSWITCH_1_Practice;202225;5,98726E+16;
REPSWITCH1_Practice/PICTURE_612.png;rana;speak;yellow;REPSWITCH1_Practice/lips.png;repeat;2;T;0;1;1;1;;3,37202E+15;;;;;3,42202E+15;2,95046E+16;3,07225E+16;3,07225E+16;3,07225E+16;3,07225E+16;3,07225E+16;3,07225E+16;3,07225E+16;3,07225E+16;3,0795E+15;1,99968E+16;None;0;;D:\GitHub\experiment1\data/2_REPSWITCH_1_Practice_2023-06-12_09h53.36.110_micPractice_recorded\recording_micPractice_2023-06-12_09h53.54.082.wav;;;;;;;;;;2;1;2023-06-12_09h53.36.110;REPSWITCH_1_Practice;202225;5,98726E+16;
REPSWITCH1_Practice/PICTURE_599.png;nube;type;blue;REPSWITCH1_Practice/keyboard.png;filler;1;F;0;2;2;2;;3,83028E+15;;;;;;3,42202E+15;3,5303E+15;3,5303E+15;3,5303E+15;3,5303E+15;3,5303E+15;3,5303E+15;3,5303E+15;3,5303E+15;2,5973E+16;2,01589E+16;['c', 'l', 'o', 'u', 'd'];0;cloud;D:\GitHub\experiment1\data/2_REPSWITCH_1_Practice_2023-06-12_09h53.36.110_micPractice_recorded\recording_micPractice_2023-06-12_09h53.58.663.wav;[0.3860681999940425, 0.5299040999962017, 0.7383821000112221, 0.8894858999992721, 0.9730790000176057];;;;;;;;;2;1;2023-06-12_09h53.36.110;REPSWITCH_1_Practice;202225;5,98726E+16;
REPSWITCH1_Practice/PICTURE_110.png;mesa;speak;yellow;REPSWITCH1_Practice/lips.png;nontarget;2;NT;0;3;3;3;;4,30181E+16;;;;;4,35183E+15;3,88024E+15;4,00203E+15;4,00203E+15;4,00203E+15;4,00203E+15;4,00203E+15;4,00203E+15;4,00203E+15;4,00203E+15;2,5711E+15;1,9992E+15;['m', 'e', 's', 'a'];0;mesa;D:\GitHub\experiment1\data/2_REPSWITCH_1_Practice_2023-06-12_09h53.36.110_micPractice_recorded\recording_micPractice_2023-06-12_09h54.03.379.wav;[0.7368362999986857, 0.8753332999767736, 1.680986399995163, 1.8360937999677844];4,30181E+16;4,30181E+16;4,30181E+16;4,30181E+16;4,30181E+16;4,30181E+16;4,30181E+16;;2;1;2023-06-12_09h53.36.110;REPSWITCH_1_Practice;202225;5,98726E+16;
REPSWITCH1_Practice/PICTURE_110.png;mesa;speak;yellow;REPSWITCH1_Practice/lips.png;repeat;1;T;0;4;4;4;;4,7732E+15;;;;;;4,35183E+15;4,47195E+16;4,47195E+16;4,47195E+16;4,47195E+16;4,47195E+16;4,47195E+16;4,47195E+16;4,47195E+16;3,2114E+15;2,00068E+15;None;0;;D:\GitHub\experiment1\data/2_REPSWITCH_1_Practice_2023-06-12_09h53.36.110_micPractice_recorded\recording_micPractice_2023-06-12_09h54.08.079.wav;;;;;;;;;;2;1;2023-06-12_09h53.36.110;REPSWITCH_1_Practice;202225;5,98726E+16;
REPSWITCH1_Practice/PICTURE_570.png;toro;type;blue;REPSWITCH1_Practice/keyboard.png;filler;1;F;0;5;5;5;;5,24989E+16;;;;;;4,82341E+14;4,95329E+15;4,95329E+15;4,95329E+15;4,95329E+15;4,95329E+15;4,95329E+15;4,95329E+15;4,95329E+15;4,49964E+15;2,04968E+15;['b', 'u', 'l', 'l'];0;bull;D:\GitHub\experiment1\data/2_REPSWITCH_1_Practice_2023-06-12_09h53.36.110_micPractice_recorded\recording_micPractice_2023-06-12_09h54.12.860.wav;[1.3460145000135526, 1.496515900013037, 1.7937732000136748, 1.9142427999759093];;;;;;;;;2;1;2023-06-12_09h53.36.110;REPSWITCH_1_Practice;202225;5,98726E+16;
REPSWITCH1_Practice/PICTURE_12.png;sirena;speak;yellow;REPSWITCH1_Practice/lips.png;nontarget;1;NT;0;6;6;6;;5,72316E+15;;;;;;5,2999E+15;5,43315E+15;5,43315E+15;5,43315E+15;5,43315E+15;5,43315E+15;5,43315E+15;5,43315E+15;5,43315E+15;1,08945E+16;2,11687E+16;None;0;;D:\GitHub\experiment1\data/2_REPSWITCH_1_Practice_2023-06-12_09h53.36.110_micPractice_recorded\recording_micPractice_2023-06-12_09h54.17.592.wav;;;;;;;;;;2;1;2023-06-12_09h53.36.110;REPSWITCH_1_Practice;202225;5,98726E+16;
REPSWITCH1_Practice/PICTURE_12.png;sirena;type;blue;REPSWITCH1_Practice/keyboard.png;switch;2;T;0;7;7;7;;6,19303E+14;;;;;;5,77315E+15;5,89156E+15;5,89156E+15;5,89156E+15;5,89156E+15;5,89156E+15;5,89156E+15;5,89156E+15;5,89156E+15;3,2024E+16;1,99962E+16;['s', 'i', 'e', 'r', 'n', 'a'];0;sierna;D:\GitHub\experiment1\data/2_REPSWITCH_1_Practice_2023-06-12_09h53.36.110_micPractice_recorded\recording_micPractice_2023-06-12_09h54.22.291.wav;[0.47788640001090243, 0.6329360000090674, 0.8145384000381455, 0.9692079999949783, 1.5775475000264123, 1.7142342000151984];;;;;;;;;2;1;2023-06-12_09h53.36.110;REPSWITCH_1_Practice;202225;5,98726E+16;
REPSWITCH1_Practice/PICTURE_733.png;gafas;type;blue;REPSWITCH1_Practice/keyboard.png;nontarget;2;NT;0;8;8;8;;6,66791E+15;;;;;;6,24301E+15;6,37626E+16;6,37626E+16;6,37626E+16;6,37626E+16;6,37626E+16;6,37626E+16;6,37626E+16;6,37626E+16;1,0427E+16;2,09945E+16;['g', 'a', 'f', 'a', 's'];0;gafas;D:\GitHub\experiment1\data/2_REPSWITCH_1_Practice_2023-06-12_09h53.36.110_micPractice_recorded\recording_micPractice_2023-06-12_09h54.27.040.wav;[1.3125156000023708, 1.4403146000113338, 1.5573287000297569, 1.7008065999834798, 1.8172562000108883];;;;;;;;;2;1;2023-06-12_09h53.36.110;REPSWITCH_1_Practice;202225;5,98726E+16;
REPSWITCH1_Practice/PICTURE_733.png;gafas;speak;yellow;REPSWITCH1_Practice/lips.png;switch;1;T;0;9;9;9;;7,13596E+13;;;;;;6,71787E+14;6,83469E+15;6,83469E+15;6,83469E+15;6,83469E+15;6,83469E+15;6,83469E+15;6,83469E+15;6,83469E+15;2,5898E+15;2,01627E+16;None;0;;D:\GitHub\experiment1\data/2_REPSWITCH_1_Practice_2023-06-12_09h53.36.110_micPractice_recorded\recording_micPractice_2023-06-12_09h54.31.706.wav;;;;;;;;;;2;1;2023-06-12_09h53.36.110;REPSWITCH_1_Practice;202225;5,98726E+16;
REPSWITCH1_Practice/PICTURE_614.png;reina;type;blue;REPSWITCH1_Practice/keyboard.png;filler;2;F;0;10;10;10;;7,60265E+15;;;;;7,65268E+14;7,18615E+14;7,31439E+15;7,31439E+15;7,31439E+15;7,31439E+15;7,31439E+15;7,31439E+15;7,31439E+15;7,31439E+15;1,04601E+16;2,117E+16;['r', 'e', 'i', 'n', 'a'];0;reina;D:\GitHub\experiment1\data/2_REPSWITCH_1_Practice_2023-06-12_09h53.36.110_micPractice_recorded\recording_micPractice_2023-06-12_09h54.36.388.wav;[0.9716705000028014, 1.0732884999597445, 1.175543099991046, 1.3011877000099048, 1.4975096000125632];;;;;;;;;2;1;2023-06-12_09h53.36.110;REPSWITCH_1_Practice;202225;5,98726E+16;
REPSWITCH1_Practice/PICTURE_110.png;mesa;speak;yellow;REPSWITCH1_Practice/lips.png;nontarget;1;NT;0;11;11;11;;8,07928E+15;;;;;8,12925E+15;7,65268E+14;7,77947E+15;7,77947E+15;7,77947E+15;7,77947E+15;7,77947E+15;7,77947E+15;7,77947E+15;7,77947E+15;2,6889E+15;2,01681E+15;None;0;;D:\GitHub\experiment1\data/2_REPSWITCH_1_Practice_2023-06-12_09h53.36.110_micPractice_recorded\recording_micPractice_2023-06-12_09h54.41.153.wav;;;;;;;;;;2;1;2023-06-12_09h53.36.110;REPSWITCH_1_Practice;202225;5,98726E+16;
REPSWITCH1_Practice/PICTURE_110.png;mesa;type;blue;REPSWITCH1_Practice/keyboard.png;switch;1;T;0;12;12;12;;8,54748E+14;;;;;8,59744E+15;8,12925E+15;8,24764E+15;8,24764E+15;8,24764E+15;8,24764E+15;8,24764E+15;8,24764E+15;8,24764E+15;8,24764E+15;3,3172E+16;2,00028E+15;['m', 'e', 's', 's', 'a'];0;messa;D:\GitHub\experiment1\data/2_REPSWITCH_1_Practice_2023-06-12_09h53.36.110_micPractice_recorded\recording_micPractice_2023-06-12_09h54.45.835.wav;[0.5762374000041746, 0.7121026000240818, 1.0077965999953449, 1.1332629999960773, 1.616928100003861];;;;;;;;;2;1;2023-06-12_09h53.36.110;REPSWITCH_1_Practice;202225;5,98726E+16;
REPSWITCH1_Practice/PICTURE_570.png;toro;speak;yellow;REPSWITCH1_Practice/lips.png;filler;2;F;0;13;13;13;;9,02239E+15;;;;;9,07234E+15;8,59744E+15;8,72253E+15;8,72253E+15;8,72253E+15;8,72253E+15;8,72253E+15;8,72253E+15;8,72253E+15;8,72253E+15;2,7758E+15;1,99949E+16;None;0;;D:\GitHub\experiment1\data/2_REPSWITCH_1_Practice_2023-06-12_09h53.36.110_micPractice_recorded\recording_micPractice_2023-06-12_09h54.50.584.wav;;9,02239E+15;9,02239E+15;9,02239E+15;9,02239E+15;9,02239E+15;9,02239E+15;9,02239E+15;;2;1;2023-06-12_09h53.36.110;REPSWITCH_1_Practice;202225;5,98726E+16;
REPSWITCH1_Practice/PICTURE_733.png;gafas;type;blue;REPSWITCH1_Practice/keyboard.png;nontarget;1;NT;0;14;14;14;;9,47896E+15;;;;;;9,07234E+15;9,17746E+15;9,17746E+15;9,17746E+15;9,17746E+15;9,17746E+15;9,17746E+15;9,17746E+15;9,17746E+15;2,5534E+15;2,00013E+16;['g', 'a', 'f', 'a', 's'];0;gafas;D:\GitHub\experiment1\data/2_REPSWITCH_1_Practice_2023-06-12_09h53.36.110_micPractice_recorded\recording_micPractice_2023-06-12_09h54.55.151.wav;[1.1476177999866195, 1.3188972999923863, 1.4829698000103235, 1.5769988000392914, 1.709641500026919];;;;;;;;;2;1;2023-06-12_09h53.36.110;REPSWITCH_1_Practice;202225;5,98726E+16;
REPSWITCH1_Practice/PICTURE_733.png;gafas;type;blue;REPSWITCH1_Practice/keyboard.png;repeat;1;T;0;15;15;15;;9,94884E+15;;;;;9,99875E+15;9,52894E+15;9,64894E+15;9,64894E+15;9,64894E+15;9,64894E+15;9,64894E+15;9,64894E+15;9,64894E+15;9,64894E+15;2,5579E+16;1,99995E+16;['g', 'a', 'f', 'a', 's'];0;gafas;D:\GitHub\experiment1\data/2_REPSWITCH_1_Practice_2023-06-12_09h53.36.110_micPractice_recorded\recording_micPractice_2023-06-12_09h54.59.849.wav;[0.9274589999695309, 1.077013199974317, 1.2172259999788366, 1.3278097999864258, 1.4369237999781035];9,94884E+15;9,94884E+15;9,94884E+15;9,94884E+15;9,94884E+15;9,94884E+15;9,94884E+15;;2;1;2023-06-12_09h53.36.110;REPSWITCH_1_Practice;202225;5,98726E+16;
REPSWITCH1_Practice/PICTURE_614.png;reina;speak;yellow;REPSWITCH1_Practice/lips.png;filler;2;F;0;16;16;16;;1,04037E+16;;;;;1,04537E+15;9,99875E+15;1,01039E+16;1,01039E+16;1,01039E+16;1,01039E+16;1,01039E+16;1,01039E+16;1,01039E+16;1,01039E+16;2,8161E+16;1,99954E+16;None;0;;D:\GitHub\experiment1\data/2_REPSWITCH_1_Practice_2023-06-12_09h53.36.110_micPractice_recorded\recording_micPractice_2023-06-12_09h55.04.398.wav;;1,04037E+16;1,04037E+16;1,04037E+16;1,04037E+16;1,04037E+16;1,04037E+16;1,04037E+16;;2;1;2023-06-12_09h53.36.110;REPSWITCH_1_Practice;202225;5,98726E+16;
REPSWITCH1_Practice/PICTURE_612.png;rana;type;blue;REPSWITCH1_Practice/keyboard.png;nontarget;1;NT;0;17;17;17;;1,08686E+16;;;;;;1,04537E+15;1,05671E+15;1,05671E+15;1,05671E+15;1,05671E+15;1,05671E+15;1,05671E+15;1,05671E+15;1,05671E+15;3,441E+16;2,00182E+16;['f', 'r', 'o', 'g'];0;frog;D:\GitHub\experiment1\data/2_REPSWITCH_1_Practice_2023-06-12_09h53.36.110_micPractice_recorded\recording_micPractice_2023-06-12_09h55.09.046.wav;[2.2715135000180453, 2.4429497999954037, 2.5491840000031516, 2.6786944000050426];;;;;;;;;2;1;2023-06-12_09h53.36.110;REPSWITCH_1_Practice;202225;5,98726E+16;
REPSWITCH1_Practice/PICTURE_612.png;rana;type;blue;REPSWITCH1_Practice/keyboard.png;repeat;2;T;0;18;18;18;;1,13502E+15;;;;;1,14001E+16;1,09186E+16;1,10503E+16;1,10503E+16;1,10503E+16;1,10503E+16;1,10503E+16;1,10503E+16;1,10503E+16;1,10503E+16;3,2048E+16;2,00026E+15;['f', 'r', 'o', 'g'];0;frog;D:\GitHub\experiment1\data/2_REPSWITCH_1_Practice_2023-06-12_09h53.36.110_micPractice_recorded\recording_micPractice_2023-06-12_09h55.13.863.wav;[0.7410837999777868, 0.921184099977836, 1.0581216999562457, 1.1997550000087358];1,13502E+15;1,13502E+15;1,13502E+15;1,13502E+15;1,13502E+15;1,13502E+15;1,13502E+15;;2;1;2023-06-12_09h53.36.110;REPSWITCH_1_Practice;202225;5,98726E+16;
REPSWITCH1_Practice/PICTURE_599.png;nube;type;blue;REPSWITCH1_Practice/keyboard.png;filler;2;F;0;19;19;19;;1,18167E+16;;;;;;1,14001E+16;1,15152E+16;1,15152E+16;1,15152E+16;1,15152E+16;1,15152E+16;1,15152E+16;1,15152E+16;1,15152E+16;3,4352E+16;1,99957E+16;['c', 'l', 'o', 'u', 'd'];0;cloud;D:\GitHub\experiment1\data/2_REPSWITCH_1_Practice_2023-06-12_09h53.36.110_micPractice_recorded\recording_micPractice_2023-06-12_09h55.18.527.wav;[0.8573562999954447, 0.9929840000113472, 1.1889650000375696, 1.4125452000298537, 1.4324546999996528];;;;;;;;;2;1;2023-06-12_09h53.36.110;REPSWITCH_1_Practice;202225;5,98726E+16;
REPSWITCH1_Practice/PICTURE_12.png;sirena;speak;yellow;REPSWITCH1_Practice/lips.png;nontarget;2;NT;0;20;20;20;;1,22733E+16;;;;;1,23233E+15;1,18667E+15;1,19734E+16;1,19734E+16;1,19734E+16;1,19734E+16;1,19734E+16;1,19734E+16;1,19734E+16;1,19734E+16;2,9355E+15;1,99995E+16;None;0;;D:\GitHub\experiment1\data/2_REPSWITCH_1_Practice_2023-06-12_09h53.36.110_micPractice_recorded\recording_micPractice_2023-06-12_09h55.23.094.wav;;1,22733E+16;1,22733E+16;1,22733E+16;1,22733E+16;1,22733E+16;1,22733E+16;1,22733E+16;;2;1;2023-06-12_09h53.36.110;REPSWITCH_1_Practice;202225;5,98726E+16;
REPSWITCH1_Practice/PICTURE_12.png;sirena;type;blue;REPSWITCH1_Practice/keyboard.png;switch;2;T;0;21;21;21;;1,27463E+16;;;;;;1,23233E+15;1,24433E+16;1,24433E+16;1,24433E+16;1,24433E+16;1,24433E+16;1,24433E+16;1,24433E+16;1,24433E+16;3,0323E+16;2,00074E+15;['s', 'i', 'r', 'e', 'n', 'a'];0;sirena;D:\GitHub\experiment1\data/2_REPSWITCH_1_Practice_2023-06-12_09h53.36.110_micPractice_recorded\recording_micPractice_2023-06-12_09h55.27.809.wav;[0.8470542000140995, 1.0056381999747828, 1.1656267999787815, 1.2217973999795504, 1.3996350999805145, 1.5792379999766126];;;;;;;;;2;1;2023-06-12_09h53.36.110;REPSWITCH_1_Practice;202225;5,98726E+16;
REPSWITCH1_Practice/PICTURE_614.png;reina;speak;yellow;REPSWITCH1_Practice/lips.png;filler;1;F;0;22;22;22;;1,32064E+16;;;;;1,32564E+15;1,27949E+16;1,29066E+15;1,29066E+15;1,29066E+15;1,29066E+15;1,29066E+15;1,29066E+15;1,29066E+15;1,29066E+15;2,9868E+16;2,01621E+15;None;0;;D:\GitHub\experiment1\data/2_REPSWITCH_1_Practice_2023-06-12_09h53.36.110_micPractice_recorded\recording_micPractice_2023-06-12_09h55.32.424.wav;;;;;;;;;;2;1;2023-06-12_09h53.36.110;REPSWITCH_1_Practice;202225;5,98726E+16;
REPSWITCH1_Practice/PICTURE_570.png;toro;type;blue;REPSWITCH1_Practice/keyboard.png;filler;1;F;0;23;23;23;;1,36662E+16;;;;;;1,32564E+15;1,33663E+16;1,33663E+16;1,33663E+16;1,33663E+16;1,33663E+16;1,33663E+16;1,33663E+16;1,33663E+16;6,0382E+15;2,01549E+15;['r', 'backspace', 't', 'o', 'r', 'o'];0;toro;D:\GitHub\experiment1\data/2_REPSWITCH_1_Practice_2023-06-12_09h53.36.110_micPractice_recorded\recording_micPractice_2023-06-12_09h55.37.023.wav;[0.7820056999917142, 1.3689233000040986, 1.619676599977538, 1.712911400012672, 1.8624472999945283, 1.9772571999928914];;;;;;;;;2;1;2023-06-12_09h53.36.110;REPSWITCH_1_Practice;202225;5,98726E+16;
;;;;;;;;;;;;;1,37162E+13;;;;;;;;;;;;;;;;;;;;;;;;;;;;;1,37663E+16;;;;;;;
