image,correctAns,respModal,frameColor,repSwitch,sequence,target,set,block,list,exp_version,stimulus,baseline,baseline_condition,trial_no,psychopy_trial,Column1,trialsREPSWITCH.thisRepN,trialsREPSWITCH.thisTrialN,trialsREPSWITCH.thisN,trialsREPSWITCH.thisIndex,textWelcome.started,textboxInstrMain1.started,textboxInstrMain1_2.started,textboxInstrMain1_3.started,keyInstrMain.started,keyInstrMain.keys,keyInstrMain.rt,textboxInstrMain2.started,textboxInstrMain2_2.started,textboxInstrMain2_3.started,textboxInstrMain2_4.started,textboxInstrMain2_5.started,textboxInstrMain2_6.started,textboxInstrMain2_7.started,textboxInstrMain2_8.started,textboxInstrMain2_9.started,textboxInstrMain2_10.started,textboxInstrMain2_11.started,textboxInstrMain2_12.started,keyInstrMain2.started,keyInstrMain2.keys,keyInstrMain2.rt,fixationITI.started,fixationITI.stopped,polygonColour.started,polygonWhite.started,imageObject.started,polygonType.started,textInput.started,keyResp.started,micRespv2l3.started,polygonColour.stopped,polygonWhite.stopped,imageObject.stopped,polygonType.stopped,textInput.stopped,keyResp.stopped,keyResp.keys,keyResp.corr,keyResp.rt,subjResponse,micRespv2l3.clip,textBlankLoop.started,textBlankLoop.stopped,keyPause.keys,textboxPause.started,keyPause.started,keyPause.rt,textboxGoodbye.started,textboxGoodbye.stopped,participant,session,date,expName,psychopyVersion,frameRate,
,,,,,,,,,,,,,,,,,,,,,8.9146861997433,11.412997799925506,11.412997799925506,11.412997799925506,11.412997799925506,space,5.79639570042491,,,,,,,,,,,,,,,,,,,,,,,,,,,,,,,,,,,,,,,,,,,,300203,001,2023-12-05_11h21.18.227,REPSWITCH1_version2_list3,2022.2.4,144.0297511997384,
,,,,,,,,,,,,,,,,,,,,,,,,,,,,17.226195899769664,17.226195899769664,17.226195899769664,17.226195899769664,17.226195899769664,17.226195899769664,17.226195899769664,17.226195899769664,17.226195899769664,17.226195899769664,17.226195899769664,17.226195899769664,17.226195899769664,space,4.525626900140196,,,,,,,,,,,,,,,,,,,,,,,,,,,,,300203,001,2023-12-05_11h21.18.227,REPSWITCH1_version2_list3,2022.2.4,144.0297511997384,
REPSWITCH1/PICTURE_663.png,columna,type,gold,filler,1,F,1,2,3,2,Extra6,0,None,1,0,1,0,0,0,0,,,,,,,,,,,,,,,,,,,,,,,21.84485789993778,22.93529099971056,22.93529099971056,22.93529099971056,22.93529099971056,22.93529099971056,22.93529099971056,22.93529099971056,22.93529099971056,25.96343019977212,25.96343019977212,25.96343019977212,25.96343019977212,25.96343019977212,25.96343019977212,"['c', 'o', 'l', 'u', 'm', 'n', 'a']",0,"[0.9107081005349755, 1.022369600366801, 1.175812900532037, 1.300574500579387, 1.5028988006524742, 1.6774287004955113, 1.767499700654298]",columna,C:\2023\REPSWITCH21092023\REPSWITCH_excgange\REPSWITCH_excgange\data/300203_REPSWITCH1_version2_list3_2023-12-05_11h21.18.227_micRespv2l3_recorded\recording_micRespv2l3_2023-12-05_11h21.37.141.wav,25.96343019977212,26.463493699673563,None,,,,,,300203,001,2023-12-05_11h21.18.227,REPSWITCH1_version2_list3,2022.2.4,144.0297511997384,
REPSWITCH1/PICTURE_128.png,muñeca,speak,darkblue,nontarget,2,NT,1,2,3,2,Stim4_Set1,1,switch,2,1,2,0,1,1,1,,,,,,,,,,,,,,,,,,,,,,,26.463493699673563,27.505344499833882,27.505344499833882,27.505344499833882,27.505344499833882,27.505344499833882,27.505344499833882,27.505344499833882,27.505344499833882,30.533476599957794,30.533476599957794,30.533476599957794,30.533476599957794,30.533476599957794,30.533476599957794,None,0,,,C:\2023\REPSWITCH21092023\REPSWITCH_excgange\REPSWITCH_excgange\data/300203_REPSWITCH1_version2_list3_2023-12-05_11h21.18.227_micRespv2l3_recorded\recording_micRespv2l3_2023-12-05_11h21.41.709.wav,30.533476599957794,,None,,,,,,300203,001,2023-12-05_11h21.18.227,REPSWITCH1_version2_list3,2022.2.4,144.0297511997384,
REPSWITCH1/PICTURE_128.png,muñeca,speak,darkblue,repeat,2,T,1,2,3,2,Stim4_Set1,0,None,3,2,3,0,2,2,2,,,,,,,,,,,,,,,,,,,,,,,31.03354369988665,32.06844289973378,32.06844289973378,32.06844289973378,32.06844289973378,32.06844289973378,32.06844289973378,32.06844289973378,32.06844289973378,35.08969860011712,35.08969860011712,35.08969860011712,35.08969860011712,35.08969860011712,35.08969860011712,None,0,,,C:\2023\REPSWITCH21092023\REPSWITCH_excgange\REPSWITCH_excgange\data/300203_REPSWITCH1_version2_list3_2023-12-05_11h21.18.227_micRespv2l3_recorded\recording_micRespv2l3_2023-12-05_11h21.46.271.wav,35.08969860011712,35.58972520008683,None,,,,,,300203,001,2023-12-05_11h21.18.227,REPSWITCH1_version2_list3,2022.2.4,144.0297511997384,
REPSWITCH1/PICTURE_8.png,pierna,type,gold,filler,1,F,1,2,3,2,Stim3_Set4,0,None,4,3,4,0,3,3,3,,,,,,,,,,,,,,,,,,,,,,,35.58972520008683,36.707936899736524,36.707936899736524,36.707936899736524,36.707936899736524,36.707936899736524,36.707936899736524,36.707936899736524,36.707936899736524,39.736123299691826,39.736123299691826,39.736123299691826,39.736123299691826,39.736123299691826,39.736123299691826,"['p', 'i', 'e', 'r', 'n', 'a']",0,"[0.8537781005725265, 1.2038113004527986, 1.28154360037297, 1.3882037005387247, 1.5826018005609512, 1.7051917002536356]",pierna,C:\2023\REPSWITCH21092023\REPSWITCH_excgange\REPSWITCH_excgange\data/300203_REPSWITCH1_version2_list3_2023-12-05_11h21.18.227_micRespv2l3_recorded\recording_micRespv2l3_2023-12-05_11h21.50.911.wav,39.736123299691826,,None,,,,,,300203,001,2023-12-05_11h21.18.227,REPSWITCH1_version2_list3,2022.2.4,144.0297511997384,
REPSWITCH1/PICTURE_135.png,traje,speak,darkblue,nontarget,2,NT,1,2,3,2,Stim3_Set1,1,switch,5,4,5,0,4,4,4,,,,,,,,,,,,,,,,,,,,,,,40.23615580005571,41.3335583996959,41.3335583996959,41.3335583996959,41.3335583996959,41.3335583996959,41.3335583996959,41.3335583996959,41.3335583996959,44.354833299759775,44.354833299759775,44.354833299759775,44.354833299759775,44.354833299759775,44.354833299759775,None,0,,,C:\2023\REPSWITCH21092023\REPSWITCH_excgange\REPSWITCH_excgange\data/300203_REPSWITCH1_version2_list3_2023-12-05_11h21.18.227_micRespv2l3_recorded\recording_micRespv2l3_2023-12-05_11h21.55.537.wav,44.354833299759775,44.854815599974245,None,,,,,,300203,001,2023-12-05_11h21.18.227,REPSWITCH1_version2_list3,2022.2.4,144.0297511997384,
REPSWITCH1/PICTURE_135.png,traje,speak,darkblue,repeat,2,T,1,2,3,2,Stim3_Set1,0,None,6,5,6,0,5,5,5,,,,,,,,,,,,,,,,,,,,,,,44.854815599974245,45.95219590002671,45.95219590002671,45.95219590002671,45.95219590002671,45.95219590002671,45.95219590002671,45.95219590002671,45.95219590002671,48.973388799931854,48.973388799931854,48.973388799931854,48.973388799931854,48.973388799931854,48.973388799931854,None,0,,,C:\2023\REPSWITCH21092023\REPSWITCH_excgange\REPSWITCH_excgange\data/300203_REPSWITCH1_version2_list3_2023-12-05_11h21.18.227_micRespv2l3_recorded\recording_micRespv2l3_2023-12-05_11h22.00.156.wav,48.973388799931854,49.473467899952084,None,,,,,,300203,001,2023-12-05_11h21.18.227,REPSWITCH1_version2_list3,2022.2.4,144.0297511997384,
REPSWITCH1/PICTURE_673.png,tenedor,type,gold,filler,1,F,1,2,3,2,Extra5,0,None,7,6,7,0,6,6,6,,,,,,,,,,,,,,,,,,,,,,,49.473467899952084,50.563939000014216,50.563939000014216,50.563939000014216,50.563939000014216,50.563939000014216,50.563939000014216,50.563939000014216,50.563939000014216,53.58520529977977,53.58520529977977,53.58520529977977,53.58520529977977,53.58520529977977,53.58520529977977,"['t', 'e', 'n', 'e', 'd', 'o', 'r']",0,"[0.7463136003352702, 0.8738767001777887, 0.9834721004590392, 1.1230402002111077, 1.3124694004654884, 1.4191254004836082, 1.510652500204742]",tenedor,C:\2023\REPSWITCH21092023\REPSWITCH_excgange\REPSWITCH_excgange\data/300203_REPSWITCH1_version2_list3_2023-12-05_11h21.18.227_micRespv2l3_recorded\recording_micRespv2l3_2023-12-05_11h22.04.766.wav,53.58520529977977,54.08520639967173,None,,,,,,300203,001,2023-12-05_11h21.18.227,REPSWITCH1_version2_list3,2022.2.4,144.0297511997384,
REPSWITCH1/PICTURE_728.png,pulpo,speak,darkblue,filler,2,F,1,2,3,2,Stim8_Set4,0,None,8,7,8,0,7,7,7,,,,,,,,,,,,,,,,,,,,,,,54.08520639967173,55.12007590010762,55.12007590010762,55.12007590010762,55.12007590010762,55.12007590010762,55.12007590010762,55.12007590010762,55.12007590010762,58.14830349991098,58.14830349991098,58.14830349991098,58.14830349991098,58.14830349991098,58.14830349991098,None,0,,,C:\2023\REPSWITCH21092023\REPSWITCH_excgange\REPSWITCH_excgange\data/300203_REPSWITCH1_version2_list3_2023-12-05_11h21.18.227_micRespv2l3_recorded\recording_micRespv2l3_2023-12-05_11h22.09.324.wav,58.14830349991098,,None,,,,,,300203,001,2023-12-05_11h21.18.227,REPSWITCH1_version2_list3,2022.2.4,144.0297511997384,
REPSWITCH1/PICTURE_16.png,cazador,speak,darkblue,nontarget,2,NT,1,2,3,2,Stim6_Set1,1,repeat,9,8,9,0,8,8,8,,,,,,,,,,,,,,,,,,,,,,,58.648375399876386,59.863723000045866,59.863723000045866,59.863723000045866,59.863723000045866,59.863723000045866,59.863723000045866,59.863723000045866,59.863723000045866,62.89192349975929,62.89192349975929,62.89192349975929,62.89192349975929,62.89192349975929,62.89192349975929,None,0,,,C:\2023\REPSWITCH21092023\REPSWITCH_excgange\REPSWITCH_excgange\data/300203_REPSWITCH1_version2_list3_2023-12-05_11h21.18.227_micRespv2l3_recorded\recording_micRespv2l3_2023-12-05_11h22.14.067.wav,62.89192349975929,,None,,,,,,300203,001,2023-12-05_11h21.18.227,REPSWITCH1_version2_list3,2022.2.4,144.0297511997384,
REPSWITCH1/PICTURE_16.png,cazador,type,gold,switch,1,T,1,2,3,2,Stim6_Set1,0,None,10,9,10,0,9,9,9,,,,,,,,,,,,,,,,,,,,,,,63.39200979983434,64.48944849986583,64.48944849986583,64.48944849986583,64.48944849986583,64.48944849986583,64.48944849986583,64.48944849986583,64.48944849986583,67.51054750010371,67.51054750010371,67.51054750010371,67.51054750010371,67.51054750010371,67.51054750010371,"['c', 'a', 'z', 'a', 'd', 'o', 'r']",0,"[0.6833097003400326, 0.8496992001309991, 1.0719536999240518, 1.2736752000637352, 1.5323689999058843, 1.7107687001116574, 1.7715611001476645]",cazador,C:\2023\REPSWITCH21092023\REPSWITCH_excgange\REPSWITCH_excgange\data/300203_REPSWITCH1_version2_list3_2023-12-05_11h21.18.227_micRespv2l3_recorded\recording_micRespv2l3_2023-12-05_11h22.18.693.wav,67.51054750010371,68.01061169989407,None,,,,,,300203,001,2023-12-05_11h21.18.227,REPSWITCH1_version2_list3,2022.2.4,144.0297511997384,
REPSWITCH1/PICTURE_498.png,taza,type,gold,filler,1,F,1,2,3,2,Stim4_Set4,1,repeat,11,10,11,0,10,10,10,,,,,,,,,,,,,,,,,,,,,,,68.01061169989407,69.14969930006191,69.14969930006191,69.14969930006191,69.14969930006191,69.14969930006191,69.14969930006191,69.14969930006191,69.14969930006191,72.17098459973931,72.17098459973931,72.17098459973931,72.17098459973931,72.17098459973931,72.17098459973931,"['t', 'a', 'z', 'a']",0,"[1.1984387002885342, 1.3239503004588187, 1.5247684004716575, 1.7062620003707707]",taza,C:\2023\REPSWITCH21092023\REPSWITCH_excgange\REPSWITCH_excgange\data/300203_REPSWITCH1_version2_list3_2023-12-05_11h21.18.227_micRespv2l3_recorded\recording_micRespv2l3_2023-12-05_11h22.23.353.wav,72.17098459973931,72.6709845000878,None,,,,,,300203,001,2023-12-05_11h21.18.227,REPSWITCH1_version2_list3,2022.2.4,144.0297511997384,
REPSWITCH1/PICTURE_381.png,fresa,type,gold,nontarget,1,NT,1,2,3,2,Stim2_Set1,1,repeat,12,11,12,0,11,11,11,,,,,,,,,,,,,,,,,,,,,,,72.6709845000878,73.69192919973284,73.69192919973284,73.69192919973284,73.69192919973284,73.69192919973284,73.69192919973284,73.69192919973284,73.69192919973284,76.71316519984975,76.71316519984975,76.71316519984975,76.71316519984975,76.71316519984975,76.71316519984975,"['f', 'r', 'e', 's', 'a']",0,"[0.7494654003530741, 1.0333974002860487, 1.1527603003196418, 1.3462316002696753, 1.4857563003897667]",fresa,C:\2023\REPSWITCH21092023\REPSWITCH_excgange\REPSWITCH_excgange\data/300203_REPSWITCH1_version2_list3_2023-12-05_11h21.18.227_micRespv2l3_recorded\recording_micRespv2l3_2023-12-05_11h22.27.895.wav,76.71316519984975,77.21324739977717,None,,,,,,300203,001,2023-12-05_11h21.18.227,REPSWITCH1_version2_list3,2022.2.4,144.0297511997384,
REPSWITCH1/PICTURE_381.png,fresa,speak,darkblue,switch,2,T,1,2,3,2,Stim2_Set1,0,None,13,12,13,0,12,12,12,,,,,,,,,,,,,,,,,,,,,,,77.21324739977717,78.39398019993678,78.39398019993678,78.39398019993678,78.39398019993678,78.39398019993678,78.39398019993678,78.39398019993678,78.39398019993678,81.42213650001213,81.42213650001213,81.42213650001213,81.42213650001213,81.42213650001213,81.42213650001213,None,0,,,C:\2023\REPSWITCH21092023\REPSWITCH_excgange\REPSWITCH_excgange\data/300203_REPSWITCH1_version2_list3_2023-12-05_11h21.18.227_micRespv2l3_recorded\recording_micRespv2l3_2023-12-05_11h22.32.598.wav,81.42213650001213,,None,,,,,,300203,001,2023-12-05_11h21.18.227,REPSWITCH1_version2_list3,2022.2.4,144.0297511997384,
REPSWITCH1/PICTURE_178.png,puente,speak,darkblue,nontarget,2,NT,1,2,3,2,Stim1_Set1,0,None,14,13,14,0,13,13,13,,,,,,,,,,,,,,,,,,,,,,,81.92219949979335,83.13068349985406,83.13068349985406,83.13068349985406,83.13068349985406,83.13068349985406,83.13068349985406,83.13068349985406,83.13068349985406,86.15894289966673,86.15894289966673,86.15894289966673,86.15894289966673,86.15894289966673,86.15894289966673,None,0,,,C:\2023\REPSWITCH21092023\REPSWITCH_excgange\REPSWITCH_excgange\data/300203_REPSWITCH1_version2_list3_2023-12-05_11h21.18.227_micRespv2l3_recorded\recording_micRespv2l3_2023-12-05_11h22.37.334.wav,86.15894289966673,,None,,,,,,300203,001,2023-12-05_11h21.18.227,REPSWITCH1_version2_list3,2022.2.4,144.0297511997384,
REPSWITCH1/PICTURE_178.png,puente,type,gold,switch,1,T,1,2,3,2,Stim1_Set1,0,None,15,14,15,0,14,14,14,,,,,,,,,,,,,,,,,,,,,,,86.65900489967316,87.73548319982365,87.73548319982365,87.73548319982365,87.73548319982365,87.73548319982365,87.73548319982365,87.73548319982365,87.73548319982365,90.75670609995723,90.75670609995723,90.75670609995723,90.75670609995723,90.75670609995723,90.75670609995723,"['p', 'u', 'e', 'n', 't', 'e']",0,"[0.5093570002354681, 0.6303454004228115, 0.7938163001090288, 0.9703802005387843, 1.3330105002969503, 1.516717600170523]",puente,C:\2023\REPSWITCH21092023\REPSWITCH_excgange\REPSWITCH_excgange\data/300203_REPSWITCH1_version2_list3_2023-12-05_11h21.18.227_micRespv2l3_recorded\recording_micRespv2l3_2023-12-05_11h22.41.938.wav,90.75670609995723,91.25676529994234,None,,,,,,300203,001,2023-12-05_11h21.18.227,REPSWITCH1_version2_list3,2022.2.4,144.0297511997384,
REPSWITCH1/PICTURE_719.png,baño,speak,darkblue,filler,2,F,1,2,3,2,Stim2_Set4,0,None,16,15,16,0,15,15,15,,,,,,,,,,,,,,,,,,,,,,,91.25676529994234,92.44445509975776,92.44445509975776,92.44445509975776,92.44445509975776,92.44445509975776,92.44445509975776,92.44445509975776,92.44445509975776,95.4725676998496,95.4725676998496,95.4725676998496,95.4725676998496,95.4725676998496,95.4725676998496,None,0,,,C:\2023\REPSWITCH21092023\REPSWITCH_excgange\REPSWITCH_excgange\data/300203_REPSWITCH1_version2_list3_2023-12-05_11h21.18.227_micRespv2l3_recorded\recording_micRespv2l3_2023-12-05_11h22.46.648.wav,95.4725676998496,,None,,,,,,300203,001,2023-12-05_11h21.18.227,REPSWITCH1_version2_list3,2022.2.4,144.0297511997384,
REPSWITCH1/PICTURE_169.png,espalda,type,gold,nontarget,1,NT,1,2,3,2,Stim8_Set1,1,switch,17,16,17,0,16,16,16,,,,,,,,,,,,,,,,,,,,,,,95.97265179967508,97.18808559980243,97.18808559980243,97.18808559980243,97.18808559980243,97.18808559980243,97.18808559980243,97.18808559980243,97.18808559980243,100.2092915000394,100.2092915000394,100.2092915000394,100.2092915000394,100.2092915000394,100.2092915000394,"['e', 's', 'p', 'a', 'l', 'd', 'a']",0,"[1.0034024002961814, 1.1179768000729382, 1.2647304004058242, 1.3454196001403034, 1.507832400035113, 1.873892200179398, 2.0483669000677764]",espalda,C:\2023\REPSWITCH21092023\REPSWITCH_excgange\REPSWITCH_excgange\data/300203_REPSWITCH1_version2_list3_2023-12-05_11h21.18.227_micRespv2l3_recorded\recording_micRespv2l3_2023-12-05_11h22.51.392.wav,100.2092915000394,100.70937900012359,None,,,,,,300203,001,2023-12-05_11h21.18.227,REPSWITCH1_version2_list3,2022.2.4,144.0297511997384,
REPSWITCH1/PICTURE_169.png,espalda,type,gold,repeat,1,T,1,2,3,2,Stim8_Set1,0,None,18,17,18,0,17,17,17,,,,,,,,,,,,,,,,,,,,,,,100.70937900012359,101.82765989983454,101.82765989983454,101.82765989983454,101.82765989983454,101.82765989983454,101.82765989983454,101.82765989983454,101.82765989983454,104.8489081999287,104.8489081999287,104.8489081999287,104.8489081999287,104.8489081999287,104.8489081999287,"['e', 's', 'p', 'a', 'l', 'd', 'a']",0,"[0.9244529004208744, 1.1901792003773153, 1.3733997005037963, 1.469077900517732, 1.702963000163436, 1.8963271002285182, 2.017741800285876]",espalda,C:\2023\REPSWITCH21092023\REPSWITCH_excgange\REPSWITCH_excgange\data/300203_REPSWITCH1_version2_list3_2023-12-05_11h21.18.227_micRespv2l3_recorded\recording_micRespv2l3_2023-12-05_11h22.56.031.wav,104.8489081999287,105.34889699984342,None,,,,,,300203,001,2023-12-05_11h21.18.227,REPSWITCH1_version2_list3,2022.2.4,144.0297511997384,
REPSWITCH1/PICTURE_48.png,bombero,speak,darkblue,filler,2,F,1,2,3,2,Stim7_Set4,1,switch,19,18,19,0,18,18,18,,,,,,,,,,,,,,,,,,,,,,,105.34889699984342,106.50190240005031,106.50190240005031,106.50190240005031,106.50190240005031,106.50190240005031,106.50190240005031,106.50190240005031,106.50190240005031,109.52302709966898,109.52302709966898,109.52302709966898,109.52302709966898,109.52302709966898,109.52302709966898,None,0,,,C:\2023\REPSWITCH21092023\REPSWITCH_excgange\REPSWITCH_excgange\data/300203_REPSWITCH1_version2_list3_2023-12-05_11h21.18.227_micRespv2l3_recorded\recording_micRespv2l3_2023-12-05_11h23.00.705.wav,109.52302709966898,110.02312040003017,None,,,,,,300203,001,2023-12-05_11h21.18.227,REPSWITCH1_version2_list3,2022.2.4,144.0297511997384,
REPSWITCH1/PICTURE_19.png,pavo,type,gold,nontarget,1,NT,1,2,3,2,Stim5_Set1,1,switch,20,19,20,0,19,19,19,,,,,,,,,,,,,,,,,,,,,,,110.02312040003017,111.16220630006865,111.16220630006865,111.16220630006865,111.16220630006865,111.16220630006865,111.16220630006865,111.16220630006865,111.16220630006865,114.19040479976684,114.19040479976684,114.19040479976684,114.19040479976684,114.19040479976684,114.19040479976684,"['p', 'a', 'b', 'o', 'backspace', 'backspace', 'v', 'o']",0,"[0.745469800196588, 0.8291799002327025, 1.0008331001736224, 1.165249700192362, 1.6311947000212967, 1.8223802000284195, 1.9013494001701474, 2.0329458001069725]",pavo,C:\2023\REPSWITCH21092023\REPSWITCH_excgange\REPSWITCH_excgange\data/300203_REPSWITCH1_version2_list3_2023-12-05_11h21.18.227_micRespv2l3_recorded\recording_micRespv2l3_2023-12-05_11h23.05.366.wav,114.19040479976684,,None,,,,,,300203,001,2023-12-05_11h21.18.227,REPSWITCH1_version2_list3,2022.2.4,144.0297511997384,
REPSWITCH1/PICTURE_19.png,pavo,type,gold,repeat,1,T,1,2,3,2,Stim5_Set1,0,None,21,20,21,0,20,20,20,,,,,,,,,,,,,,,,,,,,,,,114.6903665997088,115.81555719999596,115.81555719999596,115.81555719999596,115.81555719999596,115.81555719999596,115.81555719999596,115.81555719999596,115.81555719999596,118.83674059994519,118.83674059994519,118.83674059994519,118.83674059994519,118.83674059994519,118.83674059994519,"['p', 'a', 'v', 'o']",0,"[1.1432377002201974, 1.1980477003380656, 1.3706265999935567, 1.4712896002456546]",pavo,C:\2023\REPSWITCH21092023\REPSWITCH_excgange\REPSWITCH_excgange\data/300203_REPSWITCH1_version2_list3_2023-12-05_11h21.18.227_micRespv2l3_recorded\recording_micRespv2l3_2023-12-05_11h23.10.018.wav,118.83674059994519,119.33684269990772,None,,,,,,300203,001,2023-12-05_11h21.18.227,REPSWITCH1_version2_list3,2022.2.4,144.0297511997384,
REPSWITCH1/PICTURE_319.png,vaca,speak,darkblue,filler,2,F,1,2,3,2,Stim1_Set4,0,None,22,21,22,0,21,21,21,,,,,,,,,,,,,,,,,,,,,,,119.33684269990772,120.39946869993582,120.39946869993582,120.39946869993582,120.39946869993582,120.39946869993582,120.39946869993582,120.39946869993582,120.39946869993582,123.42772629996762,123.42772629996762,123.42772629996762,123.42772629996762,123.42772629996762,123.42772629996762,None,0,,,C:\2023\REPSWITCH21092023\REPSWITCH_excgange\REPSWITCH_excgange\data/300203_REPSWITCH1_version2_list3_2023-12-05_11h21.18.227_micRespv2l3_recorded\recording_micRespv2l3_2023-12-05_11h23.14.603.wav,123.42772629996762,,None,,,,,,300203,001,2023-12-05_11h21.18.227,REPSWITCH1_version2_list3,2022.2.4,144.0297511997384,
REPSWITCH1/PICTURE_338.png,regalo,type,gold,filler,1,F,1,2,3,2,Stim6_Set4,0,None,23,22,23,0,22,22,22,,,,,,,,,,,,,,,,,,,,,,,123.9277228997089,125.09458689996973,125.09458689996973,125.09458689996973,125.09458689996973,125.09458689996973,125.09458689996973,125.09458689996973,125.09458689996973,128.11576709989458,128.11576709989458,128.11576709989458,128.11576709989458,128.11576709989458,128.11576709989458,"['r', 'a', 'backspace', 'e', 'g', 'a', 'l', 'o']",0,"[1.0047706002369523, 1.2012273003347218, 1.6250329003669322, 1.7273272005841136, 1.9236527001485229, 1.9987452002242208, 2.4206432001665235, 2.5755745004862547]",regalo,C:\2023\REPSWITCH21092023\REPSWITCH_excgange\REPSWITCH_excgange\data/300203_REPSWITCH1_version2_list3_2023-12-05_11h21.18.227_micRespv2l3_recorded\recording_micRespv2l3_2023-12-05_11h23.19.297.wav,128.11576709989458,128.61583989998326,None,,,,,,300203,001,2023-12-05_11h21.18.227,REPSWITCH1_version2_list3,2022.2.4,144.0297511997384,
REPSWITCH1/PICTURE_142.png,vaso,type,gold,nontarget,1,NT,1,2,3,2,Stim7_Set1,0,None,24,23,24,0,23,23,23,,,,,,,,,,,,,,,,,,,,,,,128.61583989998326,129.65764799993485,129.65764799993485,129.65764799993485,129.65764799993485,129.65764799993485,129.65764799993485,129.65764799993485,129.65764799993485,132.68582689994946,132.68582689994946,132.68582689994946,132.68582689994946,132.68582689994946,132.68582689994946,"['v', 'a', 's', 'o']",0,"[1.245174300391227, 1.5705781006254256, 1.7659340002574027, 1.9017822002060711]",vaso,C:\2023\REPSWITCH21092023\REPSWITCH_excgange\REPSWITCH_excgange\data/300203_REPSWITCH1_version2_list3_2023-12-05_11h21.18.227_micRespv2l3_recorded\recording_micRespv2l3_2023-12-05_11h23.23.862.wav,132.68582689994946,,None,,,,,,300203,001,2023-12-05_11h21.18.227,REPSWITCH1_version2_list3,2022.2.4,144.0297511997384,
REPSWITCH1/PICTURE_142.png,vaso,speak,darkblue,switch,2,T,1,2,3,2,Stim7_Set1,0,None,25,24,25,0,24,24,24,,,,,,,,,,,,,,,,,,,,,,,133.1858985996805,134.28326989989728,134.28326989989728,134.28326989989728,134.28326989989728,134.28326989989728,134.28326989989728,134.28326989989728,134.28326989989728,137.30446399981156,137.30446399981156,137.30446399981156,137.30446399981156,137.30446399981156,137.30446399981156,None,0,,,C:\2023\REPSWITCH21092023\REPSWITCH_excgange\REPSWITCH_excgange\data/300203_REPSWITCH1_version2_list3_2023-12-05_11h21.18.227_micRespv2l3_recorded\recording_micRespv2l3_2023-12-05_11h23.28.487.wav,137.30446399981156,137.80459449999034,None,,,,,,300203,001,2023-12-05_11h21.18.227,REPSWITCH1_version2_list3,2022.2.4,144.0297511997384,
REPSWITCH1/PICTURE_687.png,camisa,type,gold,filler,1,F,1,2,3,2,Stim5_Set4,1,switch,26,25,26,0,25,25,25,,,,,,,,,,,,,,,,,,,,,,,137.80459449999034,138.88113289978355,138.88113289978355,138.88113289978355,138.88113289978355,138.88113289978355,138.88113289978355,138.88113289978355,138.88113289978355,141.9022730998695,141.9022730998695,141.9022730998695,141.9022730998695,141.9022730998695,141.9022730998695,"['c', 'a', 'm', 'i', 's', 'a']",0,"[1.0761021999642253, 1.1741201002150774, 1.2807284002192318, 1.3886977001093328, 1.4804831999354064, 1.5768377003259957]",camisa,C:\2023\REPSWITCH21092023\REPSWITCH_excgange\REPSWITCH_excgange\data/300203_REPSWITCH1_version2_list3_2023-12-05_11h21.18.227_micRespv2l3_recorded\recording_micRespv2l3_2023-12-05_11h23.33.084.wav,141.9022730998695,142.402356099803,None,,,,,,300203,001,2023-12-05_11h21.18.227,REPSWITCH1_version2_list3,2022.2.4,144.0297511997384,
REPSWITCH1/PICTURE_30.png,granja,type,gold,nontarget,1,NT,2,2,3,2,Stim5_Set2,0,None,27,26,27,0,26,26,26,,,,,,,,,,,,,,,,,,,,,,,142.402356099803,143.4719752999954,143.4719752999954,143.4719752999954,143.4719752999954,143.4719752999954,143.4719752999954,143.4719752999954,143.4719752999954,146.50013859989122,146.50013859989122,146.50013859989122,146.50013859989122,146.50013859989122,146.50013859989122,"['g', 'r', 'a', 'n', 'j', 'a']",0,"[0.8838037005625665, 1.1389269004575908, 1.2728114002384245, 1.3757698005065322, 1.5820856001228094, 1.6727759004570544]",granja,C:\2023\REPSWITCH21092023\REPSWITCH_excgange\REPSWITCH_excgange\data/300203_REPSWITCH1_version2_list3_2023-12-05_11h21.18.227_micRespv2l3_recorded\recording_micRespv2l3_2023-12-05_11h23.37.677.wav,146.50013859989122,147.0001877998002,None,,,,,,300203,001,2023-12-05_11h21.18.227,REPSWITCH1_version2_list3,2022.2.4,144.0297511997384,
REPSWITCH1/PICTURE_30.png,granja,type,gold,repeat,1,T,2,2,3,2,Stim5_Set2,0,None,28,27,28,0,27,27,27,,,,,,,,,,,,,,,,,,,,,,,147.0001877998002,148.12533649988472,148.12533649988472,148.12533649988472,148.12533649988472,148.12533649988472,148.12533649988472,148.12533649988472,148.12533649988472,151.15350579982623,151.15350579982623,151.15350579982623,151.15350579982623,151.15350579982623,151.15350579982623,"['g', 'r', 'a', 'n', 'j', 'a']",0,"[0.953500300180167, 1.166764299850911, 1.3122868002392352, 1.4016006998717785, 1.5973171000368893, 1.6989854001440108]",granja,C:\2023\REPSWITCH21092023\REPSWITCH_excgange\REPSWITCH_excgange\data/300203_REPSWITCH1_version2_list3_2023-12-05_11h21.18.227_micRespv2l3_recorded\recording_micRespv2l3_2023-12-05_11h23.42.329.wav,151.15350579982623,,None,,,,,,300203,001,2023-12-05_11h21.18.227,REPSWITCH1_version2_list3,2022.2.4,144.0297511997384,
REPSWITCH1/PICTURE_128.png,muñeca,speak,darkblue,filler,2,F,2,2,3,2,Stim4_Set1,0,None,29,28,29,0,28,28,28,,,,,,,,,,,,,,,,,,,,,,,151.65356629993767,152.70238990010694,152.70238990010694,152.70238990010694,152.70238990010694,152.70238990010694,152.70238990010694,152.70238990010694,152.70238990010694,155.72353600012138,155.72353600012138,155.72353600012138,155.72353600012138,155.72353600012138,155.72353600012138,None,0,,,C:\2023\REPSWITCH21092023\REPSWITCH_excgange\REPSWITCH_excgange\data/300203_REPSWITCH1_version2_list3_2023-12-05_11h21.18.227_micRespv2l3_recorded\recording_micRespv2l3_2023-12-05_11h23.46.906.wav,155.72353600012138,156.22364480001852,None,,,,,,300203,001,2023-12-05_11h21.18.227,REPSWITCH1_version2_list3,2022.2.4,144.0297511997384,
REPSWITCH1/PICTURE_264.png,mano,type,gold,nontarget,1,NT,2,2,3,2,Stim3_Set2,1,switch,30,29,30,0,29,29,29,,,,,,,,,,,,,,,,,,,,,,,156.22364480001852,157.3904649000615,157.3904649000615,157.3904649000615,157.3904649000615,157.3904649000615,157.3904649000615,157.3904649000615,157.3904649000615,160.41166839981452,160.41166839981452,160.41166839981452,160.41166839981452,160.41166839981452,160.41166839981452,"['m', 'a', 'n', 'o']",0,"[0.651774300262332, 0.7833152003586292, 0.8864300004206598, 0.990053300280124]",mano,C:\2023\REPSWITCH21092023\REPSWITCH_excgange\REPSWITCH_excgange\data/300203_REPSWITCH1_version2_list3_2023-12-05_11h21.18.227_micRespv2l3_recorded\recording_micRespv2l3_2023-12-05_11h23.51.593.wav,160.41166839981452,160.91175549989566,None,,,,,,300203,001,2023-12-05_11h21.18.227,REPSWITCH1_version2_list3,2022.2.4,144.0297511997384,
REPSWITCH1/PICTURE_264.png,mano,type,gold,repeat,1,T,2,2,3,2,Stim3_Set2,0,None,31,30,31,0,30,30,30,,,,,,,,,,,,,,,,,,,,,,,160.91175549989566,161.9674820001237,161.9674820001237,161.9674820001237,161.9674820001237,161.9674820001237,161.9674820001237,161.9674820001237,161.9674820001237,164.99568439973518,164.99568439973518,164.99568439973518,164.99568439973518,164.99568439973518,164.99568439973518,"['m', 'a', 'n', 'o']",0,"[0.6740137999877334, 1.1345101003535092, 1.2361762002110481, 1.3368387003429234]",mano,C:\2023\REPSWITCH21092023\REPSWITCH_excgange\REPSWITCH_excgange\data/300203_REPSWITCH1_version2_list3_2023-12-05_11h21.18.227_micRespv2l3_recorded\recording_micRespv2l3_2023-12-05_11h23.56.171.wav,164.99568439973518,,None,,,,,,300203,001,2023-12-05_11h21.18.227,REPSWITCH1_version2_list3,2022.2.4,144.0297511997384,
REPSWITCH1/PICTURE_175.png,pintor,type,gold,nontarget,1,NT,2,2,3,2,Stim1_Set2,0,None,32,31,32,0,31,31,31,,,,,,,,,,,,,,,,,,,,,,,165.49569189967588,166.7180531998165,166.7180531998165,166.7180531998165,166.7180531998165,166.7180531998165,166.7180531998165,166.7180531998165,166.7180531998165,169.74625530000776,169.74625530000776,169.74625530000776,169.74625530000776,169.74625530000776,169.74625530000776,"['p', 'i', 'n', 't', 'o', 'r']",0,"[1.0465999003499746, 1.1741321003064513, 1.2658550003543496, 1.414407200179994, 1.5211971001699567, 1.6281499001197517]",pintor,C:\2023\REPSWITCH21092023\REPSWITCH_excgange\REPSWITCH_excgange\data/300203_REPSWITCH1_version2_list3_2023-12-05_11h21.18.227_micRespv2l3_recorded\recording_micRespv2l3_2023-12-05_11h24.00.922.wav,169.74625530000776,,None,,,,,,300203,001,2023-12-05_11h21.18.227,REPSWITCH1_version2_list3,2022.2.4,144.0297511997384,
REPSWITCH1/PICTURE_175.png,pintor,speak,darkblue,switch,2,T,2,2,3,2,Stim1_Set2,0,None,33,32,33,0,32,32,32,,,,,,,,,,,,,,,,,,,,,,,170.2463150001131,171.37843309994787,171.37843309994787,171.37843309994787,171.37843309994787,171.37843309994787,171.37843309994787,171.37843309994787,171.37843309994787,174.3997077997774,174.3997077997774,174.3997077997774,174.3997077997774,174.3997077997774,174.3997077997774,None,0,,,C:\2023\REPSWITCH21092023\REPSWITCH_excgange\REPSWITCH_excgange\data/300203_REPSWITCH1_version2_list3_2023-12-05_11h21.18.227_micRespv2l3_recorded\recording_micRespv2l3_2023-12-05_11h24.05.582.wav,174.3997077997774,174.8997076000087,None,,,,,,300203,001,2023-12-05_11h21.18.227,REPSWITCH1_version2_list3,2022.2.4,144.0297511997384,
REPSWITCH1/PICTURE_135.png,traje,speak,darkblue,filler,2,F,2,2,3,2,Stim3_Set1,1,repeat,34,33,34,0,33,33,33,,,,,,,,,,,,,,,,,,,,,,,174.8997076000087,175.9762474000454,175.9762474000454,175.9762474000454,175.9762474000454,175.9762474000454,175.9762474000454,175.9762474000454,175.9762474000454,178.99743069987744,178.99743069987744,178.99743069987744,178.99743069987744,178.99743069987744,178.99743069987744,None,0,,,C:\2023\REPSWITCH21092023\REPSWITCH_excgange\REPSWITCH_excgange\data/300203_REPSWITCH1_version2_list3_2023-12-05_11h21.18.227_micRespv2l3_recorded\recording_micRespv2l3_2023-12-05_11h24.10.179.wav,178.99743069987744,179.49750669999048,None,,,,,,300203,001,2023-12-05_11h21.18.227,REPSWITCH1_version2_list3,2022.2.4,144.0297511997384,
REPSWITCH1/PICTURE_446.png,cerdo,speak,darkblue,nontarget,2,NT,2,2,3,2,Stim7_Set2,1,repeat,35,34,35,0,34,34,34,,,,,,,,,,,,,,,,,,,,,,,179.49750669999048,180.63665079977363,180.63665079977363,180.63665079977363,180.63665079977363,180.63665079977363,180.63665079977363,180.63665079977363,180.63665079977363,183.6578359999694,183.6578359999694,183.6578359999694,183.6578359999694,183.6578359999694,183.6578359999694,None,0,,,C:\2023\REPSWITCH21092023\REPSWITCH_excgange\REPSWITCH_excgange\data/300203_REPSWITCH1_version2_list3_2023-12-05_11h21.18.227_micRespv2l3_recorded\recording_micRespv2l3_2023-12-05_11h24.14.839.wav,183.6578359999694,184.1578647000715,None,,,,,,300203,001,2023-12-05_11h21.18.227,REPSWITCH1_version2_list3,2022.2.4,144.0297511997384,
REPSWITCH1/PICTURE_446.png,cerdo,type,gold,switch,1,T,2,2,3,2,Stim7_Set2,0,None,36,35,36,0,35,35,35,,,,,,,,,,,,,,,,,,,,,,,184.1578647000715,185.29698289977387,185.29698289977387,185.29698289977387,185.29698289977387,185.29698289977387,185.29698289977387,185.29698289977387,185.29698289977387,188.3181392000988,188.3181392000988,188.3181392000988,188.3181392000988,188.3181392000988,188.3181392000988,"['c', 'e', 'r', 'd', 'o']",0,"[0.957617400214076, 1.200950300320983, 1.3013113006018102, 1.5225699003785849, 1.64813440060243]",cerdo,C:\2023\REPSWITCH21092023\REPSWITCH_excgange\REPSWITCH_excgange\data/300203_REPSWITCH1_version2_list3_2023-12-05_11h21.18.227_micRespv2l3_recorded\recording_micRespv2l3_2023-12-05_11h24.19.500.wav,188.3181392000988,188.81820419989526,None,,,,,,300203,001,2023-12-05_11h21.18.227,REPSWITCH1_version2_list3,2022.2.4,144.0297511997384,
REPSWITCH1/PICTURE_152.png,caracol,type,gold,nontarget,1,NT,2,2,3,2,Stim2_Set2,1,repeat,37,36,37,0,36,36,36,,,,,,,,,,,,,,,,,,,,,,,188.81820419989526,190.0406031999737,190.0406031999737,190.0406031999737,190.0406031999737,190.0406031999737,190.0406031999737,190.0406031999737,190.0406031999737,193.06874909996986,193.06874909996986,193.06874909996986,193.06874909996986,193.06874909996986,193.06874909996986,"['c', 'a', 'r', 'a', 'c', 'o', 'l']",0,"[0.8827689001336694, 0.9945123004727066, 1.1001567002385855, 1.2639526003040373, 1.5008108001202345, 1.638341000303626, 1.8042008001357317]",caracol,C:\2023\REPSWITCH21092023\REPSWITCH_excgange\REPSWITCH_excgange\data/300203_REPSWITCH1_version2_list3_2023-12-05_11h21.18.227_micRespv2l3_recorded\recording_micRespv2l3_2023-12-05_11h24.24.245.wav,193.06874909996986,,None,,,,,,300203,001,2023-12-05_11h21.18.227,REPSWITCH1_version2_list3,2022.2.4,144.0297511997384,
REPSWITCH1/PICTURE_152.png,caracol,speak,darkblue,switch,2,T,2,2,3,2,Stim2_Set2,0,None,38,37,38,0,37,37,37,,,,,,,,,,,,,,,,,,,,,,,193.56882339995354,194.60371299972758,194.60371299972758,194.60371299972758,194.60371299972758,194.60371299972758,194.60371299972758,194.60371299972758,194.60371299972758,197.63185809971765,197.63185809971765,197.63185809971765,197.63185809971765,197.63185809971765,197.63185809971765,None,0,,,C:\2023\REPSWITCH21092023\REPSWITCH_excgange\REPSWITCH_excgange\data/300203_REPSWITCH1_version2_list3_2023-12-05_11h21.18.227_micRespv2l3_recorded\recording_micRespv2l3_2023-12-05_11h24.28.808.wav,197.63185809971765,,None,,,,,,300203,001,2023-12-05_11h21.18.227,REPSWITCH1_version2_list3,2022.2.4,144.0297511997384,
REPSWITCH1/PICTURE_16.png,cazador,type,gold,filler,1,F,2,2,3,2,Stim6_Set1,0,None,39,38,39,0,38,38,38,,,,,,,,,,,,,,,,,,,,,,,198.13192459987476,199.2293066000566,199.2293066000566,199.2293066000566,199.2293066000566,199.2293066000566,199.2293066000566,199.2293066000566,199.2293066000566,202.2505679000169,202.2505679000169,202.2505679000169,202.2505679000169,202.2505679000169,202.2505679000169,"['c', 'a', 'z', 'a', 'd', 'o', 'r']",0,"[0.8124798000790179, 0.9400062002241611, 1.2878848002292216, 1.4911948004737496, 1.6945230001583695, 1.9068148001097143, 1.9955139001831412]",cazador,C:\2023\REPSWITCH21092023\REPSWITCH_excgange\REPSWITCH_excgange\data/300203_REPSWITCH1_version2_list3_2023-12-05_11h21.18.227_micRespv2l3_recorded\recording_micRespv2l3_2023-12-05_11h24.33.433.wav,202.2505679000169,202.7505842000246,None,,,,,,300203,001,2023-12-05_11h21.18.227,REPSWITCH1_version2_list3,2022.2.4,144.0297511997384,
REPSWITCH1/PICTURE_381.png,fresa,speak,darkblue,filler,2,F,2,2,3,2,Stim2_Set1,0,None,40,39,40,0,39,39,39,,,,,,,,,,,,,,,,,,,,,,,202.7505842000246,203.7576568997465,203.7576568997465,203.7576568997465,203.7576568997465,203.7576568997465,203.7576568997465,203.7576568997465,203.7576568997465,206.7789078997448,206.7789078997448,206.7789078997448,206.7789078997448,206.7789078997448,206.7789078997448,None,0,,,C:\2023\REPSWITCH21092023\REPSWITCH_excgange\REPSWITCH_excgange\data/300203_REPSWITCH1_version2_list3_2023-12-05_11h21.18.227_micRespv2l3_recorded\recording_micRespv2l3_2023-12-05_11h24.37.961.wav,206.7789078997448,207.2790441000834,None,,,,,,300203,001,2023-12-05_11h21.18.227,REPSWITCH1_version2_list3,2022.2.4,144.0297511997384,
REPSWITCH1/PICTURE_19.png,pavo,type,gold,filler,1,F,2,2,3,2,Stim5_Set1,0,None,41,40,41,0,40,40,40,,,,,,,,,,,,,,,,,,,,,,,207.2790441000834,208.30685340007767,208.30685340007767,208.30685340007767,208.30685340007767,208.30685340007767,208.30685340007767,208.30685340007767,208.30685340007767,211.33512779977173,211.33512779977173,211.33512779977173,211.33512779977173,211.33512779977173,211.33512779977173,"['p', 'a', 'v', 'o']",0,"[0.7151120002381504, 0.757457900326699, 0.9640991003252566, 1.0842794002965093]",pavo,C:\2023\REPSWITCH21092023\REPSWITCH_excgange\REPSWITCH_excgange\data/300203_REPSWITCH1_version2_list3_2023-12-05_11h21.18.227_micRespv2l3_recorded\recording_micRespv2l3_2023-12-05_11h24.42.511.wav,211.33512779977173,,None,,,,,,300203,001,2023-12-05_11h21.18.227,REPSWITCH1_version2_list3,2022.2.4,144.0297511997384,
REPSWITCH1/PICTURE_517.png,cuerda,speak,darkblue,nontarget,2,NT,2,2,3,2,Stim4_Set2,1,switch,42,41,42,0,41,41,41,,,,,,,,,,,,,,,,,,,,,,,211.83511690003797,212.98108329996467,212.98108329996467,212.98108329996467,212.98108329996467,212.98108329996467,212.98108329996467,212.98108329996467,212.98108329996467,216.00927340006456,216.00927340006456,216.00927340006456,216.00927340006456,216.00927340006456,216.00927340006456,None,0,,,C:\2023\REPSWITCH21092023\REPSWITCH_excgange\REPSWITCH_excgange\data/300203_REPSWITCH1_version2_list3_2023-12-05_11h21.18.227_micRespv2l3_recorded\recording_micRespv2l3_2023-12-05_11h24.47.185.wav,216.00927340006456,,None,,,,,,300203,001,2023-12-05_11h21.18.227,REPSWITCH1_version2_list3,2022.2.4,144.0297511997384,
REPSWITCH1/PICTURE_517.png,cuerda,speak,darkblue,repeat,2,T,2,2,3,2,Stim4_Set2,0,None,43,42,43,0,42,42,42,,,,,,,,,,,,,,,,,,,,,,,216.50932799978182,217.5650446000509,217.5650446000509,217.5650446000509,217.5650446000509,217.5650446000509,217.5650446000509,217.5650446000509,217.5650446000509,220.58623459981754,220.58623459981754,220.58623459981754,220.58623459981754,220.58623459981754,220.58623459981754,None,0,,,C:\2023\REPSWITCH21092023\REPSWITCH_excgange\REPSWITCH_excgange\data/300203_REPSWITCH1_version2_list3_2023-12-05_11h21.18.227_micRespv2l3_recorded\recording_micRespv2l3_2023-12-05_11h24.51.768.wav,220.58623459981754,221.08631379995495,None,,,,,,300203,001,2023-12-05_11h21.18.227,REPSWITCH1_version2_list3,2022.2.4,144.0297511997384,
REPSWITCH1/PICTURE_178.png,puente,type,gold,filler,1,F,2,2,3,2,Stim1_Set1,0,None,44,43,44,0,43,43,43,,,,,,,,,,,,,,,,,,,,,,,221.08631379995495,222.17677020002156,222.17677020002156,222.17677020002156,222.17677020002156,222.17677020002156,222.17677020002156,222.17677020002156,222.17677020002156,225.20493600005284,225.20493600005284,225.20493600005284,225.20493600005284,225.20493600005284,225.20493600005284,"['p', 'u', 'e', 'n', 't', 'e']",0,"[0.7884890004061162, 0.8982598003931344, 1.0377936004661024, 1.1804610001854599, 1.3221668004989624, 1.4450511005707085]",puente,C:\2023\REPSWITCH21092023\REPSWITCH_excgange\REPSWITCH_excgange\data/300203_REPSWITCH1_version2_list3_2023-12-05_11h21.18.227_micRespv2l3_recorded\recording_micRespv2l3_2023-12-05_11h24.56.380.wav,225.20493600005284,,None,,,,,,300203,001,2023-12-05_11h21.18.227,REPSWITCH1_version2_list3,2022.2.4,144.0297511997384,
REPSWITCH1/PICTURE_199.png,falda,speak,darkblue,nontarget,2,NT,2,2,3,2,Stim8_Set2,1,switch,45,44,45,0,44,44,44,,,,,,,,,,,,,,,,,,,,,,,225.70499389991164,226.77466029999778,226.77466029999778,226.77466029999778,226.77466029999778,226.77466029999778,226.77466029999778,226.77466029999778,226.77466029999778,229.7957820999436,229.7957820999436,229.7957820999436,229.7957820999436,229.7957820999436,229.7957820999436,None,0,,,C:\2023\REPSWITCH21092023\REPSWITCH_excgange\REPSWITCH_excgange\data/300203_REPSWITCH1_version2_list3_2023-12-05_11h21.18.227_micRespv2l3_recorded\recording_micRespv2l3_2023-12-05_11h25.00.978.wav,229.7957820999436,230.29586840001866,None,,,,,,300203,001,2023-12-05_11h21.18.227,REPSWITCH1_version2_list3,2022.2.4,144.0297511997384,
REPSWITCH1/PICTURE_199.png,falda,speak,darkblue,repeat,2,T,2,2,3,2,Stim8_Set2,0,None,46,45,46,0,45,45,45,,,,,,,,,,,,,,,,,,,,,,,230.29586840001866,231.3515693997033,231.3515693997033,231.3515693997033,231.3515693997033,231.3515693997033,231.3515693997033,231.3515693997033,231.3515693997033,234.37982139969245,234.37982139969245,234.37982139969245,234.37982139969245,234.37982139969245,234.37982139969245,None,0,,,C:\2023\REPSWITCH21092023\REPSWITCH_excgange\REPSWITCH_excgange\data/300203_REPSWITCH1_version2_list3_2023-12-05_11h21.18.227_micRespv2l3_recorded\recording_micRespv2l3_2023-12-05_11h25.05.555.wav,234.37982139969245,,None,,,,,,300203,001,2023-12-05_11h21.18.227,REPSWITCH1_version2_list3,2022.2.4,144.0297511997384,
REPSWITCH1/PICTURE_169.png,espalda,type,gold,filler,1,F,2,2,3,2,Stim8_Set1,0,None,47,46,47,0,46,46,46,,,,,,,,,,,,,,,,,,,,,,,234.87980489991605,236.01195609988645,236.01195609988645,236.01195609988645,236.01195609988645,236.01195609988645,236.01195609988645,236.01195609988645,236.01195609988645,239.03316040011123,239.03316040011123,239.03316040011123,239.03316040011123,239.03316040011123,239.03316040011123,"['e', 's', 'p', 'a', 'l', 'd', 'a']",0,"[0.804338600486517, 0.9219473004341125, 1.0934477001428604, 1.2152205002494156, 1.3756431005895138, 1.5654238001443446, 1.695009800605476]",espalda,C:\2023\REPSWITCH21092023\REPSWITCH_excgange\REPSWITCH_excgange\data/300203_REPSWITCH1_version2_list3_2023-12-05_11h21.18.227_micRespv2l3_recorded\recording_micRespv2l3_2023-12-05_11h25.10.215.wav,239.03316040011123,239.53319379966706,None,,,,,,300203,001,2023-12-05_11h21.18.227,REPSWITCH1_version2_list3,2022.2.4,144.0297511997384,
REPSWITCH1/PICTURE_142.png,vaso,speak,darkblue,filler,2,F,2,2,3,2,Stim7_Set1,0,None,48,47,48,0,47,47,47,,,,,,,,,,,,,,,,,,,,,,,239.53319379966706,240.68617030000314,240.68617030000314,240.68617030000314,240.68617030000314,240.68617030000314,240.68617030000314,240.68617030000314,240.68617030000314,243.70733390003443,243.70733390003443,243.70733390003443,243.70733390003443,243.70733390003443,243.70733390003443,None,0,,,C:\2023\REPSWITCH21092023\REPSWITCH_excgange\REPSWITCH_excgange\data/300203_REPSWITCH1_version2_list3_2023-12-05_11h21.18.227_micRespv2l3_recorded\recording_micRespv2l3_2023-12-05_11h25.14.889.wav,243.70733390003443,244.20740620000288,None,,,,,,300203,001,2023-12-05_11h21.18.227,REPSWITCH1_version2_list3,2022.2.4,144.0297511997384,
REPSWITCH1/PICTURE_552.png,manzana,speak,darkblue,nontarget,2,NT,2,2,3,2,Stim6_Set2,0,None,49,48,49,0,48,48,48,,,,,,,,,,,,,,,,,,,,,,,244.20740620000288,245.27703960007057,245.27703960007057,245.27703960007057,245.27703960007057,245.27703960007057,245.27703960007057,245.27703960007057,245.27703960007057,248.29822769993916,248.29822769993916,248.29822769993916,248.29822769993916,248.29822769993916,248.29822769993916,None,0,,,C:\2023\REPSWITCH21092023\REPSWITCH_excgange\REPSWITCH_excgange\data/300203_REPSWITCH1_version2_list3_2023-12-05_11h21.18.227_micRespv2l3_recorded\recording_micRespv2l3_2023-12-05_11h25.19.481.wav,248.29822769993916,248.79828629968688,None,,,,,,300203,001,2023-12-05_11h21.18.227,REPSWITCH1_version2_list3,2022.2.4,144.0297511997384,
REPSWITCH1/PICTURE_552.png,manzana,type,gold,switch,1,T,2,2,3,2,Stim6_Set2,0,None,50,49,50,0,49,49,49,,,,,,,,,,,,,,,,,,,,,,,248.79828629968688,249.8262395998463,249.8262395998463,249.8262395998463,249.8262395998463,249.8262395998463,249.8262395998463,249.8262395998463,249.8262395998463,252.8474312997423,252.8474312997423,252.8474312997423,252.8474312997423,252.8474312997423,252.8474312997423,"['m', 'a', 'n', 'z', 'a', 'n', 'a']",0,"[0.7905998001806438, 0.9617507001385093, 1.0942060998640954, 1.2560145002789795, 1.4543543001636863, 1.5789358001202345, 1.6845805998891592]",manzana,C:\2023\REPSWITCH21092023\REPSWITCH_excgange\REPSWITCH_excgange\data/300203_REPSWITCH1_version2_list3_2023-12-05_11h21.18.227_micRespv2l3_recorded\recording_micRespv2l3_2023-12-05_11h25.24.030.wav,252.8474312997423,253.34750059992075,None,,,,,,300203,001,2023-12-05_11h21.18.227,REPSWITCH1_version2_list3,2022.2.4,144.0297511997384,
REPSWITCH1/PICTURE_590.png,escoba,speak,darkblue,filler,2,F,1,2,3,2,Extra3,0,None,51,50,51,0,50,50,50,,,,,,,,,,,,,,,,,,,,,,,253.34750059992075,254.41716529987752,254.41716529987752,254.41716529987752,254.41716529987752,254.41716529987752,254.41716529987752,254.41716529987752,254.41716529987752,257.43839029967785,257.43839029967785,257.43839029967785,257.43839029967785,257.43839029967785,257.43839029967785,None,0,,,C:\2023\REPSWITCH21092023\REPSWITCH_excgange\REPSWITCH_excgange\data/300203_REPSWITCH1_version2_list3_2023-12-05_11h21.18.227_micRespv2l3_recorded\recording_micRespv2l3_2023-12-05_11h25.28.620.wav,257.43839029967785,257.93838499998674,space,257.93838499998674,257.93838499998674,5.6060966001823545,,,300203,001,2023-12-05_11h21.18.227,REPSWITCH1_version2_list3,2022.2.4,144.0297511997384,
REPSWITCH1/PICTURE_552.png,manzana,type,gold,filler,1,F,3,2,3,2,Stim6_Set2,0,None,52,51,52,0,51,51,51,,,,,,,,,,,,,,,,,,,,,,,263.5572023000568,264.67539219977334,264.67539219977334,264.67539219977334,264.67539219977334,264.67539219977334,264.67539219977334,264.67539219977334,264.67539219977334,267.7035766998306,267.7035766998306,267.7035766998306,267.7035766998306,267.7035766998306,267.7035766998306,"['m', 'a', 'n', 'z', 'a', 'n', 'a']",0,"[0.8288386003114283, 0.9374639000743628, 1.013211800251156, 1.1518973000347614, 1.3533101002685726, 1.4629268003627658, 1.5836315001361072]",manzana,C:\2023\REPSWITCH21092023\REPSWITCH_excgange\REPSWITCH_excgange\data/300203_REPSWITCH1_version2_list3_2023-12-05_11h21.18.227_micRespv2l3_recorded\recording_micRespv2l3_2023-12-05_11h25.38.879.wav,267.7035766998306,,None,,,,,,300203,001,2023-12-05_11h21.18.227,REPSWITCH1_version2_list3,2022.2.4,144.0297511997384,
REPSWITCH1/PICTURE_464.png,goma,type,gold,nontarget,1,NT,3,2,3,2,Stim6_Set3,1,repeat,53,52,53,0,52,52,52,,,,,,,,,,,,,,,,,,,,,,,268.203621099703,269.3148889997974,269.3148889997974,269.3148889997974,269.3148889997974,269.3148889997974,269.3148889997974,269.3148889997974,269.3148889997974,272.3360990998335,272.3360990998335,272.3360990998335,272.3360990998335,272.3360990998335,272.3360990998335,"['g', 'o', 'm', 'a']",0,"[0.9014255004003644, 1.0393091002479196, 1.148573400452733, 1.2731594000943005]",goma,C:\2023\REPSWITCH21092023\REPSWITCH_excgange\REPSWITCH_excgange\data/300203_REPSWITCH1_version2_list3_2023-12-05_11h21.18.227_micRespv2l3_recorded\recording_micRespv2l3_2023-12-05_11h25.43.517.wav,272.3360990998335,272.83620509970933,None,,,,,,300203,001,2023-12-05_11h21.18.227,REPSWITCH1_version2_list3,2022.2.4,144.0297511997384,
REPSWITCH1/PICTURE_464.png,goma,speak,darkblue,switch,2,T,3,2,3,2,Stim6_Set3,0,None,54,53,54,0,53,53,53,,,,,,,,,,,,,,,,,,,,,,,272.83620509970933,273.9892037999816,273.9892037999816,273.9892037999816,273.9892037999816,273.9892037999816,273.9892037999816,273.9892037999816,273.9892037999816,277.01728409994394,277.01728409994394,277.01728409994394,277.01728409994394,277.01728409994394,277.01728409994394,None,0,,,C:\2023\REPSWITCH21092023\REPSWITCH_excgange\REPSWITCH_excgange\data/300203_REPSWITCH1_version2_list3_2023-12-05_11h21.18.227_micRespv2l3_recorded\recording_micRespv2l3_2023-12-05_11h25.48.192.wav,277.01728409994394,,None,,,,,,300203,001,2023-12-05_11h21.18.227,REPSWITCH1_version2_list3,2022.2.4,144.0297511997384,
REPSWITCH1/PICTURE_30.png,granja,speak,darkblue,filler,2,F,3,2,3,2,Stim5_Set2,0,None,55,54,55,0,54,54,54,,,,,,,,,,,,,,,,,,,,,,,277.51734559983015,278.5244660996832,278.5244660996832,278.5244660996832,278.5244660996832,278.5244660996832,278.5244660996832,278.5244660996832,278.5244660996832,281.5526291998103,281.5526291998103,281.5526291998103,281.5526291998103,281.5526291998103,281.5526291998103,None,0,,,C:\2023\REPSWITCH21092023\REPSWITCH_excgange\REPSWITCH_excgange\data/300203_REPSWITCH1_version2_list3_2023-12-05_11h21.18.227_micRespv2l3_recorded\recording_micRespv2l3_2023-12-05_11h25.52.728.wav,281.5526291998103,,None,,,,,,300203,001,2023-12-05_11h21.18.227,REPSWITCH1_version2_list3,2022.2.4,144.0297511997384,
REPSWITCH1/PICTURE_235.png,aguja,speak,darkblue,nontarget,2,NT,3,2,3,2,Stim4_Set3,1,repeat,56,55,56,0,55,55,55,,,,,,,,,,,,,,,,,,,,,,,282.05268759978935,283.1222798996605,283.1222798996605,283.1222798996605,283.1222798996605,283.1222798996605,283.1222798996605,283.1222798996605,283.1222798996605,286.14350149966776,286.14350149966776,286.14350149966776,286.14350149966776,286.14350149966776,286.14350149966776,None,0,,,C:\2023\REPSWITCH21092023\REPSWITCH_excgange\REPSWITCH_excgange\data/300203_REPSWITCH1_version2_list3_2023-12-05_11h21.18.227_micRespv2l3_recorded\recording_micRespv2l3_2023-12-05_11h25.57.325.wav,286.14350149966776,286.64363999990746,None,,,,,,300203,001,2023-12-05_11h21.18.227,REPSWITCH1_version2_list3,2022.2.4,144.0297511997384,
REPSWITCH1/PICTURE_235.png,aguja,type,gold,switch,1,T,3,2,3,2,Stim4_Set3,0,None,57,56,57,0,56,56,56,,,,,,,,,,,,,,,,,,,,,,,286.64363999990746,287.72010560007766,287.72010560007766,287.72010560007766,287.72010560007766,287.72010560007766,287.72010560007766,287.72010560007766,287.72010560007766,290.74834170006216,290.74834170006216,290.74834170006216,290.74834170006216,290.74834170006216,290.74834170006216,"['a', 'g', 'u', 'a', 'backspace', 'j', 'a']",0,"[0.4706800002604723, 0.6257956004701555, 1.1725070006214082, 1.4908570004627109, 1.8601003005169332, 2.0673987003974617, 2.1885005002841353]",aguja,C:\2023\REPSWITCH21092023\REPSWITCH_excgange\REPSWITCH_excgange\data/300203_REPSWITCH1_version2_list3_2023-12-05_11h21.18.227_micRespv2l3_recorded\recording_micRespv2l3_2023-12-05_11h26.01.924.wav,290.74834170006216,,None,,,,,,300203,001,2023-12-05_11h21.18.227,REPSWITCH1_version2_list3,2022.2.4,144.0297511997384,
REPSWITCH1/PICTURE_391.png,cadena,type,gold,filler,1,F,3,2,3,2,Extra2,0,None,58,57,58,0,57,57,57,,,,,,,,,,,,,,,,,,,,,,,291.2483176998794,292.2970769996755,292.2970769996755,292.2970769996755,292.2970769996755,292.2970769996755,292.2970769996755,292.2970769996755,292.2970769996755,295.31829249998555,295.31829249998555,295.31829249998555,295.31829249998555,295.31829249998555,295.31829249998555,"['c', 'a', 'd', 'e', 'n', 'a']",0,"[1.2487281998619437, 1.3633917002007365, 1.4880244000814855, 1.6656287000514567, 1.755686900112778, 1.8707443000748754]",cadena,C:\2023\REPSWITCH21092023\REPSWITCH_excgange\REPSWITCH_excgange\data/300203_REPSWITCH1_version2_list3_2023-12-05_11h21.18.227_micRespv2l3_recorded\recording_micRespv2l3_2023-12-05_11h26.06.501.wav,295.31829249998555,295.8183646998368,None,,,,,,300203,001,2023-12-05_11h21.18.227,REPSWITCH1_version2_list3,2022.2.4,144.0297511997384,
REPSWITCH1/PICTURE_320.png,iglesia,type,gold,nontarget,1,NT,3,2,3,2,Stim8_Set3,0,None,59,58,59,0,58,58,58,,,,,,,,,,,,,,,,,,,,,,,295.8183646998368,296.8880202998407,296.8880202998407,296.8880202998407,296.8880202998407,296.8880202998407,296.8880202998407,296.8880202998407,296.8880202998407,299.9162110998295,299.9162110998295,299.9162110998295,299.9162110998295,299.9162110998295,299.9162110998295,"['i', 'g', 'l', 'e', 's', 'i', 'a']",0,"[0.7026631999760866, 0.8962853001430631, 1.1225668000988662, 1.2354867001995444, 1.4441646998748183, 1.5760229001753032, 1.720544199924916]",iglesia,C:\2023\REPSWITCH21092023\REPSWITCH_excgange\REPSWITCH_excgange\data/300203_REPSWITCH1_version2_list3_2023-12-05_11h21.18.227_micRespv2l3_recorded\recording_micRespv2l3_2023-12-05_11h26.11.092.wav,299.9162110998295,,None,,,,,,300203,001,2023-12-05_11h21.18.227,REPSWITCH1_version2_list3,2022.2.4,144.0297511997384,
REPSWITCH1/PICTURE_320.png,iglesia,speak,darkblue,switch,2,T,3,2,3,2,Stim8_Set3,0,None,60,59,60,0,59,59,59,,,,,,,,,,,,,,,,,,,,,,,300.4162082998082,301.50661989999935,301.50661989999935,301.50661989999935,301.50661989999935,301.50661989999935,301.50661989999935,301.50661989999935,301.50661989999935,304.5348139000125,304.5348139000125,304.5348139000125,304.5348139000125,304.5348139000125,304.5348139000125,None,0,,,C:\2023\REPSWITCH21092023\REPSWITCH_excgange\REPSWITCH_excgange\data/300203_REPSWITCH1_version2_list3_2023-12-05_11h21.18.227_micRespv2l3_recorded\recording_micRespv2l3_2023-12-05_11h26.15.711.wav,304.5348139000125,,None,,,,,,300203,001,2023-12-05_11h21.18.227,REPSWITCH1_version2_list3,2022.2.4,144.0297511997384,
REPSWITCH1/PICTURE_175.png,pintor,type,gold,filler,1,F,3,2,3,2,Stim1_Set2,0,None,61,60,61,0,60,60,60,,,,,,,,,,,,,,,,,,,,,,,305.03487750003114,306.09060959983617,306.09060959983617,306.09060959983617,306.09060959983617,306.09060959983617,306.09060959983617,306.09060959983617,306.09060959983617,309.11178669985384,309.11178669985384,309.11178669985384,309.11178669985384,309.11178669985384,309.11178669985384,"['p', 'i', 'n', 't', 'o', 'r']",0,"[1.3406009003520012, 1.4502614000812173, 1.5480553000234067, 1.6734619000926614, 1.7970950002782047, 1.8844230002723634]",pintor,C:\2023\REPSWITCH21092023\REPSWITCH_excgange\REPSWITCH_excgange\data/300203_REPSWITCH1_version2_list3_2023-12-05_11h21.18.227_micRespv2l3_recorded\recording_micRespv2l3_2023-12-05_11h26.20.294.wav,309.11178669985384,309.61187910009176,None,,,,,,300203,001,2023-12-05_11h21.18.227,REPSWITCH1_version2_list3,2022.2.4,144.0297511997384,
REPSWITCH1/PICTURE_271.png,conejo,speak,darkblue,nontarget,2,NT,3,2,3,2,Stim7_Set3,1,switch,62,61,62,0,61,61,61,,,,,,,,,,,,,,,,,,,,,,,309.61187910009176,310.8134641996585,310.8134641996585,310.8134641996585,310.8134641996585,310.8134641996585,310.8134641996585,310.8134641996585,310.8134641996585,313.84160159993917,313.84160159993917,313.84160159993917,313.84160159993917,313.84160159993917,313.84160159993917,None,0,,,C:\2023\REPSWITCH21092023\REPSWITCH_excgange\REPSWITCH_excgange\data/300203_REPSWITCH1_version2_list3_2023-12-05_11h21.18.227_micRespv2l3_recorded\recording_micRespv2l3_2023-12-05_11h26.25.017.wav,313.84160159993917,,None,,,,,,300203,001,2023-12-05_11h21.18.227,REPSWITCH1_version2_list3,2022.2.4,144.0297511997384,
REPSWITCH1/PICTURE_271.png,conejo,speak,darkblue,repeat,2,T,3,2,3,2,Stim7_Set3,0,None,63,62,63,0,62,62,62,,,,,,,,,,,,,,,,,,,,,,,314.3416478000581,315.39738429989666,315.39738429989666,315.39738429989666,315.39738429989666,315.39738429989666,315.39738429989666,315.39738429989666,315.39738429989666,318.42550619971007,318.42550619971007,318.42550619971007,318.42550619971007,318.42550619971007,318.42550619971007,None,0,,,C:\2023\REPSWITCH21092023\REPSWITCH_excgange\REPSWITCH_excgange\data/300203_REPSWITCH1_version2_list3_2023-12-05_11h21.18.227_micRespv2l3_recorded\recording_micRespv2l3_2023-12-05_11h26.29.601.wav,318.42550619971007,,None,,,,,,300203,001,2023-12-05_11h21.18.227,REPSWITCH1_version2_list3,2022.2.4,144.0297511997384,
REPSWITCH1/PICTURE_446.png,cerdo,speak,darkblue,filler,2,F,3,2,3,2,Stim7_Set2,0,None,64,63,64,0,63,63,63,,,,,,,,,,,,,,,,,,,,,,,318.92560359975323,320.01600489998236,320.01600489998236,320.01600489998236,320.01600489998236,320.01600489998236,320.01600489998236,320.01600489998236,320.01600489998236,323.03732870006934,323.03732870006934,323.03732870006934,323.03732870006934,323.03732870006934,323.03732870006934,None,0,,,C:\2023\REPSWITCH21092023\REPSWITCH_excgange\REPSWITCH_excgange\data/300203_REPSWITCH1_version2_list3_2023-12-05_11h21.18.227_micRespv2l3_recorded\recording_micRespv2l3_2023-12-05_11h26.34.218.wav,323.03732870006934,323.53729370003566,None,,,,,,300203,001,2023-12-05_11h21.18.227,REPSWITCH1_version2_list3,2022.2.4,144.0297511997384,
REPSWITCH1/PICTURE_152.png,caracol,type,gold,filler,1,F,3,2,3,2,Stim2_Set2,0,None,65,64,65,0,64,64,64,,,,,,,,,,,,,,,,,,,,,,,323.53729370003566,324.62774589983746,324.62774589983746,324.62774589983746,324.62774589983746,324.62774589983746,324.62774589983746,324.62774589983746,324.62774589983746,327.6489299996756,327.6489299996756,327.6489299996756,327.6489299996756,327.6489299996756,327.6489299996756,"['c', 'a', 'r', 'a', 'c', 'o', 'l']",0,"[0.7337616998702288, 0.8732838998548687, 0.9968721000477672, 1.1505783000029624, 1.362687500193715, 1.4713004999794066, 1.6544317998923361]",caracol,C:\2023\REPSWITCH21092023\REPSWITCH_excgange\REPSWITCH_excgange\data/300203_REPSWITCH1_version2_list3_2023-12-05_11h21.18.227_micRespv2l3_recorded\recording_micRespv2l3_2023-12-05_11h26.38.830.wav,327.6489299996756,328.1489951000549,None,,,,,,300203,001,2023-12-05_11h21.18.227,REPSWITCH1_version2_list3,2022.2.4,144.0297511997384,
REPSWITCH1/PICTURE_576.png,guante,speak,darkblue,nontarget,2,NT,3,2,3,2,Stim1_Set3,1,switch,66,65,66,0,65,65,65,,,,,,,,,,,,,,,,,,,,,,,328.1489951000549,329.3089330000803,329.3089330000803,329.3089330000803,329.3089330000803,329.3089330000803,329.3089330000803,329.3089330000803,329.3089330000803,332.337047399953,332.337047399953,332.337047399953,332.337047399953,332.337047399953,332.337047399953,None,0,,,C:\2023\REPSWITCH21092023\REPSWITCH_excgange\REPSWITCH_excgange\data/300203_REPSWITCH1_version2_list3_2023-12-05_11h21.18.227_micRespv2l3_recorded\recording_micRespv2l3_2023-12-05_11h26.43.512.wav,332.337047399953,,None,,,,,,300203,001,2023-12-05_11h21.18.227,REPSWITCH1_version2_list3,2022.2.4,144.0297511997384,
REPSWITCH1/PICTURE_576.png,guante,speak,darkblue,repeat,2,T,3,2,3,2,Stim1_Set3,0,None,67,66,67,0,66,66,66,,,,,,,,,,,,,,,,,,,,,,,332.8371371999383,333.9831673000008,333.9831673000008,333.9831673000008,333.9831673000008,333.9831673000008,333.9831673000008,333.9831673000008,333.9831673000008,337.0112829999998,337.0112829999998,337.0112829999998,337.0112829999998,337.0112829999998,337.0112829999998,None,0,,,C:\2023\REPSWITCH21092023\REPSWITCH_excgange\REPSWITCH_excgange\data/300203_REPSWITCH1_version2_list3_2023-12-05_11h21.18.227_micRespv2l3_recorded\recording_micRespv2l3_2023-12-05_11h26.48.186.wav,337.0112829999998,,None,,,,,,300203,001,2023-12-05_11h21.18.227,REPSWITCH1_version2_list3,2022.2.4,144.0297511997384,
REPSWITCH1/PICTURE_242.png,cartero,speak,darkblue,nontarget,2,NT,3,2,3,2,Stim3_Set3,0,None,68,67,68,0,67,67,67,,,,,,,,,,,,,,,,,,,,,,,337.51133639970794,338.6434506997466,338.6434506997466,338.6434506997466,338.6434506997466,338.6434506997466,338.6434506997466,338.6434506997466,338.6434506997466,341.6647077999078,341.6647077999078,341.6647077999078,341.6647077999078,341.6647077999078,341.6647077999078,None,0,,,C:\2023\REPSWITCH21092023\REPSWITCH_excgange\REPSWITCH_excgange\data/300203_REPSWITCH1_version2_list3_2023-12-05_11h21.18.227_micRespv2l3_recorded\recording_micRespv2l3_2023-12-05_11h26.52.846.wav,341.6647077999078,342.1647700998001,None,,,,,,300203,001,2023-12-05_11h21.18.227,REPSWITCH1_version2_list3,2022.2.4,144.0297511997384,
REPSWITCH1/PICTURE_242.png,cartero,type,gold,switch,1,T,3,2,3,2,Stim3_Set3,0,None,69,68,69,0,68,68,68,,,,,,,,,,,,,,,,,,,,,,,342.1647700998001,343.2760724998079,343.2760724998079,343.2760724998079,343.2760724998079,343.2760724998079,343.2760724998079,343.2760724998079,343.2760724998079,346.2972643999383,346.2972643999383,346.2972643999383,346.2972643999383,346.2972643999383,346.2972643999383,"['c', 'a', 'r', 't', 'e', 'r', 'o']",0,"[0.49160030018538237, 0.6611278001219034, 0.8105412004515529, 1.0437453002668917, 1.1882272004149854, 1.271908700466156, 1.4221704001538455]",cartero,C:\2023\REPSWITCH21092023\REPSWITCH_excgange\REPSWITCH_excgange\data/300203_REPSWITCH1_version2_list3_2023-12-05_11h21.18.227_micRespv2l3_recorded\recording_micRespv2l3_2023-12-05_11h26.57.480.wav,346.2972643999383,346.797282199841,None,,,,,,300203,001,2023-12-05_11h21.18.227,REPSWITCH1_version2_list3,2022.2.4,144.0297511997384,
REPSWITCH1/PICTURE_517.png,cuerda,speak,darkblue,filler,2,F,3,2,3,2,Stim4_Set2,0,None,70,69,70,0,69,69,69,,,,,,,,,,,,,,,,,,,,,,,346.797282199841,348.0057943998836,348.0057943998836,348.0057943998836,348.0057943998836,348.0057943998836,348.0057943998836,348.0057943998836,348.0057943998836,351.03403230011463,351.03403230011463,351.03403230011463,351.03403230011463,351.03403230011463,351.03403230011463,None,0,,,C:\2023\REPSWITCH21092023\REPSWITCH_excgange\REPSWITCH_excgange\data/300203_REPSWITCH1_version2_list3_2023-12-05_11h21.18.227_micRespv2l3_recorded\recording_micRespv2l3_2023-12-05_11h27.02.209.wav,351.03403230011463,,None,,,,,,300203,001,2023-12-05_11h21.18.227,REPSWITCH1_version2_list3,2022.2.4,144.0297511997384,
REPSWITCH1/PICTURE_646.png,tronco,type,gold,filler,1,F,3,2,3,2,Extra4,0,None,71,70,71,0,70,70,70,,,,,,,,,,,,,,,,,,,,,,,351.53403969993815,352.5759200998582,352.5759200998582,352.5759200998582,352.5759200998582,352.5759200998582,352.5759200998582,352.5759200998582,352.5759200998582,355.6040248000063,355.6040248000063,355.6040248000063,355.6040248000063,355.6040248000063,355.6040248000063,"['t', 'o', 'r', 'backspace', 'backspace', 'r', 'o', 'n', 'c']",0,"[1.500152500346303, 1.6556174005381763, 1.7602605004794896, 2.165901300497353, 2.3214822001755238, 2.3985354006290436, 2.5450289002619684, 2.647689000237733, 2.910157300531864]",tronc,C:\2023\REPSWITCH21092023\REPSWITCH_excgange\REPSWITCH_excgange\data/300203_REPSWITCH1_version2_list3_2023-12-05_11h21.18.227_micRespv2l3_recorded\recording_micRespv2l3_2023-12-05_11h27.06.780.wav,355.6040248000063,,None,,,,,,300203,001,2023-12-05_11h21.18.227,REPSWITCH1_version2_list3,2022.2.4,144.0297511997384,
REPSWITCH1/PICTURE_35.png,oreja,type,gold,nontarget,1,NT,3,2,3,2,Stim5_Set3,1,repeat,72,71,72,0,71,71,71,,,,,,,,,,,,,,,,,,,,,,,356.10417769989,357.30562569992617,357.30562569992617,357.30562569992617,357.30562569992617,357.30562569992617,357.30562569992617,357.30562569992617,357.30562569992617,360.3269091998227,360.3269091998227,360.3269091998227,360.3269091998227,360.3269091998227,360.3269091998227,"['o', 'r', 'e', 'j', 'a']",0,"[1.0572321005165577, 1.616813700646162, 1.896817700471729, 2.0204126005992293, 2.138038200326264]",oreja,C:\2023\REPSWITCH21092023\REPSWITCH_excgange\REPSWITCH_excgange\data/300203_REPSWITCH1_version2_list3_2023-12-05_11h21.18.227_micRespv2l3_recorded\recording_micRespv2l3_2023-12-05_11h27.11.509.wav,360.3269091998227,360.8269422999583,None,,,,,,300203,001,2023-12-05_11h21.18.227,REPSWITCH1_version2_list3,2022.2.4,144.0297511997384,
REPSWITCH1/PICTURE_35.png,oreja,type,gold,repeat,1,T,3,2,3,2,Stim5_Set3,0,None,73,72,73,0,72,72,72,,,,,,,,,,,,,,,,,,,,,,,360.8269422999583,361.91735719982535,361.91735719982535,361.91735719982535,361.91735719982535,361.91735719982535,361.91735719982535,361.91735719982535,361.91735719982535,364.9455206999555,364.9455206999555,364.9455206999555,364.9455206999555,364.9455206999555,364.9455206999555,"['o', 'r', 'e', 'j', 'a']",0,"[1.1954605001956224, 1.2921412005089223, 1.4682749002240598, 1.6187288002111018, 1.7134566004388034]",oreja,C:\2023\REPSWITCH21092023\REPSWITCH_excgange\REPSWITCH_excgange\data/300203_REPSWITCH1_version2_list3_2023-12-05_11h21.18.227_micRespv2l3_recorded\recording_micRespv2l3_2023-12-05_11h27.16.120.wav,364.9455206999555,365.44559459993616,None,,,,,,300203,001,2023-12-05_11h21.18.227,REPSWITCH1_version2_list3,2022.2.4,144.0297511997384,
REPSWITCH1/PICTURE_199.png,falda,speak,darkblue,filler,2,F,3,2,3,2,Stim8_Set2,0,None,74,73,74,0,73,73,73,,,,,,,,,,,,,,,,,,,,,,,365.44559459993616,366.5360077996738,366.5360077996738,366.5360077996738,366.5360077996738,366.5360077996738,366.5360077996738,366.5360077996738,366.5360077996738,369.56420799996704,369.56420799996704,369.56420799996704,369.56420799996704,369.56420799996704,369.56420799996704,None,0,,,C:\2023\REPSWITCH21092023\REPSWITCH_excgange\REPSWITCH_excgange\data/300203_REPSWITCH1_version2_list3_2023-12-05_11h21.18.227_micRespv2l3_recorded\recording_micRespv2l3_2023-12-05_11h27.20.740.wav,369.56420799996704,370.0642486996949,None,,,,,,300203,001,2023-12-05_11h21.18.227,REPSWITCH1_version2_list3,2022.2.4,144.0297511997384,
REPSWITCH1/PICTURE_610.png,miel,type,gold,nontarget,1,NT,3,2,3,2,Stim2_Set3,1,switch,75,74,75,0,74,74,74,,,,,,,,,,,,,,,,,,,,,,,370.0642486996949,371.23802469996735,371.23802469996735,371.23802469996735,371.23802469996735,371.23802469996735,371.23802469996735,371.23802469996735,371.23802469996735,374.2592480997555,374.2592480997555,374.2592480997555,374.2592480997555,374.2592480997555,374.2592480997555,"['m', 'i', 'e', 'l']",0,"[0.8650242001749575, 0.9827227001078427, 1.095247800461948, 1.242786000482738]",miel,C:\2023\REPSWITCH21092023\REPSWITCH_excgange\REPSWITCH_excgange\data/300203_REPSWITCH1_version2_list3_2023-12-05_11h21.18.227_micRespv2l3_recorded\recording_micRespv2l3_2023-12-05_11h27.25.441.wav,374.2592480997555,374.7593092001043,None,,,,,,300203,001,2023-12-05_11h21.18.227,REPSWITCH1_version2_list3,2022.2.4,144.0297511997384,
REPSWITCH1/PICTURE_610.png,miel,type,gold,repeat,1,T,3,2,3,2,Stim2_Set3,0,None,76,75,76,0,75,75,75,,,,,,,,,,,,,,,,,,,,,,,374.7593092001043,375.91224050009623,375.91224050009623,375.91224050009623,375.91224050009623,375.91224050009623,375.91224050009623,375.91224050009623,375.91224050009623,378.9404035997577,378.9404035997577,378.9404035997577,378.9404035997577,378.9404035997577,378.9404035997577,"['m', 'i', 'e', 'l']",0,"[1.0023756003938615, 1.1188449002802372, 1.2085287002846599, 1.3181765000335872]",miel,C:\2023\REPSWITCH21092023\REPSWITCH_excgange\REPSWITCH_excgange\data/300203_REPSWITCH1_version2_list3_2023-12-05_11h21.18.227_micRespv2l3_recorded\recording_micRespv2l3_2023-12-05_11h27.30.116.wav,378.9404035997577,,None,,,,,,300203,001,2023-12-05_11h21.18.227,REPSWITCH1_version2_list3,2022.2.4,144.0297511997384,
REPSWITCH1/PICTURE_264.png,mano,type,gold,filler,1,F,3,2,3,2,Stim3_Set2,1,repeat,77,76,77,0,76,76,76,,,,,,,,,,,,,,,,,,,,,,,379.4404837000184,380.4892854997888,380.4892854997888,380.4892854997888,380.4892854997888,380.4892854997888,380.4892854997888,380.4892854997888,380.4892854997888,383.51743000000715,383.51743000000715,383.51743000000715,383.51743000000715,383.51743000000715,383.51743000000715,"['m', 'a', 'n', 'o']",0,"[0.710306600201875, 0.7930103004910052, 0.8946333001367748, 0.9723532004281878]",mano,C:\2023\REPSWITCH21092023\REPSWITCH_excgange\REPSWITCH_excgange\data/300203_REPSWITCH1_version2_list3_2023-12-05_11h21.18.227_micRespv2l3_recorded\recording_micRespv2l3_2023-12-05_11h27.34.693.wav,383.51743000000715,,None,,,,,,300203,001,2023-12-05_11h21.18.227,REPSWITCH1_version2_list3,2022.2.4,144.0297511997384,
REPSWITCH1/PICTURE_464.png,goma,speak,darkblue,filler,2,F,4,2,3,2,Stim6_Set3,0,None,78,77,78,0,77,77,77,,,,,,,,,,,,,,,,,,,,,,,384.0174724999815,385.1148573998362,385.1148573998362,385.1148573998362,385.1148573998362,385.1148573998362,385.1148573998362,385.1148573998362,385.1148573998362,388.1360888998024,388.1360888998024,388.1360888998024,388.1360888998024,388.1360888998024,388.1360888998024,None,0,,,C:\2023\REPSWITCH21092023\REPSWITCH_excgange\REPSWITCH_excgange\data/300203_REPSWITCH1_version2_list3_2023-12-05_11h21.18.227_micRespv2l3_recorded\recording_micRespv2l3_2023-12-05_11h27.39.318.wav,388.1360888998024,388.63616409990937,None,,,,,,300203,001,2023-12-05_11h21.18.227,REPSWITCH1_version2_list3,2022.2.4,144.0297511997384,
REPSWITCH1/PICTURE_8.png,pierna,type,gold,nontarget,1,NT,4,2,3,2,Stim3_Set4,1,switch,79,78,79,0,78,78,78,,,,,,,,,,,,,,,,,,,,,,,388.63616409990937,389.71963959978893,389.71963959978893,389.71963959978893,389.71963959978893,389.71963959978893,389.71963959978893,389.71963959978893,389.71963959978893,392.740943599958,392.740943599958,392.740943599958,392.740943599958,392.740943599958,392.740943599958,"['p', 'i', 'e', 'r', 'n', 'a']",0,"[0.7826737002469599, 0.8885367000475526, 1.0091338003985584, 1.1187798003666103, 1.2227853001095355, 1.3887978000566363]",pierna,C:\2023\REPSWITCH21092023\REPSWITCH_excgange\REPSWITCH_excgange\data/300203_REPSWITCH1_version2_list3_2023-12-05_11h21.18.227_micRespv2l3_recorded\recording_micRespv2l3_2023-12-05_11h27.43.922.wav,392.740943599958,393.240935199894,None,,,,,,300203,001,2023-12-05_11h21.18.227,REPSWITCH1_version2_list3,2022.2.4,144.0297511997384,
REPSWITCH1/PICTURE_8.png,pierna,type,gold,repeat,1,T,4,2,3,2,Stim3_Set4,0,None,80,79,80,0,79,79,79,,,,,,,,,,,,,,,,,,,,,,,393.240935199894,394.3036019001156,394.3036019001156,394.3036019001156,394.3036019001156,394.3036019001156,394.3036019001156,394.3036019001156,394.3036019001156,397.32482150010765,397.32482150010765,397.32482150010765,397.32482150010765,397.32482150010765,397.32482150010765,"['p', 'i', 'e', 'r', 'n', 'a']",0,"[1.218521900009364, 1.3132019001059234, 1.4088571998290718, 1.4876140002161264, 1.62011650018394, 1.7616332001052797]",pierna,C:\2023\REPSWITCH21092023\REPSWITCH_excgange\REPSWITCH_excgange\data/300203_REPSWITCH1_version2_list3_2023-12-05_11h21.18.227_micRespv2l3_recorded\recording_micRespv2l3_2023-12-05_11h27.48.507.wav,397.32482150010765,397.82486600009724,None,,,,,,300203,001,2023-12-05_11h21.18.227,REPSWITCH1_version2_list3,2022.2.4,144.0297511997384,
REPSWITCH1/PICTURE_728.png,pulpo,type,gold,nontarget,1,NT,4,2,3,2,Stim8_Set4,1,repeat,81,80,81,0,80,80,80,,,,,,,,,,,,,,,,,,,,,,,397.82486600009724,398.9153164997697,398.9153164997697,398.9153164997697,398.9153164997697,398.9153164997697,398.9153164997697,398.9153164997697,398.9153164997697,401.93652760004625,401.93652760004625,401.93652760004625,401.93652760004625,401.93652760004625,401.93652760004625,"['p', 'u', 'l', 'o', 'backspace', 'p', 'o']",0,"[0.8252260000444949, 0.9390948000364006, 1.10552420001477, 1.313158200122416, 1.6752407001331449, 1.909256000071764, 2.00592890009284]",pulpo,C:\2023\REPSWITCH21092023\REPSWITCH_excgange\REPSWITCH_excgange\data/300203_REPSWITCH1_version2_list3_2023-12-05_11h21.18.227_micRespv2l3_recorded\recording_micRespv2l3_2023-12-05_11h27.53.119.wav,401.93652760004625,402.43659289972857,None,,,,,,300203,001,2023-12-05_11h21.18.227,REPSWITCH1_version2_list3,2022.2.4,144.0297511997384,
REPSWITCH1/PICTURE_728.png,pulpo,speak,darkblue,switch,2,T,4,2,3,2,Stim8_Set4,0,None,82,81,82,0,81,81,81,,,,,,,,,,,,,,,,,,,,,,,402.43659289972857,403.5131806000136,403.5131806000136,403.5131806000136,403.5131806000136,403.5131806000136,403.5131806000136,403.5131806000136,403.5131806000136,406.54126850003377,406.54126850003377,406.54126850003377,406.54126850003377,406.54126850003377,406.54126850003377,None,0,,,C:\2023\REPSWITCH21092023\REPSWITCH_excgange\REPSWITCH_excgange\data/300203_REPSWITCH1_version2_list3_2023-12-05_11h21.18.227_micRespv2l3_recorded\recording_micRespv2l3_2023-12-05_11h27.57.716.wav,406.54126850003377,,None,,,,,,300203,001,2023-12-05_11h21.18.227,REPSWITCH1_version2_list3,2022.2.4,144.0297511997384,
REPSWITCH1/PICTURE_235.png,aguja,type,gold,filler,1,F,4,2,3,2,Stim4_Set3,0,None,83,82,83,0,82,82,82,,,,,,,,,,,,,,,,,,,,,,,407.0413244999945,408.0623316001147,408.0623316001147,408.0623316001147,408.0623316001147,408.0623316001147,408.0623316001147,408.0623316001147,408.0623316001147,411.0835607997142,411.0835607997142,411.0835607997142,411.0835607997142,411.0835607997142,411.0835607997142,"['a', 'g', 'u', 'j', 'a']",0,"[0.8207853003405035, 0.9472308000549674, 1.0827370001934469, 1.3076187004335225, 1.3644168004393578]",aguja,C:\2023\REPSWITCH21092023\REPSWITCH_excgange\REPSWITCH_excgange\data/300203_REPSWITCH1_version2_list3_2023-12-05_11h21.18.227_micRespv2l3_recorded\recording_micRespv2l3_2023-12-05_11h28.02.265.wav,411.0835607997142,411.5836269999854,None,,,,,,300203,001,2023-12-05_11h21.18.227,REPSWITCH1_version2_list3,2022.2.4,144.0297511997384,
REPSWITCH1/PICTURE_498.png,taza,speak,darkblue,nontarget,2,NT,4,2,3,2,Stim4_Set4,1,switch,84,83,84,0,83,83,83,,,,,,,,,,,,,,,,,,,,,,,411.5836269999854,412.7851537000388,412.7851537000388,412.7851537000388,412.7851537000388,412.7851537000388,412.7851537000388,412.7851537000388,412.7851537000388,415.8133203997277,415.8133203997277,415.8133203997277,415.8133203997277,415.8133203997277,415.8133203997277,None,0,,,C:\2023\REPSWITCH21092023\REPSWITCH_excgange\REPSWITCH_excgange\data/300203_REPSWITCH1_version2_list3_2023-12-05_11h21.18.227_micRespv2l3_recorded\recording_micRespv2l3_2023-12-05_11h28.06.988.wav,415.8133203997277,,None,,,,,,300203,001,2023-12-05_11h21.18.227,REPSWITCH1_version2_list3,2022.2.4,144.0297511997384,
REPSWITCH1/PICTURE_498.png,taza,speak,darkblue,repeat,2,T,4,2,3,2,Stim4_Set4,0,None,85,84,85,0,84,84,84,,,,,,,,,,,,,,,,,,,,,,,416.3133878996596,417.34825380006805,417.34825380006805,417.34825380006805,417.34825380006805,417.34825380006805,417.34825380006805,417.34825380006805,417.34825380006805,420.37643659999594,420.37643659999594,420.37643659999594,420.37643659999594,420.37643659999594,420.37643659999594,None,0,,,C:\2023\REPSWITCH21092023\REPSWITCH_excgange\REPSWITCH_excgange\data/300203_REPSWITCH1_version2_list3_2023-12-05_11h21.18.227_micRespv2l3_recorded\recording_micRespv2l3_2023-12-05_11h28.11.551.wav,420.37643659999594,,None,,,,,,300203,001,2023-12-05_11h21.18.227,REPSWITCH1_version2_list3,2022.2.4,144.0297511997384,
REPSWITCH1/PICTURE_719.png,baño,speak,darkblue,nontarget,2,NT,4,2,3,2,Stim2_Set4,0,None,86,85,86,0,85,85,85,,,,,,,,,,,,,,,,,,,,,,,420.8765127998777,421.91833340004086,421.91833340004086,421.91833340004086,421.91833340004086,421.91833340004086,421.91833340004086,421.91833340004086,421.91833340004086,424.94654130004346,424.94654130004346,424.94654130004346,424.94654130004346,424.94654130004346,424.94654130004346,None,0,,,C:\2023\REPSWITCH21092023\REPSWITCH_excgange\REPSWITCH_excgange\data/300203_REPSWITCH1_version2_list3_2023-12-05_11h21.18.227_micRespv2l3_recorded\recording_micRespv2l3_2023-12-05_11h28.16.122.wav,424.94654130004346,,None,,,,,,300203,001,2023-12-05_11h21.18.227,REPSWITCH1_version2_list3,2022.2.4,144.0297511997384,
REPSWITCH1/PICTURE_719.png,baño,type,gold,switch,1,T,4,2,3,2,Stim2_Set4,0,None,87,86,87,0,86,86,86,,,,,,,,,,,,,,,,,,,,,,,425.4465467999689,426.6064387001097,426.6064387001097,426.6064387001097,426.6064387001097,426.6064387001097,426.6064387001097,426.6064387001097,426.6064387001097,429.6346785998903,429.6346785998903,429.6346785998903,429.6346785998903,429.6346785998903,429.6346785998903,"['b', 'a', 'ñ', 'o']",0,"[0.5404724003747106, 0.6680491999723017, 0.785729099996388, 0.8767198999412358]",baño,C:\2023\REPSWITCH21092023\REPSWITCH_excgange\REPSWITCH_excgange\data/300203_REPSWITCH1_version2_list3_2023-12-05_11h21.18.227_micRespv2l3_recorded\recording_micRespv2l3_2023-12-05_11h28.20.809.wav,429.6346785998903,,None,,,,,,300203,001,2023-12-05_11h21.18.227,REPSWITCH1_version2_list3,2022.2.4,144.0297511997384,
REPSWITCH1/PICTURE_320.png,iglesia,speak,darkblue,filler,2,F,4,2,3,2,Stim8_Set3,0,None,88,87,88,0,87,87,87,,,,,,,,,,,,,,,,,,,,,,,430.1346744997427,431.26674589980394,431.26674589980394,431.26674589980394,431.26674589980394,431.26674589980394,431.26674589980394,431.26674589980394,431.26674589980394,434.28796949982643,434.28796949982643,434.28796949982643,434.28796949982643,434.28796949982643,434.28796949982643,None,0,,,C:\2023\REPSWITCH21092023\REPSWITCH_excgange\REPSWITCH_excgange\data/300203_REPSWITCH1_version2_list3_2023-12-05_11h21.18.227_micRespv2l3_recorded\recording_micRespv2l3_2023-12-05_11h28.25.469.wav,434.28796949982643,434.7880673999898,None,,,,,,300203,001,2023-12-05_11h21.18.227,REPSWITCH1_version2_list3,2022.2.4,144.0297511997384,
REPSWITCH1/PICTURE_48.png,bombero,type,gold,nontarget,1,NT,4,2,3,2,Stim7_Set4,1,switch,89,88,89,0,88,88,88,,,,,,,,,,,,,,,,,,,,,,,434.7880673999898,435.82299469970167,435.82299469970167,435.82299469970167,435.82299469970167,435.82299469970167,435.82299469970167,435.82299469970167,435.82299469970167,438.85116309998557,438.85116309998557,438.85116309998557,438.85116309998557,438.85116309998557,438.85116309998557,"['o', 'backspace', 'v', 'o', 'm', 'backspace', 'backspace', 'backspace', 'b', 'o', 'm']",0,"[1.1170148001983762, 1.4738669004291296, 1.5704993004910648, 1.6792050004005432, 1.7838938003405929, 2.143054200336337, 2.298541000112891, 2.4560823002830148, 2.833548600319773, 2.895308800507337, 2.9763179002329707]",bom,C:\2023\REPSWITCH21092023\REPSWITCH_excgange\REPSWITCH_excgange\data/300203_REPSWITCH1_version2_list3_2023-12-05_11h21.18.227_micRespv2l3_recorded\recording_micRespv2l3_2023-12-05_11h28.30.026.wav,438.85116309998557,439.3511642999947,None,,,,,,300203,001,2023-12-05_11h21.18.227,REPSWITCH1_version2_list3,2022.2.4,144.0297511997384,
REPSWITCH1/PICTURE_48.png,bombero,speak,darkblue,switch,2,T,4,2,3,2,Stim7_Set4,0,None,90,89,90,0,89,89,89,,,,,,,,,,,,,,,,,,,,,,,439.3511642999947,440.4901856998913,440.4901856998913,440.4901856998913,440.4901856998913,440.4901856998913,440.4901856998913,440.4901856998913,440.4901856998913,443.5114154997282,443.5114154997282,443.5114154997282,443.5114154997282,443.5114154997282,443.5114154997282,None,0,,,C:\2023\REPSWITCH21092023\REPSWITCH_excgange\REPSWITCH_excgange\data/300203_REPSWITCH1_version2_list3_2023-12-05_11h21.18.227_micRespv2l3_recorded\recording_micRespv2l3_2023-12-05_11h28.34.693.wav,443.5114154997282,444.0115062999539,None,,,,,,300203,001,2023-12-05_11h21.18.227,REPSWITCH1_version2_list3,2022.2.4,144.0297511997384,
REPSWITCH1/PICTURE_576.png,guante,type,gold,filler,1,F,4,2,3,2,Stim1_Set3,0,None,91,90,91,0,90,90,90,,,,,,,,,,,,,,,,,,,,,,,444.0115062999539,445.1088807997294,445.1088807997294,445.1088807997294,445.1088807997294,445.1088807997294,445.1088807997294,445.1088807997294,445.1088807997294,448.13703989982605,448.13703989982605,448.13703989982605,448.13703989982605,448.13703989982605,448.13703989982605,"['h', 'backspace', 'h', 'backspace', 'g', 'u']",0,"[1.6089395000599325, 2.134179800283164, 2.411248800344765, 2.7331674001179636, 2.8457802003249526, 2.9613764001987875]",gu,C:\2023\REPSWITCH21092023\REPSWITCH_excgange\REPSWITCH_excgange\data/300203_REPSWITCH1_version2_list3_2023-12-05_11h21.18.227_micRespv2l3_recorded\recording_micRespv2l3_2023-12-05_11h28.39.312.wav,448.13703989982605,,None,,,,,,300203,001,2023-12-05_11h21.18.227,REPSWITCH1_version2_list3,2022.2.4,144.0297511997384,
REPSWITCH1/PICTURE_271.png,conejo,speak,darkblue,filler,2,F,4,2,3,2,Stim7_Set3,0,None,92,91,92,0,91,91,91,,,,,,,,,,,,,,,,,,,,,,,448.63711109990254,449.75538600003347,449.75538600003347,449.75538600003347,449.75538600003347,449.75538600003347,449.75538600003347,449.75538600003347,449.75538600003347,452.78349479986355,452.78349479986355,452.78349479986355,452.78349479986355,452.78349479986355,452.78349479986355,None,0,,,C:\2023\REPSWITCH21092023\REPSWITCH_excgange\REPSWITCH_excgange\data/300203_REPSWITCH1_version2_list3_2023-12-05_11h21.18.227_micRespv2l3_recorded\recording_micRespv2l3_2023-12-05_11h28.43.960.wav,452.78349479986355,,None,,,,,,300203,001,2023-12-05_11h21.18.227,REPSWITCH1_version2_list3,2022.2.4,144.0297511997384,
REPSWITCH1/PICTURE_319.png,vaca,speak,darkblue,nontarget,2,NT,4,2,3,2,Stim1_Set4,1,repeat,93,92,93,0,92,92,92,,,,,,,,,,,,,,,,,,,,,,,453.28355700010434,454.29062939994037,454.29062939994037,454.29062939994037,454.29062939994037,454.29062939994037,454.29062939994037,454.29062939994037,454.29062939994037,457.31187009997666,457.31187009997666,457.31187009997666,457.31187009997666,457.31187009997666,457.31187009997666,None,0,,,C:\2023\REPSWITCH21092023\REPSWITCH_excgange\REPSWITCH_excgange\data/300203_REPSWITCH1_version2_list3_2023-12-05_11h21.18.227_micRespv2l3_recorded\recording_micRespv2l3_2023-12-05_11h28.48.493.wav,457.31187009997666,457.8120101997629,None,,,,,,300203,001,2023-12-05_11h21.18.227,REPSWITCH1_version2_list3,2022.2.4,144.0297511997384,
REPSWITCH1/PICTURE_319.png,vaca,speak,darkblue,repeat,2,T,4,2,3,2,Stim1_Set4,0,None,94,93,94,0,93,93,93,,,,,,,,,,,,,,,,,,,,,,,457.8120101997629,458.8329652999528,458.8329652999528,458.8329652999528,458.8329652999528,458.8329652999528,458.8329652999528,458.8329652999528,458.8329652999528,461.8541367999278,461.8541367999278,461.8541367999278,461.8541367999278,461.8541367999278,461.8541367999278,None,0,,,C:\2023\REPSWITCH21092023\REPSWITCH_excgange\REPSWITCH_excgange\data/300203_REPSWITCH1_version2_list3_2023-12-05_11h21.18.227_micRespv2l3_recorded\recording_micRespv2l3_2023-12-05_11h28.53.036.wav,461.8541367999278,462.35417949967086,None,,,,,,300203,001,2023-12-05_11h21.18.227,REPSWITCH1_version2_list3,2022.2.4,144.0297511997384,
REPSWITCH1/PICTURE_242.png,cartero,type,gold,filler,1,F,4,2,3,2,Stim3_Set3,0,None,95,94,95,0,94,94,94,,,,,,,,,,,,,,,,,,,,,,,462.35417949967086,463.40296529978514,463.40296529978514,463.40296529978514,463.40296529978514,463.40296529978514,463.40296529978514,463.40296529978514,463.40296529978514,466.4311353000812,466.4311353000812,466.4311353000812,466.4311353000812,466.4311353000812,466.4311353000812,"['c', 'a', 'r', 't', 'e', 'r', 'o']",0,"[0.7685791002586484, 0.9539479003287852, 1.0725585999898612, 1.288880500011146, 1.3785229003988206, 1.492140999995172, 1.6679218001663685]",cartero,C:\2023\REPSWITCH21092023\REPSWITCH_excgange\REPSWITCH_excgange\data/300203_REPSWITCH1_version2_list3_2023-12-05_11h21.18.227_micRespv2l3_recorded\recording_micRespv2l3_2023-12-05_11h28.57.607.wav,466.4311353000812,,None,,,,,,300203,001,2023-12-05_11h21.18.227,REPSWITCH1_version2_list3,2022.2.4,144.0297511997384,
REPSWITCH1/PICTURE_35.png,oreja,speak,darkblue,filler,2,F,4,2,3,2,Stim5_Set3,1,switch,96,95,96,0,95,95,95,,,,,,,,,,,,,,,,,,,,,,,466.9311748999171,467.95909680007026,467.95909680007026,467.95909680007026,467.95909680007026,467.95909680007026,467.95909680007026,467.95909680007026,467.95909680007026,470.987247900106,470.987247900106,470.987247900106,470.987247900106,470.987247900106,470.987247900106,None,0,,,C:\2023\REPSWITCH21092023\REPSWITCH_excgange\REPSWITCH_excgange\data/300203_REPSWITCH1_version2_list3_2023-12-05_11h21.18.227_micRespv2l3_recorded\recording_micRespv2l3_2023-12-05_11h29.02.163.wav,470.987247900106,,None,,,,,,300203,001,2023-12-05_11h21.18.227,REPSWITCH1_version2_list3,2022.2.4,144.0297511997384,
REPSWITCH1/PICTURE_338.png,regalo,speak,darkblue,nontarget,2,NT,4,2,3,2,Stim6_Set4,1,repeat,97,96,97,0,96,96,96,,,,,,,,,,,,,,,,,,,,,,,471.48731609992683,472.50836239987984,472.50836239987984,472.50836239987984,472.50836239987984,472.50836239987984,472.50836239987984,472.50836239987984,472.50836239987984,475.5295394998975,475.5295394998975,475.5295394998975,475.5295394998975,475.5295394998975,475.5295394998975,None,0,,,C:\2023\REPSWITCH21092023\REPSWITCH_excgange\REPSWITCH_excgange\data/300203_REPSWITCH1_version2_list3_2023-12-05_11h21.18.227_micRespv2l3_recorded\recording_micRespv2l3_2023-12-05_11h29.06.712.wav,475.5295394998975,476.0295938998461,None,,,,,,300203,001,2023-12-05_11h21.18.227,REPSWITCH1_version2_list3,2022.2.4,144.0297511997384,
REPSWITCH1/PICTURE_338.png,regalo,type,gold,switch,1,T,4,2,3,2,Stim6_Set4,0,None,98,97,98,0,97,97,97,,,,,,,,,,,,,,,,,,,,,,,476.0295938998461,477.1130709000863,477.1130709000863,477.1130709000863,477.1130709000863,477.1130709000863,477.1130709000863,477.1130709000863,477.1130709000863,480.13431289978325,480.13431289978325,480.13431289978325,480.13431289978325,480.13431289978325,480.13431289978325,"['r', 'e', 'g', 'a', 'l', 'o']",0,"[0.7938537001609802, 0.9353549000807106, 1.121754300314933, 1.231499600224197, 1.3926140004768968, 1.5671057002618909]",regalo,C:\2023\REPSWITCH21092023\REPSWITCH_excgange\REPSWITCH_excgange\data/300203_REPSWITCH1_version2_list3_2023-12-05_11h21.18.227_micRespv2l3_recorded\recording_micRespv2l3_2023-12-05_11h29.11.315.wav,480.13431289978325,480.6343576996587,None,,,,,,300203,001,2023-12-05_11h21.18.227,REPSWITCH1_version2_list3,2022.2.4,144.0297511997384,
REPSWITCH1/PICTURE_687.png,camisa,type,gold,nontarget,1,NT,4,2,3,2,Stim5_Set4,0,None,99,98,99,0,98,98,98,,,,,,,,,,,,,,,,,,,,,,,480.6343576996587,481.8151157000102,481.8151157000102,481.8151157000102,481.8151157000102,481.8151157000102,481.8151157000102,481.8151157000102,481.8151157000102,484.8433141997084,484.8433141997084,484.8433141997084,484.8433141997084,484.8433141997084,484.8433141997084,"['c', 'a', 'm', 'i', 's', 'a']",0,"[0.6815495998598635, 0.7911721998825669, 0.9571675998158753, 1.3847348000854254, 1.4928814000450075, 1.8350416999310255]",camisa,C:\2023\REPSWITCH21092023\REPSWITCH_excgange\REPSWITCH_excgange\data/300203_REPSWITCH1_version2_list3_2023-12-05_11h21.18.227_micRespv2l3_recorded\recording_micRespv2l3_2023-12-05_11h29.16.019.wav,484.8433141997084,,None,,,,,,300203,001,2023-12-05_11h21.18.227,REPSWITCH1_version2_list3,2022.2.4,144.0297511997384,
REPSWITCH1/PICTURE_687.png,camisa,type,gold,repeat,1,T,4,2,3,2,Stim5_Set4,0,None,100,99,100,0,99,99,99,,,,,,,,,,,,,,,,,,,,,,,485.3433095999062,486.4545996999368,486.4545996999368,486.4545996999368,486.4545996999368,486.4545996999368,486.4545996999368,486.4545996999368,486.4545996999368,489.4827974997461,489.4827974997461,489.4827974997461,489.4827974997461,489.4827974997461,489.4827974997461,"['c', 'a', 'm', 'i', 's', 'a']",0,"[0.6353804003447294, 0.7400147002190351, 0.8599300002679229, 0.9828136004507542, 1.0465655005536973, 1.1600838005542755]",camisa,C:\2023\REPSWITCH21092023\REPSWITCH_excgange\REPSWITCH_excgange\data/300203_REPSWITCH1_version2_list3_2023-12-05_11h21.18.227_micRespv2l3_recorded\recording_micRespv2l3_2023-12-05_11h29.20.658.wav,489.4827974997461,,None,,,,,,300203,001,2023-12-05_11h21.18.227,REPSWITCH1_version2_list3,2022.2.4,144.0297511997384,
REPSWITCH1/PICTURE_340.png,espejo,speak,darkblue,filler,2,F,4,2,3,2,Extra1,0,None,101,100,101,0,100,100,100,,,,,,,,,,,,,,,,,,,,,,,489.9829064998776,491.1496616997756,491.1496616997756,491.1496616997756,491.1496616997756,491.1496616997756,491.1496616997756,491.1496616997756,491.1496616997756,494.17084869975224,494.17084869975224,494.17084869975224,494.17084869975224,494.17084869975224,494.17084869975224,None,0,,,C:\2023\REPSWITCH21092023\REPSWITCH_excgange\REPSWITCH_excgange\data/300203_REPSWITCH1_version2_list3_2023-12-05_11h21.18.227_micRespv2l3_recorded\recording_micRespv2l3_2023-12-05_11h29.25.353.wav,494.17084869975224,494.67097309976816,None,,,,,,300203,001,2023-12-05_11h21.18.227,REPSWITCH1_version2_list3,2022.2.4,144.0297511997384,
REPSWITCH1/PICTURE_610.png,miel,type,gold,filler,1,F,4,2,3,2,Stim2_Set3,0,None,102,101,102,0,101,101,101,,,,,,,,,,,,,,,,,,,,,,,494.67097309976816,495.7752600996755,495.7752600996755,495.7752600996755,495.7752600996755,495.7752600996755,495.7752600996755,495.7752600996755,495.7752600996755,498.79649399966,498.79649399966,498.79649399966,498.79649399966,498.79649399966,498.79649399966,"['m', 'm', 'i', 'backspace', 'backspace', 'i', 'e', 'l']",0,"[0.764656400308013, 0.9425960001535714, 0.9814546001143754, 1.45359030039981, 1.5891304002143443, 1.793440000154078, 1.9031736003234982, 2.038636500481516]",miel,C:\2023\REPSWITCH21092023\REPSWITCH_excgange\REPSWITCH_excgange\data/300203_REPSWITCH1_version2_list3_2023-12-05_11h21.18.227_micRespv2l3_recorded\recording_micRespv2l3_2023-12-05_11h29.29.978.wav,498.79649399966,499.29655599966645,space,499.29655599966645,499.29655599966645,8.625678800512105,,,300203,001,2023-12-05_11h21.18.227,REPSWITCH1_version2_list3,2022.2.4,144.0297511997384,
REPSWITCH1/PICTURE_8.png,pierna,type,gold,filler,1,F,1,4,3,2,Stim3_Set4,0,None,103,102,1,0,102,102,102,,,,,,,,,,,,,,,,,,,,,,,507.9296343997121,509.0200692000799,509.0200692000799,509.0200692000799,509.0200692000799,509.0200692000799,509.0200692000799,509.0200692000799,509.0200692000799,512.0412546000443,512.0412546000443,512.0412546000443,512.0412546000443,512.0412546000443,512.0412546000443,"['p', 'i', 'e', 'r', 'n', 'a']",0,"[0.664894100278616, 0.7904638000763953, 0.9171003000810742, 0.9978010002523661, 1.1382935005240142, 1.281905900221318]",pierna,C:\2023\REPSWITCH21092023\REPSWITCH_excgange\REPSWITCH_excgange\data/300203_REPSWITCH1_version2_list3_2023-12-05_11h21.18.227_micRespv2l3_recorded\recording_micRespv2l3_2023-12-05_11h29.43.223.wav,512.0412546000443,512.5413301000372,None,,,,,,300203,001,2023-12-05_11h21.18.227,REPSWITCH1_version2_list3,2022.2.4,144.0297511997384,
REPSWITCH1/PICTURE_498.png,taza,speak,darkblue,filler,2,F,1,4,3,2,Stim4_Set4,0,None,104,103,2,0,103,103,103,,,,,,,,,,,,,,,,,,,,,,,512.5413301000372,513.631791499909,513.631791499909,513.631791499909,513.631791499909,513.631791499909,513.631791499909,513.631791499909,513.631791499909,516.6600146996789,516.6600146996789,516.6600146996789,516.6600146996789,516.6600146996789,516.6600146996789,None,0,,,C:\2023\REPSWITCH21092023\REPSWITCH_excgange\REPSWITCH_excgange\data/300203_REPSWITCH1_version2_list3_2023-12-05_11h21.18.227_micRespv2l3_recorded\recording_micRespv2l3_2023-12-05_11h29.47.835.wav,516.6600146996789,,None,,,,,,300203,001,2023-12-05_11h21.18.227,REPSWITCH1_version2_list3,2022.2.4,144.0297511997384,
REPSWITCH1/PICTURE_19.png,pavo,speak,darkblue,nontarget,2,NT,1,4,3,2,Stim5_Set1,1,repeat,105,104,3,0,104,104,104,,,,,,,,,,,,,,,,,,,,,,,517.1600207998417,518.2851907997392,518.2851907997392,518.2851907997392,518.2851907997392,518.2851907997392,518.2851907997392,518.2851907997392,518.2851907997392,521.3133911998011,521.3133911998011,521.3133911998011,521.3133911998011,521.3133911998011,521.3133911998011,None,0,,,C:\2023\REPSWITCH21092023\REPSWITCH_excgange\REPSWITCH_excgange\data/300203_REPSWITCH1_version2_list3_2023-12-05_11h21.18.227_micRespv2l3_recorded\recording_micRespv2l3_2023-12-05_11h29.52.489.wav,521.3133911998011,,None,,,,,,300203,001,2023-12-05_11h21.18.227,REPSWITCH1_version2_list3,2022.2.4,144.0297511997384,
REPSWITCH1/PICTURE_19.png,pavo,speak,darkblue,repeat,2,T,1,4,3,2,Stim5_Set1,0,None,106,105,4,0,105,105,105,,,,,,,,,,,,,,,,,,,,,,,521.8133832998574,522.8690772997215,522.8690772997215,522.8690772997215,522.8690772997215,522.8690772997215,522.8690772997215,522.8690772997215,522.8690772997215,525.8972402997315,525.8972402997315,525.8972402997315,525.8972402997315,525.8972402997315,525.8972402997315,None,0,,,C:\2023\REPSWITCH21092023\REPSWITCH_excgange\REPSWITCH_excgange\data/300203_REPSWITCH1_version2_list3_2023-12-05_11h21.18.227_micRespv2l3_recorded\recording_micRespv2l3_2023-12-05_11h29.57.073.wav,525.8972402997315,,None,,,,,,300203,001,2023-12-05_11h21.18.227,REPSWITCH1_version2_list3,2022.2.4,144.0297511997384,
REPSWITCH1/PICTURE_319.png,vaca,type,gold,filler,1,F,1,4,3,2,Stim1_Set4,1,repeat,107,106,5,0,106,106,106,,,,,,,,,,,,,,,,,,,,,,,526.3973932000808,527.5225479998626,527.5225479998626,527.5225479998626,527.5225479998626,527.5225479998626,527.5225479998626,527.5225479998626,527.5225479998626,530.5436897999607,530.5436897999607,530.5436897999607,530.5436897999607,530.5436897999607,530.5436897999607,"['v', 'a', 'c', 'a']",0,"[0.9236364006064832, 1.228646400384605, 1.3650607005693018, 1.4866144005209208]",vaca,C:\2023\REPSWITCH21092023\REPSWITCH_excgange\REPSWITCH_excgange\data/300203_REPSWITCH1_version2_list3_2023-12-05_11h21.18.227_micRespv2l3_recorded\recording_micRespv2l3_2023-12-05_11h30.01.725.wav,530.5436897999607,531.0437870998867,None,,,,,,300203,001,2023-12-05_11h21.18.227,REPSWITCH1_version2_list3,2022.2.4,144.0297511997384,
REPSWITCH1/PICTURE_169.png,espalda,speak,darkblue,nontarget,2,NT,1,4,3,2,Stim8_Set1,1,switch,108,107,6,0,107,107,107,,,,,,,,,,,,,,,,,,,,,,,531.0437870998867,532.071749499999,532.071749499999,532.071749499999,532.071749499999,532.071749499999,532.071749499999,532.071749499999,532.071749499999,535.0929058999754,535.0929058999754,535.0929058999754,535.0929058999754,535.0929058999754,535.0929058999754,None,0,,,C:\2023\REPSWITCH21092023\REPSWITCH_excgange\REPSWITCH_excgange\data/300203_REPSWITCH1_version2_list3_2023-12-05_11h21.18.227_micRespv2l3_recorded\recording_micRespv2l3_2023-12-05_11h30.06.275.wav,535.0929058999754,535.5930019998923,None,,,,,,300203,001,2023-12-05_11h21.18.227,REPSWITCH1_version2_list3,2022.2.4,144.0297511997384,
REPSWITCH1/PICTURE_169.png,espalda,speak,darkblue,repeat,2,T,1,4,3,2,Stim8_Set1,0,None,109,108,7,0,108,108,108,,,,,,,,,,,,,,,,,,,,,,,535.5930019998923,536.7250846996903,536.7250846996903,536.7250846996903,536.7250846996903,536.7250846996903,536.7250846996903,536.7250846996903,536.7250846996903,539.746288899798,539.746288899798,539.746288899798,539.746288899798,539.746288899798,539.746288899798,None,0,,,C:\2023\REPSWITCH21092023\REPSWITCH_excgange\REPSWITCH_excgange\data/300203_REPSWITCH1_version2_list3_2023-12-05_11h21.18.227_micRespv2l3_recorded\recording_micRespv2l3_2023-12-05_11h30.10.928.wav,539.746288899798,540.2463797996752,None,,,,,,300203,001,2023-12-05_11h21.18.227,REPSWITCH1_version2_list3,2022.2.4,144.0297511997384,
REPSWITCH1/PICTURE_728.png,pulpo,type,gold,filler,1,F,1,4,3,2,Stim8_Set4,0,None,110,109,8,0,109,109,109,,,,,,,,,,,,,,,,,,,,,,,540.2463797996752,541.322929599788,541.322929599788,541.322929599788,541.322929599788,541.322929599788,541.322929599788,541.322929599788,541.322929599788,544.3441761997528,544.3441761997528,544.3441761997528,544.3441761997528,544.3441761997528,544.3441761997528,"['p', 'u', 'l', 'p', 'o']",0,"[0.8220215006731451, 0.9300252003595233, 1.1323076002299786, 1.3679243004880846, 1.4730679006315768]",pulpo,C:\2023\REPSWITCH21092023\REPSWITCH_excgange\REPSWITCH_excgange\data/300203_REPSWITCH1_version2_list3_2023-12-05_11h21.18.227_micRespv2l3_recorded\recording_micRespv2l3_2023-12-05_11h30.15.526.wav,544.3441761997528,544.8441804996692,None,,,,,,300203,001,2023-12-05_11h21.18.227,REPSWITCH1_version2_list3,2022.2.4,144.0297511997384,
REPSWITCH1/PICTURE_142.png,vaso,speak,darkblue,nontarget,2,NT,1,4,3,2,Stim7_Set1,1,switch,111,110,9,0,110,110,110,,,,,,,,,,,,,,,,,,,,,,,544.8441804996692,545.8999744998291,545.8999744998291,545.8999744998291,545.8999744998291,545.8999744998291,545.8999744998291,545.8999744998291,545.8999744998291,548.9211542997509,548.9211542997509,548.9211542997509,548.9211542997509,548.9211542997509,548.9211542997509,None,0,,,C:\2023\REPSWITCH21092023\REPSWITCH_excgange\REPSWITCH_excgange\data/300203_REPSWITCH1_version2_list3_2023-12-05_11h21.18.227_micRespv2l3_recorded\recording_micRespv2l3_2023-12-05_11h30.20.103.wav,548.9211542997509,549.4211717997678,None,,,,,,300203,001,2023-12-05_11h21.18.227,REPSWITCH1_version2_list3,2022.2.4,144.0297511997384,
REPSWITCH1/PICTURE_142.png,vaso,type,gold,switch,1,T,1,4,3,2,Stim7_Set1,0,None,112,111,10,0,111,111,111,,,,,,,,,,,,,,,,,,,,,,,549.4211717997678,550.449132299982,550.449132299982,550.449132299982,550.449132299982,550.449132299982,550.449132299982,550.449132299982,550.449132299982,553.4703208999708,553.4703208999708,553.4703208999708,553.4703208999708,553.4703208999708,553.4703208999708,"['v', 'a', 's', 'o']",0,"[0.8140818001702428, 1.0424244003370404, 1.4512713002040982, 1.5798628004267812]",vaso,C:\2023\REPSWITCH21092023\REPSWITCH_excgange\REPSWITCH_excgange\data/300203_REPSWITCH1_version2_list3_2023-12-05_11h21.18.227_micRespv2l3_recorded\recording_micRespv2l3_2023-12-05_11h30.24.652.wav,553.4703208999708,553.9703958998434,None,,,,,,300203,001,2023-12-05_11h21.18.227,REPSWITCH1_version2_list3,2022.2.4,144.0297511997384,
REPSWITCH1/PICTURE_338.png,regalo,type,gold,filler,1,F,1,4,3,2,Stim6_Set4,1,repeat,113,112,11,0,112,112,112,,,,,,,,,,,,,,,,,,,,,,,553.9703958998434,555.0261344998144,555.0261344998144,555.0261344998144,555.0261344998144,555.0261344998144,555.0261344998144,555.0261344998144,555.0261344998144,558.0473233000375,558.0473233000375,558.0473233000375,558.0473233000375,558.0473233000375,558.0473233000375,"['r', 'e', 'g', 'l', 'a', 'backspace', 'backspace', 'a', 'l', 'o']",0,"[0.7131707002408803, 0.8149735005572438, 1.0244789002463222, 1.1772460006177425, 1.3401551004499197, 1.6032773004844785, 1.7490638005547225, 1.8241792004555464, 1.945118700619787, 2.100565100554377]",regalo,C:\2023\REPSWITCH21092023\REPSWITCH_excgange\REPSWITCH_excgange\data/300203_REPSWITCH1_version2_list3_2023-12-05_11h21.18.227_micRespv2l3_recorded\recording_micRespv2l3_2023-12-05_11h30.29.229.wav,558.0473233000375,558.5473849000409,None,,,,,,300203,001,2023-12-05_11h21.18.227,REPSWITCH1_version2_list3,2022.2.4,144.0297511997384,
REPSWITCH1/PICTURE_135.png,traje,type,gold,nontarget,1,NT,1,4,3,2,Stim3_Set1,1,repeat,114,113,12,0,113,113,113,,,,,,,,,,,,,,,,,,,,,,,558.5473849000409,559.6030904999934,559.6030904999934,559.6030904999934,559.6030904999934,559.6030904999934,559.6030904999934,559.6030904999934,559.6030904999934,562.631258700043,562.631258700043,562.631258700043,562.631258700043,562.631258700043,562.631258700043,"['t', 'r', 'a', 'j', 'e']",0,"[0.7088132002390921, 0.9151551998220384, 1.0217677000910044, 1.144481800030917, 1.3345873998478055]",traje,C:\2023\REPSWITCH21092023\REPSWITCH_excgange\REPSWITCH_excgange\data/300203_REPSWITCH1_version2_list3_2023-12-05_11h21.18.227_micRespv2l3_recorded\recording_micRespv2l3_2023-12-05_11h30.33.807.wav,562.631258700043,,None,,,,,,300203,001,2023-12-05_11h21.18.227,REPSWITCH1_version2_list3,2022.2.4,144.0297511997384,
REPSWITCH1/PICTURE_135.png,traje,speak,darkblue,switch,2,T,1,4,3,2,Stim3_Set1,0,None,115,114,13,0,114,114,114,,,,,,,,,,,,,,,,,,,,,,,563.1313259997405,564.3121090000495,564.3121090000495,564.3121090000495,564.3121090000495,564.3121090000495,564.3121090000495,564.3121090000495,564.3121090000495,567.3332541999407,567.3332541999407,567.3332541999407,567.3332541999407,567.3332541999407,567.3332541999407,None,0,,,C:\2023\REPSWITCH21092023\REPSWITCH_excgange\REPSWITCH_excgange\data/300203_REPSWITCH1_version2_list3_2023-12-05_11h21.18.227_micRespv2l3_recorded\recording_micRespv2l3_2023-12-05_11h30.38.516.wav,567.3332541999407,567.8333276999183,None,,,,,,300203,001,2023-12-05_11h21.18.227,REPSWITCH1_version2_list3,2022.2.4,144.0297511997384,
REPSWITCH1/PICTURE_381.png,fresa,speak,darkblue,nontarget,2,NT,1,4,3,2,Stim2_Set1,1,repeat,116,115,14,0,115,115,115,,,,,,,,,,,,,,,,,,,,,,,567.8333276999183,568.9376849997789,568.9376849997789,568.9376849997789,568.9376849997789,568.9376849997789,568.9376849997789,568.9376849997789,568.9376849997789,571.9589025997557,571.9589025997557,571.9589025997557,571.9589025997557,571.9589025997557,571.9589025997557,None,0,,,C:\2023\REPSWITCH21092023\REPSWITCH_excgange\REPSWITCH_excgange\data/300203_REPSWITCH1_version2_list3_2023-12-05_11h21.18.227_micRespv2l3_recorded\recording_micRespv2l3_2023-12-05_11h30.43.141.wav,571.9589025997557,572.4589704000391,None,,,,,,300203,001,2023-12-05_11h21.18.227,REPSWITCH1_version2_list3,2022.2.4,144.0297511997384,
REPSWITCH1/PICTURE_381.png,fresa,type,gold,switch,1,T,1,4,3,2,Stim2_Set1,0,None,117,116,15,0,116,116,116,,,,,,,,,,,,,,,,,,,,,,,572.4589704000391,573.6119488999248,573.6119488999248,573.6119488999248,573.6119488999248,573.6119488999248,573.6119488999248,573.6119488999248,573.6119488999248,576.6331871999428,576.6331871999428,576.6331871999428,576.6331871999428,576.6331871999428,576.6331871999428,"['f', 'r', 'e', 's', 'a']",0,"[0.644438000395894, 0.8418849003501236, 1.115982800256461, 1.3364537004381418, 1.6142379003576934]",fresa,C:\2023\REPSWITCH21092023\REPSWITCH_excgange\REPSWITCH_excgange\data/300203_REPSWITCH1_version2_list3_2023-12-05_11h21.18.227_micRespv2l3_recorded\recording_micRespv2l3_2023-12-05_11h30.47.815.wav,576.6331871999428,577.1332429996692,None,,,,,,300203,001,2023-12-05_11h21.18.227,REPSWITCH1_version2_list3,2022.2.4,144.0297511997384,
REPSWITCH1/PICTURE_48.png,bombero,type,gold,filler,1,F,1,4,3,2,Stim7_Set4,0,None,118,117,16,0,117,117,117,,,,,,,,,,,,,,,,,,,,,,,577.1332429996692,578.2583499997854,578.2583499997854,578.2583499997854,578.2583499997854,578.2583499997854,578.2583499997854,578.2583499997854,578.2583499997854,581.2865132996812,581.2865132996812,581.2865132996812,581.2865132996812,581.2865132996812,581.2865132996812,"['b', 'o', 'm', 'b', 'e', 'r', 'o']",0,"[0.9969653999432921, 1.5601886003278196, 1.7883607000112534, 1.9432089002802968, 2.183160100132227, 2.3077507000416517, 2.418482200242579]",bombero,C:\2023\REPSWITCH21092023\REPSWITCH_excgange\REPSWITCH_excgange\data/300203_REPSWITCH1_version2_list3_2023-12-05_11h21.18.227_micRespv2l3_recorded\recording_micRespv2l3_2023-12-05_11h30.52.462.wav,581.2865132996812,,None,,,,,,300203,001,2023-12-05_11h21.18.227,REPSWITCH1_version2_list3,2022.2.4,144.0297511997384,
REPSWITCH1/PICTURE_687.png,camisa,speak,darkblue,filler,2,F,1,4,3,2,Stim5_Set4,0,None,119,118,17,0,118,118,118,,,,,,,,,,,,,,,,,,,,,,,581.7866479000077,582.8562292996794,582.8562292996794,582.8562292996794,582.8562292996794,582.8562292996794,582.8562292996794,582.8562292996794,582.8562292996794,585.8843867997639,585.8843867997639,585.8843867997639,585.8843867997639,585.8843867997639,585.8843867997639,None,0,,,C:\2023\REPSWITCH21092023\REPSWITCH_excgange\REPSWITCH_excgange\data/300203_REPSWITCH1_version2_list3_2023-12-05_11h21.18.227_micRespv2l3_recorded\recording_micRespv2l3_2023-12-05_11h30.57.060.wav,585.8843867997639,,None,,,,,,300203,001,2023-12-05_11h21.18.227,REPSWITCH1_version2_list3,2022.2.4,144.0297511997384,
