image,correctAns,respModal,frameColour,repSwitch,sequence,target,set,stimulus,trialsREPSWITCH.thisRepN,trialsREPSWITCH.thisTrialN,trialsREPSWITCH.thisN,trialsREPSWITCH.thisIndex,textWelcome.started,textWelcome.stopped,textBlank500.started,textBlank500.stopped,textInstrMain.started,keyInstrMain.started,keyInstrMain.keys,keyInstrMain.rt,fixationITI.started,fixationITI.stopped,polygonColour.started,polygonWhite.started,imageObject.started,polygonType.started,textInput.started,keyResp.started,micResp.started,micResp.stopped,keyResp.keys,keyResp.corr,subjResponse,micResp.clip,keyPause.keys,keyResp.rt,polygonColour.stopped,polygonWhite.stopped,imageObject.stopped,polygonType.stopped,textInput.stopped,keyResp.stopped,textPause.started,keyPause.started,participant,session,date,expName,psychopyVersion,frameRate,
,,,,,,,,,,,,,10.046152499999152,12.049975899979472,12.049975899979472,12.551041700004134,12.551041700004134,12.551041700004134,space,7.915566200012108,,,,,,,,,,,,,,,,,,,,,,,,,301929,001,2023-06-21_11h38.59.143,REPSWITCH_1,2022.2.5,60.00283214127184,
REPSWITCH1/PICTURE_128.png,muñeca,speak,yellow,nontarget,2,NT,1,Stim1_Set1,0,0,0,0,,,25.246508799988078,25.746420599985868,,,,,21.101830300001893,22.285084899980575,22.285084899980575,22.285084899980575,22.285084899980575,22.285084899980575,22.285084899980575,22.285084899980575,0.005556200019782409,2.0503881000040565,None,0,,D:\GitHub\experiment1\data/301929_REPSWITCH_1_2023-06-21_11h38.59.143_micResp_recorded\recording_micResp_2023-06-21_11h39.19.635.wav,None,,,,,,,,,,301929,001,2023-06-21_11h38.59.143,REPSWITCH_1,2022.2.5,60.00283214127184,
REPSWITCH1/PICTURE_128.png,muñeca,speak,yellow,repeat,2,T,1,Stim1_Set1,0,1,1,1,,,29.86218799999915,30.36201670000446,,,,,25.746420599985868,26.86428340000566,26.86428340000566,26.86428340000566,26.86428340000566,26.86428340000566,26.86428340000566,26.86428340000566,0.0033294999739155173,2.0007530999719165,None,0,,D:\GitHub\experiment1\data/301929_REPSWITCH_1_2023-06-21_11h38.59.143_micResp_recorded\recording_micResp_2023-06-21_11h39.24.251.wav,None,,,,,,,,,,301929,001,2023-06-21_11h38.59.143,REPSWITCH_1,2022.2.5,60.00283214127184,
REPSWITCH1/PICTURE_135.png,traje,type,indigo,filler,1,F,1,Stim1_Set4,0,2,2,2,,,34.52773149998393,35.0276104999939,,,,,30.36201670000446,31.53020639999886,31.53020639999886,31.53020639999886,31.53020639999886,31.53020639999886,31.53020639999886,31.53020639999886,0.0038552999903913587,2.000459700007923,"['t', 'r', 'a', 'j', 'e']",0,traje,D:\GitHub\experiment1\data/301929_REPSWITCH_1_2023-06-21_11h38.59.143_micResp_recorded\recording_micResp_2023-06-21_11h39.28.917.wav,None,"[1.0036584000044968, 1.1912839000287931, 1.26806500001112, 1.4898247000237461, 1.5561839000147302]",,,,,,,,,301929,001,2023-06-21_11h38.59.143,REPSWITCH_1,2022.2.5,60.00283214127184,
REPSWITCH1/PICTURE_142.png,vaso,speak,yellow,nontarget,2,NT,1,Stim2_Set1,0,3,3,3,,,39.12631709998823,39.62615019999794,,,,,35.0276104999939,36.12909309999668,36.12909309999668,36.12909309999668,36.12909309999668,36.12909309999668,36.12909309999668,36.12909309999668,0.003489599999738857,2.000722800003132,None,0,,D:\GitHub\experiment1\data/301929_REPSWITCH_1_2023-06-21_11h38.59.143_micResp_recorded\recording_micResp_2023-06-21_11h39.33.516.wav,None,,,,,,,,,,301929,001,2023-06-21_11h38.59.143,REPSWITCH_1,2022.2.5,60.00283214127184,
REPSWITCH1/PICTURE_142.png,vaso,speak,yellow,repeat,2,T,1,Stim2_Set1,0,4,4,4,,,43.875111600005766,44.37504109999281,,,,,39.62615019999794,40.87786929999129,40.87786929999129,40.87786929999129,40.87786929999129,40.87786929999129,40.87786929999129,40.87786929999129,0.0026922000106424093,2.0007717999978922,None,0,,D:\GitHub\experiment1\data/301929_REPSWITCH_1_2023-06-21_11h38.59.143_micResp_recorded\recording_micResp_2023-06-21_11h39.38.264.wav,None,,,,,,,,,,301929,001,2023-06-21_11h38.59.143,REPSWITCH_1,2022.2.5,60.00283214127184,
REPSWITCH1/PICTURE_464.png,goma,type,indigo,filler,1,F,1,Stim2_Set4,0,5,5,5,,,48.50753740000073,49.0074362999876,,,,,44.37504109999281,45.624857999995584,45.624857999995584,45.624857999995584,45.624857999995584,45.624857999995584,45.624857999995584,45.624857999995584,0.12473370000952855,2.117851100018015,"['g', 'o', 'm', 'a']",0,goma,D:\GitHub\experiment1\data/301929_REPSWITCH_1_2023-06-21_11h38.59.143_micResp_recorded\recording_micResp_2023-06-21_11h39.42.896.wav,None,"[1.2052764000254683, 1.2810785000037868, 1.4516285000136122, 1.5530310000176542]",,,,,,,,,301929,001,2023-06-21_11h38.59.143,REPSWITCH_1,2022.2.5,60.00283214127184,
REPSWITCH1/PICTURE_152.png,caracol,speak,yellow,nontarget,2,NT,1,Stim3_Set1,0,6,6,6,,,53.17338969997945,53.67304110000259,,,,,49.0074362999876,50.27325309999287,50.27325309999287,50.27325309999287,50.27325309999287,50.27325309999287,50.27325309999287,50.27325309999287,0.1056762000080198,2.1007336000038777,None,0,,D:\GitHub\experiment1\data/301929_REPSWITCH_1_2023-06-21_11h38.59.143_micResp_recorded\recording_micResp_2023-06-21_11h39.47.562.wav,None,,,,,,,,,,301929,001,2023-06-21_11h38.59.143,REPSWITCH_1,2022.2.5,60.00283214127184,
REPSWITCH1/PICTURE_152.png,caracol,type,indigo,switch,1,T,1,Stim3_Set1,0,7,7,7,,,57.90516319999006,58.405203000002075,,,,,53.67304110000259,54.90791549999267,54.90791549999267,54.90791549999267,54.90791549999267,54.90791549999267,54.90791549999267,54.90791549999267,0.004328300012275577,2.0005031999899074,"['c', 'a', 'r', 'a', 'c', 'o', 'l']",0,caracol,D:\GitHub\experiment1\data/301929_REPSWITCH_1_2023-06-21_11h38.59.143_micResp_recorded\recording_micResp_2023-06-21_11h39.52.295.wav,None,"[1.0347621999972034, 1.1679134000150952, 1.2981464000185952, 1.383029800024815, 1.592947600001935, 1.717449800024042, 1.911960800003726]",,,,,,,,,301929,001,2023-06-21_11h38.59.143,REPSWITCH_1,2022.2.5,60.00283214127184,
REPSWITCH1/PICTURE_19.png,pavo,type,indigo,nontarget,1,NT,1,Stim4_Set1,0,8,8,8,,,62.42098179997993,62.92071129998658,,,,,58.405203000002075,59.736377399996854,59.736377399996854,59.736377399996854,59.736377399996854,59.736377399996854,59.736377399996854,59.736377399996854,0.3190714000083972,2.316628700005822,"['p', 'a', 'v', 'o']",0,pavo,D:\GitHub\experiment1\data/301929_REPSWITCH_1_2023-06-21_11h38.59.143_micResp_recorded\recording_micResp_2023-06-21_11h39.56.810.wav,None,"[1.5596134000224993, 1.6397416000254452, 1.7804616000212263, 1.8686668000009377]",,,,,,,,,301929,001,2023-06-21_11h38.59.143,REPSWITCH_1,2022.2.5,60.00283214127184,
REPSWITCH1/PICTURE_19.png,pavo,speak,yellow,switch,2,T,1,Stim4_Set1,0,9,9,9,,,67.2531650000019,67.75286519998917,,,,,62.92071129998658,64.25557999999728,64.25557999999728,64.25557999999728,64.25557999999728,64.25557999999728,64.25557999999728,64.25557999999728,0.005039100011344999,2.0004819000023417,None,0,,D:\GitHub\experiment1\data/301929_REPSWITCH_1_2023-06-21_11h38.59.143_micResp_recorded\recording_micResp_2023-06-21_11h40.01.642.wav,None,,,,,,,,,,301929,001,2023-06-21_11h38.59.143,REPSWITCH_1,2022.2.5,60.00283214127184,
REPSWITCH1/PICTURE_381.png,fresa,speak,yellow,filler,2,F,1,Stim3_Set4,0,10,10,10,,,71.8187145999982,72.31864599999972,,,,,67.75286519998917,68.8383006999793,68.8383006999793,68.8383006999793,68.8383006999793,68.8383006999793,68.8383006999793,68.8383006999793,0.025740699988091365,2.0338878000038676,None,0,,D:\GitHub\experiment1\data/301929_REPSWITCH_1_2023-06-21_11h38.59.143_micResp_recorded\recording_micResp_2023-06-21_11h40.06.207.wav,None,,,,,,,,,,301929,001,2023-06-21_11h38.59.143,REPSWITCH_1,2022.2.5,60.00283214127184,
REPSWITCH1/PICTURE_199.png,falda,speak,yellow,nontarget,2,NT,1,Stim5_Set1,0,11,11,11,,,76.55094069999177,77.05077469997923,,,,,72.31864599999972,73.89896729998873,73.89896729998873,73.89896729998873,73.89896729998873,73.89896729998873,73.89896729998873,73.89896729998873,0.35620160002144985,2.3502889999945182,None,0,,D:\GitHub\experiment1\data/301929_REPSWITCH_1_2023-06-21_11h38.59.143_micResp_recorded\recording_micResp_2023-06-21_11h40.10.940.wav,None,,,,,,,,,,301929,001,2023-06-21_11h38.59.143,REPSWITCH_1,2022.2.5,60.00283214127184,
REPSWITCH1/PICTURE_199.png,falda,type,indigo,switch,1,T,1,Stim5_Set1,0,12,12,12,,,81.13287229998969,81.63289310000255,,,,,77.05077469997923,78.13559039999382,78.13559039999382,78.13559039999382,78.13559039999382,78.13559039999382,78.13559039999382,78.13559039999382,0.003103800001554191,2.0010047999967355,"['f', 'a', 'l', 'd', 'a']",0,falda,D:\GitHub\experiment1\data/301929_REPSWITCH_1_2023-06-21_11h38.59.143_micResp_recorded\recording_micResp_2023-06-21_11h40.15.522.wav,None,"[0.8632629000057932, 0.9573246999934781, 1.061442000005627, 1.1747164000116754, 1.2580995000025723]",,,,,,,,,301929,001,2023-06-21_11h38.59.143,REPSWITCH_1,2022.2.5,60.00283214127184,
REPSWITCH1/PICTURE_546.png,puerta,speak,yellow,filler,2,F,1,Stim4_Set4,0,13,13,13,,,85.79864629998337,86.2984927999787,,,,,81.63289310000255,82.92474429999129,82.92474429999129,82.92474429999129,82.92474429999129,82.92474429999129,82.92474429999129,82.92474429999129,0.13010849998681806,2.1337995999783743,None,0,,D:\GitHub\experiment1\data/301929_REPSWITCH_1_2023-06-21_11h38.59.143_micResp_recorded\recording_micResp_2023-06-21_11h40.20.187.wav,None,,,,,,,,,,301929,001,2023-06-21_11h38.59.143,REPSWITCH_1,2022.2.5,60.00283214127184,
REPSWITCH1/PICTURE_235.png,aguja,type,indigo,nontarget,1,NT,1,Stim6_Set1,0,14,14,14,,,90.78080129998852,,,,,,86.2984927999787,87.76994440000271,87.76994440000271,87.76994440000271,87.76994440000271,87.76994440000271,87.76994440000271,87.76994440000271,0.01194899997790344,2.0166076999739744,"['a', 'g', 'u', 'j', 'a']",0,aguja,D:\GitHub\experiment1\data/301929_REPSWITCH_1_2023-06-21_11h38.59.143_micResp_recorded\recording_micResp_2023-06-21_11h40.25.170.wav,None,"[1.2680320000217762, 1.510733800008893, 1.6257190000033006, 1.809267800010275, 1.8525935000216123]",,,,,,,,,301929,001,2023-06-21_11h38.59.143,REPSWITCH_1,2022.2.5,60.00283214127184,
REPSWITCH1/PICTURE_235.png,aguja,type,indigo,repeat,1,T,1,Stim6_Set1,0,15,15,15,,,95.34669439998106,95.84644209998078,,,,,91.28063169997768,92.34880409998004,92.34880409998004,92.34880409998004,92.34880409998004,92.34880409998004,92.34880409998004,92.34880409998004,0.00369810001575388,2.0005653999978676,"['a', 'g', 'u', 'j', 'a']",0,aguja,D:\GitHub\experiment1\data/301929_REPSWITCH_1_2023-06-21_11h38.59.143_micResp_recorded\recording_micResp_2023-06-21_11h40.29.735.wav,None,"[1.070895400014706, 1.2849625000089873, 1.3734031000058167, 1.5520427000010386, 1.7712151000159793]",,,,,,,,,301929,001,2023-06-21_11h38.59.143,REPSWITCH_1,2022.2.5,60.00283214127184,
REPSWITCH1/PICTURE_636.png,oveja,speak,yellow,filler,2,F,1,Stim5_Set4,0,16,16,16,,,99.99534279998625,100.49511429999257,,,,,95.84644209998078,97.00153919999138,97.00153919999138,97.00153919999138,97.00153919999138,97.00153919999138,97.00153919999138,97.00153919999138,0.013394100009463727,2.0177192999981344,None,0,,D:\GitHub\experiment1\data/301929_REPSWITCH_1_2023-06-21_11h38.59.143_micResp_recorded\recording_micResp_2023-06-21_11h40.34.384.wav,None,,,,,,,,,,301929,001,2023-06-21_11h38.59.143,REPSWITCH_1,2022.2.5,60.00283214127184,
REPSWITCH1/PICTURE_264.png,mano,type,indigo,nontarget,1,NT,1,Stim7_Set1,0,17,17,17,,,104.66114660000312,105.16040170000633,,,,,100.49511429999257,101.67141459998675,101.67141459998675,101.67141459998675,101.67141459998675,101.67141459998675,101.67141459998675,101.67141459998675,0.01680300000589341,2.016788999986602,"['m', 'a', 'n', 'o']",0,mano,D:\GitHub\experiment1\data/301929_REPSWITCH_1_2023-06-21_11h38.59.143_micResp_recorded\recording_micResp_2023-06-21_11h40.39.050.wav,None,"[1.2616553000116255, 1.358477000001585, 1.4740158999920823, 1.5518135000020266]",,,,,,,,,301929,001,2023-06-21_11h38.59.143,REPSWITCH_1,2022.2.5,60.00283214127184,
REPSWITCH1/PICTURE_264.png,mano,type,indigo,repeat,1,T,1,Stim7_Set1,0,18,18,18,,,109.3427326999954,,,,,,105.16040170000633,106.3350017000048,106.3350017000048,106.3350017000048,106.3350017000048,106.3350017000048,106.3350017000048,106.3350017000048,0.009093700005905703,2.0163502999930643,"['m', 'a', 'n', 'o']",0,mano,D:\GitHub\experiment1\data/301929_REPSWITCH_1_2023-06-21_11h38.59.143_micResp_recorded\recording_micResp_2023-06-21_11h40.43.732.wav,None,"[0.6934984999825247, 0.7926044999912847, 0.8911341999773867, 0.9786040999752004]",,,,,,,,,301929,001,2023-06-21_11h38.59.143,REPSWITCH_1,2022.2.5,60.00283214127184,
REPSWITCH1/PICTURE_545.png,braga,speak,yellow,filler,2,F,1,Stim6_Set4,0,19,19,19,,,114.00860299999476,114.5083522000059,,,,,109.84287409999524,111.01474419998704,111.01474419998704,111.01474419998704,111.01474419998704,111.01474419998704,111.01474419998704,111.01474419998704,0.011568499990971759,2.0180332000018097,None,0,,D:\GitHub\experiment1\data/301929_REPSWITCH_1_2023-06-21_11h38.59.143_micResp_recorded\recording_micResp_2023-06-21_11h40.48.397.wav,None,,,,,,,,,,301929,001,2023-06-21_11h38.59.143,REPSWITCH_1,2022.2.5,60.00283214127184,
REPSWITCH1/PICTURE_271.png,conejo,type,indigo,nontarget,1,NT,1,Stim8_Set1,0,20,20,20,,,118.70744629998808,119.2073262000049,,,,,114.5083522000059,115.71193570000469,115.71193570000469,115.71193570000469,115.71193570000469,115.71193570000469,115.71193570000469,115.71193570000469,0.009352499997476116,2.016940000001341,"['c', 'o', 'n', 'e', 'j', 'o']",0,conejo,D:\GitHub\experiment1\data/301929_REPSWITCH_1_2023-06-21_11h38.59.143_micResp_recorded\recording_micResp_2023-06-21_11h40.53.096.wav,None,"[1.2875895999895874, 1.4233259999891743, 1.6402565999887884, 1.9197816999803763, 2.0532337999902666, 2.3175896999891847]",,,,,,,,,301929,001,2023-06-21_11h38.59.143,REPSWITCH_1,2022.2.5,60.00283214127184,
REPSWITCH1/PICTURE_271.png,conejo,speak,yellow,switch,2,T,1,Stim8_Set1,0,21,21,21,,,123.43960099999094,123.94006029999582,,,,,119.2073262000049,120.44207910000114,120.44207910000114,120.44207910000114,120.44207910000114,120.44207910000114,120.44207910000114,120.44207910000114,0.004471199994441122,2.000766199984355,None,0,,D:\GitHub\experiment1\data/301929_REPSWITCH_1_2023-06-21_11h38.59.143_micResp_recorded\recording_micResp_2023-06-21_11h40.57.828.wav,None,,,,,,,,,,301929,001,2023-06-21_11h38.59.143,REPSWITCH_1,2022.2.5,60.00283214127184,
REPSWITCH1/PICTURE_8.png,pierna,type,indigo,filler,1,F,1,Stim7_Set4,0,22,22,22,,,128.10490969999228,128.60529499998665,,,,,123.94006029999582,125.43926789998659,125.43926789998659,125.43926789998659,125.43926789998659,125.43926789998659,125.43926789998659,125.43926789998659,0.3412845999991987,2.333894000010332,"['p', 'i', 'e', 'r', 'n', 'a']",0,pierna,D:\GitHub\experiment1\data/301929_REPSWITCH_1_2023-06-21_11h38.59.143_micResp_recorded\recording_micResp_2023-06-21_11h41.02.493.wav,None,"[1.3654701999912504, 1.5014151000068523, 1.5377334000077099, 1.6455499000148848, 1.7901303000107873, 1.8439231000083964]",,,,,,,,,301929,001,2023-06-21_11h38.59.143,REPSWITCH_1,2022.2.5,60.00283214127184,
REPSWITCH1/PICTURE_91.png,boca,type,indigo,filler,1,F,1,Stim8_Set4,0,23,23,23,,,132.73725320000085,133.2372761000006,,,,,128.60529499998665,129.8304105999996,129.8304105999996,129.8304105999996,129.8304105999996,129.8304105999996,129.8304105999996,129.8304105999996,0.09901790000731125,2.1005714000202715,"['b', 'o', 'c', 'a']",0,boca,D:\GitHub\experiment1\data/301929_REPSWITCH_1_2023-06-21_11h38.59.143_micResp_recorded\recording_micResp_2023-06-21_11h41.07.126.wav,None,"[0.9139217000047211, 1.0674346000014339, 1.2252477000001818, 1.3192321000096854]",,,,,,,,,301929,001,2023-06-21_11h38.59.143,REPSWITCH_1,2022.2.5,60.00283214127184,
REPSWITCH1/PICTURE_128.png,muñeca,speak,yellow,filler,2,F,2,Stim1_Set1,0,24,24,24,,,137.48596619997988,137.9861557999975,,,,,133.2372761000006,134.4885996999801,134.4885996999801,134.4885996999801,134.4885996999801,134.4885996999801,134.4885996999801,134.4885996999801,0.0039676999731455,2.0008951999770943,None,0,,D:\GitHub\experiment1\data/301929_REPSWITCH_1_2023-06-21_11h38.59.143_micResp_recorded\recording_micResp_2023-06-21_11h41.11.875.wav,None,,,,,,,,,,301929,001,2023-06-21_11h38.59.143,REPSWITCH_1,2022.2.5,60.00283214127184,
REPSWITCH1/PICTURE_16.png,cazador,type,indigo,nontarget,1,NT,2,Stim1_Set2,0,25,25,25,,,142.20176209998317,142.70174449999467,,,,,137.9861557999975,139.28423970000586,139.28423970000586,139.28423970000586,139.28423970000586,139.28423970000586,139.28423970000586,139.28423970000586,0.08999390000826679,2.0837272999924608,"['c', 'a', 'z', 'a', 's', 'backspace', 'd', 'p']",0,cazadp,D:\GitHub\experiment1\data/301929_REPSWITCH_1_2023-06-21_11h38.59.143_micResp_recorded\recording_micResp_2023-06-21_11h41.16.591.wav,None,"[1.0579466999915894, 1.1899780000094324, 1.5707817999937106, 1.7846022000012454, 2.047527099988656, 2.350287599983858, 2.526125900010811, 2.6553067000058945]",,,,,,,,,301929,001,2023-06-21_11h38.59.143,REPSWITCH_1,2022.2.5,60.00283214127184,
REPSWITCH1/PICTURE_16.png,cazador,type,indigo,repeat,1,T,2,Stim1_Set2,0,26,26,26,,,146.8674774999963,147.3676637999888,,,,,142.70174449999467,143.8698298999807,143.8698298999807,143.8698298999807,143.8698298999807,143.8698298999807,143.8698298999807,143.8698298999807,0.0044615000078920275,2.000680500001181,"['c', 'a', 'z', 'a', 'd', 'o', 'r']",0,cazador,D:\GitHub\experiment1\data/301929_REPSWITCH_1_2023-06-21_11h38.59.143_micResp_recorded\recording_micResp_2023-06-21_11h41.21.256.wav,None,"[0.8468301999964751, 0.9718352000054438, 1.276819599996088, 1.5508988999936264, 1.8576918999897316, 1.9754470000043511, 2.085149699996691]",,,,,,,,,301929,001,2023-06-21_11h38.59.143,REPSWITCH_1,2022.2.5,60.00283214127184,
REPSWITCH1/PICTURE_142.png,vaso,speak,yellow,filler,2,F,2,Stim2_Set1,0,27,27,27,,,151.53268109998317,152.03278169999248,,,,,147.3676637999888,148.53529850000632,148.53529850000632,148.53529850000632,148.53529850000632,148.53529850000632,148.53529850000632,148.53529850000632,0.003992100013419986,2.0005382999952417,None,0,,D:\GitHub\experiment1\data/301929_REPSWITCH_1_2023-06-21_11h38.59.143_micResp_recorded\recording_micResp_2023-06-21_11h41.25.921.wav,None,,,,,,,,,,301929,001,2023-06-21_11h38.59.143,REPSWITCH_1,2022.2.5,60.00283214127184,
REPSWITCH1/PICTURE_175.png,pintor,type,indigo,nontarget,1,NT,2,Stim2_Set2,0,28,28,28,,,156.11523299998953,156.61510359999374,,,,,152.03278169999248,153.46772099999362,153.46772099999362,153.46772099999362,153.46772099999362,153.46772099999362,153.46772099999362,153.46772099999362,0.3602150999940932,2.350523700006306,"['p', 'i', 'n', 't', 'o', 'r']",0,pintor,D:\GitHub\experiment1\data/301929_REPSWITCH_1_2023-06-21_11h38.59.143_micResp_recorded\recording_micResp_2023-06-21_11h41.30.504.wav,None,"[0.9298056999978144, 1.0712272000091616, 1.186295199993765, 1.396978200005833, 1.561542700015707, 1.6577531000075396]",,,,,,,,,301929,001,2023-06-21_11h38.59.143,REPSWITCH_1,2022.2.5,60.00283214127184,
REPSWITCH1/PICTURE_175.png,pintor,type,indigo,repeat,1,T,2,Stim2_Set2,0,29,29,29,,,160.7137201000005,161.21387519998825,,,,,156.61510359999374,157.71644600000582,157.71644600000582,157.71644600000582,157.71644600000582,157.71644600000582,157.71644600000582,157.71644600000582,0.0030325000116135925,2.0002727000101004,"['p', 'i', 'n', 't', 'o', 'r']",0,pintor,D:\GitHub\experiment1\data/301929_REPSWITCH_1_2023-06-21_11h38.59.143_micResp_recorded\recording_micResp_2023-06-21_11h41.35.103.wav,None,"[0.7482645999989472, 0.8465955999854486, 0.9927850000094622, 1.071999899984803, 1.1968090999871492, 1.3180776000081096]",,,,,,,,,301929,001,2023-06-21_11h38.59.143,REPSWITCH_1,2022.2.5,60.00283214127184,
REPSWITCH1/PICTURE_30.png,granja,type,indigo,nontarget,1,NT,2,Stim3_Set2,0,30,30,30,,,165.3125807000033,165.8124564999889,,,,,161.21387519998825,162.4193919999816,162.4193919999816,162.4193919999816,162.4193919999816,162.4193919999816,162.4193919999816,162.4193919999816,0.11301999998977408,2.1173640999768395,"['g', 'r', 'a', 'n', 'j', 'a']",0,granja,D:\GitHub\experiment1\data/301929_REPSWITCH_1_2023-06-21_11h38.59.143_micResp_recorded\recording_micResp_2023-06-21_11h41.39.701.wav,None,"[1.0172478000167757, 1.100672400003532, 1.200782200001413, 1.3976298000197858, 1.5639879000082146, 1.6347826000128407]",,,,,,,,,301929,001,2023-06-21_11h38.59.143,REPSWITCH_1,2022.2.5,60.00283214127184,
REPSWITCH1/PICTURE_30.png,granja,speak,yellow,switch,2,T,2,Stim3_Set2,0,31,31,31,,,170.09480309998617,170.59468959999504,,,,,165.8124564999889,167.0974859999842,167.0974859999842,167.0974859999842,167.0974859999842,167.0974859999842,167.0974859999842,167.0974859999842,0.0042944000160787255,2.0007467000104953,None,0,,D:\GitHub\experiment1\data/301929_REPSWITCH_1_2023-06-21_11h38.59.143_micResp_recorded\recording_micResp_2023-06-21_11h41.44.484.wav,None,,,,,,,,,,301929,001,2023-06-21_11h38.59.143,REPSWITCH_1,2022.2.5,60.00283214127184,
REPSWITCH1/PICTURE_319.png,vaca,speak,yellow,nontarget,2,NT,2,Stim4_Set2,0,32,32,32,,,174.67704169999342,175.1769366999797,,,,,170.59468959999504,171.67990399998962,171.67990399998962,171.67990399998962,171.67990399998962,171.67990399998962,171.67990399998962,171.67990399998962,0.010037000000011176,2.00073010000051,None,0,,D:\GitHub\experiment1\data/301929_REPSWITCH_1_2023-06-21_11h38.59.143_micResp_recorded\recording_micResp_2023-06-21_11h41.49.066.wav,None,,,,,,,,,,301929,001,2023-06-21_11h38.59.143,REPSWITCH_1,2022.2.5,60.00283214127184,
REPSWITCH1/PICTURE_319.png,vaca,type,indigo,switch,1,T,2,Stim4_Set2,0,33,33,33,,,179.22592969998368,179.72587759999442,,,,,175.1769366999797,176.22864299998037,176.22864299998037,176.22864299998037,176.22864299998037,176.22864299998037,176.22864299998037,176.22864299998037,0.003289599990239367,2.000656299991533,"['v', 'a', 'c', 'a']",0,vaca,D:\GitHub\experiment1\data/301929_REPSWITCH_1_2023-06-21_11h38.59.143_micResp_recorded\recording_micResp_2023-06-21_11h41.53.615.wav,None,"[0.8540524000127334, 0.9906822000048123, 1.1592633000109345, 1.2749499000201467]",,,,,,,,,301929,001,2023-06-21_11h38.59.143,REPSWITCH_1,2022.2.5,60.00283214127184,
REPSWITCH1/PICTURE_152.png,caracol,speak,yellow,filler,2,F,2,Stim3_Set1,0,34,34,34,,,183.77611779997824,,,,,,179.72587759999442,180.77755489997799,180.77755489997799,180.77755489997799,180.77755489997799,180.77755489997799,180.77755489997799,180.77755489997799,0.004002400004537776,2.0008563000010327,None,0,,D:\GitHub\experiment1\data/301929_REPSWITCH_1_2023-06-21_11h38.59.143_micResp_recorded\recording_micResp_2023-06-21_11h41.58.164.wav,None,,,,,,,,,,301929,001,2023-06-21_11h38.59.143,REPSWITCH_1,2022.2.5,60.00283214127184,
REPSWITCH1/PICTURE_320.png,iglesia,type,indigo,nontarget,1,NT,2,Stim5_Set2,0,35,35,35,,,188.49033619998954,188.99021669998183,,,,,184.29142759999377,185.49678799998946,185.49678799998946,185.49678799998946,185.49678799998946,185.49678799998946,185.49678799998946,185.49678799998946,0.013091600005282089,2.017404100013664,"['i', 'g', 'l', 'e', 's', 'i', 'a']",0,iglesia,D:\GitHub\experiment1\data/301929_REPSWITCH_1_2023-06-21_11h38.59.143_micResp_recorded\recording_micResp_2023-06-21_11h42.02.879.wav,None,"[1.157734000007622, 1.3098105999815743, 1.4692797999887262, 1.584850599989295, 2.0076963999890722, 2.11337919998914, 2.1881490999949165]",,,,,,,,,301929,001,2023-06-21_11h38.59.143,REPSWITCH_1,2022.2.5,60.00283214127184,
REPSWITCH1/PICTURE_320.png,iglesia,speak,yellow,switch,2,T,2,Stim5_Set2,0,36,36,36,,,193.10586189999594,193.60580439999467,,,,,188.99021669998183,190.10845259999041,190.10845259999041,190.10845259999041,190.10845259999041,190.10845259999041,190.10845259999041,190.10845259999041,0.00379290001001209,2.0007148000004236,None,0,,D:\GitHub\experiment1\data/301929_REPSWITCH_1_2023-06-21_11h38.59.143_micResp_recorded\recording_micResp_2023-06-21_11h42.07.495.wav,None,,,,,,,,,,301929,001,2023-06-21_11h38.59.143,REPSWITCH_1,2022.2.5,60.00283214127184,
REPSWITCH1/PICTURE_19.png,pavo,type,indigo,filler,1,F,2,Stim4_Set1,0,37,37,37,,,197.74057480000192,,,,,,193.60580439999467,194.74054470000556,194.74054470000556,194.74054470000556,194.74054470000556,194.74054470000556,194.74054470000556,194.74054470000556,0.0031237999792210758,2.000804799987236,"['p', 'a', 'v', 'o']",0,pavo,D:\GitHub\experiment1\data/301929_REPSWITCH_1_2023-06-21_11h38.59.143_micResp_recorded\recording_micResp_2023-06-21_11h42.12.127.wav,None,"[0.927433300006669, 1.0334416000114288, 1.1600836000288837, 1.2715790000220295]",,,,,,,,,301929,001,2023-06-21_11h38.59.143,REPSWITCH_1,2022.2.5,60.00283214127184,
REPSWITCH1/PICTURE_199.png,falda,type,indigo,filler,1,F,2,Stim5_Set1,0,38,38,38,,,202.353864899982,202.85354700000607,,,,,198.25477309999405,199.35625039998558,199.35625039998558,199.35625039998558,199.35625039998558,199.35625039998558,199.35625039998558,199.35625039998558,0.003142800007481128,2.000592399999732,"['f', 'a', 'l', 'd', 'a']",0,falda,D:\GitHub\experiment1\data/301929_REPSWITCH_1_2023-06-21_11h38.59.143_micResp_recorded\recording_micResp_2023-06-21_11h42.16.742.wav,None,"[1.1751843999954872, 1.2676625000021886, 1.366577300010249, 1.4342243999999482, 1.5369455000036396]",,,,,,,,,301929,001,2023-06-21_11h38.59.143,REPSWITCH_1,2022.2.5,60.00283214127184,
REPSWITCH1/PICTURE_517.png,cuerda,speak,yellow,nontarget,2,NT,2,Stim6_Set2,0,39,39,39,,,206.9859337999951,207.4857878999901,,,,,202.85354700000607,203.98943459999282,203.98943459999282,203.98943459999282,203.98943459999282,203.98943459999282,203.98943459999282,203.98943459999282,0.00984530002460815,2.017276900005527,"['c', 'u', 'backspace', 'backspace']",0,,D:\GitHub\experiment1\data/301929_REPSWITCH_1_2023-06-21_11h38.59.143_micResp_recorded\recording_micResp_2023-06-21_11h42.21.375.wav,None,"[1.14214599999832, 1.3027287000149954, 1.686713700008113, 1.8183522000035737]",,,,,,,,,301929,001,2023-06-21_11h38.59.143,REPSWITCH_1,2022.2.5,60.00283214127184,
REPSWITCH1/PICTURE_517.png,cuerda,speak,yellow,repeat,2,T,2,Stim6_Set2,0,40,40,40,,,211.66815909999423,212.1680323999899,,,,,207.4857878999901,208.67060019998462,208.67060019998462,208.67060019998462,208.67060019998462,208.67060019998462,208.67060019998462,208.67060019998462,0.0032842000073287636,2.0008852000173647,None,0,,D:\GitHub\experiment1\data/301929_REPSWITCH_1_2023-06-21_11h38.59.143_micResp_recorded\recording_micResp_2023-06-21_11h42.26.057.wav,None,,,,,,,,,,301929,001,2023-06-21_11h38.59.143,REPSWITCH_1,2022.2.5,60.00283214127184,
REPSWITCH1/PICTURE_235.png,aguja,type,indigo,filler,1,F,2,Stim6_Set1,0,41,41,41,,,216.41741979998187,216.9172583000036,,,,,212.1680323999899,213.419527799997,213.419527799997,213.419527799997,213.419527799997,213.419527799997,213.419527799997,213.419527799997,0.0033644000068306923,2.0006430000066757,"['a', 'g', 'u', 'j', 'a']",0,aguja,D:\GitHub\experiment1\data/301929_REPSWITCH_1_2023-06-21_11h38.59.143_micResp_recorded\recording_micResp_2023-06-21_11h42.30.806.wav,None,"[0.9971121000126004, 1.1798289000289515, 1.3532306000124663, 1.5457309000194073, 1.6025977000244893]",,,,,,,,,301929,001,2023-06-21_11h38.59.143,REPSWITCH_1,2022.2.5,60.00283214127184,
REPSWITCH1/PICTURE_610.png,miel,speak,yellow,nontarget,2,NT,2,Stim7_Set2,0,42,42,42,,,221.01605789997848,221.5159827999887,,,,,216.9172583000036,218.02836639998714,218.02836639998714,218.02836639998714,218.02836639998714,218.02836639998714,218.02836639998714,218.02836639998714,0.017550499993376434,2.017230900004506,None,0,,D:\GitHub\experiment1\data/301929_REPSWITCH_1_2023-06-21_11h38.59.143_micResp_recorded\recording_micResp_2023-06-21_11h42.35.405.wav,None,,,,,,,,,,301929,001,2023-06-21_11h38.59.143,REPSWITCH_1,2022.2.5,60.00283214127184,
REPSWITCH1/PICTURE_610.png,miel,speak,yellow,repeat,2,T,2,Stim7_Set2,0,43,43,43,,,225.54814440000337,226.04828649997944,,,,,221.5159827999887,222.55102379998425,222.55102379998425,222.55102379998425,222.55102379998425,222.55102379998425,222.55102379998425,222.55102379998425,0.002669000008609146,2.0009935999987647,None,0,,D:\GitHub\experiment1\data/301929_REPSWITCH_1_2023-06-21_11h38.59.143_micResp_recorded\recording_micResp_2023-06-21_11h42.39.937.wav,None,,,,,,,,,,301929,001,2023-06-21_11h38.59.143,REPSWITCH_1,2022.2.5,60.00283214127184,
REPSWITCH1/PICTURE_264.png,mano,speak,yellow,filler,2,F,2,Stim7_Set1,0,44,44,44,,,230.11387119998108,230.6138454999891,,,,,226.04828649997944,227.11649960000068,227.11649960000068,227.11649960000068,227.11649960000068,227.11649960000068,227.11649960000068,227.11649960000068,0.004119300021557137,2.000463700009277,None,0,,D:\GitHub\experiment1\data/301929_REPSWITCH_1_2023-06-21_11h38.59.143_micResp_recorded\recording_micResp_2023-06-21_11h42.44.503.wav,None,,,,,,,,,,301929,001,2023-06-21_11h38.59.143,REPSWITCH_1,2022.2.5,60.00283214127184,
REPSWITCH1/PICTURE_271.png,conejo,type,indigo,filler,1,F,2,Stim8_Set1,0,45,45,45,,,234.79597399997874,235.29608599998755,,,,,230.6138454999891,231.7986927999882,231.7986927999882,231.7986927999882,231.7986927999882,231.7986927999882,231.7986927999882,231.7986927999882,0.004689599998528138,2.0006996000010986,"['c', 'o', 'n', 'e', 'j', 'o']",0,conejo,D:\GitHub\experiment1\data/301929_REPSWITCH_1_2023-06-21_11h38.59.143_micResp_recorded\recording_micResp_2023-06-21_11h42.49.185.wav,None,"[1.0555240000248887, 1.1751541999983601, 1.3657634000119288, 1.4734959000197705, 1.6130040000134613, 1.696231900015846]",,,,,,,,,301929,001,2023-06-21_11h38.59.143,REPSWITCH_1,2022.2.5,60.00283214127184,
REPSWITCH1/PICTURE_35.png,oreja,speak,yellow,nontarget,2,NT,2,Stim8_Set2,0,46,46,46,,,239.56180619998486,240.0615134999971,,,,,235.29608599998755,236.57032349999645,236.57032349999645,236.57032349999645,236.57032349999645,236.57032349999645,236.57032349999645,236.57032349999645,0.014524999976856634,2.0173276999848895,None,0,,D:\GitHub\experiment1\data/301929_REPSWITCH_1_2023-06-21_11h38.59.143_micResp_recorded\recording_micResp_2023-06-21_11h42.53.951.wav,None,,,,,,,,,,301929,001,2023-06-21_11h38.59.143,REPSWITCH_1,2022.2.5,60.00283214127184,
REPSWITCH1/PICTURE_35.png,oreja,type,indigo,switch,1,T,2,Stim8_Set2,0,47,47,47,,,244.24365960000432,244.743802699988,,,,,240.0615134999971,241.24616690000403,241.24616690000403,241.24616690000403,241.24616690000403,241.24616690000403,241.24616690000403,241.24616690000403,0.002753600012511015,2.0008796000038274,"['o', 'r', 'e', 'j', 'a']",0,oreja,D:\GitHub\experiment1\data/301929_REPSWITCH_1_2023-06-21_11h38.59.143_micResp_recorded\recording_micResp_2023-06-21_11h42.58.633.wav,None,"[1.2330895999912173, 1.373254000005545, 1.4925686999922618, 1.6763067000138108, 1.7754941000021063]",,,,,,,,,301929,001,2023-06-21_11h38.59.143,REPSWITCH_1,2022.2.5,60.00283214127184,
REPSWITCH1/PICTURE_178.png,puente,type,indigo,nontarget,1,NT,3,Stim1_Set3,0,48,48,48,,,248.8105080999958,,,,,,244.743802699988,245.81470299998182,245.81470299998182,245.81470299998182,245.81470299998182,245.81470299998182,245.81470299998182,245.81470299998182,0.011885899992194027,2.017148200015072,"['p', 'u', 'e', 'n', 't', 'e']",0,puente,D:\GitHub\experiment1\data/301929_REPSWITCH_1_2023-06-21_11h38.59.143_micResp_recorded\recording_micResp_2023-06-21_11h43.03.199.wav,None,"[0.9841102999926079, 1.05759909999324, 1.16575849999208, 1.289234599971678, 1.375, 1.4578529999998864]",,,,,,,,,301929,001,2023-06-21_11h38.59.143,REPSWITCH_1,2022.2.5,60.00283214127184,
REPSWITCH1/PICTURE_178.png,puente,speak,yellow,switch,2,T,3,Stim1_Set3,0,49,49,49,,,253.44141359999776,253.9420015999931,,,,,249.32594690000406,250.44419079998625,250.44419079998625,250.44419079998625,250.44419079998625,250.44419079998625,250.44419079998625,250.44419079998625,0.0036118999996688217,2.0005158999993,None,0,,D:\GitHub\experiment1\data/301929_REPSWITCH_1_2023-06-21_11h38.59.143_micResp_recorded\recording_micResp_2023-06-21_11h43.07.831.wav,None,,,,,,,,,,301929,001,2023-06-21_11h38.59.143,REPSWITCH_1,2022.2.5,60.00283214127184,
REPSWITCH1/PICTURE_242.png,cartero,speak,yellow,nontarget,2,NT,3,Stim2_Set3,0,50,50,50,,,258.0408342999872,258.5404928000062,,,,,253.9420015999931,255.0468252999999,255.0468252999999,255.0468252999999,255.0468252999999,255.0468252999999,255.0468252999999,255.0468252999999,0.012883599993074313,2.0170838000194635,None,0,,D:\GitHub\experiment1\data/301929_REPSWITCH_1_2023-06-21_11h38.59.143_micResp_recorded\recording_micResp_2023-06-21_11h43.12.430.wav,None,,,,,,,,,,301929,001,2023-06-21_11h38.59.143,REPSWITCH_1,2022.2.5,60.00283214127184,
REPSWITCH1/PICTURE_242.png,cartero,type,indigo,switch,1,T,3,Stim2_Set3,0,51,51,51,,,262.7391598999966,263.23959620000096,,,,,258.5404928000062,259.74179899998126,259.74179899998126,259.74179899998126,259.74179899998126,259.74179899998126,259.74179899998126,259.74179899998126,0.0048614999977871776,2.000380299985409,"['c', 'a', 'r', 't', 'e', 'r', 'o']",0,cartero,D:\GitHub\experiment1\data/301929_REPSWITCH_1_2023-06-21_11h38.59.143_micResp_recorded\recording_micResp_2023-06-21_11h43.17.128.wav,None,"[0.669951999996556, 0.7665971000096761, 0.9057674999930896, 1.0683878000127152, 1.122275500005344, 1.2249225999985356, 1.3484098000044469]",,,,,,,,,301929,001,2023-06-21_11h38.59.143,REPSWITCH_1,2022.2.5,60.00283214127184,
REPSWITCH1/PICTURE_16.png,cazador,type,indigo,filler,1,F,3,Stim1_Set2,0,52,52,52,,,267.3883851999999,267.8882139000052,,,,,263.23959620000096,264.39111619998585,264.39111619998585,264.39111619998585,264.39111619998585,264.39111619998585,264.39111619998585,264.39111619998585,0.0027264000091236085,2.0009049999935087,"['c', 'a', 's', 'backspace', 'z', 'a', 'd', 'o', 'r']",0,cazador,D:\GitHub\experiment1\data/301929_REPSWITCH_1_2023-06-21_11h38.59.143_micResp_recorded\recording_micResp_2023-06-21_11h43.21.777.wav,None,"[1.0970211999956518, 1.1583283999934793, 1.3462773000064772, 1.8175450999988243, 1.9401201999862678, 2.127720999997109, 2.3004346000088844, 2.453118799981894, 2.5383342999848537]",,,,,,,,,301929,001,2023-06-21_11h38.59.143,REPSWITCH_1,2022.2.5,60.00283214127184,
REPSWITCH1/PICTURE_48.png,bombero,type,indigo,nontarget,1,NT,3,Stim3_Set3,0,53,53,53,,,272.053703099984,272.55400559998816,,,,,267.8882139000052,269.06804230000125,269.06804230000125,269.06804230000125,269.06804230000125,269.06804230000125,269.06804230000125,269.06804230000125,0.017852599994512275,2.0171604999923147,"['b', 'o', 'm', 'b', 'e', 'r', 'o']",0,bombero,D:\GitHub\experiment1\data/301929_REPSWITCH_1_2023-06-21_11h38.59.143_micResp_recorded\recording_micResp_2023-06-21_11h43.26.443.wav,None,"[1.1834401000232901, 1.3328426000080071, 1.5613161000073887, 1.7720887000032235, 1.876505400025053, 1.922421100025531, 2.0611221000144724]",,,,,,,,,301929,001,2023-06-21_11h38.59.143,REPSWITCH_1,2022.2.5,60.00283214127184,
REPSWITCH1/PICTURE_48.png,bombero,speak,yellow,switch,2,T,3,Stim3_Set3,0,54,54,54,,,276.75244969999767,277.25261639998644,,,,,272.55400559998816,273.755178899999,273.755178899999,273.755178899999,273.755178899999,273.755178899999,273.755178899999,273.755178899999,0.004228799982229248,2.0005386999982875,None,0,,D:\GitHub\experiment1\data/301929_REPSWITCH_1_2023-06-21_11h38.59.143_micResp_recorded\recording_micResp_2023-06-21_11h43.31.142.wav,None,,,,,,,,,,301929,001,2023-06-21_11h38.59.143,REPSWITCH_1,2022.2.5,60.00283214127184,
REPSWITCH1/PICTURE_175.png,pintor,type,indigo,filler,1,F,3,Stim2_Set2,0,55,55,55,,,281.3680691999907,281.8681501999963,,,,,277.25261639998644,278.3708830999967,278.3708830999967,278.3708830999967,278.3708830999967,278.3708830999967,278.3708830999967,278.3708830999967,0.0027036999817937613,2.0010323000024073,"['p', 'i', 'n', 't', 'o', 'r']",0,pintor,D:\GitHub\experiment1\data/301929_REPSWITCH_1_2023-06-21_11h38.59.143_micResp_recorded\recording_micResp_2023-06-21_11h43.35.757.wav,None,"[1.143962999980431, 1.2568513999867719, 1.36369410000043, 1.4267668999964371, 1.5444505999912508, 1.6050904000003356]",,,,,,,,,301929,001,2023-06-21_11h38.59.143,REPSWITCH_1,2022.2.5,60.00283214127184,
REPSWITCH1/PICTURE_728.png,pulpo,speak,yellow,nontarget,2,NT,3,Stim4_Set3,0,56,56,56,,,286.01702119997935,286.5170155999949,,,,,281.8681501999963,283.0229267999821,283.0229267999821,283.0229267999821,283.0229267999821,283.0229267999821,283.0229267999821,283.0229267999821,0.012870000005932525,2.0174618999881204,None,0,,D:\GitHub\experiment1\data/301929_REPSWITCH_1_2023-06-21_11h38.59.143_micResp_recorded\recording_micResp_2023-06-21_11h43.40.406.wav,None,,,,,,,,,,301929,001,2023-06-21_11h38.59.143,REPSWITCH_1,2022.2.5,60.00283214127184,
REPSWITCH1/PICTURE_728.png,pulpo,speak,yellow,repeat,2,T,3,Stim4_Set3,0,57,57,57,,,290.732515199983,291.2324254999985,,,,,286.5170155999949,287.73524499998894,287.73524499998894,287.73524499998894,287.73524499998894,287.73524499998894,287.73524499998894,287.73524499998894,0.004284299997380003,2.0002846000134014,None,0,,D:\GitHub\experiment1\data/301929_REPSWITCH_1_2023-06-21_11h38.59.143_micResp_recorded\recording_micResp_2023-06-21_11h43.45.121.wav,None,,,,,,,,,,301929,001,2023-06-21_11h38.59.143,REPSWITCH_1,2022.2.5,60.00283214127184,
REPSWITCH1/PICTURE_30.png,granja,speak,yellow,filler,2,F,3,Stim3_Set2,0,58,58,58,,,295.3646392999799,295.86487309998483,,,,,291.2324254999985,292.36741039998014,292.36741039998014,292.36741039998014,292.36741039998014,292.36741039998014,292.36741039998014,292.36741039998014,0.006300500012002885,2.0005490999901667,None,0,,D:\GitHub\experiment1\data/301929_REPSWITCH_1_2023-06-21_11h38.59.143_micResp_recorded\recording_micResp_2023-06-21_11h43.49.754.wav,None,,,,,,,,,,301929,001,2023-06-21_11h38.59.143,REPSWITCH_1,2022.2.5,60.00283214127184,
REPSWITCH1/PICTURE_319.png,vaca,type,indigo,filler,1,F,3,Stim4_Set2,0,59,59,59,,,299.99702999999863,300.49710290000075,,,,,295.86487309998483,296.999750899995,296.999750899995,296.999750899995,296.999750899995,296.999750899995,296.999750899995,296.999750899995,0.006637200014665723,2.000365000014426,"['v', 'a', 'c', 'a']",0,vaca,D:\GitHub\experiment1\data/301929_REPSWITCH_1_2023-06-21_11h38.59.143_micResp_recorded\recording_micResp_2023-06-21_11h43.54.386.wav,None,"[0.9122352999984287, 1.0538800000213087, 1.1852695000125095, 1.3120933000172954]",,,,,,,,,301929,001,2023-06-21_11h38.59.143,REPSWITCH_1,2022.2.5,60.00283214127184,
REPSWITCH1/PICTURE_320.png,iglesia,type,indigo,filler,1,F,3,Stim5_Set2,0,60,60,60,,,304.6624371999933,305.16258919998654,,,,,300.49710290000075,301.6649623999838,301.6649623999838,301.6649623999838,301.6649623999838,301.6649623999838,301.6649623999838,301.6649623999838,0.0030226000235415995,2.000900700018974,"['i', 'g', 'l', 'e', 's', 'i', 'a']",0,iglesia,D:\GitHub\experiment1\data/301929_REPSWITCH_1_2023-06-21_11h38.59.143_micResp_recorded\recording_micResp_2023-06-21_11h43.59.052.wav,None,"[0.8592635999957565, 0.998363499995321, 1.3234919999958947, 1.4130832999944687, 1.613845499989111, 1.7427096999890637, 1.889764199993806]",,,,,,,,,301929,001,2023-06-21_11h38.59.143,REPSWITCH_1,2022.2.5,60.00283214127184,
REPSWITCH1/PICTURE_552.png,manzana,speak,yellow,nontarget,2,NT,3,Stim5_Set3,0,61,61,61,,,309.29498819998116,309.7948030999978,,,,,305.16258919998654,306.30740560000413,306.30740560000413,306.30740560000413,306.30740560000413,306.30740560000413,306.30740560000413,306.30740560000413,0.016550700005609542,2.0171608999953605,None,0,,D:\GitHub\experiment1\data/301929_REPSWITCH_1_2023-06-21_11h38.59.143_micResp_recorded\recording_micResp_2023-06-21_11h44.03.684.wav,None,,,,,,,,,,301929,001,2023-06-21_11h38.59.143,REPSWITCH_1,2022.2.5,60.00283214127184,
REPSWITCH1/PICTURE_552.png,manzana,speak,yellow,repeat,2,T,3,Stim5_Set3,0,62,62,62,,,313.9271315999795,314.42700389999663,,,,,309.7948030999978,310.92972260000533,310.92972260000533,310.92972260000533,310.92972260000533,310.92972260000533,310.92972260000533,310.92972260000533,0.003355399996507913,2.000700600008713,None,0,,D:\GitHub\experiment1\data/301929_REPSWITCH_1_2023-06-21_11h38.59.143_micResp_recorded\recording_micResp_2023-06-21_11h44.08.316.wav,None,,,,,,,,,,301929,001,2023-06-21_11h38.59.143,REPSWITCH_1,2022.2.5,60.00283214127184,
REPSWITCH1/PICTURE_576.png,guante,speak,yellow,nontarget,2,NT,3,Stim6_Set3,0,63,63,63,,,318.6761276999896,319.17588299998897,,,,,314.42700389999663,315.6846527000016,315.6846527000016,315.6846527000016,315.6846527000016,315.6846527000016,315.6846527000016,315.6846527000016,0.01471519999904558,2.0172466000076383,None,0,,D:\GitHub\experiment1\data/301929_REPSWITCH_1_2023-06-21_11h38.59.143_micResp_recorded\recording_micResp_2023-06-21_11h44.13.065.wav,None,,,,,,,,,,301929,001,2023-06-21_11h38.59.143,REPSWITCH_1,2022.2.5,60.00283214127184,
REPSWITCH1/PICTURE_576.png,guante,type,indigo,switch,1,T,3,Stim6_Set3,0,64,64,64,,,323.2913142000034,323.79139319999376,,,,,319.17588299998897,320.2939936000039,320.2939936000039,320.2939936000039,320.2939936000039,320.2939936000039,320.2939936000039,320.2939936000039,0.00352769999881275,2.0011412000167184,"['g', 'u', 'a', 'n', 't', 'e']",0,guante,D:\GitHub\experiment1\data/301929_REPSWITCH_1_2023-06-21_11h38.59.143_micResp_recorded\recording_micResp_2023-06-21_11h44.17.680.wav,None,"[0.8065764999773819, 0.9413987000007182, 1.023558899993077, 1.1530757999862544, 1.2227028999768663, 1.3092495999881066]",,,,,,,,,301929,001,2023-06-21_11h38.59.143,REPSWITCH_1,2022.2.5,60.00283214127184,
REPSWITCH1/PICTURE_517.png,cuerda,speak,yellow,filler,2,F,3,Stim6_Set2,0,65,65,65,,,328.0091133999813,,,,,,323.79139319999376,325.00951249999343,325.00951249999343,325.00951249999343,325.00951249999343,325.00951249999343,325.00951249999343,325.00951249999343,0.004541499976767227,2.000660699995933,None,0,,D:\GitHub\experiment1\data/301929_REPSWITCH_1_2023-06-21_11h38.59.143_micResp_recorded\recording_micResp_2023-06-21_11h44.22.396.wav,None,,,,,,,,,,301929,001,2023-06-21_11h38.59.143,REPSWITCH_1,2022.2.5,60.00283214127184,
REPSWITCH1/PICTURE_687.png,camisa,type,indigo,nontarget,1,NT,3,Stim7_Set3,0,66,66,66,,,332.8389942999929,333.33907210000325,,,,,328.52375399999437,329.8468037999992,329.8468037999992,329.8468037999992,329.8468037999992,329.8468037999992,329.8468037999992,329.8468037999992,0.013849499984644353,2.01737739998498,"['c', 'a', 'm', 'i', 's', 'a']",0,camisa,D:\GitHub\experiment1\data/301929_REPSWITCH_1_2023-06-21_11h38.59.143_micResp_recorded\recording_micResp_2023-06-21_11h44.27.228.wav,None,"[1.0588027000194415, 1.1617558000143617, 1.3012641000095755, 1.3997449000016786, 1.4689912000030745, 1.5478530000254977]",,,,,,,,,301929,001,2023-06-21_11h38.59.143,REPSWITCH_1,2022.2.5,60.00283214127184,
REPSWITCH1/PICTURE_687.png,camisa,type,indigo,repeat,1,T,3,Stim7_Set3,0,67,67,67,,,337.4879071000032,337.9880731999874,,,,,333.33907210000325,334.4905058000004,334.4905058000004,334.4905058000004,334.4905058000004,334.4905058000004,334.4905058000004,334.4905058000004,0.0032322999904863536,2.000383000005968,"['c', 'a', 'm', 'i', 's', 'a']",0,camisa,D:\GitHub\experiment1\data/301929_REPSWITCH_1_2023-06-21_11h38.59.143_micResp_recorded\recording_micResp_2023-06-21_11h44.31.877.wav,None,"[0.98262519997661, 1.065919299988309, 1.2052874999935739, 1.3042653999873437, 1.3679238999902736, 1.441472199978307]",,,,,,,,,301929,001,2023-06-21_11h38.59.143,REPSWITCH_1,2022.2.5,60.00283214127184,
REPSWITCH1/PICTURE_610.png,miel,speak,yellow,filler,2,F,3,Stim7_Set2,0,68,68,68,,,342.38668319999124,342.88676359999226,,,,,337.9880731999874,339.3893571999797,339.3893571999797,339.3893571999797,339.3893571999797,339.3893571999797,339.3893571999797,339.3893571999797,0.0034263999841641635,2.0004694999952335,None,0,,D:\GitHub\experiment1\data/301929_REPSWITCH_1_2023-06-21_11h38.59.143_micResp_recorded\recording_micResp_2023-06-21_11h44.36.776.wav,None,,,,,,,,,,301929,001,2023-06-21_11h38.59.143,REPSWITCH_1,2022.2.5,60.00283214127184,
REPSWITCH1/PICTURE_35.png,oreja,speak,yellow,filler,2,F,3,Stim8_Set2,0,69,69,69,,,347.0401218000043,,,,,,342.88676359999226,344.0380702999828,344.0380702999828,344.0380702999828,344.0380702999828,344.0380702999828,344.0380702999828,344.0380702999828,0.003580599994165823,2.0004283000016585,None,0,,D:\GitHub\experiment1\data/301929_REPSWITCH_1_2023-06-21_11h38.59.143_micResp_recorded\recording_micResp_2023-06-21_11h44.41.425.wav,None,,,,,,,,,,301929,001,2023-06-21_11h38.59.143,REPSWITCH_1,2022.2.5,60.00283214127184,
REPSWITCH1/PICTURE_719.png,baño,type,indigo,nontarget,1,NT,3,Stim8_Set3,0,70,70,70,,,351.8018528999819,352.301238199987,,,,,347.5522424999799,348.8110441000026,348.8110441000026,348.8110441000026,348.8110441000026,348.8110441000026,348.8110441000026,348.8110441000026,0.016153600008692592,2.0173162999853957,"['b', 'a', 'n', 'o']",0,bano,D:\GitHub\experiment1\data/301929_REPSWITCH_1_2023-06-21_11h38.59.143_micResp_recorded\recording_micResp_2023-06-21_11h44.46.190.wav,None,"[1.0679052000050433, 1.163955600000918, 2.1437630000000354, 2.250685600010911]",,,,,,,,,301929,001,2023-06-21_11h38.59.143,REPSWITCH_1,2022.2.5,60.00283214127184,
REPSWITCH1/PICTURE_719.png,baño,type,indigo,repeat,1,T,3,Stim8_Set3,0,71,71,71,,,356.416914899979,356.916879700002,,,,,352.301238199987,353.41913470000145,353.41913470000145,353.41913470000145,353.41913470000145,353.41913470000145,353.41913470000145,353.41913470000145,0.003986000025179237,2.000601400010055,"['b', 'a', 'n', 'o']",0,bano,D:\GitHub\experiment1\data/301929_REPSWITCH_1_2023-06-21_11h38.59.143_micResp_recorded\recording_micResp_2023-06-21_11h44.50.806.wav,None,"[0.8176692000124604, 0.9040928000176791, 1.030226600007154, 1.1024293999944348]",,,,,,,,,301929,001,2023-06-21_11h38.59.143,REPSWITCH_1,2022.2.5,60.00283214127184,
REPSWITCH1/PICTURE_178.png,puente,speak,yellow,filler,2,F,4,Stim1_Set3,0,72,72,72,,,361.09912649999023,361.59902920000604,,,,,356.916879700002,358.1015862999775,358.1015862999775,358.1015862999775,358.1015862999775,358.1015862999775,358.1015862999775,358.1015862999775,0.005506499990588054,2.0004365000058897,None,0,,D:\GitHub\experiment1\data/301929_REPSWITCH_1_2023-06-21_11h38.59.143_micResp_recorded\recording_micResp_2023-06-21_11h44.55.488.wav,None,,,,,,,,,,301929,001,2023-06-21_11h38.59.143,REPSWITCH_1,2022.2.5,60.00283214127184,
REPSWITCH1/PICTURE_135.png,traje,type,indigo,nontarget,1,NT,4,Stim1_Set4,0,73,73,73,,,365.6644140999997,366.1644277999876,,,,,361.59902920000604,362.66709329999867,362.66709329999867,362.66709329999867,362.66709329999867,362.66709329999867,362.66709329999867,362.66709329999867,0.0031250000174622983,2.0006471000087913,"['t', 'r', 'a', 'j', 'e']",0,traje,D:\GitHub\experiment1\data/301929_REPSWITCH_1_2023-06-21_11h38.59.143_micResp_recorded\recording_micResp_2023-06-21_11h45.00.053.wav,None,"[0.9228445999906398, 1.0845132999820635, 1.145334200002253, 1.2709779999859165, 1.3274204999906942]",,,,,,,,,301929,001,2023-06-21_11h38.59.143,REPSWITCH_1,2022.2.5,60.00283214127184,
REPSWITCH1/PICTURE_135.png,traje,type,indigo,repeat,1,T,4,Stim1_Set4,0,74,74,74,,,370.2635886000062,370.7633232999942,,,,,366.1644277999876,367.26608309999574,367.26608309999574,367.26608309999574,367.26608309999574,367.26608309999574,367.26608309999574,367.26608309999574,0.004222999996272847,2.0006101000180934,"['t', 'r', 'a', 'j', 'e']",0,traje,D:\GitHub\experiment1\data/301929_REPSWITCH_1_2023-06-21_11h38.59.143_micResp_recorded\recording_micResp_2023-06-21_11h45.04.653.wav,None,"[0.6675810000160709, 0.8458927000174299, 0.9026202000095509, 1.036435200017877, 1.1068073000060394]",,,,,,,,,301929,001,2023-06-21_11h38.59.143,REPSWITCH_1,2022.2.5,60.00283214127184,
REPSWITCH1/PICTURE_464.png,goma,type,indigo,nontarget,1,NT,4,Stim2_Set4,0,75,75,75,,,374.9625102999853,375.4624666000018,,,,,370.7633232999942,371.96489719999954,371.96489719999954,371.96489719999954,371.96489719999954,371.96489719999954,371.96489719999954,371.96489719999954,0.003553800022928044,2.0004347000212874,"['g', 'o', 'm', 'a']",0,goma,D:\GitHub\experiment1\data/301929_REPSWITCH_1_2023-06-21_11h38.59.143_micResp_recorded\recording_micResp_2023-06-21_11h45.09.352.wav,None,"[0.9092608000210021, 1.0097825000120793, 1.1744839000166394, 1.2072080000070855]",,,,,,,,,301929,001,2023-06-21_11h38.59.143,REPSWITCH_1,2022.2.5,60.00283214127184,
REPSWITCH1/PICTURE_464.png,goma,speak,yellow,switch,2,T,4,Stim2_Set4,0,76,76,76,,,379.4946132999903,379.9944828999869,,,,,375.4624666000018,376.4971311999834,376.4971311999834,376.4971311999834,376.4971311999834,376.4971311999834,376.4971311999834,376.4971311999834,0.003708699980052188,2.0006391999777406,None,0,,D:\GitHub\experiment1\data/301929_REPSWITCH_1_2023-06-21_11h38.59.143_micResp_recorded\recording_micResp_2023-06-21_11h45.13.884.wav,None,,,,,,,,,,301929,001,2023-06-21_11h38.59.143,REPSWITCH_1,2022.2.5,60.00283214127184,
REPSWITCH1/PICTURE_242.png,cartero,type,indigo,filler,1,F,4,Stim2_Set3,0,77,77,77,,,384.0602850999858,384.56008339999244,,,,,379.9944828999869,381.0627625999914,381.0627625999914,381.0627625999914,381.0627625999914,381.0627625999914,381.0627625999914,381.0627625999914,0.0033306000113952905,2.00049870001385,"['c', 'a', 'r', 't', 'e', 'r', 'o']",0,cartero,D:\GitHub\experiment1\data/301929_REPSWITCH_1_2023-06-21_11h38.59.143_micResp_recorded\recording_micResp_2023-06-21_11h45.18.449.wav,None,"[1.317386099981377, 1.4732877999776974, 1.6149496999860276, 1.7814452999737114, 1.8511177999898791, 1.96014149999246, 2.05714910000097]",,,,,,,,,301929,001,2023-06-21_11h38.59.143,REPSWITCH_1,2022.2.5,60.00283214127184,
REPSWITCH1/PICTURE_48.png,bombero,type,indigo,filler,1,F,4,Stim3_Set3,0,78,78,78,,,388.6258915999788,389.12544929998694,,,,,384.56008339999244,385.62885179999284,385.62885179999284,385.62885179999284,385.62885179999284,385.62885179999284,385.62885179999284,385.62885179999284,0.007390100014163181,2.0171258999907877,"['b', 'o', 'm', 'b', 'e', 'r', 'o']",0,bombero,D:\GitHub\experiment1\data/301929_REPSWITCH_1_2023-06-21_11h38.59.143_micResp_recorded\recording_micResp_2023-06-21_11h45.23.014.wav,None,"[1.3039127000083681, 1.4934427000116557, 1.5581973000080325, 1.8100670000130776, 1.9151865000021644, 1.981680500000948, 2.0978274999943096]",,,,,,,,,301929,001,2023-06-21_11h38.59.143,REPSWITCH_1,2022.2.5,60.00283214127184,
REPSWITCH1/PICTURE_381.png,fresa,speak,yellow,nontarget,2,NT,4,Stim3_Set4,0,79,79,79,,,393.35812550000264,393.8579772999801,,,,,389.12544929998694,390.3605757000041,390.3605757000041,390.3605757000041,390.3605757000041,390.3605757000041,390.3605757000041,390.3605757000041,0.0039988000062294304,2.000720900017768,None,0,,D:\GitHub\experiment1\data/301929_REPSWITCH_1_2023-06-21_11h38.59.143_micResp_recorded\recording_micResp_2023-06-21_11h45.27.747.wav,None,,,,,,,,,,301929,001,2023-06-21_11h38.59.143,REPSWITCH_1,2022.2.5,60.00283214127184,
REPSWITCH1/PICTURE_381.png,fresa,speak,yellow,repeat,2,T,4,Stim3_Set4,0,80,80,80,,,398.00664340000367,398.50683850000496,,,,,393.8579772999801,395.0095339999825,395.0095339999825,395.0095339999825,395.0095339999825,395.0095339999825,395.0095339999825,395.0095339999825,0.002892000018619001,2.0003379000118002,None,0,,D:\GitHub\experiment1\data/301929_REPSWITCH_1_2023-06-21_11h38.59.143_micResp_recorded\recording_micResp_2023-06-21_11h45.32.396.wav,None,,398.00664340000367,398.00664340000367,398.00664340000367,398.00664340000367,398.00664340000367,398.00664340000367,,,301929,001,2023-06-21_11h38.59.143,REPSWITCH_1,2022.2.5,60.00283214127184,
REPSWITCH1/PICTURE_546.png,puerta,speak,yellow,nontarget,2,NT,4,Stim4_Set4,0,81,81,81,,,402.65551169999526,403.1556968999794,,,,,398.50683850000496,399.65849529998377,399.65849529998377,399.65849529998377,399.65849529998377,399.65849529998377,399.65849529998377,399.65849529998377,0.0022536000178661197,2.000603799999226,None,0,,D:\GitHub\experiment1\data/301929_REPSWITCH_1_2023-06-21_11h38.59.143_micResp_recorded\recording_micResp_2023-06-21_11h45.37.045.wav,None,,,,,,,,,,301929,001,2023-06-21_11h38.59.143,REPSWITCH_1,2022.2.5,60.00283214127184,
REPSWITCH1/PICTURE_546.png,puerta,type,indigo,switch,1,T,4,Stim4_Set4,0,82,82,82,,,407.3710660999932,407.87135339999804,,,,,403.1556968999794,404.3737971999799,404.3737971999799,404.3737971999799,404.3737971999799,404.3737971999799,404.3737971999799,404.3737971999799,0.0030060999852139503,2.000385399995139,"['p', 'u', 'e', 'r', 't', 'a']",0,puerta,D:\GitHub\experiment1\data/301929_REPSWITCH_1_2023-06-21_11h38.59.143_micResp_recorded\recording_micResp_2023-06-21_11h45.41.760.wav,None,"[0.9320412000233773, 1.0476724000182003, 1.1073307000042405, 1.1681705000228249, 1.3740429000172298, 1.4533385000249837]",,,,,,,,,301929,001,2023-06-21_11h38.59.143,REPSWITCH_1,2022.2.5,60.00283214127184,
REPSWITCH1/PICTURE_728.png,pulpo,speak,yellow,filler,2,F,4,Stim4_Set3,0,83,83,83,,,412.15409239998553,,,,,,407.87135339999804,409.14805889999843,409.14805889999843,409.14805889999843,409.14805889999843,409.14805889999843,409.14805889999843,409.14805889999843,0.008063800021773204,2.0161283000197727,None,0,,D:\GitHub\experiment1\data/301929_REPSWITCH_1_2023-06-21_11h38.59.143_micResp_recorded\recording_micResp_2023-06-21_11h45.46.542.wav,None,,,,,,,,,,301929,001,2023-06-21_11h38.59.143,REPSWITCH_1,2022.2.5,60.00283214127184,
REPSWITCH1/PICTURE_636.png,oveja,type,indigo,nontarget,1,NT,4,Stim5_Set4,0,84,84,84,,,416.78551419998985,417.2858009999909,,,,,412.6535045999917,413.7881890999852,413.7881890999852,413.7881890999852,413.7881890999852,413.7881890999852,413.7881890999852,413.7881890999852,0.0041634000081103295,2.00073080000584,"['o', 'v', 'e', 'j', 'a']",0,oveja,D:\GitHub\experiment1\data/301929_REPSWITCH_1_2023-06-21_11h38.59.143_micResp_recorded\recording_micResp_2023-06-21_11h45.51.175.wav,None,"[1.0572600000014063, 1.1889673999976367, 1.3091578999883495, 1.417891299992334, 1.5165262999944389]",,,,,,,,,301929,001,2023-06-21_11h38.59.143,REPSWITCH_1,2022.2.5,60.00283214127184,
REPSWITCH1/PICTURE_636.png,oveja,speak,yellow,switch,2,T,4,Stim5_Set4,0,85,85,85,,,421.45100689999526,421.95115779998014,,,,,417.2858009999909,418.4538072999858,418.4538072999858,418.4538072999858,418.4538072999858,418.4538072999858,418.4538072999858,418.4538072999858,0.0031043999770190567,2.0009732999897096,None,0,,D:\GitHub\experiment1\data/301929_REPSWITCH_1_2023-06-21_11h38.59.143_micResp_recorded\recording_micResp_2023-06-21_11h45.55.840.wav,None,,,,,,,,,,301929,001,2023-06-21_11h38.59.143,REPSWITCH_1,2022.2.5,60.00283214127184,
REPSWITCH1/PICTURE_545.png,braga,speak,yellow,nontarget,2,NT,4,Stim6_Set4,0,86,86,86,,,426.0165713999886,426.5168186999799,,,,,421.95115779998014,423.01929279998876,423.01929279998876,423.01929279998876,423.01929279998876,423.01929279998876,423.01929279998876,423.01929279998876,0.004638800019165501,2.0006002000009175,None,0,,D:\GitHub\experiment1\data/301929_REPSWITCH_1_2023-06-21_11h38.59.143_micResp_recorded\recording_micResp_2023-06-21_11h46.00.406.wav,None,,,,,,,,,,301929,001,2023-06-21_11h38.59.143,REPSWITCH_1,2022.2.5,60.00283214127184,
REPSWITCH1/PICTURE_545.png,braga,speak,yellow,repeat,2,T,4,Stim6_Set4,0,87,87,87,,,430.6657689999847,431.1655984999961,,,,,426.5168186999799,427.6681714000006,427.6681714000006,427.6681714000006,427.6681714000006,427.6681714000006,427.6681714000006,427.6681714000006,0.005477200000314042,2.000381199992262,None,0,,D:\GitHub\experiment1\data/301929_REPSWITCH_1_2023-06-21_11h38.59.143_micResp_recorded\recording_micResp_2023-06-21_11h46.05.054.wav,None,,,,,,,,,,301929,001,2023-06-21_11h38.59.143,REPSWITCH_1,2022.2.5,60.00283214127184,
REPSWITCH1/PICTURE_552.png,manzana,type,indigo,filler,1,F,4,Stim5_Set3,0,88,88,88,,,435.2142823000031,,,,,,431.1655984999961,432.20047419998446,432.20047419998446,432.20047419998446,432.20047419998446,432.20047419998446,432.20047419998446,432.20047419998446,0.004719799995655194,2.000509699981194,"['m', 'a', 'n', 'z', 'a', 'n', 'a']",0,manzana,D:\GitHub\experiment1\data/301929_REPSWITCH_1_2023-06-21_11h38.59.143_micResp_recorded\recording_micResp_2023-06-21_11h46.09.603.wav,None,"[1.6088282999990042, 1.712045299995225, 1.8378995999810286, 2.041835199983325, 2.258631799981231, 2.3905282999912743, 2.5391229999950156]",,,,,,,,,301929,001,2023-06-21_11h38.59.143,REPSWITCH_1,2022.2.5,60.00283214127184,
REPSWITCH1/PICTURE_576.png,guante,speak,yellow,filler,2,F,4,Stim6_Set3,0,89,89,89,,,439.8476215999981,,,,,,435.71428059999016,436.849195399991,436.849195399991,436.849195399991,436.849195399991,436.849195399991,436.849195399991,436.849195399991,0.0032287999929394573,2.0003326000005472,None,0,,D:\GitHub\experiment1\data/301929_REPSWITCH_1_2023-06-21_11h38.59.143_micResp_recorded\recording_micResp_2023-06-21_11h46.14.236.wav,None,,,,,,,,,,301929,001,2023-06-21_11h38.59.143,REPSWITCH_1,2022.2.5,60.00283214127184,
REPSWITCH1/PICTURE_687.png,camisa,type,indigo,filler,1,F,4,Stim7_Set3,0,90,90,90,,,444.47911029998795,444.97900920000393,,,,,440.36339809998753,441.4815607999917,441.4815607999917,441.4815607999917,441.4815607999917,441.4815607999917,441.4815607999917,441.4815607999917,0.003399600012926385,2.0007342000026256,"['c', 'a', 'm', 'i', 's', 'a']",0,camisa,D:\GitHub\experiment1\data/301929_REPSWITCH_1_2023-06-21_11h38.59.143_micResp_recorded\recording_micResp_2023-06-21_11h46.18.868.wav,None,"[0.956527999980608, 1.045197300001746, 1.121908600005554, 1.2279165999789257, 1.2882378000067547, 1.390799099986907]",,,,,,,,,301929,001,2023-06-21_11h38.59.143,REPSWITCH_1,2022.2.5,60.00283214127184,
REPSWITCH1/PICTURE_8.png,pierna,speak,yellow,nontarget,2,NT,4,Stim7_Set4,0,91,91,91,,,449.1947155999951,,,,,,444.97900920000393,446.1803078999801,446.1803078999801,446.1803078999801,446.1803078999801,446.1803078999801,446.1803078999801,446.1803078999801,0.002679500001249835,2.0005807999987155,None,0,,D:\GitHub\experiment1\data/301929_REPSWITCH_1_2023-06-21_11h38.59.143_micResp_recorded\recording_micResp_2023-06-21_11h46.23.583.wav,None,,,,,,,,,,301929,001,2023-06-21_11h38.59.143,REPSWITCH_1,2022.2.5,60.00283214127184,
REPSWITCH1/PICTURE_8.png,pierna,type,indigo,switch,1,T,4,Stim7_Set4,0,92,92,92,,,453.84325799997896,454.343314800004,,,,,449.69457779999357,450.845753600006,450.845753600006,450.845753600006,450.845753600006,450.845753600006,450.845753600006,450.845753600006,0.0030605999927502126,2.000560599990422,"['p', 'i', 'e', 'r', 'n', 'a']",0,pierna,D:\GitHub\experiment1\data/301929_REPSWITCH_1_2023-06-21_11h38.59.143_micResp_recorded\recording_micResp_2023-06-21_11h46.28.233.wav,None,"[0.9765330000082031, 1.0734117999963928, 1.1501569999963976, 1.2170664000150282, 1.357306099991547, 1.3906964999914635]",,,,,,,,,301929,001,2023-06-21_11h38.59.143,REPSWITCH_1,2022.2.5,60.00283214127184,
REPSWITCH1/PICTURE_719.png,baño,speak,yellow,filler,1,F,4,Stim8_Set3,0,93,93,93,,,458.49269220000133,458.9922733999847,,,,,454.343314800004,455.4949651999923,455.4949651999923,455.4949651999923,455.4949651999923,455.4949651999923,455.4949651999923,455.4949651999923,0.0047913999878801405,2.0005349999992177,None,0,,D:\GitHub\experiment1\data/301929_REPSWITCH_1_2023-06-21_11h38.59.143_micResp_recorded\recording_micResp_2023-06-21_11h46.32.881.wav,None,,,,,,,,,,301929,001,2023-06-21_11h38.59.143,REPSWITCH_1,2022.2.5,60.00283214127184,
REPSWITCH1/PICTURE_91.png,boca,type,indigo,nontarget,1,NT,4,Stim8_Set4,0,94,94,94,,,463.1410094999883,463.6411359999911,,,,,458.9922733999847,460.14374020000105,460.14374020000105,460.14374020000105,460.14374020000105,460.14374020000105,460.14374020000105,460.14374020000105,0.00355740002123639,2.0006604000227526,"['b', 'o', 'c', 'a']",0,boca,D:\GitHub\experiment1\data/301929_REPSWITCH_1_2023-06-21_11h38.59.143_micResp_recorded\recording_micResp_2023-06-21_11h46.37.530.wav,None,"[1.0385667000082321, 1.1929349999991246, 1.2945788000070024, 1.3897746999864466]",,,,,,,,,301929,001,2023-06-21_11h38.59.143,REPSWITCH_1,2022.2.5,60.00283214127184,
,,,,,,,,,,,,,,,467.973313399998,468.4734819000005,,,,,463.6411359999911,464.97591089998605,464.97591089998605,464.97591089998605,464.97591089998605,464.97591089998605,464.97591089998605,464.97591089998605,0.00404629998956807,2.0006448999920394,"['b', 'o', 'c', 'a']",0,boca,D:\GitHub\experiment1\data/301929_REPSWITCH_1_2023-06-21_11h38.59.143_micResp_recorded\recording_micResp_2023-06-21_11h46.42.363.wav,,"[0.8283043999981601, 1.2830319000058807, 1.467404600000009, 1.5584278000169434]",,,,,,,468.4734819000005,468.4734819000005,,,,,,,
