image;correctAns;respModal;frameColor;repSwitch;sequence;target;set;block;list;exp_version;stimulus;baseline;baseline_condition;trial_no;psychopy_trial;Column1;trialsREPSWITCH.thisRepN;trialsREPSWITCH.thisTrialN;trialsREPSWITCH.thisN;trialsREPSWITCH.thisIndex;textWelcome.started;textboxInstrMain1.started;textboxInstrMain1_2.started;textboxInstrMain1_3.started;keyInstrMain.started;keyInstrMain.keys;keyInstrMain.rt;textboxInstrMain2.started;textboxInstrMain2_2.started;textboxInstrMain2_3.started;textboxInstrMain2_4.started;textboxInstrMain2_5.started;textboxInstrMain2_6.started;textboxInstrMain2_7.started;textboxInstrMain2_8.started;textboxInstrMain2_9.started;textboxInstrMain2_10.started;textboxInstrMain2_11.started;textboxInstrMain2_12.started;keyInstrMain2.started;keyInstrMain2.keys;keyInstrMain2.rt;fixationITI.started;fixationITI.stopped;polygonColour.started;polygonWhite.started;imageObject.started;polygonType.started;textInput.started;keyResp.started;micRespv1l4.started;polygonColour.stopped;polygonWhite.stopped;imageObject.stopped;polygonType.stopped;textInput.stopped;keyResp.stopped;keyResp.keys;keyResp.corr;keyResp.rt;subjResponse;micRespv1l4.clip;textBlankLoop.started;textBlankLoop.stopped;keyPause.keys;textboxPause.started;keyPause.started;keyPause.rt;textboxGoodbye.started;textboxGoodbye.stopped;participant;session;date;expName;psychopyVersion;frameRate;Column2
;;;;;;;;;;;;;;;;;;;;;13.8463296;16.3402973;16.3402973;16.3402973;16.3402973;space;4.3516953;;;;;;;;;;;;;;;;;;;;;;;;;;;;;;;;;;;;;;;;;;;;310104;1;2023-12-05_15h16.56.963;REPSWITCH1_version1_list4;2022.2.4;143.8919315;
;;;;;;;;;;;;;;;;;;;;;;;;;;;;20.7089197;20.7089197;20.7089197;20.7089197;20.7089197;20.7089197;20.7089197;20.7089197;20.7089197;20.7089197;20.7089197;20.7089197;20.7089197;space;3.0204885;;;;;;;;;;;;;;;;;;;;;;;;;;;;;310104;1;2023-12-05_15h16.56.963;REPSWITCH1_version1_list4;2022.2.4;143.8919315;
REPSWITCH1/PICTURE_8.png;pierna;type;darkblue;filler;1;F;1;4;4;1;Stim3_Set4;0;None;1;0;1;0;0;0;0;;;;;;;;;;;;;;;;;;;;;;;23.8344124;24.9316725;24.9316725;24.9316725;24.9316725;24.9316725;24.9316725;24.9316725;24.9316725;27.9598542;27.9598542;27.9598542;27.9598542;27.9598542;27.9598542;['p', 'i', 'e', 'r', 'n', 'a'];0;[2.2020554998889565, 2.413690600078553, 2.4804680002853274, 2.535243700258434, 2.666850100271404, 2.761531400028616];pierna;C:\2023\REPSWITCH21092023\REPSWITCH_excgange\REPSWITCH_excgange\data/310104_REPSWITCH1_version1_list4_2023-12-05_15h16.56.963_micRespv1l4_recorded\recording_micRespv1l4_2023-12-05_15h17.12.934.wav;27.9598542;28.4599766;None;;;;;;310104;1;2023-12-05_15h16.56.963;REPSWITCH1_version1_list4;2022.2.4;143.8919315;
REPSWITCH1/PICTURE_498.png;taza;speak;gold;filler;2;F;1;4;4;1;Stim4_Set4;0;None;2;1;2;0;1;1;1;;;;;;;;;;;;;;;;;;;;;;;28.4599766;29.5226293;29.5226293;29.5226293;29.5226293;29.5226293;29.5226293;29.5226293;29.5226293;32.5507349;32.5507349;32.5507349;32.5507349;32.5507349;32.5507349;None;0;;;C:\2023\REPSWITCH21092023\REPSWITCH_excgange\REPSWITCH_excgange\data/310104_REPSWITCH1_version1_list4_2023-12-05_15h16.56.963_micRespv1l4_recorded\recording_micRespv1l4_2023-12-05_15h17.17.523.wav;32.5507349;;None;;;;;;310104;1;2023-12-05_15h16.56.963;REPSWITCH1_version1_list4;2022.2.4;143.8919315;
REPSWITCH1/PICTURE_19.png;pavo;speak;gold;nontarget;2;NT;1;4;4;1;Stim5_Set1;1;repeat;3;2;3;0;2;2;2;;;;;;;;;;;;;;;;;;;;;;;33.0507952;34.1481724;34.1481724;34.1481724;34.1481724;34.1481724;34.1481724;34.1481724;34.1481724;37.1693787;37.1693787;37.1693787;37.1693787;37.1693787;37.1693787;None;0;;;C:\2023\REPSWITCH21092023\REPSWITCH_excgange\REPSWITCH_excgange\data/310104_REPSWITCH1_version1_list4_2023-12-05_15h16.56.963_micRespv1l4_recorded\recording_micRespv1l4_2023-12-05_15h17.22.147.wav;37.1693787;37.6695624;None;;;;;;310104;1;2023-12-05_15h16.56.963;REPSWITCH1_version1_list4;2022.2.4;143.8919315;
REPSWITCH1/PICTURE_19.png;pavo;speak;gold;repeat;2;T;1;4;4;1;Stim5_Set1;0;None;4;3;4;0;3;3;3;;;;;;;;;;;;;;;;;;;;;;;37.6695624;38.7321435;38.7321435;38.7321435;38.7321435;38.7321435;38.7321435;38.7321435;38.7321435;41.7602787;41.7602787;41.7602787;41.7602787;41.7602787;41.7602787;None;0;;;C:\2023\REPSWITCH21092023\REPSWITCH_excgange\REPSWITCH_excgange\data/310104_REPSWITCH1_version1_list4_2023-12-05_15h16.56.963_micRespv1l4_recorded\recording_micRespv1l4_2023-12-05_15h17.26.732.wav;41.7602787;;None;;;;;;310104;1;2023-12-05_15h16.56.963;REPSWITCH1_version1_list4;2022.2.4;143.8919315;
REPSWITCH1/PICTURE_319.png;vaca;type;darkblue;filler;1;F;1;4;4;1;Stim1_Set4;1;repeat;5;4;5;0;4;4;4;;;;;;;;;;;;;;;;;;;;;;;42.2603624;43.3855749;43.3855749;43.3855749;43.3855749;43.3855749;43.3855749;43.3855749;43.3855749;46.406719;46.406719;46.406719;46.406719;46.406719;46.406719;['v', 'a', 'c', 'a'];0;[1.1070427000522614, 1.2658901000395417, 1.3368906998075545, 1.4409122001379728];vaca;C:\2023\REPSWITCH21092023\REPSWITCH_excgange\REPSWITCH_excgange\data/310104_REPSWITCH1_version1_list4_2023-12-05_15h16.56.963_micRespv1l4_recorded\recording_micRespv1l4_2023-12-05_15h17.31.385.wav;46.406719;46.9067759;None;;;;;;310104;1;2023-12-05_15h16.56.963;REPSWITCH1_version1_list4;2022.2.4;143.8919315;
REPSWITCH1/PICTURE_169.png;espalda;speak;gold;nontarget;2;NT;1;4;4;1;Stim8_Set1;1;switch;6;5;6;0;5;5;5;;;;;;;;;;;;;;;;;;;;;;;46.9067759;47.9624958;47.9624958;47.9624958;47.9624958;47.9624958;47.9624958;47.9624958;47.9624958;50.990677;50.990677;50.990677;50.990677;50.990677;50.990677;None;0;;;C:\2023\REPSWITCH21092023\REPSWITCH_excgange\REPSWITCH_excgange\data/310104_REPSWITCH1_version1_list4_2023-12-05_15h16.56.963_micRespv1l4_recorded\recording_micRespv1l4_2023-12-05_15h17.35.962.wav;50.990677;;None;;;;;;310104;1;2023-12-05_15h16.56.963;REPSWITCH1_version1_list4;2022.2.4;143.8919315;
REPSWITCH1/PICTURE_169.png;espalda;speak;gold;repeat;2;T;1;4;4;1;Stim8_Set1;0;None;7;6;7;0;6;6;6;;;;;;;;;;;;;;;;;;;;;;;51.4907148;52.6159632;52.6159632;52.6159632;52.6159632;52.6159632;52.6159632;52.6159632;52.6159632;55.6370837;55.6370837;55.6370837;55.6370837;55.6370837;55.6370837;None;0;;;C:\2023\REPSWITCH21092023\REPSWITCH_excgange\REPSWITCH_excgange\data/310104_REPSWITCH1_version1_list4_2023-12-05_15h16.56.963_micRespv1l4_recorded\recording_micRespv1l4_2023-12-05_15h17.40.616.wav;55.6370837;56.1371779;None;;;;;;310104;1;2023-12-05_15h16.56.963;REPSWITCH1_version1_list4;2022.2.4;143.8919315;
REPSWITCH1/PICTURE_728.png;pulpo;type;darkblue;filler;1;F;1;4;4;1;Stim8_Set4;0;None;8;7;8;0;7;7;7;;;;;;;;;;;;;;;;;;;;;;;56.1371779;57.2553704;57.2553704;57.2553704;57.2553704;57.2553704;57.2553704;57.2553704;57.2553704;60.2835791;60.2835791;60.2835791;60.2835791;60.2835791;60.2835791;['p', 'u', 'l', 'p', 'o'];0;[1.1533479001373053, 1.4822798003442585, 1.681406700052321, 2.01702140038833, 2.1081838002428412];pulpo;C:\2023\REPSWITCH21092023\REPSWITCH_excgange\REPSWITCH_excgange\data/310104_REPSWITCH1_version1_list4_2023-12-05_15h16.56.963_micRespv1l4_recorded\recording_micRespv1l4_2023-12-05_15h17.45.255.wav;60.2835791;;None;;;;;;310104;1;2023-12-05_15h16.56.963;REPSWITCH1_version1_list4;2022.2.4;143.8919315;
REPSWITCH1/PICTURE_142.png;vaso;speak;gold;nontarget;2;NT;1;4;4;1;Stim7_Set1;1;switch;9;8;9;0;8;8;8;;;;;;;;;;;;;;;;;;;;;;;60.7836213;61.9573666;61.9573666;61.9573666;61.9573666;61.9573666;61.9573666;61.9573666;61.9573666;64.9855608;64.9855608;64.9855608;64.9855608;64.9855608;64.9855608;None;0;;;C:\2023\REPSWITCH21092023\REPSWITCH_excgange\REPSWITCH_excgange\data/310104_REPSWITCH1_version1_list4_2023-12-05_15h16.56.963_micRespv1l4_recorded\recording_micRespv1l4_2023-12-05_15h17.49.957.wav;64.9855608;;None;;;;;;310104;1;2023-12-05_15h16.56.963;REPSWITCH1_version1_list4;2022.2.4;143.8919315;
REPSWITCH1/PICTURE_142.png;vaso;type;darkblue;switch;1;T;1;4;4;1;Stim7_Set1;0;None;10;9;10;0;9;9;9;;;;;;;;;;;;;;;;;;;;;;;65.4856331;66.6803092;66.6803092;66.6803092;66.6803092;66.6803092;66.6803092;66.6803092;66.6803092;69.7014343;69.7014343;69.7014343;69.7014343;69.7014343;69.7014343;['v', 'a', 's', 'o'];0;[0.9124324000440538, 1.114738100208342, 1.4085984998382628, 1.5554506001062691];vaso;C:\2023\REPSWITCH21092023\REPSWITCH_excgange\REPSWITCH_excgange\data/310104_REPSWITCH1_version1_list4_2023-12-05_15h16.56.963_micRespv1l4_recorded\recording_micRespv1l4_2023-12-05_15h17.54.680.wav;69.7014343;70.201527;None;;;;;;310104;1;2023-12-05_15h16.56.963;REPSWITCH1_version1_list4;2022.2.4;143.8919315;
REPSWITCH1/PICTURE_338.png;regalo;type;darkblue;filler;1;F;1;4;4;1;Stim6_Set4;1;repeat;11;10;11;0;10;10;10;;;;;;;;;;;;;;;;;;;;;;;70.201527;71.3614104;71.3614104;71.3614104;71.3614104;71.3614104;71.3614104;71.3614104;71.3614104;74.3826371;74.3826371;74.3826371;74.3826371;74.3826371;74.3826371;['r', 'e', 'g', 'a', 'l', 'o'];0;[1.279245600104332, 1.3589695999398828, 1.5368417003192008, 1.7131761000491679, 1.7600302998907864, 1.8600930999964476];regalo;C:\2023\REPSWITCH21092023\REPSWITCH_excgange\REPSWITCH_excgange\data/310104_REPSWITCH1_version1_list4_2023-12-05_15h16.56.963_micRespv1l4_recorded\recording_micRespv1l4_2023-12-05_15h17.59.360.wav;74.3826371;74.882682;None;;;;;;310104;1;2023-12-05_15h16.56.963;REPSWITCH1_version1_list4;2022.2.4;143.8919315;
REPSWITCH1/PICTURE_135.png;traje;type;darkblue;nontarget;1;NT;1;4;4;1;Stim3_Set1;1;repeat;12;11;12;0;11;11;11;;;;;;;;;;;;;;;;;;;;;;;74.882682;75.8898237;75.8898237;75.8898237;75.8898237;75.8898237;75.8898237;75.8898237;75.8898237;78.9179268;78.9179268;78.9179268;78.9179268;78.9179268;78.9179268;['t', 'r', 'a', 'j', 'e'];0;[0.9167259996756911, 0.9825035999529064, 1.1854580999352038, 1.276146899908781, 1.391774300020188];traje;C:\2023\REPSWITCH21092023\REPSWITCH_excgange\REPSWITCH_excgange\data/310104_REPSWITCH1_version1_list4_2023-12-05_15h16.56.963_micRespv1l4_recorded\recording_micRespv1l4_2023-12-05_15h18.03.890.wav;78.9179268;;None;;;;;;310104;1;2023-12-05_15h16.56.963;REPSWITCH1_version1_list4;2022.2.4;143.8919315;
REPSWITCH1/PICTURE_135.png;traje;speak;gold;switch;2;T;1;4;4;1;Stim3_Set1;0;None;13;12;13;0;12;12;12;;;;;;;;;;;;;;;;;;;;;;;79.4180077;80.4667804;80.4667804;80.4667804;80.4667804;80.4667804;80.4667804;80.4667804;80.4667804;83.4949103;83.4949103;83.4949103;83.4949103;83.4949103;83.4949103;None;0;;;C:\2023\REPSWITCH21092023\REPSWITCH_excgange\REPSWITCH_excgange\data/310104_REPSWITCH1_version1_list4_2023-12-05_15h16.56.963_micRespv1l4_recorded\recording_micRespv1l4_2023-12-05_15h18.08.467.wav;83.4949103;;None;;;;;;310104;1;2023-12-05_15h16.56.963;REPSWITCH1_version1_list4;2022.2.4;143.8919315;
REPSWITCH1/PICTURE_381.png;fresa;speak;gold;nontarget;2;NT;1;4;4;1;Stim2_Set1;1;repeat;14;13;14;0;13;13;13;;;;;;;;;;;;;;;;;;;;;;;83.995003;84.9951121;84.9951121;84.9951121;84.9951121;84.9951121;84.9951121;84.9951121;84.9951121;88.0232999;88.0232999;88.0232999;88.0232999;88.0232999;88.0232999;None;0;;;C:\2023\REPSWITCH21092023\REPSWITCH_excgange\REPSWITCH_excgange\data/310104_REPSWITCH1_version1_list4_2023-12-05_15h16.56.963_micRespv1l4_recorded\recording_micRespv1l4_2023-12-05_15h18.12.995.wav;88.0232999;;None;;;;;;310104;1;2023-12-05_15h16.56.963;REPSWITCH1_version1_list4;2022.2.4;143.8919315;
REPSWITCH1/PICTURE_381.png;fresa;type;darkblue;switch;1;T;1;4;4;1;Stim2_Set1;0;None;15;14;15;0;14;14;14;;;;;;;;;;;;;;;;;;;;;;;88.5234426;89.6277534;89.6277534;89.6277534;89.6277534;89.6277534;89.6277534;89.6277534;89.6277534;92.6488878;92.6488878;92.6488878;92.6488878;92.6488878;92.6488878;['f', 'r', 'e', 's', 'a'];0;[0.949182499665767, 1.0716804997064173, 1.0919205998070538, 1.3022380000911653, 1.3756430996581912];fresa;C:\2023\REPSWITCH21092023\REPSWITCH_excgange\REPSWITCH_excgange\data/310104_REPSWITCH1_version1_list4_2023-12-05_15h16.56.963_micRespv1l4_recorded\recording_micRespv1l4_2023-12-05_15h18.17.627.wav;92.6488878;93.1490535;None;;;;;;310104;1;2023-12-05_15h16.56.963;REPSWITCH1_version1_list4;2022.2.4;143.8919315;
REPSWITCH1/PICTURE_48.png;bombero;type;darkblue;filler;1;F;1;4;4;1;Stim7_Set4;0;None;16;15;16;0;15;15;15;;;;;;;;;;;;;;;;;;;;;;;93.1490535;94.2602494;94.2602494;94.2602494;94.2602494;94.2602494;94.2602494;94.2602494;94.2602494;97.2883979;97.2883979;97.2883979;97.2883979;97.2883979;97.2883979;['b', 'o', 'm', 'b', 'e', 'r', 'o'];0;[1.1096435999497771, 1.193684599827975, 1.2864513001404703, 1.5513615999370813, 1.6430481001734734, 1.6882643001154065, 1.783947499934584];bombero;C:\2023\REPSWITCH21092023\REPSWITCH_excgange\REPSWITCH_excgange\data/310104_REPSWITCH1_version1_list4_2023-12-05_15h16.56.963_micRespv1l4_recorded\recording_micRespv1l4_2023-12-05_15h18.22.260.wav;97.2883979;;None;;;;;;310104;1;2023-12-05_15h16.56.963;REPSWITCH1_version1_list4;2022.2.4;143.8919315;
REPSWITCH1/PICTURE_687.png;camisa;speak;gold;filler;2;F;1;4;4;1;Stim5_Set4;0;None;17;16;17;0;16;16;16;;;;;;;;;;;;;;;;;;;;;;;97.7884709;98.8789608;98.8789608;98.8789608;98.8789608;98.8789608;98.8789608;98.8789608;98.8789608;101.9001979;101.9001979;101.9001979;101.9001979;101.9001979;101.9001979;None;0;;;C:\2023\REPSWITCH21092023\REPSWITCH_excgange\REPSWITCH_excgange\data/310104_REPSWITCH1_version1_list4_2023-12-05_15h16.56.963_micRespv1l4_recorded\recording_micRespv1l4_2023-12-05_15h18.26.878.wav;101.9001979;102.4001808;None;;;;;;310104;1;2023-12-05_15h16.56.963;REPSWITCH1_version1_list4;2022.2.4;143.8919315;
REPSWITCH1/PICTURE_128.png;muñeca;type;darkblue;nontarget;1;NT;1;4;4;1;Stim4_Set1;0;None;18;17;18;0;17;17;17;;;;;;;;;;;;;;;;;;;;;;;102.4001808;103.4836386;103.4836386;103.4836386;103.4836386;103.4836386;103.4836386;103.4836386;103.4836386;106.5048569;106.5048569;106.5048569;106.5048569;106.5048569;106.5048569;['m', 'u', 'ñ', 'e', 'c', 'a'];0;[1.0967713999561965, 1.314995899796486, 1.7802967000752687, 1.9143988001160324, 2.1297459001652896, 2.2741983998566866];muñeca;C:\2023\REPSWITCH21092023\REPSWITCH_excgange\REPSWITCH_excgange\data/310104_REPSWITCH1_version1_list4_2023-12-05_15h16.56.963_micRespv1l4_recorded\recording_micRespv1l4_2023-12-05_15h18.31.484.wav;106.5048569;107.0049921;None;;;;;;310104;1;2023-12-05_15h16.56.963;REPSWITCH1_version1_list4;2022.2.4;143.8919315;
REPSWITCH1/PICTURE_128.png;muñeca;type;darkblue;repeat;1;T;1;4;4;1;Stim4_Set1;0;None;19;18;19;0;18;18;18;;;;;;;;;;;;;;;;;;;;;;;107.0049921;108.0746048;108.0746048;108.0746048;108.0746048;108.0746048;108.0746048;108.0746048;108.0746048;111.1026821;111.1026821;111.1026821;111.1026821;111.1026821;111.1026821;['m', 'u', 'ñ', 'e', 'c', 'a'];0;[1.0836543999612331, 1.2896519000642002, 1.6297749001532793, 1.7613222002983093, 1.97955820010975, 2.1580795999616385];muñeca;C:\2023\REPSWITCH21092023\REPSWITCH_excgange\REPSWITCH_excgange\data/310104_REPSWITCH1_version1_list4_2023-12-05_15h16.56.963_micRespv1l4_recorded\recording_micRespv1l4_2023-12-05_15h18.36.075.wav;111.1026821;;None;;;;;;310104;1;2023-12-05_15h16.56.963;REPSWITCH1_version1_list4;2022.2.4;143.8919315;
REPSWITCH1/PICTURE_719.png;baño;speak;gold;filler;2;F;1;4;4;1;Stim2_Set4;1;switch;20;19;20;0;19;19;19;;;;;;;;;;;;;;;;;;;;;;;111.6027572;112.7210297;112.7210297;112.7210297;112.7210297;112.7210297;112.7210297;112.7210297;112.7210297;115.7492298;115.7492298;115.7492298;115.7492298;115.7492298;115.7492298;None;0;;;C:\2023\REPSWITCH21092023\REPSWITCH_excgange\REPSWITCH_excgange\data/310104_REPSWITCH1_version1_list4_2023-12-05_15h16.56.963_micRespv1l4_recorded\recording_micRespv1l4_2023-12-05_15h18.40.722.wav;115.7492298;;None;;;;;;310104;1;2023-12-05_15h16.56.963;REPSWITCH1_version1_list4;2022.2.4;143.8919315;
REPSWITCH1/PICTURE_178.png;puente;type;darkblue;nontarget;1;NT;1;4;4;1;Stim1_Set1;1;switch;21;20;21;0;20;20;20;;;;;;;;;;;;;;;;;;;;;;;116.2492205;117.3535262;117.3535262;117.3535262;117.3535262;117.3535262;117.3535262;117.3535262;117.3535262;120.3747806;120.3747806;120.3747806;120.3747806;120.3747806;120.3747806;['p', 'u', 'e', 'n', 't', 'e'];0;[1.2177577000111341, 1.4420074000954628, 1.5236969999969006, 1.6475916998460889, 1.7203073999844491, 1.8073633997701108];puente;C:\2023\REPSWITCH21092023\REPSWITCH_excgange\REPSWITCH_excgange\data/310104_REPSWITCH1_version1_list4_2023-12-05_15h16.56.963_micRespv1l4_recorded\recording_micRespv1l4_2023-12-05_15h18.45.352.wav;120.3747806;120.8748074;None;;;;;;310104;1;2023-12-05_15h16.56.963;REPSWITCH1_version1_list4;2022.2.4;143.8919315;
REPSWITCH1/PICTURE_178.png;puente;type;darkblue;repeat;1;T;1;4;4;1;Stim1_Set1;0;None;22;21;22;0;21;21;21;;;;;;;;;;;;;;;;;;;;;;;120.8748074;121.9722526;121.9722526;121.9722526;121.9722526;121.9722526;121.9722526;121.9722526;121.9722526;124.9934757;124.9934757;124.9934757;124.9934757;124.9934757;124.9934757;['p', 'u', 'e', 'n', 't', 'e'];0;[1.0153166996315122, 1.2664922997355461, 1.3843292999081314, 1.4899796997196972, 1.5766528998501599, 1.6324609997682273];puente;C:\2023\REPSWITCH21092023\REPSWITCH_excgange\REPSWITCH_excgange\data/310104_REPSWITCH1_version1_list4_2023-12-05_15h16.56.963_micRespv1l4_recorded\recording_micRespv1l4_2023-12-05_15h18.49.971.wav;124.9934757;125.4935617;None;;;;;;310104;1;2023-12-05_15h16.56.963;REPSWITCH1_version1_list4;2022.2.4;143.8919315;
REPSWITCH1/PICTURE_16.png;cazador;type;darkblue;nontarget;1;NT;1;4;4;1;Stim6_Set1;1;repeat;23;22;23;0;22;22;22;;;;;;;;;;;;;;;;;;;;;;;125.4935617;126.5839341;126.5839341;126.5839341;126.5839341;126.5839341;126.5839341;126.5839341;126.5839341;129.6120874;129.6120874;129.6120874;129.6120874;129.6120874;129.6120874;['c', 'a', 'z', 'a', 'd', 'o', 'r'];0;[1.6988650998100638, 1.8493857998400927, 2.214247999712825, 2.357822199817747, 2.5509573998861015, 2.7124804998748004, 2.8270152998156846];cazador;C:\2023\REPSWITCH21092023\REPSWITCH_excgange\REPSWITCH_excgange\data/310104_REPSWITCH1_version1_list4_2023-12-05_15h16.56.963_micRespv1l4_recorded\recording_micRespv1l4_2023-12-05_15h18.54.584.wav;129.6120874;;None;;;;;;310104;1;2023-12-05_15h16.56.963;REPSWITCH1_version1_list4;2022.2.4;143.8919315;
REPSWITCH1/PICTURE_16.png;cazador;speak;gold;switch;2;T;1;4;4;1;Stim6_Set1;0;None;24;23;24;0;23;23;23;;;;;;;;;;;;;;;;;;;;;;;130.1121592;131.3206182;131.3206182;131.3206182;131.3206182;131.3206182;131.3206182;131.3206182;131.3206182;134.3487948;134.3487948;134.3487948;134.3487948;134.3487948;134.3487948;None;0;;;C:\2023\REPSWITCH21092023\REPSWITCH_excgange\REPSWITCH_excgange\data/310104_REPSWITCH1_version1_list4_2023-12-05_15h16.56.963_micRespv1l4_recorded\recording_micRespv1l4_2023-12-05_15h18.59.322.wav;134.3487948;134.8489227;None;;;;;;310104;1;2023-12-05_15h16.56.963;REPSWITCH1_version1_list4;2022.2.4;143.8919315;
REPSWITCH1/PICTURE_19.png;pavo;type;darkblue;filler;1;F;2;4;4;1;Stim5_Set1;0;None;25;24;25;0;24;24;24;;;;;;;;;;;;;;;;;;;;;;;134.8489227;135.8767968;135.8767968;135.8767968;135.8767968;135.8767968;135.8767968;135.8767968;135.8767968;138.9049755;138.9049755;138.9049755;138.9049755;138.9049755;138.9049755;['p', 'a', 'v', 'o'];0;[1.2280417997390032, 1.3350133001804352, 1.5283208000473678, 1.5927602997981012];pavo;C:\2023\REPSWITCH21092023\REPSWITCH_excgange\REPSWITCH_excgange\data/310104_REPSWITCH1_version1_list4_2023-12-05_15h16.56.963_micRespv1l4_recorded\recording_micRespv1l4_2023-12-05_15h19.03.877.wav;138.9049755;;None;;;;;;310104;1;2023-12-05_15h16.56.963;REPSWITCH1_version1_list4;2022.2.4;143.8919315;
REPSWITCH1/PICTURE_199.png;falda;type;darkblue;nontarget;1;NT;2;4;4;1;Stim8_Set2;1;repeat;26;25;26;0;25;25;25;;;;;;;;;;;;;;;;;;;;;;;139.4050351;140.5788496;140.5788496;140.5788496;140.5788496;140.5788496;140.5788496;140.5788496;140.5788496;143.6070437;143.6070437;143.6070437;143.6070437;143.6070437;143.6070437;['f', 'a', 'l', 'd', 'a'];0;[0.9362943000160158, 1.1236518998630345, 1.1974125001579523, 1.3728232001885772, 1.4388806000351906];falda;C:\2023\REPSWITCH21092023\REPSWITCH_excgange\REPSWITCH_excgange\data/310104_REPSWITCH1_version1_list4_2023-12-05_15h16.56.963_micRespv1l4_recorded\recording_micRespv1l4_2023-12-05_15h19.08.579.wav;143.6070437;;None;;;;;;310104;1;2023-12-05_15h16.56.963;REPSWITCH1_version1_list4;2022.2.4;143.8919315;
REPSWITCH1/PICTURE_199.png;falda;type;darkblue;repeat;1;T;2;4;4;1;Stim8_Set2;0;None;27;26;27;0;26;26;26;;;;;;;;;;;;;;;;;;;;;;;144.1070474;145.134937;145.134937;145.134937;145.134937;145.134937;145.134937;145.134937;145.134937;148.163135;148.163135;148.163135;148.163135;148.163135;148.163135;['f', 'a', 'l', 'd', 'a'];0;[0.7872395999729633, 0.9795551002025604, 1.1108284001238644, 1.197575300000608, 1.2681780001148582];falda;C:\2023\REPSWITCH21092023\REPSWITCH_excgange\REPSWITCH_excgange\data/310104_REPSWITCH1_version1_list4_2023-12-05_15h16.56.963_micRespv1l4_recorded\recording_micRespv1l4_2023-12-05_15h19.13.135.wav;148.163135;;None;;;;;;310104;1;2023-12-05_15h16.56.963;REPSWITCH1_version1_list4;2022.2.4;143.8919315;
REPSWITCH1/PICTURE_178.png;puente;speak;gold;filler;2;F;2;4;4;1;Stim1_Set1;1;switch;28;27;28;0;27;27;27;;;;;;;;;;;;;;;;;;;;;;;148.6631817;149.8647534;149.8647534;149.8647534;149.8647534;149.8647534;149.8647534;149.8647534;149.8647534;152.8859817;152.8859817;152.8859817;152.8859817;152.8859817;152.8859817;None;0;;;C:\2023\REPSWITCH21092023\REPSWITCH_excgange\REPSWITCH_excgange\data/310104_REPSWITCH1_version1_list4_2023-12-05_15h16.56.963_micRespv1l4_recorded\recording_micRespv1l4_2023-12-05_15h19.17.864.wav;152.8859817;153.3860996;None;;;;;;310104;1;2023-12-05_15h16.56.963;REPSWITCH1_version1_list4;2022.2.4;143.8919315;
REPSWITCH1/PICTURE_517.png;cuerda;type;darkblue;nontarget;1;NT;2;4;4;1;Stim4_Set2;1;switch;29;28;29;0;28;28;28;;;;;;;;;;;;;;;;;;;;;;;153.3860996;154.4208842;154.4208842;154.4208842;154.4208842;154.4208842;154.4208842;154.4208842;154.4208842;157.4421278;157.4421278;157.4421278;157.4421278;157.4421278;157.4421278;['c', 'u', 'e', 'r', 'd', 'a'];0;[1.1505284998565912, 1.3059582998976111, 1.38579719979316, 1.4624848999083042, 1.66881849989295, 1.7455949001014233];cuerda;C:\2023\REPSWITCH21092023\REPSWITCH_excgange\REPSWITCH_excgange\data/310104_REPSWITCH1_version1_list4_2023-12-05_15h16.56.963_micRespv1l4_recorded\recording_micRespv1l4_2023-12-05_15h19.22.421.wav;157.4421278;157.9421918;None;;;;;;310104;1;2023-12-05_15h16.56.963;REPSWITCH1_version1_list4;2022.2.4;143.8919315;
REPSWITCH1/PICTURE_517.png;cuerda;type;darkblue;repeat;1;T;2;4;4;1;Stim4_Set2;0;None;30;29;30;0;29;29;29;;;;;;;;;;;;;;;;;;;;;;;157.9421918;158.9979374;158.9979374;158.9979374;158.9979374;158.9979374;158.9979374;158.9979374;158.9979374;162.0191126;162.0191126;162.0191126;162.0191126;162.0191126;162.0191126;['c', 'u', 'e', 'r', 'd', 'a'];0;[0.9262477001175284, 1.0717557002790272, 1.1425153999589384, 1.2182579999789596, 1.353806999977678, 1.4275751002132893];cuerda;C:\2023\REPSWITCH21092023\REPSWITCH_excgange\REPSWITCH_excgange\data/310104_REPSWITCH1_version1_list4_2023-12-05_15h16.56.963_micRespv1l4_recorded\recording_micRespv1l4_2023-12-05_15h19.26.998.wav;162.0191126;162.5192319;None;;;;;;310104;1;2023-12-05_15h16.56.963;REPSWITCH1_version1_list4;2022.2.4;143.8919315;
REPSWITCH1/PICTURE_169.png;espalda;type;darkblue;filler;1;F;2;4;4;1;Stim8_Set1;0;None;31;30;31;0;30;30;30;;;;;;;;;;;;;;;;;;;;;;;162.5192319;163.6304211;163.6304211;163.6304211;163.6304211;163.6304211;163.6304211;163.6304211;163.6304211;166.6586798;166.6586798;166.6586798;166.6586798;166.6586798;166.6586798;['e', 's', 'p', 'a', 'l', 'd', 'a'];0;[0.8887903997674584, 1.050417599733919, 1.1739656999707222, 1.2785229999572039, 1.4639037996530533, 1.613400399684906, 1.6522393999621272];espalda;C:\2023\REPSWITCH21092023\REPSWITCH_excgange\REPSWITCH_excgange\data/310104_REPSWITCH1_version1_list4_2023-12-05_15h16.56.963_micRespv1l4_recorded\recording_micRespv1l4_2023-12-05_15h19.31.630.wav;166.6586798;;None;;;;;;310104;1;2023-12-05_15h16.56.963;REPSWITCH1_version1_list4;2022.2.4;143.8919315;
REPSWITCH1/PICTURE_673.png;tenedor;speak;gold;filler;2;F;2;4;4;1;Extra5;0;None;32;31;32;0;31;31;31;;;;;;;;;;;;;;;;;;;;;;;167.1586495;168.2629625;168.2629625;168.2629625;168.2629625;168.2629625;168.2629625;168.2629625;168.2629625;171.2842298;171.2842298;171.2842298;171.2842298;171.2842298;171.2842298;None;0;;;C:\2023\REPSWITCH21092023\REPSWITCH_excgange\REPSWITCH_excgange\data/310104_REPSWITCH1_version1_list4_2023-12-05_15h16.56.963_micRespv1l4_recorded\recording_micRespv1l4_2023-12-05_15h19.36.263.wav;171.2842298;171.78436;None;;;;;;310104;1;2023-12-05_15h16.56.963;REPSWITCH1_version1_list4;2022.2.4;143.8919315;
REPSWITCH1/PICTURE_142.png;vaso;type;darkblue;filler;1;F;2;4;4;1;Stim7_Set1;1;switch;33;32;33;0;32;32;32;;;;;;;;;;;;;;;;;;;;;;;171.78436;172.8746901;172.8746901;172.8746901;172.8746901;172.8746901;172.8746901;172.8746901;172.8746901;175.8959547;175.8959547;175.8959547;175.8959547;175.8959547;175.8959547;['v', 'a', 's', 'o'];0;[0.8568520997650921, 1.0621211999095976, 1.1368261999450624, 1.2384651997126639];vaso;C:\2023\REPSWITCH21092023\REPSWITCH_excgange\REPSWITCH_excgange\data/310104_REPSWITCH1_version1_list4_2023-12-05_15h16.56.963_micRespv1l4_recorded\recording_micRespv1l4_2023-12-05_15h19.40.874.wav;175.8959547;176.3960025;None;;;;;;310104;1;2023-12-05_15h16.56.963;REPSWITCH1_version1_list4;2022.2.4;143.8919315;
REPSWITCH1/PICTURE_552.png;manzana;type;darkblue;nontarget;1;NT;2;4;4;1;Stim6_Set2;1;repeat;34;33;34;0;33;33;33;;;;;;;;;;;;;;;;;;;;;;;176.3960025;177.5142143;177.5142143;177.5142143;177.5142143;177.5142143;177.5142143;177.5142143;177.5142143;180.5354308;180.5354308;180.5354308;180.5354308;180.5354308;180.5354308;['m', 'a', 'n', 'a', 'backspace', 'z', 'a', 'n', 'a'];0;[1.0706770000979304, 1.1842117998749018, 1.275896199978888, 1.4901875001378357, 2.002723299898207, 2.1253097001463175, 2.290749500039965, 2.427416400052607, 2.545046200044453];manzana;C:\2023\REPSWITCH21092023\REPSWITCH_excgange\REPSWITCH_excgange\data/310104_REPSWITCH1_version1_list4_2023-12-05_15h16.56.963_micRespv1l4_recorded\recording_micRespv1l4_2023-12-05_15h19.45.513.wav;180.5354308;181.0354604;None;;;;;;310104;1;2023-12-05_15h16.56.963;REPSWITCH1_version1_list4;2022.2.4;143.8919315;
REPSWITCH1/PICTURE_552.png;manzana;speak;gold;switch;1;T;2;4;4;1;Stim6_Set2;0;None;35;34;35;0;34;34;34;;;;;;;;;;;;;;;;;;;;;;;181.0354604;182.0495714;182.0495714;182.0495714;182.0495714;182.0495714;182.0495714;182.0495714;182.0495714;185.0776711;185.0776711;185.0776711;185.0776711;185.0776711;185.0776711;None;0;;;C:\2023\REPSWITCH21092023\REPSWITCH_excgange\REPSWITCH_excgange\data/310104_REPSWITCH1_version1_list4_2023-12-05_15h16.56.963_micRespv1l4_recorded\recording_micRespv1l4_2023-12-05_15h19.50.050.wav;185.0776711;;None;;;;;;310104;1;2023-12-05_15h16.56.963;REPSWITCH1_version1_list4;2022.2.4;143.8919315;
REPSWITCH1/PICTURE_135.png;traje;speak;gold;filler;2;F;2;4;4;1;Stim3_Set1;0;None;36;35;36;0;35;35;35;;;;;;;;;;;;;;;;;;;;;;;185.5777318;186.7028932;186.7028932;186.7028932;186.7028932;186.7028932;186.7028932;186.7028932;186.7028932;189.7242123;189.7242123;189.7242123;189.7242123;189.7242123;189.7242123;None;0;;;C:\2023\REPSWITCH21092023\REPSWITCH_excgange\REPSWITCH_excgange\data/310104_REPSWITCH1_version1_list4_2023-12-05_15h16.56.963_micRespv1l4_recorded\recording_micRespv1l4_2023-12-05_15h19.54.702.wav;189.7242123;190.2241837;None;;;;;;310104;1;2023-12-05_15h16.56.963;REPSWITCH1_version1_list4;2022.2.4;143.8919315;
REPSWITCH1/PICTURE_152.png;caracol;speak;gold;nontarget;2;NT;2;4;4;1;Stim2_Set2;1;repeat;37;36;37;0;36;36;36;;;;;;;;;;;;;;;;;;;;;;;190.2241837;191.3424665;191.3424665;191.3424665;191.3424665;191.3424665;191.3424665;191.3424665;191.3424665;194.3635893;194.3635893;194.3635893;194.3635893;194.3635893;194.3635893;None;0;;;C:\2023\REPSWITCH21092023\REPSWITCH_excgange\REPSWITCH_excgange\data/310104_REPSWITCH1_version1_list4_2023-12-05_15h16.56.963_micRespv1l4_recorded\recording_micRespv1l4_2023-12-05_15h19.59.342.wav;194.3635893;194.8636694;None;;;;;;310104;1;2023-12-05_15h16.56.963;REPSWITCH1_version1_list4;2022.2.4;143.8919315;
REPSWITCH1/PICTURE_152.png;caracol;type;darkblue;switch;1;T;2;4;4;1;Stim2_Set2;0;None;38;37;38;0;37;37;37;;;;;;;;;;;;;;;;;;;;;;;194.8636694;196.044395;196.044395;196.044395;196.044395;196.044395;196.044395;196.044395;196.044395;199.0656052;199.0656052;199.0656052;199.0656052;199.0656052;199.0656052;['c', 'a', 'r', 'a', 'c', 'o', 'l'];0;[0.41392109962180257, 0.5862991996109486, 0.6899823998101056, 0.7853297996334732, 1.005574299953878, 1.070365599822253, 1.2530620996840298];caracol;C:\2023\REPSWITCH21092023\REPSWITCH_excgange\REPSWITCH_excgange\data/310104_REPSWITCH1_version1_list4_2023-12-05_15h16.56.963_micRespv1l4_recorded\recording_micRespv1l4_2023-12-05_15h20.04.044.wav;199.0656052;199.5656626;None;;;;;;310104;1;2023-12-05_15h16.56.963;REPSWITCH1_version1_list4;2022.2.4;143.8919315;
REPSWITCH1/PICTURE_381.png;fresa;type;darkblue;filler;1;F;2;4;4;1;Stim2_Set1;0;None;39;38;39;0;38;38;38;;;;;;;;;;;;;;;;;;;;;;;199.5656626;200.7881392;200.7881392;200.7881392;200.7881392;200.7881392;200.7881392;200.7881392;200.7881392;203.8162662;203.8162662;203.8162662;203.8162662;203.8162662;203.8162662;['f', 'r', 'e', 's', 'a'];0;[0.8560593998990953, 0.9816438001580536, 1.0095489001832902, 1.2039246000349522, 1.2906372002325952];fresa;C:\2023\REPSWITCH21092023\REPSWITCH_excgange\REPSWITCH_excgange\data/310104_REPSWITCH1_version1_list4_2023-12-05_15h16.56.963_micRespv1l4_recorded\recording_micRespv1l4_2023-12-05_15h20.08.788.wav;203.8162662;;None;;;;;;310104;1;2023-12-05_15h16.56.963;REPSWITCH1_version1_list4;2022.2.4;143.8919315;
REPSWITCH1/PICTURE_446.png;cerdo;type;darkblue;nontarget;1;NT;2;4;4;1;Stim7_Set2;1;repeat;40;39;40;0;39;39;39;;;;;;;;;;;;;;;;;;;;;;;204.3163218;205.36513;205.36513;205.36513;205.36513;205.36513;205.36513;205.36513;205.36513;208.3932536;208.3932536;208.3932536;208.3932536;208.3932536;208.3932536;['c', 'e', 'r', 'd', 'o'];0;[0.8654697998426855, 1.0199473998509347, 1.1046242001466453, 1.262127600144595, 1.5764894001185894];cerdo;C:\2023\REPSWITCH21092023\REPSWITCH_excgange\REPSWITCH_excgange\data/310104_REPSWITCH1_version1_list4_2023-12-05_15h16.56.963_micRespv1l4_recorded\recording_micRespv1l4_2023-12-05_15h20.13.366.wav;208.3932536;;None;;;;;;310104;1;2023-12-05_15h16.56.963;REPSWITCH1_version1_list4;2022.2.4;143.8919315;
REPSWITCH1/PICTURE_446.png;cerdo;speak;gold;switch;2;T;2;4;4;1;Stim7_Set2;0;None;41;40;41;0;40;40;40;;;;;;;;;;;;;;;;;;;;;;;208.8933803;209.9490256;209.9490256;209.9490256;209.9490256;209.9490256;209.9490256;209.9490256;209.9490256;212.970213;212.970213;212.970213;212.970213;212.970213;212.970213;None;0;;;C:\2023\REPSWITCH21092023\REPSWITCH_excgange\REPSWITCH_excgange\data/310104_REPSWITCH1_version1_list4_2023-12-05_15h16.56.963_micRespv1l4_recorded\recording_micRespv1l4_2023-12-05_15h20.17.948.wav;212.970213;213.470302;None;;;;;;310104;1;2023-12-05_15h16.56.963;REPSWITCH1_version1_list4;2022.2.4;143.8919315;
REPSWITCH1/PICTURE_264.png;mano;speak;gold;nontarget;2;NT;2;4;4;1;Stim3_Set2;0;None;42;41;42;0;41;41;41;;;;;;;;;;;;;;;;;;;;;;;213.470302;214.5259829;214.5259829;214.5259829;214.5259829;214.5259829;214.5259829;214.5259829;214.5259829;217.5472066;217.5472066;217.5472066;217.5472066;217.5472066;217.5472066;None;0;;;C:\2023\REPSWITCH21092023\REPSWITCH_excgange\REPSWITCH_excgange\data/310104_REPSWITCH1_version1_list4_2023-12-05_15h16.56.963_micRespv1l4_recorded\recording_micRespv1l4_2023-12-05_15h20.22.525.wav;217.5472066;218.0472895;None;;;;;;310104;1;2023-12-05_15h16.56.963;REPSWITCH1_version1_list4;2022.2.4;143.8919315;
REPSWITCH1/PICTURE_264.png;mano;speak;gold;repeat;2;T;2;4;4;1;Stim3_Set2;0;None;43;42;43;0;42;42;42;;;;;;;;;;;;;;;;;;;;;;;218.0472895;219.1169064;219.1169064;219.1169064;219.1169064;219.1169064;219.1169064;219.1169064;219.1169064;222.1380679;222.1380679;222.1380679;222.1380679;222.1380679;222.1380679;None;0;;;C:\2023\REPSWITCH21092023\REPSWITCH_excgange\REPSWITCH_excgange\data/310104_REPSWITCH1_version1_list4_2023-12-05_15h16.56.963_micRespv1l4_recorded\recording_micRespv1l4_2023-12-05_15h20.27.116.wav;222.1380679;222.63817;None;;;;;;310104;1;2023-12-05_15h16.56.963;REPSWITCH1_version1_list4;2022.2.4;143.8919315;
REPSWITCH1/PICTURE_128.png;muñeca;type;darkblue;filler;1;F;2;4;4;1;Stim4_Set1;0;None;44;43;44;0;43;43;43;;;;;;;;;;;;;;;;;;;;;;;222.63817;223.7078111;223.7078111;223.7078111;223.7078111;223.7078111;223.7078111;223.7078111;223.7078111;226.7359281;226.7359281;226.7359281;226.7359281;226.7359281;226.7359281;['m', 'u', 'e', 'ñ', 'backspace', 'ñ'];0;[0.9157444001175463, 1.1383997001685202, 1.6606084001250565, 1.6685724002309144, 2.3183535002171993, 2.94425560021773];mueñ;C:\2023\REPSWITCH21092023\REPSWITCH_excgange\REPSWITCH_excgange\data/310104_REPSWITCH1_version1_list4_2023-12-05_15h16.56.963_micRespv1l4_recorded\recording_micRespv1l4_2023-12-05_15h20.31.708.wav;226.7359281;;None;;;;;;310104;1;2023-12-05_15h16.56.963;REPSWITCH1_version1_list4;2022.2.4;143.8919315;
REPSWITCH1/PICTURE_30.png;granja;speak;gold;nontarget;2;NT;2;4;4;1;Stim5_Set2;1;switch;45;44;45;0;44;44;44;;;;;;;;;;;;;;;;;;;;;;;227.2360023;228.3611547;228.3611547;228.3611547;228.3611547;228.3611547;228.3611547;228.3611547;228.3611547;231.3893484;231.3893484;231.3893484;231.3893484;231.3893484;231.3893484;None;0;;;C:\2023\REPSWITCH21092023\REPSWITCH_excgange\REPSWITCH_excgange\data/310104_REPSWITCH1_version1_list4_2023-12-05_15h16.56.963_micRespv1l4_recorded\recording_micRespv1l4_2023-12-05_15h20.36.361.wav;231.3893484;;None;;;;;;310104;1;2023-12-05_15h16.56.963;REPSWITCH1_version1_list4;2022.2.4;143.8919315;
REPSWITCH1/PICTURE_30.png;granja;speak;gold;repeat;2;T;2;4;4;1;Stim5_Set2;0;None;46;45;46;0;45;45;45;;;;;;;;;;;;;;;;;;;;;;;231.8893839;232.9798989;232.9798989;232.9798989;232.9798989;232.9798989;232.9798989;232.9798989;232.9798989;236.0079632;236.0079632;236.0079632;236.0079632;236.0079632;236.0079632;None;0;;;C:\2023\REPSWITCH21092023\REPSWITCH_excgange\REPSWITCH_excgange\data/310104_REPSWITCH1_version1_list4_2023-12-05_15h16.56.963_micRespv1l4_recorded\recording_micRespv1l4_2023-12-05_15h20.40.980.wav;236.0079632;;None;;;;;;310104;1;2023-12-05_15h16.56.963;REPSWITCH1_version1_list4;2022.2.4;143.8919315;
REPSWITCH1/PICTURE_646.png;tronco;type;darkblue;filler;1;F;2;4;4;1;Extra4;0;None;47;46;47;0;46;46;46;;;;;;;;;;;;;;;;;;;;;;;236.5080533;237.598483;237.598483;237.598483;237.598483;237.598483;237.598483;237.598483;237.598483;240.6197111;240.6197111;240.6197111;240.6197111;240.6197111;240.6197111;['t', 'r', 'o', 'n', 'c', 'o'];0;[1.923583900090307, 1.9694133000448346, 2.061077699996531, 2.1364581999368966, 2.2479492998681962, 2.310740699991584];tronco;C:\2023\REPSWITCH21092023\REPSWITCH_excgange\REPSWITCH_excgange\data/310104_REPSWITCH1_version1_list4_2023-12-05_15h16.56.963_micRespv1l4_recorded\recording_micRespv1l4_2023-12-05_15h20.45.598.wav;240.6197111;241.1197359;None;;;;;;310104;1;2023-12-05_15h16.56.963;REPSWITCH1_version1_list4;2022.2.4;143.8919315;
REPSWITCH1/PICTURE_16.png;cazador;speak;gold;filler;2;F;2;4;4;1;Stim6_Set1;0;None;48;47;48;0;47;47;47;;;;;;;;;;;;;;;;;;;;;;;241.1197359;242.175515;242.175515;242.175515;242.175515;242.175515;242.175515;242.175515;242.175515;245.1967393;245.1967393;245.1967393;245.1967393;245.1967393;245.1967393;None;0;;;C:\2023\REPSWITCH21092023\REPSWITCH_excgange\REPSWITCH_excgange\data/310104_REPSWITCH1_version1_list4_2023-12-05_15h16.56.963_micRespv1l4_recorded\recording_micRespv1l4_2023-12-05_15h20.50.175.wav;245.1967393;245.6967205;None;;;;;;310104;1;2023-12-05_15h16.56.963;REPSWITCH1_version1_list4;2022.2.4;143.8919315;
REPSWITCH1/PICTURE_175.png;pintor;speak;gold;nontarget;2;NT;2;4;4;1;Stim1_Set2;1;repeat;49;48;49;0;48;48;48;;;;;;;;;;;;;;;;;;;;;;;245.6967205;246.8150175;246.8150175;246.8150175;246.8150175;246.8150175;246.8150175;246.8150175;246.8150175;249.8362426;249.8362426;249.8362426;249.8362426;249.8362426;249.8362426;None;0;;;C:\2023\REPSWITCH21092023\REPSWITCH_excgange\REPSWITCH_excgange\data/310104_REPSWITCH1_version1_list4_2023-12-05_15h16.56.963_micRespv1l4_recorded\recording_micRespv1l4_2023-12-05_15h20.54.814.wav;249.8362426;250.3362291;None;;;;;;310104;1;2023-12-05_15h16.56.963;REPSWITCH1_version1_list4;2022.2.4;143.8919315;
REPSWITCH1/PICTURE_175.png;pintor;type;darkblue;switch;1;T;2;4;4;1;Stim1_Set2;0;None;50;49;50;0;49;49;49;;;;;;;;;;;;;;;;;;;;;;;250.3362291;251.461438;251.461438;251.461438;251.461438;251.461438;251.461438;251.461438;251.461438;254.4895581;254.4895581;254.4895581;254.4895581;254.4895581;254.4895581;['p', 'i', 'n', 't', 'o', 'r'];0;[0.9264444001019001, 1.127537100110203, 1.2411998002789915, 1.3687197002582252, 1.4215386002324522, 1.6248686001636088];pintor;C:\2023\REPSWITCH21092023\REPSWITCH_excgange\REPSWITCH_excgange\data/310104_REPSWITCH1_version1_list4_2023-12-05_15h16.56.963_micRespv1l4_recorded\recording_micRespv1l4_2023-12-05_15h20.59.462.wav;254.4895581;;None;;;;;;310104;1;2023-12-05_15h16.56.963;REPSWITCH1_version1_list4;2022.2.4;143.8919315;
REPSWITCH1/PICTURE_663.png;columna;speak;gold;filler;2;F;4;4;4;1;Extra6;0;None;51;50;51;0;50;50;50;;;;;;;;;;;;;;;;;;;;;;;254.9896086;256.1148061;256.1148061;256.1148061;256.1148061;256.1148061;256.1148061;256.1148061;256.1148061;259.1360183;259.1360183;259.1360183;259.1360183;259.1360183;259.1360183;None;0;;;C:\2023\REPSWITCH21092023\REPSWITCH_excgange\REPSWITCH_excgange\data/310104_REPSWITCH1_version1_list4_2023-12-05_15h16.56.963_micRespv1l4_recorded\recording_micRespv1l4_2023-12-05_15h21.04.114.wav;259.1360183;259.6360801;space;259.6360801;259.6360801;5.9337069;;;310104;1;2023-12-05_15h16.56.963;REPSWITCH1_version1_list4;2022.2.4;143.8919315;
REPSWITCH1/PICTURE_35.png;oreja;type;darkblue;nontarget;1;NT;3;4;4;1;Stim5_Set3;0;None;52;51;52;0;51;51;51;;;;;;;;;;;;;;;;;;;;;;;265.5813014;266.7411981;266.7411981;266.7411981;266.7411981;266.7411981;266.7411981;266.7411981;266.7411981;269.7623992;269.7623992;269.7623992;269.7623992;269.7623992;269.7623992;['o', 'r', 'e', 'j', 'a'];0;[1.2803324996493757, 1.446845999918878, 1.4966829996556044, 1.689234099816531, 1.7696747998706996];oreja;C:\2023\REPSWITCH21092023\REPSWITCH_excgange\REPSWITCH_excgange\data/310104_REPSWITCH1_version1_list4_2023-12-05_15h16.56.963_micRespv1l4_recorded\recording_micRespv1l4_2023-12-05_15h21.14.740.wav;269.7623992;270.2624738;None;;;;;;310104;1;2023-12-05_15h16.56.963;REPSWITCH1_version1_list4;2022.2.4;143.8919315;
REPSWITCH1/PICTURE_35.png;oreja;speak;gold;switch;2;T;3;4;4;1;Stim5_Set3;0;None;53;52;53;0;52;52;52;;;;;;;;;;;;;;;;;;;;;;;270.2624738;271.3599022;271.3599022;271.3599022;271.3599022;271.3599022;271.3599022;271.3599022;271.3599022;274.3810487;274.3810487;274.3810487;274.3810487;274.3810487;274.3810487;None;0;;;C:\2023\REPSWITCH21092023\REPSWITCH_excgange\REPSWITCH_excgange\data/310104_REPSWITCH1_version1_list4_2023-12-05_15h16.56.963_micRespv1l4_recorded\recording_micRespv1l4_2023-12-05_15h21.19.360.wav;274.3810487;274.8811631;None;;;;;;310104;1;2023-12-05_15h16.56.963;REPSWITCH1_version1_list4;2022.2.4;143.8919315;
REPSWITCH1/PICTURE_199.png;falda;speak;gold;filler;2;F;3;4;4;1;Stim8_Set2;0;None;54;53;54;0;53;53;53;;;;;;;;;;;;;;;;;;;;;;;274.8811631;275.9507157;275.9507157;275.9507157;275.9507157;275.9507157;275.9507157;275.9507157;275.9507157;278.9788903;278.9788903;278.9788903;278.9788903;278.9788903;278.9788903;None;0;;;C:\2023\REPSWITCH21092023\REPSWITCH_excgange\REPSWITCH_excgange\data/310104_REPSWITCH1_version1_list4_2023-12-05_15h16.56.963_micRespv1l4_recorded\recording_micRespv1l4_2023-12-05_15h21.23.950.wav;278.9788903;;None;;;;;;310104;1;2023-12-05_15h16.56.963;REPSWITCH1_version1_list4;2022.2.4;143.8919315;
REPSWITCH1/PICTURE_576.png;guante;speak;gold;nontarget;2;NT;3;4;4;1;Stim1_Set3;1;repeat;55;54;55;0;54;54;54;;;;;;;;;;;;;;;;;;;;;;;279.4789597;280.5416203;280.5416203;280.5416203;280.5416203;280.5416203;280.5416203;280.5416203;280.5416203;283.562824;283.562824;283.562824;283.562824;283.562824;283.562824;None;0;;;C:\2023\REPSWITCH21092023\REPSWITCH_excgange\REPSWITCH_excgange\data/310104_REPSWITCH1_version1_list4_2023-12-05_15h16.56.963_micRespv1l4_recorded\recording_micRespv1l4_2023-12-05_15h21.28.540.wav;283.562824;284.0629151;None;;;;;;310104;1;2023-12-05_15h16.56.963;REPSWITCH1_version1_list4;2022.2.4;143.8919315;
REPSWITCH1/PICTURE_576.png;guante;type;darkblue;switch;1;T;3;4;4;1;Stim1_Set3;0;None;56;55;56;0;55;55;55;;;;;;;;;;;;;;;;;;;;;;;284.0629151;285.2297417;285.2297417;285.2297417;285.2297417;285.2297417;285.2297417;285.2297417;285.2297417;288.250946;288.250946;288.250946;288.250946;288.250946;288.250946;['g', 'u', 'a', 'n', 't', 'e'];0;[0.9849912999197841, 1.0997617999091744, 1.2376537998206913, 1.2953705000691116, 1.4688635999336839, 1.5166223999112844];guante;C:\2023\REPSWITCH21092023\REPSWITCH_excgange\REPSWITCH_excgange\data/310104_REPSWITCH1_version1_list4_2023-12-05_15h16.56.963_micRespv1l4_recorded\recording_micRespv1l4_2023-12-05_15h21.33.229.wav;288.250946;288.7510091;None;;;;;;310104;1;2023-12-05_15h16.56.963;REPSWITCH1_version1_list4;2022.2.4;143.8919315;
REPSWITCH1/PICTURE_517.png;cuerda;type;darkblue;filler;1;F;3;4;4;1;Stim4_Set2;1;repeat;57;56;57;0;56;56;56;;;;;;;;;;;;;;;;;;;;;;;288.7510091;289.8831644;289.8831644;289.8831644;289.8831644;289.8831644;289.8831644;289.8831644;289.8831644;292.9112711;292.9112711;292.9112711;292.9112711;292.9112711;292.9112711;['c', 'u', 'e', 'r', 'd', 'a'];0;[1.1017477000132203, 1.199407999869436, 1.278102499898523, 1.3339567999355495, 1.5155776999890804, 1.6002914998680353];cuerda;C:\2023\REPSWITCH21092023\REPSWITCH_excgange\REPSWITCH_excgange\data/310104_REPSWITCH1_version1_list4_2023-12-05_15h16.56.963_micRespv1l4_recorded\recording_micRespv1l4_2023-12-05_15h21.37.883.wav;292.9112711;;None;;;;;;310104;1;2023-12-05_15h16.56.963;REPSWITCH1_version1_list4;2022.2.4;143.8919315;
REPSWITCH1/PICTURE_271.png;conejo;type;darkblue;nontarget;1;NT;3;4;4;1;Stim7_Set3;1;repeat;58;57;58;0;57;57;57;;;;;;;;;;;;;;;;;;;;;;;293.4113381;294.5712384;294.5712384;294.5712384;294.5712384;294.5712384;294.5712384;294.5712384;294.5712384;297.5924104;297.5924104;297.5924104;297.5924104;297.5924104;297.5924104;['c', 'o', 'n', 'e', 'j', 'o'];0;[0.8758098003454506, 0.9738160003907979, 1.0475670001469553, 1.1493349000811577, 1.2754691001027822, 1.3542369999922812];conejo;C:\2023\REPSWITCH21092023\REPSWITCH_excgange\REPSWITCH_excgange\data/310104_REPSWITCH1_version1_list4_2023-12-05_15h16.56.963_micRespv1l4_recorded\recording_micRespv1l4_2023-12-05_15h21.42.571.wav;297.5924104;298.0924994;None;;;;;;310104;1;2023-12-05_15h16.56.963;REPSWITCH1_version1_list4;2022.2.4;143.8919315;
REPSWITCH1/PICTURE_271.png;conejo;speak;gold;switch;2;T;3;4;4;1;Stim7_Set3;0;None;59;58;59;0;58;58;58;;;;;;;;;;;;;;;;;;;;;;;298.0924994;299.1205023;299.1205023;299.1205023;299.1205023;299.1205023;299.1205023;299.1205023;299.1205023;302.1485723;302.1485723;302.1485723;302.1485723;302.1485723;302.1485723;None;0;;;C:\2023\REPSWITCH21092023\REPSWITCH_excgange\REPSWITCH_excgange\data/310104_REPSWITCH1_version1_list4_2023-12-05_15h16.56.963_micRespv1l4_recorded\recording_micRespv1l4_2023-12-05_15h21.47.120.wav;302.1485723;;None;;;;;;310104;1;2023-12-05_15h16.56.963;REPSWITCH1_version1_list4;2022.2.4;143.8919315;
REPSWITCH1/PICTURE_552.png;manzana;type;darkblue;filler;1;F;3;4;4;1;Stim6_Set2;0;None;60;59;60;0;59;59;59;;;;;;;;;;;;;;;;;;;;;;;302.6486405;303.8154712;303.8154712;303.8154712;303.8154712;303.8154712;303.8154712;303.8154712;303.8154712;306.8436328;306.8436328;306.8436328;306.8436328;306.8436328;306.8436328;['m', 'a', 'n', 'z', 'a', 'n', 'a'];0;[0.9164685001596808, 1.076886700000614, 1.1686152000911534, 1.2735451003536582, 1.43827769998461, 1.5962882000021636, 1.757819500286132];manzana;C:\2023\REPSWITCH21092023\REPSWITCH_excgange\REPSWITCH_excgange\data/310104_REPSWITCH1_version1_list4_2023-12-05_15h16.56.963_micRespv1l4_recorded\recording_micRespv1l4_2023-12-05_15h21.51.816.wav;306.8436328;;None;;;;;;310104;1;2023-12-05_15h16.56.963;REPSWITCH1_version1_list4;2022.2.4;143.8919315;
REPSWITCH1/PICTURE_242.png;cartero;speak;gold;nontarget;2;NT;3;4;4;1;Stim3_Set3;1;switch;61;60;61;0;60;60;60;;;;;;;;;;;;;;;;;;;;;;;307.3437002;308.4758418;308.4758418;308.4758418;308.4758418;308.4758418;308.4758418;308.4758418;308.4758418;311.4970306;311.4970306;311.4970306;311.4970306;311.4970306;311.4970306;None;0;;;C:\2023\REPSWITCH21092023\REPSWITCH_excgange\REPSWITCH_excgange\data/310104_REPSWITCH1_version1_list4_2023-12-05_15h16.56.963_micRespv1l4_recorded\recording_micRespv1l4_2023-12-05_15h21.56.475.wav;311.4970306;311.9971162;None;;;;;;310104;1;2023-12-05_15h16.56.963;REPSWITCH1_version1_list4;2022.2.4;143.8919315;
REPSWITCH1/PICTURE_242.png;cartero;speak;gold;repeat;2;T;3;4;4;1;Stim3_Set3;0;None;62;61;62;0;61;61;61;;;;;;;;;;;;;;;;;;;;;;;311.9971162;313.1222922;313.1222922;313.1222922;313.1222922;313.1222922;313.1222922;313.1222922;313.1222922;316.1504162;316.1504162;316.1504162;316.1504162;316.1504162;316.1504162;None;0;;;C:\2023\REPSWITCH21092023\REPSWITCH_excgange\REPSWITCH_excgange\data/310104_REPSWITCH1_version1_list4_2023-12-05_15h16.56.963_micRespv1l4_recorded\recording_micRespv1l4_2023-12-05_15h22.01.122.wav;316.1504162;;None;;;;;;310104;1;2023-12-05_15h16.56.963;REPSWITCH1_version1_list4;2022.2.4;143.8919315;
REPSWITCH1/PICTURE_152.png;caracol;speak;gold;filler;2;F;3;4;4;1;Stim2_Set2;0;None;63;62;63;0;62;62;62;;;;;;;;;;;;;;;;;;;;;;;316.6504894;317.8451035;317.8451035;317.8451035;317.8451035;317.8451035;317.8451035;317.8451035;317.8451035;320.8732739;320.8732739;320.8732739;320.8732739;320.8732739;320.8732739;None;0;;;C:\2023\REPSWITCH21092023\REPSWITCH_excgange\REPSWITCH_excgange\data/310104_REPSWITCH1_version1_list4_2023-12-05_15h16.56.963_micRespv1l4_recorded\recording_micRespv1l4_2023-12-05_15h22.05.845.wav;320.8732739;;None;;;;;;310104;1;2023-12-05_15h16.56.963;REPSWITCH1_version1_list4;2022.2.4;143.8919315;
REPSWITCH1/PICTURE_446.png;cerdo;type;darkblue;filler;1;F;3;4;4;1;Stim7_Set2;1;switch;64;63;64;0;63;63;63;;;;;;;;;;;;;;;;;;;;;;;321.3733417;322.5610041;322.5610041;322.5610041;322.5610041;322.5610041;322.5610041;322.5610041;322.5610041;325.5821922;325.5821922;325.5821922;325.5821922;325.5821922;325.5821922;['c', 'e', 'r', 'd', 'o'];0;[0.7894703997299075, 0.9518885998986661, 1.01866320008412, 1.218025399837643, 1.2887891000136733];cerdo;C:\2023\REPSWITCH21092023\REPSWITCH_excgange\REPSWITCH_excgange\data/310104_REPSWITCH1_version1_list4_2023-12-05_15h16.56.963_micRespv1l4_recorded\recording_micRespv1l4_2023-12-05_15h22.10.561.wav;325.5821922;326.0822987;None;;;;;;310104;1;2023-12-05_15h16.56.963;REPSWITCH1_version1_list4;2022.2.4;143.8919315;
REPSWITCH1/PICTURE_610.png;miel;speak;gold;nontarget;2;NT;3;4;4;1;Stim2_Set3;1;switch;65;64;65;0;64;64;64;;;;;;;;;;;;;;;;;;;;;;;326.0822987;327.1519028;327.1519028;327.1519028;327.1519028;327.1519028;327.1519028;327.1519028;327.1519028;330.1731133;330.1731133;330.1731133;330.1731133;330.1731133;330.1731133;None;0;;;C:\2023\REPSWITCH21092023\REPSWITCH_excgange\REPSWITCH_excgange\data/310104_REPSWITCH1_version1_list4_2023-12-05_15h16.56.963_micRespv1l4_recorded\recording_micRespv1l4_2023-12-05_15h22.15.152.wav;330.1731133;330.6731772;None;;;;;;310104;1;2023-12-05_15h16.56.963;REPSWITCH1_version1_list4;2022.2.4;143.8919315;
REPSWITCH1/PICTURE_610.png;miel;speak;gold;repeat;2;T;3;4;4;1;Stim2_Set3;0;None;66;65;66;0;65;65;65;;;;;;;;;;;;;;;;;;;;;;;330.6731772;331.8260861;331.8260861;331.8260861;331.8260861;331.8260861;331.8260861;331.8260861;331.8260861;334.8542788;334.8542788;334.8542788;334.8542788;334.8542788;334.8542788;None;0;;;C:\2023\REPSWITCH21092023\REPSWITCH_excgange\REPSWITCH_excgange\data/310104_REPSWITCH1_version1_list4_2023-12-05_15h16.56.963_micRespv1l4_recorded\recording_micRespv1l4_2023-12-05_15h22.19.825.wav;334.8542788;;None;;;;;;310104;1;2023-12-05_15h16.56.963;REPSWITCH1_version1_list4;2022.2.4;143.8919315;
REPSWITCH1/PICTURE_320.png;iglesia;speak;gold;nontarget;2;NT;3;4;4;1;Stim8_Set3;1;repeat;67;66;67;0;66;66;66;;;;;;;;;;;;;;;;;;;;;;;335.3543493;336.4586509;336.4586509;336.4586509;336.4586509;336.4586509;336.4586509;336.4586509;336.4586509;339.4798625;339.4798625;339.4798625;339.4798625;339.4798625;339.4798625;None;0;;;C:\2023\REPSWITCH21092023\REPSWITCH_excgange\REPSWITCH_excgange\data/310104_REPSWITCH1_version1_list4_2023-12-05_15h16.56.963_micRespv1l4_recorded\recording_micRespv1l4_2023-12-05_15h22.24.458.wav;339.4798625;339.9799497;None;;;;;;310104;1;2023-12-05_15h16.56.963;REPSWITCH1_version1_list4;2022.2.4;143.8919315;
REPSWITCH1/PICTURE_320.png;iglesia;type;darkblue;switch;1;T;3;4;4;1;Stim8_Set3;0;None;68;67;68;0;67;67;67;;;;;;;;;;;;;;;;;;;;;;;339.9799497;341.0356946;341.0356946;341.0356946;341.0356946;341.0356946;341.0356946;341.0356946;341.0356946;344.0568505;344.0568505;344.0568505;344.0568505;344.0568505;344.0568505;['i', 'g', 'l', 'e', 's', 'i', 'a'];0;[0.9732021000236273, 1.1376372002996504, 1.2761711003258824, 1.4609741000458598, 1.6774770999327302, 1.765147500205785, 1.8748109000734985];iglesia;C:\2023\REPSWITCH21092023\REPSWITCH_excgange\REPSWITCH_excgange\data/310104_REPSWITCH1_version1_list4_2023-12-05_15h16.56.963_micRespv1l4_recorded\recording_micRespv1l4_2023-12-05_15h22.29.035.wav;344.0568505;344.5569431;None;;;;;;310104;1;2023-12-05_15h16.56.963;REPSWITCH1_version1_list4;2022.2.4;143.8919315;
REPSWITCH1/PICTURE_30.png;granja;speak;gold;filler;2;F;3;4;4;1;Stim5_Set2;0;None;69;68;69;0;68;68;68;;;;;;;;;;;;;;;;;;;;;;;344.5569431;345.6473431;345.6473431;345.6473431;345.6473431;345.6473431;345.6473431;345.6473431;345.6473431;348.6755641;348.6755641;348.6755641;348.6755641;348.6755641;348.6755641;None;0;;;C:\2023\REPSWITCH21092023\REPSWITCH_excgange\REPSWITCH_excgange\data/310104_REPSWITCH1_version1_list4_2023-12-05_15h16.56.963_micRespv1l4_recorded\recording_micRespv1l4_2023-12-05_15h22.33.649.wav;348.6755641;349.175588;None;;;;;;310104;1;2023-12-05_15h16.56.963;REPSWITCH1_version1_list4;2022.2.4;143.8919315;
REPSWITCH1/PICTURE_264.png;mano;type;darkblue;filler;1;F;3;4;4;1;Stim3_Set2;0;None;70;69;70;0;69;69;69;;;;;;;;;;;;;;;;;;;;;;;349.175588;350.3215931;350.3215931;350.3215931;350.3215931;350.3215931;350.3215931;350.3215931;350.3215931;353.3427818;353.3427818;353.3427818;353.3427818;353.3427818;353.3427818;['m', 'a', 'n', 'o'];0;[1.0435754000209272, 1.1884726998396218, 1.2773917000740767, 1.4010434001684189];mano;C:\2023\REPSWITCH21092023\REPSWITCH_excgange\REPSWITCH_excgange\data/310104_REPSWITCH1_version1_list4_2023-12-05_15h16.56.963_micRespv1l4_recorded\recording_micRespv1l4_2023-12-05_15h22.38.321.wav;353.3427818;353.8428739;None;;;;;;310104;1;2023-12-05_15h16.56.963;REPSWITCH1_version1_list4;2022.2.4;143.8919315;
REPSWITCH1/PICTURE_464.png;goma;type;darkblue;nontarget;1;NT;3;4;4;1;Stim6_Set3;0;None;71;70;71;0;70;70;70;;;;;;;;;;;;;;;;;;;;;;;353.8428739;354.8778047;354.8778047;354.8778047;354.8778047;354.8778047;354.8778047;354.8778047;354.8778047;357.9059164;357.9059164;357.9059164;357.9059164;357.9059164;357.9059164;['g', 'o', 'm', 'a'];0;[0.9783872002735734, 1.0581042999401689, 1.142879799939692, 1.2474956000223756];goma;C:\2023\REPSWITCH21092023\REPSWITCH_excgange\REPSWITCH_excgange\data/310104_REPSWITCH1_version1_list4_2023-12-05_15h16.56.963_micRespv1l4_recorded\recording_micRespv1l4_2023-12-05_15h22.42.878.wav;357.9059164;;None;;;;;;310104;1;2023-12-05_15h16.56.963;REPSWITCH1_version1_list4;2022.2.4;143.8919315;
REPSWITCH1/PICTURE_464.png;goma;type;darkblue;repeat;1;T;3;4;4;1;Stim6_Set3;0;None;72;71;72;0;71;71;71;;;;;;;;;;;;;;;;;;;;;;;358.4059805;359.5173088;359.5173088;359.5173088;359.5173088;359.5173088;359.5173088;359.5173088;359.5173088;362.5384697;362.5384697;362.5384697;362.5384697;362.5384697;362.5384697;['g', 'o', 'm', 'a'];0;[0.9160247002728283, 0.9947552001103759, 1.0907008000649512, 1.1854216000065207];goma;C:\2023\REPSWITCH21092023\REPSWITCH_excgange\REPSWITCH_excgange\data/310104_REPSWITCH1_version1_list4_2023-12-05_15h16.56.963_micRespv1l4_recorded\recording_micRespv1l4_2023-12-05_15h22.47.517.wav;362.5384697;363.038538;None;;;;;;310104;1;2023-12-05_15h16.56.963;REPSWITCH1_version1_list4;2022.2.4;143.8919315;
REPSWITCH1/PICTURE_175.png;pintor;speak;gold;filler;2;F;3;4;4;1;Stim1_Set2;0;None;73;72;73;0;72;72;72;;;;;;;;;;;;;;;;;;;;;;;363.038538;364.2678452;364.2678452;364.2678452;364.2678452;364.2678452;364.2678452;364.2678452;364.2678452;367.2891641;367.2891641;367.2891641;367.2891641;367.2891641;367.2891641;None;0;;;C:\2023\REPSWITCH21092023\REPSWITCH_excgange\REPSWITCH_excgange\data/310104_REPSWITCH1_version1_list4_2023-12-05_15h16.56.963_micRespv1l4_recorded\recording_micRespv1l4_2023-12-05_15h22.52.268.wav;367.2891641;367.7891555;None;;;;;;310104;1;2023-12-05_15h16.56.963;REPSWITCH1_version1_list4;2022.2.4;143.8919315;
REPSWITCH1/PICTURE_235.png;aguja;type;darkblue;nontarget;1;NT;3;4;4;1;Stim4_Set3;1;switch;74;73;74;0;73;73;73;;;;;;;;;;;;;;;;;;;;;;;367.7891555;368.84492;368.84492;368.84492;368.84492;368.84492;368.84492;368.84492;368.84492;371.8660615;371.8660615;371.8660615;371.8660615;371.8660615;371.8660615;['a', 'g', 'u', 'j', 'a'];0;[0.8650746000930667, 1.1410940000787377, 1.2217778000049293, 1.3864717003889382, 1.507052400149405];aguja;C:\2023\REPSWITCH21092023\REPSWITCH_excgange\REPSWITCH_excgange\data/310104_REPSWITCH1_version1_list4_2023-12-05_15h16.56.963_micRespv1l4_recorded\recording_micRespv1l4_2023-12-05_15h22.56.845.wav;371.8660615;372.3661355;None;;;;;;310104;1;2023-12-05_15h16.56.963;REPSWITCH1_version1_list4;2022.2.4;143.8919315;
REPSWITCH1/PICTURE_235.png;aguja;type;darkblue;repeat;1;T;3;4;4;1;Stim4_Set3;0;None;75;74;75;0;74;74;74;;;;;;;;;;;;;;;;;;;;;;;372.3661355;373.3871794;373.3871794;373.3871794;373.3871794;373.3871794;373.3871794;373.3871794;373.3871794;376.4083064;376.4083064;376.4083064;376.4083064;376.4083064;376.4083064;['a', 'g', 'u', 'j', 'a'];0;[0.8346799998544157, 1.0803625998087227, 1.1600855998694897, 1.282383999787271, 1.3969248998910189];aguja;C:\2023\REPSWITCH21092023\REPSWITCH_excgange\REPSWITCH_excgange\data/310104_REPSWITCH1_version1_list4_2023-12-05_15h16.56.963_micRespv1l4_recorded\recording_micRespv1l4_2023-12-05_15h23.01.386.wav;376.4083064;376.9084141;None;;;;;;310104;1;2023-12-05_15h16.56.963;REPSWITCH1_version1_list4;2022.2.4;143.8919315;
REPSWITCH1/PICTURE_576.png;guante;type;darkblue;filler;1;F;4;4;4;1;Stim1_Set3;1;repeat;76;75;76;0;75;75;75;;;;;;;;;;;;;;;;;;;;;;;376.9084141;377.9294534;377.9294534;377.9294534;377.9294534;377.9294534;377.9294534;377.9294534;377.9294534;380.9506065;380.9506065;380.9506065;380.9506065;380.9506065;380.9506065;['g', 'u', 'a', 'n', 't', 'e'];0;[0.9530603000894189, 1.01184260006994, 1.140414800029248, 1.203209700062871, 1.339754699729383, 1.3866002997383475];guante;C:\2023\REPSWITCH21092023\REPSWITCH_excgange\REPSWITCH_excgange\data/310104_REPSWITCH1_version1_list4_2023-12-05_15h16.56.963_micRespv1l4_recorded\recording_micRespv1l4_2023-12-05_15h23.05.929.wav;380.9506065;381.4506463;None;;;;;;310104;1;2023-12-05_15h16.56.963;REPSWITCH1_version1_list4;2022.2.4;143.8919315;
REPSWITCH1/PICTURE_340.png;espejo;speak;gold;filler;2;F;4;4;4;1;Extra1;0;None;77;76;77;0;76;76;76;;;;;;;;;;;;;;;;;;;;;;;381.4506463;382.5410739;382.5410739;382.5410739;382.5410739;382.5410739;382.5410739;382.5410739;382.5410739;385.5623276;385.5623276;385.5623276;385.5623276;385.5623276;385.5623276;None;0;;;C:\2023\REPSWITCH21092023\REPSWITCH_excgange\REPSWITCH_excgange\data/310104_REPSWITCH1_version1_list4_2023-12-05_15h16.56.963_micRespv1l4_recorded\recording_micRespv1l4_2023-12-05_15h23.10.541.wav;385.5623276;386.0623889;None;;;;;;310104;1;2023-12-05_15h16.56.963;REPSWITCH1_version1_list4;2022.2.4;143.8919315;
REPSWITCH1/PICTURE_464.png;goma;speak;gold;filler;2;F;4;4;4;1;Stim6_Set3;1;repeat;78;77;78;0;77;77;77;;;;;;;;;;;;;;;;;;;;;;;386.0623889;387.0833691;387.0833691;387.0833691;387.0833691;387.0833691;387.0833691;387.0833691;387.0833691;390.1045668;390.1045668;390.1045668;390.1045668;390.1045668;390.1045668;None;0;;;C:\2023\REPSWITCH21092023\REPSWITCH_excgange\REPSWITCH_excgange\data/310104_REPSWITCH1_version1_list4_2023-12-05_15h16.56.963_micRespv1l4_recorded\recording_micRespv1l4_2023-12-05_15h23.15.083.wav;390.1045668;390.6046256;None;;;;;;310104;1;2023-12-05_15h16.56.963;REPSWITCH1_version1_list4;2022.2.4;143.8919315;
REPSWITCH1/PICTURE_338.png;regalo;type;darkblue;nontarget;1;NT;4;4;4;1;Stim6_Set4;0;None;79;78;79;0;78;78;78;;;;;;;;;;;;;;;;;;;;;;;390.6046256;391.7367587;391.7367587;391.7367587;391.7367587;391.7367587;391.7367587;391.7367587;391.7367587;394.7580515;394.7580515;394.7580515;394.7580515;394.7580515;394.7580515;['r', 'e', 'g', 'a', 'l', 'o'];0;[0.957228499930352, 1.0292785000056028, 1.166213999968022, 1.3429501997306943, 1.4575602998957038, 1.5901147001422942];regalo;C:\2023\REPSWITCH21092023\REPSWITCH_excgange\REPSWITCH_excgange\data/310104_REPSWITCH1_version1_list4_2023-12-05_15h16.56.963_micRespv1l4_recorded\recording_micRespv1l4_2023-12-05_15h23.19.736.wav;394.7580515;395.2580468;None;;;;;;310104;1;2023-12-05_15h16.56.963;REPSWITCH1_version1_list4;2022.2.4;143.8919315;
REPSWITCH1/PICTURE_338.png;regalo;type;darkblue;repeat;1;T;4;4;4;1;Stim6_Set4;0;None;80;79;80;0;79;79;79;;;;;;;;;;;;;;;;;;;;;;;395.2580468;396.4040069;396.4040069;396.4040069;396.4040069;396.4040069;396.4040069;396.4040069;396.4040069;399.4322028;399.4322028;399.4322028;399.4322028;399.4322028;399.4322028;['r', 'e', 'g', 'a', 'l', 'o'];0;[0.7317522000521421, 0.778568200301379, 0.931056700181216, 1.0808014003559947, 1.1386068002320826, 1.2552305003628135];regalo;C:\2023\REPSWITCH21092023\REPSWITCH_excgange\REPSWITCH_excgange\data/310104_REPSWITCH1_version1_list4_2023-12-05_15h16.56.963_micRespv1l4_recorded\recording_micRespv1l4_2023-12-05_15h23.24.404.wav;399.4322028;;None;;;;;;310104;1;2023-12-05_15h16.56.963;REPSWITCH1_version1_list4;2022.2.4;143.8919315;
REPSWITCH1/PICTURE_8.png;pierna;type;darkblue;nontarget;1;NT;4;4;4;1;Stim3_Set4;1;repeat;81;80;81;0;80;80;80;;;;;;;;;;;;;;;;;;;;;;;399.9322624;400.981002;400.981002;400.981002;400.981002;400.981002;400.981002;400.981002;400.981002;404.0023129;404.0023129;404.0023129;404.0023129;404.0023129;404.0023129;['p', 'i', 'e', 'r', 'n', 'a'];0;[0.8727722996845841, 1.0392132997512817, 1.2056189998984337, 1.2933629998005927, 1.3969720997847617, 1.5165654998272657];pierna;C:\2023\REPSWITCH21092023\REPSWITCH_excgange\REPSWITCH_excgange\data/310104_REPSWITCH1_version1_list4_2023-12-05_15h16.56.963_micRespv1l4_recorded\recording_micRespv1l4_2023-12-05_15h23.28.980.wav;404.0023129;404.5023128;None;;;;;;310104;1;2023-12-05_15h16.56.963;REPSWITCH1_version1_list4;2022.2.4;143.8919315;
REPSWITCH1/PICTURE_8.png;pierna;speak;gold;switch;2;T;4;4;4;1;Stim3_Set4;0;None;82;81;82;0;81;81;81;;;;;;;;;;;;;;;;;;;;;;;404.5023128;405.6135554;405.6135554;405.6135554;405.6135554;405.6135554;405.6135554;405.6135554;405.6135554;408.6348042;408.6348042;408.6348042;408.6348042;408.6348042;408.6348042;None;0;;;C:\2023\REPSWITCH21092023\REPSWITCH_excgange\REPSWITCH_excgange\data/310104_REPSWITCH1_version1_list4_2023-12-05_15h16.56.963_micRespv1l4_recorded\recording_micRespv1l4_2023-12-05_15h23.33.613.wav;408.6348042;409.1348646;None;;;;;;310104;1;2023-12-05_15h16.56.963;REPSWITCH1_version1_list4;2022.2.4;143.8919315;
REPSWITCH1/PICTURE_271.png;conejo;type;darkblue;filler;1;F;4;4;4;1;Stim7_Set3;0;None;83;82;83;0;82;82;82;;;;;;;;;;;;;;;;;;;;;;;409.1348646;410.2044338;410.2044338;410.2044338;410.2044338;410.2044338;410.2044338;410.2044338;410.2044338;413.2326237;413.2326237;413.2326237;413.2326237;413.2326237;413.2326237;['c', 'o', 'n', 'e', 'j', 'o'];0;[0.9921238999813795, 1.0758763998746872, 1.1375210997648537, 1.2188395000994205, 1.349207399878651, 1.4120296998880804];conejo;C:\2023\REPSWITCH21092023\REPSWITCH_excgange\REPSWITCH_excgange\data/310104_REPSWITCH1_version1_list4_2023-12-05_15h16.56.963_micRespv1l4_recorded\recording_micRespv1l4_2023-12-05_15h23.38.205.wav;413.2326237;;None;;;;;;310104;1;2023-12-05_15h16.56.963;REPSWITCH1_version1_list4;2022.2.4;143.8919315;
REPSWITCH1/PICTURE_687.png;camisa;speak;gold;nontarget;2;NT;4;4;4;1;Stim5_Set4;1;switch;84;83;84;0;83;83;83;;;;;;;;;;;;;;;;;;;;;;;413.7326628;414.8161426;414.8161426;414.8161426;414.8161426;414.8161426;414.8161426;414.8161426;414.8161426;417.8374025;417.8374025;417.8374025;417.8374025;417.8374025;417.8374025;None;0;;;C:\2023\REPSWITCH21092023\REPSWITCH_excgange\REPSWITCH_excgange\data/310104_REPSWITCH1_version1_list4_2023-12-05_15h16.56.963_micRespv1l4_recorded\recording_micRespv1l4_2023-12-05_15h23.42.815.wav;417.8374025;418.3375266;None;;;;;;310104;1;2023-12-05_15h16.56.963;REPSWITCH1_version1_list4;2022.2.4;143.8919315;
REPSWITCH1/PICTURE_687.png;camisa;speak;gold;repeat;2;T;4;4;4;1;Stim5_Set4;0;None;85;84;85;0;84;84;84;;;;;;;;;;;;;;;;;;;;;;;418.3375266;419.4070295;419.4070295;419.4070295;419.4070295;419.4070295;419.4070295;419.4070295;419.4070295;422.4282655;422.4282655;422.4282655;422.4282655;422.4282655;422.4282655;None;0;;;C:\2023\REPSWITCH21092023\REPSWITCH_excgange\REPSWITCH_excgange\data/310104_REPSWITCH1_version1_list4_2023-12-05_15h16.56.963_micRespv1l4_recorded\recording_micRespv1l4_2023-12-05_15h23.47.406.wav;422.4282655;422.9283385;None;;;;;;310104;1;2023-12-05_15h16.56.963;REPSWITCH1_version1_list4;2022.2.4;143.8919315;
REPSWITCH1/PICTURE_319.png;vaca;speak;gold;nontarget;2;NT;4;4;4;1;Stim1_Set4;0;None;86;85;86;0;85;85;85;;;;;;;;;;;;;;;;;;;;;;;422.9283385;423.9979129;423.9979129;423.9979129;423.9979129;423.9979129;423.9979129;423.9979129;423.9979129;427.0260904;427.0260904;427.0260904;427.0260904;427.0260904;427.0260904;None;0;;;C:\2023\REPSWITCH21092023\REPSWITCH_excgange\REPSWITCH_excgange\data/310104_REPSWITCH1_version1_list4_2023-12-05_15h16.56.963_micRespv1l4_recorded\recording_micRespv1l4_2023-12-05_15h23.51.997.wav;427.0260904;;None;;;;;;310104;1;2023-12-05_15h16.56.963;REPSWITCH1_version1_list4;2022.2.4;143.8919315;
REPSWITCH1/PICTURE_319.png;vaca;type;darkblue;switch;1;T;4;4;4;1;Stim1_Set4;0;None;87;86;87;0;86;86;86;;;;;;;;;;;;;;;;;;;;;;;427.5261516;428.5818439;428.5818439;428.5818439;428.5818439;428.5818439;428.5818439;428.5818439;428.5818439;431.6031005;431.6031005;431.6031005;431.6031005;431.6031005;431.6031005;['v', 'a', 'c', 'a'];0;[0.9570948001928627, 1.084625800140202, 1.2407944002188742, 1.354366000276059];vaca;C:\2023\REPSWITCH21092023\REPSWITCH_excgange\REPSWITCH_excgange\data/310104_REPSWITCH1_version1_list4_2023-12-05_15h16.56.963_micRespv1l4_recorded\recording_micRespv1l4_2023-12-05_15h23.56.580.wav;431.6031005;432.1031548;None;;;;;;310104;1;2023-12-05_15h16.56.963;REPSWITCH1_version1_list4;2022.2.4;143.8919315;
REPSWITCH1/PICTURE_242.png;cartero;speak;gold;filler;2;F;4;4;4;1;Stim3_Set3;0;None;88;87;88;0;87;87;87;;;;;;;;;;;;;;;;;;;;;;;432.1031548;433.165781;433.165781;433.165781;433.165781;433.165781;433.165781;433.165781;433.165781;436.1870296;436.1870296;436.1870296;436.1870296;436.1870296;436.1870296;None;0;;;C:\2023\REPSWITCH21092023\REPSWITCH_excgange\REPSWITCH_excgange\data/310104_REPSWITCH1_version1_list4_2023-12-05_15h16.56.963_micRespv1l4_recorded\recording_micRespv1l4_2023-12-05_15h24.01.165.wav;436.1870296;436.6870953;None;;;;;;310104;1;2023-12-05_15h16.56.963;REPSWITCH1_version1_list4;2022.2.4;143.8919315;
REPSWITCH1/PICTURE_498.png;taza;type;darkblue;nontarget;1;NT;4;4;4;1;Stim4_Set4;1;switch;89;88;89;0;88;88;88;;;;;;;;;;;;;;;;;;;;;;;436.6870953;437.8191757;437.8191757;437.8191757;437.8191757;437.8191757;437.8191757;437.8191757;437.8191757;440.8403748;440.8403748;440.8403748;440.8403748;440.8403748;440.8403748;['t', 'a', 'z', 'a'];0;[0.9718824001029134, 1.1392930001020432, 1.3156853001564741, 1.4652197998948395];taza;C:\2023\REPSWITCH21092023\REPSWITCH_excgange\REPSWITCH_excgange\data/310104_REPSWITCH1_version1_list4_2023-12-05_15h16.56.963_micRespv1l4_recorded\recording_micRespv1l4_2023-12-05_15h24.05.819.wav;440.8403748;441.3404671;None;;;;;;310104;1;2023-12-05_15h16.56.963;REPSWITCH1_version1_list4;2022.2.4;143.8919315;
REPSWITCH1/PICTURE_498.png;taza;speak;gold;switch;2;T;4;4;4;1;Stim4_Set4;0;None;90;89;90;0;89;89;89;;;;;;;;;;;;;;;;;;;;;;;441.3404671;442.4378343;442.4378343;442.4378343;442.4378343;442.4378343;442.4378343;442.4378343;442.4378343;445.4591159;445.4591159;445.4591159;445.4591159;445.4591159;445.4591159;None;0;;;C:\2023\REPSWITCH21092023\REPSWITCH_excgange\REPSWITCH_excgange\data/310104_REPSWITCH1_version1_list4_2023-12-05_15h16.56.963_micRespv1l4_recorded\recording_micRespv1l4_2023-12-05_15h24.10.437.wav;445.4591159;445.9591405;None;;;;;;310104;1;2023-12-05_15h16.56.963;REPSWITCH1_version1_list4;2022.2.4;143.8919315;
REPSWITCH1/PICTURE_391.png;cadena;type;darkblue;filler;1;F;4;4;4;1;Extra2;0;None;91;90;91;0;90;90;90;;;;;;;;;;;;;;;;;;;;;;;445.9591405;447.0079502;447.0079502;447.0079502;447.0079502;447.0079502;447.0079502;447.0079502;447.0079502;450.0291225;450.0291225;450.0291225;450.0291225;450.0291225;450.0291225;['c', 'a', 'd', 'e', 'n', 'a'];0;[0.8924163999035954, 1.0386165999807417, 1.1465843999758363, 1.2333812001161277, 1.3439364000223577, 1.4306145003065467];cadena;C:\2023\REPSWITCH21092023\REPSWITCH_excgange\REPSWITCH_excgange\data/310104_REPSWITCH1_version1_list4_2023-12-05_15h16.56.963_micRespv1l4_recorded\recording_micRespv1l4_2023-12-05_15h24.15.007.wav;450.0291225;450.5291742;None;;;;;;310104;1;2023-12-05_15h16.56.963;REPSWITCH1_version1_list4;2022.2.4;143.8919315;
REPSWITCH1/PICTURE_610.png;miel;speak;gold;filler;2;F;4;4;4;1;Stim2_Set3;0;None;92;91;92;0;91;91;91;;;;;;;;;;;;;;;;;;;;;;;450.5291742;451.6543139;451.6543139;451.6543139;451.6543139;451.6543139;451.6543139;451.6543139;451.6543139;454.6825019;454.6825019;454.6825019;454.6825019;454.6825019;454.6825019;None;0;;;C:\2023\REPSWITCH21092023\REPSWITCH_excgange\REPSWITCH_excgange\data/310104_REPSWITCH1_version1_list4_2023-12-05_15h16.56.963_micRespv1l4_recorded\recording_micRespv1l4_2023-12-05_15h24.19.654.wav;454.6825019;;None;;;;;;310104;1;2023-12-05_15h16.56.963;REPSWITCH1_version1_list4;2022.2.4;143.8919315;
REPSWITCH1/PICTURE_48.png;bombero;speak;gold;nontarget;2;NT;4;4;4;1;Stim7_Set4;1;repeat;93;92;93;0;92;92;92;;;;;;;;;;;;;;;;;;;;;;;455.1825481;456.2382884;456.2382884;456.2382884;456.2382884;456.2382884;456.2382884;456.2382884;456.2382884;459.2594911;459.2594911;459.2594911;459.2594911;459.2594911;459.2594911;None;0;;;C:\2023\REPSWITCH21092023\REPSWITCH_excgange\REPSWITCH_excgange\data/310104_REPSWITCH1_version1_list4_2023-12-05_15h16.56.963_micRespv1l4_recorded\recording_micRespv1l4_2023-12-05_15h24.24.238.wav;459.2594911;459.7595398;None;;;;;;310104;1;2023-12-05_15h16.56.963;REPSWITCH1_version1_list4;2022.2.4;143.8919315;
REPSWITCH1/PICTURE_48.png;bombero;speak;gold;repeat;2;T;4;4;4;1;Stim7_Set4;0;None;94;93;94;0;93;93;93;;;;;;;;;;;;;;;;;;;;;;;459.7595398;460.9681567;460.9681567;460.9681567;460.9681567;460.9681567;460.9681567;460.9681567;460.9681567;463.9892522;463.9892522;463.9892522;463.9892522;463.9892522;463.9892522;None;0;;;C:\2023\REPSWITCH21092023\REPSWITCH_excgange\REPSWITCH_excgange\data/310104_REPSWITCH1_version1_list4_2023-12-05_15h16.56.963_micRespv1l4_recorded\recording_micRespv1l4_2023-12-05_15h24.28.968.wav;463.9892522;464.4893559;None;;;;;;310104;1;2023-12-05_15h16.56.963;REPSWITCH1_version1_list4;2022.2.4;143.8919315;
REPSWITCH1/PICTURE_320.png;iglesia;type;darkblue;filler;1;F;4;4;4;1;Stim8_Set3;1;switch;95;94;95;0;94;94;94;;;;;;;;;;;;;;;;;;;;;;;464.4893559;465.5797979;465.5797979;465.5797979;465.5797979;465.5797979;465.5797979;465.5797979;465.5797979;468.601045;468.601045;468.601045;468.601045;468.601045;468.601045;['i', 'g', 'l', 'e', 's', 'a', 'backspace', 'i', 'a'];0;[1.0552489999681711, 1.2176645998843014, 1.3213569996878505, 1.4100210000760853, 1.575508899986744, 1.8044229997321963, 2.18834749981761, 2.5374580998905003, 2.609214599709958];iglesia;C:\2023\REPSWITCH21092023\REPSWITCH_excgange\REPSWITCH_excgange\data/310104_REPSWITCH1_version1_list4_2023-12-05_15h16.56.963_micRespv1l4_recorded\recording_micRespv1l4_2023-12-05_15h24.33.579.wav;468.601045;469.1010686;None;;;;;;310104;1;2023-12-05_15h16.56.963;REPSWITCH1_version1_list4;2022.2.4;143.8919315;
REPSWITCH1/PICTURE_35.png;oreja;speak;gold;filler;2;F;4;4;4;1;Stim5_Set3;0;None;96;95;96;0;95;95;95;;;;;;;;;;;;;;;;;;;;;;;469.1010686;470.2679256;470.2679256;470.2679256;470.2679256;470.2679256;470.2679256;470.2679256;470.2679256;473.2890926;473.2890926;473.2890926;473.2890926;473.2890926;473.2890926;None;0;;;C:\2023\REPSWITCH21092023\REPSWITCH_excgange\REPSWITCH_excgange\data/310104_REPSWITCH1_version1_list4_2023-12-05_15h16.56.963_micRespv1l4_recorded\recording_micRespv1l4_2023-12-05_15h24.38.268.wav;473.2890926;473.7891711;None;;;;;;310104;1;2023-12-05_15h16.56.963;REPSWITCH1_version1_list4;2022.2.4;143.8919315;
REPSWITCH1/PICTURE_728.png;pulpo;speak;gold;nontarget;2;NT;4;4;4;1;Stim8_Set4;1;repeat;97;96;97;0;96;96;96;;;;;;;;;;;;;;;;;;;;;;;473.7891711;474.886538;474.886538;474.886538;474.886538;474.886538;474.886538;474.886538;474.886538;477.907775;477.907775;477.907775;477.907775;477.907775;477.907775;None;0;;;C:\2023\REPSWITCH21092023\REPSWITCH_excgange\REPSWITCH_excgange\data/310104_REPSWITCH1_version1_list4_2023-12-05_15h16.56.963_micRespv1l4_recorded\recording_micRespv1l4_2023-12-05_15h24.42.886.wav;477.907775;478.4079124;None;;;;;;310104;1;2023-12-05_15h16.56.963;REPSWITCH1_version1_list4;2022.2.4;143.8919315;
REPSWITCH1/PICTURE_728.png;pulpo;type;darkblue;switch;1;T;4;4;4;1;Stim8_Set4;0;None;98;97;98;0;97;97;97;;;;;;;;;;;;;;;;;;;;;;;478.4079124;479.4496634;479.4496634;479.4496634;479.4496634;479.4496634;479.4496634;479.4496634;479.4496634;482.4708884;482.4708884;482.4708884;482.4708884;482.4708884;482.4708884;['p', 'u', 'l', 'p', 'o'];0;[0.894717900082469, 1.1170130004175007, 1.3345529004000127, 1.5573384002782404, 1.6881675003096461];pulpo;C:\2023\REPSWITCH21092023\REPSWITCH_excgange\REPSWITCH_excgange\data/310104_REPSWITCH1_version1_list4_2023-12-05_15h16.56.963_micRespv1l4_recorded\recording_micRespv1l4_2023-12-05_15h24.47.449.wav;482.4708884;482.9709348;None;;;;;;310104;1;2023-12-05_15h16.56.963;REPSWITCH1_version1_list4;2022.2.4;143.8919315;
REPSWITCH1/PICTURE_590.png;escoba;speak;gold;filler;2;F;4;4;4;1;Extra3;0;None;99;98;99;0;98;98;98;;;;;;;;;;;;;;;;;;;;;;;482.9709348;484.0753075;484.0753075;484.0753075;484.0753075;484.0753075;484.0753075;484.0753075;484.0753075;487.0964928;487.0964928;487.0964928;487.0964928;487.0964928;487.0964928;None;0;;;C:\2023\REPSWITCH21092023\REPSWITCH_excgange\REPSWITCH_excgange\data/310104_REPSWITCH1_version1_list4_2023-12-05_15h16.56.963_micRespv1l4_recorded\recording_micRespv1l4_2023-12-05_15h24.52.075.wav;487.0964928;487.5965248;None;;;;;;310104;1;2023-12-05_15h16.56.963;REPSWITCH1_version1_list4;2022.2.4;143.8919315;
REPSWITCH1/PICTURE_235.png;aguja;type;darkblue;filler;1;F;4;4;4;1;Stim4_Set3;0;None;100;99;100;0;99;99;99;;;;;;;;;;;;;;;;;;;;;;;487.5965248;488.7703111;488.7703111;488.7703111;488.7703111;488.7703111;488.7703111;488.7703111;488.7703111;491.7915118;491.7915118;491.7915118;491.7915118;491.7915118;491.7915118;['a', 'g', 'u', 'j', 'a'];0;[0.802167400252074, 1.0244704000651836, 1.0922286002896726, 1.2896447000093758, 1.4112519999034703];aguja;C:\2023\REPSWITCH21092023\REPSWITCH_excgange\REPSWITCH_excgange\data/310104_REPSWITCH1_version1_list4_2023-12-05_15h16.56.963_micRespv1l4_recorded\recording_micRespv1l4_2023-12-05_15h24.56.770.wav;491.7915118;492.2916615;None;;;;;;310104;1;2023-12-05_15h16.56.963;REPSWITCH1_version1_list4;2022.2.4;143.8919315;
REPSWITCH1/PICTURE_719.png;baño;type;darkblue;nontarget;1;NT;4;4;4;1;Stim2_Set4;1;repeat;101;100;101;0;100;100;100;;;;;;;;;;;;;;;;;;;;;;;492.2916615;493.4307066;493.4307066;493.4307066;493.4307066;493.4307066;493.4307066;493.4307066;493.4307066;496.4518841;496.4518841;496.4518841;496.4518841;496.4518841;496.4518841;['b', 'a', 'ñ', 'o'];0;[1.5094632003456354, 1.66365410014987, 1.8939953004010022, 1.9888043003156781];baño;C:\2023\REPSWITCH21092023\REPSWITCH_excgange\REPSWITCH_excgange\data/310104_REPSWITCH1_version1_list4_2023-12-05_15h16.56.963_micRespv1l4_recorded\recording_micRespv1l4_2023-12-05_15h25.01.430.wav;496.4518841;496.9519485;None;;;;;;310104;1;2023-12-05_15h16.56.963;REPSWITCH1_version1_list4;2022.2.4;143.8919315;
REPSWITCH1/PICTURE_719.png;baño;type;darkblue;repeat;1;T;4;4;4;1;Stim2_Set4;0;None;102;101;102;0;101;101;101;;;;;;;;;;;;;;;;;;;;;;;496.9519485;498.0841057;498.0841057;498.0841057;498.0841057;498.0841057;498.0841057;498.0841057;498.0841057;501.1122125;501.1122125;501.1122125;501.1122125;501.1122125;501.1122125;['b', 'a', 'ñ', 'o'];0;[0.8213311997242272, 1.0116739999502897, 1.1105133998207748, 1.2051937999203801];baño;C:\2023\REPSWITCH21092023\REPSWITCH_excgange\REPSWITCH_excgange\data/310104_REPSWITCH1_version1_list4_2023-12-05_15h16.56.963_micRespv1l4_recorded\recording_micRespv1l4_2023-12-05_15h25.06.084.wav;501.1122125;;space;501.6122439;501.6122439;8.6082023;;;310104;1;2023-12-05_15h16.56.963;REPSWITCH1_version1_list4;2022.2.4;143.8919315;
REPSWITCH1/PICTURE_646.png;tronco;speak;gold;filler;2;F;1;3;4;1;Extra4;0;None;103;102;1;0;102;102;102;;;;;;;;;;;;;;;;;;;;;;;510.2314468;511.3774515;511.3774515;511.3774515;511.3774515;511.3774515;511.3774515;511.3774515;511.3774515;514.405659;514.405659;514.405659;514.405659;514.405659;514.405659;None;0;;;C:\2023\REPSWITCH21092023\REPSWITCH_excgange\REPSWITCH_excgange\data/310104_REPSWITCH1_version1_list4_2023-12-05_15h16.56.963_micRespv1l4_recorded\recording_micRespv1l4_2023-12-05_15h25.19.377.wav;514.405659;;None;;;;;;310104;1;2023-12-05_15h16.56.963;REPSWITCH1_version1_list4;2022.2.4;143.8919315;
REPSWITCH1/PICTURE_340.png;espejo;type;darkblue;filler;1;F;1;3;4;1;Extra1;0;None;104;103;2;0;103;103;103;;;;;;;;;;;;;;;;;;;;;;;514.9056677;515.926674;515.926674;515.926674;515.926674;515.926674;515.926674;515.926674;515.926674;518.9478613;518.9478613;518.9478613;518.9478613;518.9478613;518.9478613;['e', 's', 'p', 'e', 'j', 'o'];0;[0.782514899969101, 0.8861724003218114, 1.059321700129658, 1.1803003000095487, 1.506650900002569, 1.577461200300604];espejo;C:\2023\REPSWITCH21092023\REPSWITCH_excgange\REPSWITCH_excgange\data/310104_REPSWITCH1_version1_list4_2023-12-05_15h16.56.963_micRespv1l4_recorded\recording_micRespv1l4_2023-12-05_15h25.23.926.wav;518.9478613;519.4479597;None;;;;;;310104;1;2023-12-05_15h16.56.963;REPSWITCH1_version1_list4;2022.2.4;143.8919315;
REPSWITCH1/PICTURE_338.png;regalo;speak;gold;filler;2;F;1;3;4;1;Stim6_Set4;0;None;105;104;3;0;104;104;104;;;;;;;;;;;;;;;;;;;;;;;519.4479597;520.5592197;520.5592197;520.5592197;520.5592197;520.5592197;520.5592197;520.5592197;520.5592197;523.5804469;523.5804469;523.5804469;523.5804469;523.5804469;523.5804469;None;0;;;C:\2023\REPSWITCH21092023\REPSWITCH_excgange\REPSWITCH_excgange\data/310104_REPSWITCH1_version1_list4_2023-12-05_15h16.56.963_micRespv1l4_recorded\recording_micRespv1l4_2023-12-05_15h25.28.559.wav;523.5804469;524.0805629;None;;;;;;310104;1;2023-12-05_15h16.56.963;REPSWITCH1_version1_list4;2022.2.4;143.8919315;
REPSWITCH1/PICTURE_142.png;vaso;speak;gold;nontarget;2;NT;1;3;4;1;Stim7_Set1;1;repeat;106;105;4;0;105;105;105;;;;;;;;;;;;;;;;;;;;;;;524.0805629;525.1015081;525.1015081;525.1015081;525.1015081;525.1015081;525.1015081;525.1015081;525.1015081;528.1226825;528.1226825;528.1226825;528.1226825;528.1226825;528.1226825;None;0;;;C:\2023\REPSWITCH21092023\REPSWITCH_excgange\REPSWITCH_excgange\data/310104_REPSWITCH1_version1_list4_2023-12-05_15h16.56.963_micRespv1l4_recorded\recording_micRespv1l4_2023-12-05_15h25.33.100.wav;528.1226825;528.6228371;None;;;;;;310104;1;2023-12-05_15h16.56.963;REPSWITCH1_version1_list4;2022.2.4;143.8919315;
REPSWITCH1/PICTURE_142.png;vaso;speak;gold;repeat;2;T;1;3;4;1;Stim7_Set1;0;None;107;106;5;0;106;106;106;;;;;;;;;;;;;;;;;;;;;;;528.6228371;529.7548773;529.7548773;529.7548773;529.7548773;529.7548773;529.7548773;529.7548773;529.7548773;532.7761634;532.7761634;532.7761634;532.7761634;532.7761634;532.7761634;None;0;;;C:\2023\REPSWITCH21092023\REPSWITCH_excgange\REPSWITCH_excgange\data/310104_REPSWITCH1_version1_list4_2023-12-05_15h16.56.963_micRespv1l4_recorded\recording_micRespv1l4_2023-12-05_15h25.37.754.wav;532.7761634;533.2761851;None;;;;;;310104;1;2023-12-05_15h16.56.963;REPSWITCH1_version1_list4;2022.2.4;143.8919315;
REPSWITCH1/PICTURE_498.png;taza;type;darkblue;filler;1;F;1;3;4;1;Stim4_Set4;0;None;108;107;6;0;107;107;107;;;;;;;;;;;;;;;;;;;;;;;533.2761851;534.2902045;534.2902045;534.2902045;534.2902045;534.2902045;534.2902045;534.2902045;534.2902045;537.3113778;537.3113778;537.3113778;537.3113778;537.3113778;537.3113778;['t', 'a', 'z', 'a'];0;[0.8601452000439167, 1.0498184999451041, 1.2399409003555775, 1.3936685002408922];taza;C:\2023\REPSWITCH21092023\REPSWITCH_excgange\REPSWITCH_excgange\data/310104_REPSWITCH1_version1_list4_2023-12-05_15h16.56.963_micRespv1l4_recorded\recording_micRespv1l4_2023-12-05_15h25.42.290.wav;537.3113778;537.8114719;None;;;;;;310104;1;2023-12-05_15h16.56.963;REPSWITCH1_version1_list4;2022.2.4;143.8919315;
REPSWITCH1/PICTURE_16.png;cazador;speak;gold;nontarget;2;NT;1;3;4;1;Stim6_Set1;1;switch;109;108;7;0;108;108;108;;;;;;;;;;;;;;;;;;;;;;;537.8114719;538.9783169;538.9783169;538.9783169;538.9783169;538.9783169;538.9783169;538.9783169;538.9783169;541.9995087;541.9995087;541.9995087;541.9995087;541.9995087;541.9995087;None;0;;;C:\2023\REPSWITCH21092023\REPSWITCH_excgange\REPSWITCH_excgange\data/310104_REPSWITCH1_version1_list4_2023-12-05_15h16.56.963_micRespv1l4_recorded\recording_micRespv1l4_2023-12-05_15h25.46.978.wav;541.9995087;542.4996403;None;;;;;;310104;1;2023-12-05_15h16.56.963;REPSWITCH1_version1_list4;2022.2.4;143.8919315;
REPSWITCH1/PICTURE_16.png;cazador;speak;gold;repeat;2;T;1;3;4;1;Stim6_Set1;0;None;110;109;8;0;109;109;109;;;;;;;;;;;;;;;;;;;;;;;542.4996403;543.6802901;543.6802901;543.6802901;543.6802901;543.6802901;543.6802901;543.6802901;543.6802901;546.7014998;546.7014998;546.7014998;546.7014998;546.7014998;546.7014998;None;0;;;C:\2023\REPSWITCH21092023\REPSWITCH_excgange\REPSWITCH_excgange\data/310104_REPSWITCH1_version1_list4_2023-12-05_15h16.56.963_micRespv1l4_recorded\recording_micRespv1l4_2023-12-05_15h25.51.680.wav;546.7014998;547.2015616;None;;;;;;310104;1;2023-12-05_15h16.56.963;REPSWITCH1_version1_list4;2022.2.4;143.8919315;
REPSWITCH1/PICTURE_719.png;baño;type;darkblue;filler;1;F;1;3;4;1;Stim2_Set4;0;None;111;110;9;0;110;110;110;;;;;;;;;;;;;;;;;;;;;;;547.2015616;548.4031572;548.4031572;548.4031572;548.4031572;548.4031572;548.4031572;548.4031572;548.4031572;551.4313883;551.4313883;551.4313883;551.4313883;551.4313883;551.4313883;['b', 'a', 'ñ', 'o'];0;[1.093606499955058, 1.4683183999732137, 1.6006068997085094, 1.6782065997831523];baño;C:\2023\REPSWITCH21092023\REPSWITCH_excgange\REPSWITCH_excgange\data/310104_REPSWITCH1_version1_list4_2023-12-05_15h16.56.963_micRespv1l4_recorded\recording_micRespv1l4_2023-12-05_15h25.56.403.wav;551.4313883;;None;;;;;;310104;1;2023-12-05_15h16.56.963;REPSWITCH1_version1_list4;2022.2.4;143.8919315;
REPSWITCH1/PICTURE_169.png;espalda;speak;gold;nontarget;2;NT;1;3;4;1;Stim8_Set1;0;None;112;111;10;0;111;111;111;;;;;;;;;;;;;;;;;;;;;;;551.9314551;553.0843348;553.0843348;553.0843348;553.0843348;553.0843348;553.0843348;553.0843348;553.0843348;556.1124744;556.1124744;556.1124744;556.1124744;556.1124744;556.1124744;None;0;;;C:\2023\REPSWITCH21092023\REPSWITCH_excgange\REPSWITCH_excgange\data/310104_REPSWITCH1_version1_list4_2023-12-05_15h16.56.963_micRespv1l4_recorded\recording_micRespv1l4_2023-12-05_15h26.01.084.wav;556.1124744;;None;;;;;;310104;1;2023-12-05_15h16.56.963;REPSWITCH1_version1_list4;2022.2.4;143.8919315;
REPSWITCH1/PICTURE_169.png;espalda;type;darkblue;switch;1;T;1;3;4;1;Stim8_Set1;0;None;113;112;11;0;112;112;112;;;;;;;;;;;;;;;;;;;;;;;556.6125342;557.702994;557.702994;557.702994;557.702994;557.702994;557.702994;557.702994;557.702994;560.724211;560.724211;560.724211;560.724211;560.724211;560.724211;['e', 's', 'p', 'a', 'l', 'd', 'a'];0;[0.8088657003827393, 0.8976216004230082, 0.9603395001031458, 1.118563299998641, 1.2022772002965212, 1.3053230000659823, 1.3831645003519952];espalda;C:\2023\REPSWITCH21092023\REPSWITCH_excgange\REPSWITCH_excgange\data/310104_REPSWITCH1_version1_list4_2023-12-05_15h16.56.963_micRespv1l4_recorded\recording_micRespv1l4_2023-12-05_15h26.05.702.wav;560.724211;561.2243394;None;;;;;;310104;1;2023-12-05_15h16.56.963;REPSWITCH1_version1_list4;2022.2.4;143.8919315;
REPSWITCH1/PICTURE_687.png;camisa;type;darkblue;filler;1;F;1;3;4;1;Stim5_Set4;0;None;114;113;12;0;113;113;113;;;;;;;;;;;;;;;;;;;;;;;561.2243394;562.3772701;562.3772701;562.3772701;562.3772701;562.3772701;562.3772701;562.3772701;562.3772701;565.4054444;565.4054444;565.4054444;565.4054444;565.4054444;565.4054444;['c', 'a', 'm', 'i', 's', 'a'];0;[0.8511373000219464, 1.0020031998865306, 1.1125878002494574, 1.2430893001146615, 1.2679952001199126, 1.3527143001556396];camisa;C:\2023\REPSWITCH21092023\REPSWITCH_excgange\REPSWITCH_excgange\data/310104_REPSWITCH1_version1_list4_2023-12-05_15h16.56.963_micRespv1l4_recorded\recording_micRespv1l4_2023-12-05_15h26.10.377.wav;565.4054444;;None;;;;;;310104;1;2023-12-05_15h16.56.963;REPSWITCH1_version1_list4;2022.2.4;143.8919315;
REPSWITCH1/PICTURE_178.png;puente;type;darkblue;nontarget;1;NT;1;3;4;1;Stim1_Set1;1;repeat;115;114;13;0;114;114;114;;;;;;;;;;;;;;;;;;;;;;;565.9054317;566.9750571;566.9750571;566.9750571;566.9750571;566.9750571;566.9750571;566.9750571;566.9750571;569.9962629;569.9962629;569.9962629;569.9962629;569.9962629;569.9962629;['p', 'u', 'e', 'n', 't', 'e'];0;[0.8857197999022901, 1.1039773998782039, 1.1767230997793376, 1.3055941998027265, 1.3607218000106514, 1.4364654999226332];puente;C:\2023\REPSWITCH21092023\REPSWITCH_excgange\REPSWITCH_excgange\data/310104_REPSWITCH1_version1_list4_2023-12-05_15h16.56.963_micRespv1l4_recorded\recording_micRespv1l4_2023-12-05_15h26.14.974.wav;569.9962629;570.4963329;None;;;;;;310104;1;2023-12-05_15h16.56.963;REPSWITCH1_version1_list4;2022.2.4;143.8919315;
REPSWITCH1/PICTURE_178.png;puente;speak;gold;switch;2;T;1;3;4;1;Stim1_Set1;0;None;116;115;14;0;115;115;115;;;;;;;;;;;;;;;;;;;;;;;570.4963329;571.5520043;571.5520043;571.5520043;571.5520043;571.5520043;571.5520043;571.5520043;571.5520043;574.5732656;574.5732656;574.5732656;574.5732656;574.5732656;574.5732656;None;0;;;C:\2023\REPSWITCH21092023\REPSWITCH_excgange\REPSWITCH_excgange\data/310104_REPSWITCH1_version1_list4_2023-12-05_15h16.56.963_micRespv1l4_recorded\recording_micRespv1l4_2023-12-05_15h26.19.552.wav;574.5732656;575.0733792;None;;;;;;310104;1;2023-12-05_15h16.56.963;REPSWITCH1_version1_list4;2022.2.4;143.8919315;
REPSWITCH1/PICTURE_128.png;muñeca;speak;gold;nontarget;2;NT;1;3;4;1;Stim4_Set1;1;repeat;117;116;15;0;116;116;116;;;;;;;;;;;;;;;;;;;;;;;575.0733792;576.1220574;576.1220574;576.1220574;576.1220574;576.1220574;576.1220574;576.1220574;576.1220574;579.1433027;579.1433027;579.1433027;579.1433027;579.1433027;579.1433027;None;0;;;C:\2023\REPSWITCH21092023\REPSWITCH_excgange\REPSWITCH_excgange\data/310104_REPSWITCH1_version1_list4_2023-12-05_15h16.56.963_micRespv1l4_recorded\recording_micRespv1l4_2023-12-05_15h26.24.121.wav;579.1433027;579.6433597;None;;;;;;310104;1;2023-12-05_15h16.56.963;REPSWITCH1_version1_list4;2022.2.4;143.8919315;
REPSWITCH1/PICTURE_128.png;muñeca;type;darkblue;switch;1;T;1;3;4;1;Stim4_Set1;0;None;118;117;16;0;117;117;117;;;;;;;;;;;;;;;;;;;;;;;579.6433597;580.7962673;580.7962673;580.7962673;580.7962673;580.7962673;580.7962673;580.7962673;580.7962673;583.8174951;583.8174951;583.8174951;583.8174951;583.8174951;583.8174951;['m', 'u', 'ñ', 'e', 'c', 'a'];0;[0.6959592001512647, 0.8772999001666903, 1.2420236002653837, 1.3715824000537395, 1.5582075999118388, 1.7127272998914123];muñeca;C:\2023\REPSWITCH21092023\REPSWITCH_excgange\REPSWITCH_excgange\data/310104_REPSWITCH1_version1_list4_2023-12-05_15h16.56.963_micRespv1l4_recorded\recording_micRespv1l4_2023-12-05_15h26.28.796.wav;583.8174951;584.3175603;None;;;;;;310104;1;2023-12-05_15h16.56.963;REPSWITCH1_version1_list4;2022.2.4;143.8919315;
REPSWITCH1/PICTURE_319.png;vaca;speak;gold;filler;2;F;1;3;4;1;Stim1_Set4;1;switch;119;118;17;0;118;118;118;;;;;;;;;;;;;;;;;;;;;;;584.3175603;585.359458;585.359458;585.359458;585.359458;585.359458;585.359458;585.359458;585.359458;588.3806392;588.3806392;588.3806392;588.3806392;588.3806392;588.3806392;None;0;;;C:\2023\REPSWITCH21092023\REPSWITCH_excgange\REPSWITCH_excgange\data/310104_REPSWITCH1_version1_list4_2023-12-05_15h16.56.963_micRespv1l4_recorded\recording_micRespv1l4_2023-12-05_15h26.33.358.wav;588.3806392;588.8806489;None;;;;;;310104;1;2023-12-05_15h16.56.963;REPSWITCH1_version1_list4;2022.2.4;143.8919315;
REPSWITCH1/PICTURE_728.png;pulpo;speak;gold;filler;2;F;1;3;4;1;Stim8_Set4;0;None;120;119;18;0;119;119;119;;;;;;;;;;;;;;;;;;;;;;;588.8806489;590.019718;590.019718;590.019718;590.019718;590.019718;590.019718;590.019718;590.019718;593.0409564;593.0409564;593.0409564;593.0409564;593.0409564;593.0409564;None;0;;;C:\2023\REPSWITCH21092023\REPSWITCH_excgange\REPSWITCH_excgange\data/310104_REPSWITCH1_version1_list4_2023-12-05_15h16.56.963_micRespv1l4_recorded\recording_micRespv1l4_2023-12-05_15h26.38.019.wav;593.0409564;593.5410126;None;;;;;;310104;1;2023-12-05_15h16.56.963;REPSWITCH1_version1_list4;2022.2.4;143.8919315;
REPSWITCH1/PICTURE_381.png;fresa;type;darkblue;nontarget;1;NT;1;3;4;1;Stim2_Set1;1;switch;121;120;19;0;120;120;120;;;;;;;;;;;;;;;;;;;;;;;593.5410126;594.6801196;594.6801196;594.6801196;594.6801196;594.6801196;594.6801196;594.6801196;594.6801196;597.7082349;597.7082349;597.7082349;597.7082349;597.7082349;597.7082349;['f', 'r', 'e', 's', 'a'];0;[0.8223720998503268, 0.9142800997942686, 0.9989885999821126, 1.169375800061971, 1.2601088001392782];fresa;C:\2023\REPSWITCH21092023\REPSWITCH_excgange\REPSWITCH_excgange\data/310104_REPSWITCH1_version1_list4_2023-12-05_15h16.56.963_micRespv1l4_recorded\recording_micRespv1l4_2023-12-05_15h26.42.680.wav;597.7082349;;None;;;;;;310104;1;2023-12-05_15h16.56.963;REPSWITCH1_version1_list4;2022.2.4;143.8919315;
REPSWITCH1/PICTURE_381.png;fresa;type;darkblue;repeat;1;T;1;3;4;1;Stim2_Set1;0;None;122;121;20;0;121;121;121;;;;;;;;;;;;;;;;;;;;;;;598.2082992;599.2778735;599.2778735;599.2778735;599.2778735;599.2778735;599.2778735;599.2778735;599.2778735;602.306067;602.306067;602.306067;602.306067;602.306067;602.306067;['f', 'r', 'e', 's', 'a'];0;[0.8299578996375203, 0.9390630996786058, 1.0127986995503306, 1.2350693996995687, 1.3118195999413729];fresa;C:\2023\REPSWITCH21092023\REPSWITCH_excgange\REPSWITCH_excgange\data/310104_REPSWITCH1_version1_list4_2023-12-05_15h16.56.963_micRespv1l4_recorded\recording_micRespv1l4_2023-12-05_15h26.47.279.wav;602.306067;;None;;;;;;310104;1;2023-12-05_15h16.56.963;REPSWITCH1_version1_list4;2022.2.4;143.8919315;
REPSWITCH1/PICTURE_8.png;pierna;speak;gold;filler;2;F;1;3;4;1;Stim3_Set4;0;None;123;122;21;0;122;122;122;;;;;;;;;;;;;;;;;;;;;;;602.8061217;603.8549506;603.8549506;603.8549506;603.8549506;603.8549506;603.8549506;603.8549506;603.8549506;606.8761062;606.8761062;606.8761062;606.8761062;606.8761062;606.8761062;None;0;;;C:\2023\REPSWITCH21092023\REPSWITCH_excgange\REPSWITCH_excgange\data/310104_REPSWITCH1_version1_list4_2023-12-05_15h16.56.963_micRespv1l4_recorded\recording_micRespv1l4_2023-12-05_15h26.51.855.wav;606.8761062;607.3762424;None;;;;;;310104;1;2023-12-05_15h16.56.963;REPSWITCH1_version1_list4;2022.2.4;143.8919315;
REPSWITCH1/PICTURE_48.png;bombero;speak;gold;filler;2;F;1;3;4;1;Stim7_Set4;0;None;124;123;22;0;123;123;123;;;;;;;;;;;;;;;;;;;;;;;607.3762424;608.6055124;608.6055124;608.6055124;608.6055124;608.6055124;608.6055124;608.6055124;608.6055124;611.6266914;611.6266914;611.6266914;611.6266914;611.6266914;611.6266914;None;0;;;C:\2023\REPSWITCH21092023\REPSWITCH_excgange\REPSWITCH_excgange\data/310104_REPSWITCH1_version1_list4_2023-12-05_15h16.56.963_micRespv1l4_recorded\recording_micRespv1l4_2023-12-05_15h26.56.605.wav;611.6266914;612.1267998;None;;;;;;310104;1;2023-12-05_15h16.56.963;REPSWITCH1_version1_list4;2022.2.4;143.8919315;
REPSWITCH1/PICTURE_135.png;traje;type;darkblue;nontarget;1;NT;1;3;4;1;Stim3_Set1;1;switch;125;124;23;0;124;124;124;;;;;;;;;;;;;;;;;;;;;;;612.1267998;613.1685775;613.1685775;613.1685775;613.1685775;613.1685775;613.1685775;613.1685775;613.1685775;616.196795;616.196795;616.196795;616.196795;616.196795;616.196795;['t', 'r', 'a', 'j', 'e'];0;[0.9543456002138555, 0.9872371000237763, 1.1830688999034464, 1.279748700093478, 1.3727389997802675];traje;C:\2023\REPSWITCH21092023\REPSWITCH_excgange\REPSWITCH_excgange\data/310104_REPSWITCH1_version1_list4_2023-12-05_15h16.56.963_micRespv1l4_recorded\recording_micRespv1l4_2023-12-05_15h27.01.168.wav;616.196795;;None;;;;;;310104;1;2023-12-05_15h16.56.963;REPSWITCH1_version1_list4;2022.2.4;143.8919315;
REPSWITCH1/PICTURE_135.png;traje;type;darkblue;repeat;1;T;1;3;4;1;Stim3_Set1;0;None;126;125;24;0;125;125;125;;;;;;;;;;;;;;;;;;;;;;;616.6968353;617.7664588;617.7664588;617.7664588;617.7664588;617.7664588;617.7664588;617.7664588;617.7664588;620.7945715;620.7945715;620.7945715;620.7945715;620.7945715;620.7945715;['t', 'r', 'a', 'j', 'e'];0;[0.8643339001573622, 0.9050809000618756, 1.1196971000172198, 1.2203387999907136, 1.3179860999807715];traje;C:\2023\REPSWITCH21092023\REPSWITCH_excgange\REPSWITCH_excgange\data/310104_REPSWITCH1_version1_list4_2023-12-05_15h16.56.963_micRespv1l4_recorded\recording_micRespv1l4_2023-12-05_15h27.05.766.wav;620.7945715;;None;;;;;;310104;1;2023-12-05_15h16.56.963;REPSWITCH1_version1_list4;2022.2.4;143.8919315;
REPSWITCH1/PICTURE_19.png;pavo;type;darkblue;nontarget;1;NT;1;3;4;1;Stim5_Set1;1;repeat;127;126;25;0;126;126;126;;;;;;;;;;;;;;;;;;;;;;;621.2946247;622.3225608;622.3225608;622.3225608;622.3225608;622.3225608;622.3225608;622.3225608;622.3225608;625.3507758;625.3507758;625.3507758;625.3507758;625.3507758;625.3507758;['p', 'a', 'v', 'o'];0;[1.0175324999727309, 1.1394207002595067, 1.4995392002165318, 1.6051771002821624];pavo;C:\2023\REPSWITCH21092023\REPSWITCH_excgange\REPSWITCH_excgange\data/310104_REPSWITCH1_version1_list4_2023-12-05_15h16.56.963_micRespv1l4_recorded\recording_micRespv1l4_2023-12-05_15h27.10.323.wav;625.3507758;625.8508224;None;;;;;;310104;1;2023-12-05_15h16.56.963;REPSWITCH1_version1_list4;2022.2.4;143.8919315;
REPSWITCH1/PICTURE_19.png;pavo;speak;gold;switch;2;T;1;3;4;1;Stim5_Set1;0;None;128;127;26;0;127;127;127;;;;;;;;;;;;;;;;;;;;;;;625.8508224;626.8995405;626.8995405;626.8995405;626.8995405;626.8995405;626.8995405;626.8995405;626.8995405;629.9277414;629.9277414;629.9277414;629.9277414;629.9277414;629.9277414;None;0;;;C:\2023\REPSWITCH21092023\REPSWITCH_excgange\REPSWITCH_excgange\data/310104_REPSWITCH1_version1_list4_2023-12-05_15h16.56.963_micRespv1l4_recorded\recording_micRespv1l4_2023-12-05_15h27.14.899.wav;629.9277414;;None;;;;;;310104;1;2023-12-05_15h16.56.963;REPSWITCH1_version1_list4;2022.2.4;143.8919315;
REPSWITCH1/PICTURE_142.png;vaso;speak;gold;filler;2;F;2;3;4;1;Stim7_Set1;0;None;129;128;27;0;128;128;128;;;;;;;;;;;;;;;;;;;;;;;630.4278763;631.4696659;631.4696659;631.4696659;631.4696659;631.4696659;631.4696659;631.4696659;631.4696659;634.4908599;634.4908599;634.4908599;634.4908599;634.4908599;634.4908599;None;0;;;C:\2023\REPSWITCH21092023\REPSWITCH_excgange\REPSWITCH_excgange\data/310104_REPSWITCH1_version1_list4_2023-12-05_15h16.56.963_micRespv1l4_recorded\recording_micRespv1l4_2023-12-05_15h27.19.469.wav;634.4908599;634.9909081;None;;;;;;310104;1;2023-12-05_15h16.56.963;REPSWITCH1_version1_list4;2022.2.4;143.8919315;
REPSWITCH1/PICTURE_135.png;traje;type;darkblue;filler;1;F;2;3;4;1;Stim3_Set1;0;None;130;129;28;0;129;129;129;;;;;;;;;;;;;;;;;;;;;;;634.9909081;636.143823;636.143823;636.143823;636.143823;636.143823;636.143823;636.143823;636.143823;639.1650325;639.1650325;639.1650325;639.1650325;639.1650325;639.1650325;['t', 'r', 'a', 'j', 'e'];0;[0.8226236002519727, 0.8734626001678407, 1.0590884000994265, 1.1307144002057612, 1.2362720002420247];traje;C:\2023\REPSWITCH21092023\REPSWITCH_excgange\REPSWITCH_excgange\data/310104_REPSWITCH1_version1_list4_2023-12-05_15h16.56.963_micRespv1l4_recorded\recording_micRespv1l4_2023-12-05_15h27.24.142.wav;639.1650325;639.6652036;None;;;;;;310104;1;2023-12-05_15h16.56.963;REPSWITCH1_version1_list4;2022.2.4;143.8919315;
REPSWITCH1/PICTURE_446.png;cerdo;type;darkblue;nontarget;1;NT;2;3;4;1;Stim7_Set2;0;None;131;130;29;0;130;130;130;;;;;;;;;;;;;;;;;;;;;;;639.6652036;640.7902739;640.7902739;640.7902739;640.7902739;640.7902739;640.7902739;640.7902739;640.7902739;643.8184215;643.8184215;643.8184215;643.8184215;643.8184215;643.8184215;['c', 'e', 'r', 'd', 'o'];0;[0.8522251001559198, 0.9768246002495289, 1.075505600310862, 1.246924600098282, 1.3147074999287724];cerdo;C:\2023\REPSWITCH21092023\REPSWITCH_excgange\REPSWITCH_excgange\data/310104_REPSWITCH1_version1_list4_2023-12-05_15h16.56.963_micRespv1l4_recorded\recording_micRespv1l4_2023-12-05_15h27.28.790.wav;643.8184215;;None;;;;;;310104;1;2023-12-05_15h16.56.963;REPSWITCH1_version1_list4;2022.2.4;143.8919315;
REPSWITCH1/PICTURE_446.png;cerdo;type;darkblue;repeat;1;T;2;3;4;1;Stim7_Set2;0;None;132;131;30;0;131;131;131;;;;;;;;;;;;;;;;;;;;;;;644.3184992;645.3465007;645.3465007;645.3465007;645.3465007;645.3465007;645.3465007;645.3465007;645.3465007;648.3745871;648.3745871;648.3745871;648.3745871;648.3745871;648.3745871;['c', 'e', 'r', 'd', 'o'];0;[0.7318436000496149, 0.9004828999750316, 0.9734607003629208, 1.1600755001418293, 1.2488246001303196];cerdo;C:\2023\REPSWITCH21092023\REPSWITCH_excgange\REPSWITCH_excgange\data/310104_REPSWITCH1_version1_list4_2023-12-05_15h16.56.963_micRespv1l4_recorded\recording_micRespv1l4_2023-12-05_15h27.33.346.wav;648.3745871;;None;;;;;;310104;1;2023-12-05_15h16.56.963;REPSWITCH1_version1_list4;2022.2.4;143.8919315;
REPSWITCH1/PICTURE_16.png;cazador;speak;gold;filler;2;F;2;3;4;1;Stim6_Set1;0;None;133;132;31;0;132;132;132;;;;;;;;;;;;;;;;;;;;;;;648.8746379;649.9512307;649.9512307;649.9512307;649.9512307;649.9512307;649.9512307;649.9512307;649.9512307;652.979385;652.979385;652.979385;652.979385;652.979385;652.979385;None;0;;;C:\2023\REPSWITCH21092023\REPSWITCH_excgange\REPSWITCH_excgange\data/310104_REPSWITCH1_version1_list4_2023-12-05_15h16.56.963_micRespv1l4_recorded\recording_micRespv1l4_2023-12-05_15h27.37.951.wav;652.979385;653.4794343;None;;;;;;310104;1;2023-12-05_15h16.56.963;REPSWITCH1_version1_list4;2022.2.4;143.8919315;
REPSWITCH1/PICTURE_552.png;manzana;type;darkblue;nontarget;1;NT;2;3;4;1;Stim6_Set2;1;switch;134;133;32;0;133;133;133;;;;;;;;;;;;;;;;;;;;;;;653.4794343;654.618464;654.618464;654.618464;654.618464;654.618464;654.618464;654.618464;654.618464;657.6466412;657.6466412;657.6466412;657.6466412;657.6466412;657.6466412;['m', 'a', 'n', 'z', 'a', 'backspace', 'z'];0;[1.5901231998577714, 1.739924699999392, 1.8226800002157688, 1.9436162002384663, 2.1213044999167323, 2.6897475998848677, 2.825735100079328];manzz;C:\2023\REPSWITCH21092023\REPSWITCH_excgange\REPSWITCH_excgange\data/310104_REPSWITCH1_version1_list4_2023-12-05_15h16.56.963_micRespv1l4_recorded\recording_micRespv1l4_2023-12-05_15h27.42.619.wav;657.6466412;;None;;;;;;310104;1;2023-12-05_15h16.56.963;REPSWITCH1_version1_list4;2022.2.4;143.8919315;
REPSWITCH1/PICTURE_552.png;manzana;type;darkblue;repeat;1;T;2;3;4;1;Stim6_Set2;0;None;135;134;33;0;134;134;134;;;;;;;;;;;;;;;;;;;;;;;658.1467301;659.244119;659.244119;659.244119;659.244119;659.244119;659.244119;659.244119;659.244119;662.2723418;662.2723418;662.2723418;662.2723418;662.2723418;662.2723418;['m', 'a', 'n', 'z', 'a', 'n', 'a'];0;[0.7446628999896348, 0.8403348000720143, 0.9532648003660142, 1.0280063999816775, 1.176607800181955, 1.226454600226134, 1.6730578001588583];manzana;C:\2023\REPSWITCH21092023\REPSWITCH_excgange\REPSWITCH_excgange\data/310104_REPSWITCH1_version1_list4_2023-12-05_15h16.56.963_micRespv1l4_recorded\recording_micRespv1l4_2023-12-05_15h27.47.244.wav;662.2723418;;None;;;;;;310104;1;2023-12-05_15h16.56.963;REPSWITCH1_version1_list4;2022.2.4;143.8919315;
REPSWITCH1/PICTURE_517.png;cuerda;type;darkblue;nontarget;1;NT;2;3;4;1;Stim4_Set2;0;None;136;135;34;0;135;135;135;;;;;;;;;;;;;;;;;;;;;;;662.7723352;663.8558371;663.8558371;663.8558371;663.8558371;663.8558371;663.8558371;663.8558371;663.8558371;666.8770053;666.8770053;666.8770053;666.8770053;666.8770053;666.8770053;['c', 'e', 'u', 'backspace', 'backspace', 'u', 'e', 'r', 'd', 'a'];0;[0.8161367001011968, 0.9876176002435386, 1.018484900239855, 1.4478218001313508, 1.5838450002484024, 2.422694600187242, 2.505567300133407, 2.5634147003293037, 2.736796200275421, 2.8404802000150084];cuerda;C:\2023\REPSWITCH21092023\REPSWITCH_excgange\REPSWITCH_excgange\data/310104_REPSWITCH1_version1_list4_2023-12-05_15h16.56.963_micRespv1l4_recorded\recording_micRespv1l4_2023-12-05_15h27.51.855.wav;666.8770053;667.3771055;None;;;;;;310104;1;2023-12-05_15h16.56.963;REPSWITCH1_version1_list4;2022.2.4;143.8919315;
REPSWITCH1/PICTURE_517.png;cuerda;speak;gold;switch;2;T;2;3;4;1;Stim4_Set2;0;None;137;136;35;0;136;136;136;;;;;;;;;;;;;;;;;;;;;;;667.3771055;668.4606;668.4606;668.4606;668.4606;668.4606;668.4606;668.4606;668.4606;671.4887535;671.4887535;671.4887535;671.4887535;671.4887535;671.4887535;None;0;;;C:\2023\REPSWITCH21092023\REPSWITCH_excgange\REPSWITCH_excgange\data/310104_REPSWITCH1_version1_list4_2023-12-05_15h16.56.963_micRespv1l4_recorded\recording_micRespv1l4_2023-12-05_15h27.56.460.wav;671.4887535;;None;;;;;;310104;1;2023-12-05_15h16.56.963;REPSWITCH1_version1_list4;2022.2.4;143.8919315;
REPSWITCH1/PICTURE_169.png;espalda;speak;gold;filler;2;F;2;3;4;1;Stim8_Set1;1;repeat;138;137;36;0;137;137;137;;;;;;;;;;;;;;;;;;;;;;;671.9888199;673.1070181;673.1070181;673.1070181;673.1070181;673.1070181;673.1070181;673.1070181;673.1070181;676.1282576;676.1282576;676.1282576;676.1282576;676.1282576;676.1282576;None;0;;;C:\2023\REPSWITCH21092023\REPSWITCH_excgange\REPSWITCH_excgange\data/310104_REPSWITCH1_version1_list4_2023-12-05_15h16.56.963_micRespv1l4_recorded\recording_micRespv1l4_2023-12-05_15h28.01.107.wav;676.1282576;676.6283477;None;;;;;;310104;1;2023-12-05_15h16.56.963;REPSWITCH1_version1_list4;2022.2.4;143.8919315;
REPSWITCH1/PICTURE_30.png;granja;speak;gold;nontarget;2;NT;2;3;4;1;Stim5_Set2;1;repeat;139;138;37;0;138;138;138;;;;;;;;;;;;;;;;;;;;;;;676.6283477;677.7882023;677.7882023;677.7882023;677.7882023;677.7882023;677.7882023;677.7882023;677.7882023;680.8163752;680.8163752;680.8163752;680.8163752;680.8163752;680.8163752;None;0;;;C:\2023\REPSWITCH21092023\REPSWITCH_excgange\REPSWITCH_excgange\data/310104_REPSWITCH1_version1_list4_2023-12-05_15h16.56.963_micRespv1l4_recorded\recording_micRespv1l4_2023-12-05_15h28.05.788.wav;680.8163752;;None;;;;;;310104;1;2023-12-05_15h16.56.963;REPSWITCH1_version1_list4;2022.2.4;143.8919315;
REPSWITCH1/PICTURE_30.png;granja;type;darkblue;switch;1;T;2;3;4;1;Stim5_Set2;0;None;140;139;38;0;139;139;139;;;;;;;;;;;;;;;;;;;;;;;681.3164388;682.4277765;682.4277765;682.4277765;682.4277765;682.4277765;682.4277765;682.4277765;682.4277765;685.4558515;685.4558515;685.4558515;685.4558515;685.4558515;685.4558515;['g', 'r', 'a', 'n', 'j', 'a'];0;[1.0316395000554621, 1.078518200200051, 1.3184022000059485, 1.4150856002233922, 1.568570100236684, 1.7001306000165641];granja;C:\2023\REPSWITCH21092023\REPSWITCH_excgange\REPSWITCH_excgange\data/310104_REPSWITCH1_version1_list4_2023-12-05_15h16.56.963_micRespv1l4_recorded\recording_micRespv1l4_2023-12-05_15h28.10.428.wav;685.4558515;;None;;;;;;310104;1;2023-12-05_15h16.56.963;REPSWITCH1_version1_list4;2022.2.4;143.8919315;
REPSWITCH1/PICTURE_128.png;muñeca;type;darkblue;filler;1;F;2;3;4;1;Stim4_Set1;1;repeat;141;140;39;0;140;140;140;;;;;;;;;;;;;;;;;;;;;;;685.9559985;687.0394248;687.0394248;687.0394248;687.0394248;687.0394248;687.0394248;687.0394248;687.0394248;690.0606026;690.0606026;690.0606026;690.0606026;690.0606026;690.0606026;['m', 'u', 'ñ', 'e', 'c', 'a'];0;[0.808288499712944, 1.0187486000359058, 1.3742130999453366, 2.0513701997697353, 2.2078452999703586, 2.329446599818766];muñeca;C:\2023\REPSWITCH21092023\REPSWITCH_excgange\REPSWITCH_excgange\data/310104_REPSWITCH1_version1_list4_2023-12-05_15h16.56.963_micRespv1l4_recorded\recording_micRespv1l4_2023-12-05_15h28.15.039.wav;690.0606026;690.5607059;None;;;;;;310104;1;2023-12-05_15h16.56.963;REPSWITCH1_version1_list4;2022.2.4;143.8919315;
