image;correctAns;respModal;frameColor;repSwitch;sequence;target;set;block;list;exp_version;stimulus;baseline;baseline_condition;trial_no;psychopy_trial;Column1;trialsREPSWITCH.thisRepN;trialsREPSWITCH.thisTrialN;trialsREPSWITCH.thisN;trialsREPSWITCH.thisIndex;textWelcome.started;textboxInstrMain1.started;textboxInstrMain1_2.started;textboxInstrMain1_3.started;keyInstrMain.started;keyInstrMain.keys;keyInstrMain.rt;textboxInstrMain2.started;textboxInstrMain2_2.started;textboxInstrMain2_3.started;textboxInstrMain2_4.started;textboxInstrMain2_5.started;textboxInstrMain2_6.started;textboxInstrMain2_7.started;textboxInstrMain2_8.started;textboxInstrMain2_9.started;textboxInstrMain2_10.started;textboxInstrMain2_11.started;textboxInstrMain2_12.started;keyInstrMain2.started;keyInstrMain2.keys;keyInstrMain2.rt;fixationITI.started;fixationITI.stopped;polygonColour.started;polygonWhite.started;imageObject.started;polygonType.started;textInput.started;keyResp.started;micRespv1l4.started;polygonColour.stopped;polygonWhite.stopped;imageObject.stopped;polygonType.stopped;textInput.stopped;keyResp.stopped;keyResp.keys;keyResp.corr;keyResp.rt;subjResponse;micRespv1l4.clip;textBlankLoop.started;textBlankLoop.stopped;keyPause.keys;textboxPause.started;keyPause.started;keyPause.rt;textboxGoodbye.started;textboxGoodbye.stopped;participant;session;date;expName;psychopyVersion;frameRate;Column2
;;;;;;;;;;;;;;;;;;;;;13.846329600084573;16.340297299902886;16.340297299902886;16.340297299902886;16.340297299902886;space;4.351695299614221;;;;;;;;;;;;;;;;;;;;;;;;;;;;;;;;;;;;;;;;;;;;310104;001;2023-12-05_15h16.56.963;REPSWITCH1_version1_list4;2022.2.4;143.8919314921512;
;;;;;;;;;;;;;;;;;;;;;;;;;;;;20.708919699769467;20.708919699769467;20.708919699769467;20.708919699769467;20.708919699769467;20.708919699769467;20.708919699769467;20.708919699769467;20.708919699769467;20.708919699769467;20.708919699769467;20.708919699769467;20.708919699769467;space;3.0204885001294315;;;;;;;;;;;;;;;;;;;;;;;;;;;;;310104;001;2023-12-05_15h16.56.963;REPSWITCH1_version1_list4;2022.2.4;143.8919314921512;
REPSWITCH1/PICTURE_8.png;pierna;type;darkblue;filler;1;F;1;4;4;1;Stim3_Set4;0;None;1;0;1;0;0;0;0;;;;;;;;;;;;;;;;;;;;;;;23.834412399679422;24.931672499980778;24.931672499980778;24.931672499980778;24.931672499980778;24.931672499980778;24.931672499980778;24.931672499980778;24.931672499980778;27.959854200016707;27.959854200016707;27.959854200016707;27.959854200016707;27.959854200016707;27.959854200016707;['p', 'i', 'e', 'r', 'n', 'a'];0;[2.2020554998889565, 2.413690600078553, 2.4804680002853274, 2.535243700258434, 2.666850100271404, 2.761531400028616];pierna;C:\2023\REPSWITCH21092023\REPSWITCH_excgange\REPSWITCH_excgange\data/310104_REPSWITCH1_version1_list4_2023-12-05_15h16.56.963_micRespv1l4_recorded\recording_micRespv1l4_2023-12-05_15h17.12.934.wav;27.959854200016707;28.4599766000174;None;;;;;;310104;001;2023-12-05_15h16.56.963;REPSWITCH1_version1_list4;2022.2.4;143.8919314921512;
REPSWITCH1/PICTURE_498.png;taza;speak;gold;filler;2;F;1;4;4;1;Stim4_Set4;0;None;2;1;2;0;1;1;1;;;;;;;;;;;;;;;;;;;;;;;28.4599766000174;29.522629299666733;29.522629299666733;29.522629299666733;29.522629299666733;29.522629299666733;29.522629299666733;29.522629299666733;29.522629299666733;32.55073489993811;32.55073489993811;32.55073489993811;32.55073489993811;32.55073489993811;32.55073489993811;None;0;;;C:\2023\REPSWITCH21092023\REPSWITCH_excgange\REPSWITCH_excgange\data/310104_REPSWITCH1_version1_list4_2023-12-05_15h16.56.963_micRespv1l4_recorded\recording_micRespv1l4_2023-12-05_15h17.17.523.wav;32.55073489993811;;None;;;;;;310104;001;2023-12-05_15h16.56.963;REPSWITCH1_version1_list4;2022.2.4;143.8919314921512;
REPSWITCH1/PICTURE_19.png;pavo;speak;gold;nontarget;2;NT;1;4;4;1;Stim5_Set1;1;repeat;3;2;3;0;2;2;2;;;;;;;;;;;;;;;;;;;;;;;33.050795199815184;34.14817239996046;34.14817239996046;34.14817239996046;34.14817239996046;34.14817239996046;34.14817239996046;34.14817239996046;34.14817239996046;37.16937869973481;37.16937869973481;37.16937869973481;37.16937869973481;37.16937869973481;37.16937869973481;None;0;;;C:\2023\REPSWITCH21092023\REPSWITCH_excgange\REPSWITCH_excgange\data/310104_REPSWITCH1_version1_list4_2023-12-05_15h16.56.963_micRespv1l4_recorded\recording_micRespv1l4_2023-12-05_15h17.22.147.wav;37.16937869973481;37.66956239985302;None;;;;;;310104;001;2023-12-05_15h16.56.963;REPSWITCH1_version1_list4;2022.2.4;143.8919314921512;
REPSWITCH1/PICTURE_19.png;pavo;speak;gold;repeat;2;T;1;4;4;1;Stim5_Set1;0;None;4;3;4;0;3;3;3;;;;;;;;;;;;;;;;;;;;;;;37.66956239985302;38.73214349988848;38.73214349988848;38.73214349988848;38.73214349988848;38.73214349988848;38.73214349988848;38.73214349988848;38.73214349988848;41.76027869991958;41.76027869991958;41.76027869991958;41.76027869991958;41.76027869991958;41.76027869991958;None;0;;;C:\2023\REPSWITCH21092023\REPSWITCH_excgange\REPSWITCH_excgange\data/310104_REPSWITCH1_version1_list4_2023-12-05_15h16.56.963_micRespv1l4_recorded\recording_micRespv1l4_2023-12-05_15h17.26.732.wav;41.76027869991958;;None;;;;;;310104;001;2023-12-05_15h16.56.963;REPSWITCH1_version1_list4;2022.2.4;143.8919314921512;
REPSWITCH1/PICTURE_319.png;vaca;type;darkblue;filler;1;F;1;4;4;1;Stim1_Set4;1;repeat;5;4;5;0;4;4;4;;;;;;;;;;;;;;;;;;;;;;;42.26036239974201;43.38557490007952;43.38557490007952;43.38557490007952;43.38557490007952;43.38557490007952;43.38557490007952;43.38557490007952;43.38557490007952;46.40671900007874;46.40671900007874;46.40671900007874;46.40671900007874;46.40671900007874;46.40671900007874;['v', 'a', 'c', 'a'];0;[1.1070427000522614, 1.2658901000395417, 1.3368906998075545, 1.4409122001379728];vaca;C:\2023\REPSWITCH21092023\REPSWITCH_excgange\REPSWITCH_excgange\data/310104_REPSWITCH1_version1_list4_2023-12-05_15h16.56.963_micRespv1l4_recorded\recording_micRespv1l4_2023-12-05_15h17.31.385.wav;46.40671900007874;46.906775899697095;None;;;;;;310104;001;2023-12-05_15h16.56.963;REPSWITCH1_version1_list4;2022.2.4;143.8919314921512;
REPSWITCH1/PICTURE_169.png;espalda;speak;gold;nontarget;2;NT;1;4;4;1;Stim8_Set1;1;switch;6;5;6;0;5;5;5;;;;;;;;;;;;;;;;;;;;;;;46.906775899697095;47.96249580010772;47.96249580010772;47.96249580010772;47.96249580010772;47.96249580010772;47.96249580010772;47.96249580010772;47.96249580010772;50.990677000023425;50.990677000023425;50.990677000023425;50.990677000023425;50.990677000023425;50.990677000023425;None;0;;;C:\2023\REPSWITCH21092023\REPSWITCH_excgange\REPSWITCH_excgange\data/310104_REPSWITCH1_version1_list4_2023-12-05_15h16.56.963_micRespv1l4_recorded\recording_micRespv1l4_2023-12-05_15h17.35.962.wav;50.990677000023425;;None;;;;;;310104;001;2023-12-05_15h16.56.963;REPSWITCH1_version1_list4;2022.2.4;143.8919314921512;
REPSWITCH1/PICTURE_169.png;espalda;speak;gold;repeat;2;T;1;4;4;1;Stim8_Set1;0;None;7;6;7;0;6;6;6;;;;;;;;;;;;;;;;;;;;;;;51.49071480007842;52.61596320010722;52.61596320010722;52.61596320010722;52.61596320010722;52.61596320010722;52.61596320010722;52.61596320010722;52.61596320010722;55.637083699926734;55.637083699926734;55.637083699926734;55.637083699926734;55.637083699926734;55.637083699926734;None;0;;;C:\2023\REPSWITCH21092023\REPSWITCH_excgange\REPSWITCH_excgange\data/310104_REPSWITCH1_version1_list4_2023-12-05_15h16.56.963_micRespv1l4_recorded\recording_micRespv1l4_2023-12-05_15h17.40.616.wav;55.637083699926734;56.13717789994553;None;;;;;;310104;001;2023-12-05_15h16.56.963;REPSWITCH1_version1_list4;2022.2.4;143.8919314921512;
REPSWITCH1/PICTURE_728.png;pulpo;type;darkblue;filler;1;F;1;4;4;1;Stim8_Set4;0;None;8;7;8;0;7;7;7;;;;;;;;;;;;;;;;;;;;;;;56.13717789994553;57.25537039991468;57.25537039991468;57.25537039991468;57.25537039991468;57.25537039991468;57.25537039991468;57.25537039991468;57.25537039991468;60.28357909992337;60.28357909992337;60.28357909992337;60.28357909992337;60.28357909992337;60.28357909992337;['p', 'u', 'l', 'p', 'o'];0;[1.1533479001373053, 1.4822798003442585, 1.681406700052321, 2.01702140038833, 2.1081838002428412];pulpo;C:\2023\REPSWITCH21092023\REPSWITCH_excgange\REPSWITCH_excgange\data/310104_REPSWITCH1_version1_list4_2023-12-05_15h16.56.963_micRespv1l4_recorded\recording_micRespv1l4_2023-12-05_15h17.45.255.wav;60.28357909992337;;None;;;;;;310104;001;2023-12-05_15h16.56.963;REPSWITCH1_version1_list4;2022.2.4;143.8919314921512;
REPSWITCH1/PICTURE_142.png;vaso;speak;gold;nontarget;2;NT;1;4;4;1;Stim7_Set1;1;switch;9;8;9;0;8;8;8;;;;;;;;;;;;;;;;;;;;;;;60.78362130001187;61.957366599701345;61.957366599701345;61.957366599701345;61.957366599701345;61.957366599701345;61.957366599701345;61.957366599701345;61.957366599701345;64.98556079994887;64.98556079994887;64.98556079994887;64.98556079994887;64.98556079994887;64.98556079994887;None;0;;;C:\2023\REPSWITCH21092023\REPSWITCH_excgange\REPSWITCH_excgange\data/310104_REPSWITCH1_version1_list4_2023-12-05_15h16.56.963_micRespv1l4_recorded\recording_micRespv1l4_2023-12-05_15h17.49.957.wav;64.98556079994887;;None;;;;;;310104;001;2023-12-05_15h16.56.963;REPSWITCH1_version1_list4;2022.2.4;143.8919314921512;
REPSWITCH1/PICTURE_142.png;vaso;type;darkblue;switch;1;T;1;4;4;1;Stim7_Set1;0;None;10;9;10;0;9;9;9;;;;;;;;;;;;;;;;;;;;;;;65.48563309991732;66.68030919972807;66.68030919972807;66.68030919972807;66.68030919972807;66.68030919972807;66.68030919972807;66.68030919972807;66.68030919972807;69.70143429981545;69.70143429981545;69.70143429981545;69.70143429981545;69.70143429981545;69.70143429981545;['v', 'a', 's', 'o'];0;[0.9124324000440538, 1.114738100208342, 1.4085984998382628, 1.5554506001062691];vaso;C:\2023\REPSWITCH21092023\REPSWITCH_excgange\REPSWITCH_excgange\data/310104_REPSWITCH1_version1_list4_2023-12-05_15h16.56.963_micRespv1l4_recorded\recording_micRespv1l4_2023-12-05_15h17.54.680.wav;69.70143429981545;70.20152699993923;None;;;;;;310104;001;2023-12-05_15h16.56.963;REPSWITCH1_version1_list4;2022.2.4;143.8919314921512;
REPSWITCH1/PICTURE_338.png;regalo;type;darkblue;filler;1;F;1;4;4;1;Stim6_Set4;1;repeat;11;10;11;0;10;10;10;;;;;;;;;;;;;;;;;;;;;;;70.20152699993923;71.36141039989889;71.36141039989889;71.36141039989889;71.36141039989889;71.36141039989889;71.36141039989889;71.36141039989889;71.36141039989889;74.38263709982857;74.38263709982857;74.38263709982857;74.38263709982857;74.38263709982857;74.38263709982857;['r', 'e', 'g', 'a', 'l', 'o'];0;[1.279245600104332, 1.3589695999398828, 1.5368417003192008, 1.7131761000491679, 1.7600302998907864, 1.8600930999964476];regalo;C:\2023\REPSWITCH21092023\REPSWITCH_excgange\REPSWITCH_excgange\data/310104_REPSWITCH1_version1_list4_2023-12-05_15h16.56.963_micRespv1l4_recorded\recording_micRespv1l4_2023-12-05_15h17.59.360.wav;74.38263709982857;74.88268199982122;None;;;;;;310104;001;2023-12-05_15h16.56.963;REPSWITCH1_version1_list4;2022.2.4;143.8919314921512;
REPSWITCH1/PICTURE_135.png;traje;type;darkblue;nontarget;1;NT;1;4;4;1;Stim3_Set1;1;repeat;12;11;12;0;11;11;11;;;;;;;;;;;;;;;;;;;;;;;74.88268199982122;75.88982369983569;75.88982369983569;75.88982369983569;75.88982369983569;75.88982369983569;75.88982369983569;75.88982369983569;75.88982369983569;78.91792679997161;78.91792679997161;78.91792679997161;78.91792679997161;78.91792679997161;78.91792679997161;['t', 'r', 'a', 'j', 'e'];0;[0.9167259996756911, 0.9825035999529064, 1.1854580999352038, 1.276146899908781, 1.391774300020188];traje;C:\2023\REPSWITCH21092023\REPSWITCH_excgange\REPSWITCH_excgange\data/310104_REPSWITCH1_version1_list4_2023-12-05_15h16.56.963_micRespv1l4_recorded\recording_micRespv1l4_2023-12-05_15h18.03.890.wav;78.91792679997161;;None;;;;;;310104;001;2023-12-05_15h16.56.963;REPSWITCH1_version1_list4;2022.2.4;143.8919314921512;
REPSWITCH1/PICTURE_135.png;traje;speak;gold;switch;2;T;1;4;4;1;Stim3_Set1;0;None;13;12;13;0;12;12;12;;;;;;;;;;;;;;;;;;;;;;;79.41800769977272;80.46678039990366;80.46678039990366;80.46678039990366;80.46678039990366;80.46678039990366;80.46678039990366;80.46678039990366;80.46678039990366;83.49491029977798;83.49491029977798;83.49491029977798;83.49491029977798;83.49491029977798;83.49491029977798;None;0;;;C:\2023\REPSWITCH21092023\REPSWITCH_excgange\REPSWITCH_excgange\data/310104_REPSWITCH1_version1_list4_2023-12-05_15h16.56.963_micRespv1l4_recorded\recording_micRespv1l4_2023-12-05_15h18.08.467.wav;83.49491029977798;;None;;;;;;310104;001;2023-12-05_15h16.56.963;REPSWITCH1_version1_list4;2022.2.4;143.8919314921512;
REPSWITCH1/PICTURE_381.png;fresa;speak;gold;nontarget;2;NT;1;4;4;1;Stim2_Set1;1;repeat;14;13;14;0;13;13;13;;;;;;;;;;;;;;;;;;;;;;;83.99500299990177;84.99511209968477;84.99511209968477;84.99511209968477;84.99511209968477;84.99511209968477;84.99511209968477;84.99511209968477;84.99511209968477;88.02329989988357;88.02329989988357;88.02329989988357;88.02329989988357;88.02329989988357;88.02329989988357;None;0;;;C:\2023\REPSWITCH21092023\REPSWITCH_excgange\REPSWITCH_excgange\data/310104_REPSWITCH1_version1_list4_2023-12-05_15h16.56.963_micRespv1l4_recorded\recording_micRespv1l4_2023-12-05_15h18.12.995.wav;88.02329989988357;;None;;;;;;310104;001;2023-12-05_15h16.56.963;REPSWITCH1_version1_list4;2022.2.4;143.8919314921512;
REPSWITCH1/PICTURE_381.png;fresa;type;darkblue;switch;1;T;1;4;4;1;Stim2_Set1;0;None;15;14;15;0;14;14;14;;;;;;;;;;;;;;;;;;;;;;;88.52344259992242;89.62775339977816;89.62775339977816;89.62775339977816;89.62775339977816;89.62775339977816;89.62775339977816;89.62775339977816;89.62775339977816;92.64888780005276;92.64888780005276;92.64888780005276;92.64888780005276;92.64888780005276;92.64888780005276;['f', 'r', 'e', 's', 'a'];0;[0.949182499665767, 1.0716804997064173, 1.0919205998070538, 1.3022380000911653, 1.3756430996581912];fresa;C:\2023\REPSWITCH21092023\REPSWITCH_excgange\REPSWITCH_excgange\data/310104_REPSWITCH1_version1_list4_2023-12-05_15h16.56.963_micRespv1l4_recorded\recording_micRespv1l4_2023-12-05_15h18.17.627.wav;92.64888780005276;93.14905350003392;None;;;;;;310104;001;2023-12-05_15h16.56.963;REPSWITCH1_version1_list4;2022.2.4;143.8919314921512;
REPSWITCH1/PICTURE_48.png;bombero;type;darkblue;filler;1;F;1;4;4;1;Stim7_Set4;0;None;16;15;16;0;15;15;15;;;;;;;;;;;;;;;;;;;;;;;93.14905350003392;94.26024940004572;94.26024940004572;94.26024940004572;94.26024940004572;94.26024940004572;94.26024940004572;94.26024940004572;94.26024940004572;97.28839789982885;97.28839789982885;97.28839789982885;97.28839789982885;97.28839789982885;97.28839789982885;['b', 'o', 'm', 'b', 'e', 'r', 'o'];0;[1.1096435999497771, 1.193684599827975, 1.2864513001404703, 1.5513615999370813, 1.6430481001734734, 1.6882643001154065, 1.783947499934584];bombero;C:\2023\REPSWITCH21092023\REPSWITCH_excgange\REPSWITCH_excgange\data/310104_REPSWITCH1_version1_list4_2023-12-05_15h16.56.963_micRespv1l4_recorded\recording_micRespv1l4_2023-12-05_15h18.22.260.wav;97.28839789982885;;None;;;;;;310104;001;2023-12-05_15h16.56.963;REPSWITCH1_version1_list4;2022.2.4;143.8919314921512;
REPSWITCH1/PICTURE_687.png;camisa;speak;gold;filler;2;F;1;4;4;1;Stim5_Set4;0;None;17;16;17;0;16;16;16;;;;;;;;;;;;;;;;;;;;;;;97.78847089968622;98.8789607998915;98.8789607998915;98.8789607998915;98.8789607998915;98.8789607998915;98.8789607998915;98.8789607998915;98.8789607998915;101.90019789990038;101.90019789990038;101.90019789990038;101.90019789990038;101.90019789990038;101.90019789990038;None;0;;;C:\2023\REPSWITCH21092023\REPSWITCH_excgange\REPSWITCH_excgange\data/310104_REPSWITCH1_version1_list4_2023-12-05_15h16.56.963_micRespv1l4_recorded\recording_micRespv1l4_2023-12-05_15h18.26.878.wav;101.90019789990038;102.40018079988658;None;;;;;;310104;001;2023-12-05_15h16.56.963;REPSWITCH1_version1_list4;2022.2.4;143.8919314921512;
REPSWITCH1/PICTURE_128.png;muñeca;type;darkblue;nontarget;1;NT;1;4;4;1;Stim4_Set1;0;None;18;17;18;0;17;17;17;;;;;;;;;;;;;;;;;;;;;;;102.40018079988658;103.48363859998062;103.48363859998062;103.48363859998062;103.48363859998062;103.48363859998062;103.48363859998062;103.48363859998062;103.48363859998062;106.50485689984635;106.50485689984635;106.50485689984635;106.50485689984635;106.50485689984635;106.50485689984635;['m', 'u', 'ñ', 'e', 'c', 'a'];0;[1.0967713999561965, 1.314995899796486, 1.7802967000752687, 1.9143988001160324, 2.1297459001652896, 2.2741983998566866];muñeca;C:\2023\REPSWITCH21092023\REPSWITCH_excgange\REPSWITCH_excgange\data/310104_REPSWITCH1_version1_list4_2023-12-05_15h16.56.963_micRespv1l4_recorded\recording_micRespv1l4_2023-12-05_15h18.31.484.wav;106.50485689984635;107.0049920999445;None;;;;;;310104;001;2023-12-05_15h16.56.963;REPSWITCH1_version1_list4;2022.2.4;143.8919314921512;
REPSWITCH1/PICTURE_128.png;muñeca;type;darkblue;repeat;1;T;1;4;4;1;Stim4_Set1;0;None;19;18;19;0;18;18;18;;;;;;;;;;;;;;;;;;;;;;;107.0049920999445;108.07460479997098;108.07460479997098;108.07460479997098;108.07460479997098;108.07460479997098;108.07460479997098;108.07460479997098;108.07460479997098;111.10268209967762;111.10268209967762;111.10268209967762;111.10268209967762;111.10268209967762;111.10268209967762;['m', 'u', 'ñ', 'e', 'c', 'a'];0;[1.0836543999612331, 1.2896519000642002, 1.6297749001532793, 1.7613222002983093, 1.97955820010975, 2.1580795999616385];muñeca;C:\2023\REPSWITCH21092023\REPSWITCH_excgange\REPSWITCH_excgange\data/310104_REPSWITCH1_version1_list4_2023-12-05_15h16.56.963_micRespv1l4_recorded\recording_micRespv1l4_2023-12-05_15h18.36.075.wav;111.10268209967762;;None;;;;;;310104;001;2023-12-05_15h16.56.963;REPSWITCH1_version1_list4;2022.2.4;143.8919314921512;
REPSWITCH1/PICTURE_719.png;baño;speak;gold;filler;2;F;1;4;4;1;Stim2_Set4;1;switch;20;19;20;0;19;19;19;;;;;;;;;;;;;;;;;;;;;;;111.6027571996674;112.72102969978005;112.72102969978005;112.72102969978005;112.72102969978005;112.72102969978005;112.72102969978005;112.72102969978005;112.72102969978005;115.74922979995608;115.74922979995608;115.74922979995608;115.74922979995608;115.74922979995608;115.74922979995608;None;0;;;C:\2023\REPSWITCH21092023\REPSWITCH_excgange\REPSWITCH_excgange\data/310104_REPSWITCH1_version1_list4_2023-12-05_15h16.56.963_micRespv1l4_recorded\recording_micRespv1l4_2023-12-05_15h18.40.722.wav;115.74922979995608;;None;;;;;;310104;001;2023-12-05_15h16.56.963;REPSWITCH1_version1_list4;2022.2.4;143.8919314921512;
REPSWITCH1/PICTURE_178.png;puente;type;darkblue;nontarget;1;NT;1;4;4;1;Stim1_Set1;1;switch;21;20;21;0;20;20;20;;;;;;;;;;;;;;;;;;;;;;;116.24922049976885;117.35352619970217;117.35352619970217;117.35352619970217;117.35352619970217;117.35352619970217;117.35352619970217;117.35352619970217;117.35352619970217;120.3747805999592;120.3747805999592;120.3747805999592;120.3747805999592;120.3747805999592;120.3747805999592;['p', 'u', 'e', 'n', 't', 'e'];0;[1.2177577000111341, 1.4420074000954628, 1.5236969999969006, 1.6475916998460889, 1.7203073999844491, 1.8073633997701108];puente;C:\2023\REPSWITCH21092023\REPSWITCH_excgange\REPSWITCH_excgange\data/310104_REPSWITCH1_version1_list4_2023-12-05_15h16.56.963_micRespv1l4_recorded\recording_micRespv1l4_2023-12-05_15h18.45.352.wav;120.3747805999592;120.8748073996976;None;;;;;;310104;001;2023-12-05_15h16.56.963;REPSWITCH1_version1_list4;2022.2.4;143.8919314921512;
REPSWITCH1/PICTURE_178.png;puente;type;darkblue;repeat;1;T;1;4;4;1;Stim1_Set1;0;None;22;21;22;0;21;21;21;;;;;;;;;;;;;;;;;;;;;;;120.8748073996976;121.972252599895;121.972252599895;121.972252599895;121.972252599895;121.972252599895;121.972252599895;121.972252599895;121.972252599895;124.99347569979727;124.99347569979727;124.99347569979727;124.99347569979727;124.99347569979727;124.99347569979727;['p', 'u', 'e', 'n', 't', 'e'];0;[1.0153166996315122, 1.2664922997355461, 1.3843292999081314, 1.4899796997196972, 1.5766528998501599, 1.6324609997682273];puente;C:\2023\REPSWITCH21092023\REPSWITCH_excgange\REPSWITCH_excgange\data/310104_REPSWITCH1_version1_list4_2023-12-05_15h16.56.963_micRespv1l4_recorded\recording_micRespv1l4_2023-12-05_15h18.49.971.wav;124.99347569979727;125.49356169998646;None;;;;;;310104;001;2023-12-05_15h16.56.963;REPSWITCH1_version1_list4;2022.2.4;143.8919314921512;
REPSWITCH1/PICTURE_16.png;cazador;type;darkblue;nontarget;1;NT;1;4;4;1;Stim6_Set1;1;repeat;23;22;23;0;22;22;22;;;;;;;;;;;;;;;;;;;;;;;125.49356169998646;126.58393409987912;126.58393409987912;126.58393409987912;126.58393409987912;126.58393409987912;126.58393409987912;126.58393409987912;126.58393409987912;129.6120873996988;129.6120873996988;129.6120873996988;129.6120873996988;129.6120873996988;129.6120873996988;['c', 'a', 'z', 'a', 'd', 'o', 'r'];0;[1.6988650998100638, 1.8493857998400927, 2.214247999712825, 2.357822199817747, 2.5509573998861015, 2.7124804998748004, 2.8270152998156846];cazador;C:\2023\REPSWITCH21092023\REPSWITCH_excgange\REPSWITCH_excgange\data/310104_REPSWITCH1_version1_list4_2023-12-05_15h16.56.963_micRespv1l4_recorded\recording_micRespv1l4_2023-12-05_15h18.54.584.wav;129.6120873996988;;None;;;;;;310104;001;2023-12-05_15h16.56.963;REPSWITCH1_version1_list4;2022.2.4;143.8919314921512;
REPSWITCH1/PICTURE_16.png;cazador;speak;gold;switch;2;T;1;4;4;1;Stim6_Set1;0;None;24;23;24;0;23;23;23;;;;;;;;;;;;;;;;;;;;;;;130.11215920001268;131.32061820011586;131.32061820011586;131.32061820011586;131.32061820011586;131.32061820011586;131.32061820011586;131.32061820011586;131.32061820011586;134.3487947997637;134.3487947997637;134.3487947997637;134.3487947997637;134.3487947997637;134.3487947997637;None;0;;;C:\2023\REPSWITCH21092023\REPSWITCH_excgange\REPSWITCH_excgange\data/310104_REPSWITCH1_version1_list4_2023-12-05_15h16.56.963_micRespv1l4_recorded\recording_micRespv1l4_2023-12-05_15h18.59.322.wav;134.3487947997637;134.84892269968987;None;;;;;;310104;001;2023-12-05_15h16.56.963;REPSWITCH1_version1_list4;2022.2.4;143.8919314921512;
REPSWITCH1/PICTURE_19.png;pavo;type;darkblue;filler;1;F;2;4;4;1;Stim5_Set1;0;None;25;24;25;0;24;24;24;;;;;;;;;;;;;;;;;;;;;;;134.84892269968987;135.87679679971188;135.87679679971188;135.87679679971188;135.87679679971188;135.87679679971188;135.87679679971188;135.87679679971188;135.87679679971188;138.9049754999578;138.9049754999578;138.9049754999578;138.9049754999578;138.9049754999578;138.9049754999578;['p', 'a', 'v', 'o'];0;[1.2280417997390032, 1.3350133001804352, 1.5283208000473678, 1.5927602997981012];pavo;C:\2023\REPSWITCH21092023\REPSWITCH_excgange\REPSWITCH_excgange\data/310104_REPSWITCH1_version1_list4_2023-12-05_15h16.56.963_micRespv1l4_recorded\recording_micRespv1l4_2023-12-05_15h19.03.877.wav;138.9049754999578;;None;;;;;;310104;001;2023-12-05_15h16.56.963;REPSWITCH1_version1_list4;2022.2.4;143.8919314921512;
REPSWITCH1/PICTURE_199.png;falda;type;darkblue;nontarget;1;NT;2;4;4;1;Stim8_Set2;1;repeat;26;25;26;0;25;25;25;;;;;;;;;;;;;;;;;;;;;;;139.40503509994596;140.5788495996967;140.5788495996967;140.5788495996967;140.5788495996967;140.5788495996967;140.5788495996967;140.5788495996967;140.5788495996967;143.60704369982705;143.60704369982705;143.60704369982705;143.60704369982705;143.60704369982705;143.60704369982705;['f', 'a', 'l', 'd', 'a'];0;[0.9362943000160158, 1.1236518998630345, 1.1974125001579523, 1.3728232001885772, 1.4388806000351906];falda;C:\2023\REPSWITCH21092023\REPSWITCH_excgange\REPSWITCH_excgange\data/310104_REPSWITCH1_version1_list4_2023-12-05_15h16.56.963_micRespv1l4_recorded\recording_micRespv1l4_2023-12-05_15h19.08.579.wav;143.60704369982705;;None;;;;;;310104;001;2023-12-05_15h16.56.963;REPSWITCH1_version1_list4;2022.2.4;143.8919314921512;
REPSWITCH1/PICTURE_199.png;falda;type;darkblue;repeat;1;T;2;4;4;1;Stim8_Set2;0;None;27;26;27;0;26;26;26;;;;;;;;;;;;;;;;;;;;;;;144.10704739997163;145.13493699999526;145.13493699999526;145.13493699999526;145.13493699999526;145.13493699999526;145.13493699999526;145.13493699999526;145.13493699999526;148.1631350000389;148.1631350000389;148.1631350000389;148.1631350000389;148.1631350000389;148.1631350000389;['f', 'a', 'l', 'd', 'a'];0;[0.7872395999729633, 0.9795551002025604, 1.1108284001238644, 1.197575300000608, 1.2681780001148582];falda;C:\2023\REPSWITCH21092023\REPSWITCH_excgange\REPSWITCH_excgange\data/310104_REPSWITCH1_version1_list4_2023-12-05_15h16.56.963_micRespv1l4_recorded\recording_micRespv1l4_2023-12-05_15h19.13.135.wav;148.1631350000389;;None;;;;;;310104;001;2023-12-05_15h16.56.963;REPSWITCH1_version1_list4;2022.2.4;143.8919314921512;
REPSWITCH1/PICTURE_178.png;puente;speak;gold;filler;2;F;2;4;4;1;Stim1_Set1;1;switch;28;27;28;0;27;27;27;;;;;;;;;;;;;;;;;;;;;;;148.6631816998124;149.8647533999756;149.8647533999756;149.8647533999756;149.8647533999756;149.8647533999756;149.8647533999756;149.8647533999756;149.8647533999756;152.88598169991747;152.88598169991747;152.88598169991747;152.88598169991747;152.88598169991747;152.88598169991747;None;0;;;C:\2023\REPSWITCH21092023\REPSWITCH_excgange\REPSWITCH_excgange\data/310104_REPSWITCH1_version1_list4_2023-12-05_15h16.56.963_micRespv1l4_recorded\recording_micRespv1l4_2023-12-05_15h19.17.864.wav;152.88598169991747;153.38609959976748;None;;;;;;310104;001;2023-12-05_15h16.56.963;REPSWITCH1_version1_list4;2022.2.4;143.8919314921512;
REPSWITCH1/PICTURE_517.png;cuerda;type;darkblue;nontarget;1;NT;2;4;4;1;Stim4_Set2;1;switch;29;28;29;0;28;28;28;;;;;;;;;;;;;;;;;;;;;;;153.38609959976748;154.42088419990614;154.42088419990614;154.42088419990614;154.42088419990614;154.42088419990614;154.42088419990614;154.42088419990614;154.42088419990614;157.44212780008093;157.44212780008093;157.44212780008093;157.44212780008093;157.44212780008093;157.44212780008093;['c', 'u', 'e', 'r', 'd', 'a'];0;[1.1505284998565912, 1.3059582998976111, 1.38579719979316, 1.4624848999083042, 1.66881849989295, 1.7455949001014233];cuerda;C:\2023\REPSWITCH21092023\REPSWITCH_excgange\REPSWITCH_excgange\data/310104_REPSWITCH1_version1_list4_2023-12-05_15h16.56.963_micRespv1l4_recorded\recording_micRespv1l4_2023-12-05_15h19.22.421.wav;157.44212780008093;157.9421918001026;None;;;;;;310104;001;2023-12-05_15h16.56.963;REPSWITCH1_version1_list4;2022.2.4;143.8919314921512;
REPSWITCH1/PICTURE_517.png;cuerda;type;darkblue;repeat;1;T;2;4;4;1;Stim4_Set2;0;None;30;29;30;0;29;29;29;;;;;;;;;;;;;;;;;;;;;;;157.9421918001026;158.997937399894;158.997937399894;158.997937399894;158.997937399894;158.997937399894;158.997937399894;158.997937399894;158.997937399894;162.0191126000136;162.0191126000136;162.0191126000136;162.0191126000136;162.0191126000136;162.0191126000136;['c', 'u', 'e', 'r', 'd', 'a'];0;[0.9262477001175284, 1.0717557002790272, 1.1425153999589384, 1.2182579999789596, 1.353806999977678, 1.4275751002132893];cuerda;C:\2023\REPSWITCH21092023\REPSWITCH_excgange\REPSWITCH_excgange\data/310104_REPSWITCH1_version1_list4_2023-12-05_15h16.56.963_micRespv1l4_recorded\recording_micRespv1l4_2023-12-05_15h19.26.998.wav;162.0191126000136;162.51923190010712;None;;;;;;310104;001;2023-12-05_15h16.56.963;REPSWITCH1_version1_list4;2022.2.4;143.8919314921512;
REPSWITCH1/PICTURE_169.png;espalda;type;darkblue;filler;1;F;2;4;4;1;Stim8_Set1;0;None;31;30;31;0;30;30;30;;;;;;;;;;;;;;;;;;;;;;;162.51923190010712;163.63042109971866;163.63042109971866;163.63042109971866;163.63042109971866;163.63042109971866;163.63042109971866;163.63042109971866;163.63042109971866;166.65867980010808;166.65867980010808;166.65867980010808;166.65867980010808;166.65867980010808;166.65867980010808;['e', 's', 'p', 'a', 'l', 'd', 'a'];0;[0.8887903997674584, 1.050417599733919, 1.1739656999707222, 1.2785229999572039, 1.4639037996530533, 1.613400399684906, 1.6522393999621272];espalda;C:\2023\REPSWITCH21092023\REPSWITCH_excgange\REPSWITCH_excgange\data/310104_REPSWITCH1_version1_list4_2023-12-05_15h16.56.963_micRespv1l4_recorded\recording_micRespv1l4_2023-12-05_15h19.31.630.wav;166.65867980010808;;None;;;;;;310104;001;2023-12-05_15h16.56.963;REPSWITCH1_version1_list4;2022.2.4;143.8919314921512;
REPSWITCH1/PICTURE_673.png;tenedor;speak;gold;filler;2;F;2;4;4;1;Extra5;0;None;32;31;32;0;31;31;31;;;;;;;;;;;;;;;;;;;;;;;167.15864949999377;168.2629625000991;168.2629625000991;168.2629625000991;168.2629625000991;168.2629625000991;168.2629625000991;168.2629625000991;168.2629625000991;171.2842298001051;171.2842298001051;171.2842298001051;171.2842298001051;171.2842298001051;171.2842298001051;None;0;;;C:\2023\REPSWITCH21092023\REPSWITCH_excgange\REPSWITCH_excgange\data/310104_REPSWITCH1_version1_list4_2023-12-05_15h16.56.963_micRespv1l4_recorded\recording_micRespv1l4_2023-12-05_15h19.36.263.wav;171.2842298001051;171.78435999993235;None;;;;;;310104;001;2023-12-05_15h16.56.963;REPSWITCH1_version1_list4;2022.2.4;143.8919314921512;
REPSWITCH1/PICTURE_142.png;vaso;type;darkblue;filler;1;F;2;4;4;1;Stim7_Set1;1;switch;33;32;33;0;32;32;32;;;;;;;;;;;;;;;;;;;;;;;171.78435999993235;172.874690100085;172.874690100085;172.874690100085;172.874690100085;172.874690100085;172.874690100085;172.874690100085;172.874690100085;175.8959546997212;175.8959546997212;175.8959546997212;175.8959546997212;175.8959546997212;175.8959546997212;['v', 'a', 's', 'o'];0;[0.8568520997650921, 1.0621211999095976, 1.1368261999450624, 1.2384651997126639];vaso;C:\2023\REPSWITCH21092023\REPSWITCH_excgange\REPSWITCH_excgange\data/310104_REPSWITCH1_version1_list4_2023-12-05_15h16.56.963_micRespv1l4_recorded\recording_micRespv1l4_2023-12-05_15h19.40.874.wav;175.8959546997212;176.39600249985233;None;;;;;;310104;001;2023-12-05_15h16.56.963;REPSWITCH1_version1_list4;2022.2.4;143.8919314921512;
REPSWITCH1/PICTURE_552.png;manzana;type;darkblue;nontarget;1;NT;2;4;4;1;Stim6_Set2;1;repeat;34;33;34;0;33;33;33;;;;;;;;;;;;;;;;;;;;;;;176.39600249985233;177.51421430008486;177.51421430008486;177.51421430008486;177.51421430008486;177.51421430008486;177.51421430008486;177.51421430008486;177.51421430008486;180.53543079970405;180.53543079970405;180.53543079970405;180.53543079970405;180.53543079970405;180.53543079970405;['m', 'a', 'n', 'a', 'backspace', 'z', 'a', 'n', 'a'];0;[1.0706770000979304, 1.1842117998749018, 1.275896199978888, 1.4901875001378357, 2.002723299898207, 2.1253097001463175, 2.290749500039965, 2.427416400052607, 2.545046200044453];manzana;C:\2023\REPSWITCH21092023\REPSWITCH_excgange\REPSWITCH_excgange\data/310104_REPSWITCH1_version1_list4_2023-12-05_15h16.56.963_micRespv1l4_recorded\recording_micRespv1l4_2023-12-05_15h19.45.513.wav;180.53543079970405;181.03546039992943;None;;;;;;310104;001;2023-12-05_15h16.56.963;REPSWITCH1_version1_list4;2022.2.4;143.8919314921512;
REPSWITCH1/PICTURE_552.png;manzana;speak;gold;switch;1;T;2;4;4;1;Stim6_Set2;0;None;35;34;35;0;34;34;34;;;;;;;;;;;;;;;;;;;;;;;181.03546039992943;182.04957140004262;182.04957140004262;182.04957140004262;182.04957140004262;182.04957140004262;182.04957140004262;182.04957140004262;182.04957140004262;185.07767109991983;185.07767109991983;185.07767109991983;185.07767109991983;185.07767109991983;185.07767109991983;None;0;;;C:\2023\REPSWITCH21092023\REPSWITCH_excgange\REPSWITCH_excgange\data/310104_REPSWITCH1_version1_list4_2023-12-05_15h16.56.963_micRespv1l4_recorded\recording_micRespv1l4_2023-12-05_15h19.50.050.wav;185.07767109991983;;None;;;;;;310104;001;2023-12-05_15h16.56.963;REPSWITCH1_version1_list4;2022.2.4;143.8919314921512;
REPSWITCH1/PICTURE_135.png;traje;speak;gold;filler;2;F;2;4;4;1;Stim3_Set1;0;None;36;35;36;0;35;35;35;;;;;;;;;;;;;;;;;;;;;;;185.57773179979995;186.70289319986477;186.70289319986477;186.70289319986477;186.70289319986477;186.70289319986477;186.70289319986477;186.70289319986477;186.70289319986477;189.72421230003238;189.72421230003238;189.72421230003238;189.72421230003238;189.72421230003238;189.72421230003238;None;0;;;C:\2023\REPSWITCH21092023\REPSWITCH_excgange\REPSWITCH_excgange\data/310104_REPSWITCH1_version1_list4_2023-12-05_15h16.56.963_micRespv1l4_recorded\recording_micRespv1l4_2023-12-05_15h19.54.702.wav;189.72421230003238;190.22418370004743;None;;;;;;310104;001;2023-12-05_15h16.56.963;REPSWITCH1_version1_list4;2022.2.4;143.8919314921512;
REPSWITCH1/PICTURE_152.png;caracol;speak;gold;nontarget;2;NT;2;4;4;1;Stim2_Set2;1;repeat;37;36;37;0;36;36;36;;;;;;;;;;;;;;;;;;;;;;;190.22418370004743;191.34246649965644;191.34246649965644;191.34246649965644;191.34246649965644;191.34246649965644;191.34246649965644;191.34246649965644;191.34246649965644;194.36358929984272;194.36358929984272;194.36358929984272;194.36358929984272;194.36358929984272;194.36358929984272;None;0;;;C:\2023\REPSWITCH21092023\REPSWITCH_excgange\REPSWITCH_excgange\data/310104_REPSWITCH1_version1_list4_2023-12-05_15h16.56.963_micRespv1l4_recorded\recording_micRespv1l4_2023-12-05_15h19.59.342.wav;194.36358929984272;194.8636694001034;None;;;;;;310104;001;2023-12-05_15h16.56.963;REPSWITCH1_version1_list4;2022.2.4;143.8919314921512;
REPSWITCH1/PICTURE_152.png;caracol;type;darkblue;switch;1;T;2;4;4;1;Stim2_Set2;0;None;38;37;38;0;37;37;37;;;;;;;;;;;;;;;;;;;;;;;194.8636694001034;196.0443949997425;196.0443949997425;196.0443949997425;196.0443949997425;196.0443949997425;196.0443949997425;196.0443949997425;196.0443949997425;199.0656051998958;199.0656051998958;199.0656051998958;199.0656051998958;199.0656051998958;199.0656051998958;['c', 'a', 'r', 'a', 'c', 'o', 'l'];0;[0.41392109962180257, 0.5862991996109486, 0.6899823998101056, 0.7853297996334732, 1.005574299953878, 1.070365599822253, 1.2530620996840298];caracol;C:\2023\REPSWITCH21092023\REPSWITCH_excgange\REPSWITCH_excgange\data/310104_REPSWITCH1_version1_list4_2023-12-05_15h16.56.963_micRespv1l4_recorded\recording_micRespv1l4_2023-12-05_15h20.04.044.wav;199.0656051998958;199.56566260010004;None;;;;;;310104;001;2023-12-05_15h16.56.963;REPSWITCH1_version1_list4;2022.2.4;143.8919314921512;
REPSWITCH1/PICTURE_381.png;fresa;type;darkblue;filler;1;F;2;4;4;1;Stim2_Set1;0;None;39;38;39;0;38;38;38;;;;;;;;;;;;;;;;;;;;;;;199.56566260010004;200.78813919983804;200.78813919983804;200.78813919983804;200.78813919983804;200.78813919983804;200.78813919983804;200.78813919983804;200.78813919983804;203.81626620003954;203.81626620003954;203.81626620003954;203.81626620003954;203.81626620003954;203.81626620003954;['f', 'r', 'e', 's', 'a'];0;[0.8560593998990953, 0.9816438001580536, 1.0095489001832902, 1.2039246000349522, 1.2906372002325952];fresa;C:\2023\REPSWITCH21092023\REPSWITCH_excgange\REPSWITCH_excgange\data/310104_REPSWITCH1_version1_list4_2023-12-05_15h16.56.963_micRespv1l4_recorded\recording_micRespv1l4_2023-12-05_15h20.08.788.wav;203.81626620003954;;None;;;;;;310104;001;2023-12-05_15h16.56.963;REPSWITCH1_version1_list4;2022.2.4;143.8919314921512;
REPSWITCH1/PICTURE_446.png;cerdo;type;darkblue;nontarget;1;NT;2;4;4;1;Stim7_Set2;1;repeat;40;39;40;0;39;39;39;;;;;;;;;;;;;;;;;;;;;;;204.31632179999724;205.36512999981642;205.36512999981642;205.36512999981642;205.36512999981642;205.36512999981642;205.36512999981642;205.36512999981642;205.36512999981642;208.3932535997592;208.3932535997592;208.3932535997592;208.3932535997592;208.3932535997592;208.3932535997592;['c', 'e', 'r', 'd', 'o'];0;[0.8654697998426855, 1.0199473998509347, 1.1046242001466453, 1.262127600144595, 1.5764894001185894];cerdo;C:\2023\REPSWITCH21092023\REPSWITCH_excgange\REPSWITCH_excgange\data/310104_REPSWITCH1_version1_list4_2023-12-05_15h16.56.963_micRespv1l4_recorded\recording_micRespv1l4_2023-12-05_15h20.13.366.wav;208.3932535997592;;None;;;;;;310104;001;2023-12-05_15h16.56.963;REPSWITCH1_version1_list4;2022.2.4;143.8919314921512;
REPSWITCH1/PICTURE_446.png;cerdo;speak;gold;switch;2;T;2;4;4;1;Stim7_Set2;0;None;41;40;41;0;40;40;40;;;;;;;;;;;;;;;;;;;;;;;208.8933802996762;209.94902559975162;209.94902559975162;209.94902559975162;209.94902559975162;209.94902559975162;209.94902559975162;209.94902559975162;209.94902559975162;212.9702129997313;212.9702129997313;212.9702129997313;212.9702129997313;212.9702129997313;212.9702129997313;None;0;;;C:\2023\REPSWITCH21092023\REPSWITCH_excgange\REPSWITCH_excgange\data/310104_REPSWITCH1_version1_list4_2023-12-05_15h16.56.963_micRespv1l4_recorded\recording_micRespv1l4_2023-12-05_15h20.17.948.wav;212.9702129997313;213.4703019997105;None;;;;;;310104;001;2023-12-05_15h16.56.963;REPSWITCH1_version1_list4;2022.2.4;143.8919314921512;
REPSWITCH1/PICTURE_264.png;mano;speak;gold;nontarget;2;NT;2;4;4;1;Stim3_Set2;0;None;42;41;42;0;41;41;41;;;;;;;;;;;;;;;;;;;;;;;213.4703019997105;214.525982900057;214.525982900057;214.525982900057;214.525982900057;214.525982900057;214.525982900057;214.525982900057;214.525982900057;217.547206599731;217.547206599731;217.547206599731;217.547206599731;217.547206599731;217.547206599731;None;0;;;C:\2023\REPSWITCH21092023\REPSWITCH_excgange\REPSWITCH_excgange\data/310104_REPSWITCH1_version1_list4_2023-12-05_15h16.56.963_micRespv1l4_recorded\recording_micRespv1l4_2023-12-05_15h20.22.525.wav;217.547206599731;218.047289500013;None;;;;;;310104;001;2023-12-05_15h16.56.963;REPSWITCH1_version1_list4;2022.2.4;143.8919314921512;
REPSWITCH1/PICTURE_264.png;mano;speak;gold;repeat;2;T;2;4;4;1;Stim3_Set2;0;None;43;42;43;0;42;42;42;;;;;;;;;;;;;;;;;;;;;;;218.047289500013;219.11690639983863;219.11690639983863;219.11690639983863;219.11690639983863;219.11690639983863;219.11690639983863;219.11690639983863;219.11690639983863;222.1380678997375;222.1380678997375;222.1380678997375;222.1380678997375;222.1380678997375;222.1380678997375;None;0;;;C:\2023\REPSWITCH21092023\REPSWITCH_excgange\REPSWITCH_excgange\data/310104_REPSWITCH1_version1_list4_2023-12-05_15h16.56.963_micRespv1l4_recorded\recording_micRespv1l4_2023-12-05_15h20.27.116.wav;222.1380678997375;222.63816999970004;None;;;;;;310104;001;2023-12-05_15h16.56.963;REPSWITCH1_version1_list4;2022.2.4;143.8919314921512;
REPSWITCH1/PICTURE_128.png;muñeca;type;darkblue;filler;1;F;2;4;4;1;Stim4_Set1;0;None;44;43;44;0;43;43;43;;;;;;;;;;;;;;;;;;;;;;;222.63816999970004;223.70781109994277;223.70781109994277;223.70781109994277;223.70781109994277;223.70781109994277;223.70781109994277;223.70781109994277;223.70781109994277;226.73592810006812;226.73592810006812;226.73592810006812;226.73592810006812;226.73592810006812;226.73592810006812;['m', 'u', 'e', 'ñ', 'backspace', 'ñ'];0;[0.9157444001175463, 1.1383997001685202, 1.6606084001250565, 1.6685724002309144, 2.3183535002171993, 2.94425560021773];mueñ;C:\2023\REPSWITCH21092023\REPSWITCH_excgange\REPSWITCH_excgange\data/310104_REPSWITCH1_version1_list4_2023-12-05_15h16.56.963_micRespv1l4_recorded\recording_micRespv1l4_2023-12-05_15h20.31.708.wav;226.73592810006812;;None;;;;;;310104;001;2023-12-05_15h16.56.963;REPSWITCH1_version1_list4;2022.2.4;143.8919314921512;
REPSWITCH1/PICTURE_30.png;granja;speak;gold;nontarget;2;NT;2;4;4;1;Stim5_Set2;1;switch;45;44;45;0;44;44;44;;;;;;;;;;;;;;;;;;;;;;;227.23600229993463;228.3611546996981;228.3611546996981;228.3611546996981;228.3611546996981;228.3611546996981;228.3611546996981;228.3611546996981;228.3611546996981;231.3893483998254;231.3893483998254;231.3893483998254;231.3893483998254;231.3893483998254;231.3893483998254;None;0;;;C:\2023\REPSWITCH21092023\REPSWITCH_excgange\REPSWITCH_excgange\data/310104_REPSWITCH1_version1_list4_2023-12-05_15h16.56.963_micRespv1l4_recorded\recording_micRespv1l4_2023-12-05_15h20.36.361.wav;231.3893483998254;;None;;;;;;310104;001;2023-12-05_15h16.56.963;REPSWITCH1_version1_list4;2022.2.4;143.8919314921512;
REPSWITCH1/PICTURE_30.png;granja;speak;gold;repeat;2;T;2;4;4;1;Stim5_Set2;0;None;46;45;46;0;45;45;45;;;;;;;;;;;;;;;;;;;;;;;231.8893838999793;232.97989889979362;232.97989889979362;232.97989889979362;232.97989889979362;232.97989889979362;232.97989889979362;232.97989889979362;232.97989889979362;236.00796320009977;236.00796320009977;236.00796320009977;236.00796320009977;236.00796320009977;236.00796320009977;None;0;;;C:\2023\REPSWITCH21092023\REPSWITCH_excgange\REPSWITCH_excgange\data/310104_REPSWITCH1_version1_list4_2023-12-05_15h16.56.963_micRespv1l4_recorded\recording_micRespv1l4_2023-12-05_15h20.40.980.wav;236.00796320009977;;None;;;;;;310104;001;2023-12-05_15h16.56.963;REPSWITCH1_version1_list4;2022.2.4;143.8919314921512;
REPSWITCH1/PICTURE_646.png;tronco;type;darkblue;filler;1;F;2;4;4;1;Extra4;0;None;47;46;47;0;46;46;46;;;;;;;;;;;;;;;;;;;;;;;236.50805329997092;237.59848299995065;237.59848299995065;237.59848299995065;237.59848299995065;237.59848299995065;237.59848299995065;237.59848299995065;237.59848299995065;240.61971109965816;240.61971109965816;240.61971109965816;240.61971109965816;240.61971109965816;240.61971109965816;['t', 'r', 'o', 'n', 'c', 'o'];0;[1.923583900090307, 1.9694133000448346, 2.061077699996531, 2.1364581999368966, 2.2479492998681962, 2.310740699991584];tronco;C:\2023\REPSWITCH21092023\REPSWITCH_excgange\REPSWITCH_excgange\data/310104_REPSWITCH1_version1_list4_2023-12-05_15h16.56.963_micRespv1l4_recorded\recording_micRespv1l4_2023-12-05_15h20.45.598.wav;240.61971109965816;241.119735899847;None;;;;;;310104;001;2023-12-05_15h16.56.963;REPSWITCH1_version1_list4;2022.2.4;143.8919314921512;
REPSWITCH1/PICTURE_16.png;cazador;speak;gold;filler;2;F;2;4;4;1;Stim6_Set1;0;None;48;47;48;0;47;47;47;;;;;;;;;;;;;;;;;;;;;;;241.119735899847;242.17551499977708;242.17551499977708;242.17551499977708;242.17551499977708;242.17551499977708;242.17551499977708;242.17551499977708;242.17551499977708;245.1967392996885;245.1967392996885;245.1967392996885;245.1967392996885;245.1967392996885;245.1967392996885;None;0;;;C:\2023\REPSWITCH21092023\REPSWITCH_excgange\REPSWITCH_excgange\data/310104_REPSWITCH1_version1_list4_2023-12-05_15h16.56.963_micRespv1l4_recorded\recording_micRespv1l4_2023-12-05_15h20.50.175.wav;245.1967392996885;245.696720500011;None;;;;;;310104;001;2023-12-05_15h16.56.963;REPSWITCH1_version1_list4;2022.2.4;143.8919314921512;
REPSWITCH1/PICTURE_175.png;pintor;speak;gold;nontarget;2;NT;2;4;4;1;Stim1_Set2;1;repeat;49;48;49;0;48;48;48;;;;;;;;;;;;;;;;;;;;;;;245.696720500011;246.81501749996096;246.81501749996096;246.81501749996096;246.81501749996096;246.81501749996096;246.81501749996096;246.81501749996096;246.81501749996096;249.83624259987846;249.83624259987846;249.83624259987846;249.83624259987846;249.83624259987846;249.83624259987846;None;0;;;C:\2023\REPSWITCH21092023\REPSWITCH_excgange\REPSWITCH_excgange\data/310104_REPSWITCH1_version1_list4_2023-12-05_15h16.56.963_micRespv1l4_recorded\recording_micRespv1l4_2023-12-05_15h20.54.814.wav;249.83624259987846;250.33622909989208;None;;;;;;310104;001;2023-12-05_15h16.56.963;REPSWITCH1_version1_list4;2022.2.4;143.8919314921512;
REPSWITCH1/PICTURE_175.png;pintor;type;darkblue;switch;1;T;2;4;4;1;Stim1_Set2;0;None;50;49;50;0;49;49;49;;;;;;;;;;;;;;;;;;;;;;;250.33622909989208;251.46143799973652;251.46143799973652;251.46143799973652;251.46143799973652;251.46143799973652;251.46143799973652;251.46143799973652;251.46143799973652;254.48955809976906;254.48955809976906;254.48955809976906;254.48955809976906;254.48955809976906;254.48955809976906;['p', 'i', 'n', 't', 'o', 'r'];0;[0.9264444001019001, 1.127537100110203, 1.2411998002789915, 1.3687197002582252, 1.4215386002324522, 1.6248686001636088];pintor;C:\2023\REPSWITCH21092023\REPSWITCH_excgange\REPSWITCH_excgange\data/310104_REPSWITCH1_version1_list4_2023-12-05_15h16.56.963_micRespv1l4_recorded\recording_micRespv1l4_2023-12-05_15h20.59.462.wav;254.48955809976906;;None;;;;;;310104;001;2023-12-05_15h16.56.963;REPSWITCH1_version1_list4;2022.2.4;143.8919314921512;
REPSWITCH1/PICTURE_663.png;columna;speak;gold;filler;2;F;4;4;4;1;Extra6;0;None;51;50;51;0;50;50;50;;;;;;;;;;;;;;;;;;;;;;;254.98960859980434;256.1148060997948;256.1148060997948;256.1148060997948;256.1148060997948;256.1148060997948;256.1148060997948;256.1148060997948;256.1148060997948;259.1360182999633;259.1360182999633;259.1360182999633;259.1360182999633;259.1360182999633;259.1360182999633;None;0;;;C:\2023\REPSWITCH21092023\REPSWITCH_excgange\REPSWITCH_excgange\data/310104_REPSWITCH1_version1_list4_2023-12-05_15h16.56.963_micRespv1l4_recorded\recording_micRespv1l4_2023-12-05_15h21.04.114.wav;259.1360182999633;259.6360800997354;space;259.6360800997354;259.6360800997354;5.93370690010488;;;310104;001;2023-12-05_15h16.56.963;REPSWITCH1_version1_list4;2022.2.4;143.8919314921512;
REPSWITCH1/PICTURE_35.png;oreja;type;darkblue;nontarget;1;NT;3;4;4;1;Stim5_Set3;0;None;52;51;52;0;51;51;51;;;;;;;;;;;;;;;;;;;;;;;265.5813013999723;266.74119809968397;266.74119809968397;266.74119809968397;266.74119809968397;266.74119809968397;266.74119809968397;266.74119809968397;266.74119809968397;269.7623991998844;269.7623991998844;269.7623991998844;269.7623991998844;269.7623991998844;269.7623991998844;['o', 'r', 'e', 'j', 'a'];0;[1.2803324996493757, 1.446845999918878, 1.4966829996556044, 1.689234099816531, 1.7696747998706996];oreja;C:\2023\REPSWITCH21092023\REPSWITCH_excgange\REPSWITCH_excgange\data/310104_REPSWITCH1_version1_list4_2023-12-05_15h16.56.963_micRespv1l4_recorded\recording_micRespv1l4_2023-12-05_15h21.14.740.wav;269.7623991998844;270.26247379975393;None;;;;;;310104;001;2023-12-05_15h16.56.963;REPSWITCH1_version1_list4;2022.2.4;143.8919314921512;
REPSWITCH1/PICTURE_35.png;oreja;speak;gold;switch;2;T;3;4;4;1;Stim5_Set3;0;None;53;52;53;0;52;52;52;;;;;;;;;;;;;;;;;;;;;;;270.26247379975393;271.3599021998234;271.3599021998234;271.3599021998234;271.3599021998234;271.3599021998234;271.3599021998234;271.3599021998234;271.3599021998234;274.3810486998409;274.3810486998409;274.3810486998409;274.3810486998409;274.3810486998409;274.3810486998409;None;0;;;C:\2023\REPSWITCH21092023\REPSWITCH_excgange\REPSWITCH_excgange\data/310104_REPSWITCH1_version1_list4_2023-12-05_15h16.56.963_micRespv1l4_recorded\recording_micRespv1l4_2023-12-05_15h21.19.360.wav;274.3810486998409;274.8811630997807;None;;;;;;310104;001;2023-12-05_15h16.56.963;REPSWITCH1_version1_list4;2022.2.4;143.8919314921512;
REPSWITCH1/PICTURE_199.png;falda;speak;gold;filler;2;F;3;4;4;1;Stim8_Set2;0;None;54;53;54;0;53;53;53;;;;;;;;;;;;;;;;;;;;;;;274.8811630997807;275.9507156996988;275.9507156996988;275.9507156996988;275.9507156996988;275.9507156996988;275.9507156996988;275.9507156996988;275.9507156996988;278.97889029979706;278.97889029979706;278.97889029979706;278.97889029979706;278.97889029979706;278.97889029979706;None;0;;;C:\2023\REPSWITCH21092023\REPSWITCH_excgange\REPSWITCH_excgange\data/310104_REPSWITCH1_version1_list4_2023-12-05_15h16.56.963_micRespv1l4_recorded\recording_micRespv1l4_2023-12-05_15h21.23.950.wav;278.97889029979706;;None;;;;;;310104;001;2023-12-05_15h16.56.963;REPSWITCH1_version1_list4;2022.2.4;143.8919314921512;
REPSWITCH1/PICTURE_576.png;guante;speak;gold;nontarget;2;NT;3;4;4;1;Stim1_Set3;1;repeat;55;54;55;0;54;54;54;;;;;;;;;;;;;;;;;;;;;;;279.4789597000927;280.54162029968575;280.54162029968575;280.54162029968575;280.54162029968575;280.54162029968575;280.54162029968575;280.54162029968575;280.54162029968575;283.5628239996731;283.5628239996731;283.5628239996731;283.5628239996731;283.5628239996731;283.5628239996731;None;0;;;C:\2023\REPSWITCH21092023\REPSWITCH_excgange\REPSWITCH_excgange\data/310104_REPSWITCH1_version1_list4_2023-12-05_15h16.56.963_micRespv1l4_recorded\recording_micRespv1l4_2023-12-05_15h21.28.540.wav;283.5628239996731;284.06291509978473;None;;;;;;310104;001;2023-12-05_15h16.56.963;REPSWITCH1_version1_list4;2022.2.4;143.8919314921512;
REPSWITCH1/PICTURE_576.png;guante;type;darkblue;switch;1;T;3;4;4;1;Stim1_Set3;0;None;56;55;56;0;55;55;55;;;;;;;;;;;;;;;;;;;;;;;284.06291509978473;285.2297416999936;285.2297416999936;285.2297416999936;285.2297416999936;285.2297416999936;285.2297416999936;285.2297416999936;285.2297416999936;288.25094599975273;288.25094599975273;288.25094599975273;288.25094599975273;288.25094599975273;288.25094599975273;['g', 'u', 'a', 'n', 't', 'e'];0;[0.9849912999197841, 1.0997617999091744, 1.2376537998206913, 1.2953705000691116, 1.4688635999336839, 1.5166223999112844];guante;C:\2023\REPSWITCH21092023\REPSWITCH_excgange\REPSWITCH_excgange\data/310104_REPSWITCH1_version1_list4_2023-12-05_15h16.56.963_micRespv1l4_recorded\recording_micRespv1l4_2023-12-05_15h21.33.229.wav;288.25094599975273;288.7510091001168;None;;;;;;310104;001;2023-12-05_15h16.56.963;REPSWITCH1_version1_list4;2022.2.4;143.8919314921512;
REPSWITCH1/PICTURE_517.png;cuerda;type;darkblue;filler;1;F;3;4;4;1;Stim4_Set2;1;repeat;57;56;57;0;56;56;56;;;;;;;;;;;;;;;;;;;;;;;288.7510091001168;289.88316439976916;289.88316439976916;289.88316439976916;289.88316439976916;289.88316439976916;289.88316439976916;289.88316439976916;289.88316439976916;292.9112710999325;292.9112710999325;292.9112710999325;292.9112710999325;292.9112710999325;292.9112710999325;['c', 'u', 'e', 'r', 'd', 'a'];0;[1.1017477000132203, 1.199407999869436, 1.278102499898523, 1.3339567999355495, 1.5155776999890804, 1.6002914998680353];cuerda;C:\2023\REPSWITCH21092023\REPSWITCH_excgange\REPSWITCH_excgange\data/310104_REPSWITCH1_version1_list4_2023-12-05_15h16.56.963_micRespv1l4_recorded\recording_micRespv1l4_2023-12-05_15h21.37.883.wav;292.9112710999325;;None;;;;;;310104;001;2023-12-05_15h16.56.963;REPSWITCH1_version1_list4;2022.2.4;143.8919314921512;
REPSWITCH1/PICTURE_271.png;conejo;type;darkblue;nontarget;1;NT;3;4;4;1;Stim7_Set3;1;repeat;58;57;58;0;57;57;57;;;;;;;;;;;;;;;;;;;;;;;293.41133809974417;294.5712383999489;294.5712383999489;294.5712383999489;294.5712383999489;294.5712383999489;294.5712383999489;294.5712383999489;294.5712383999489;297.5924104000442;297.5924104000442;297.5924104000442;297.5924104000442;297.5924104000442;297.5924104000442;['c', 'o', 'n', 'e', 'j', 'o'];0;[0.8758098003454506, 0.9738160003907979, 1.0475670001469553, 1.1493349000811577, 1.2754691001027822, 1.3542369999922812];conejo;C:\2023\REPSWITCH21092023\REPSWITCH_excgange\REPSWITCH_excgange\data/310104_REPSWITCH1_version1_list4_2023-12-05_15h16.56.963_micRespv1l4_recorded\recording_micRespv1l4_2023-12-05_15h21.42.571.wav;297.5924104000442;298.09249940002337;None;;;;;;310104;001;2023-12-05_15h16.56.963;REPSWITCH1_version1_list4;2022.2.4;143.8919314921512;
REPSWITCH1/PICTURE_271.png;conejo;speak;gold;switch;2;T;3;4;4;1;Stim7_Set3;0;None;59;58;59;0;58;58;58;;;;;;;;;;;;;;;;;;;;;;;298.09249940002337;299.1205023000948;299.1205023000948;299.1205023000948;299.1205023000948;299.1205023000948;299.1205023000948;299.1205023000948;299.1205023000948;302.1485723000951;302.1485723000951;302.1485723000951;302.1485723000951;302.1485723000951;302.1485723000951;None;0;;;C:\2023\REPSWITCH21092023\REPSWITCH_excgange\REPSWITCH_excgange\data/310104_REPSWITCH1_version1_list4_2023-12-05_15h16.56.963_micRespv1l4_recorded\recording_micRespv1l4_2023-12-05_15h21.47.120.wav;302.1485723000951;;None;;;;;;310104;001;2023-12-05_15h16.56.963;REPSWITCH1_version1_list4;2022.2.4;143.8919314921512;
REPSWITCH1/PICTURE_552.png;manzana;type;darkblue;filler;1;F;3;4;4;1;Stim6_Set2;0;None;60;59;60;0;59;59;59;;;;;;;;;;;;;;;;;;;;;;;302.6486404999159;303.8154711998068;303.8154711998068;303.8154711998068;303.8154711998068;303.8154711998068;303.8154711998068;303.8154711998068;303.8154711998068;306.8436328000389;306.8436328000389;306.8436328000389;306.8436328000389;306.8436328000389;306.8436328000389;['m', 'a', 'n', 'z', 'a', 'n', 'a'];0;[0.9164685001596808, 1.076886700000614, 1.1686152000911534, 1.2735451003536582, 1.43827769998461, 1.5962882000021636, 1.757819500286132];manzana;C:\2023\REPSWITCH21092023\REPSWITCH_excgange\REPSWITCH_excgange\data/310104_REPSWITCH1_version1_list4_2023-12-05_15h16.56.963_micRespv1l4_recorded\recording_micRespv1l4_2023-12-05_15h21.51.816.wav;306.8436328000389;;None;;;;;;310104;001;2023-12-05_15h16.56.963;REPSWITCH1_version1_list4;2022.2.4;143.8919314921512;
REPSWITCH1/PICTURE_242.png;cartero;speak;gold;nontarget;2;NT;3;4;4;1;Stim3_Set3;1;switch;61;60;61;0;60;60;60;;;;;;;;;;;;;;;;;;;;;;;307.34370019985363;308.4758417997509;308.4758417997509;308.4758417997509;308.4758417997509;308.4758417997509;308.4758417997509;308.4758417997509;308.4758417997509;311.4970305999741;311.4970305999741;311.4970305999741;311.4970305999741;311.4970305999741;311.4970305999741;None;0;;;C:\2023\REPSWITCH21092023\REPSWITCH_excgange\REPSWITCH_excgange\data/310104_REPSWITCH1_version1_list4_2023-12-05_15h16.56.963_micRespv1l4_recorded\recording_micRespv1l4_2023-12-05_15h21.56.475.wav;311.4970305999741;311.9971161996946;None;;;;;;310104;001;2023-12-05_15h16.56.963;REPSWITCH1_version1_list4;2022.2.4;143.8919314921512;
REPSWITCH1/PICTURE_242.png;cartero;speak;gold;repeat;2;T;3;4;4;1;Stim3_Set3;0;None;62;61;62;0;61;61;61;;;;;;;;;;;;;;;;;;;;;;;311.9971161996946;313.1222922001034;313.1222922001034;313.1222922001034;313.1222922001034;313.1222922001034;313.1222922001034;313.1222922001034;313.1222922001034;316.1504162000492;316.1504162000492;316.1504162000492;316.1504162000492;316.1504162000492;316.1504162000492;None;0;;;C:\2023\REPSWITCH21092023\REPSWITCH_excgange\REPSWITCH_excgange\data/310104_REPSWITCH1_version1_list4_2023-12-05_15h16.56.963_micRespv1l4_recorded\recording_micRespv1l4_2023-12-05_15h22.01.122.wav;316.1504162000492;;None;;;;;;310104;001;2023-12-05_15h16.56.963;REPSWITCH1_version1_list4;2022.2.4;143.8919314921512;
REPSWITCH1/PICTURE_152.png;caracol;speak;gold;filler;2;F;3;4;4;1;Stim2_Set2;0;None;63;62;63;0;62;62;62;;;;;;;;;;;;;;;;;;;;;;;316.6504893996753;317.84510349994525;317.84510349994525;317.84510349994525;317.84510349994525;317.84510349994525;317.84510349994525;317.84510349994525;317.84510349994525;320.8732738997787;320.8732738997787;320.8732738997787;320.8732738997787;320.8732738997787;320.8732738997787;None;0;;;C:\2023\REPSWITCH21092023\REPSWITCH_excgange\REPSWITCH_excgange\data/310104_REPSWITCH1_version1_list4_2023-12-05_15h16.56.963_micRespv1l4_recorded\recording_micRespv1l4_2023-12-05_15h22.05.845.wav;320.8732738997787;;None;;;;;;310104;001;2023-12-05_15h16.56.963;REPSWITCH1_version1_list4;2022.2.4;143.8919314921512;
REPSWITCH1/PICTURE_446.png;cerdo;type;darkblue;filler;1;F;3;4;4;1;Stim7_Set2;1;switch;64;63;64;0;63;63;63;;;;;;;;;;;;;;;;;;;;;;;321.37334170006216;322.56100409990177;322.56100409990177;322.56100409990177;322.56100409990177;322.56100409990177;322.56100409990177;322.56100409990177;322.56100409990177;325.58219219977036;325.58219219977036;325.58219219977036;325.58219219977036;325.58219219977036;325.58219219977036;['c', 'e', 'r', 'd', 'o'];0;[0.7894703997299075, 0.9518885998986661, 1.01866320008412, 1.218025399837643, 1.2887891000136733];cerdo;C:\2023\REPSWITCH21092023\REPSWITCH_excgange\REPSWITCH_excgange\data/310104_REPSWITCH1_version1_list4_2023-12-05_15h16.56.963_micRespv1l4_recorded\recording_micRespv1l4_2023-12-05_15h22.10.561.wav;325.58219219977036;326.0822986997664;None;;;;;;310104;001;2023-12-05_15h16.56.963;REPSWITCH1_version1_list4;2022.2.4;143.8919314921512;
REPSWITCH1/PICTURE_610.png;miel;speak;gold;nontarget;2;NT;3;4;4;1;Stim2_Set3;1;switch;65;64;65;0;64;64;64;;;;;;;;;;;;;;;;;;;;;;;326.0822986997664;327.1519027999602;327.1519027999602;327.1519027999602;327.1519027999602;327.1519027999602;327.1519027999602;327.1519027999602;327.1519027999602;330.1731132999994;330.1731132999994;330.1731132999994;330.1731132999994;330.1731132999994;330.1731132999994;None;0;;;C:\2023\REPSWITCH21092023\REPSWITCH_excgange\REPSWITCH_excgange\data/310104_REPSWITCH1_version1_list4_2023-12-05_15h16.56.963_micRespv1l4_recorded\recording_micRespv1l4_2023-12-05_15h22.15.152.wav;330.1731132999994;330.6731771999039;None;;;;;;310104;001;2023-12-05_15h16.56.963;REPSWITCH1_version1_list4;2022.2.4;143.8919314921512;
REPSWITCH1/PICTURE_610.png;miel;speak;gold;repeat;2;T;3;4;4;1;Stim2_Set3;0;None;66;65;66;0;65;65;65;;;;;;;;;;;;;;;;;;;;;;;330.6731771999039;331.8260860997252;331.8260860997252;331.8260860997252;331.8260860997252;331.8260860997252;331.8260860997252;331.8260860997252;331.8260860997252;334.85427880007774;334.85427880007774;334.85427880007774;334.85427880007774;334.85427880007774;334.85427880007774;None;0;;;C:\2023\REPSWITCH21092023\REPSWITCH_excgange\REPSWITCH_excgange\data/310104_REPSWITCH1_version1_list4_2023-12-05_15h16.56.963_micRespv1l4_recorded\recording_micRespv1l4_2023-12-05_15h22.19.825.wav;334.85427880007774;;None;;;;;;310104;001;2023-12-05_15h16.56.963;REPSWITCH1_version1_list4;2022.2.4;143.8919314921512;
REPSWITCH1/PICTURE_320.png;iglesia;speak;gold;nontarget;2;NT;3;4;4;1;Stim8_Set3;1;repeat;67;66;67;0;66;66;66;;;;;;;;;;;;;;;;;;;;;;;335.35434929979965;336.458650900051;336.458650900051;336.458650900051;336.458650900051;336.458650900051;336.458650900051;336.458650900051;336.458650900051;339.4798624999821;339.4798624999821;339.4798624999821;339.4798624999821;339.4798624999821;339.4798624999821;None;0;;;C:\2023\REPSWITCH21092023\REPSWITCH_excgange\REPSWITCH_excgange\data/310104_REPSWITCH1_version1_list4_2023-12-05_15h16.56.963_micRespv1l4_recorded\recording_micRespv1l4_2023-12-05_15h22.24.458.wav;339.4798624999821;339.9799496997148;None;;;;;;310104;001;2023-12-05_15h16.56.963;REPSWITCH1_version1_list4;2022.2.4;143.8919314921512;
REPSWITCH1/PICTURE_320.png;iglesia;type;darkblue;switch;1;T;3;4;4;1;Stim8_Set3;0;None;68;67;68;0;67;67;67;;;;;;;;;;;;;;;;;;;;;;;339.9799496997148;341.03569460008293;341.03569460008293;341.03569460008293;341.03569460008293;341.03569460008293;341.03569460008293;341.03569460008293;341.03569460008293;344.0568504999392;344.0568504999392;344.0568504999392;344.0568504999392;344.0568504999392;344.0568504999392;['i', 'g', 'l', 'e', 's', 'i', 'a'];0;[0.9732021000236273, 1.1376372002996504, 1.2761711003258824, 1.4609741000458598, 1.6774770999327302, 1.765147500205785, 1.8748109000734985];iglesia;C:\2023\REPSWITCH21092023\REPSWITCH_excgange\REPSWITCH_excgange\data/310104_REPSWITCH1_version1_list4_2023-12-05_15h16.56.963_micRespv1l4_recorded\recording_micRespv1l4_2023-12-05_15h22.29.035.wav;344.0568504999392;344.5569430999458;None;;;;;;310104;001;2023-12-05_15h16.56.963;REPSWITCH1_version1_list4;2022.2.4;143.8919314921512;
REPSWITCH1/PICTURE_30.png;granja;speak;gold;filler;2;F;3;4;4;1;Stim5_Set2;0;None;69;68;69;0;68;68;68;;;;;;;;;;;;;;;;;;;;;;;344.5569430999458;345.6473431000486;345.6473431000486;345.6473431000486;345.6473431000486;345.6473431000486;345.6473431000486;345.6473431000486;345.6473431000486;348.67556410003453;348.67556410003453;348.67556410003453;348.67556410003453;348.67556410003453;348.67556410003453;None;0;;;C:\2023\REPSWITCH21092023\REPSWITCH_excgange\REPSWITCH_excgange\data/310104_REPSWITCH1_version1_list4_2023-12-05_15h16.56.963_micRespv1l4_recorded\recording_micRespv1l4_2023-12-05_15h22.33.649.wav;348.67556410003453;349.1755880001001;None;;;;;;310104;001;2023-12-05_15h16.56.963;REPSWITCH1_version1_list4;2022.2.4;143.8919314921512;
REPSWITCH1/PICTURE_264.png;mano;type;darkblue;filler;1;F;3;4;4;1;Stim3_Set2;0;None;70;69;70;0;69;69;69;;;;;;;;;;;;;;;;;;;;;;;349.1755880001001;350.3215930997394;350.3215930997394;350.3215930997394;350.3215930997394;350.3215930997394;350.3215930997394;350.3215930997394;350.3215930997394;353.3427817998454;353.3427817998454;353.3427817998454;353.3427817998454;353.3427817998454;353.3427817998454;['m', 'a', 'n', 'o'];0;[1.0435754000209272, 1.1884726998396218, 1.2773917000740767, 1.4010434001684189];mano;C:\2023\REPSWITCH21092023\REPSWITCH_excgange\REPSWITCH_excgange\data/310104_REPSWITCH1_version1_list4_2023-12-05_15h16.56.963_micRespv1l4_recorded\recording_micRespv1l4_2023-12-05_15h22.38.321.wav;353.3427817998454;353.8428738997318;None;;;;;;310104;001;2023-12-05_15h16.56.963;REPSWITCH1_version1_list4;2022.2.4;143.8919314921512;
REPSWITCH1/PICTURE_464.png;goma;type;darkblue;nontarget;1;NT;3;4;4;1;Stim6_Set3;0;None;71;70;71;0;70;70;70;;;;;;;;;;;;;;;;;;;;;;;353.8428738997318;354.87780469981954;354.87780469981954;354.87780469981954;354.87780469981954;354.87780469981954;354.87780469981954;354.87780469981954;354.87780469981954;357.9059163997881;357.9059163997881;357.9059163997881;357.9059163997881;357.9059163997881;357.9059163997881;['g', 'o', 'm', 'a'];0;[0.9783872002735734, 1.0581042999401689, 1.142879799939692, 1.2474956000223756];goma;C:\2023\REPSWITCH21092023\REPSWITCH_excgange\REPSWITCH_excgange\data/310104_REPSWITCH1_version1_list4_2023-12-05_15h16.56.963_micRespv1l4_recorded\recording_micRespv1l4_2023-12-05_15h22.42.878.wav;357.9059163997881;;None;;;;;;310104;001;2023-12-05_15h16.56.963;REPSWITCH1_version1_list4;2022.2.4;143.8919314921512;
REPSWITCH1/PICTURE_464.png;goma;type;darkblue;repeat;1;T;3;4;4;1;Stim6_Set3;0;None;72;71;72;0;71;71;71;;;;;;;;;;;;;;;;;;;;;;;358.40598049992695;359.5173088000156;359.5173088000156;359.5173088000156;359.5173088000156;359.5173088000156;359.5173088000156;359.5173088000156;359.5173088000156;362.5384696996771;362.5384696996771;362.5384696996771;362.5384696996771;362.5384696996771;362.5384696996771;['g', 'o', 'm', 'a'];0;[0.9160247002728283, 0.9947552001103759, 1.0907008000649512, 1.1854216000065207];goma;C:\2023\REPSWITCH21092023\REPSWITCH_excgange\REPSWITCH_excgange\data/310104_REPSWITCH1_version1_list4_2023-12-05_15h16.56.963_micRespv1l4_recorded\recording_micRespv1l4_2023-12-05_15h22.47.517.wav;362.5384696996771;363.03853800008073;None;;;;;;310104;001;2023-12-05_15h16.56.963;REPSWITCH1_version1_list4;2022.2.4;143.8919314921512;
REPSWITCH1/PICTURE_175.png;pintor;speak;gold;filler;2;F;3;4;4;1;Stim1_Set2;0;None;73;72;73;0;72;72;72;;;;;;;;;;;;;;;;;;;;;;;363.03853800008073;364.26784519990906;364.26784519990906;364.26784519990906;364.26784519990906;364.26784519990906;364.26784519990906;364.26784519990906;364.26784519990906;367.2891640998423;367.2891640998423;367.2891640998423;367.2891640998423;367.2891640998423;367.2891640998423;None;0;;;C:\2023\REPSWITCH21092023\REPSWITCH_excgange\REPSWITCH_excgange\data/310104_REPSWITCH1_version1_list4_2023-12-05_15h16.56.963_micRespv1l4_recorded\recording_micRespv1l4_2023-12-05_15h22.52.268.wav;367.2891640998423;367.78915550000966;None;;;;;;310104;001;2023-12-05_15h16.56.963;REPSWITCH1_version1_list4;2022.2.4;143.8919314921512;
REPSWITCH1/PICTURE_235.png;aguja;type;darkblue;nontarget;1;NT;3;4;4;1;Stim4_Set3;1;switch;74;73;74;0;73;73;73;;;;;;;;;;;;;;;;;;;;;;;367.78915550000966;368.8449200000614;368.8449200000614;368.8449200000614;368.8449200000614;368.8449200000614;368.8449200000614;368.8449200000614;368.8449200000614;371.866061499808;371.866061499808;371.866061499808;371.866061499808;371.866061499808;371.866061499808;['a', 'g', 'u', 'j', 'a'];0;[0.8650746000930667, 1.1410940000787377, 1.2217778000049293, 1.3864717003889382, 1.507052400149405];aguja;C:\2023\REPSWITCH21092023\REPSWITCH_excgange\REPSWITCH_excgange\data/310104_REPSWITCH1_version1_list4_2023-12-05_15h16.56.963_micRespv1l4_recorded\recording_micRespv1l4_2023-12-05_15h22.56.845.wav;371.866061499808;372.3661354999058;None;;;;;;310104;001;2023-12-05_15h16.56.963;REPSWITCH1_version1_list4;2022.2.4;143.8919314921512;
REPSWITCH1/PICTURE_235.png;aguja;type;darkblue;repeat;1;T;3;4;4;1;Stim4_Set3;0;None;75;74;75;0;74;74;74;;;;;;;;;;;;;;;;;;;;;;;372.3661354999058;373.38717939984053;373.38717939984053;373.38717939984053;373.38717939984053;373.38717939984053;373.38717939984053;373.38717939984053;373.38717939984053;376.40830639982596;376.40830639982596;376.40830639982596;376.40830639982596;376.40830639982596;376.40830639982596;['a', 'g', 'u', 'j', 'a'];0;[0.8346799998544157, 1.0803625998087227, 1.1600855998694897, 1.282383999787271, 1.3969248998910189];aguja;C:\2023\REPSWITCH21092023\REPSWITCH_excgange\REPSWITCH_excgange\data/310104_REPSWITCH1_version1_list4_2023-12-05_15h16.56.963_micRespv1l4_recorded\recording_micRespv1l4_2023-12-05_15h23.01.386.wav;376.40830639982596;376.90841409983113;None;;;;;;310104;001;2023-12-05_15h16.56.963;REPSWITCH1_version1_list4;2022.2.4;143.8919314921512;
REPSWITCH1/PICTURE_576.png;guante;type;darkblue;filler;1;F;4;4;4;1;Stim1_Set3;1;repeat;76;75;76;0;75;75;75;;;;;;;;;;;;;;;;;;;;;;;376.90841409983113;377.9294533999637;377.9294533999637;377.9294533999637;377.9294533999637;377.9294533999637;377.9294533999637;377.9294533999637;377.9294533999637;380.9506064997986;380.9506064997986;380.9506064997986;380.9506064997986;380.9506064997986;380.9506064997986;['g', 'u', 'a', 'n', 't', 'e'];0;[0.9530603000894189, 1.01184260006994, 1.140414800029248, 1.203209700062871, 1.339754699729383, 1.3866002997383475];guante;C:\2023\REPSWITCH21092023\REPSWITCH_excgange\REPSWITCH_excgange\data/310104_REPSWITCH1_version1_list4_2023-12-05_15h16.56.963_micRespv1l4_recorded\recording_micRespv1l4_2023-12-05_15h23.05.929.wav;380.9506064997986;381.4506462998688;None;;;;;;310104;001;2023-12-05_15h16.56.963;REPSWITCH1_version1_list4;2022.2.4;143.8919314921512;
REPSWITCH1/PICTURE_340.png;espejo;speak;gold;filler;2;F;4;4;4;1;Extra1;0;None;77;76;77;0;76;76;76;;;;;;;;;;;;;;;;;;;;;;;381.4506462998688;382.54107389971614;382.54107389971614;382.54107389971614;382.54107389971614;382.54107389971614;382.54107389971614;382.54107389971614;382.54107389971614;385.56232760008425;385.56232760008425;385.56232760008425;385.56232760008425;385.56232760008425;385.56232760008425;None;0;;;C:\2023\REPSWITCH21092023\REPSWITCH_excgange\REPSWITCH_excgange\data/310104_REPSWITCH1_version1_list4_2023-12-05_15h16.56.963_micRespv1l4_recorded\recording_micRespv1l4_2023-12-05_15h23.10.541.wav;385.56232760008425;386.0623888997361;None;;;;;;310104;001;2023-12-05_15h16.56.963;REPSWITCH1_version1_list4;2022.2.4;143.8919314921512;
REPSWITCH1/PICTURE_464.png;goma;speak;gold;filler;2;F;4;4;4;1;Stim6_Set3;1;repeat;78;77;78;0;77;77;77;;;;;;;;;;;;;;;;;;;;;;;386.0623888997361;387.0833691000007;387.0833691000007;387.0833691000007;387.0833691000007;387.0833691000007;387.0833691000007;387.0833691000007;387.0833691000007;390.1045667999424;390.1045667999424;390.1045667999424;390.1045667999424;390.1045667999424;390.1045667999424;None;0;;;C:\2023\REPSWITCH21092023\REPSWITCH_excgange\REPSWITCH_excgange\data/310104_REPSWITCH1_version1_list4_2023-12-05_15h16.56.963_micRespv1l4_recorded\recording_micRespv1l4_2023-12-05_15h23.15.083.wav;390.1045667999424;390.6046255999245;None;;;;;;310104;001;2023-12-05_15h16.56.963;REPSWITCH1_version1_list4;2022.2.4;143.8919314921512;
REPSWITCH1/PICTURE_338.png;regalo;type;darkblue;nontarget;1;NT;4;4;4;1;Stim6_Set4;0;None;79;78;79;0;78;78;78;;;;;;;;;;;;;;;;;;;;;;;390.6046255999245;391.7367587001063;391.7367587001063;391.7367587001063;391.7367587001063;391.7367587001063;391.7367587001063;391.7367587001063;391.7367587001063;394.7580514997244;394.7580514997244;394.7580514997244;394.7580514997244;394.7580514997244;394.7580514997244;['r', 'e', 'g', 'a', 'l', 'o'];0;[0.957228499930352, 1.0292785000056028, 1.166213999968022, 1.3429501997306943, 1.4575602998957038, 1.5901147001422942];regalo;C:\2023\REPSWITCH21092023\REPSWITCH_excgange\REPSWITCH_excgange\data/310104_REPSWITCH1_version1_list4_2023-12-05_15h16.56.963_micRespv1l4_recorded\recording_micRespv1l4_2023-12-05_15h23.19.736.wav;394.7580514997244;395.258046799805;None;;;;;;310104;001;2023-12-05_15h16.56.963;REPSWITCH1_version1_list4;2022.2.4;143.8919314921512;
REPSWITCH1/PICTURE_338.png;regalo;type;darkblue;repeat;1;T;4;4;4;1;Stim6_Set4;0;None;80;79;80;0;79;79;79;;;;;;;;;;;;;;;;;;;;;;;395.258046799805;396.40400689980015;396.40400689980015;396.40400689980015;396.40400689980015;396.40400689980015;396.40400689980015;396.40400689980015;396.40400689980015;399.4322027997114;399.4322027997114;399.4322027997114;399.4322027997114;399.4322027997114;399.4322027997114;['r', 'e', 'g', 'a', 'l', 'o'];0;[0.7317522000521421, 0.778568200301379, 0.931056700181216, 1.0808014003559947, 1.1386068002320826, 1.2552305003628135];regalo;C:\2023\REPSWITCH21092023\REPSWITCH_excgange\REPSWITCH_excgange\data/310104_REPSWITCH1_version1_list4_2023-12-05_15h16.56.963_micRespv1l4_recorded\recording_micRespv1l4_2023-12-05_15h23.24.404.wav;399.4322027997114;;None;;;;;;310104;001;2023-12-05_15h16.56.963;REPSWITCH1_version1_list4;2022.2.4;143.8919314921512;
REPSWITCH1/PICTURE_8.png;pierna;type;darkblue;nontarget;1;NT;4;4;4;1;Stim3_Set4;1;repeat;81;80;81;0;80;80;80;;;;;;;;;;;;;;;;;;;;;;;399.93226239969954;400.98100199969485;400.98100199969485;400.98100199969485;400.98100199969485;400.98100199969485;400.98100199969485;400.98100199969485;400.98100199969485;404.00231290003285;404.00231290003285;404.00231290003285;404.00231290003285;404.00231290003285;404.00231290003285;['p', 'i', 'e', 'r', 'n', 'a'];0;[0.8727722996845841, 1.0392132997512817, 1.2056189998984337, 1.2933629998005927, 1.3969720997847617, 1.5165654998272657];pierna;C:\2023\REPSWITCH21092023\REPSWITCH_excgange\REPSWITCH_excgange\data/310104_REPSWITCH1_version1_list4_2023-12-05_15h16.56.963_micRespv1l4_recorded\recording_micRespv1l4_2023-12-05_15h23.28.980.wav;404.00231290003285;404.50231279991567;None;;;;;;310104;001;2023-12-05_15h16.56.963;REPSWITCH1_version1_list4;2022.2.4;143.8919314921512;
REPSWITCH1/PICTURE_8.png;pierna;speak;gold;switch;2;T;4;4;4;1;Stim3_Set4;0;None;82;81;82;0;81;81;81;;;;;;;;;;;;;;;;;;;;;;;404.50231279991567;405.613555399701;405.613555399701;405.613555399701;405.613555399701;405.613555399701;405.613555399701;405.613555399701;405.613555399701;408.6348041999154;408.6348041999154;408.6348041999154;408.6348041999154;408.6348041999154;408.6348041999154;None;0;;;C:\2023\REPSWITCH21092023\REPSWITCH_excgange\REPSWITCH_excgange\data/310104_REPSWITCH1_version1_list4_2023-12-05_15h16.56.963_micRespv1l4_recorded\recording_micRespv1l4_2023-12-05_15h23.33.613.wav;408.6348041999154;409.13486459990963;None;;;;;;310104;001;2023-12-05_15h16.56.963;REPSWITCH1_version1_list4;2022.2.4;143.8919314921512;
REPSWITCH1/PICTURE_271.png;conejo;type;darkblue;filler;1;F;4;4;4;1;Stim7_Set3;0;None;83;82;83;0;82;82;82;;;;;;;;;;;;;;;;;;;;;;;409.13486459990963;410.2044337997213;410.2044337997213;410.2044337997213;410.2044337997213;410.2044337997213;410.2044337997213;410.2044337997213;410.2044337997213;413.2326237000525;413.2326237000525;413.2326237000525;413.2326237000525;413.2326237000525;413.2326237000525;['c', 'o', 'n', 'e', 'j', 'o'];0;[0.9921238999813795, 1.0758763998746872, 1.1375210997648537, 1.2188395000994205, 1.349207399878651, 1.4120296998880804];conejo;C:\2023\REPSWITCH21092023\REPSWITCH_excgange\REPSWITCH_excgange\data/310104_REPSWITCH1_version1_list4_2023-12-05_15h16.56.963_micRespv1l4_recorded\recording_micRespv1l4_2023-12-05_15h23.38.205.wav;413.2326237000525;;None;;;;;;310104;001;2023-12-05_15h16.56.963;REPSWITCH1_version1_list4;2022.2.4;143.8919314921512;
REPSWITCH1/PICTURE_687.png;camisa;speak;gold;nontarget;2;NT;4;4;4;1;Stim5_Set4;1;switch;84;83;84;0;83;83;83;;;;;;;;;;;;;;;;;;;;;;;413.73266279976815;414.8161426000297;414.8161426000297;414.8161426000297;414.8161426000297;414.8161426000297;414.8161426000297;414.8161426000297;414.8161426000297;417.83740249974653;417.83740249974653;417.83740249974653;417.83740249974653;417.83740249974653;417.83740249974653;None;0;;;C:\2023\REPSWITCH21092023\REPSWITCH_excgange\REPSWITCH_excgange\data/310104_REPSWITCH1_version1_list4_2023-12-05_15h16.56.963_micRespv1l4_recorded\recording_micRespv1l4_2023-12-05_15h23.42.815.wav;417.83740249974653;418.3375265998766;None;;;;;;310104;001;2023-12-05_15h16.56.963;REPSWITCH1_version1_list4;2022.2.4;143.8919314921512;
REPSWITCH1/PICTURE_687.png;camisa;speak;gold;repeat;2;T;4;4;4;1;Stim5_Set4;0;None;85;84;85;0;84;84;84;;;;;;;;;;;;;;;;;;;;;;;418.3375265998766;419.4070294997655;419.4070294997655;419.4070294997655;419.4070294997655;419.4070294997655;419.4070294997655;419.4070294997655;419.4070294997655;422.4282654998824;422.4282654998824;422.4282654998824;422.4282654998824;422.4282654998824;422.4282654998824;None;0;;;C:\2023\REPSWITCH21092023\REPSWITCH_excgange\REPSWITCH_excgange\data/310104_REPSWITCH1_version1_list4_2023-12-05_15h16.56.963_micRespv1l4_recorded\recording_micRespv1l4_2023-12-05_15h23.47.406.wav;422.4282654998824;422.92833849973977;None;;;;;;310104;001;2023-12-05_15h16.56.963;REPSWITCH1_version1_list4;2022.2.4;143.8919314921512;
REPSWITCH1/PICTURE_319.png;vaca;speak;gold;nontarget;2;NT;4;4;4;1;Stim1_Set4;0;None;86;85;86;0;85;85;85;;;;;;;;;;;;;;;;;;;;;;;422.92833849973977;423.9979129000567;423.9979129000567;423.9979129000567;423.9979129000567;423.9979129000567;423.9979129000567;423.9979129000567;423.9979129000567;427.0260903998278;427.0260903998278;427.0260903998278;427.0260903998278;427.0260903998278;427.0260903998278;None;0;;;C:\2023\REPSWITCH21092023\REPSWITCH_excgange\REPSWITCH_excgange\data/310104_REPSWITCH1_version1_list4_2023-12-05_15h16.56.963_micRespv1l4_recorded\recording_micRespv1l4_2023-12-05_15h23.51.997.wav;427.0260903998278;;None;;;;;;310104;001;2023-12-05_15h16.56.963;REPSWITCH1_version1_list4;2022.2.4;143.8919314921512;
REPSWITCH1/PICTURE_319.png;vaca;type;darkblue;switch;1;T;4;4;4;1;Stim1_Set4;0;None;87;86;87;0;86;86;86;;;;;;;;;;;;;;;;;;;;;;;427.52615159982815;428.5818439000286;428.5818439000286;428.5818439000286;428.5818439000286;428.5818439000286;428.5818439000286;428.5818439000286;428.5818439000286;431.60310050006956;431.60310050006956;431.60310050006956;431.60310050006956;431.60310050006956;431.60310050006956;['v', 'a', 'c', 'a'];0;[0.9570948001928627, 1.084625800140202, 1.2407944002188742, 1.354366000276059];vaca;C:\2023\REPSWITCH21092023\REPSWITCH_excgange\REPSWITCH_excgange\data/310104_REPSWITCH1_version1_list4_2023-12-05_15h16.56.963_micRespv1l4_recorded\recording_micRespv1l4_2023-12-05_15h23.56.580.wav;431.60310050006956;432.10315479990095;None;;;;;;310104;001;2023-12-05_15h16.56.963;REPSWITCH1_version1_list4;2022.2.4;143.8919314921512;
REPSWITCH1/PICTURE_242.png;cartero;speak;gold;filler;2;F;4;4;4;1;Stim3_Set3;0;None;88;87;88;0;87;87;87;;;;;;;;;;;;;;;;;;;;;;;432.10315479990095;433.16578099969774;433.16578099969774;433.16578099969774;433.16578099969774;433.16578099969774;433.16578099969774;433.16578099969774;433.16578099969774;436.18702959967777;436.18702959967777;436.18702959967777;436.18702959967777;436.18702959967777;436.18702959967777;None;0;;;C:\2023\REPSWITCH21092023\REPSWITCH_excgange\REPSWITCH_excgange\data/310104_REPSWITCH1_version1_list4_2023-12-05_15h16.56.963_micRespv1l4_recorded\recording_micRespv1l4_2023-12-05_15h24.01.165.wav;436.18702959967777;436.6870952998288;None;;;;;;310104;001;2023-12-05_15h16.56.963;REPSWITCH1_version1_list4;2022.2.4;143.8919314921512;
REPSWITCH1/PICTURE_498.png;taza;type;darkblue;nontarget;1;NT;4;4;4;1;Stim4_Set4;1;switch;89;88;89;0;88;88;88;;;;;;;;;;;;;;;;;;;;;;;436.6870952998288;437.81917569972575;437.81917569972575;437.81917569972575;437.81917569972575;437.81917569972575;437.81917569972575;437.81917569972575;437.81917569972575;440.84037479991093;440.84037479991093;440.84037479991093;440.84037479991093;440.84037479991093;440.84037479991093;['t', 'a', 'z', 'a'];0;[0.9718824001029134, 1.1392930001020432, 1.3156853001564741, 1.4652197998948395];taza;C:\2023\REPSWITCH21092023\REPSWITCH_excgange\REPSWITCH_excgange\data/310104_REPSWITCH1_version1_list4_2023-12-05_15h16.56.963_micRespv1l4_recorded\recording_micRespv1l4_2023-12-05_15h24.05.819.wav;440.84037479991093;441.3404671000317;None;;;;;;310104;001;2023-12-05_15h16.56.963;REPSWITCH1_version1_list4;2022.2.4;143.8919314921512;
REPSWITCH1/PICTURE_498.png;taza;speak;gold;switch;2;T;4;4;4;1;Stim4_Set4;0;None;90;89;90;0;89;89;89;;;;;;;;;;;;;;;;;;;;;;;441.3404671000317;442.4378343001008;442.4378343001008;442.4378343001008;442.4378343001008;442.4378343001008;442.4378343001008;442.4378343001008;442.4378343001008;445.4591159000993;445.4591159000993;445.4591159000993;445.4591159000993;445.4591159000993;445.4591159000993;None;0;;;C:\2023\REPSWITCH21092023\REPSWITCH_excgange\REPSWITCH_excgange\data/310104_REPSWITCH1_version1_list4_2023-12-05_15h16.56.963_micRespv1l4_recorded\recording_micRespv1l4_2023-12-05_15h24.10.437.wav;445.4591159000993;445.95914050005376;None;;;;;;310104;001;2023-12-05_15h16.56.963;REPSWITCH1_version1_list4;2022.2.4;143.8919314921512;
REPSWITCH1/PICTURE_391.png;cadena;type;darkblue;filler;1;F;4;4;4;1;Extra2;0;None;91;90;91;0;90;90;90;;;;;;;;;;;;;;;;;;;;;;;445.95914050005376;447.00795019976795;447.00795019976795;447.00795019976795;447.00795019976795;447.00795019976795;447.00795019976795;447.00795019976795;447.00795019976795;450.02912249974906;450.02912249974906;450.02912249974906;450.02912249974906;450.02912249974906;450.02912249974906;['c', 'a', 'd', 'e', 'n', 'a'];0;[0.8924163999035954, 1.0386165999807417, 1.1465843999758363, 1.2333812001161277, 1.3439364000223577, 1.4306145003065467];cadena;C:\2023\REPSWITCH21092023\REPSWITCH_excgange\REPSWITCH_excgange\data/310104_REPSWITCH1_version1_list4_2023-12-05_15h16.56.963_micRespv1l4_recorded\recording_micRespv1l4_2023-12-05_15h24.15.007.wav;450.02912249974906;450.5291741997935;None;;;;;;310104;001;2023-12-05_15h16.56.963;REPSWITCH1_version1_list4;2022.2.4;143.8919314921512;
REPSWITCH1/PICTURE_610.png;miel;speak;gold;filler;2;F;4;4;4;1;Stim2_Set3;0;None;92;91;92;0;91;91;91;;;;;;;;;;;;;;;;;;;;;;;450.5291741997935;451.6543139000423;451.6543139000423;451.6543139000423;451.6543139000423;451.6543139000423;451.6543139000423;451.6543139000423;451.6543139000423;454.6825019000098;454.6825019000098;454.6825019000098;454.6825019000098;454.6825019000098;454.6825019000098;None;0;;;C:\2023\REPSWITCH21092023\REPSWITCH_excgange\REPSWITCH_excgange\data/310104_REPSWITCH1_version1_list4_2023-12-05_15h16.56.963_micRespv1l4_recorded\recording_micRespv1l4_2023-12-05_15h24.19.654.wav;454.6825019000098;;None;;;;;;310104;001;2023-12-05_15h16.56.963;REPSWITCH1_version1_list4;2022.2.4;143.8919314921512;
REPSWITCH1/PICTURE_48.png;bombero;speak;gold;nontarget;2;NT;4;4;4;1;Stim7_Set4;1;repeat;93;92;93;0;92;92;92;;;;;;;;;;;;;;;;;;;;;;;455.1825480996631;456.2382883997634;456.2382883997634;456.2382883997634;456.2382883997634;456.2382883997634;456.2382883997634;456.2382883997634;456.2382883997634;459.259491099976;459.259491099976;459.259491099976;459.259491099976;459.259491099976;459.259491099976;None;0;;;C:\2023\REPSWITCH21092023\REPSWITCH_excgange\REPSWITCH_excgange\data/310104_REPSWITCH1_version1_list4_2023-12-05_15h16.56.963_micRespv1l4_recorded\recording_micRespv1l4_2023-12-05_15h24.24.238.wav;459.259491099976;459.75953979976475;None;;;;;;310104;001;2023-12-05_15h16.56.963;REPSWITCH1_version1_list4;2022.2.4;143.8919314921512;
REPSWITCH1/PICTURE_48.png;bombero;speak;gold;repeat;2;T;4;4;4;1;Stim7_Set4;0;None;94;93;94;0;93;93;93;;;;;;;;;;;;;;;;;;;;;;;459.75953979976475;460.9681567000225;460.9681567000225;460.9681567000225;460.9681567000225;460.9681567000225;460.9681567000225;460.9681567000225;460.9681567000225;463.9892521998845;463.9892521998845;463.9892521998845;463.9892521998845;463.9892521998845;463.9892521998845;None;0;;;C:\2023\REPSWITCH21092023\REPSWITCH_excgange\REPSWITCH_excgange\data/310104_REPSWITCH1_version1_list4_2023-12-05_15h16.56.963_micRespv1l4_recorded\recording_micRespv1l4_2023-12-05_15h24.28.968.wav;463.9892521998845;464.4893558998592;None;;;;;;310104;001;2023-12-05_15h16.56.963;REPSWITCH1_version1_list4;2022.2.4;143.8919314921512;
REPSWITCH1/PICTURE_320.png;iglesia;type;darkblue;filler;1;F;4;4;4;1;Stim8_Set3;1;switch;95;94;95;0;94;94;94;;;;;;;;;;;;;;;;;;;;;;;464.4893558998592;465.5797978998162;465.5797978998162;465.5797978998162;465.5797978998162;465.5797978998162;465.5797978998162;465.5797978998162;465.5797978998162;468.6010449999012;468.6010449999012;468.6010449999012;468.6010449999012;468.6010449999012;468.6010449999012;['i', 'g', 'l', 'e', 's', 'a', 'backspace', 'i', 'a'];0;[1.0552489999681711, 1.2176645998843014, 1.3213569996878505, 1.4100210000760853, 1.575508899986744, 1.8044229997321963, 2.18834749981761, 2.5374580998905003, 2.609214599709958];iglesia;C:\2023\REPSWITCH21092023\REPSWITCH_excgange\REPSWITCH_excgange\data/310104_REPSWITCH1_version1_list4_2023-12-05_15h16.56.963_micRespv1l4_recorded\recording_micRespv1l4_2023-12-05_15h24.33.579.wav;468.6010449999012;469.1010686000809;None;;;;;;310104;001;2023-12-05_15h16.56.963;REPSWITCH1_version1_list4;2022.2.4;143.8919314921512;
REPSWITCH1/PICTURE_35.png;oreja;speak;gold;filler;2;F;4;4;4;1;Stim5_Set3;0;None;96;95;96;0;95;95;95;;;;;;;;;;;;;;;;;;;;;;;469.1010686000809;470.2679256000556;470.2679256000556;470.2679256000556;470.2679256000556;470.2679256000556;470.2679256000556;470.2679256000556;470.2679256000556;473.28909259987995;473.28909259987995;473.28909259987995;473.28909259987995;473.28909259987995;473.28909259987995;None;0;;;C:\2023\REPSWITCH21092023\REPSWITCH_excgange\REPSWITCH_excgange\data/310104_REPSWITCH1_version1_list4_2023-12-05_15h16.56.963_micRespv1l4_recorded\recording_micRespv1l4_2023-12-05_15h24.38.268.wav;473.28909259987995;473.7891710996628;None;;;;;;310104;001;2023-12-05_15h16.56.963;REPSWITCH1_version1_list4;2022.2.4;143.8919314921512;
REPSWITCH1/PICTURE_728.png;pulpo;speak;gold;nontarget;2;NT;4;4;4;1;Stim8_Set4;1;repeat;97;96;97;0;96;96;96;;;;;;;;;;;;;;;;;;;;;;;473.7891710996628;474.88653799984604;474.88653799984604;474.88653799984604;474.88653799984604;474.88653799984604;474.88653799984604;474.88653799984604;474.88653799984604;477.90777499973774;477.90777499973774;477.90777499973774;477.90777499973774;477.90777499973774;477.90777499973774;None;0;;;C:\2023\REPSWITCH21092023\REPSWITCH_excgange\REPSWITCH_excgange\data/310104_REPSWITCH1_version1_list4_2023-12-05_15h16.56.963_micRespv1l4_recorded\recording_micRespv1l4_2023-12-05_15h24.42.886.wav;477.90777499973774;478.4079124000855;None;;;;;;310104;001;2023-12-05_15h16.56.963;REPSWITCH1_version1_list4;2022.2.4;143.8919314921512;
REPSWITCH1/PICTURE_728.png;pulpo;type;darkblue;switch;1;T;4;4;4;1;Stim8_Set4;0;None;98;97;98;0;97;97;97;;;;;;;;;;;;;;;;;;;;;;;478.4079124000855;479.4496633997187;479.4496633997187;479.4496633997187;479.4496633997187;479.4496633997187;479.4496633997187;479.4496633997187;479.4496633997187;482.4708883999847;482.4708883999847;482.4708883999847;482.4708883999847;482.4708883999847;482.4708883999847;['p', 'u', 'l', 'p', 'o'];0;[0.894717900082469, 1.1170130004175007, 1.3345529004000127, 1.5573384002782404, 1.6881675003096461];pulpo;C:\2023\REPSWITCH21092023\REPSWITCH_excgange\REPSWITCH_excgange\data/310104_REPSWITCH1_version1_list4_2023-12-05_15h16.56.963_micRespv1l4_recorded\recording_micRespv1l4_2023-12-05_15h24.47.449.wav;482.4708883999847;482.97093479987234;None;;;;;;310104;001;2023-12-05_15h16.56.963;REPSWITCH1_version1_list4;2022.2.4;143.8919314921512;
REPSWITCH1/PICTURE_590.png;escoba;speak;gold;filler;2;F;4;4;4;1;Extra3;0;None;99;98;99;0;98;98;98;;;;;;;;;;;;;;;;;;;;;;;482.97093479987234;484.075307500083;484.075307500083;484.075307500083;484.075307500083;484.075307500083;484.075307500083;484.075307500083;484.075307500083;487.0964927999303;487.0964927999303;487.0964927999303;487.0964927999303;487.0964927999303;487.0964927999303;None;0;;;C:\2023\REPSWITCH21092023\REPSWITCH_excgange\REPSWITCH_excgange\data/310104_REPSWITCH1_version1_list4_2023-12-05_15h16.56.963_micRespv1l4_recorded\recording_micRespv1l4_2023-12-05_15h24.52.075.wav;487.0964927999303;487.5965247997083;None;;;;;;310104;001;2023-12-05_15h16.56.963;REPSWITCH1_version1_list4;2022.2.4;143.8919314921512;
REPSWITCH1/PICTURE_235.png;aguja;type;darkblue;filler;1;F;4;4;4;1;Stim4_Set3;0;None;100;99;100;0;99;99;99;;;;;;;;;;;;;;;;;;;;;;;487.5965247997083;488.7703110999428;488.7703110999428;488.7703110999428;488.7703110999428;488.7703110999428;488.7703110999428;488.7703110999428;488.7703110999428;491.7915117996745;491.7915117996745;491.7915117996745;491.7915117996745;491.7915117996745;491.7915117996745;['a', 'g', 'u', 'j', 'a'];0;[0.802167400252074, 1.0244704000651836, 1.0922286002896726, 1.2896447000093758, 1.4112519999034703];aguja;C:\2023\REPSWITCH21092023\REPSWITCH_excgange\REPSWITCH_excgange\data/310104_REPSWITCH1_version1_list4_2023-12-05_15h16.56.963_micRespv1l4_recorded\recording_micRespv1l4_2023-12-05_15h24.56.770.wav;491.7915117996745;492.29166149999946;None;;;;;;310104;001;2023-12-05_15h16.56.963;REPSWITCH1_version1_list4;2022.2.4;143.8919314921512;
REPSWITCH1/PICTURE_719.png;baño;type;darkblue;nontarget;1;NT;4;4;4;1;Stim2_Set4;1;repeat;101;100;101;0;100;100;100;;;;;;;;;;;;;;;;;;;;;;;492.29166149999946;493.4307065997273;493.4307065997273;493.4307065997273;493.4307065997273;493.4307065997273;493.4307065997273;493.4307065997273;493.4307065997273;496.451884099748;496.451884099748;496.451884099748;496.451884099748;496.451884099748;496.451884099748;['b', 'a', 'ñ', 'o'];0;[1.5094632003456354, 1.66365410014987, 1.8939953004010022, 1.9888043003156781];baño;C:\2023\REPSWITCH21092023\REPSWITCH_excgange\REPSWITCH_excgange\data/310104_REPSWITCH1_version1_list4_2023-12-05_15h16.56.963_micRespv1l4_recorded\recording_micRespv1l4_2023-12-05_15h25.01.430.wav;496.451884099748;496.9519484997727;None;;;;;;310104;001;2023-12-05_15h16.56.963;REPSWITCH1_version1_list4;2022.2.4;143.8919314921512;
REPSWITCH1/PICTURE_719.png;baño;type;darkblue;repeat;1;T;4;4;4;1;Stim2_Set4;0;None;102;101;102;0;101;101;101;;;;;;;;;;;;;;;;;;;;;;;496.9519484997727;498.0841056997888;498.0841056997888;498.0841056997888;498.0841056997888;498.0841056997888;498.0841056997888;498.0841056997888;498.0841056997888;501.1122125000693;501.1122125000693;501.1122125000693;501.1122125000693;501.1122125000693;501.1122125000693;['b', 'a', 'ñ', 'o'];0;[0.8213311997242272, 1.0116739999502897, 1.1105133998207748, 1.2051937999203801];baño;C:\2023\REPSWITCH21092023\REPSWITCH_excgange\REPSWITCH_excgange\data/310104_REPSWITCH1_version1_list4_2023-12-05_15h16.56.963_micRespv1l4_recorded\recording_micRespv1l4_2023-12-05_15h25.06.084.wav;501.1122125000693;;space;501.61224390007555;501.61224390007555;8.608202300034463;;;310104;001;2023-12-05_15h16.56.963;REPSWITCH1_version1_list4;2022.2.4;143.8919314921512;
REPSWITCH1/PICTURE_646.png;tronco;speak;gold;filler;2;F;1;3;4;1;Extra4;0;None;103;102;1;0;102;102;102;;;;;;;;;;;;;;;;;;;;;;;510.23144679982215;511.37745149992406;511.37745149992406;511.37745149992406;511.37745149992406;511.37745149992406;511.37745149992406;511.37745149992406;511.37745149992406;514.4056589999236;514.4056589999236;514.4056589999236;514.4056589999236;514.4056589999236;514.4056589999236;None;0;;;C:\2023\REPSWITCH21092023\REPSWITCH_excgange\REPSWITCH_excgange\data/310104_REPSWITCH1_version1_list4_2023-12-05_15h16.56.963_micRespv1l4_recorded\recording_micRespv1l4_2023-12-05_15h25.19.377.wav;514.4056589999236;;None;;;;;;310104;001;2023-12-05_15h16.56.963;REPSWITCH1_version1_list4;2022.2.4;143.8919314921512;
REPSWITCH1/PICTURE_340.png;espejo;type;darkblue;filler;1;F;1;3;4;1;Extra1;0;None;104;103;2;0;103;103;103;;;;;;;;;;;;;;;;;;;;;;;514.9056676998734;515.9266739999875;515.9266739999875;515.9266739999875;515.9266739999875;515.9266739999875;515.9266739999875;515.9266739999875;515.9266739999875;518.94786129985;518.94786129985;518.94786129985;518.94786129985;518.94786129985;518.94786129985;['e', 's', 'p', 'e', 'j', 'o'];0;[0.782514899969101, 0.8861724003218114, 1.059321700129658, 1.1803003000095487, 1.506650900002569, 1.577461200300604];espejo;C:\2023\REPSWITCH21092023\REPSWITCH_excgange\REPSWITCH_excgange\data/310104_REPSWITCH1_version1_list4_2023-12-05_15h16.56.963_micRespv1l4_recorded\recording_micRespv1l4_2023-12-05_15h25.23.926.wav;518.94786129985;519.447959699668;None;;;;;;310104;001;2023-12-05_15h16.56.963;REPSWITCH1_version1_list4;2022.2.4;143.8919314921512;
REPSWITCH1/PICTURE_338.png;regalo;speak;gold;filler;2;F;1;3;4;1;Stim6_Set4;0;None;105;104;3;0;104;104;104;;;;;;;;;;;;;;;;;;;;;;;519.447959699668;520.5592196998186;520.5592196998186;520.5592196998186;520.5592196998186;520.5592196998186;520.5592196998186;520.5592196998186;520.5592196998186;523.5804468998685;523.5804468998685;523.5804468998685;523.5804468998685;523.5804468998685;523.5804468998685;None;0;;;C:\2023\REPSWITCH21092023\REPSWITCH_excgange\REPSWITCH_excgange\data/310104_REPSWITCH1_version1_list4_2023-12-05_15h16.56.963_micRespv1l4_recorded\recording_micRespv1l4_2023-12-05_15h25.28.559.wav;523.5804468998685;524.0805628998205;None;;;;;;310104;001;2023-12-05_15h16.56.963;REPSWITCH1_version1_list4;2022.2.4;143.8919314921512;
REPSWITCH1/PICTURE_142.png;vaso;speak;gold;nontarget;2;NT;1;3;4;1;Stim7_Set1;1;repeat;106;105;4;0;105;105;105;;;;;;;;;;;;;;;;;;;;;;;524.0805628998205;525.1015081000514;525.1015081000514;525.1015081000514;525.1015081000514;525.1015081000514;525.1015081000514;525.1015081000514;525.1015081000514;528.1226824996993;528.1226824996993;528.1226824996993;528.1226824996993;528.1226824996993;528.1226824996993;None;0;;;C:\2023\REPSWITCH21092023\REPSWITCH_excgange\REPSWITCH_excgange\data/310104_REPSWITCH1_version1_list4_2023-12-05_15h16.56.963_micRespv1l4_recorded\recording_micRespv1l4_2023-12-05_15h25.33.100.wav;528.1226824996993;528.6228370997123;None;;;;;;310104;001;2023-12-05_15h16.56.963;REPSWITCH1_version1_list4;2022.2.4;143.8919314921512;
REPSWITCH1/PICTURE_142.png;vaso;speak;gold;repeat;2;T;1;3;4;1;Stim7_Set1;0;None;107;106;5;0;106;106;106;;;;;;;;;;;;;;;;;;;;;;;528.6228370997123;529.7548773000017;529.7548773000017;529.7548773000017;529.7548773000017;529.7548773000017;529.7548773000017;529.7548773000017;529.7548773000017;532.7761633996852;532.7761633996852;532.7761633996852;532.7761633996852;532.7761633996852;532.7761633996852;None;0;;;C:\2023\REPSWITCH21092023\REPSWITCH_excgange\REPSWITCH_excgange\data/310104_REPSWITCH1_version1_list4_2023-12-05_15h16.56.963_micRespv1l4_recorded\recording_micRespv1l4_2023-12-05_15h25.37.754.wav;532.7761633996852;533.2761850999668;None;;;;;;310104;001;2023-12-05_15h16.56.963;REPSWITCH1_version1_list4;2022.2.4;143.8919314921512;
REPSWITCH1/PICTURE_498.png;taza;type;darkblue;filler;1;F;1;3;4;1;Stim4_Set4;0;None;108;107;6;0;107;107;107;;;;;;;;;;;;;;;;;;;;;;;533.2761850999668;534.2902044998482;534.2902044998482;534.2902044998482;534.2902044998482;534.2902044998482;534.2902044998482;534.2902044998482;534.2902044998482;537.3113778000697;537.3113778000697;537.3113778000697;537.3113778000697;537.3113778000697;537.3113778000697;['t', 'a', 'z', 'a'];0;[0.8601452000439167, 1.0498184999451041, 1.2399409003555775, 1.3936685002408922];taza;C:\2023\REPSWITCH21092023\REPSWITCH_excgange\REPSWITCH_excgange\data/310104_REPSWITCH1_version1_list4_2023-12-05_15h16.56.963_micRespv1l4_recorded\recording_micRespv1l4_2023-12-05_15h25.42.290.wav;537.3113778000697;537.8114718999714;None;;;;;;310104;001;2023-12-05_15h16.56.963;REPSWITCH1_version1_list4;2022.2.4;143.8919314921512;
REPSWITCH1/PICTURE_16.png;cazador;speak;gold;nontarget;2;NT;1;3;4;1;Stim6_Set1;1;switch;109;108;7;0;108;108;108;;;;;;;;;;;;;;;;;;;;;;;537.8114718999714;538.9783168998547;538.9783168998547;538.9783168998547;538.9783168998547;538.9783168998547;538.9783168998547;538.9783168998547;538.9783168998547;541.9995086998679;541.9995086998679;541.9995086998679;541.9995086998679;541.9995086998679;541.9995086998679;None;0;;;C:\2023\REPSWITCH21092023\REPSWITCH_excgange\REPSWITCH_excgange\data/310104_REPSWITCH1_version1_list4_2023-12-05_15h16.56.963_micRespv1l4_recorded\recording_micRespv1l4_2023-12-05_15h25.46.978.wav;541.9995086998679;542.4996402999386;None;;;;;;310104;001;2023-12-05_15h16.56.963;REPSWITCH1_version1_list4;2022.2.4;143.8919314921512;
REPSWITCH1/PICTURE_16.png;cazador;speak;gold;repeat;2;T;1;3;4;1;Stim6_Set1;0;None;110;109;8;0;109;109;109;;;;;;;;;;;;;;;;;;;;;;;542.4996402999386;543.680290099699;543.680290099699;543.680290099699;543.680290099699;543.680290099699;543.680290099699;543.680290099699;543.680290099699;546.7014997997321;546.7014997997321;546.7014997997321;546.7014997997321;546.7014997997321;546.7014997997321;None;0;;;C:\2023\REPSWITCH21092023\REPSWITCH_excgange\REPSWITCH_excgange\data/310104_REPSWITCH1_version1_list4_2023-12-05_15h16.56.963_micRespv1l4_recorded\recording_micRespv1l4_2023-12-05_15h25.51.680.wav;546.7014997997321;547.2015615999699;None;;;;;;310104;001;2023-12-05_15h16.56.963;REPSWITCH1_version1_list4;2022.2.4;143.8919314921512;
REPSWITCH1/PICTURE_719.png;baño;type;darkblue;filler;1;F;1;3;4;1;Stim2_Set4;0;None;111;110;9;0;110;110;110;;;;;;;;;;;;;;;;;;;;;;;547.2015615999699;548.403157199733;548.403157199733;548.403157199733;548.403157199733;548.403157199733;548.403157199733;548.403157199733;548.403157199733;551.4313882999122;551.4313882999122;551.4313882999122;551.4313882999122;551.4313882999122;551.4313882999122;['b', 'a', 'ñ', 'o'];0;[1.093606499955058, 1.4683183999732137, 1.6006068997085094, 1.6782065997831523];baño;C:\2023\REPSWITCH21092023\REPSWITCH_excgange\REPSWITCH_excgange\data/310104_REPSWITCH1_version1_list4_2023-12-05_15h16.56.963_micRespv1l4_recorded\recording_micRespv1l4_2023-12-05_15h25.56.403.wav;551.4313882999122;;None;;;;;;310104;001;2023-12-05_15h16.56.963;REPSWITCH1_version1_list4;2022.2.4;143.8919314921512;
REPSWITCH1/PICTURE_169.png;espalda;speak;gold;nontarget;2;NT;1;3;4;1;Stim8_Set1;0;None;112;111;10;0;111;111;111;;;;;;;;;;;;;;;;;;;;;;;551.9314550999552;553.0843348000199;553.0843348000199;553.0843348000199;553.0843348000199;553.0843348000199;553.0843348000199;553.0843348000199;553.0843348000199;556.1124744000845;556.1124744000845;556.1124744000845;556.1124744000845;556.1124744000845;556.1124744000845;None;0;;;C:\2023\REPSWITCH21092023\REPSWITCH_excgange\REPSWITCH_excgange\data/310104_REPSWITCH1_version1_list4_2023-12-05_15h16.56.963_micRespv1l4_recorded\recording_micRespv1l4_2023-12-05_15h26.01.084.wav;556.1124744000845;;None;;;;;;310104;001;2023-12-05_15h16.56.963;REPSWITCH1_version1_list4;2022.2.4;143.8919314921512;
REPSWITCH1/PICTURE_169.png;espalda;type;darkblue;switch;1;T;1;3;4;1;Stim8_Set1;0;None;113;112;11;0;112;112;112;;;;;;;;;;;;;;;;;;;;;;;556.6125341998413;557.702993999701;557.702993999701;557.702993999701;557.702993999701;557.702993999701;557.702993999701;557.702993999701;557.702993999701;560.7242109999061;560.7242109999061;560.7242109999061;560.7242109999061;560.7242109999061;560.7242109999061;['e', 's', 'p', 'a', 'l', 'd', 'a'];0;[0.8088657003827393, 0.8976216004230082, 0.9603395001031458, 1.118563299998641, 1.2022772002965212, 1.3053230000659823, 1.3831645003519952];espalda;C:\2023\REPSWITCH21092023\REPSWITCH_excgange\REPSWITCH_excgange\data/310104_REPSWITCH1_version1_list4_2023-12-05_15h16.56.963_micRespv1l4_recorded\recording_micRespv1l4_2023-12-05_15h26.05.702.wav;560.7242109999061;561.2243393999524;None;;;;;;310104;001;2023-12-05_15h16.56.963;REPSWITCH1_version1_list4;2022.2.4;143.8919314921512;
REPSWITCH1/PICTURE_687.png;camisa;type;darkblue;filler;1;F;1;3;4;1;Stim5_Set4;0;None;114;113;12;0;113;113;113;;;;;;;;;;;;;;;;;;;;;;;561.2243393999524;562.377270099707;562.377270099707;562.377270099707;562.377270099707;562.377270099707;562.377270099707;562.377270099707;562.377270099707;565.4054443999194;565.4054443999194;565.4054443999194;565.4054443999194;565.4054443999194;565.4054443999194;['c', 'a', 'm', 'i', 's', 'a'];0;[0.8511373000219464, 1.0020031998865306, 1.1125878002494574, 1.2430893001146615, 1.2679952001199126, 1.3527143001556396];camisa;C:\2023\REPSWITCH21092023\REPSWITCH_excgange\REPSWITCH_excgange\data/310104_REPSWITCH1_version1_list4_2023-12-05_15h16.56.963_micRespv1l4_recorded\recording_micRespv1l4_2023-12-05_15h26.10.377.wav;565.4054443999194;;None;;;;;;310104;001;2023-12-05_15h16.56.963;REPSWITCH1_version1_list4;2022.2.4;143.8919314921512;
REPSWITCH1/PICTURE_178.png;puente;type;darkblue;nontarget;1;NT;1;3;4;1;Stim1_Set1;1;repeat;115;114;13;0;114;114;114;;;;;;;;;;;;;;;;;;;;;;;565.9054316999391;566.9750570999458;566.9750570999458;566.9750570999458;566.9750570999458;566.9750570999458;566.9750570999458;566.9750570999458;566.9750570999458;569.9962629000656;569.9962629000656;569.9962629000656;569.9962629000656;569.9962629000656;569.9962629000656;['p', 'u', 'e', 'n', 't', 'e'];0;[0.8857197999022901, 1.1039773998782039, 1.1767230997793376, 1.3055941998027265, 1.3607218000106514, 1.4364654999226332];puente;C:\2023\REPSWITCH21092023\REPSWITCH_excgange\REPSWITCH_excgange\data/310104_REPSWITCH1_version1_list4_2023-12-05_15h16.56.963_micRespv1l4_recorded\recording_micRespv1l4_2023-12-05_15h26.14.974.wav;569.9962629000656;570.4963328996673;None;;;;;;310104;001;2023-12-05_15h16.56.963;REPSWITCH1_version1_list4;2022.2.4;143.8919314921512;
REPSWITCH1/PICTURE_178.png;puente;speak;gold;switch;2;T;1;3;4;1;Stim1_Set1;0;None;116;115;14;0;115;115;115;;;;;;;;;;;;;;;;;;;;;;;570.4963328996673;571.5520043000579;571.5520043000579;571.5520043000579;571.5520043000579;571.5520043000579;571.5520043000579;571.5520043000579;571.5520043000579;574.5732656000182;574.5732656000182;574.5732656000182;574.5732656000182;574.5732656000182;574.5732656000182;None;0;;;C:\2023\REPSWITCH21092023\REPSWITCH_excgange\REPSWITCH_excgange\data/310104_REPSWITCH1_version1_list4_2023-12-05_15h16.56.963_micRespv1l4_recorded\recording_micRespv1l4_2023-12-05_15h26.19.552.wav;574.5732656000182;575.0733791999519;None;;;;;;310104;001;2023-12-05_15h16.56.963;REPSWITCH1_version1_list4;2022.2.4;143.8919314921512;
REPSWITCH1/PICTURE_128.png;muñeca;speak;gold;nontarget;2;NT;1;3;4;1;Stim4_Set1;1;repeat;117;116;15;0;116;116;116;;;;;;;;;;;;;;;;;;;;;;;575.0733791999519;576.1220573997125;576.1220573997125;576.1220573997125;576.1220573997125;576.1220573997125;576.1220573997125;576.1220573997125;576.1220573997125;579.1433027000166;579.1433027000166;579.1433027000166;579.1433027000166;579.1433027000166;579.1433027000166;None;0;;;C:\2023\REPSWITCH21092023\REPSWITCH_excgange\REPSWITCH_excgange\data/310104_REPSWITCH1_version1_list4_2023-12-05_15h16.56.963_micRespv1l4_recorded\recording_micRespv1l4_2023-12-05_15h26.24.121.wav;579.1433027000166;579.6433596997522;None;;;;;;310104;001;2023-12-05_15h16.56.963;REPSWITCH1_version1_list4;2022.2.4;143.8919314921512;
REPSWITCH1/PICTURE_128.png;muñeca;type;darkblue;switch;1;T;1;3;4;1;Stim4_Set1;0;None;118;117;16;0;117;117;117;;;;;;;;;;;;;;;;;;;;;;;579.6433596997522;580.7962672999129;580.7962672999129;580.7962672999129;580.7962672999129;580.7962672999129;580.7962672999129;580.7962672999129;580.7962672999129;583.8174950997345;583.8174950997345;583.8174950997345;583.8174950997345;583.8174950997345;583.8174950997345;['m', 'u', 'ñ', 'e', 'c', 'a'];0;[0.6959592001512647, 0.8772999001666903, 1.2420236002653837, 1.3715824000537395, 1.5582075999118388, 1.7127272998914123];muñeca;C:\2023\REPSWITCH21092023\REPSWITCH_excgange\REPSWITCH_excgange\data/310104_REPSWITCH1_version1_list4_2023-12-05_15h16.56.963_micRespv1l4_recorded\recording_micRespv1l4_2023-12-05_15h26.28.796.wav;583.8174950997345;584.3175602997653;None;;;;;;310104;001;2023-12-05_15h16.56.963;REPSWITCH1_version1_list4;2022.2.4;143.8919314921512;
REPSWITCH1/PICTURE_319.png;vaca;speak;gold;filler;2;F;1;3;4;1;Stim1_Set4;1;switch;119;118;17;0;118;118;118;;;;;;;;;;;;;;;;;;;;;;;584.3175602997653;585.3594579999335;585.3594579999335;585.3594579999335;585.3594579999335;585.3594579999335;585.3594579999335;585.3594579999335;585.3594579999335;588.3806392000988;588.3806392000988;588.3806392000988;588.3806392000988;588.3806392000988;588.3806392000988;None;0;;;C:\2023\REPSWITCH21092023\REPSWITCH_excgange\REPSWITCH_excgange\data/310104_REPSWITCH1_version1_list4_2023-12-05_15h16.56.963_micRespv1l4_recorded\recording_micRespv1l4_2023-12-05_15h26.33.358.wav;588.3806392000988;588.8806488998234;None;;;;;;310104;001;2023-12-05_15h16.56.963;REPSWITCH1_version1_list4;2022.2.4;143.8919314921512;
REPSWITCH1/PICTURE_728.png;pulpo;speak;gold;filler;2;F;1;3;4;1;Stim8_Set4;0;None;120;119;18;0;119;119;119;;;;;;;;;;;;;;;;;;;;;;;588.8806488998234;590.019717999734;590.019717999734;590.019717999734;590.019717999734;590.019717999734;590.019717999734;590.019717999734;590.019717999734;593.0409563998692;593.0409563998692;593.0409563998692;593.0409563998692;593.0409563998692;593.0409563998692;None;0;;;C:\2023\REPSWITCH21092023\REPSWITCH_excgange\REPSWITCH_excgange\data/310104_REPSWITCH1_version1_list4_2023-12-05_15h16.56.963_micRespv1l4_recorded\recording_micRespv1l4_2023-12-05_15h26.38.019.wav;593.0409563998692;593.5410126000643;None;;;;;;310104;001;2023-12-05_15h16.56.963;REPSWITCH1_version1_list4;2022.2.4;143.8919314921512;
REPSWITCH1/PICTURE_381.png;fresa;type;darkblue;nontarget;1;NT;1;3;4;1;Stim2_Set1;1;switch;121;120;19;0;120;120;120;;;;;;;;;;;;;;;;;;;;;;;593.5410126000643;594.6801195996813;594.6801195996813;594.6801195996813;594.6801195996813;594.6801195996813;594.6801195996813;594.6801195996813;594.6801195996813;597.7082348996773;597.7082348996773;597.7082348996773;597.7082348996773;597.7082348996773;597.7082348996773;['f', 'r', 'e', 's', 'a'];0;[0.8223720998503268, 0.9142800997942686, 0.9989885999821126, 1.169375800061971, 1.2601088001392782];fresa;C:\2023\REPSWITCH21092023\REPSWITCH_excgange\REPSWITCH_excgange\data/310104_REPSWITCH1_version1_list4_2023-12-05_15h16.56.963_micRespv1l4_recorded\recording_micRespv1l4_2023-12-05_15h26.42.680.wav;597.7082348996773;;None;;;;;;310104;001;2023-12-05_15h16.56.963;REPSWITCH1_version1_list4;2022.2.4;143.8919314921512;
