image,correctAns,respModal,frameColor,repSwitch,sequence,target,set,block,list,exp_version,stimulus,baseline,baseline_condition,trial_no,psychopy_trial,Column1,trialsREPSWITCH.thisRepN,trialsREPSWITCH.thisTrialN,trialsREPSWITCH.thisN,trialsREPSWITCH.thisIndex,textWelcome.started,textboxInstrMain1.started,textboxInstrMain1_2.started,textboxInstrMain1_3.started,keyInstrMain.started,keyInstrMain.keys,keyInstrMain.rt,textboxInstrMain2.started,textboxInstrMain2_2.started,textboxInstrMain2_3.started,textboxInstrMain2_4.started,textboxInstrMain2_5.started,textboxInstrMain2_6.started,textboxInstrMain2_7.started,textboxInstrMain2_8.started,textboxInstrMain2_9.started,textboxInstrMain2_10.started,textboxInstrMain2_11.started,textboxInstrMain2_12.started,keyInstrMain2.started,keyInstrMain2.keys,keyInstrMain2.rt,fixationITI.started,fixationITI.stopped,polygonColour.started,polygonWhite.started,imageObject.started,polygonType.started,textInput.started,keyResp.started,micRespv1l1.started,keyResp.keys,keyResp.corr,keyResp.rt,subjResponse,micRespv1l1.clip,textBlankLoop.started,textBlankLoop.stopped,keyPause.keys,polygonColour.stopped,polygonWhite.stopped,imageObject.stopped,polygonType.stopped,textInput.stopped,keyResp.stopped,textboxPause.started,keyPause.started,keyPause.rt,textboxGoodbye.started,textboxGoodbye.stopped,participant,session,date,expName,psychopyVersion,frameRate,
,,,,,,,,,,,,,,,,,,,,,8.173219200223684,10.6656669001095,10.6656669001095,10.6656669001095,10.6656669001095,space,11.0071280002594,,,,,,,,,,,,,,,,,,,,,,,,,,,,,,,,,,,,,,,,,,,,330101,001,2023-12-11_16h27.05.564,REPSWITCH1_version1_list1,2022.2.4,143.9244460002626,
,,,,,,,,,,,,,,,,,,,,,,,,,,,,21.688043400179595,21.688043400179595,21.688043400179595,21.688043400179595,21.688043400179595,21.688043400179595,21.688043400179595,21.688043400179595,21.688043400179595,21.688043400179595,21.688043400179595,21.688043400179595,21.688043400179595,space,3.324928400106728,,,,,,,,,,,,,,,,,,,,,,,,,,,,,330101,001,2023-12-11_16h27.05.564,REPSWITCH1_version1_list1,2022.2.4,143.9244460002626,
REPSWITCH1/PICTURE_340.png,espejo,type,darkblue,filler,1,F,1,1,1,1,Extra1,0,None,1,0,1,0,0,0,0,,,,,,,,,,,,,,,,,,,,,,,25.105083300266415,26.24412370007485,26.24412370007485,26.24412370007485,26.24412370007485,26.24412370007485,26.24412370007485,26.24412370007485,26.24412370007485,"['e', 's', 'p', 'e', 'j']",0,"[1.300102200359106, 1.8553179004229605, 2.029324700124562, 2.2069810004904866, 2.5651499005034566]",espej,C:\2023\REPSWITCH21092023\REPSWITCH_excgange\REPSWITCH_excgange\data/330101_REPSWITCH1_version1_list1_2023-12-11_16h27.05.564_micRespv1l1_recorded\recording_micRespv1l1_2023-12-11_16h27.28.512.wav,29.265428700018674,29.76540319994092,None,,,,,,,,,,,,330101,001,2023-12-11_16h27.05.564,REPSWITCH1_version1_list1,2022.2.4,143.9244460002626,
REPSWITCH1/PICTURE_391.png,cadena,speak,gold,filler,2,F,1,1,1,1,Extra2,0,None,2,1,2,0,1,1,1,,,,,,,,,,,,,,,,,,,,,,,29.76540319994092,30.80719510000199,30.80719510000199,30.80719510000199,30.80719510000199,30.80719510000199,30.80719510000199,30.80719510000199,30.80719510000199,None,0,,,C:\2023\REPSWITCH21092023\REPSWITCH_excgange\REPSWITCH_excgange\data/330101_REPSWITCH1_version1_list1_2023-12-11_16h27.05.564_micRespv1l1_recorded\recording_micRespv1l1_2023-12-11_16h27.33.079.wav,33.835383700206876,34.335505899973214,None,33.835383700206876,33.835383700206876,33.835383700206876,33.835383700206876,33.835383700206876,33.835383700206876,,,,,,330101,001,2023-12-11_16h27.05.564,REPSWITCH1_version1_list1,2022.2.4,143.9244460002626,
REPSWITCH1/PICTURE_178.png,puente,speak,gold,nontarget,2,NT,1,1,1,1,Stim1_Set1,1,repeat,3,2,3,0,2,2,2,,,,,,,,,,,,,,,,,,,,,,,34.335505899973214,35.460604700259864,35.460604700259864,35.460604700259864,35.460604700259864,35.460604700259864,35.460604700259864,35.460604700259864,35.460604700259864,None,0,,,C:\2023\REPSWITCH21092023\REPSWITCH_excgange\REPSWITCH_excgange\data/330101_REPSWITCH1_version1_list1_2023-12-11_16h27.05.564_micRespv1l1_recorded\recording_micRespv1l1_2023-12-11_16h27.37.732.wav,38.481799399945885,38.98190739983693,None,38.481799399945885,38.481799399945885,38.481799399945885,38.481799399945885,38.481799399945885,38.481799399945885,,,,,,330101,001,2023-12-11_16h27.05.564,REPSWITCH1_version1_list1,2022.2.4,143.9244460002626,
REPSWITCH1/PICTURE_178.png,puente,speak,gold,repeat,2,T,1,1,1,1,Stim1_Set1,0,None,4,3,4,0,3,3,3,,,,,,,,,,,,,,,,,,,,,,,38.98190739983693,40.134815900120884,40.134815900120884,40.134815900120884,40.134815900120884,40.134815900120884,40.134815900120884,40.134815900120884,40.134815900120884,None,0,,,C:\2023\REPSWITCH21092023\REPSWITCH_excgange\REPSWITCH_excgange\data/330101_REPSWITCH1_version1_list1_2023-12-11_16h27.05.564_micRespv1l1_recorded\recording_micRespv1l1_2023-12-11_16h27.42.406.wav,43.156038200017065,43.65612869989127,None,43.156038200017065,43.156038200017065,43.156038200017065,43.156038200017065,43.156038200017065,43.156038200017065,,,,,,330101,001,2023-12-11_16h27.05.564,REPSWITCH1_version1_list1,2022.2.4,143.9244460002626,
REPSWITCH1/PICTURE_319.png,vaca,type,darkblue,filler,1,F,1,1,1,1,Stim1_Set4,0,None,5,4,5,0,4,4,4,,,,,,,,,,,,,,,,,,,,,,,43.65612869989127,44.76743739983067,44.76743739983067,44.76743739983067,44.76743739983067,44.76743739983067,44.76743739983067,44.76743739983067,44.76743739983067,"['v', 'a', 'c', 'a']",0,"[1.5089563000947237, 1.5996450004167855, 1.7401543003506958, 1.8612023000605404]",vaca,C:\2023\REPSWITCH21092023\REPSWITCH_excgange\REPSWITCH_excgange\data/330101_REPSWITCH1_version1_list1_2023-12-11_16h27.05.564_micRespv1l1_recorded\recording_micRespv1l1_2023-12-11_16h27.47.038.wav,47.78866389999166,48.28865180024877,None,47.78866389999166,47.78866389999166,47.78866389999166,47.78866389999166,47.78866389999166,47.78866389999166,,,,,,330101,001,2023-12-11_16h27.05.564,REPSWITCH1_version1_list1,2022.2.4,143.9244460002626,
REPSWITCH1/PICTURE_381.png,fresa,speak,gold,nontarget,2,NT,1,1,1,1,Stim2_Set1,1,switch,6,5,6,0,5,5,5,,,,,,,,,,,,,,,,,,,,,,,48.28865180024877,49.37215150007978,49.37215150007978,49.37215150007978,49.37215150007978,49.37215150007978,49.37215150007978,49.37215150007978,49.37215150007978,None,0,,,C:\2023\REPSWITCH21092023\REPSWITCH_excgange\REPSWITCH_excgange\data/330101_REPSWITCH1_version1_list1_2023-12-11_16h27.05.564_micRespv1l1_recorded\recording_micRespv1l1_2023-12-11_16h27.51.645.wav,52.400354200042784,,None,52.400354200042784,52.400354200042784,52.400354200042784,52.400354200042784,52.400354200042784,52.400354200042784,,,,,,330101,001,2023-12-11_16h27.05.564,REPSWITCH1_version1_list1,2022.2.4,143.9244460002626,
REPSWITCH1/PICTURE_381.png,fresa,speak,gold,repeat,2,T,1,1,1,1,Stim2_Set1,0,None,7,6,7,0,6,6,6,,,,,,,,,,,,,,,,,,,,,,,52.90039429999888,54.011681200005114,54.011681200005114,54.011681200005114,54.011681200005114,54.011681200005114,54.011681200005114,54.011681200005114,54.011681200005114,None,0,,,C:\2023\REPSWITCH21092023\REPSWITCH_excgange\REPSWITCH_excgange\data/330101_REPSWITCH1_version1_list1_2023-12-11_16h27.05.564_micRespv1l1_recorded\recording_micRespv1l1_2023-12-11_16h27.56.283.wav,57.0328870001249,57.532947700005025,None,57.0328870001249,57.0328870001249,57.0328870001249,57.0328870001249,57.0328870001249,57.0328870001249,,,,,,330101,001,2023-12-11_16h27.05.564,REPSWITCH1_version1_list1,2022.2.4,143.9244460002626,
REPSWITCH1/PICTURE_719.png,baño,type,darkblue,filler,1,F,1,1,1,1,Stim2_Set4,1,switch,8,7,8,0,7,7,7,,,,,,,,,,,,,,,,,,,,,,,57.532947700005025,58.61648730002344,58.61648730002344,58.61648730002344,58.61648730002344,58.61648730002344,58.61648730002344,58.61648730002344,58.61648730002344,"['b', 'a', 'ñ', 'o']",0,"[1.1922023999504745, 1.2972531002014875, 1.7509729000739753, 1.8052114001475275]",baño,C:\2023\REPSWITCH21092023\REPSWITCH_excgange\REPSWITCH_excgange\data/330101_REPSWITCH1_version1_list1_2023-12-11_16h27.05.564_micRespv1l1_recorded\recording_micRespv1l1_2023-12-11_16h28.00.887.wav,61.63764030020684,62.137781199999154,None,61.63764030020684,61.63764030020684,61.63764030020684,61.63764030020684,61.63764030020684,61.63764030020684,,,,,,330101,001,2023-12-11_16h27.05.564,REPSWITCH1_version1_list1,2022.2.4,143.9244460002626,
REPSWITCH1/PICTURE_135.png,traje,speak,gold,nontarget,2,NT,1,1,1,1,Stim3_Set1,0,None,9,8,9,0,8,8,8,,,,,,,,,,,,,,,,,,,,,,,62.137781199999154,63.165606800001115,63.165606800001115,63.165606800001115,63.165606800001115,63.165606800001115,63.165606800001115,63.165606800001115,63.165606800001115,None,0,,,C:\2023\REPSWITCH21092023\REPSWITCH_excgange\REPSWITCH_excgange\data/330101_REPSWITCH1_version1_list1_2023-12-11_16h27.05.564_micRespv1l1_recorded\recording_micRespv1l1_2023-12-11_16h28.05.437.wav,66.18688309984282,66.68692129990086,None,66.18688309984282,66.18688309984282,66.18688309984282,66.18688309984282,66.18688309984282,66.18688309984282,,,,,,330101,001,2023-12-11_16h27.05.564,REPSWITCH1_version1_list1,2022.2.4,143.9244460002626,
REPSWITCH1/PICTURE_135.png,traje,type,darkblue,switch,1,T,1,1,1,1,Stim3_Set1,0,None,10,9,10,0,9,9,9,,,,,,,,,,,,,,,,,,,,,,,66.68692129990086,67.79816420003772,67.79816420003772,67.79816420003772,67.79816420003772,67.79816420003772,67.79816420003772,67.79816420003772,67.79816420003772,"['t', 'r', 'a', 'j', 'e']",0,"[1.1406856002286077, 1.3010370000265539, 1.4803152000531554, 1.6527288001962006, 1.7617373000830412]",traje,C:\2023\REPSWITCH21092023\REPSWITCH_excgange\REPSWITCH_excgange\data/330101_REPSWITCH1_version1_list1_2023-12-11_16h27.05.564_micRespv1l1_recorded\recording_micRespv1l1_2023-12-11_16h28.10.070.wav,70.8193724998273,71.31944900006056,None,70.8193724998273,70.8193724998273,70.8193724998273,70.8193724998273,70.8193724998273,70.8193724998273,,,,,,330101,001,2023-12-11_16h27.05.564,REPSWITCH1_version1_list1,2022.2.4,143.9244460002626,
REPSWITCH1/PICTURE_687.png,camisa,speak,gold,filler,2,F,1,1,1,1,Stim5_Set4,0,None,11,10,11,0,10,10,10,,,,,,,,,,,,,,,,,,,,,,,71.31944900006056,72.36821300024167,72.36821300024167,72.36821300024167,72.36821300024167,72.36821300024167,72.36821300024167,72.36821300024167,72.36821300024167,None,0,,,C:\2023\REPSWITCH21092023\REPSWITCH_excgange\REPSWITCH_excgange\data/330101_REPSWITCH1_version1_list1_2023-12-11_16h27.05.564_micRespv1l1_recorded\recording_micRespv1l1_2023-12-11_16h28.14.640.wav,75.38943029986694,75.88948119990528,None,75.38943029986694,75.38943029986694,75.38943029986694,75.38943029986694,75.38943029986694,75.38943029986694,,,,,,330101,001,2023-12-11_16h27.05.564,REPSWITCH1_version1_list1,2022.2.4,143.9244460002626,
REPSWITCH1/PICTURE_128.png,muñeca,type,darkblue,nontarget,1,NT,1,1,1,1,Stim4_Set1,1,switch,12,11,12,0,11,11,11,,,,,,,,,,,,,,,,,,,,,,,75.88948119990528,77.0285490998067,77.0285490998067,77.0285490998067,77.0285490998067,77.0285490998067,77.0285490998067,77.0285490998067,77.0285490998067,"['m', 'u', 'ñ', 'e', 'z', 'a', 'backspace', 'backspace', 'c', 'a']",0,"[1.1062427000142634, 1.2477405001409352, 1.5580134000629187, 1.7045077998191118, 2.1007920000702143, 2.2871669000014663, 2.5861734999343753, 2.7326787002384663, 2.790870999917388, 2.8416777998209]",muñeca,C:\2023\REPSWITCH21092023\REPSWITCH_excgange\REPSWITCH_excgange\data/330101_REPSWITCH1_version1_list1_2023-12-11_16h27.05.564_micRespv1l1_recorded\recording_micRespv1l1_2023-12-11_16h28.19.300.wav,80.04976919991896,80.54985259985551,None,80.04976919991896,80.04976919991896,80.04976919991896,80.04976919991896,80.04976919991896,80.04976919991896,,,,,,330101,001,2023-12-11_16h27.05.564,REPSWITCH1_version1_list1,2022.2.4,143.9244460002626,
REPSWITCH1/PICTURE_128.png,muñeca,speak,gold,switch,2,T,1,1,1,1,Stim4_Set1,0,None,13,12,13,0,12,12,12,,,,,,,,,,,,,,,,,,,,,,,80.54985259985551,81.64030339987949,81.64030339987949,81.64030339987949,81.64030339987949,81.64030339987949,81.64030339987949,81.64030339987949,81.64030339987949,None,0,,,C:\2023\REPSWITCH21092023\REPSWITCH_excgange\REPSWITCH_excgange\data/330101_REPSWITCH1_version1_list1_2023-12-11_16h27.05.564_micRespv1l1_recorded\recording_micRespv1l1_2023-12-11_16h28.23.912.wav,84.66146710002795,85.1615400002338,None,84.66146710002795,84.66146710002795,84.66146710002795,84.66146710002795,84.66146710002795,84.66146710002795,,,,,,330101,001,2023-12-11_16h27.05.564,REPSWITCH1_version1_list1,2022.2.4,143.9244460002626,
REPSWITCH1/PICTURE_8.png,pierna,speak,gold,filler,2,F,1,1,1,1,Stim3_Set4,0,None,14,13,14,0,13,13,13,,,,,,,,,,,,,,,,,,,,,,,85.1615400002338,86.2658660998568,86.2658660998568,86.2658660998568,86.2658660998568,86.2658660998568,86.2658660998568,86.2658660998568,86.2658660998568,None,0,,,C:\2023\REPSWITCH21092023\REPSWITCH_excgange\REPSWITCH_excgange\data/330101_REPSWITCH1_version1_list1_2023-12-11_16h27.05.564_micRespv1l1_recorded\recording_micRespv1l1_2023-12-11_16h28.28.537.wav,89.28709430014715,89.78719139983878,None,89.28709430014715,89.28709430014715,89.28709430014715,89.28709430014715,89.28709430014715,89.28709430014715,,,,,,330101,001,2023-12-11_16h27.05.564,REPSWITCH1_version1_list1,2022.2.4,143.9244460002626,
REPSWITCH1/PICTURE_19.png,pavo,speak,gold,nontarget,2,NT,1,1,1,1,Stim5_Set1,0,None,15,14,15,0,14,14,14,,,,,,,,,,,,,,,,,,,,,,,89.78719139983878,90.81509980000556,90.81509980000556,90.81509980000556,90.81509980000556,90.81509980000556,90.81509980000556,90.81509980000556,90.81509980000556,None,0,,,C:\2023\REPSWITCH21092023\REPSWITCH_excgange\REPSWITCH_excgange\data/330101_REPSWITCH1_version1_list1_2023-12-11_16h27.05.564_micRespv1l1_recorded\recording_micRespv1l1_2023-12-11_16h28.33.087.wav,93.84325620019808,,None,93.84325620019808,93.84325620019808,93.84325620019808,93.84325620019808,93.84325620019808,93.84325620019808,,,,,,330101,001,2023-12-11_16h27.05.564,REPSWITCH1_version1_list1,2022.2.4,143.9244460002626,
REPSWITCH1/PICTURE_19.png,pavo,type,darkblue,switch,1,T,1,1,1,1,Stim5_Set1,0,None,16,15,16,0,15,15,15,,,,,,,,,,,,,,,,,,,,,,,94.34332660026848,95.43373470008373,95.43373470008373,95.43373470008373,95.43373470008373,95.43373470008373,95.43373470008373,95.43373470008373,95.43373470008373,"['p', 'a', 'v', 'o']",0,"[1.0690914001315832, 1.1448423000983894, 1.2514832001179457, 1.4135871999897063]",pavo,C:\2023\REPSWITCH21092023\REPSWITCH_excgange\REPSWITCH_excgange\data/330101_REPSWITCH1_version1_list1_2023-12-11_16h27.05.564_micRespv1l1_recorded\recording_micRespv1l1_2023-12-11_16h28.37.705.wav,98.45497759990394,98.95504780020565,None,98.45497759990394,98.45497759990394,98.45497759990394,98.45497759990394,98.45497759990394,98.45497759990394,,,,,,330101,001,2023-12-11_16h27.05.564,REPSWITCH1_version1_list1,2022.2.4,143.9244460002626,
REPSWITCH1/PICTURE_16.png,cazador,type,darkblue,nontarget,1,NT,1,1,1,1,Stim6_Set1,1,switch,17,16,17,0,16,16,16,,,,,,,,,,,,,,,,,,,,,,,98.95504780020565,100.02461809990928,100.02461809990928,100.02461809990928,100.02461809990928,100.02461809990928,100.02461809990928,100.02461809990928,100.02461809990928,"['c', 'a', 'z', 'a', 'd', 'o', 'r']",0,"[0.9158197999931872, 1.0403422000817955, 1.6166274002753198, 1.7815292002633214, 1.9341995003633201, 2.097444700077176, 2.221830800175667]",cazador,C:\2023\REPSWITCH21092023\REPSWITCH_excgange\REPSWITCH_excgange\data/330101_REPSWITCH1_version1_list1_2023-12-11_16h27.05.564_micRespv1l1_recorded\recording_micRespv1l1_2023-12-11_16h28.42.296.wav,103.04586629988626,103.54591860016808,None,103.04586629988626,103.04586629988626,103.04586629988626,103.04586629988626,103.04586629988626,103.04586629988626,,,,,,330101,001,2023-12-11_16h27.05.564,REPSWITCH1_version1_list1,2022.2.4,143.9244460002626,
REPSWITCH1/PICTURE_16.png,cazador,type,darkblue,repeat,1,T,1,1,1,1,Stim6_Set1,0,None,18,17,18,0,17,17,17,,,,,,,,,,,,,,,,,,,,,,,103.54591860016808,104.60159779991955,104.60159779991955,104.60159779991955,104.60159779991955,104.60159779991955,104.60159779991955,104.60159779991955,104.60159779991955,"['c', 'a', 'z', 'a', 'd', 'o', 'r']",0,"[1.375161100178957, 1.5087026003748178, 1.8149446002207696, 1.9451124002225697, 2.0687303002923727, 2.211478200275451, 2.3383350004442036]",cazador,C:\2023\REPSWITCH21092023\REPSWITCH_excgange\REPSWITCH_excgange\data/330101_REPSWITCH1_version1_list1_2023-12-11_16h27.05.564_micRespv1l1_recorded\recording_micRespv1l1_2023-12-11_16h28.46.873.wav,107.62979040015489,,None,107.62979040015489,107.62979040015489,107.62979040015489,107.62979040015489,107.62979040015489,107.62979040015489,,,,,,330101,001,2023-12-11_16h27.05.564,REPSWITCH1_version1_list1,2022.2.4,143.9244460002626,
REPSWITCH1/PICTURE_498.png,taza,speak,gold,filler,2,F,1,1,1,1,Stim4_Set4,0,None,19,18,19,0,18,18,18,,,,,,,,,,,,,,,,,,,,,,,108.12988050002605,109.27586770011112,109.27586770011112,109.27586770011112,109.27586770011112,109.27586770011112,109.27586770011112,109.27586770011112,109.27586770011112,None,0,,,C:\2023\REPSWITCH21092023\REPSWITCH_excgange\REPSWITCH_excgange\data/330101_REPSWITCH1_version1_list1_2023-12-11_16h27.05.564_micRespv1l1_recorded\recording_micRespv1l1_2023-12-11_16h28.51.548.wav,112.30404239986092,,None,112.30404239986092,112.30404239986092,112.30404239986092,112.30404239986092,112.30404239986092,112.30404239986092,,,,,,330101,001,2023-12-11_16h27.05.564,REPSWITCH1_version1_list1,2022.2.4,143.9244460002626,
REPSWITCH1/PICTURE_48.png,bombero,type,darkblue,filler,1,F,1,1,1,1,Stim7_Set4,0,None,20,19,20,0,19,19,19,,,,,,,,,,,,,,,,,,,,,,,112.80408440018073,114.09589909994975,114.09589909994975,114.09589909994975,114.09589909994975,114.09589909994975,114.09589909994975,114.09589909994975,114.09589909994975,"['b', 'o', 'm', 'b', 'e', 'r', 'o']",0,"[0.8861899999901652, 1.0754586001858115, 1.1910088998265564, 1.3135716998949647, 1.5730522000230849, 1.6507401000708342, 1.8211591998115182]",bombero,C:\2023\REPSWITCH21092023\REPSWITCH_excgange\REPSWITCH_excgange\data/330101_REPSWITCH1_version1_list1_2023-12-11_16h27.05.564_micRespv1l1_recorded\recording_micRespv1l1_2023-12-11_16h28.56.367.wav,117.12408480001613,,None,117.12408480001613,117.12408480001613,117.12408480001613,117.12408480001613,117.12408480001613,117.12408480001613,,,,,,330101,001,2023-12-11_16h27.05.564,REPSWITCH1_version1_list1,2022.2.4,143.9244460002626,
REPSWITCH1/PICTURE_142.png,vaso,type,darkblue,nontarget,1,NT,1,1,1,1,Stim7_Set1,1,repeat,21,20,21,0,20,20,20,,,,,,,,,,,,,,,,,,,,,,,117.62415730021894,118.6798394001089,118.6798394001089,118.6798394001089,118.6798394001089,118.6798394001089,118.6798394001089,118.6798394001089,118.6798394001089,"['v', 'a', 's', 'o']",0,"[0.9691051002591848, 1.036265500355512, 1.199955700431019, 1.4232221003621817]",vaso,C:\2023\REPSWITCH21092023\REPSWITCH_excgange\REPSWITCH_excgange\data/330101_REPSWITCH1_version1_list1_2023-12-11_16h27.05.564_micRespv1l1_recorded\recording_micRespv1l1_2023-12-11_16h29.00.952.wav,121.70806339988485,,None,121.70806339988485,121.70806339988485,121.70806339988485,121.70806339988485,121.70806339988485,121.70806339988485,,,,,,330101,001,2023-12-11_16h27.05.564,REPSWITCH1_version1_list1,2022.2.4,143.9244460002626,
REPSWITCH1/PICTURE_142.png,vaso,type,darkblue,repeat,1,T,1,1,1,1,Stim7_Set1,0,None,22,21,22,0,21,21,21,,,,,,,,,,,,,,,,,,,,,,,122.20810770010576,123.29849149985239,123.29849149985239,123.29849149985239,123.29849149985239,123.29849149985239,123.29849149985239,123.29849149985239,123.29849149985239,"['v', 'a', 's', 'o']",0,"[0.7489207005128264, 0.8366736001335084, 0.9234831002540886, 1.1058595003560185]",vaso,C:\2023\REPSWITCH21092023\REPSWITCH_excgange\REPSWITCH_excgange\data/330101_REPSWITCH1_version1_list1_2023-12-11_16h27.05.564_micRespv1l1_recorded\recording_micRespv1l1_2023-12-11_16h29.05.570.wav,126.31974539998919,126.8198076998815,None,126.31974539998919,126.31974539998919,126.31974539998919,126.31974539998919,126.31974539998919,126.31974539998919,,,,,,330101,001,2023-12-11_16h27.05.564,REPSWITCH1_version1_list1,2022.2.4,143.9244460002626,
REPSWITCH1/PICTURE_338.png,regalo,speak,gold,filler,2,F,1,1,1,1,Stim6_Set4,1,switch,23,22,23,0,22,22,22,,,,,,,,,,,,,,,,,,,,,,,126.8198076998815,127.95188579987735,127.95188579987735,127.95188579987735,127.95188579987735,127.95188579987735,127.95188579987735,127.95188579987735,127.95188579987735,None,0,,,C:\2023\REPSWITCH21092023\REPSWITCH_excgange\REPSWITCH_excgange\data/330101_REPSWITCH1_version1_list1_2023-12-11_16h27.05.564_micRespv1l1_recorded\recording_micRespv1l1_2023-12-11_16h29.10.224.wav,130.98011780017987,,None,130.98011780017987,130.98011780017987,130.98011780017987,130.98011780017987,130.98011780017987,130.98011780017987,,,,,,330101,001,2023-12-11_16h27.05.564,REPSWITCH1_version1_list1,2022.2.4,143.9244460002626,
REPSWITCH1/PICTURE_728.png,pulpo,type,darkblue,filler,1,F,1,1,1,1,Stim8_Set4,1,switch,24,23,24,0,23,23,23,,,,,,,,,,,,,,,,,,,,,,,131.4801385998726,132.56359740020707,132.56359740020707,132.56359740020707,132.56359740020707,132.56359740020707,132.56359740020707,132.56359740020707,132.56359740020707,"['p', 'u', 'l', 'p', 'o']",0,"[1.1766197001561522, 1.5364605002105236, 1.9214922999963164, 2.1555927000008523, 2.347924000117928]",pulpo,C:\2023\REPSWITCH21092023\REPSWITCH_excgange\REPSWITCH_excgange\data/330101_REPSWITCH1_version1_list1_2023-12-11_16h27.05.564_micRespv1l1_recorded\recording_micRespv1l1_2023-12-11_16h29.14.835.wav,135.5917845000513,,None,135.5917845000513,135.5917845000513,135.5917845000513,135.5917845000513,135.5917845000513,135.5917845000513,,,,,,330101,001,2023-12-11_16h27.05.564,REPSWITCH1_version1_list1,2022.2.4,143.9244460002626,
REPSWITCH1/PICTURE_169.png,espalda,type,darkblue,nontarget,1,NT,1,1,1,1,Stim8_Set1,1,repeat,25,24,25,0,24,24,24,,,,,,,,,,,,,,,,,,,,,,,136.09185680001974,137.09891280019656,137.09891280019656,137.09891280019656,137.09891280019656,137.09891280019656,137.09891280019656,137.09891280019656,137.09891280019656,"['e', 's', 'p', 'a', 'l', 'd', 'a']",0,"[0.8996558003127575, 1.1232580002397299, 1.2481880001723766, 1.3788646003231406, 1.5014047003351152, 1.641972000245005, 1.7210290003567934]",espalda,C:\2023\REPSWITCH21092023\REPSWITCH_excgange\REPSWITCH_excgange\data/330101_REPSWITCH1_version1_list1_2023-12-11_16h27.05.564_micRespv1l1_recorded\recording_micRespv1l1_2023-12-11_16h29.19.371.wav,140.1271182000637,,None,140.1271182000637,140.1271182000637,140.1271182000637,140.1271182000637,140.1271182000637,140.1271182000637,,,,,,330101,001,2023-12-11_16h27.05.564,REPSWITCH1_version1_list1,2022.2.4,143.9244460002626,
REPSWITCH1/PICTURE_169.png,espalda,speak,gold,switch,2,T,1,1,1,1,Stim8_Set1,0,None,26,25,26,0,25,25,25,,,,,,,,,,,,,,,,,,,,,,,140.6272503999062,141.66204900015146,141.66204900015146,141.66204900015146,141.66204900015146,141.66204900015146,141.66204900015146,141.66204900015146,141.66204900015146,None,0,,,C:\2023\REPSWITCH21092023\REPSWITCH_excgange\REPSWITCH_excgange\data/330101_REPSWITCH1_version1_list1_2023-12-11_16h27.05.564_micRespv1l1_recorded\recording_micRespv1l1_2023-12-11_16h29.23.934.wav,144.69020379986614,,None,144.69020379986614,144.69020379986614,144.69020379986614,144.69020379986614,144.69020379986614,144.69020379986614,,,,,,330101,001,2023-12-11_16h27.05.564,REPSWITCH1_version1_list1,2022.2.4,143.9244460002626,
REPSWITCH1/PICTURE_178.png,puente,speak,gold,filler,2,F,2,1,1,1,Stim1_Set1,0,None,27,26,27,0,26,26,26,,,,,,,,,,,,,,,,,,,,,,,145.1902677002363,146.3154708999209,146.3154708999209,146.3154708999209,146.3154708999209,146.3154708999209,146.3154708999209,146.3154708999209,146.3154708999209,None,0,,,C:\2023\REPSWITCH21092023\REPSWITCH_excgange\REPSWITCH_excgange\data/330101_REPSWITCH1_version1_list1_2023-12-11_16h27.05.564_micRespv1l1_recorded\recording_micRespv1l1_2023-12-11_16h29.28.587.wav,149.3435712000355,,None,149.3435712000355,149.3435712000355,149.3435712000355,149.3435712000355,149.3435712000355,149.3435712000355,,,,,,330101,001,2023-12-11_16h27.05.564,REPSWITCH1_version1_list1,2022.2.4,143.9244460002626,
REPSWITCH1/PICTURE_175.png,pintor,type,darkblue,nontarget,1,NT,2,1,1,1,Stim1_Set2,1,switch,28,27,28,0,27,27,27,,,,,,,,,,,,,,,,,,,,,,,149.84364859992638,151.05912070022896,151.05912070022896,151.05912070022896,151.05912070022896,151.05912070022896,151.05912070022896,151.05912070022896,151.05912070022896,"['p', 'i', 'n', 't', 'o', 'r']",0,"[1.1553742000833154, 1.2789933001622558, 1.409548600204289, 1.4842992001213133, 1.6368123004212976, 1.7637256002053618]",pintor,C:\2023\REPSWITCH21092023\REPSWITCH_excgange\REPSWITCH_excgange\data/330101_REPSWITCH1_version1_list1_2023-12-11_16h27.05.564_micRespv1l1_recorded\recording_micRespv1l1_2023-12-11_16h29.33.330.wav,154.08032969990745,154.5803566002287,None,154.08032969990745,154.08032969990745,154.08032969990745,154.08032969990745,154.08032969990745,154.08032969990745,,,,,,330101,001,2023-12-11_16h27.05.564,REPSWITCH1_version1_list1,2022.2.4,143.9244460002626,
REPSWITCH1/PICTURE_175.png,pintor,type,darkblue,repeat,1,T,2,1,1,1,Stim1_Set2,0,None,29,28,29,0,28,28,28,,,,,,,,,,,,,,,,,,,,,,,154.5803566002287,155.65690279984847,155.65690279984847,155.65690279984847,155.65690279984847,155.65690279984847,155.65690279984847,155.65690279984847,155.65690279984847,"['p', 'i', 'n', 't', 'o', 'r']",0,"[1.0375241003930569, 1.1361315003596246, 1.2776525001972914, 1.3753337003290653, 1.4819660000503063, 1.6224984000436962]",pintor,C:\2023\REPSWITCH21092023\REPSWITCH_excgange\REPSWITCH_excgange\data/330101_REPSWITCH1_version1_list1_2023-12-11_16h27.05.564_micRespv1l1_recorded\recording_micRespv1l1_2023-12-11_16h29.37.929.wav,158.67812959989533,159.1782031999901,None,158.67812959989533,158.67812959989533,158.67812959989533,158.67812959989533,158.67812959989533,158.67812959989533,,,,,,330101,001,2023-12-11_16h27.05.564,REPSWITCH1_version1_list1,2022.2.4,143.9244460002626,
REPSWITCH1/PICTURE_381.png,fresa,speak,gold,filler,2,F,2,1,1,1,Stim2_Set1,0,None,30,29,30,0,29,29,29,,,,,,,,,,,,,,,,,,,,,,,159.1782031999901,160.2894888999872,160.2894888999872,160.2894888999872,160.2894888999872,160.2894888999872,160.2894888999872,160.2894888999872,160.2894888999872,None,0,,,C:\2023\REPSWITCH21092023\REPSWITCH_excgange\REPSWITCH_excgange\data/330101_REPSWITCH1_version1_list1_2023-12-11_16h27.05.564_micRespv1l1_recorded\recording_micRespv1l1_2023-12-11_16h29.42.561.wav,163.3176485998556,,None,163.3176485998556,163.3176485998556,163.3176485998556,163.3176485998556,163.3176485998556,163.3176485998556,,,,,,330101,001,2023-12-11_16h27.05.564,REPSWITCH1_version1_list1,2022.2.4,143.9244460002626,
REPSWITCH1/PICTURE_152.png,caracol,type,darkblue,nontarget,1,NT,2,1,1,1,Stim2_Set2,1,switch,31,30,31,0,30,30,30,,,,,,,,,,,,,,,,,,,,,,,163.81771400012076,164.88737760018557,164.88737760018557,164.88737760018557,164.88737760018557,164.88737760018557,164.88737760018557,164.88737760018557,164.88737760018557,"['c', 'a', 'r', 'a', 'c', 'o', 'l']",0,"[1.0442011002451181, 1.1418130001984537, 1.3341633002273738, 1.474980200175196, 1.6354839000850916, 1.754048699978739, 1.9544714000076056]",caracol,C:\2023\REPSWITCH21092023\REPSWITCH_excgange\REPSWITCH_excgange\data/330101_REPSWITCH1_version1_list1_2023-12-11_16h27.05.564_micRespv1l1_recorded\recording_micRespv1l1_2023-12-11_16h29.47.158.wav,167.90849100006744,168.4086417001672,None,167.90849100006744,167.90849100006744,167.90849100006744,167.90849100006744,167.90849100006744,167.90849100006744,,,,,,330101,001,2023-12-11_16h27.05.564,REPSWITCH1_version1_list1,2022.2.4,143.9244460002626,
REPSWITCH1/PICTURE_152.png,caracol,type,darkblue,repeat,1,T,2,1,1,1,Stim2_Set2,0,None,32,31,32,0,31,31,31,,,,,,,,,,,,,,,,,,,,,,,168.4086417001672,169.48509069997817,169.48509069997817,169.48509069997817,169.48509069997817,169.48509069997817,169.48509069997817,169.48509069997817,169.48509069997817,"['c', 'a', 'r', 'a', 'c', 'o', 'l']",0,"[0.721825800370425, 0.8084937003441155, 1.0008848002180457, 1.1316775004379451, 1.2995765004307032, 1.4563943003304303, 1.6767056002281606]",caracol,C:\2023\REPSWITCH21092023\REPSWITCH_excgange\REPSWITCH_excgange\data/330101_REPSWITCH1_version1_list1_2023-12-11_16h27.05.564_micRespv1l1_recorded\recording_micRespv1l1_2023-12-11_16h29.51.757.wav,172.5063547999598,173.00639249989763,None,172.5063547999598,172.5063547999598,172.5063547999598,172.5063547999598,172.5063547999598,172.5063547999598,,,,,,330101,001,2023-12-11_16h27.05.564,REPSWITCH1_version1_list1,2022.2.4,143.9244460002626,
REPSWITCH1/PICTURE_128.png,muñeca,speak,gold,filler,2,F,2,1,1,1,Stim4_Set1,0,None,33,32,33,0,32,32,32,,,,,,,,,,,,,,,,,,,,,,,173.00639249989763,174.15244100010023,174.15244100010023,174.15244100010023,174.15244100010023,174.15244100010023,174.15244100010023,174.15244100010023,174.15244100010023,None,0,,,C:\2023\REPSWITCH21092023\REPSWITCH_excgange\REPSWITCH_excgange\data/330101_REPSWITCH1_version1_list1_2023-12-11_16h27.05.564_micRespv1l1_recorded\recording_micRespv1l1_2023-12-11_16h29.56.424.wav,177.17368899984285,177.67370089981705,None,177.17368899984285,177.17368899984285,177.17368899984285,177.17368899984285,177.17368899984285,177.17368899984285,,,,,,330101,001,2023-12-11_16h27.05.564,REPSWITCH1_version1_list1,2022.2.4,143.9244460002626,
REPSWITCH1/PICTURE_264.png,mano,type,darkblue,nontarget,1,NT,2,1,1,1,Stim3_Set2,0,None,34,33,34,0,33,33,33,,,,,,,,,,,,,,,,,,,,,,,177.67370089981705,178.819666699972,178.819666699972,178.819666699972,178.819666699972,178.819666699972,178.819666699972,178.819666699972,178.819666699972,"['m', 'a', 'n', 'o']",0,"[0.9697227999567986, 1.0633715000003576, 1.2099163001403213, 1.328462699893862]",mano,C:\2023\REPSWITCH21092023\REPSWITCH_excgange\REPSWITCH_excgange\data/330101_REPSWITCH1_version1_list1_2023-12-11_16h27.05.564_micRespv1l1_recorded\recording_micRespv1l1_2023-12-11_16h30.01.091.wav,181.84091660007834,182.34097420005128,None,181.84091660007834,181.84091660007834,181.84091660007834,181.84091660007834,181.84091660007834,181.84091660007834,,,,,,330101,001,2023-12-11_16h27.05.564,REPSWITCH1_version1_list1,2022.2.4,143.9244460002626,
REPSWITCH1/PICTURE_264.png,mano,speak,gold,switch,2,T,2,1,1,1,Stim3_Set2,0,None,35,34,35,0,34,34,34,,,,,,,,,,,,,,,,,,,,,,,182.34097420005128,183.3897382998839,183.3897382998839,183.3897382998839,183.3897382998839,183.3897382998839,183.3897382998839,183.3897382998839,183.3897382998839,None,0,,,C:\2023\REPSWITCH21092023\REPSWITCH_excgange\REPSWITCH_excgange\data/330101_REPSWITCH1_version1_list1_2023-12-11_16h27.05.564_micRespv1l1_recorded\recording_micRespv1l1_2023-12-11_16h30.05.661.wav,186.41101909987628,186.91109069995582,None,186.41101909987628,186.41101909987628,186.41101909987628,186.41101909987628,186.41101909987628,186.41101909987628,,,,,,330101,001,2023-12-11_16h27.05.564,REPSWITCH1_version1_list1,2022.2.4,143.9244460002626,
REPSWITCH1/PICTURE_517.png,cuerda,speak,gold,nontarget,2,NT,2,1,1,1,Stim4_Set2,1,repeat,36,35,36,0,35,35,35,,,,,,,,,,,,,,,,,,,,,,,186.91109069995582,188.056990200188,188.056990200188,188.056990200188,188.056990200188,188.056990200188,188.056990200188,188.056990200188,188.056990200188,None,0,,,C:\2023\REPSWITCH21092023\REPSWITCH_excgange\REPSWITCH_excgange\data/330101_REPSWITCH1_version1_list1_2023-12-11_16h27.05.564_micRespv1l1_recorded\recording_micRespv1l1_2023-12-11_16h30.10.328.wav,191.0782412001863,191.57828770019114,None,191.0782412001863,191.0782412001863,191.0782412001863,191.0782412001863,191.0782412001863,191.0782412001863,,,,,,330101,001,2023-12-11_16h27.05.564,REPSWITCH1_version1_list1,2022.2.4,143.9244460002626,
REPSWITCH1/PICTURE_517.png,cuerda,type,darkblue,switch,1,T,2,1,1,1,Stim4_Set2,0,None,37,36,37,0,36,36,36,,,,,,,,,,,,,,,,,,,,,,,191.57828770019114,192.69648220017552,192.69648220017552,192.69648220017552,192.69648220017552,192.69648220017552,192.69648220017552,192.69648220017552,192.69648220017552,"['c', 'u', 'e', 'r', 'd', 'a']",0,"[0.8221819000318646, 1.0254927002824843, 1.1654163002967834, 1.257123399991542, 1.544656400103122, 1.6184799000620842]",cuerda,C:\2023\REPSWITCH21092023\REPSWITCH_excgange\REPSWITCH_excgange\data/330101_REPSWITCH1_version1_list1_2023-12-11_16h27.05.564_micRespv1l1_recorded\recording_micRespv1l1_2023-12-11_16h30.14.968.wav,195.72468189988285,,None,195.72468189988285,195.72468189988285,195.72468189988285,195.72468189988285,195.72468189988285,195.72468189988285,,,,,,330101,001,2023-12-11_16h27.05.564,REPSWITCH1_version1_list1,2022.2.4,143.9244460002626,
REPSWITCH1/PICTURE_135.png,traje,type,darkblue,filler,1,F,2,1,1,1,Stim3_Set1,0,None,38,37,38,0,37,37,37,,,,,,,,,,,,,,,,,,,,,,,196.22474119998515,197.3568607000634,197.3568607000634,197.3568607000634,197.3568607000634,197.3568607000634,197.3568607000634,197.3568607000634,197.3568607000634,"['t', 'r', 'a', 'j', 'e']",0,"[0.9469947000034153, 1.0153386001475155, 1.2924641002900898, 1.4498807000927627, 1.5654214001260698]",traje,C:\2023\REPSWITCH21092023\REPSWITCH_excgange\REPSWITCH_excgange\data/330101_REPSWITCH1_version1_list1_2023-12-11_16h27.05.564_micRespv1l1_recorded\recording_micRespv1l1_2023-12-11_16h30.19.628.wav,200.37807200010866,200.87813370022923,None,200.37807200010866,200.37807200010866,200.37807200010866,200.37807200010866,200.37807200010866,200.37807200010866,,,,,,330101,001,2023-12-11_16h27.05.564,REPSWITCH1_version1_list1,2022.2.4,143.9244460002626,
REPSWITCH1/PICTURE_30.png,granja,type,darkblue,nontarget,1,NT,2,1,1,1,Stim5_Set2,1,repeat,39,38,39,0,38,38,38,,,,,,,,,,,,,,,,,,,,,,,200.87813370022923,202.10743799991906,202.10743799991906,202.10743799991906,202.10743799991906,202.10743799991906,202.10743799991906,202.10743799991906,202.10743799991906,"['g', 'r', 'a', 'n']",0,"[2.4816056001000106, 2.523998400196433, 2.755087799858302, 2.8946186997927725]",gran,C:\2023\REPSWITCH21092023\REPSWITCH_excgange\REPSWITCH_excgange\data/330101_REPSWITCH1_version1_list1_2023-12-11_16h27.05.564_micRespv1l1_recorded\recording_micRespv1l1_2023-12-11_16h30.24.379.wav,205.1356291002594,,None,205.1356291002594,205.1356291002594,205.1356291002594,205.1356291002594,205.1356291002594,205.1356291002594,,,,,,330101,001,2023-12-11_16h27.05.564,REPSWITCH1_version1_list1,2022.2.4,143.9244460002626,
REPSWITCH1/PICTURE_30.png,granja,speak,gold,switch,2,T,2,1,1,1,Stim5_Set2,0,None,40,39,40,0,39,39,39,,,,,,,,,,,,,,,,,,,,,,,205.63568670023233,206.7052706000395,206.7052706000395,206.7052706000395,206.7052706000395,206.7052706000395,206.7052706000395,206.7052706000395,206.7052706000395,None,0,,,C:\2023\REPSWITCH21092023\REPSWITCH_excgange\REPSWITCH_excgange\data/330101_REPSWITCH1_version1_list1_2023-12-11_16h27.05.564_micRespv1l1_recorded\recording_micRespv1l1_2023-12-11_16h30.28.977.wav,209.73343880008906,,None,209.73343880008906,209.73343880008906,209.73343880008906,209.73343880008906,209.73343880008906,209.73343880008906,,,,,,330101,001,2023-12-11_16h27.05.564,REPSWITCH1_version1_list1,2022.2.4,143.9244460002626,
REPSWITCH1/PICTURE_142.png,vaso,type,darkblue,filler,1,F,2,1,1,1,Stim7_Set1,0,None,41,40,41,0,40,40,40,,,,,,,,,,,,,,,,,,,,,,,210.23350059986115,211.30309509998187,211.30309509998187,211.30309509998187,211.30309509998187,211.30309509998187,211.30309509998187,211.30309509998187,211.30309509998187,"['v', 'a', 's', 'o']",0,"[0.820008700247854, 0.9137201001867652, 1.0244147004559636, 1.1658888002857566]",vaso,C:\2023\REPSWITCH21092023\REPSWITCH_excgange\REPSWITCH_excgange\data/330101_REPSWITCH1_version1_list1_2023-12-11_16h27.05.564_micRespv1l1_recorded\recording_micRespv1l1_2023-12-11_16h30.33.574.wav,214.33128669997677,,None,214.33128669997677,214.33128669997677,214.33128669997677,214.33128669997677,214.33128669997677,214.33128669997677,,,,,,330101,001,2023-12-11_16h27.05.564,REPSWITCH1_version1_list1,2022.2.4,143.9244460002626,
REPSWITCH1/PICTURE_19.png,pavo,speak,gold,filler,2,F,2,1,1,1,Stim5_Set1,1,switch,42,41,42,0,41,41,41,,,,,,,,,,,,,,,,,,,,,,,214.83134189993143,215.89398630009964,215.89398630009964,215.89398630009964,215.89398630009964,215.89398630009964,215.89398630009964,215.89398630009964,215.89398630009964,None,0,,,C:\2023\REPSWITCH21092023\REPSWITCH_excgange\REPSWITCH_excgange\data/330101_REPSWITCH1_version1_list1_2023-12-11_16h27.05.564_micRespv1l1_recorded\recording_micRespv1l1_2023-12-11_16h30.38.165.wav,218.9221634999849,219.42222920013592,None,218.9221634999849,218.9221634999849,218.9221634999849,218.9221634999849,218.9221634999849,218.9221634999849,,,,,,330101,001,2023-12-11_16h27.05.564,REPSWITCH1_version1_list1,2022.2.4,143.9244460002626,
REPSWITCH1/PICTURE_552.png,manzana,speak,gold,nontarget,2,NT,2,1,1,1,Stim6_Set2,1,repeat,43,42,43,0,42,42,42,,,,,,,,,,,,,,,,,,,,,,,219.42222920013592,220.51264719991013,220.51264719991013,220.51264719991013,220.51264719991013,220.51264719991013,220.51264719991013,220.51264719991013,220.51264719991013,None,0,,,C:\2023\REPSWITCH21092023\REPSWITCH_excgange\REPSWITCH_excgange\data/330101_REPSWITCH1_version1_list1_2023-12-11_16h27.05.564_micRespv1l1_recorded\recording_micRespv1l1_2023-12-11_16h30.42.785.wav,223.5408085999079,224.04089049994946,None,223.5408085999079,223.5408085999079,223.5408085999079,223.5408085999079,223.5408085999079,223.5408085999079,,,,,,330101,001,2023-12-11_16h27.05.564,REPSWITCH1_version1_list1,2022.2.4,143.9244460002626,
REPSWITCH1/PICTURE_552.png,manzana,speak,gold,repeat,2,T,2,1,1,1,Stim6_Set2,0,None,44,43,44,0,43,43,43,,,,,,,,,,,,,,,,,,,,,,,224.04089049994946,225.2354700001888,225.2354700001888,225.2354700001888,225.2354700001888,225.2354700001888,225.2354700001888,225.2354700001888,225.2354700001888,None,0,,,C:\2023\REPSWITCH21092023\REPSWITCH_excgange\REPSWITCH_excgange\data/330101_REPSWITCH1_version1_list1_2023-12-11_16h27.05.564_micRespv1l1_recorded\recording_micRespv1l1_2023-12-11_16h30.47.506.wav,228.2636653999798,,None,228.2636653999798,228.2636653999798,228.2636653999798,228.2636653999798,228.2636653999798,228.2636653999798,,,,,,330101,001,2023-12-11_16h27.05.564,REPSWITCH1_version1_list1,2022.2.4,143.9244460002626,
REPSWITCH1/PICTURE_16.png,cazador,type,darkblue,filler,1,F,2,1,1,1,Stim6_Set1,0,None,45,44,45,0,44,44,44,,,,,,,,,,,,,,,,,,,,,,,228.76372200017795,229.8055230998434,229.8055230998434,229.8055230998434,229.8055230998434,229.8055230998434,229.8055230998434,229.8055230998434,229.8055230998434,"['c', 'a', 'z', 'a', 'd', 'o', 'r']",0,"[0.8018633001483977, 0.8755566002801061, 1.5799840004183352, 1.7105442001484334, 1.842024200130254, 2.015477000270039, 2.093048700131476]",cazador,C:\2023\REPSWITCH21092023\REPSWITCH_excgange\REPSWITCH_excgange\data/330101_REPSWITCH1_version1_list1_2023-12-11_16h27.05.564_micRespv1l1_recorded\recording_micRespv1l1_2023-12-11_16h30.52.077.wav,232.8337154998444,,None,232.8337154998444,232.8337154998444,232.8337154998444,232.8337154998444,232.8337154998444,232.8337154998444,,,,,,330101,001,2023-12-11_16h27.05.564,REPSWITCH1_version1_list1,2022.2.4,143.9244460002626,
REPSWITCH1/PICTURE_446.png,cerdo,speak,gold,nontarget,2,NT,2,1,1,1,Stim7_Set2,1,switch,46,45,46,0,45,45,45,,,,,,,,,,,,,,,,,,,,,,,233.33377740019932,234.43810970010236,234.43810970010236,234.43810970010236,234.43810970010236,234.43810970010236,234.43810970010236,234.43810970010236,234.43810970010236,None,0,,,C:\2023\REPSWITCH21092023\REPSWITCH_excgange\REPSWITCH_excgange\data/330101_REPSWITCH1_version1_list1_2023-12-11_16h27.05.564_micRespv1l1_recorded\recording_micRespv1l1_2023-12-11_16h30.56.710.wav,237.46632750006393,,None,237.46632750006393,237.46632750006393,237.46632750006393,237.46632750006393,237.46632750006393,237.46632750006393,,,,,,330101,001,2023-12-11_16h27.05.564,REPSWITCH1_version1_list1,2022.2.4,143.9244460002626,
REPSWITCH1/PICTURE_446.png,cerdo,speak,gold,repeat,2,T,2,1,1,1,Stim7_Set2,0,None,47,46,47,0,46,46,46,,,,,,,,,,,,,,,,,,,,,,,237.96639780001715,239.08452240005136,239.08452240005136,239.08452240005136,239.08452240005136,239.08452240005136,239.08452240005136,239.08452240005136,239.08452240005136,None,0,,,C:\2023\REPSWITCH21092023\REPSWITCH_excgange\REPSWITCH_excgange\data/330101_REPSWITCH1_version1_list1_2023-12-11_16h27.05.564_micRespv1l1_recorded\recording_micRespv1l1_2023-12-11_16h31.01.356.wav,242.105766300112,242.60583519982174,None,242.105766300112,242.105766300112,242.105766300112,242.105766300112,242.105766300112,242.105766300112,,,,,,330101,001,2023-12-11_16h27.05.564,REPSWITCH1_version1_list1,2022.2.4,143.9244460002626,
REPSWITCH1/PICTURE_590.png,escoba,type,darkblue,filler,1,F,2,1,1,1,Extra3,0,None,48,47,48,0,47,47,47,,,,,,,,,,,,,,,,,,,,,,,242.60583519982174,243.7866031001322,243.7866031001322,243.7866031001322,243.7866031001322,243.7866031001322,243.7866031001322,243.7866031001322,243.7866031001322,"['e', 's', 'c', 'o', 'b', 'a']",0,"[1.1861815000884235, 1.4164355001412332, 1.8373314999043941, 1.9887757999822497, 2.362086799927056, 2.481896299868822]",escoba,C:\2023\REPSWITCH21092023\REPSWITCH_excgange\REPSWITCH_excgange\data/330101_REPSWITCH1_version1_list1_2023-12-11_16h27.05.564_micRespv1l1_recorded\recording_micRespv1l1_2023-12-11_16h31.06.058.wav,246.81471250019968,,None,246.81471250019968,246.81471250019968,246.81471250019968,246.81471250019968,246.81471250019968,246.81471250019968,,,,,,330101,001,2023-12-11_16h27.05.564,REPSWITCH1_version1_list1,2022.2.4,143.9244460002626,
REPSWITCH1/PICTURE_169.png,espalda,speak,gold,filler,2,F,2,1,1,1,Stim8_Set1,0,None,49,48,49,0,48,48,48,,,,,,,,,,,,,,,,,,,,,,,247.31477930024266,248.40527400001884,248.40527400001884,248.40527400001884,248.40527400001884,248.40527400001884,248.40527400001884,248.40527400001884,248.40527400001884,None,0,,,C:\2023\REPSWITCH21092023\REPSWITCH_excgange\REPSWITCH_excgange\data/330101_REPSWITCH1_version1_list1_2023-12-11_16h27.05.564_micRespv1l1_recorded\recording_micRespv1l1_2023-12-11_16h31.10.677.wav,251.43335120007396,,None,251.43335120007396,251.43335120007396,251.43335120007396,251.43335120007396,251.43335120007396,251.43335120007396,,,,,,330101,001,2023-12-11_16h27.05.564,REPSWITCH1_version1_list1,2022.2.4,143.9244460002626,
REPSWITCH1/PICTURE_199.png,falda,speak,gold,nontarget,2,NT,2,1,1,1,Stim8_Set2,1,repeat,50,49,50,0,49,49,49,,,,,,,,,,,,,,,,,,,,,,,251.93340450013056,253.01697180001065,253.01697180001065,253.01697180001065,253.01697180001065,253.01697180001065,253.01697180001065,253.01697180001065,253.01697180001065,None,0,,,C:\2023\REPSWITCH21092023\REPSWITCH_excgange\REPSWITCH_excgange\data/330101_REPSWITCH1_version1_list1_2023-12-11_16h27.05.564_micRespv1l1_recorded\recording_micRespv1l1_2023-12-11_16h31.15.289.wav,256.0381547999568,256.5382159999572,None,256.0381547999568,256.0381547999568,256.0381547999568,256.0381547999568,256.0381547999568,256.0381547999568,,,,,,330101,001,2023-12-11_16h27.05.564,REPSWITCH1_version1_list1,2022.2.4,143.9244460002626,
REPSWITCH1/PICTURE_199.png,falda,type,darkblue,switch,1,T,2,1,1,1,Stim8_Set2,0,None,51,50,51,0,50,50,50,,,,,,,,,,,,,,,,,,,,,,,256.5382159999572,257.6425287001766,257.6425287001766,257.6425287001766,257.6425287001766,257.6425287001766,257.6425287001766,257.6425287001766,257.6425287001766,"['f', 'a', 'l', 's', 'backspace', 'd', 'a']",0,"[0.906998900230974, 0.9906973000615835, 1.199062299914658, 1.3937530000694096, 1.8163780001923442, 1.9609623001888394, 2.0247305002994835]",falda,C:\2023\REPSWITCH21092023\REPSWITCH_excgange\REPSWITCH_excgange\data/330101_REPSWITCH1_version1_list1_2023-12-11_16h27.05.564_micRespv1l1_recorded\recording_micRespv1l1_2023-12-11_16h31.19.914.wav,260.67076489981264,,space,260.67076489981264,260.67076489981264,260.67076489981264,260.67076489981264,260.67076489981264,260.67076489981264,261.1707629999146,261.1707629999146,13.657605600077659,,,330101,001,2023-12-11_16h27.05.564,REPSWITCH1_version1_list1,2022.2.4,143.9244460002626,
REPSWITCH1/PICTURE_576.png,guante,type,darkblue,nontarget,1,NT,3,1,1,1,Stim1_Set3,0,None,52,51,52,0,51,51,51,,,,,,,,,,,,,,,,,,,,,,,274.8392218002118,275.99214569991454,275.99214569991454,275.99214569991454,275.99214569991454,275.99214569991454,275.99214569991454,275.99214569991454,275.99214569991454,"['g', 'u', 'a', 'n', 't', 'e']",0,"[1.2192903002724051, 1.2940296004526317, 1.4126311000436544, 1.6777482004836202, 1.7141102002933621, 1.8186401003040373]",guante,C:\2023\REPSWITCH21092023\REPSWITCH_excgange\REPSWITCH_excgange\data/330101_REPSWITCH1_version1_list1_2023-12-11_16h27.05.564_micRespv1l1_recorded\recording_micRespv1l1_2023-12-11_16h31.38.263.wav,279.0133501002565,279.5134569001384,None,279.0133501002565,279.0133501002565,279.0133501002565,279.0133501002565,279.0133501002565,279.0133501002565,,,,,,330101,001,2023-12-11_16h27.05.564,REPSWITCH1_version1_list1,2022.2.4,143.9244460002626,
REPSWITCH1/PICTURE_576.png,guante,speak,gold,switch,2,T,3,1,1,1,Stim1_Set3,0,None,53,52,53,0,52,52,52,,,,,,,,,,,,,,,,,,,,,,,279.5134569001384,280.5899804001674,280.5899804001674,280.5899804001674,280.5899804001674,280.5899804001674,280.5899804001674,280.5899804001674,280.5899804001674,None,0,,,C:\2023\REPSWITCH21092023\REPSWITCH_excgange\REPSWITCH_excgange\data/330101_REPSWITCH1_version1_list1_2023-12-11_16h27.05.564_micRespv1l1_recorded\recording_micRespv1l1_2023-12-11_16h31.42.862.wav,283.6181518002413,,None,283.6181518002413,283.6181518002413,283.6181518002413,283.6181518002413,283.6181518002413,283.6181518002413,,,,,,330101,001,2023-12-11_16h27.05.564,REPSWITCH1_version1_list1,2022.2.4,143.9244460002626,
REPSWITCH1/PICTURE_646.png,tronco,speak,gold,filler,2,F,3,1,1,1,Extra4,0,None,54,53,54,0,53,53,53,,,,,,,,,,,,,,,,,,,,,,,284.1182182999328,285.2155891000293,285.2155891000293,285.2155891000293,285.2155891000293,285.2155891000293,285.2155891000293,285.2155891000293,285.2155891000293,None,0,,,C:\2023\REPSWITCH21092023\REPSWITCH_excgange\REPSWITCH_excgange\data/330101_REPSWITCH1_version1_list1_2023-12-11_16h27.05.564_micRespv1l1_recorded\recording_micRespv1l1_2023-12-11_16h31.47.488.wav,288.24383099982515,,None,288.24383099982515,288.24383099982515,288.24383099982515,288.24383099982515,288.24383099982515,288.24383099982515,,,,,,330101,001,2023-12-11_16h27.05.564,REPSWITCH1_version1_list1,2022.2.4,143.9244460002626,
REPSWITCH1/PICTURE_610.png,miel,speak,gold,nontarget,2,NT,3,1,1,1,Stim2_Set3,1,repeat,55,54,55,0,54,54,54,,,,,,,,,,,,,,,,,,,,,,,288.74383229995146,289.8065279000439,289.8065279000439,289.8065279000439,289.8065279000439,289.8065279000439,289.8065279000439,289.8065279000439,289.8065279000439,None,0,,,C:\2023\REPSWITCH21092023\REPSWITCH_excgange\REPSWITCH_excgange\data/330101_REPSWITCH1_version1_list1_2023-12-11_16h27.05.564_micRespv1l1_recorded\recording_micRespv1l1_2023-12-11_16h31.52.078.wav,292.8276593000628,293.32776140002534,None,292.8276593000628,292.8276593000628,292.8276593000628,292.8276593000628,292.8276593000628,292.8276593000628,,,,,,330101,001,2023-12-11_16h27.05.564,REPSWITCH1_version1_list1,2022.2.4,143.9244460002626,
REPSWITCH1/PICTURE_610.png,miel,type,darkblue,switch,1,T,3,1,1,1,Stim2_Set3,0,None,56,55,56,0,55,55,55,,,,,,,,,,,,,,,,,,,,,,,293.32776140002534,294.38351870002225,294.38351870002225,294.38351870002225,294.38351870002225,294.38351870002225,294.38351870002225,294.38351870002225,294.38351870002225,"['m', 'i', 'e', 'l']",0,"[0.9847336001694202, 1.035561400000006, 1.1412263000383973, 1.2767333001829684]",miel,C:\2023\REPSWITCH21092023\REPSWITCH_excgange\REPSWITCH_excgange\data/330101_REPSWITCH1_version1_list1_2023-12-11_16h27.05.564_micRespv1l1_recorded\recording_micRespv1l1_2023-12-11_16h31.56.655.wav,297.411611800082,,None,297.411611800082,297.411611800082,297.411611800082,297.411611800082,297.411611800082,297.411611800082,,,,,,330101,001,2023-12-11_16h27.05.564,REPSWITCH1_version1_list1,2022.2.4,143.9244460002626,
REPSWITCH1/PICTURE_175.png,pintor,type,darkblue,filler,1,F,3,1,1,1,Stim1_Set2,1,repeat,57,56,57,0,56,56,56,,,,,,,,,,,,,,,,,,,,,,,297.9117024000734,298.9812802001834,298.9812802001834,298.9812802001834,298.9812802001834,298.9812802001834,298.9812802001834,298.9812802001834,298.9812802001834,"['p', 'i', 'n', 't', 'o', 'r']",0,"[1.0094493003562093, 1.1381031004711986, 1.2616270002909005, 1.3523282003588974, 1.4420135002583265, 1.581544800195843]",pintor,C:\2023\REPSWITCH21092023\REPSWITCH_excgange\REPSWITCH_excgange\data/330101_REPSWITCH1_version1_list1_2023-12-11_16h27.05.564_micRespv1l1_recorded\recording_micRespv1l1_2023-12-11_16h32.01.253.wav,302.0094992998056,,None,302.0094992998056,302.0094992998056,302.0094992998056,302.0094992998056,302.0094992998056,302.0094992998056,,,,,,330101,001,2023-12-11_16h27.05.564,REPSWITCH1_version1_list1,2022.2.4,143.9244460002626,
REPSWITCH1/PICTURE_242.png,cartero,type,darkblue,nontarget,1,NT,3,1,1,1,Stim3_Set3,1,repeat,58,57,58,0,57,57,57,,,,,,,,,,,,,,,,,,,,,,,302.50949880015105,303.68335410021245,303.68335410021245,303.68335410021245,303.68335410021245,303.68335410021245,303.68335410021245,303.68335410021245,303.68335410021245,"['c', 'a', 'r', 't', 'e', 'r', 'o']",0,"[0.8380014998838305, 0.9182251002639532, 1.1085884999483824, 1.3458014000207186, 1.4773563002236187, 1.7718159998767078, 2.099044300150126]",cartero,C:\2023\REPSWITCH21092023\REPSWITCH_excgange\REPSWITCH_excgange\data/330101_REPSWITCH1_version1_list1_2023-12-11_16h27.05.564_micRespv1l1_recorded\recording_micRespv1l1_2023-12-11_16h32.05.955.wav,306.7114377999678,,None,306.7114377999678,306.7114377999678,306.7114377999678,306.7114377999678,306.7114377999678,306.7114377999678,,,,,,330101,001,2023-12-11_16h27.05.564,REPSWITCH1_version1_list1,2022.2.4,143.9244460002626,
REPSWITCH1/PICTURE_242.png,cartero,speak,gold,switch,2,T,3,1,1,1,Stim3_Set3,0,None,59,58,59,0,58,58,58,,,,,,,,,,,,,,,,,,,,,,,307.2115779002197,308.28117770003155,308.28117770003155,308.28117770003155,308.28117770003155,308.28117770003155,308.28117770003155,308.28117770003155,308.28117770003155,None,0,,,C:\2023\REPSWITCH21092023\REPSWITCH_excgange\REPSWITCH_excgange\data/330101_REPSWITCH1_version1_list1_2023-12-11_16h27.05.564_micRespv1l1_recorded\recording_micRespv1l1_2023-12-11_16h32.10.552.wav,311.30232240026817,311.80237590009347,None,311.30232240026817,311.30232240026817,311.30232240026817,311.30232240026817,311.30232240026817,311.30232240026817,,,,,,330101,001,2023-12-11_16h27.05.564,REPSWITCH1_version1_list1,2022.2.4,143.9244460002626,
REPSWITCH1/PICTURE_152.png,caracol,speak,gold,filler,2,F,3,1,1,1,Stim2_Set2,0,None,60,59,60,0,59,59,59,,,,,,,,,,,,,,,,,,,,,,,311.80237590009347,312.91373230004683,312.91373230004683,312.91373230004683,312.91373230004683,312.91373230004683,312.91373230004683,312.91373230004683,312.91373230004683,None,0,,,C:\2023\REPSWITCH21092023\REPSWITCH_excgange\REPSWITCH_excgange\data/330101_REPSWITCH1_version1_list1_2023-12-11_16h27.05.564_micRespv1l1_recorded\recording_micRespv1l1_2023-12-11_16h32.15.186.wav,315.9418442999013,,None,315.9418442999013,315.9418442999013,315.9418442999013,315.9418442999013,315.9418442999013,315.9418442999013,,,,,,330101,001,2023-12-11_16h27.05.564,REPSWITCH1_version1_list1,2022.2.4,143.9244460002626,
REPSWITCH1/PICTURE_517.png,cuerda,type,darkblue,filler,1,F,3,1,1,1,Stim4_Set2,0,None,61,60,61,0,60,60,60,,,,,,,,,,,,,,,,,,,,,,,316.44191170018166,317.52535670017824,317.52535670017824,317.52535670017824,317.52535670017824,317.52535670017824,317.52535670017824,317.52535670017824,317.52535670017824,"['c', 'u', 'e', 'r', 'd', 'a']",0,"[0.7805525003932416, 0.9938296005129814, 1.1044754004105926, 1.1582853002473712, 1.4187733004800975, 1.5313981003127992]",cuerda,C:\2023\REPSWITCH21092023\REPSWITCH_excgange\REPSWITCH_excgange\data/330101_REPSWITCH1_version1_list1_2023-12-11_16h27.05.564_micRespv1l1_recorded\recording_micRespv1l1_2023-12-11_16h32.19.796.wav,320.5466828998178,321.04666930017993,None,320.5466828998178,320.5466828998178,320.5466828998178,320.5466828998178,320.5466828998178,320.5466828998178,,,,,,330101,001,2023-12-11_16h27.05.564,REPSWITCH1_version1_list1,2022.2.4,143.9244460002626,
REPSWITCH1/PICTURE_235.png,aguja,speak,gold,nontarget,2,NT,3,1,1,1,Stim4_Set3,1,switch,62,61,62,0,61,61,61,,,,,,,,,,,,,,,,,,,,,,,321.04666930017993,322.12319510011,322.12319510011,322.12319510011,322.12319510011,322.12319510011,322.12319510011,322.12319510011,322.12319510011,None,0,,,C:\2023\REPSWITCH21092023\REPSWITCH_excgange\REPSWITCH_excgange\data/330101_REPSWITCH1_version1_list1_2023-12-11_16h27.05.564_micRespv1l1_recorded\recording_micRespv1l1_2023-12-11_16h32.24.394.wav,325.14441480021924,325.6445553000085,None,325.14441480021924,325.14441480021924,325.14441480021924,325.14441480021924,325.14441480021924,325.14441480021924,,,,,,330101,001,2023-12-11_16h27.05.564,REPSWITCH1_version1_list1,2022.2.4,143.9244460002626,
REPSWITCH1/PICTURE_235.png,aguja,speak,gold,repeat,2,T,3,1,1,1,Stim4_Set3,0,None,63,62,63,0,62,62,62,,,,,,,,,,,,,,,,,,,,,,,325.6445553000085,326.79744170000777,326.79744170000777,326.79744170000777,326.79744170000777,326.79744170000777,326.79744170000777,326.79744170000777,326.79744170000777,None,0,,,C:\2023\REPSWITCH21092023\REPSWITCH_excgange\REPSWITCH_excgange\data/330101_REPSWITCH1_version1_list1_2023-12-11_16h27.05.564_micRespv1l1_recorded\recording_micRespv1l1_2023-12-11_16h32.29.069.wav,329.81864520022646,330.31873429985717,None,329.81864520022646,329.81864520022646,329.81864520022646,329.81864520022646,329.81864520022646,329.81864520022646,,,,,,330101,001,2023-12-11_16h27.05.564,REPSWITCH1_version1_list1,2022.2.4,143.9244460002626,
REPSWITCH1/PICTURE_30.png,granja,type,darkblue,filler,1,F,3,1,1,1,Stim5_Set2,0,None,64,63,64,0,63,63,63,,,,,,,,,,,,,,,,,,,,,,,330.31873429985717,331.3882984002121,331.3882984002121,331.3882984002121,331.3882984002121,331.3882984002121,331.3882984002121,331.3882984002121,331.3882984002121,"['g', 'r', 'r', 't', 'backspace', 'backspace', 'a', 'n', 'j', 'a']",0,"[0.9907370000146329, 1.1232822998426855, 1.1452024998143315, 1.146181299816817, 1.7050252999179065, 2.0217980998568237, 2.206987800076604, 2.3718872000463307, 2.548612200189382, 2.6876019998453557]",granja,C:\2023\REPSWITCH21092023\REPSWITCH_excgange\REPSWITCH_excgange\data/330101_REPSWITCH1_version1_list1_2023-12-11_16h27.05.564_micRespv1l1_recorded\recording_micRespv1l1_2023-12-11_16h32.33.660.wav,334.41646420024335,,None,334.41646420024335,334.41646420024335,334.41646420024335,334.41646420024335,334.41646420024335,334.41646420024335,,,,,,330101,001,2023-12-11_16h27.05.564,REPSWITCH1_version1_list1,2022.2.4,143.9244460002626,
REPSWITCH1/PICTURE_552.png,manzana,speak,gold,filler,2,F,3,1,1,1,Stim6_Set2,1,switch,65,64,65,0,64,64,64,,,,,,,,,,,,,,,,,,,,,,,334.91651709983125,335.9583348999731,335.9583348999731,335.9583348999731,335.9583348999731,335.9583348999731,335.9583348999731,335.9583348999731,335.9583348999731,None,0,,,C:\2023\REPSWITCH21092023\REPSWITCH_excgange\REPSWITCH_excgange\data/330101_REPSWITCH1_version1_list1_2023-12-11_16h27.05.564_micRespv1l1_recorded\recording_micRespv1l1_2023-12-11_16h32.38.230.wav,338.9865097999573,,None,338.9865097999573,338.9865097999573,338.9865097999573,338.9865097999573,338.9865097999573,338.9865097999573,,,,,,330101,001,2023-12-11_16h27.05.564,REPSWITCH1_version1_list1,2022.2.4,143.9244460002626,
REPSWITCH1/PICTURE_35.png,oreja,speak,gold,nontarget,2,NT,3,1,1,1,Stim5_Set3,1,repeat,66,65,66,0,65,65,65,,,,,,,,,,,,,,,,,,,,,,,339.4866777998395,340.6326210000552,340.6326210000552,340.6326210000552,340.6326210000552,340.6326210000552,340.6326210000552,340.6326210000552,340.6326210000552,None,0,,,C:\2023\REPSWITCH21092023\REPSWITCH_excgange\REPSWITCH_excgange\data/330101_REPSWITCH1_version1_list1_2023-12-11_16h27.05.564_micRespv1l1_recorded\recording_micRespv1l1_2023-12-11_16h32.42.904.wav,343.66074840025976,344.1608211998828,None,343.66074840025976,343.66074840025976,343.66074840025976,343.66074840025976,343.66074840025976,343.66074840025976,,,,,,330101,001,2023-12-11_16h27.05.564,REPSWITCH1_version1_list1,2022.2.4,143.9244460002626,
REPSWITCH1/PICTURE_35.png,oreja,speak,gold,repeat,2,T,3,1,1,1,Stim5_Set3,0,None,67,66,67,0,66,66,66,,,,,,,,,,,,,,,,,,,,,,,344.1608211998828,345.32763249985874,345.32763249985874,345.32763249985874,345.32763249985874,345.32763249985874,345.32763249985874,345.32763249985874,345.32763249985874,None,0,,,C:\2023\REPSWITCH21092023\REPSWITCH_excgange\REPSWITCH_excgange\data/330101_REPSWITCH1_version1_list1_2023-12-11_16h27.05.564_micRespv1l1_recorded\recording_micRespv1l1_2023-12-11_16h32.47.599.wav,348.3488779999316,348.84892639983445,None,348.3488779999316,348.3488779999316,348.3488779999316,348.3488779999316,348.3488779999316,348.3488779999316,,,,,,330101,001,2023-12-11_16h27.05.564,REPSWITCH1_version1_list1,2022.2.4,143.9244460002626,
REPSWITCH1/PICTURE_673.png,tenedor,type,darkblue,filler,1,F,3,1,1,1,Extra5,0,None,68,67,68,0,67,67,67,,,,,,,,,,,,,,,,,,,,,,,348.84892639983445,349.98105459986255,349.98105459986255,349.98105459986255,349.98105459986255,349.98105459986255,349.98105459986255,349.98105459986255,349.98105459986255,"['t', 'e', 'n', 'e', 'd', 'o', 'r']",0,"[0.9393521999008954, 1.024079800117761, 1.1486714999191463, 1.2702721999958158, 1.4357074000872672, 1.5642694002017379, 1.7067960002459586]",tenedor,C:\2023\REPSWITCH21092023\REPSWITCH_excgange\REPSWITCH_excgange\data/330101_REPSWITCH1_version1_list1_2023-12-11_16h27.05.564_micRespv1l1_recorded\recording_micRespv1l1_2023-12-11_16h32.52.252.wav,353.0092191998847,,None,353.0092191998847,353.0092191998847,353.0092191998847,353.0092191998847,353.0092191998847,353.0092191998847,,,,,,330101,001,2023-12-11_16h27.05.564,REPSWITCH1_version1_list1,2022.2.4,143.9244460002626,
REPSWITCH1/PICTURE_464.png,goma,speak,gold,nontarget,2,NT,3,1,1,1,Stim6_Set3,0,None,69,68,69,0,68,68,68,,,,,,,,,,,,,,,,,,,,,,,353.50934020010754,354.55106060020626,354.55106060020626,354.55106060020626,354.55106060020626,354.55106060020626,354.55106060020626,354.55106060020626,354.55106060020626,None,0,,,C:\2023\REPSWITCH21092023\REPSWITCH_excgange\REPSWITCH_excgange\data/330101_REPSWITCH1_version1_list1_2023-12-11_16h27.05.564_micRespv1l1_recorded\recording_micRespv1l1_2023-12-11_16h32.56.822.wav,357.5792288999073,,None,357.5792288999073,357.5792288999073,357.5792288999073,357.5792288999073,357.5792288999073,357.5792288999073,,,,,,330101,001,2023-12-11_16h27.05.564,REPSWITCH1_version1_list1,2022.2.4,143.9244460002626,
REPSWITCH1/PICTURE_464.png,goma,type,darkblue,switch,1,T,3,1,1,1,Stim6_Set3,0,None,70,69,70,0,69,69,69,,,,,,,,,,,,,,,,,,,,,,,358.079309000168,359.19754750002176,359.19754750002176,359.19754750002176,359.19754750002176,359.19754750002176,359.19754750002176,359.19754750002176,359.19754750002176,"['g', 'o', 'm', 'a']",0,"[0.9890490001998842, 1.1594694000668824, 1.2665813998319209, 1.3483841000124812]",goma,C:\2023\REPSWITCH21092023\REPSWITCH_excgange\REPSWITCH_excgange\data/330101_REPSWITCH1_version1_list1_2023-12-11_16h27.05.564_micRespv1l1_recorded\recording_micRespv1l1_2023-12-11_16h33.01.469.wav,362.2187409000471,362.7188152000308,None,362.2187409000471,362.2187409000471,362.2187409000471,362.2187409000471,362.2187409000471,362.2187409000471,,,,,,330101,001,2023-12-11_16h27.05.564,REPSWITCH1_version1_list1,2022.2.4,143.9244460002626,
REPSWITCH1/PICTURE_264.png,mano,speak,gold,filler,2,F,3,1,1,1,Stim3_Set2,0,None,71,70,71,0,70,70,70,,,,,,,,,,,,,,,,,,,,,,,362.7188152000308,363.85786860017106,363.85786860017106,363.85786860017106,363.85786860017106,363.85786860017106,363.85786860017106,363.85786860017106,363.85786860017106,None,0,,,C:\2023\REPSWITCH21092023\REPSWITCH_excgange\REPSWITCH_excgange\data/330101_REPSWITCH1_version1_list1_2023-12-11_16h27.05.564_micRespv1l1_recorded\recording_micRespv1l1_2023-12-11_16h33.06.129.wav,366.8861281001009,,None,366.8861281001009,366.8861281001009,366.8861281001009,366.8861281001009,366.8861281001009,366.8861281001009,,,,,,330101,001,2023-12-11_16h27.05.564,REPSWITCH1_version1_list1,2022.2.4,143.9244460002626,
REPSWITCH1/PICTURE_271.png,conejo,type,darkblue,nontarget,1,NT,3,1,1,1,Stim7_Set3,1,switch,72,71,72,0,71,71,71,,,,,,,,,,,,,,,,,,,,,,,367.38610030012205,368.42789669986814,368.42789669986814,368.42789669986814,368.42789669986814,368.42789669986814,368.42789669986814,368.42789669986814,368.42789669986814,"['c', 'o', 'n', 'e', 'j', 'o']",0,"[0.9662839998491108, 1.0829456998035312, 1.2154044001363218, 1.322074799798429, 1.4516186001710594, 1.538344199769199]",conejo,C:\2023\REPSWITCH21092023\REPSWITCH_excgange\REPSWITCH_excgange\data/330101_REPSWITCH1_version1_list1_2023-12-11_16h27.05.564_micRespv1l1_recorded\recording_micRespv1l1_2023-12-11_16h33.10.699.wav,371.4491079999134,371.9491953998804,None,371.4491079999134,371.4491079999134,371.4491079999134,371.4491079999134,371.4491079999134,371.4491079999134,,,,,,330101,001,2023-12-11_16h27.05.564,REPSWITCH1_version1_list1,2022.2.4,143.9244460002626,
REPSWITCH1/PICTURE_271.png,conejo,type,darkblue,repeat,1,T,3,1,1,1,Stim7_Set3,0,None,73,72,73,0,72,72,72,,,,,,,,,,,,,,,,,,,,,,,371.9491953998804,373.1229440001771,373.1229440001771,373.1229440001771,373.1229440001771,373.1229440001771,373.1229440001771,373.1229440001771,373.1229440001771,"['c', 'o', 'n', 'e', 'j', 'o']",0,"[0.9550588000565767, 1.0826278999447823, 1.193257899954915, 1.3148504002019763, 1.4513643002137542, 1.5500742997974157]",conejo,C:\2023\REPSWITCH21092023\REPSWITCH_excgange\REPSWITCH_excgange\data/330101_REPSWITCH1_version1_list1_2023-12-11_16h27.05.564_micRespv1l1_recorded\recording_micRespv1l1_2023-12-11_16h33.15.394.wav,376.1510955998674,,None,376.1510955998674,376.1510955998674,376.1510955998674,376.1510955998674,376.1510955998674,376.1510955998674,,,,,,330101,001,2023-12-11_16h27.05.564,REPSWITCH1_version1_list1,2022.2.4,143.9244460002626,
REPSWITCH1/PICTURE_446.png,cerdo,speak,gold,filler,2,F,3,1,1,1,Stim7_Set2,0,None,74,73,74,0,73,73,73,,,,,,,,,,,,,,,,,,,,,,,376.65118840010837,377.74160510022193,377.74160510022193,377.74160510022193,377.74160510022193,377.74160510022193,377.74160510022193,377.74160510022193,377.74160510022193,None,0,,,C:\2023\REPSWITCH21092023\REPSWITCH_excgange\REPSWITCH_excgange\data/330101_REPSWITCH1_version1_list1_2023-12-11_16h27.05.564_micRespv1l1_recorded\recording_micRespv1l1_2023-12-11_16h33.20.013.wav,380.7698046998121,,None,380.7698046998121,380.7698046998121,380.7698046998121,380.7698046998121,380.7698046998121,380.7698046998121,,,,,,330101,001,2023-12-11_16h27.05.564,REPSWITCH1_version1_list1,2022.2.4,143.9244460002626,
REPSWITCH1/PICTURE_199.png,falda,type,darkblue,filler,1,F,3,1,1,1,Stim8_Set2,1,switch,75,74,75,0,74,74,74,,,,,,,,,,,,,,,,,,,,,,,381.269927599933,382.415915499907,382.415915499907,382.415915499907,382.415915499907,382.415915499907,382.415915499907,382.415915499907,382.415915499907,"['f', 'a', 'l', 'd', 'a']",0,"[0.8796665002591908, 0.9856367004103959, 1.159602700266987, 1.3160923002287745, 1.4087794004008174]",falda,C:\2023\REPSWITCH21092023\REPSWITCH_excgange\REPSWITCH_excgange\data/330101_REPSWITCH1_version1_list1_2023-12-11_16h27.05.564_micRespv1l1_recorded\recording_micRespv1l1_2023-12-11_16h33.24.687.wav,385.4370869002305,385.93713020021096,None,385.4370869002305,385.4370869002305,385.4370869002305,385.4370869002305,385.4370869002305,385.4370869002305,,,,,,330101,001,2023-12-11_16h27.05.564,REPSWITCH1_version1_list1,2022.2.4,143.9244460002626,
REPSWITCH1/PICTURE_320.png,iglesia,type,darkblue,nontarget,1,NT,3,1,1,1,Stim8_Set3,1,repeat,76,75,76,0,75,75,75,,,,,,,,,,,,,,,,,,,,,,,385.93713020021096,387.0483956998214,387.0483956998214,387.0483956998214,387.0483956998214,387.0483956998214,387.0483956998214,387.0483956998214,387.0483956998214,"['i', 'g', 'l', 'e', 's', 'i', 'a']",0,"[1.1258261003531516, 1.2913726000115275, 1.435848300345242, 1.5704067000187933, 1.7548897000961006, 1.8602421004325151, 2.0110037000849843]",iglesia,C:\2023\REPSWITCH21092023\REPSWITCH_excgange\REPSWITCH_excgange\data/330101_REPSWITCH1_version1_list1_2023-12-11_16h27.05.564_micRespv1l1_recorded\recording_micRespv1l1_2023-12-11_16h33.29.320.wav,390.0765702999197,,None,390.0765702999197,390.0765702999197,390.0765702999197,390.0765702999197,390.0765702999197,390.0765702999197,,,,,,330101,001,2023-12-11_16h27.05.564,REPSWITCH1_version1_list1,2022.2.4,143.9244460002626,
REPSWITCH1/PICTURE_320.png,iglesia,type,darkblue,repeat,1,T,3,1,1,1,Stim8_Set3,0,None,77,76,77,0,76,76,76,,,,,,,,,,,,,,,,,,,,,,,390.576641399879,391.71570600010455,391.71570600010455,391.71570600010455,391.71570600010455,391.71570600010455,391.71570600010455,391.71570600010455,391.71570600010455,"['i', 'g', 'l', 'e', 's', 'i', 'a']",0,"[0.9906421001069248, 1.1047231000848114, 1.356918300036341, 1.5735232001170516, 1.798652600031346, 1.9066309002228081, 2.112948799971491]",iglesia,C:\2023\REPSWITCH21092023\REPSWITCH_excgange\REPSWITCH_excgange\data/330101_REPSWITCH1_version1_list1_2023-12-11_16h27.05.564_micRespv1l1_recorded\recording_micRespv1l1_2023-12-11_16h33.33.988.wav,394.74388199998066,,None,394.74388199998066,394.74388199998066,394.74388199998066,394.74388199998066,394.74388199998066,394.74388199998066,,,,,,330101,001,2023-12-11_16h27.05.564,REPSWITCH1_version1_list1,2022.2.4,143.9244460002626,
REPSWITCH1/PICTURE_576.png,guante,speak,gold,filler,2,F,4,1,1,1,Stim1_Set3,0,None,78,77,78,0,77,77,77,,,,,,,,,,,,,,,,,,,,,,,395.2439207001589,396.3413483998738,396.3413483998738,396.3413483998738,396.3413483998738,396.3413483998738,396.3413483998738,396.3413483998738,396.3413483998738,None,0,,,C:\2023\REPSWITCH21092023\REPSWITCH_excgange\REPSWITCH_excgange\data/330101_REPSWITCH1_version1_list1_2023-12-11_16h27.05.564_micRespv1l1_recorded\recording_micRespv1l1_2023-12-11_16h33.38.613.wav,399.3694414999336,,None,399.3694414999336,399.3694414999336,399.3694414999336,399.3694414999336,399.3694414999336,399.3694414999336,,,,,,330101,001,2023-12-11_16h27.05.564,REPSWITCH1_version1_list1,2022.2.4,143.9244460002626,
REPSWITCH1/PICTURE_319.png,vaca,type,darkblue,nontarget,1,NT,4,1,1,1,Stim1_Set4,1,switch,79,78,79,0,78,78,78,,,,,,,,,,,,,,,,,,,,,,,399.8695757999085,400.96002520015463,400.96002520015463,400.96002520015463,400.96002520015463,400.96002520015463,400.96002520015463,400.96002520015463,400.96002520015463,"['v', 'a', 'c', 'a']",0,"[0.9017378999851644, 1.0066901999525726, 1.1545150000602007, 1.2881112000904977]",vaca,C:\2023\REPSWITCH21092023\REPSWITCH_excgange\REPSWITCH_excgange\data/330101_REPSWITCH1_version1_list1_2023-12-11_16h27.05.564_micRespv1l1_recorded\recording_micRespv1l1_2023-12-11_16h33.43.232.wav,403.98124270001426,404.4812415000051,None,403.98124270001426,403.98124270001426,403.98124270001426,403.98124270001426,403.98124270001426,403.98124270001426,,,,,,330101,001,2023-12-11_16h27.05.564,REPSWITCH1_version1_list1,2022.2.4,143.9244460002626,
REPSWITCH1/PICTURE_319.png,vaca,type,darkblue,repeat,1,T,4,1,1,1,Stim1_Set4,0,None,80,79,80,0,79,79,79,,,,,,,,,,,,,,,,,,,,,,,404.4812415000051,405.6342012998648,405.6342012998648,405.6342012998648,405.6342012998648,405.6342012998648,405.6342012998648,405.6342012998648,405.6342012998648,"['v', 'a', 'c', 'a']",0,"[0.7346655004657805, 0.8300227001309395, 0.9815103001892567, 1.1220465004444122]",vaca,C:\2023\REPSWITCH21092023\REPSWITCH_excgange\REPSWITCH_excgange\data/330101_REPSWITCH1_version1_list1_2023-12-11_16h27.05.564_micRespv1l1_recorded\recording_micRespv1l1_2023-12-11_16h33.47.906.wav,408.66232859995216,409.16238659992814,None,408.66232859995216,408.66232859995216,408.66232859995216,408.66232859995216,408.66232859995216,408.66232859995216,,,,,,330101,001,2023-12-11_16h27.05.564,REPSWITCH1_version1_list1,2022.2.4,143.9244460002626,
REPSWITCH1/PICTURE_719.png,baño,type,darkblue,nontarget,1,NT,4,1,1,1,Stim2_Set4,0,None,81,80,81,0,80,80,80,,,,,,,,,,,,,,,,,,,,,,,409.16238659992814,410.2250363002531,410.2250363002531,410.2250363002531,410.2250363002531,410.2250363002531,410.2250363002531,410.2250363002531,410.2250363002531,"['b', 'a', 'ñ', 'o']",0,"[0.9686738001182675, 1.052346299868077, 1.3359169997274876, 1.7619272000156343]",baño,C:\2023\REPSWITCH21092023\REPSWITCH_excgange\REPSWITCH_excgange\data/330101_REPSWITCH1_version1_list1_2023-12-11_16h27.05.564_micRespv1l1_recorded\recording_micRespv1l1_2023-12-11_16h33.52.496.wav,413.2462853002362,413.74640280008316,None,413.2462853002362,413.2462853002362,413.2462853002362,413.2462853002362,413.2462853002362,413.2462853002362,,,,,,330101,001,2023-12-11_16h27.05.564,REPSWITCH1_version1_list1,2022.2.4,143.9244460002626,
REPSWITCH1/PICTURE_719.png,baño,speak,gold,switch,2,T,4,1,1,1,Stim2_Set4,0,None,82,81,82,0,81,81,81,,,,,,,,,,,,,,,,,,,,,,,413.74640280008316,414.8784262002446,414.8784262002446,414.8784262002446,414.8784262002446,414.8784262002446,414.8784262002446,414.8784262002446,414.8784262002446,None,0,,,C:\2023\REPSWITCH21092023\REPSWITCH_excgange\REPSWITCH_excgange\data/330101_REPSWITCH1_version1_list1_2023-12-11_16h27.05.564_micRespv1l1_recorded\recording_micRespv1l1_2023-12-11_16h33.57.151.wav,417.90661679999903,,None,417.90661679999903,417.90661679999903,417.90661679999903,417.90661679999903,417.90661679999903,417.90661679999903,,,,,,330101,001,2023-12-11_16h27.05.564,REPSWITCH1_version1_list1,2022.2.4,143.9244460002626,
REPSWITCH1/PICTURE_242.png,cartero,speak,gold,filler,2,F,4,1,1,1,Stim3_Set3,1,repeat,83,82,83,0,82,82,82,,,,,,,,,,,,,,,,,,,,,,,418.40668330015615,419.462354300078,419.462354300078,419.462354300078,419.462354300078,419.462354300078,419.462354300078,419.462354300078,419.462354300078,None,0,,,C:\2023\REPSWITCH21092023\REPSWITCH_excgange\REPSWITCH_excgange\data/330101_REPSWITCH1_version1_list1_2023-12-11_16h27.05.564_micRespv1l1_recorded\recording_micRespv1l1_2023-12-11_16h34.01.734.wav,422.4836126002483,422.9836744000204,None,422.4836126002483,422.4836126002483,422.4836126002483,422.4836126002483,422.4836126002483,422.4836126002483,,,,,,330101,001,2023-12-11_16h27.05.564,REPSWITCH1_version1_list1,2022.2.4,143.9244460002626,
REPSWITCH1/PICTURE_610.png,miel,type,darkblue,filler,1,F,4,1,1,1,Stim2_Set3,0,None,84,83,84,0,83,83,83,,,,,,,,,,,,,,,,,,,,,,,422.9836744000204,424.17829990014434,424.17829990014434,424.17829990014434,424.17829990014434,424.17829990014434,424.17829990014434,424.17829990014434,424.17829990014434,"['m', 'i', 'e', 'l']",0,"[0.9989348002709448, 1.0378324002958834, 1.1913873003795743, 1.305976700503379]",miel,C:\2023\REPSWITCH21092023\REPSWITCH_excgange\REPSWITCH_excgange\data/330101_REPSWITCH1_version1_list1_2023-12-11_16h27.05.564_micRespv1l1_recorded\recording_micRespv1l1_2023-12-11_16h34.06.450.wav,427.19955520005897,427.69957169983536,None,427.19955520005897,427.19955520005897,427.19955520005897,427.19955520005897,427.19955520005897,427.19955520005897,,,,,,330101,001,2023-12-11_16h27.05.564,REPSWITCH1_version1_list1,2022.2.4,143.9244460002626,
REPSWITCH1/PICTURE_8.png,pierna,speak,gold,nontarget,2,NT,4,1,1,1,Stim3_Set4,1,switch,85,84,85,0,84,84,84,,,,,,,,,,,,,,,,,,,,,,,427.69957169983536,428.81086389999837,428.81086389999837,428.81086389999837,428.81086389999837,428.81086389999837,428.81086389999837,428.81086389999837,428.81086389999837,None,0,,,C:\2023\REPSWITCH21092023\REPSWITCH_excgange\REPSWITCH_excgange\data/330101_REPSWITCH1_version1_list1_2023-12-11_16h27.05.564_micRespv1l1_recorded\recording_micRespv1l1_2023-12-11_16h34.11.083.wav,431.8390025999397,,None,431.8390025999397,431.8390025999397,431.8390025999397,431.8390025999397,431.8390025999397,431.8390025999397,,,,,,330101,001,2023-12-11_16h27.05.564,REPSWITCH1_version1_list1,2022.2.4,143.9244460002626,
REPSWITCH1/PICTURE_8.png,pierna,speak,gold,repeat,2,T,4,1,1,1,Stim3_Set4,0,None,86,85,86,0,85,85,85,,,,,,,,,,,,,,,,,,,,,,,432.33903479995206,433.4989264998585,433.4989264998585,433.4989264998585,433.4989264998585,433.4989264998585,433.4989264998585,433.4989264998585,433.4989264998585,None,0,,,C:\2023\REPSWITCH21092023\REPSWITCH_excgange\REPSWITCH_excgange\data/330101_REPSWITCH1_version1_list1_2023-12-11_16h27.05.564_micRespv1l1_recorded\recording_micRespv1l1_2023-12-11_16h34.15.770.wav,436.52020360017195,437.02030549990013,None,436.52020360017195,436.52020360017195,436.52020360017195,436.52020360017195,436.52020360017195,436.52020360017195,,,,,,330101,001,2023-12-11_16h27.05.564,REPSWITCH1_version1_list1,2022.2.4,143.9244460002626,
REPSWITCH1/PICTURE_498.png,taza,speak,gold,nontarget,2,NT,4,1,1,1,Stim4_Set4,1,repeat,87,86,87,0,86,86,86,,,,,,,,,,,,,,,,,,,,,,,437.02030549990013,438.1245848000981,438.1245848000981,438.1245848000981,438.1245848000981,438.1245848000981,438.1245848000981,438.1245848000981,438.1245848000981,None,0,,,C:\2023\REPSWITCH21092023\REPSWITCH_excgange\REPSWITCH_excgange\data/330101_REPSWITCH1_version1_list1_2023-12-11_16h27.05.564_micRespv1l1_recorded\recording_micRespv1l1_2023-12-11_16h34.20.396.wav,441.14577249996364,441.6458455999382,None,441.14577249996364,441.14577249996364,441.14577249996364,441.14577249996364,441.14577249996364,441.14577249996364,,,,,,330101,001,2023-12-11_16h27.05.564,REPSWITCH1_version1_list1,2022.2.4,143.9244460002626,
REPSWITCH1/PICTURE_498.png,taza,type,darkblue,switch,1,T,4,1,1,1,Stim4_Set4,0,None,88,87,88,0,87,87,87,,,,,,,,,,,,,,,,,,,,,,,441.6458455999382,442.7432071999647,442.7432071999647,442.7432071999647,442.7432071999647,442.7432071999647,442.7432071999647,442.7432071999647,442.7432071999647,"['t', 'a', 'z', 'a']",0,"[0.9470128999091685, 1.0815564999356866, 1.4827541997656226, 1.6408127998001873]",taza,C:\2023\REPSWITCH21092023\REPSWITCH_excgange\REPSWITCH_excgange\data/330101_REPSWITCH1_version1_list1_2023-12-11_16h27.05.564_micRespv1l1_recorded\recording_micRespv1l1_2023-12-11_16h34.25.014.wav,445.7644215999171,446.26448949985206,None,445.7644215999171,445.7644215999171,445.7644215999171,445.7644215999171,445.7644215999171,445.7644215999171,,,,,,330101,001,2023-12-11_16h27.05.564,REPSWITCH1_version1_list1,2022.2.4,143.9244460002626,
REPSWITCH1/PICTURE_235.png,aguja,speak,gold,filler,2,F,4,1,1,1,Stim4_Set3,0,None,89,88,89,0,88,88,88,,,,,,,,,,,,,,,,,,,,,,,446.26448949985206,447.29937179991975,447.29937179991975,447.29937179991975,447.29937179991975,447.29937179991975,447.29937179991975,447.29937179991975,447.29937179991975,None,0,,,C:\2023\REPSWITCH21092023\REPSWITCH_excgange\REPSWITCH_excgange\data/330101_REPSWITCH1_version1_list1_2023-12-11_16h27.05.564_micRespv1l1_recorded\recording_micRespv1l1_2023-12-11_16h34.29.571.wav,450.3275458998978,,None,450.3275458998978,450.3275458998978,450.3275458998978,450.3275458998978,450.3275458998978,450.3275458998978,,,,,,330101,001,2023-12-11_16h27.05.564,REPSWITCH1_version1_list1,2022.2.4,143.9244460002626,
REPSWITCH1/PICTURE_35.png,oreja,type,darkblue,filler,1,F,4,1,1,1,Stim5_Set3,0,None,90,89,90,0,89,89,89,,,,,,,,,,,,,,,,,,,,,,,450.8276777998544,451.91114029986784,451.91114029986784,451.91114029986784,451.91114029986784,451.91114029986784,451.91114029986784,451.91114029986784,451.91114029986784,"['o', 'r', 'e', 'j', 'a']",0,"[1.1068989001214504, 1.210832200013101, 1.2566740000620484, 1.440064299851656, 1.554412200115621]",oreja,C:\2023\REPSWITCH21092023\REPSWITCH_excgange\REPSWITCH_excgange\data/330101_REPSWITCH1_version1_list1_2023-12-11_16h27.05.564_micRespv1l1_recorded\recording_micRespv1l1_2023-12-11_16h34.34.183.wav,454.93229869985953,455.43235399993137,None,454.93229869985953,454.93229869985953,454.93229869985953,454.93229869985953,454.93229869985953,454.93229869985953,,,,,,330101,001,2023-12-11_16h27.05.564,REPSWITCH1_version1_list1,2022.2.4,143.9244460002626,
REPSWITCH1/PICTURE_687.png,camisa,type,darkblue,nontarget,1,NT,4,1,1,1,Stim5_Set4,1,repeat,91,90,91,0,90,90,90,,,,,,,,,,,,,,,,,,,,,,,455.43235399993137,456.5159140001051,456.5159140001051,456.5159140001051,456.5159140001051,456.5159140001051,456.5159140001051,456.5159140001051,456.5159140001051,"['c', 'a', 'm', 'i', 's', 'a']",0,"[0.928857299964875, 1.032222299836576, 1.2039815997704864, 1.2658216999843717, 1.4262127997353673, 1.7024520998820662]",camisa,C:\2023\REPSWITCH21092023\REPSWITCH_excgange\REPSWITCH_excgange\data/330101_REPSWITCH1_version1_list1_2023-12-11_16h27.05.564_micRespv1l1_recorded\recording_micRespv1l1_2023-12-11_16h34.38.787.wav,459.5370724000968,460.0371587998234,None,459.5370724000968,459.5370724000968,459.5370724000968,459.5370724000968,459.5370724000968,459.5370724000968,,,,,,330101,001,2023-12-11_16h27.05.564,REPSWITCH1_version1_list1,2022.2.4,143.9244460002626,
REPSWITCH1/PICTURE_687.png,camisa,speak,gold,switch,2,T,4,1,1,1,Stim5_Set4,0,None,92,91,92,0,91,91,91,,,,,,,,,,,,,,,,,,,,,,,460.0371587998234,461.099780399818,461.099780399818,461.099780399818,461.099780399818,461.099780399818,461.099780399818,461.099780399818,461.099780399818,None,0,,,C:\2023\REPSWITCH21092023\REPSWITCH_excgange\REPSWITCH_excgange\data/330101_REPSWITCH1_version1_list1_2023-12-11_16h27.05.564_micRespv1l1_recorded\recording_micRespv1l1_2023-12-11_16h34.43.371.wav,464.12098310003057,464.6210762998089,None,464.12098310003057,464.12098310003057,464.12098310003057,464.12098310003057,464.12098310003057,464.12098310003057,,,,,,330101,001,2023-12-11_16h27.05.564,REPSWITCH1_version1_list1,2022.2.4,143.9244460002626,
REPSWITCH1/PICTURE_338.png,regalo,speak,gold,nontarget,2,NT,4,1,1,1,Stim6_Set4,0,None,93,92,93,0,92,92,92,,,,,,,,,,,,,,,,,,,,,,,464.6210762998089,465.69760890025645,465.69760890025645,465.69760890025645,465.69760890025645,465.69760890025645,465.69760890025645,465.69760890025645,465.69760890025645,None,0,,,C:\2023\REPSWITCH21092023\REPSWITCH_excgange\REPSWITCH_excgange\data/330101_REPSWITCH1_version1_list1_2023-12-11_16h27.05.564_micRespv1l1_recorded\recording_micRespv1l1_2023-12-11_16h34.47.968.wav,468.7188554001041,469.2189122000709,None,468.7188554001041,468.7188554001041,468.7188554001041,468.7188554001041,468.7188554001041,468.7188554001041,,,,,,330101,001,2023-12-11_16h27.05.564,REPSWITCH1_version1_list1,2022.2.4,143.9244460002626,
REPSWITCH1/PICTURE_338.png,regalo,speak,gold,repeat,2,T,4,1,1,1,Stim6_Set4,0,None,94,93,94,0,93,93,93,,,,,,,,,,,,,,,,,,,,,,,469.2189122000709,470.26772159989923,470.26772159989923,470.26772159989923,470.26772159989923,470.26772159989923,470.26772159989923,470.26772159989923,470.26772159989923,None,0,,,C:\2023\REPSWITCH21092023\REPSWITCH_excgange\REPSWITCH_excgange\data/330101_REPSWITCH1_version1_list1_2023-12-11_16h27.05.564_micRespv1l1_recorded\recording_micRespv1l1_2023-12-11_16h34.52.538.wav,473.28889680001885,473.7889594999142,None,473.28889680001885,473.28889680001885,473.28889680001885,473.28889680001885,473.28889680001885,473.28889680001885,,,,,,330101,001,2023-12-11_16h27.05.564,REPSWITCH1_version1_list1,2022.2.4,143.9244460002626,
REPSWITCH1/PICTURE_663.png,columna,type,darkblue,filler,1,F,4,1,1,1,Extra6,0,None,95,94,95,0,94,94,94,,,,,,,,,,,,,,,,,,,,,,,473.7889594999142,474.80296939983964,474.80296939983964,474.80296939983964,474.80296939983964,474.80296939983964,474.80296939983964,474.80296939983964,474.80296939983964,"['c', 'o', 'l', 'u', 'm', 'n', 'a']",0,"[0.956213700119406, 1.1050073998048902, 1.3292467999272048, 1.5787793998606503, 1.853847799822688, 1.9914711997844279, 2.1172778997570276]",columna,C:\2023\REPSWITCH21092023\REPSWITCH_excgange\REPSWITCH_excgange\data/330101_REPSWITCH1_version1_list1_2023-12-11_16h27.05.564_micRespv1l1_recorded\recording_micRespv1l1_2023-12-11_16h34.57.073.wav,477.8242111001164,478.3242510999553,None,477.8242111001164,477.8242111001164,477.8242111001164,477.8242111001164,477.8242111001164,477.8242111001164,,,,,,330101,001,2023-12-11_16h27.05.564,REPSWITCH1_version1_list1,2022.2.4,143.9244460002626,
REPSWITCH1/PICTURE_271.png,conejo,speak,gold,filler,2,F,4,1,1,1,Stim7_Set3,0,None,96,95,96,0,95,95,95,,,,,,,,,,,,,,,,,,,,,,,478.3242510999553,479.40085060009733,479.40085060009733,479.40085060009733,479.40085060009733,479.40085060009733,479.40085060009733,479.40085060009733,479.40085060009733,None,0,,,C:\2023\REPSWITCH21092023\REPSWITCH_excgange\REPSWITCH_excgange\data/330101_REPSWITCH1_version1_list1_2023-12-11_16h27.05.564_micRespv1l1_recorded\recording_micRespv1l1_2023-12-11_16h35.01.673.wav,482.42898700013757,,None,482.42898700013757,482.42898700013757,482.42898700013757,482.42898700013757,482.42898700013757,482.42898700013757,,,,,,330101,001,2023-12-11_16h27.05.564,REPSWITCH1_version1_list1,2022.2.4,143.9244460002626,
REPSWITCH1/PICTURE_48.png,bombero,speak,gold,nontarget,2,NT,4,1,1,1,Stim7_Set4,0,None,97,96,97,0,96,96,96,,,,,,,,,,,,,,,,,,,,,,,482.9290467002429,483.9361163000576,483.9361163000576,483.9361163000576,483.9361163000576,483.9361163000576,483.9361163000576,483.9361163000576,483.9361163000576,None,0,,,C:\2023\REPSWITCH21092023\REPSWITCH_excgange\REPSWITCH_excgange\data/330101_REPSWITCH1_version1_list1_2023-12-11_16h27.05.564_micRespv1l1_recorded\recording_micRespv1l1_2023-12-11_16h35.06.208.wav,486.96427190024406,,None,486.96427190024406,486.96427190024406,486.96427190024406,486.96427190024406,486.96427190024406,486.96427190024406,,,,,,330101,001,2023-12-11_16h27.05.564,REPSWITCH1_version1_list1,2022.2.4,143.9244460002626,
REPSWITCH1/PICTURE_48.png,bombero,type,darkblue,switch,1,T,4,1,1,1,Stim7_Set4,0,None,98,97,98,0,97,97,97,,,,,,,,,,,,,,,,,,,,,,,487.4643401000649,488.55485989991575,488.55485989991575,488.55485989991575,488.55485989991575,488.55485989991575,488.55485989991575,488.55485989991575,488.55485989991575,"['b', 'o', 'm', 'b', 'e', 'r', 'o']",0,"[0.9953784001991153, 1.1130959000438452, 1.234678600449115, 1.3672928004525602, 1.6080738003365695, 1.6937855002470315, 1.8482623002491891]",bombero,C:\2023\REPSWITCH21092023\REPSWITCH_excgange\REPSWITCH_excgange\data/330101_REPSWITCH1_version1_list1_2023-12-11_16h27.05.564_micRespv1l1_recorded\recording_micRespv1l1_2023-12-11_16h35.10.826.wav,491.57601010007784,492.0760830999352,None,491.57601010007784,491.57601010007784,491.57601010007784,491.57601010007784,491.57601010007784,491.57601010007784,,,,,,330101,001,2023-12-11_16h27.05.564,REPSWITCH1_version1_list1,2022.2.4,143.9244460002626,
REPSWITCH1/PICTURE_728.png,pulpo,type,darkblue,nontarget,1,NT,4,1,1,1,Stim8_Set4,0,None,99,98,99,0,98,98,98,,,,,,,,,,,,,,,,,,,,,,,492.0760830999352,493.1178771001287,493.1178771001287,493.1178771001287,493.1178771001287,493.1178771001287,493.1178771001287,493.1178771001287,493.1178771001287,"['p', 'u', 'l', 'p', 'o']",0,"[0.9092465001158416, 1.1009111003950238, 1.3968935003504157, 1.6671391003765166, 1.866742200218141]",pulpo,C:\2023\REPSWITCH21092023\REPSWITCH_excgange\REPSWITCH_excgange\data/330101_REPSWITCH1_version1_list1_2023-12-11_16h27.05.564_micRespv1l1_recorded\recording_micRespv1l1_2023-12-11_16h35.15.389.wav,496.1391273001209,496.6391835999675,None,496.1391273001209,496.1391273001209,496.1391273001209,496.1391273001209,496.1391273001209,496.1391273001209,,,,,,330101,001,2023-12-11_16h27.05.564,REPSWITCH1_version1_list1,2022.2.4,143.9244460002626,
REPSWITCH1/PICTURE_728.png,pulpo,type,darkblue,repeat,1,T,4,1,1,1,Stim8_Set4,0,None,100,99,100,0,99,99,99,,,,,,,,,,,,,,,,,,,,,,,496.6391835999675,497.75048290006816,497.75048290006816,497.75048290006816,497.75048290006816,497.75048290006816,497.75048290006816,497.75048290006816,497.75048290006816,"['p', 'u', 'l', 'p', 'o']",0,"[0.8597379000857472, 1.0291736000217497, 1.3690919000655413, 1.4776696003973484, 1.6092300000600517]",pulpo,C:\2023\REPSWITCH21092023\REPSWITCH_excgange\REPSWITCH_excgange\data/330101_REPSWITCH1_version1_list1_2023-12-11_16h27.05.564_micRespv1l1_recorded\recording_micRespv1l1_2023-12-11_16h35.20.022.wav,500.77165320003405,501.27172149997205,None,500.77165320003405,500.77165320003405,500.77165320003405,500.77165320003405,500.77165320003405,500.77165320003405,,,,,,330101,001,2023-12-11_16h27.05.564,REPSWITCH1_version1_list1,2022.2.4,143.9244460002626,
REPSWITCH1/PICTURE_320.png,iglesia,speak,gold,filler,1,F,4,1,1,1,Stim8_Set3,0,None,101,100,101,0,100,100,100,,,,,,,,,,,,,,,,,,,,,,,501.27172149997205,502.41074990015477,502.41074990015477,502.41074990015477,502.41074990015477,502.41074990015477,502.41074990015477,502.41074990015477,502.41074990015477,None,0,,,C:\2023\REPSWITCH21092023\REPSWITCH_excgange\REPSWITCH_excgange\data/330101_REPSWITCH1_version1_list1_2023-12-11_16h27.05.564_micRespv1l1_recorded\recording_micRespv1l1_2023-12-11_16h35.24.682.wav,505.43201520014554,505.93206659983844,None,505.43201520014554,505.43201520014554,505.43201520014554,505.43201520014554,505.43201520014554,505.43201520014554,,,,,,330101,001,2023-12-11_16h27.05.564,REPSWITCH1_version1_list1,2022.2.4,143.9244460002626,
REPSWITCH1/PICTURE_464.png,goma,type,darkblue,filler,1,F,4,1,1,1,Stim6_Set3,0,None,102,101,102,0,101,101,101,,,,,,,,,,,,,,,,,,,,,,,505.93206659983844,507.07804530020803,507.07804530020803,507.07804530020803,507.07804530020803,507.07804530020803,507.07804530020803,507.07804530020803,507.07804530020803,"['g', 'o', 'm', 'a']",0,"[0.9431178001686931, 1.0661748005077243, 1.1942321001552045, 1.2918698000721633]",goma,C:\2023\REPSWITCH21092023\REPSWITCH_excgange\REPSWITCH_excgange\data/330101_REPSWITCH1_version1_list1_2023-12-11_16h27.05.564_micRespv1l1_recorded\recording_micRespv1l1_2023-12-11_16h35.29.349.wav,510.09931770013645,510.59931330010295,space,510.09931770013645,510.09931770013645,510.09931770013645,510.09931770013645,510.09931770013645,510.09931770013645,510.59931330010295,510.59931330010295,10.637699000071734,,,330101,001,2023-12-11_16h27.05.564,REPSWITCH1_version1_list1,2022.2.4,143.9244460002626,
REPSWITCH1/PICTURE_663.png,columna,type,darkblue,filler,1,F,1,2,1,1,Extra6,0,None,103,102,1,0,102,102,102,,,,,,,,,,,,,,,,,,,,,,,521.2465758998878,522.3230889998376,522.3230889998376,522.3230889998376,522.3230889998376,522.3230889998376,522.3230889998376,522.3230889998376,522.3230889998376,"['c', 'o', 'l', 'u', 'm', 'n', 'a']",0,"[0.7428191001527011, 0.8846485000103712, 1.1288283001631498, 1.3083143001422286, 1.6013108002953231, 1.8431997001171112, 1.9259240999817848]",columna,C:\2023\REPSWITCH21092023\REPSWITCH_excgange\REPSWITCH_excgange\data/330101_REPSWITCH1_version1_list1_2023-12-11_16h27.05.564_micRespv1l1_recorded\recording_micRespv1l1_2023-12-11_16h35.44.595.wav,525.3443169998936,525.8443781002425,None,525.3443169998936,525.3443169998936,525.3443169998936,525.3443169998936,525.3443169998936,525.3443169998936,,,,,,330101,001,2023-12-11_16h27.05.564,REPSWITCH1_version1_list1,2022.2.4,143.9244460002626,
REPSWITCH1/PICTURE_128.png,muñeca,speak,gold,nontarget,2,NT,1,2,1,1,Stim4_Set1,1,switch,104,103,2,0,103,103,103,,,,,,,,,,,,,,,,,,,,,,,525.8443781002425,526.9765070001595,526.9765070001595,526.9765070001595,526.9765070001595,526.9765070001595,526.9765070001595,526.9765070001595,526.9765070001595,None,0,,,C:\2023\REPSWITCH21092023\REPSWITCH_excgange\REPSWITCH_excgange\data/330101_REPSWITCH1_version1_list1_2023-12-11_16h27.05.564_micRespv1l1_recorded\recording_micRespv1l1_2023-12-11_16h35.49.249.wav,530.0046573998407,,None,530.0046573998407,530.0046573998407,530.0046573998407,530.0046573998407,530.0046573998407,530.0046573998407,,,,,,330101,001,2023-12-11_16h27.05.564,REPSWITCH1_version1_list1,2022.2.4,143.9244460002626,
REPSWITCH1/PICTURE_128.png,muñeca,speak,gold,repeat,2,T,1,2,1,1,Stim4_Set1,0,None,105,104,3,0,104,104,104,,,,,,,,,,,,,,,,,,,,,,,530.5048127002083,531.7340485998429,531.7340485998429,531.7340485998429,531.7340485998429,531.7340485998429,531.7340485998429,531.7340485998429,531.7340485998429,None,0,,,C:\2023\REPSWITCH21092023\REPSWITCH_excgange\REPSWITCH_excgange\data/330101_REPSWITCH1_version1_list1_2023-12-11_16h27.05.564_micRespv1l1_recorded\recording_micRespv1l1_2023-12-11_16h35.54.006.wav,534.7622854998335,,None,534.7622854998335,534.7622854998335,534.7622854998335,534.7622854998335,534.7622854998335,534.7622854998335,,,,,,330101,001,2023-12-11_16h27.05.564,REPSWITCH1_version1_list1,2022.2.4,143.9244460002626,
REPSWITCH1/PICTURE_8.png,pierna,type,darkblue,filler,1,F,1,2,1,1,Stim3_Set4,0,None,106,105,4,0,105,105,105,,,,,,,,,,,,,,,,,,,,,,,535.2622823999263,536.4082728000358,536.4082728000358,536.4082728000358,536.4082728000358,536.4082728000358,536.4082728000358,536.4082728000358,536.4082728000358,"['p', 'i', 'e', 'r', 'n', 'a']",0,"[0.9114532000385225, 1.0459821000695229, 1.1376189002767205, 1.2323016999289393, 1.4186905003152788, 1.5752083999104798]",pierna,C:\2023\REPSWITCH21092023\REPSWITCH_excgange\REPSWITCH_excgange\data/330101_REPSWITCH1_version1_list1_2023-12-11_16h27.05.564_micRespv1l1_recorded\recording_micRespv1l1_2023-12-11_16h35.58.680.wav,539.4294988000765,539.9295875001699,None,539.4294988000765,539.4294988000765,539.4294988000765,539.4294988000765,539.4294988000765,539.4294988000765,,,,,,330101,001,2023-12-11_16h27.05.564,REPSWITCH1_version1_list1,2022.2.4,143.9244460002626,
REPSWITCH1/PICTURE_135.png,traje,speak,gold,nontarget,2,NT,1,2,1,1,Stim3_Set1,1,switch,107,106,5,0,106,106,106,,,,,,,,,,,,,,,,,,,,,,,539.9295875001699,541.0061105000786,541.0061105000786,541.0061105000786,541.0061105000786,541.0061105000786,541.0061105000786,541.0061105000786,541.0061105000786,None,0,,,C:\2023\REPSWITCH21092023\REPSWITCH_excgange\REPSWITCH_excgange\data/330101_REPSWITCH1_version1_list1_2023-12-11_16h27.05.564_micRespv1l1_recorded\recording_micRespv1l1_2023-12-11_16h36.03.278.wav,544.0342657999136,,None,544.0342657999136,544.0342657999136,544.0342657999136,544.0342657999136,544.0342657999136,544.0342657999136,,,,,,330101,001,2023-12-11_16h27.05.564,REPSWITCH1_version1_list1,2022.2.4,143.9244460002626,
REPSWITCH1/PICTURE_135.png,traje,speak,gold,repeat,2,T,1,2,1,1,Stim3_Set1,0,None,108,107,6,0,107,107,107,,,,,,,,,,,,,,,,,,,,,,,544.5343359000981,545.6386887999251,545.6386887999251,545.6386887999251,545.6386887999251,545.6386887999251,545.6386887999251,545.6386887999251,545.6386887999251,None,0,,,C:\2023\REPSWITCH21092023\REPSWITCH_excgange\REPSWITCH_excgange\data/330101_REPSWITCH1_version1_list1_2023-12-11_16h27.05.564_micRespv1l1_recorded\recording_micRespv1l1_2023-12-11_16h36.07.910.wav,548.6599028999917,549.1600406998768,None,548.6599028999917,548.6599028999917,548.6599028999917,548.6599028999917,548.6599028999917,548.6599028999917,,,,,,330101,001,2023-12-11_16h27.05.564,REPSWITCH1_version1_list1,2022.2.4,143.9244460002626,
REPSWITCH1/PICTURE_673.png,tenedor,type,darkblue,filler,1,F,1,2,1,1,Extra5,0,None,109,108,7,0,108,108,108,,,,,,,,,,,,,,,,,,,,,,,549.1600406998768,550.1809975001961,550.1809975001961,550.1809975001961,550.1809975001961,550.1809975001961,550.1809975001961,550.1809975001961,550.1809975001961,"['t', 'e', 'n', 'e', 'd', 'o', 'r']",0,"[1.1425130004063249, 1.2262309002690017, 1.3856974001973867, 1.5013442002236843, 1.6572520001791418, 1.727886600419879, 1.8584132003597915]",tenedor,C:\2023\REPSWITCH21092023\REPSWITCH_excgange\REPSWITCH_excgange\data/330101_REPSWITCH1_version1_list1_2023-12-11_16h27.05.564_micRespv1l1_recorded\recording_micRespv1l1_2023-12-11_16h36.12.452.wav,553.202236500103,553.7022073999979,None,553.202236500103,553.202236500103,553.202236500103,553.202236500103,553.202236500103,553.202236500103,,,,,,330101,001,2023-12-11_16h27.05.564,REPSWITCH1_version1_list1,2022.2.4,143.9244460002626,
REPSWITCH1/PICTURE_728.png,pulpo,speak,gold,filler,2,F,1,2,1,1,Stim8_Set4,0,None,110,109,8,0,109,109,109,,,,,,,,,,,,,,,,,,,,,,,553.7022073999979,554.7718389001675,554.7718389001675,554.7718389001675,554.7718389001675,554.7718389001675,554.7718389001675,554.7718389001675,554.7718389001675,None,0,,,C:\2023\REPSWITCH21092023\REPSWITCH_excgange\REPSWITCH_excgange\data/330101_REPSWITCH1_version1_list1_2023-12-11_16h27.05.564_micRespv1l1_recorded\recording_micRespv1l1_2023-12-11_16h36.17.043.wav,557.7999913999811,,None,557.7999913999811,557.7999913999811,557.7999913999811,557.7999913999811,557.7999913999811,557.7999913999811,,,,,,330101,001,2023-12-11_16h27.05.564,REPSWITCH1_version1_list1,2022.2.4,143.9244460002626,
REPSWITCH1/PICTURE_16.png,cazador,speak,gold,nontarget,2,NT,1,2,1,1,Stim6_Set1,1,repeat,111,110,9,0,110,110,110,,,,,,,,,,,,,,,,,,,,,,,558.3000562000088,559.4043538998812,559.4043538998812,559.4043538998812,559.4043538998812,559.4043538998812,559.4043538998812,559.4043538998812,559.4043538998812,None,0,,,C:\2023\REPSWITCH21092023\REPSWITCH_excgange\REPSWITCH_excgange\data/330101_REPSWITCH1_version1_list1_2023-12-11_16h27.05.564_micRespv1l1_recorded\recording_micRespv1l1_2023-12-11_16h36.21.676.wav,562.425676099956,562.925663900096,None,562.425676099956,562.425676099956,562.425676099956,562.425676099956,562.425676099956,562.425676099956,,,,,,330101,001,2023-12-11_16h27.05.564,REPSWITCH1_version1_list1,2022.2.4,143.9244460002626,
REPSWITCH1/PICTURE_16.png,cazador,type,darkblue,switch,1,T,1,2,1,1,Stim6_Set1,0,None,112,111,10,0,111,111,111,,,,,,,,,,,,,,,,,,,,,,,562.925663900096,563.953560099937,563.953560099937,563.953560099937,563.953560099937,563.953560099937,563.953560099937,563.953560099937,563.953560099937,"['c', 'a', 'z', 'a', 'd', 'o', 'r']",0,"[0.7961957002989948, 0.9018352003768086, 1.2811625003814697, 1.6822118000127375, 1.8206528001464903, 1.9640087001025677, 2.0757113001309335]",cazador,C:\2023\REPSWITCH21092023\REPSWITCH_excgange\REPSWITCH_excgange\data/330101_REPSWITCH1_version1_list1_2023-12-11_16h27.05.564_micRespv1l1_recorded\recording_micRespv1l1_2023-12-11_16h36.26.225.wav,566.9818179002032,,None,566.9818179002032,566.9818179002032,566.9818179002032,566.9818179002032,566.9818179002032,566.9818179002032,,,,,,330101,001,2023-12-11_16h27.05.564,REPSWITCH1_version1_list1,2022.2.4,143.9244460002626,
REPSWITCH1/PICTURE_498.png,taza,type,darkblue,filler,1,F,1,2,1,1,Stim4_Set4,1,repeat,113,112,11,0,112,112,112,,,,,,,,,,,,,,,,,,,,,,,567.4818195002154,568.5444538998418,568.5444538998418,568.5444538998418,568.5444538998418,568.5444538998418,568.5444538998418,568.5444538998418,568.5444538998418,"['t', 'a', 'z', 'a']",0,"[0.8379866001196206, 0.886752299964428, 1.4371205000206828, 1.6049903999082744]",taza,C:\2023\REPSWITCH21092023\REPSWITCH_excgange\REPSWITCH_excgange\data/330101_REPSWITCH1_version1_list1_2023-12-11_16h27.05.564_micRespv1l1_recorded\recording_micRespv1l1_2023-12-11_16h36.30.816.wav,571.5656959000044,572.0657550999895,None,571.5656959000044,571.5656959000044,571.5656959000044,571.5656959000044,571.5656959000044,571.5656959000044,,,,,,330101,001,2023-12-11_16h27.05.564,REPSWITCH1_version1_list1,2022.2.4,143.9244460002626,
REPSWITCH1/PICTURE_381.png,fresa,type,darkblue,nontarget,1,NT,1,2,1,1,Stim2_Set1,1,repeat,114,113,12,0,113,113,113,,,,,,,,,,,,,,,,,,,,,,,572.0657550999895,573.0937057998963,573.0937057998963,573.0937057998963,573.0937057998963,573.0937057998963,573.0937057998963,573.0937057998963,573.0937057998963,"['f', 'r', 'e', 's', 'a']",0,"[0.9404139001853764, 1.1287431004457176, 1.3089552000164986, 1.576825600117445, 1.6935247001238167]",fresa,C:\2023\REPSWITCH21092023\REPSWITCH_excgange\REPSWITCH_excgange\data/330101_REPSWITCH1_version1_list1_2023-12-11_16h27.05.564_micRespv1l1_recorded\recording_micRespv1l1_2023-12-11_16h36.35.365.wav,576.1219103001058,,None,576.1219103001058,576.1219103001058,576.1219103001058,576.1219103001058,576.1219103001058,576.1219103001058,,,,,,330101,001,2023-12-11_16h27.05.564,REPSWITCH1_version1_list1,2022.2.4,143.9244460002626,
REPSWITCH1/PICTURE_381.png,fresa,speak,gold,switch,2,T,1,2,1,1,Stim2_Set1,0,None,115,114,13,0,114,114,114,,,,,,,,,,,,,,,,,,,,,,,576.6219143001363,577.6637313999236,577.6637313999236,577.6637313999236,577.6637313999236,577.6637313999236,577.6637313999236,577.6637313999236,577.6637313999236,None,0,,,C:\2023\REPSWITCH21092023\REPSWITCH_excgange\REPSWITCH_excgange\data/330101_REPSWITCH1_version1_list1_2023-12-11_16h27.05.564_micRespv1l1_recorded\recording_micRespv1l1_2023-12-11_16h36.39.936.wav,580.6919407998212,,None,580.6919407998212,580.6919407998212,580.6919407998212,580.6919407998212,580.6919407998212,580.6919407998212,,,,,,330101,001,2023-12-11_16h27.05.564,REPSWITCH1_version1_list1,2022.2.4,143.9244460002626,
REPSWITCH1/PICTURE_178.png,puente,speak,gold,nontarget,2,NT,1,2,1,1,Stim1_Set1,0,None,116,115,14,0,115,115,115,,,,,,,,,,,,,,,,,,,,,,,581.191953800153,582.2546061002649,582.2546061002649,582.2546061002649,582.2546061002649,582.2546061002649,582.2546061002649,582.2546061002649,582.2546061002649,None,0,,,C:\2023\REPSWITCH21092023\REPSWITCH_excgange\REPSWITCH_excgange\data/330101_REPSWITCH1_version1_list1_2023-12-11_16h27.05.564_micRespv1l1_recorded\recording_micRespv1l1_2023-12-11_16h36.44.526.wav,585.2758920998313,585.7758933999576,None,585.2758920998313,585.2758920998313,585.2758920998313,585.2758920998313,585.2758920998313,585.2758920998313,,,,,,330101,001,2023-12-11_16h27.05.564,REPSWITCH1_version1_list1,2022.2.4,143.9244460002626,
REPSWITCH1/PICTURE_178.png,puente,type,darkblue,switch,1,T,1,2,1,1,Stim1_Set1,0,None,117,116,15,0,116,116,116,,,,,,,,,,,,,,,,,,,,,,,585.7758933999576,586.9080568002537,586.9080568002537,586.9080568002537,586.9080568002537,586.9080568002537,586.9080568002537,586.9080568002537,586.9080568002537,"['p', 'u', 'n', 'e', 't', 'e', 'backspace', 'backspace', 'backspace']",0,"[1.5439732004888356, 1.847760600503534, 1.9905782002024353, 1.9998070001602173, 2.1771494005806744, 2.330251100473106, 2.614402800332755, 2.771818700246513, 2.908360200468451]",pun,C:\2023\REPSWITCH21092023\REPSWITCH_excgange\REPSWITCH_excgange\data/330101_REPSWITCH1_version1_list1_2023-12-11_16h27.05.564_micRespv1l1_recorded\recording_micRespv1l1_2023-12-11_16h36.49.179.wav,589.929194000084,590.429252800066,None,589.929194000084,589.929194000084,589.929194000084,589.929194000084,589.929194000084,589.929194000084,,,,,,330101,001,2023-12-11_16h27.05.564,REPSWITCH1_version1_list1,2022.2.4,143.9244460002626,
REPSWITCH1/PICTURE_719.png,baño,speak,gold,filler,2,F,1,2,1,1,Stim2_Set4,0,None,118,117,16,0,117,117,117,,,,,,,,,,,,,,,,,,,,,,,590.429252800066,591.582223800011,591.582223800011,591.582223800011,591.582223800011,591.582223800011,591.582223800011,591.582223800011,591.582223800011,None,0,,,C:\2023\REPSWITCH21092023\REPSWITCH_excgange\REPSWITCH_excgange\data/330101_REPSWITCH1_version1_list1_2023-12-11_16h27.05.564_micRespv1l1_recorded\recording_micRespv1l1_2023-12-11_16h36.53.854.wav,594.6103417999111,,None,594.6103417999111,594.6103417999111,594.6103417999111,594.6103417999111,594.6103417999111,594.6103417999111,,,,,,330101,001,2023-12-11_16h27.05.564,REPSWITCH1_version1_list1,2022.2.4,143.9244460002626,
REPSWITCH1/PICTURE_169.png,espalda,type,darkblue,nontarget,1,NT,1,2,1,1,Stim8_Set1,1,switch,119,118,17,0,118,118,118,,,,,,,,,,,,,,,,,,,,,,,595.1104333000258,596.2911793999374,596.2911793999374,596.2911793999374,596.2911793999374,596.2911793999374,596.2911793999374,596.2911793999374,596.2911793999374,"['e', 's', 'p', 'a', 'l', 'ñ', 'backspace', 'd', 'a']",0,"[1.1760955001227558, 1.3694471004419029, 1.4690732001326978, 1.6197994002141058, 1.7688382002525032, 1.7718377001583576, 2.2120498004369438, 2.4087132001295686, 2.459530200343579]",espalda,C:\2023\REPSWITCH21092023\REPSWITCH_excgange\REPSWITCH_excgange\data/330101_REPSWITCH1_version1_list1_2023-12-11_16h27.05.564_micRespv1l1_recorded\recording_micRespv1l1_2023-12-11_16h36.58.562.wav,599.3123667002656,599.8124533002265,None,599.3123667002656,599.3123667002656,599.3123667002656,599.3123667002656,599.3123667002656,599.3123667002656,,,,,,330101,001,2023-12-11_16h27.05.564,REPSWITCH1_version1_list1,2022.2.4,143.9244460002626,
REPSWITCH1/PICTURE_169.png,espalda,type,darkblue,repeat,1,T,1,2,1,1,Stim8_Set1,0,None,120,119,18,0,119,119,119,,,,,,,,,,,,,,,,,,,,,,,599.8124533002265,600.9028906002641,600.9028906002641,600.9028906002641,600.9028906002641,600.9028906002641,600.9028906002641,600.9028906002641,600.9028906002641,"['e', 's', 'p', 'a', 'l', 'd', 'a']",0,"[0.8577347001992166, 1.051281000021845, 1.1959052002057433, 1.331411600112915, 1.4419116000644863, 1.5724410000257194, 1.668131799902767]",espalda,C:\2023\REPSWITCH21092023\REPSWITCH_excgange\REPSWITCH_excgange\data/330101_REPSWITCH1_version1_list1_2023-12-11_16h27.05.564_micRespv1l1_recorded\recording_micRespv1l1_2023-12-11_16h37.03.175.wav,603.9310244000517,,None,603.9310244000517,603.9310244000517,603.9310244000517,603.9310244000517,603.9310244000517,603.9310244000517,,,,,,330101,001,2023-12-11_16h27.05.564,REPSWITCH1_version1_list1,2022.2.4,143.9244460002626,
