image,correctAns,respModal,frameColor,repSwitch,sequence,target,set,block,list,exp_version,stimulus,baseline,baseline_condition,trial_no,psychopy_trial,Column1,trialsREPSWITCH.thisRepN,trialsREPSWITCH.thisTrialN,trialsREPSWITCH.thisN,trialsREPSWITCH.thisIndex,textWelcome.started,textboxInstrMain1.started,textboxInstrMain1_2.started,textboxInstrMain1_3.started,keyInstrMain.started,keyInstrMain.keys,keyInstrMain.rt,textboxInstrMain2.started,textboxInstrMain2_2.started,textboxInstrMain2_3.started,textboxInstrMain2_4.started,textboxInstrMain2_5.started,textboxInstrMain2_6.started,textboxInstrMain2_7.started,textboxInstrMain2_8.started,textboxInstrMain2_9.started,textboxInstrMain2_10.started,textboxInstrMain2_11.started,textboxInstrMain2_12.started,keyInstrMain2.started,keyInstrMain2.keys,keyInstrMain2.rt,fixationITI.started,fixationITI.stopped,polygonColour.started,polygonWhite.started,imageObject.started,polygonType.started,textInput.started,keyResp.started,micRespv2l1.started,keyResp.keys,keyResp.corr,keyResp.rt,subjResponse,micRespv2l1.clip,textBlankLoop.started,textBlankLoop.stopped,keyPause.keys,polygonColour.stopped,polygonWhite.stopped,imageObject.stopped,polygonType.stopped,textInput.stopped,keyResp.stopped,textboxPause.started,keyPause.started,keyPause.rt,textboxGoodbye.started,textboxGoodbye.stopped,participant,session,date,expName,psychopyVersion,frameRate,
,,,,,,,,,,,,,,,,,,,,,11.816508000250906,14.30900130001828,14.30900130001828,14.30900130001828,14.30900130001828,space,6.081340700387955,,,,,,,,,,,,,,,,,,,,,,,,,,,,,,,,,,,,,,,,,,,,340201,001,2023-12-12_09h18.08.937,REPSWITCH1_version2_list1,2022.2.4,143.90994689605458,
,,,,,,,,,,,,,,,,,,,,,,,,,,,,20.40702100005001,20.40702100005001,20.40702100005001,20.40702100005001,20.40702100005001,20.40702100005001,20.40702100005001,20.40702100005001,20.40702100005001,20.40702100005001,20.40702100005001,20.40702100005001,20.40702100005001,space,2.498618300072849,,,,,,,,,,,,,,,,,,,,,,,,,,,,,340201,001,2023-12-12_09h18.08.937,REPSWITCH1_version2_list1,2022.2.4,143.90994689605458,
REPSWITCH1/PICTURE_340.png,espejo,type,gold,filler,1,F,1,1,1,2,Extra1,0,None,1,0,1,0,0,0,0,,,,,,,,,,,,,,,,,,,,,,,22.997690699994564,24.115874500013888,24.115874500013888,24.115874500013888,24.115874500013888,24.115874500013888,24.115874500013888,24.115874500013888,24.115874500013888,"['e', 's', 'p', 'e', 'j', 'o']",0,"[1.3321328000165522, 1.5720730000175536, 1.780152800027281, 1.9053273000754416, 2.059774700086564, 2.284263900015503]",espejo,C:\2023\REPSWITCH21092023\REPSWITCH_excgange\REPSWITCH_excgange\data/340201_REPSWITCH1_version2_list1_2023-12-12_09h18.08.937_micRespv2l1_recorded\recording_micRespv2l1_2023-12-12_09h18.26.124.wav,27.13707030005753,27.637140000239015,None,,,,,,,,,,,,340201,001,2023-12-12_09h18.08.937,REPSWITCH1_version2_list1,2022.2.4,143.90994689605458,
REPSWITCH1/PICTURE_391.png,cadena,speak,darkblue,filler,2,F,1,1,1,2,Extra2,0,None,2,1,2,0,1,1,1,,,,,,,,,,,,,,,,,,,,,,,27.637140000239015,28.7484051999636,28.7484051999636,28.7484051999636,28.7484051999636,28.7484051999636,28.7484051999636,28.7484051999636,28.7484051999636,None,0,,,C:\2023\REPSWITCH21092023\REPSWITCH_excgange\REPSWITCH_excgange\data/340201_REPSWITCH1_version2_list1_2023-12-12_09h18.08.937_micRespv2l1_recorded\recording_micRespv2l1_2023-12-12_09h18.30.761.wav,31.776570100337267,32.27662859996781,None,31.776570100337267,31.776570100337267,31.776570100337267,31.776570100337267,31.776570100337267,31.776570100337267,,,,,,340201,001,2023-12-12_09h18.08.937,REPSWITCH1_version2_list1,2022.2.4,143.90994689605458,
REPSWITCH1/PICTURE_178.png,puente,speak,darkblue,nontarget,2,NT,1,1,1,2,Stim1_Set1,1,repeat,3,2,3,0,2,2,2,,,,,,,,,,,,,,,,,,,,,,,32.27662859996781,33.43650730000809,33.43650730000809,33.43650730000809,33.43650730000809,33.43650730000809,33.43650730000809,33.43650730000809,33.43650730000809,None,0,,,C:\2023\REPSWITCH21092023\REPSWITCH_excgange\REPSWITCH_excgange\data/340201_REPSWITCH1_version2_list1_2023-12-12_09h18.08.937_micRespv2l1_recorded\recording_micRespv2l1_2023-12-12_09h18.35.449.wav,36.457698800135404,36.95778649998829,None,36.457698800135404,36.457698800135404,36.457698800135404,36.457698800135404,36.457698800135404,36.457698800135404,,,,,,340201,001,2023-12-12_09h18.08.937,REPSWITCH1_version2_list1,2022.2.4,143.90994689605458,
REPSWITCH1/PICTURE_178.png,puente,speak,darkblue,repeat,2,T,1,1,1,2,Stim1_Set1,0,None,4,3,4,0,3,3,3,,,,,,,,,,,,,,,,,,,,,,,36.95778649998829,38.06906540039927,38.06906540039927,38.06906540039927,38.06906540039927,38.06906540039927,38.06906540039927,38.06906540039927,38.06906540039927,None,0,,,C:\2023\REPSWITCH21092023\REPSWITCH_excgange\REPSWITCH_excgange\data/340201_REPSWITCH1_version2_list1_2023-12-12_09h18.08.937_micRespv2l1_recorded\recording_micRespv2l1_2023-12-12_09h18.40.081.wav,41.09720160020515,,None,41.09720160020515,41.09720160020515,41.09720160020515,41.09720160020515,41.09720160020515,41.09720160020515,,,,,,340201,001,2023-12-12_09h18.08.937,REPSWITCH1_version2_list1,2022.2.4,143.90994689605458,
REPSWITCH1/PICTURE_319.png,vaca,type,gold,filler,1,F,1,1,1,2,Stim1_Set4,0,None,5,4,5,0,4,4,4,,,,,,,,,,,,,,,,,,,,,,,41.59727649996057,42.736350500024855,42.736350500024855,42.736350500024855,42.736350500024855,42.736350500024855,42.736350500024855,42.736350500024855,42.736350500024855,"['v', 'a', 'c', 'a']",0,"[1.1482779998332262, 1.3406950999051332, 1.4828850999474525, 1.6039005001075566]",vaca,C:\2023\REPSWITCH21092023\REPSWITCH_excgange\REPSWITCH_excgange\data/340201_REPSWITCH1_version2_list1_2023-12-12_09h18.08.937_micRespv2l1_recorded\recording_micRespv2l1_2023-12-12_09h18.44.748.wav,45.764513900037855,,None,45.764513900037855,45.764513900037855,45.764513900037855,45.764513900037855,45.764513900037855,45.764513900037855,,,,,,340201,001,2023-12-12_09h18.08.937,REPSWITCH1_version2_list1,2022.2.4,143.90994689605458,
REPSWITCH1/PICTURE_381.png,fresa,speak,darkblue,nontarget,2,NT,1,1,1,2,Stim2_Set1,1,switch,6,5,6,0,5,5,5,,,,,,,,,,,,,,,,,,,,,,,46.26458730036393,47.29250190034509,47.29250190034509,47.29250190034509,47.29250190034509,47.29250190034509,47.29250190034509,47.29250190034509,47.29250190034509,None,0,,,C:\2023\REPSWITCH21092023\REPSWITCH_excgange\REPSWITCH_excgange\data/340201_REPSWITCH1_version2_list1_2023-12-12_09h18.08.937_micRespv2l1_recorded\recording_micRespv2l1_2023-12-12_09h18.49.304.wav,50.31371820019558,50.813775800168514,None,50.31371820019558,50.31371820019558,50.31371820019558,50.31371820019558,50.31371820019558,50.31371820019558,,,,,,340201,001,2023-12-12_09h18.08.937,REPSWITCH1_version2_list1,2022.2.4,143.90994689605458,
REPSWITCH1/PICTURE_381.png,fresa,speak,darkblue,repeat,2,T,1,1,1,2,Stim2_Set1,0,None,7,6,7,0,6,6,6,,,,,,,,,,,,,,,,,,,,,,,50.813775800168514,51.83480850001797,51.83480850001797,51.83480850001797,51.83480850001797,51.83480850001797,51.83480850001797,51.83480850001797,51.83480850001797,None,0,,,C:\2023\REPSWITCH21092023\REPSWITCH_excgange\REPSWITCH_excgange\data/340201_REPSWITCH1_version2_list1_2023-12-12_09h18.08.937_micRespv2l1_recorded\recording_micRespv2l1_2023-12-12_09h18.53.846.wav,54.86290549999103,,None,54.86290549999103,54.86290549999103,54.86290549999103,54.86290549999103,54.86290549999103,54.86290549999103,,,,,,340201,001,2023-12-12_09h18.08.937,REPSWITCH1_version2_list1,2022.2.4,143.90994689605458,
REPSWITCH1/PICTURE_719.png,baño,type,gold,filler,1,F,1,1,1,2,Stim2_Set4,1,switch,8,7,8,0,7,7,7,,,,,,,,,,,,,,,,,,,,,,,55.363003600388765,56.41177610028535,56.41177610028535,56.41177610028535,56.41177610028535,56.41177610028535,56.41177610028535,56.41177610028535,56.41177610028535,"['b', 'a', 'ñ', 'o']",0,"[1.1062421998940408, 1.285466399975121, 1.5403247997164726, 1.7537004998885095]",baño,C:\2023\REPSWITCH21092023\REPSWITCH_excgange\REPSWITCH_excgange\data/340201_REPSWITCH1_version2_list1_2023-12-12_09h18.08.937_micRespv2l1_recorded\recording_micRespv2l1_2023-12-12_09h18.58.424.wav,59.43991900002584,,None,59.43991900002584,59.43991900002584,59.43991900002584,59.43991900002584,59.43991900002584,59.43991900002584,,,,,,340201,001,2023-12-12_09h18.08.937,REPSWITCH1_version2_list1,2022.2.4,143.90994689605458,
REPSWITCH1/PICTURE_135.png,traje,speak,darkblue,nontarget,2,NT,1,1,1,2,Stim3_Set1,0,None,9,8,9,0,8,8,8,,,,,,,,,,,,,,,,,,,,,,,59.93998390017077,61.07208430022001,61.07208430022001,61.07208430022001,61.07208430022001,61.07208430022001,61.07208430022001,61.07208430022001,61.07208430022001,None,0,,,C:\2023\REPSWITCH21092023\REPSWITCH_excgange\REPSWITCH_excgange\data/340201_REPSWITCH1_version2_list1_2023-12-12_09h18.08.937_micRespv2l1_recorded\recording_micRespv2l1_2023-12-12_09h19.03.084.wav,64.10022870032117,,None,64.10022870032117,64.10022870032117,64.10022870032117,64.10022870032117,64.10022870032117,64.10022870032117,,,,,,340201,001,2023-12-12_09h18.08.937,REPSWITCH1_version2_list1,2022.2.4,143.90994689605458,
REPSWITCH1/PICTURE_135.png,traje,type,gold,switch,1,T,1,1,1,2,Stim3_Set1,0,None,10,9,10,0,9,9,9,,,,,,,,,,,,,,,,,,,,,,,64.60029020020738,65.70463180029765,65.70463180029765,65.70463180029765,65.70463180029765,65.70463180029765,65.70463180029765,65.70463180029765,65.70463180029765,"['t', 'r', 'a', 'j', 'e']",0,"[1.090862300246954, 1.255513799842447, 1.435253200121224, 1.6729954998008907, 1.8955696998164058]",traje,C:\2023\REPSWITCH21092023\REPSWITCH_excgange\REPSWITCH_excgange\data/340201_REPSWITCH1_version2_list1_2023-12-12_09h18.08.937_micRespv2l1_recorded\recording_micRespv2l1_2023-12-12_09h19.07.715.wav,68.7258632001467,69.2259173002094,None,68.7258632001467,68.7258632001467,68.7258632001467,68.7258632001467,68.7258632001467,68.7258632001467,,,,,,340201,001,2023-12-12_09h18.08.937,REPSWITCH1_version2_list1,2022.2.4,143.90994689605458,
REPSWITCH1/PICTURE_687.png,camisa,speak,darkblue,filler,2,F,1,1,1,2,Stim5_Set4,0,None,11,10,11,0,10,10,10,,,,,,,,,,,,,,,,,,,,,,,69.2259173002094,70.3649661000818,70.3649661000818,70.3649661000818,70.3649661000818,70.3649661000818,70.3649661000818,70.3649661000818,70.3649661000818,None,0,,,C:\2023\REPSWITCH21092023\REPSWITCH_excgange\REPSWITCH_excgange\data/340201_REPSWITCH1_version2_list1_2023-12-12_09h18.08.937_micRespv2l1_recorded\recording_micRespv2l1_2023-12-12_09h19.12.377.wav,73.38615430006757,73.88629689998925,None,73.38615430006757,73.38615430006757,73.38615430006757,73.38615430006757,73.38615430006757,73.38615430006757,,,,,,340201,001,2023-12-12_09h18.08.937,REPSWITCH1_version2_list1,2022.2.4,143.90994689605458,
REPSWITCH1/PICTURE_128.png,muñeca,type,gold,nontarget,1,NT,1,1,1,2,Stim4_Set1,1,switch,12,11,12,0,11,11,11,,,,,,,,,,,,,,,,,,,,,,,73.88629689998925,74.97667520027608,74.97667520027608,74.97667520027608,74.97667520027608,74.97667520027608,74.97667520027608,74.97667520027608,74.97667520027608,"['m', 'u', 'ñ']",0,"[1.9236333998851478, 2.192671099677682, 2.801951499655843]",muñ,C:\2023\REPSWITCH21092023\REPSWITCH_excgange\REPSWITCH_excgange\data/340201_REPSWITCH1_version2_list1_2023-12-12_09h18.08.937_micRespv2l1_recorded\recording_micRespv2l1_2023-12-12_09h19.16.989.wav,78.00491390004754,,None,78.00491390004754,78.00491390004754,78.00491390004754,78.00491390004754,78.00491390004754,78.00491390004754,,,,,,340201,001,2023-12-12_09h18.08.937,REPSWITCH1_version2_list1,2022.2.4,143.90994689605458,
REPSWITCH1/PICTURE_128.png,muñeca,speak,darkblue,switch,2,T,1,1,1,2,Stim4_Set1,0,None,13,12,13,0,12,12,12,,,,,,,,,,,,,,,,,,,,,,,78.50491880020127,79.57457860000432,79.57457860000432,79.57457860000432,79.57457860000432,79.57457860000432,79.57457860000432,79.57457860000432,79.57457860000432,None,0,,,C:\2023\REPSWITCH21092023\REPSWITCH_excgange\REPSWITCH_excgange\data/340201_REPSWITCH1_version2_list1_2023-12-12_09h18.08.937_micRespv2l1_recorded\recording_micRespv2l1_2023-12-12_09h19.21.586.wav,82.59579940000549,83.09575710026547,None,82.59579940000549,82.59579940000549,82.59579940000549,82.59579940000549,82.59579940000549,82.59579940000549,,,,,,340201,001,2023-12-12_09h18.08.937,REPSWITCH1_version2_list1,2022.2.4,143.90994689605458,
REPSWITCH1/PICTURE_8.png,pierna,speak,darkblue,filler,2,F,1,1,1,2,Stim3_Set4,0,None,14,13,14,0,13,13,13,,,,,,,,,,,,,,,,,,,,,,,83.09575710026547,84.23482010001317,84.23482010001317,84.23482010001317,84.23482010001317,84.23482010001317,84.23482010001317,84.23482010001317,84.23482010001317,None,0,,,C:\2023\REPSWITCH21092023\REPSWITCH_excgange\REPSWITCH_excgange\data/340201_REPSWITCH1_version2_list1_2023-12-12_09h18.08.937_micRespv2l1_recorded\recording_micRespv2l1_2023-12-12_09h19.26.247.wav,87.26301070023328,,None,87.26301070023328,87.26301070023328,87.26301070023328,87.26301070023328,87.26301070023328,87.26301070023328,,,,,,340201,001,2023-12-12_09h18.08.937,REPSWITCH1_version2_list1,2022.2.4,143.90994689605458,
REPSWITCH1/PICTURE_19.png,pavo,speak,darkblue,nontarget,2,NT,1,1,1,2,Stim5_Set1,0,None,15,14,15,0,14,14,14,,,,,,,,,,,,,,,,,,,,,,,87.7630559001118,88.81877170037478,88.81877170037478,88.81877170037478,88.81877170037478,88.81877170037478,88.81877170037478,88.81877170037478,88.81877170037478,None,0,,,C:\2023\REPSWITCH21092023\REPSWITCH_excgange\REPSWITCH_excgange\data/340201_REPSWITCH1_version2_list1_2023-12-12_09h18.08.937_micRespv2l1_recorded\recording_micRespv2l1_2023-12-12_09h19.30.831.wav,91.8399894000031,92.34006460011005,None,91.8399894000031,91.8399894000031,91.8399894000031,91.8399894000031,91.8399894000031,91.8399894000031,,,,,,340201,001,2023-12-12_09h18.08.937,REPSWITCH1_version2_list1,2022.2.4,143.90994689605458,
REPSWITCH1/PICTURE_19.png,pavo,type,gold,switch,1,T,1,1,1,2,Stim5_Set1,0,None,16,15,16,0,15,15,15,,,,,,,,,,,,,,,,,,,,,,,92.34006460011005,93.4860350000672,93.4860350000672,93.4860350000672,93.4860350000672,93.4860350000672,93.4860350000672,93.4860350000672,93.4860350000672,"['p', 'a', 'v', 'o']",0,"[0.8612556997686625, 1.10343369981274, 1.276866499800235, 1.5928106997162104]",pavo,C:\2023\REPSWITCH21092023\REPSWITCH_excgange\REPSWITCH_excgange\data/340201_REPSWITCH1_version2_list1_2023-12-12_09h18.08.937_micRespv2l1_recorded\recording_micRespv2l1_2023-12-12_09h19.35.499.wav,96.514186500106,,None,96.514186500106,96.514186500106,96.514186500106,96.514186500106,96.514186500106,96.514186500106,,,,,,340201,001,2023-12-12_09h18.08.937,REPSWITCH1_version2_list1,2022.2.4,143.90994689605458,
REPSWITCH1/PICTURE_16.png,cazador,type,gold,nontarget,1,NT,1,1,1,2,Stim6_Set1,1,switch,17,16,17,0,16,16,16,,,,,,,,,,,,,,,,,,,,,,,97.01425860030577,98.16035860031843,98.16035860031843,98.16035860031843,98.16035860031843,98.16035860031843,98.16035860031843,98.16035860031843,98.16035860031843,"['c', 'a', 'z', 'd']",0,"[2.262829899787903, 2.3345892997458577, 2.5119918999262154, 2.926619299687445]",cazd,C:\2023\REPSWITCH21092023\REPSWITCH_excgange\REPSWITCH_excgange\data/340201_REPSWITCH1_version2_list1_2023-12-12_09h18.08.937_micRespv2l1_recorded\recording_micRespv2l1_2023-12-12_09h19.40.172.wav,101.18843870004639,,None,101.18843870004639,101.18843870004639,101.18843870004639,101.18843870004639,101.18843870004639,101.18843870004639,,,,,,340201,001,2023-12-12_09h18.08.937,REPSWITCH1_version2_list1,2022.2.4,143.90994689605458,
REPSWITCH1/PICTURE_16.png,cazador,type,gold,repeat,1,T,1,1,1,2,Stim6_Set1,0,None,18,17,18,0,17,17,17,,,,,,,,,,,,,,,,,,,,,,,101.6885787001811,102.8136581000872,102.8136581000872,102.8136581000872,102.8136581000872,102.8136581000872,102.8136581000872,102.8136581000872,102.8136581000872,"['c', 'a', 'z', 'a', 'd', 'o', 'r']",0,"[1.2940115998499095, 1.409482500050217, 1.5931355999782681, 1.8225448001176119, 2.0358333000913262, 2.2026396999135613, 2.3571786996908486]",cazador,C:\2023\REPSWITCH21092023\REPSWITCH_excgange\REPSWITCH_excgange\data/340201_REPSWITCH1_version2_list1_2023-12-12_09h18.08.937_micRespv2l1_recorded\recording_micRespv2l1_2023-12-12_09h19.44.826.wav,105.84183290041983,,None,105.84183290041983,105.84183290041983,105.84183290041983,105.84183290041983,105.84183290041983,105.84183290041983,,,,,,340201,001,2023-12-12_09h18.08.937,REPSWITCH1_version2_list1,2022.2.4,143.90994689605458,
REPSWITCH1/PICTURE_498.png,taza,speak,darkblue,filler,2,F,1,1,1,2,Stim4_Set4,0,None,19,18,19,0,18,18,18,,,,,,,,,,,,,,,,,,,,,,,106.34189990023151,107.50873790029436,107.50873790029436,107.50873790029436,107.50873790029436,107.50873790029436,107.50873790029436,107.50873790029436,107.50873790029436,None,0,,,C:\2023\REPSWITCH21092023\REPSWITCH_excgange\REPSWITCH_excgange\data/340201_REPSWITCH1_version2_list1_2023-12-12_09h18.08.937_micRespv2l1_recorded\recording_micRespv2l1_2023-12-12_09h19.49.520.wav,110.53689680015668,,None,110.53689680015668,110.53689680015668,110.53689680015668,110.53689680015668,110.53689680015668,110.53689680015668,,,,,,340201,001,2023-12-12_09h18.08.937,REPSWITCH1_version2_list1,2022.2.4,143.90994689605458,
REPSWITCH1/PICTURE_48.png,bombero,type,gold,filler,1,F,1,1,1,2,Stim7_Set4,0,None,20,19,20,0,19,19,19,,,,,,,,,,,,,,,,,,,,,,,111.03695470001549,112.09962900029495,112.09962900029495,112.09962900029495,112.09962900029495,112.09962900029495,112.09962900029495,112.09962900029495,112.09962900029495,"['b', 'o', 'm', 'e']",0,"[1.6863330998457968, 1.9968558000400662, 2.258975800126791, 2.8784603998064995]",bome,C:\2023\REPSWITCH21092023\REPSWITCH_excgange\REPSWITCH_excgange\data/340201_REPSWITCH1_version2_list1_2023-12-12_09h18.08.937_micRespv2l1_recorded\recording_micRespv2l1_2023-12-12_09h19.54.111.wav,115.1277596000582,,None,115.1277596000582,115.1277596000582,115.1277596000582,115.1277596000582,115.1277596000582,115.1277596000582,,,,,,340201,001,2023-12-12_09h18.08.937,REPSWITCH1_version2_list1,2022.2.4,143.90994689605458,
REPSWITCH1/PICTURE_142.png,vaso,type,gold,nontarget,1,NT,1,1,1,2,Stim7_Set1,1,repeat,21,20,21,0,20,20,20,,,,,,,,,,,,,,,,,,,,,,,115.62783560017124,116.73909200029448,116.73909200029448,116.73909200029448,116.73909200029448,116.73909200029448,116.73909200029448,116.73909200029448,116.73909200029448,"['v', 'a', 's', 'o']",0,"[1.028987499885261, 1.107063400093466, 1.2914637001231313, 1.3731488999910653]",vaso,C:\2023\REPSWITCH21092023\REPSWITCH_excgange\REPSWITCH_excgange\data/340201_REPSWITCH1_version2_list1_2023-12-12_09h18.08.937_micRespv2l1_recorded\recording_micRespv2l1_2023-12-12_09h19.58.752.wav,119.76724640000612,,None,119.76724640000612,119.76724640000612,119.76724640000612,119.76724640000612,119.76724640000612,119.76724640000612,,,,,,340201,001,2023-12-12_09h18.08.937,REPSWITCH1_version2_list1,2022.2.4,143.90994689605458,
REPSWITCH1/PICTURE_142.png,vaso,type,gold,repeat,1,T,1,1,1,2,Stim7_Set1,0,None,22,21,22,0,21,21,21,,,,,,,,,,,,,,,,,,,,,,,120.26740420004353,121.4133780002594,121.4133780002594,121.4133780002594,121.4133780002594,121.4133780002594,121.4133780002594,121.4133780002594,121.4133780002594,"['v', 'a', 's', 'o']",0,"[0.8115571001544595, 0.906290499959141, 1.0819967002607882, 1.2085401001386344]",vaso,C:\2023\REPSWITCH21092023\REPSWITCH_excgange\REPSWITCH_excgange\data/340201_REPSWITCH1_version2_list1_2023-12-12_09h18.08.937_micRespv2l1_recorded\recording_micRespv2l1_2023-12-12_09h20.03.424.wav,124.43455370003358,124.93461440037936,None,124.43455370003358,124.43455370003358,124.43455370003358,124.43455370003358,124.43455370003358,124.43455370003358,,,,,,340201,001,2023-12-12_09h18.08.937,REPSWITCH1_version2_list1,2022.2.4,143.90994689605458,
REPSWITCH1/PICTURE_338.png,regalo,speak,darkblue,filler,2,F,1,1,1,2,Stim6_Set4,1,switch,23,22,23,0,22,22,22,,,,,,,,,,,,,,,,,,,,,,,124.93461440037936,126.02508250018582,126.02508250018582,126.02508250018582,126.02508250018582,126.02508250018582,126.02508250018582,126.02508250018582,126.02508250018582,None,0,,,C:\2023\REPSWITCH21092023\REPSWITCH_excgange\REPSWITCH_excgange\data/340201_REPSWITCH1_version2_list1_2023-12-12_09h18.08.937_micRespv2l1_recorded\recording_micRespv2l1_2023-12-12_09h20.08.037.wav,129.04624120006338,129.54632459999993,None,129.04624120006338,129.04624120006338,129.04624120006338,129.04624120006338,129.04624120006338,129.04624120006338,,,,,,340201,001,2023-12-12_09h18.08.937,REPSWITCH1_version2_list1,2022.2.4,143.90994689605458,
REPSWITCH1/PICTURE_728.png,pulpo,type,gold,filler,1,F,1,1,1,2,Stim8_Set4,1,switch,24,23,24,0,23,23,23,,,,,,,,,,,,,,,,,,,,,,,129.54632459999993,130.62978840013966,130.62978840013966,130.62978840013966,130.62978840013966,130.62978840013966,130.62978840013966,130.62978840013966,130.62978840013966,"['p', 'u', 'l', 'p', 'o']",0,"[1.3287518001161516, 1.6277308003045619, 1.9170447001233697, 2.105922100134194, 2.2557172002270818]",pulpo,C:\2023\REPSWITCH21092023\REPSWITCH_excgange\REPSWITCH_excgange\data/340201_REPSWITCH1_version2_list1_2023-12-12_09h18.08.937_micRespv2l1_recorded\recording_micRespv2l1_2023-12-12_09h20.12.641.wav,133.651031000074,134.15106120007113,None,133.651031000074,133.651031000074,133.651031000074,133.651031000074,133.651031000074,133.651031000074,,,,,,340201,001,2023-12-12_09h18.08.937,REPSWITCH1_version2_list1,2022.2.4,143.90994689605458,
REPSWITCH1/PICTURE_169.png,espalda,type,gold,nontarget,1,NT,1,1,1,2,Stim8_Set1,1,repeat,25,24,25,0,24,24,24,,,,,,,,,,,,,,,,,,,,,,,134.15106120007113,135.1859889002517,135.1859889002517,135.1859889002517,135.1859889002517,135.1859889002517,135.1859889002517,135.1859889002517,135.1859889002517,"['e', 's', 'p', 'a', 'l', 'd', 'a']",0,"[1.2765298997983336, 1.4760940000414848, 1.6389504000544548, 1.6921143997460604, 1.8638434996828437, 1.9734775996766984, 2.1668373998254538]",espalda,C:\2023\REPSWITCH21092023\REPSWITCH_excgange\REPSWITCH_excgange\data/340201_REPSWITCH1_version2_list1_2023-12-12_09h18.08.937_micRespv2l1_recorded\recording_micRespv2l1_2023-12-12_09h20.17.198.wav,138.21410230034962,,None,138.21410230034962,138.21410230034962,138.21410230034962,138.21410230034962,138.21410230034962,138.21410230034962,,,,,,340201,001,2023-12-12_09h18.08.937,REPSWITCH1_version2_list1,2022.2.4,143.90994689605458,
REPSWITCH1/PICTURE_169.png,espalda,speak,darkblue,switch,2,T,1,1,1,2,Stim8_Set1,0,None,26,25,26,0,25,25,25,,,,,,,,,,,,,,,,,,,,,,,138.7141708000563,139.74904819997028,139.74904819997028,139.74904819997028,139.74904819997028,139.74904819997028,139.74904819997028,139.74904819997028,139.74904819997028,None,0,,,C:\2023\REPSWITCH21092023\REPSWITCH_excgange\REPSWITCH_excgange\data/340201_REPSWITCH1_version2_list1_2023-12-12_09h18.08.937_micRespv2l1_recorded\recording_micRespv2l1_2023-12-12_09h20.21.761.wav,142.77028289996088,143.270347900223,None,142.77028289996088,142.77028289996088,142.77028289996088,142.77028289996088,142.77028289996088,142.77028289996088,,,,,,340201,001,2023-12-12_09h18.08.937,REPSWITCH1_version2_list1,2022.2.4,143.90994689605458,
REPSWITCH1/PICTURE_178.png,puente,speak,darkblue,filler,2,F,2,1,1,2,Stim1_Set1,0,None,27,26,27,0,26,26,26,,,,,,,,,,,,,,,,,,,,,,,143.270347900223,144.5206067999825,144.5206067999825,144.5206067999825,144.5206067999825,144.5206067999825,144.5206067999825,144.5206067999825,144.5206067999825,None,0,,,C:\2023\REPSWITCH21092023\REPSWITCH_excgange\REPSWITCH_excgange\data/340201_REPSWITCH1_version2_list1_2023-12-12_09h18.08.937_micRespv2l1_recorded\recording_micRespv2l1_2023-12-12_09h20.26.532.wav,147.54174490040168,148.04180570039898,None,147.54174490040168,147.54174490040168,147.54174490040168,147.54174490040168,147.54174490040168,147.54174490040168,,,,,,340201,001,2023-12-12_09h18.08.937,REPSWITCH1_version2_list1,2022.2.4,143.90994689605458,
REPSWITCH1/PICTURE_175.png,pintor,type,gold,nontarget,1,NT,2,1,1,2,Stim1_Set2,1,switch,28,27,28,0,27,27,27,,,,,,,,,,,,,,,,,,,,,,,148.04180570039898,149.1739635001868,149.1739635001868,149.1739635001868,149.1739635001868,149.1739635001868,149.1739635001868,149.1739635001868,149.1739635001868,"['p', 'i', 'n', 't', 'o', 'r']",0,"[1.1653443002142012, 1.3787386999465525, 1.7510832003317773, 1.9802932003512979, 2.1138772000558674, 2.1746398000977933]",pintor,C:\2023\REPSWITCH21092023\REPSWITCH_excgange\REPSWITCH_excgange\data/340201_REPSWITCH1_version2_list1_2023-12-12_09h18.08.937_micRespv2l1_recorded\recording_micRespv2l1_2023-12-12_09h20.31.186.wav,152.2021231004037,,None,152.2021231004037,152.2021231004037,152.2021231004037,152.2021231004037,152.2021231004037,152.2021231004037,,,,,,340201,001,2023-12-12_09h18.08.937,REPSWITCH1_version2_list1,2022.2.4,143.90994689605458,
REPSWITCH1/PICTURE_175.png,pintor,type,gold,repeat,1,T,2,1,1,2,Stim1_Set2,0,None,29,28,29,0,28,28,28,,,,,,,,,,,,,,,,,,,,,,,152.70211610011756,153.7578509002924,153.7578509002924,153.7578509002924,153.7578509002924,153.7578509002924,153.7578509002924,153.7578509002924,153.7578509002924,"['p', 'i', 'n', 't', 'o', 'r']",0,"[1.2322144000791013, 1.5991551000624895, 1.8084856001660228, 1.9622471001930535, 2.121049600187689, 2.2171515999361873]",pintor,C:\2023\REPSWITCH21092023\REPSWITCH_excgange\REPSWITCH_excgange\data/340201_REPSWITCH1_version2_list1_2023-12-12_09h18.08.937_micRespv2l1_recorded\recording_micRespv2l1_2023-12-12_09h20.35.771.wav,156.78601490007713,,None,156.78601490007713,156.78601490007713,156.78601490007713,156.78601490007713,156.78601490007713,156.78601490007713,,,,,,340201,001,2023-12-12_09h18.08.937,REPSWITCH1_version2_list1,2022.2.4,143.90994689605458,
REPSWITCH1/PICTURE_381.png,fresa,speak,darkblue,filler,2,F,2,1,1,2,Stim2_Set1,0,None,30,29,30,0,29,29,29,,,,,,,,,,,,,,,,,,,,,,,157.28605190012604,158.4459610003978,158.4459610003978,158.4459610003978,158.4459610003978,158.4459610003978,158.4459610003978,158.4459610003978,158.4459610003978,None,0,,,C:\2023\REPSWITCH21092023\REPSWITCH_excgange\REPSWITCH_excgange\data/340201_REPSWITCH1_version2_list1_2023-12-12_09h18.08.937_micRespv2l1_recorded\recording_micRespv2l1_2023-12-12_09h20.40.459.wav,161.47412320040166,,None,161.47412320040166,161.47412320040166,161.47412320040166,161.47412320040166,161.47412320040166,161.47412320040166,,,,,,340201,001,2023-12-12_09h18.08.937,REPSWITCH1_version2_list1,2022.2.4,143.90994689605458,
REPSWITCH1/PICTURE_152.png,caracol,type,gold,nontarget,1,NT,2,1,1,2,Stim2_Set2,1,switch,31,30,31,0,30,30,30,,,,,,,,,,,,,,,,,,,,,,,161.9741512001492,163.02300570020452,163.02300570020452,163.02300570020452,163.02300570020452,163.02300570020452,163.02300570020452,163.02300570020452,163.02300570020452,"['c', 'a', 'r', 'c', 'o', 'l']",0,"[1.1263622003607452, 1.2489424999803305, 1.4223517002537847, 1.7319558002054691, 1.9172965004108846, 2.071822199970484]",carcol,C:\2023\REPSWITCH21092023\REPSWITCH_excgange\REPSWITCH_excgange\data/340201_REPSWITCH1_version2_list1_2023-12-12_09h18.08.937_micRespv2l1_recorded\recording_micRespv2l1_2023-12-12_09h20.45.035.wav,166.04414910031483,166.54421190032735,None,166.04414910031483,166.04414910031483,166.04414910031483,166.04414910031483,166.04414910031483,166.04414910031483,,,,,,340201,001,2023-12-12_09h18.08.937,REPSWITCH1_version2_list1,2022.2.4,143.90994689605458,
REPSWITCH1/PICTURE_152.png,caracol,type,gold,repeat,1,T,2,1,1,2,Stim2_Set2,0,None,32,31,32,0,31,31,31,,,,,,,,,,,,,,,,,,,,,,,166.54421190032735,167.71110180020332,167.71110180020332,167.71110180020332,167.71110180020332,167.71110180020332,167.71110180020332,167.71110180020332,167.71110180020332,"['c', 'a', 'r', 'a', 'c', 'o', 'l']",0,"[0.7475092001259327, 0.9218758000060916, 1.0564156002365053, 1.1729868003167212, 1.3015173003077507, 1.599185900297016, 1.791852000169456]",caracol,C:\2023\REPSWITCH21092023\REPSWITCH_excgange\REPSWITCH_excgange\data/340201_REPSWITCH1_version2_list1_2023-12-12_09h18.08.937_micRespv2l1_recorded\recording_micRespv2l1_2023-12-12_09h20.49.723.wav,170.73926770035177,,None,170.73926770035177,170.73926770035177,170.73926770035177,170.73926770035177,170.73926770035177,170.73926770035177,,,,,,340201,001,2023-12-12_09h18.08.937,REPSWITCH1_version2_list1,2022.2.4,143.90994689605458,
REPSWITCH1/PICTURE_128.png,muñeca,speak,darkblue,filler,2,F,2,1,1,2,Stim4_Set1,0,None,33,32,33,0,32,32,32,,,,,,,,,,,,,,,,,,,,,,,171.2392808003351,172.41311910003424,172.41311910003424,172.41311910003424,172.41311910003424,172.41311910003424,172.41311910003424,172.41311910003424,172.41311910003424,None,0,,,C:\2023\REPSWITCH21092023\REPSWITCH_excgange\REPSWITCH_excgange\data/340201_REPSWITCH1_version2_list1_2023-12-12_09h18.08.937_micRespv2l1_recorded\recording_micRespv2l1_2023-12-12_09h20.54.424.wav,175.4342849003151,175.93435810040683,None,175.4342849003151,175.4342849003151,175.4342849003151,175.4342849003151,175.4342849003151,175.4342849003151,,,,,,340201,001,2023-12-12_09h18.08.937,REPSWITCH1_version2_list1,2022.2.4,143.90994689605458,
REPSWITCH1/PICTURE_264.png,mano,type,gold,nontarget,1,NT,2,1,1,2,Stim3_Set2,0,None,34,33,34,0,33,33,33,,,,,,,,,,,,,,,,,,,,,,,175.93435810040683,176.96922320034355,176.96922320034355,176.96922320034355,176.96922320034355,176.96922320034355,176.96922320034355,176.96922320034355,176.96922320034355,"['m', 'a', 'n', 'o']",0,"[1.106613699812442, 1.200300700031221, 1.3200873001478612, 1.5353476000018418]",mano,C:\2023\REPSWITCH21092023\REPSWITCH_excgange\REPSWITCH_excgange\data/340201_REPSWITCH1_version2_list1_2023-12-12_09h18.08.937_micRespv2l1_recorded\recording_micRespv2l1_2023-12-12_09h20.58.980.wav,179.99045190028846,180.49050750024617,None,179.99045190028846,179.99045190028846,179.99045190028846,179.99045190028846,179.99045190028846,179.99045190028846,,,,,,340201,001,2023-12-12_09h18.08.937,REPSWITCH1_version2_list1,2022.2.4,143.90994689605458,
REPSWITCH1/PICTURE_264.png,mano,speak,darkblue,switch,2,T,2,1,1,2,Stim3_Set2,0,None,35,34,35,0,34,34,34,,,,,,,,,,,,,,,,,,,,,,,180.49050750024617,181.59484320040792,181.59484320040792,181.59484320040792,181.59484320040792,181.59484320040792,181.59484320040792,181.59484320040792,181.59484320040792,None,0,,,C:\2023\REPSWITCH21092023\REPSWITCH_excgange\REPSWITCH_excgange\data/340201_REPSWITCH1_version2_list1_2023-12-12_09h18.08.937_micRespv2l1_recorded\recording_micRespv2l1_2023-12-12_09h21.03.607.wav,184.62307320022956,,None,184.62307320022956,184.62307320022956,184.62307320022956,184.62307320022956,184.62307320022956,184.62307320022956,,,,,,340201,001,2023-12-12_09h18.08.937,REPSWITCH1_version2_list1,2022.2.4,143.90994689605458,
REPSWITCH1/PICTURE_517.png,cuerda,speak,darkblue,nontarget,2,NT,2,1,1,2,Stim4_Set2,1,repeat,36,35,36,0,35,35,35,,,,,,,,,,,,,,,,,,,,,,,185.12303610006347,186.35245370026678,186.35245370026678,186.35245370026678,186.35245370026678,186.35245370026678,186.35245370026678,186.35245370026678,186.35245370026678,None,0,,,C:\2023\REPSWITCH21092023\REPSWITCH_excgange\REPSWITCH_excgange\data/340201_REPSWITCH1_version2_list1_2023-12-12_09h18.08.937_micRespv2l1_recorded\recording_micRespv2l1_2023-12-12_09h21.08.363.wav,189.37358330003917,189.87368250032887,None,189.37358330003917,189.37358330003917,189.37358330003917,189.37358330003917,189.37358330003917,189.37358330003917,,,,,,340201,001,2023-12-12_09h18.08.937,REPSWITCH1_version2_list1,2022.2.4,143.90994689605458,
REPSWITCH1/PICTURE_517.png,cuerda,type,gold,switch,1,T,2,1,1,2,Stim4_Set2,0,None,37,36,37,0,36,36,36,,,,,,,,,,,,,,,,,,,,,,,189.87368250032887,190.90861190017313,190.90861190017313,190.90861190017313,190.90861190017313,190.90861190017313,190.90861190017313,190.90861190017313,190.90861190017313,"['c', 'u', 'e', 'r', 'd', 'a']",0,"[0.660122400149703, 0.8364500002935529, 1.0207710000686347, 1.15734690008685, 1.317477300297469, 1.3403982003219426]",cuerda,C:\2023\REPSWITCH21092023\REPSWITCH_excgange\REPSWITCH_excgange\data/340201_REPSWITCH1_version2_list1_2023-12-12_09h18.08.937_micRespv2l1_recorded\recording_micRespv2l1_2023-12-12_09h21.12.920.wav,193.92977990023792,194.42986020026729,None,193.92977990023792,193.92977990023792,193.92977990023792,193.92977990023792,193.92977990023792,193.92977990023792,,,,,,340201,001,2023-12-12_09h18.08.937,REPSWITCH1_version2_list1,2022.2.4,143.90994689605458,
REPSWITCH1/PICTURE_135.png,traje,type,gold,filler,1,F,2,1,1,2,Stim3_Set1,0,None,38,37,38,0,37,37,37,,,,,,,,,,,,,,,,,,,,,,,194.42986020026729,195.43698400026187,195.43698400026187,195.43698400026187,195.43698400026187,195.43698400026187,195.43698400026187,195.43698400026187,195.43698400026187,"['t', 'r', 'a', 'j', 'e']",0,"[1.2557613998651505, 1.4022613000124693, 1.492968900129199, 1.720053399913013, 1.821110799908638]",traje,C:\2023\REPSWITCH21092023\REPSWITCH_excgange\REPSWITCH_excgange\data/340201_REPSWITCH1_version2_list1_2023-12-12_09h18.08.937_micRespv2l1_recorded\recording_micRespv2l1_2023-12-12_09h21.17.449.wav,198.45819539995864,198.95825510006398,None,198.45819539995864,198.45819539995864,198.45819539995864,198.45819539995864,198.45819539995864,198.45819539995864,,,,,,340201,001,2023-12-12_09h18.08.937,REPSWITCH1_version2_list1,2022.2.4,143.90994689605458,
REPSWITCH1/PICTURE_30.png,granja,type,gold,nontarget,1,NT,2,1,1,2,Stim5_Set2,1,repeat,39,38,39,0,38,38,38,,,,,,,,,,,,,,,,,,,,,,,198.95825510006398,200.05565770016983,200.05565770016983,200.05565770016983,200.05565770016983,200.05565770016983,200.05565770016983,200.05565770016983,200.05565770016983,"['g', 'r', 'a', 'n', 'j', 'a']",0,"[1.2360259997658432, 1.4064150000922382, 1.519073999952525, 1.7204577000811696, 1.9087795000523329, 1.9587376997806132]",granja,C:\2023\REPSWITCH21092023\REPSWITCH_excgange\REPSWITCH_excgange\data/340201_REPSWITCH1_version2_list1_2023-12-12_09h18.08.937_micRespv2l1_recorded\recording_micRespv2l1_2023-12-12_09h21.22.068.wav,203.08372450014576,,None,203.08372450014576,203.08372450014576,203.08372450014576,203.08372450014576,203.08372450014576,203.08372450014576,,,,,,340201,001,2023-12-12_09h18.08.937,REPSWITCH1_version2_list1,2022.2.4,143.90994689605458,
REPSWITCH1/PICTURE_30.png,granja,speak,darkblue,switch,2,T,2,1,1,2,Stim5_Set2,0,None,40,39,40,0,39,39,39,,,,,,,,,,,,,,,,,,,,,,,203.58381219999865,204.7367326002568,204.7367326002568,204.7367326002568,204.7367326002568,204.7367326002568,204.7367326002568,204.7367326002568,204.7367326002568,None,0,,,C:\2023\REPSWITCH21092023\REPSWITCH_excgange\REPSWITCH_excgange\data/340201_REPSWITCH1_version2_list1_2023-12-12_09h18.08.937_micRespv2l1_recorded\recording_micRespv2l1_2023-12-12_09h21.26.750.wav,207.7649257001467,,None,207.7649257001467,207.7649257001467,207.7649257001467,207.7649257001467,207.7649257001467,207.7649257001467,,,,,,340201,001,2023-12-12_09h18.08.937,REPSWITCH1_version2_list1,2022.2.4,143.90994689605458,
REPSWITCH1/PICTURE_142.png,vaso,type,gold,filler,1,F,2,1,1,2,Stim7_Set1,0,None,41,40,41,0,40,40,40,,,,,,,,,,,,,,,,,,,,,,,208.26505500031635,209.3484485000372,209.3484485000372,209.3484485000372,209.3484485000372,209.3484485000372,209.3484485000372,209.3484485000372,209.3484485000372,"['v', 'a', 's', 'o']",0,"[0.9888589000329375, 1.0807894002646208, 1.2668121000751853, 1.402627400122583]",vaso,C:\2023\REPSWITCH21092023\REPSWITCH_excgange\REPSWITCH_excgange\data/340201_REPSWITCH1_version2_list1_2023-12-12_09h18.08.937_micRespv2l1_recorded\recording_micRespv2l1_2023-12-12_09h21.31.360.wav,212.3696905001998,212.86975670000538,None,212.3696905001998,212.3696905001998,212.3696905001998,212.3696905001998,212.3696905001998,212.3696905001998,,,,,,340201,001,2023-12-12_09h18.08.937,REPSWITCH1_version2_list1,2022.2.4,143.90994689605458,
REPSWITCH1/PICTURE_19.png,pavo,speak,darkblue,filler,2,F,2,1,1,2,Stim5_Set1,1,switch,42,41,42,0,41,41,41,,,,,,,,,,,,,,,,,,,,,,,212.86975670000538,213.9949448001571,213.9949448001571,213.9949448001571,213.9949448001571,213.9949448001571,213.9949448001571,213.9949448001571,213.9949448001571,None,0,,,C:\2023\REPSWITCH21092023\REPSWITCH_excgange\REPSWITCH_excgange\data/340201_REPSWITCH1_version2_list1_2023-12-12_09h18.08.937_micRespv2l1_recorded\recording_micRespv2l1_2023-12-12_09h21.36.007.wav,217.02312400005758,,None,217.02312400005758,217.02312400005758,217.02312400005758,217.02312400005758,217.02312400005758,217.02312400005758,,,,,,340201,001,2023-12-12_09h18.08.937,REPSWITCH1_version2_list1,2022.2.4,143.90994689605458,
REPSWITCH1/PICTURE_552.png,manzana,speak,darkblue,nontarget,2,NT,2,1,1,2,Stim6_Set2,1,repeat,43,42,43,0,42,42,42,,,,,,,,,,,,,,,,,,,,,,,217.52311920002103,218.58578089997172,218.58578089997172,218.58578089997172,218.58578089997172,218.58578089997172,218.58578089997172,218.58578089997172,218.58578089997172,None,0,,,C:\2023\REPSWITCH21092023\REPSWITCH_excgange\REPSWITCH_excgange\data/340201_REPSWITCH1_version2_list1_2023-12-12_09h18.08.937_micRespv2l1_recorded\recording_micRespv2l1_2023-12-12_09h21.40.597.wav,221.61396890040487,,None,221.61396890040487,221.61396890040487,221.61396890040487,221.61396890040487,221.61396890040487,221.61396890040487,,,,,,340201,001,2023-12-12_09h18.08.937,REPSWITCH1_version2_list1,2022.2.4,143.90994689605458,
REPSWITCH1/PICTURE_552.png,manzana,speak,darkblue,repeat,2,T,2,1,1,2,Stim6_Set2,0,None,44,43,44,0,43,43,43,,,,,,,,,,,,,,,,,,,,,,,222.11400490021333,223.15581590030342,223.15581590030342,223.15581590030342,223.15581590030342,223.15581590030342,223.15581590030342,223.15581590030342,223.15581590030342,None,0,,,C:\2023\REPSWITCH21092023\REPSWITCH_excgange\REPSWITCH_excgange\data/340201_REPSWITCH1_version2_list1_2023-12-12_09h18.08.937_micRespv2l1_recorded\recording_micRespv2l1_2023-12-12_09h21.45.168.wav,226.17702030017972,226.67709350027144,None,226.17702030017972,226.17702030017972,226.17702030017972,226.17702030017972,226.17702030017972,226.17702030017972,,,,,,340201,001,2023-12-12_09h18.08.937,REPSWITCH1_version2_list1,2022.2.4,143.90994689605458,
REPSWITCH1/PICTURE_16.png,cazador,type,gold,filler,1,F,2,1,1,2,Stim6_Set1,0,None,45,44,45,0,44,44,44,,,,,,,,,,,,,,,,,,,,,,,226.67709350027144,227.80233980016783,227.80233980016783,227.80233980016783,227.80233980016783,227.80233980016783,227.80233980016783,227.80233980016783,227.80233980016783,"['c', 'a', 'z', 'a', 'd', 'o', 'r']",0,"[0.972397199831903, 1.124852600041777, 1.332742199767381, 1.5492799999192357, 1.672257199883461, 1.9717123000882566, 2.059419999830425]",cazador,C:\2023\REPSWITCH21092023\REPSWITCH_excgange\REPSWITCH_excgange\data/340201_REPSWITCH1_version2_list1_2023-12-12_09h18.08.937_micRespv2l1_recorded\recording_micRespv2l1_2023-12-12_09h21.49.813.wav,230.82350310031325,231.32356610009447,None,230.82350310031325,230.82350310031325,230.82350310031325,230.82350310031325,230.82350310031325,230.82350310031325,,,,,,340201,001,2023-12-12_09h18.08.937,REPSWITCH1_version2_list1,2022.2.4,143.90994689605458,
REPSWITCH1/PICTURE_446.png,cerdo,speak,darkblue,nontarget,2,NT,2,1,1,2,Stim7_Set2,1,switch,46,45,46,0,45,45,45,,,,,,,,,,,,,,,,,,,,,,,231.32356610009447,232.48343820031732,232.48343820031732,232.48343820031732,232.48343820031732,232.48343820031732,232.48343820031732,232.48343820031732,232.48343820031732,None,0,,,C:\2023\REPSWITCH21092023\REPSWITCH_excgange\REPSWITCH_excgange\data/340201_REPSWITCH1_version2_list1_2023-12-12_09h18.08.937_micRespv2l1_recorded\recording_micRespv2l1_2023-12-12_09h21.54.496.wav,235.51161870034412,,None,235.51161870034412,235.51161870034412,235.51161870034412,235.51161870034412,235.51161870034412,235.51161870034412,,,,,,340201,001,2023-12-12_09h18.08.937,REPSWITCH1_version2_list1,2022.2.4,143.90994689605458,
REPSWITCH1/PICTURE_446.png,cerdo,speak,darkblue,repeat,2,T,2,1,1,2,Stim7_Set2,0,None,47,46,47,0,46,46,46,,,,,,,,,,,,,,,,,,,,,,,236.01166300009936,237.11599750025198,237.11599750025198,237.11599750025198,237.11599750025198,237.11599750025198,237.11599750025198,237.11599750025198,237.11599750025198,None,0,,,C:\2023\REPSWITCH21092023\REPSWITCH_excgange\REPSWITCH_excgange\data/340201_REPSWITCH1_version2_list1_2023-12-12_09h18.08.937_micRespv2l1_recorded\recording_micRespv2l1_2023-12-12_09h21.59.128.wav,240.1442053001374,,None,240.1442053001374,240.1442053001374,240.1442053001374,240.1442053001374,240.1442053001374,240.1442053001374,,,,,,340201,001,2023-12-12_09h18.08.937,REPSWITCH1_version2_list1,2022.2.4,143.90994689605458,
REPSWITCH1/PICTURE_590.png,escoba,type,gold,filler,1,F,2,1,1,2,Extra3,0,None,48,47,48,0,47,47,47,,,,,,,,,,,,,,,,,,,,,,,240.64420190034434,241.75555270025507,241.75555270025507,241.75555270025507,241.75555270025507,241.75555270025507,241.75555270025507,241.75555270025507,241.75555270025507,"['e', 's', 'c', 'o', 'b', 'a']",0,"[1.1366774998605251, 1.327306800056249, 1.4768395996652544, 1.7398378998041153, 1.9803586998023093, 2.1110657998360693]",escoba,C:\2023\REPSWITCH21092023\REPSWITCH_excgange\REPSWITCH_excgange\data/340201_REPSWITCH1_version2_list1_2023-12-12_09h18.08.937_micRespv2l1_recorded\recording_micRespv2l1_2023-12-12_09h22.03.768.wav,244.7836692002602,,None,244.7836692002602,244.7836692002602,244.7836692002602,244.7836692002602,244.7836692002602,244.7836692002602,,,,,,340201,001,2023-12-12_09h18.08.937,REPSWITCH1_version2_list1,2022.2.4,143.90994689605458,
REPSWITCH1/PICTURE_169.png,espalda,speak,darkblue,filler,2,F,2,1,1,2,Stim8_Set1,0,None,49,48,49,0,48,48,48,,,,,,,,,,,,,,,,,,,,,,,245.2837336002849,246.36718690022826,246.36718690022826,246.36718690022826,246.36718690022826,246.36718690022826,246.36718690022826,246.36718690022826,246.36718690022826,None,0,,,C:\2023\REPSWITCH21092023\REPSWITCH_excgange\REPSWITCH_excgange\data/340201_REPSWITCH1_version2_list1_2023-12-12_09h18.08.937_micRespv2l1_recorded\recording_micRespv2l1_2023-12-12_09h22.08.380.wav,249.39544770028442,,None,249.39544770028442,249.39544770028442,249.39544770028442,249.39544770028442,249.39544770028442,249.39544770028442,,,,,,340201,001,2023-12-12_09h18.08.937,REPSWITCH1_version2_list1,2022.2.4,143.90994689605458,
REPSWITCH1/PICTURE_199.png,falda,speak,darkblue,nontarget,2,NT,2,1,1,2,Stim8_Set2,1,repeat,50,49,50,0,49,49,49,,,,,,,,,,,,,,,,,,,,,,,249.89543000003323,250.98585620010272,250.98585620010272,250.98585620010272,250.98585620010272,250.98585620010272,250.98585620010272,250.98585620010272,250.98585620010272,None,0,,,C:\2023\REPSWITCH21092023\REPSWITCH_excgange\REPSWITCH_excgange\data/340201_REPSWITCH1_version2_list1_2023-12-12_09h18.08.937_micRespv2l1_recorded\recording_micRespv2l1_2023-12-12_09h22.12.998.wav,254.01401480007917,,None,254.01401480007917,254.01401480007917,254.01401480007917,254.01401480007917,254.01401480007917,254.01401480007917,,,,,,340201,001,2023-12-12_09h18.08.937,REPSWITCH1_version2_list1,2022.2.4,143.90994689605458,
REPSWITCH1/PICTURE_199.png,falda,type,gold,switch,1,T,2,1,1,2,Stim8_Set2,0,None,51,50,51,0,50,50,50,,,,,,,,,,,,,,,,,,,,,,,254.51408220035955,255.64627410005778,255.64627410005778,255.64627410005778,255.64627410005778,255.64627410005778,255.64627410005778,255.64627410005778,255.64627410005778,"['f', 'a', 'l', 'd', 'a']",0,"[1.1068482999689877, 1.3147459998726845, 1.5872442997060716, 1.8825268996879458, 1.9563130997121334]",falda,C:\2023\REPSWITCH21092023\REPSWITCH_excgange\REPSWITCH_excgange\data/340201_REPSWITCH1_version2_list1_2023-12-12_09h18.08.937_micRespv2l1_recorded\recording_micRespv2l1_2023-12-12_09h22.17.658.wav,258.67438490036875,,space,258.67438490036875,258.67438490036875,258.67438490036875,258.67438490036875,258.67438490036875,258.67438490036875,259.1744326003827,259.1744326003827,1.5636791000142694,,,340201,001,2023-12-12_09h18.08.937,REPSWITCH1_version2_list1,2022.2.4,143.90994689605458,
REPSWITCH1/PICTURE_576.png,guante,type,gold,nontarget,1,NT,3,1,1,2,Stim1_Set3,0,None,52,51,52,0,51,51,51,,,,,,,,,,,,,,,,,,,,,,,260.751080499962,261.89702150039375,261.89702150039375,261.89702150039375,261.89702150039375,261.89702150039375,261.89702150039375,261.89702150039375,261.89702150039375,"['g', 'u', 'a', 'n', 't', 'e']",0,"[1.8359870999120176, 2.0583367999643087, 2.1948812999762595, 2.310480599757284, 2.4861717000603676, 2.5300576998852193]",guante,C:\2023\REPSWITCH21092023\REPSWITCH_excgange\REPSWITCH_excgange\data/340201_REPSWITCH1_version2_list1_2023-12-12_09h18.08.937_micRespv2l1_recorded\recording_micRespv2l1_2023-12-12_09h22.23.909.wav,264.91824430041015,265.41838760022074,None,264.91824430041015,264.91824430041015,264.91824430041015,264.91824430041015,264.91824430041015,264.91824430041015,,,,,,340201,001,2023-12-12_09h18.08.937,REPSWITCH1_version2_list1,2022.2.4,143.90994689605458,
REPSWITCH1/PICTURE_576.png,guante,speak,darkblue,switch,2,T,3,1,1,2,Stim1_Set3,0,None,53,52,53,0,52,52,52,,,,,,,,,,,,,,,,,,,,,,,265.41838760022074,266.5851161000319,266.5851161000319,266.5851161000319,266.5851161000319,266.5851161000319,266.5851161000319,266.5851161000319,266.5851161000319,None,0,,,C:\2023\REPSWITCH21092023\REPSWITCH_excgange\REPSWITCH_excgange\data/340201_REPSWITCH1_version2_list1_2023-12-12_09h18.08.937_micRespv2l1_recorded\recording_micRespv2l1_2023-12-12_09h22.28.596.wav,269.60642940038815,270.1064315000549,None,269.60642940038815,269.60642940038815,269.60642940038815,269.60642940038815,269.60642940038815,269.60642940038815,,,,,,340201,001,2023-12-12_09h18.08.937,REPSWITCH1_version2_list1,2022.2.4,143.90994689605458,
REPSWITCH1/PICTURE_646.png,tronco,speak,darkblue,filler,2,F,3,1,1,2,Extra4,0,None,54,53,54,0,53,53,53,,,,,,,,,,,,,,,,,,,,,,,270.1064315000549,271.3218426001258,271.3218426001258,271.3218426001258,271.3218426001258,271.3218426001258,271.3218426001258,271.3218426001258,271.3218426001258,None,0,,,C:\2023\REPSWITCH21092023\REPSWITCH_excgange\REPSWITCH_excgange\data/340201_REPSWITCH1_version2_list1_2023-12-12_09h18.08.937_micRespv2l1_recorded\recording_micRespv2l1_2023-12-12_09h22.33.333.wav,274.34310010029003,274.84314060024917,None,274.34310010029003,274.34310010029003,274.34310010029003,274.34310010029003,274.34310010029003,274.34310010029003,,,,,,340201,001,2023-12-12_09h18.08.937,REPSWITCH1_version2_list1,2022.2.4,143.90994689605458,
REPSWITCH1/PICTURE_610.png,miel,speak,darkblue,nontarget,2,NT,3,1,1,2,Stim2_Set3,1,repeat,55,54,55,0,54,54,54,,,,,,,,,,,,,,,,,,,,,,,274.84314060024917,275.96145160030574,275.96145160030574,275.96145160030574,275.96145160030574,275.96145160030574,275.96145160030574,275.96145160030574,275.96145160030574,None,0,,,C:\2023\REPSWITCH21092023\REPSWITCH_excgange\REPSWITCH_excgange\data/340201_REPSWITCH1_version2_list1_2023-12-12_09h18.08.937_micRespv2l1_recorded\recording_micRespv2l1_2023-12-12_09h22.37.972.wav,278.9825985999778,279.4826635001227,None,278.9825985999778,278.9825985999778,278.9825985999778,278.9825985999778,278.9825985999778,278.9825985999778,,,,,,340201,001,2023-12-12_09h18.08.937,REPSWITCH1_version2_list1,2022.2.4,143.90994689605458,
REPSWITCH1/PICTURE_610.png,miel,type,gold,switch,1,T,3,1,1,2,Stim2_Set3,0,None,56,55,56,0,55,55,55,,,,,,,,,,,,,,,,,,,,,,,279.4826635001227,280.6703379000537,280.6703379000537,280.6703379000537,280.6703379000537,280.6703379000537,280.6703379000537,280.6703379000537,280.6703379000537,"['m', 'i', 'e', 'l']",0,"[0.9662924003787339, 1.151199100073427, 1.2578446003608406, 1.4262489001266658]",miel,C:\2023\REPSWITCH21092023\REPSWITCH_excgange\REPSWITCH_excgange\data/340201_REPSWITCH1_version2_list1_2023-12-12_09h18.08.937_micRespv2l1_recorded\recording_micRespv2l1_2023-12-12_09h22.42.682.wav,283.698563599959,,None,283.698563599959,283.698563599959,283.698563599959,283.698563599959,283.698563599959,283.698563599959,,,,,,340201,001,2023-12-12_09h18.08.937,REPSWITCH1_version2_list1,2022.2.4,143.90994689605458,
REPSWITCH1/PICTURE_175.png,pintor,type,gold,filler,1,F,3,1,1,2,Stim1_Set2,1,repeat,57,56,57,0,56,56,56,,,,,,,,,,,,,,,,,,,,,,,284.1985605000518,285.2334186001681,285.2334186001681,285.2334186001681,285.2334186001681,285.2334186001681,285.2334186001681,285.2334186001681,285.2334186001681,"['p', 'i', 'n', 't', 'r', 'o']",0,"[1.0535571998916566, 1.2906960998661816, 1.5135825998149812, 1.7248749998398125, 1.9450980997644365, 2.10693349968642]",pintro,C:\2023\REPSWITCH21092023\REPSWITCH_excgange\REPSWITCH_excgange\data/340201_REPSWITCH1_version2_list1_2023-12-12_09h18.08.937_micRespv2l1_recorded\recording_micRespv2l1_2023-12-12_09h22.47.246.wav,288.261665600352,,None,288.261665600352,288.261665600352,288.261665600352,288.261665600352,288.261665600352,288.261665600352,,,,,,340201,001,2023-12-12_09h18.08.937,REPSWITCH1_version2_list1,2022.2.4,143.90994689605458,
REPSWITCH1/PICTURE_242.png,cartero,type,gold,nontarget,1,NT,3,1,1,2,Stim3_Set3,1,repeat,58,57,58,0,57,57,57,,,,,,,,,,,,,,,,,,,,,,,288.7616547001526,289.8798569999635,289.8798569999635,289.8798569999635,289.8798569999635,289.8798569999635,289.8798569999635,289.8798569999635,289.8798569999635,"['c', 'a', 'r', 't', 'e', 'r', 'o']",0,"[1.8876320999115705, 2.0210988000035286, 2.138724699616432, 2.308462099637836, 2.3881599996238947, 2.5486586997285485, 2.6483119996264577]",cartero,C:\2023\REPSWITCH21092023\REPSWITCH_excgange\REPSWITCH_excgange\data/340201_REPSWITCH1_version2_list1_2023-12-12_09h18.08.937_micRespv2l1_recorded\recording_micRespv2l1_2023-12-12_09h22.51.892.wav,292.908005699981,,None,292.908005699981,292.908005699981,292.908005699981,292.908005699981,292.908005699981,292.908005699981,,,,,,340201,001,2023-12-12_09h18.08.937,REPSWITCH1_version2_list1,2022.2.4,143.90994689605458,
REPSWITCH1/PICTURE_242.png,cartero,speak,darkblue,switch,2,T,3,1,1,2,Stim3_Set3,0,None,59,58,59,0,58,58,58,,,,,,,,,,,,,,,,,,,,,,,293.40814319998026,294.4151666001417,294.4151666001417,294.4151666001417,294.4151666001417,294.4151666001417,294.4151666001417,294.4151666001417,294.4151666001417,None,0,,,C:\2023\REPSWITCH21092023\REPSWITCH_excgange\REPSWITCH_excgange\data/340201_REPSWITCH1_version2_list1_2023-12-12_09h18.08.937_micRespv2l1_recorded\recording_micRespv2l1_2023-12-12_09h22.56.427.wav,297.436418000143,297.9364709001966,None,297.436418000143,297.436418000143,297.436418000143,297.436418000143,297.436418000143,297.436418000143,,,,,,340201,001,2023-12-12_09h18.08.937,REPSWITCH1_version2_list1,2022.2.4,143.90994689605458,
REPSWITCH1/PICTURE_152.png,caracol,speak,darkblue,filler,2,F,3,1,1,2,Stim2_Set2,0,None,60,59,60,0,59,59,59,,,,,,,,,,,,,,,,,,,,,,,297.9364709001966,298.9852003999986,298.9852003999986,298.9852003999986,298.9852003999986,298.9852003999986,298.9852003999986,298.9852003999986,298.9852003999986,None,0,,,C:\2023\REPSWITCH21092023\REPSWITCH_excgange\REPSWITCH_excgange\data/340201_REPSWITCH1_version2_list1_2023-12-12_09h18.08.937_micRespv2l1_recorded\recording_micRespv2l1_2023-12-12_09h23.00.998.wav,302.01339630037546,,None,302.01339630037546,302.01339630037546,302.01339630037546,302.01339630037546,302.01339630037546,302.01339630037546,,,,,,340201,001,2023-12-12_09h18.08.937,REPSWITCH1_version2_list1,2022.2.4,143.90994689605458,
REPSWITCH1/PICTURE_517.png,cuerda,type,gold,filler,1,F,3,1,1,2,Stim4_Set2,0,None,61,60,61,0,60,60,60,,,,,,,,,,,,,,,,,,,,,,,302.5135493003763,303.6733886003494,303.6733886003494,303.6733886003494,303.6733886003494,303.6733886003494,303.6733886003494,303.6733886003494,303.6733886003494,"['c', 'u', 'e', 'r', 'd', 'a']",0,"[0.8533244002610445, 1.0269614001736045, 1.1873771999962628, 1.342837099917233, 1.503337699919939, 1.5820848001167178]",cuerda,C:\2023\REPSWITCH21092023\REPSWITCH_excgange\REPSWITCH_excgange\data/340201_REPSWITCH1_version2_list1_2023-12-12_09h18.08.937_micRespv2l1_recorded\recording_micRespv2l1_2023-12-12_09h23.05.686.wav,306.70150660024956,,None,306.70150660024956,306.70150660024956,306.70150660024956,306.70150660024956,306.70150660024956,306.70150660024956,,,,,,340201,001,2023-12-12_09h18.08.937,REPSWITCH1_version2_list1,2022.2.4,143.90994689605458,
REPSWITCH1/PICTURE_235.png,aguja,speak,darkblue,nontarget,2,NT,3,1,1,2,Stim4_Set3,1,switch,62,61,62,0,61,61,61,,,,,,,,,,,,,,,,,,,,,,,307.20156479999423,308.2780949003063,308.2780949003063,308.2780949003063,308.2780949003063,308.2780949003063,308.2780949003063,308.2780949003063,308.2780949003063,None,0,,,C:\2023\REPSWITCH21092023\REPSWITCH_excgange\REPSWITCH_excgange\data/340201_REPSWITCH1_version2_list1_2023-12-12_09h18.08.937_micRespv2l1_recorded\recording_micRespv2l1_2023-12-12_09h23.10.290.wav,311.30628180038184,,None,311.30628180038184,311.30628180038184,311.30628180038184,311.30628180038184,311.30628180038184,311.30628180038184,,,,,,340201,001,2023-12-12_09h18.08.937,REPSWITCH1_version2_list1,2022.2.4,143.90994689605458,
REPSWITCH1/PICTURE_235.png,aguja,speak,darkblue,repeat,2,T,3,1,1,2,Stim4_Set3,0,None,63,62,63,0,62,62,62,,,,,,,,,,,,,,,,,,,,,,,311.80641810037196,312.8828951003961,312.8828951003961,312.8828951003961,312.8828951003961,312.8828951003961,312.8828951003961,312.8828951003961,312.8828951003961,None,0,,,C:\2023\REPSWITCH21092023\REPSWITCH_excgange\REPSWITCH_excgange\data/340201_REPSWITCH1_version2_list1_2023-12-12_09h18.08.937_micRespv2l1_recorded\recording_micRespv2l1_2023-12-12_09h23.14.894.wav,315.9040870000608,316.4041562001221,None,315.9040870000608,315.9040870000608,315.9040870000608,315.9040870000608,315.9040870000608,315.9040870000608,,,,,,340201,001,2023-12-12_09h18.08.937,REPSWITCH1_version2_list1,2022.2.4,143.90994689605458,
REPSWITCH1/PICTURE_30.png,granja,type,gold,filler,1,F,3,1,1,2,Stim5_Set2,0,None,64,63,64,0,63,63,63,,,,,,,,,,,,,,,,,,,,,,,316.4041562001221,317.52237300015986,317.52237300015986,317.52237300015986,317.52237300015986,317.52237300015986,317.52237300015986,317.52237300015986,317.52237300015986,"['g', 'r', 'a', 'n', 'j', 'a']",0,"[1.0187296997755766, 1.1852036998607218, 1.3356637000106275, 1.5971295996569097, 1.877743899822235, 1.9870899999514222]",granja,C:\2023\REPSWITCH21092023\REPSWITCH_excgange\REPSWITCH_excgange\data/340201_REPSWITCH1_version2_list1_2023-12-12_09h18.08.937_micRespv2l1_recorded\recording_micRespv2l1_2023-12-12_09h23.19.535.wav,320.5505485003814,,None,320.5505485003814,320.5505485003814,320.5505485003814,320.5505485003814,320.5505485003814,320.5505485003814,,,,,,340201,001,2023-12-12_09h18.08.937,REPSWITCH1_version2_list1,2022.2.4,143.90994689605458,
REPSWITCH1/PICTURE_552.png,manzana,speak,darkblue,filler,2,F,3,1,1,2,Stim6_Set2,1,switch,65,64,65,0,64,64,64,,,,,,,,,,,,,,,,,,,,,,,321.0506213000044,322.189670199994,322.189670199994,322.189670199994,322.189670199994,322.189670199994,322.189670199994,322.189670199994,322.189670199994,None,0,,,C:\2023\REPSWITCH21092023\REPSWITCH_excgange\REPSWITCH_excgange\data/340201_REPSWITCH1_version2_list1_2023-12-12_09h18.08.937_micRespv2l1_recorded\recording_micRespv2l1_2023-12-12_09h23.24.202.wav,325.2108936002478,325.71101640025154,None,325.2108936002478,325.2108936002478,325.2108936002478,325.2108936002478,325.2108936002478,325.2108936002478,,,,,,340201,001,2023-12-12_09h18.08.937,REPSWITCH1_version2_list1,2022.2.4,143.90994689605458,
REPSWITCH1/PICTURE_35.png,oreja,speak,darkblue,nontarget,2,NT,3,1,1,2,Stim5_Set3,1,repeat,66,65,66,0,65,65,65,,,,,,,,,,,,,,,,,,,,,,,325.71101640025154,326.84997590025887,326.84997590025887,326.84997590025887,326.84997590025887,326.84997590025887,326.84997590025887,326.84997590025887,326.84997590025887,None,0,,,C:\2023\REPSWITCH21092023\REPSWITCH_excgange\REPSWITCH_excgange\data/340201_REPSWITCH1_version2_list1_2023-12-12_09h18.08.937_micRespv2l1_recorded\recording_micRespv2l1_2023-12-12_09h23.28.862.wav,329.87118790019304,330.3712844001129,None,329.87118790019304,329.87118790019304,329.87118790019304,329.87118790019304,329.87118790019304,329.87118790019304,,,,,,340201,001,2023-12-12_09h18.08.937,REPSWITCH1_version2_list1,2022.2.4,143.90994689605458,
REPSWITCH1/PICTURE_35.png,oreja,speak,darkblue,repeat,2,T,3,1,1,2,Stim5_Set3,0,None,67,66,67,0,66,66,66,,,,,,,,,,,,,,,,,,,,,,,330.3712844001129,331.46171850012615,331.46171850012615,331.46171850012615,331.46171850012615,331.46171850012615,331.46171850012615,331.46171850012615,331.46171850012615,None,0,,,C:\2023\REPSWITCH21092023\REPSWITCH_excgange\REPSWITCH_excgange\data/340201_REPSWITCH1_version2_list1_2023-12-12_09h18.08.937_micRespv2l1_recorded\recording_micRespv2l1_2023-12-12_09h23.33.474.wav,334.48987000016496,,None,334.48987000016496,334.48987000016496,334.48987000016496,334.48987000016496,334.48987000016496,334.48987000016496,,,,,,340201,001,2023-12-12_09h18.08.937,REPSWITCH1_version2_list1,2022.2.4,143.90994689605458,
REPSWITCH1/PICTURE_673.png,tenedor,type,gold,filler,1,F,3,1,1,2,Extra5,0,None,68,67,68,0,67,67,67,,,,,,,,,,,,,,,,,,,,,,,334.98997460026294,336.14285750035197,336.14285750035197,336.14285750035197,336.14285750035197,336.14285750035197,336.14285750035197,336.14285750035197,336.14285750035197,"['t', 'e', 'n', 'e', 'd', 'o', 'r']",0,"[1.0346257998608053, 1.21601099986583, 1.339654099661857, 1.7919605998322368, 2.021288199815899, 2.5760439997538924, 2.643809899687767]",tenedor,C:\2023\REPSWITCH21092023\REPSWITCH_excgange\REPSWITCH_excgange\data/340201_REPSWITCH1_version2_list1_2023-12-12_09h18.08.937_micRespv2l1_recorded\recording_micRespv2l1_2023-12-12_09h23.38.155.wav,339.17101900000125,,None,339.17101900000125,339.17101900000125,339.17101900000125,339.17101900000125,339.17101900000125,339.17101900000125,,,,,,340201,001,2023-12-12_09h18.08.937,REPSWITCH1_version2_list1,2022.2.4,143.90994689605458,
REPSWITCH1/PICTURE_464.png,goma,speak,darkblue,nontarget,2,NT,3,1,1,2,Stim6_Set3,0,None,69,68,69,0,68,68,68,,,,,,,,,,,,,,,,,,,,,,,339.67116050003096,340.7893992001191,340.7893992001191,340.7893992001191,340.7893992001191,340.7893992001191,340.7893992001191,340.7893992001191,340.7893992001191,None,0,,,C:\2023\REPSWITCH21092023\REPSWITCH_excgange\REPSWITCH_excgange\data/340201_REPSWITCH1_version2_list1_2023-12-12_09h18.08.937_micRespv2l1_recorded\recording_micRespv2l1_2023-12-12_09h23.42.801.wav,343.81061690021306,344.3106134003028,None,343.81061690021306,343.81061690021306,343.81061690021306,343.81061690021306,343.81061690021306,343.81061690021306,,,,,,340201,001,2023-12-12_09h18.08.937,REPSWITCH1_version2_list1,2022.2.4,143.90994689605458,
REPSWITCH1/PICTURE_464.png,goma,type,gold,switch,1,T,3,1,1,2,Stim6_Set3,0,None,70,69,70,0,69,69,69,,,,,,,,,,,,,,,,,,,,,,,344.3106134003028,345.53994660032913,345.53994660032913,345.53994660032913,345.53994660032913,345.53994660032913,345.53994660032913,345.53994660032913,345.53994660032913,"['g', 'o', 'm', 'a']",0,"[1.0152398003265262, 1.3112071002833545, 1.5485100001096725, 1.6391668999567628]",goma,C:\2023\REPSWITCH21092023\REPSWITCH_excgange\REPSWITCH_excgange\data/340201_REPSWITCH1_version2_list1_2023-12-12_09h18.08.937_micRespv2l1_recorded\recording_micRespv2l1_2023-12-12_09h23.47.552.wav,348.5611514002085,349.0612386004068,None,348.5611514002085,348.5611514002085,348.5611514002085,348.5611514002085,348.5611514002085,348.5611514002085,,,,,,340201,001,2023-12-12_09h18.08.937,REPSWITCH1_version2_list1,2022.2.4,143.90994689605458,
REPSWITCH1/PICTURE_264.png,mano,speak,darkblue,filler,2,F,3,1,1,2,Stim3_Set2,0,None,71,70,71,0,70,70,70,,,,,,,,,,,,,,,,,,,,,,,349.0612386004068,350.1516293003224,350.1516293003224,350.1516293003224,350.1516293003224,350.1516293003224,350.1516293003224,350.1516293003224,350.1516293003224,None,0,,,C:\2023\REPSWITCH21092023\REPSWITCH_excgange\REPSWITCH_excgange\data/340201_REPSWITCH1_version2_list1_2023-12-12_09h18.08.937_micRespv2l1_recorded\recording_micRespv2l1_2023-12-12_09h23.52.164.wav,353.1798987002112,,None,353.1798987002112,353.1798987002112,353.1798987002112,353.1798987002112,353.1798987002112,353.1798987002112,,,,,,340201,001,2023-12-12_09h18.08.937,REPSWITCH1_version2_list1,2022.2.4,143.90994689605458,
REPSWITCH1/PICTURE_271.png,conejo,type,gold,nontarget,1,NT,3,1,1,2,Stim7_Set3,1,switch,72,71,72,0,71,71,71,,,,,,,,,,,,,,,,,,,,,,,353.67990060010925,354.74955990025774,354.74955990025774,354.74955990025774,354.74955990025774,354.74955990025774,354.74955990025774,354.74955990025774,354.74955990025774,"['c', 'o', 'n', 'e', 'j', 'o']",0,"[1.0148827000521123, 1.1552810999564826, 1.3785386998206377, 1.4871621998026967, 1.6307473997585475, 1.8532336996868253]",conejo,C:\2023\REPSWITCH21092023\REPSWITCH_excgange\REPSWITCH_excgange\data/340201_REPSWITCH1_version2_list1_2023-12-12_09h18.08.937_micRespv2l1_recorded\recording_micRespv2l1_2023-12-12_09h23.56.761.wav,357.7707622000016,358.270784500055,None,357.7707622000016,357.7707622000016,357.7707622000016,357.7707622000016,357.7707622000016,357.7707622000016,,,,,,340201,001,2023-12-12_09h18.08.937,REPSWITCH1_version2_list1,2022.2.4,143.90994689605458,
REPSWITCH1/PICTURE_271.png,conejo,type,gold,repeat,1,T,3,1,1,2,Stim7_Set3,0,None,73,72,73,0,72,72,72,,,,,,,,,,,,,,,,,,,,,,,358.270784500055,359.4584212000482,359.4584212000482,359.4584212000482,359.4584212000482,359.4584212000482,359.4584212000482,359.4584212000482,359.4584212000482,"['c', 'o', 'n', 'e', 'j', 'o']",0,"[1.0271200998686254, 1.1606385996565223, 1.408836799673736, 1.5555027998052537, 1.6512854997999966, 1.858875900041312]",conejo,C:\2023\REPSWITCH21092023\REPSWITCH_excgange\REPSWITCH_excgange\data/340201_REPSWITCH1_version2_list1_2023-12-12_09h18.08.937_micRespv2l1_recorded\recording_micRespv2l1_2023-12-12_09h24.01.471.wav,362.4796298001893,362.9797284002416,None,362.4796298001893,362.4796298001893,362.4796298001893,362.4796298001893,362.4796298001893,362.4796298001893,,,,,,340201,001,2023-12-12_09h18.08.937,REPSWITCH1_version2_list1,2022.2.4,143.90994689605458,
REPSWITCH1/PICTURE_446.png,cerdo,speak,darkblue,filler,2,F,3,1,1,2,Stim7_Set2,0,None,74,73,74,0,73,73,73,,,,,,,,,,,,,,,,,,,,,,,362.9797284002416,364.1882348000072,364.1882348000072,364.1882348000072,364.1882348000072,364.1882348000072,364.1882348000072,364.1882348000072,364.1882348000072,None,0,,,C:\2023\REPSWITCH21092023\REPSWITCH_excgange\REPSWITCH_excgange\data/340201_REPSWITCH1_version2_list1_2023-12-12_09h18.08.937_micRespv2l1_recorded\recording_micRespv2l1_2023-12-12_09h24.06.201.wav,367.2163980002515,,None,367.2163980002515,367.2163980002515,367.2163980002515,367.2163980002515,367.2163980002515,367.2163980002515,,,,,,340201,001,2023-12-12_09h18.08.937,REPSWITCH1_version2_list1,2022.2.4,143.90994689605458,
REPSWITCH1/PICTURE_199.png,falda,type,gold,filler,1,F,3,1,1,2,Stim8_Set2,1,switch,75,74,75,0,74,74,74,,,,,,,,,,,,,,,,,,,,,,,367.7164633003995,368.8416123003699,368.8416123003699,368.8416123003699,368.8416123003699,368.8416123003699,368.8416123003699,368.8416123003699,368.8416123003699,"['f', 'a', 'l', 'd', 'a']",0,"[0.9902925998903811, 1.148811399936676, 1.3232110999524593, 1.6461892002262175, 1.7449022000655532]",falda,C:\2023\REPSWITCH21092023\REPSWITCH_excgange\REPSWITCH_excgange\data/340201_REPSWITCH1_version2_list1_2023-12-12_09h18.08.937_micRespv2l1_recorded\recording_micRespv2l1_2023-12-12_09h24.10.854.wav,371.86281030019745,372.3629103000276,None,371.86281030019745,371.86281030019745,371.86281030019745,371.86281030019745,371.86281030019745,371.86281030019745,,,,,,340201,001,2023-12-12_09h18.08.937,REPSWITCH1_version2_list1,2022.2.4,143.90994689605458,
REPSWITCH1/PICTURE_320.png,iglesia,type,gold,nontarget,1,NT,3,1,1,2,Stim8_Set3,1,repeat,76,75,76,0,75,75,75,,,,,,,,,,,,,,,,,,,,,,,372.3629103000276,373.45330090029165,373.45330090029165,373.45330090029165,373.45330090029165,373.45330090029165,373.45330090029165,373.45330090029165,373.45330090029165,"['i', 'g', 'l', 'e', 's', 'i', 'a']",0,"[1.2085793996229768, 1.4208616996183991, 1.5750838997773826, 1.7186049995943904, 1.935944499913603, 2.1502158995717764, 2.2737981998361647]",iglesia,C:\2023\REPSWITCH21092023\REPSWITCH_excgange\REPSWITCH_excgange\data/340201_REPSWITCH1_version2_list1_2023-12-12_09h18.08.937_micRespv2l1_recorded\recording_micRespv2l1_2023-12-12_09h24.15.466.wav,376.48149990011007,,None,376.48149990011007,376.48149990011007,376.48149990011007,376.48149990011007,376.48149990011007,376.48149990011007,,,,,,340201,001,2023-12-12_09h18.08.937,REPSWITCH1_version2_list1,2022.2.4,143.90994689605458,
REPSWITCH1/PICTURE_320.png,iglesia,type,gold,repeat,1,T,3,1,1,2,Stim8_Set3,0,None,77,76,77,0,76,76,76,,,,,,,,,,,,,,,,,,,,,,,376.98162650037557,378.0789776002057,378.0789776002057,378.0789776002057,378.0789776002057,378.0789776002057,378.0789776002057,378.0789776002057,378.0789776002057,"['i', 'g', 'l', 'e', 's', 'i', 'a']",0,"[0.793455199804157, 1.0306505002081394, 1.2101567001082003, 1.381906600203365, 1.654066499788314, 1.8382398001849651, 2.0435407999902964]",iglesia,C:\2023\REPSWITCH21092023\REPSWITCH_excgange\REPSWITCH_excgange\data/340201_REPSWITCH1_version2_list1_2023-12-12_09h18.08.937_micRespv2l1_recorded\recording_micRespv2l1_2023-12-12_09h24.20.091.wav,381.10014440026134,381.6002279003151,None,381.10014440026134,381.10014440026134,381.10014440026134,381.10014440026134,381.10014440026134,381.10014440026134,,,,,,340201,001,2023-12-12_09h18.08.937,REPSWITCH1_version2_list1,2022.2.4,143.90994689605458,
REPSWITCH1/PICTURE_576.png,guante,speak,darkblue,filler,2,F,4,1,1,2,Stim1_Set3,0,None,78,77,78,0,77,77,77,,,,,,,,,,,,,,,,,,,,,,,381.6002279003151,382.66986070014536,382.66986070014536,382.66986070014536,382.66986070014536,382.66986070014536,382.66986070014536,382.66986070014536,382.66986070014536,None,0,,,C:\2023\REPSWITCH21092023\REPSWITCH_excgange\REPSWITCH_excgange\data/340201_REPSWITCH1_version2_list1_2023-12-12_09h18.08.937_micRespv2l1_recorded\recording_micRespv2l1_2023-12-12_09h24.24.682.wav,385.6980259004049,,None,385.6980259004049,385.6980259004049,385.6980259004049,385.6980259004049,385.6980259004049,385.6980259004049,,,,,,340201,001,2023-12-12_09h18.08.937,REPSWITCH1_version2_list1,2022.2.4,143.90994689605458,
REPSWITCH1/PICTURE_319.png,vaca,type,gold,nontarget,1,NT,4,1,1,2,Stim1_Set4,1,switch,79,78,79,0,78,78,78,,,,,,,,,,,,,,,,,,,,,,,386.1980321002193,387.2815910000354,387.2815910000354,387.2815910000354,387.2815910000354,387.2815910000354,387.2815910000354,387.2815910000354,387.2815910000354,"['v', 'a', 'c', 'a']",0,"[1.0955722001381218, 1.216187299694866, 1.3448363998904824, 1.4349182001315057]",vaca,C:\2023\REPSWITCH21092023\REPSWITCH_excgange\REPSWITCH_excgange\data/340201_REPSWITCH1_version2_list1_2023-12-12_09h18.08.937_micRespv2l1_recorded\recording_micRespv2l1_2023-12-12_09h24.29.293.wav,390.3027627002448,390.80281320028007,None,390.3027627002448,390.3027627002448,390.3027627002448,390.3027627002448,390.3027627002448,390.3027627002448,,,,,,340201,001,2023-12-12_09h18.08.937,REPSWITCH1_version2_list1,2022.2.4,143.90994689605458,
REPSWITCH1/PICTURE_319.png,vaca,type,gold,repeat,1,T,4,1,1,2,Stim1_Set4,0,None,80,79,80,0,79,79,79,,,,,,,,,,,,,,,,,,,,,,,390.80281320028007,391.87244010018185,391.87244010018185,391.87244010018185,391.87244010018185,391.87244010018185,391.87244010018185,391.87244010018185,391.87244010018185,"['v', 'a', 'c', 'a']",0,"[0.9374710000120103, 1.0471012997440994, 1.1746602999046445, 1.2636313997209072]",vaca,C:\2023\REPSWITCH21092023\REPSWITCH_excgange\REPSWITCH_excgange\data/340201_REPSWITCH1_version2_list1_2023-12-12_09h18.08.937_micRespv2l1_recorded\recording_micRespv2l1_2023-12-12_09h24.33.884.wav,394.8937188000418,395.3937679002993,None,394.8937188000418,394.8937188000418,394.8937188000418,394.8937188000418,394.8937188000418,394.8937188000418,,,,,,340201,001,2023-12-12_09h18.08.937,REPSWITCH1_version2_list1,2022.2.4,143.90994689605458,
REPSWITCH1/PICTURE_719.png,baño,type,gold,nontarget,1,NT,4,1,1,2,Stim2_Set4,0,None,81,80,81,0,80,80,80,,,,,,,,,,,,,,,,,,,,,,,395.3937679002993,396.4980025002733,396.4980025002733,396.4980025002733,396.4980025002733,396.4980025002733,396.4980025002733,396.4980025002733,396.4980025002733,"['b', 'a', 'ñ', 'o']",0,"[1.0736007997766137, 1.193186900112778, 1.7648771000094712, 2.0041013001464307]",baño,C:\2023\REPSWITCH21092023\REPSWITCH_excgange\REPSWITCH_excgange\data/340201_REPSWITCH1_version2_list1_2023-12-12_09h18.08.937_micRespv2l1_recorded\recording_micRespv2l1_2023-12-12_09h24.38.510.wav,399.51921530021355,400.019318100065,None,399.51921530021355,399.51921530021355,399.51921530021355,399.51921530021355,399.51921530021355,399.51921530021355,,,,,,340201,001,2023-12-12_09h18.08.937,REPSWITCH1_version2_list1,2022.2.4,143.90994689605458,
REPSWITCH1/PICTURE_719.png,baño,speak,darkblue,switch,2,T,4,1,1,2,Stim2_Set4,0,None,82,81,82,0,81,81,81,,,,,,,,,,,,,,,,,,,,,,,400.019318100065,401.1444669002667,401.1444669002667,401.1444669002667,401.1444669002667,401.1444669002667,401.1444669002667,401.1444669002667,401.1444669002667,None,0,,,C:\2023\REPSWITCH21092023\REPSWITCH_excgange\REPSWITCH_excgange\data/340201_REPSWITCH1_version2_list1_2023-12-12_09h18.08.937_micRespv2l1_recorded\recording_micRespv2l1_2023-12-12_09h24.43.157.wav,404.1726484000683,,None,404.1726484000683,404.1726484000683,404.1726484000683,404.1726484000683,404.1726484000683,404.1726484000683,,,,,,340201,001,2023-12-12_09h18.08.937,REPSWITCH1_version2_list1,2022.2.4,143.90994689605458,
REPSWITCH1/PICTURE_242.png,cartero,speak,darkblue,filler,2,F,4,1,1,2,Stim3_Set3,1,repeat,83,82,83,0,82,82,82,,,,,,,,,,,,,,,,,,,,,,,404.6727002002299,405.74231830006465,405.74231830006465,405.74231830006465,405.74231830006465,405.74231830006465,405.74231830006465,405.74231830006465,405.74231830006465,None,0,,,C:\2023\REPSWITCH21092023\REPSWITCH_excgange\REPSWITCH_excgange\data/340201_REPSWITCH1_version2_list1_2023-12-12_09h18.08.937_micRespv2l1_recorded\recording_micRespv2l1_2023-12-12_09h24.47.754.wav,408.77046320028603,409.2705970001407,None,408.77046320028603,408.77046320028603,408.77046320028603,408.77046320028603,408.77046320028603,408.77046320028603,,,,,,340201,001,2023-12-12_09h18.08.937,REPSWITCH1_version2_list1,2022.2.4,143.90994689605458,
REPSWITCH1/PICTURE_610.png,miel,type,gold,filler,1,F,4,1,1,2,Stim2_Set3,0,None,84,83,84,0,83,83,83,,,,,,,,,,,,,,,,,,,,,,,409.2705970001407,410.34704690007493,410.34704690007493,410.34704690007493,410.34704690007493,410.34704690007493,410.34704690007493,410.34704690007493,410.34704690007493,"['m', 'i', 'e', 'l']",0,"[1.0008220998570323, 1.1871934002265334, 1.2842230000533164, 1.4449669998139143]",miel,C:\2023\REPSWITCH21092023\REPSWITCH_excgange\REPSWITCH_excgange\data/340201_REPSWITCH1_version2_list1_2023-12-12_09h18.08.937_micRespv2l1_recorded\recording_micRespv2l1_2023-12-12_09h24.52.359.wav,413.368320800364,413.86835190001875,None,413.368320800364,413.368320800364,413.368320800364,413.368320800364,413.368320800364,413.368320800364,,,,,,340201,001,2023-12-12_09h18.08.937,REPSWITCH1_version2_list1,2022.2.4,143.90994689605458,
REPSWITCH1/PICTURE_8.png,pierna,speak,darkblue,nontarget,2,NT,4,1,1,2,Stim3_Set4,1,switch,85,84,85,0,84,84,84,,,,,,,,,,,,,,,,,,,,,,,413.86835190001875,415.00044050021097,415.00044050021097,415.00044050021097,415.00044050021097,415.00044050021097,415.00044050021097,415.00044050021097,415.00044050021097,None,0,,,C:\2023\REPSWITCH21092023\REPSWITCH_excgange\REPSWITCH_excgange\data/340201_REPSWITCH1_version2_list1_2023-12-12_09h18.08.937_micRespv2l1_recorded\recording_micRespv2l1_2023-12-12_09h24.57.013.wav,418.02869010018185,418.52870939997956,None,418.02869010018185,418.02869010018185,418.02869010018185,418.02869010018185,418.02869010018185,418.02869010018185,,,,,,340201,001,2023-12-12_09h18.08.937,REPSWITCH1_version2_list1,2022.2.4,143.90994689605458,
REPSWITCH1/PICTURE_8.png,pierna,speak,darkblue,repeat,2,T,4,1,1,2,Stim3_Set4,0,None,86,85,86,0,85,85,85,,,,,,,,,,,,,,,,,,,,,,,418.52870939997956,419.7025220002979,419.7025220002979,419.7025220002979,419.7025220002979,419.7025220002979,419.7025220002979,419.7025220002979,419.7025220002979,None,0,,,C:\2023\REPSWITCH21092023\REPSWITCH_excgange\REPSWITCH_excgange\data/340201_REPSWITCH1_version2_list1_2023-12-12_09h18.08.937_micRespv2l1_recorded\recording_micRespv2l1_2023-12-12_09h25.01.713.wav,422.72369500016794,423.2237509000115,None,422.72369500016794,422.72369500016794,422.72369500016794,422.72369500016794,422.72369500016794,422.72369500016794,,,,,,340201,001,2023-12-12_09h18.08.937,REPSWITCH1_version2_list1,2022.2.4,143.90994689605458,
REPSWITCH1/PICTURE_498.png,taza,speak,darkblue,nontarget,2,NT,4,1,1,2,Stim4_Set4,1,repeat,87,86,87,0,86,86,86,,,,,,,,,,,,,,,,,,,,,,,423.2237509000115,424.26554300030693,424.26554300030693,424.26554300030693,424.26554300030693,424.26554300030693,424.26554300030693,424.26554300030693,424.26554300030693,None,0,,,C:\2023\REPSWITCH21092023\REPSWITCH_excgange\REPSWITCH_excgange\data/340201_REPSWITCH1_version2_list1_2023-12-12_09h18.08.937_micRespv2l1_recorded\recording_micRespv2l1_2023-12-12_09h25.06.277.wav,427.28685320029035,427.7868568999693,None,427.28685320029035,427.28685320029035,427.28685320029035,427.28685320029035,427.28685320029035,427.28685320029035,,,,,,340201,001,2023-12-12_09h18.08.937,REPSWITCH1_version2_list1,2022.2.4,143.90994689605458,
REPSWITCH1/PICTURE_498.png,taza,type,gold,switch,1,T,4,1,1,2,Stim4_Set4,0,None,88,87,88,0,87,87,87,,,,,,,,,,,,,,,,,,,,,,,427.7868568999693,428.8703534002416,428.8703534002416,428.8703534002416,428.8703534002416,428.8703534002416,428.8703534002416,428.8703534002416,428.8703534002416,"['t', 'a', 'z', 'a']",0,"[0.992537499871105, 1.1001924998126924, 1.2905713999643922, 1.3504030997864902]",taza,C:\2023\REPSWITCH21092023\REPSWITCH_excgange\REPSWITCH_excgange\data/340201_REPSWITCH1_version2_list1_2023-12-12_09h18.08.937_micRespv2l1_recorded\recording_micRespv2l1_2023-12-12_09h25.10.882.wav,431.89155560033396,432.3916933001019,None,431.89155560033396,431.89155560033396,431.89155560033396,431.89155560033396,431.89155560033396,431.89155560033396,,,,,,340201,001,2023-12-12_09h18.08.937,REPSWITCH1_version2_list1,2022.2.4,143.90994689605458,
REPSWITCH1/PICTURE_235.png,aguja,speak,darkblue,filler,2,F,4,1,1,2,Stim4_Set3,0,None,89,88,89,0,88,88,88,,,,,,,,,,,,,,,,,,,,,,,432.3916933001019,433.5376535002142,433.5376535002142,433.5376535002142,433.5376535002142,433.5376535002142,433.5376535002142,433.5376535002142,433.5376535002142,None,0,,,C:\2023\REPSWITCH21092023\REPSWITCH_excgange\REPSWITCH_excgange\data/340201_REPSWITCH1_version2_list1_2023-12-12_09h18.08.937_micRespv2l1_recorded\recording_micRespv2l1_2023-12-12_09h25.15.550.wav,436.56577720027417,,None,436.56577720027417,436.56577720027417,436.56577720027417,436.56577720027417,436.56577720027417,436.56577720027417,,,,,,340201,001,2023-12-12_09h18.08.937,REPSWITCH1_version2_list1,2022.2.4,143.90994689605458,
REPSWITCH1/PICTURE_35.png,oreja,type,gold,filler,1,F,4,1,1,2,Stim5_Set3,0,None,90,89,90,0,89,89,89,,,,,,,,,,,,,,,,,,,,,,,437.06585300015286,438.19793150015175,438.19793150015175,438.19793150015175,438.19793150015175,438.19793150015175,438.19793150015175,438.19793150015175,438.19793150015175,"['o', 'r', 'e', 'j', 'a']",0,"[1.2100249999202788, 1.3975812997668982, 1.6091276998631656, 1.8252224000170827, 1.9249010998755693]",oreja,C:\2023\REPSWITCH21092023\REPSWITCH_excgange\REPSWITCH_excgange\data/340201_REPSWITCH1_version2_list1_2023-12-12_09h18.08.937_micRespv2l1_recorded\recording_micRespv2l1_2023-12-12_09h25.20.210.wav,441.2260907003656,,None,441.2260907003656,441.2260907003656,441.2260907003656,441.2260907003656,441.2260907003656,441.2260907003656,,,,,,340201,001,2023-12-12_09h18.08.937,REPSWITCH1_version2_list1,2022.2.4,143.90994689605458,
REPSWITCH1/PICTURE_687.png,camisa,type,gold,nontarget,1,NT,4,1,1,2,Stim5_Set4,1,repeat,91,90,91,0,90,90,90,,,,,,,,,,,,,,,,,,,,,,,441.7261614999734,442.7471199003048,442.7471199003048,442.7471199003048,442.7471199003048,442.7471199003048,442.7471199003048,442.7471199003048,442.7471199003048,"['c', 'a', 'm', 'i', 's', 'a']",0,"[0.9064213996753097, 1.048895999789238, 1.2313298997469246, 1.4256482999771833, 1.5004102997481823, 1.7017530999146402]",camisa,C:\2023\REPSWITCH21092023\REPSWITCH_excgange\REPSWITCH_excgange\data/340201_REPSWITCH1_version2_list1_2023-12-12_09h18.08.937_micRespv2l1_recorded\recording_micRespv2l1_2023-12-12_09h25.24.759.wav,445.7753171999939,,None,445.7753171999939,445.7753171999939,445.7753171999939,445.7753171999939,445.7753171999939,445.7753171999939,,,,,,340201,001,2023-12-12_09h18.08.937,REPSWITCH1_version2_list1,2022.2.4,143.90994689605458,
REPSWITCH1/PICTURE_687.png,camisa,speak,darkblue,switch,2,T,4,1,1,2,Stim5_Set4,0,None,92,91,92,0,91,91,91,,,,,,,,,,,,,,,,,,,,,,,446.2753725000657,447.4144124002196,447.4144124002196,447.4144124002196,447.4144124002196,447.4144124002196,447.4144124002196,447.4144124002196,447.4144124002196,None,0,,,C:\2023\REPSWITCH21092023\REPSWITCH_excgange\REPSWITCH_excgange\data/340201_REPSWITCH1_version2_list1_2023-12-12_09h18.08.937_micRespv2l1_recorded\recording_micRespv2l1_2023-12-12_09h25.29.426.wav,450.4356567002833,450.9357871999964,None,450.4356567002833,450.4356567002833,450.4356567002833,450.4356567002833,450.4356567002833,450.4356567002833,,,,,,340201,001,2023-12-12_09h18.08.937,REPSWITCH1_version2_list1,2022.2.4,143.90994689605458,
REPSWITCH1/PICTURE_338.png,regalo,speak,darkblue,nontarget,2,NT,4,1,1,2,Stim6_Set4,0,None,93,92,93,0,92,92,92,,,,,,,,,,,,,,,,,,,,,,,450.9357871999964,451.97057940019295,451.97057940019295,451.97057940019295,451.97057940019295,451.97057940019295,451.97057940019295,451.97057940019295,451.97057940019295,None,0,,,C:\2023\REPSWITCH21092023\REPSWITCH_excgange\REPSWITCH_excgange\data/340201_REPSWITCH1_version2_list1_2023-12-12_09h18.08.937_micRespv2l1_recorded\recording_micRespv2l1_2023-12-12_09h25.33.982.wav,454.9917782000266,455.49194840015844,None,454.9917782000266,454.9917782000266,454.9917782000266,454.9917782000266,454.9917782000266,454.9917782000266,,,,,,340201,001,2023-12-12_09h18.08.937,REPSWITCH1_version2_list1,2022.2.4,143.90994689605458,
REPSWITCH1/PICTURE_338.png,regalo,speak,darkblue,repeat,2,T,4,1,1,2,Stim6_Set4,0,None,94,93,94,0,93,93,93,,,,,,,,,,,,,,,,,,,,,,,455.49194840015844,456.56144430022687,456.56144430022687,456.56144430022687,456.56144430022687,456.56144430022687,456.56144430022687,456.56144430022687,456.56144430022687,None,0,,,C:\2023\REPSWITCH21092023\REPSWITCH_excgange\REPSWITCH_excgange\data/340201_REPSWITCH1_version2_list1_2023-12-12_09h18.08.937_micRespv2l1_recorded\recording_micRespv2l1_2023-12-12_09h25.38.573.wav,459.5896430001594,,None,459.5896430001594,459.5896430001594,459.5896430001594,459.5896430001594,459.5896430001594,459.5896430001594,,,,,,340201,001,2023-12-12_09h18.08.937,REPSWITCH1_version2_list1,2022.2.4,143.90994689605458,
REPSWITCH1/PICTURE_663.png,columna,type,gold,filler,1,F,4,1,1,2,Extra6,0,None,95,94,95,0,94,94,94,,,,,,,,,,,,,,,,,,,,,,,460.0897008003667,461.1384805999696,461.1384805999696,461.1384805999696,461.1384805999696,461.1384805999696,461.1384805999696,461.1384805999696,461.1384805999696,"['c', 'o', 'l', 'u', 'm', 'n', 'a']",0,"[1.1698400001041591, 1.3629270000383258, 1.5463762003928423, 1.784831800032407, 1.9869283004663885, 2.152853200212121, 2.2538250000216067]",columna,C:\2023\REPSWITCH21092023\REPSWITCH_excgange\REPSWITCH_excgange\data/340201_REPSWITCH1_version2_list1_2023-12-12_09h18.08.937_micRespv2l1_recorded\recording_micRespv2l1_2023-12-12_09h25.43.150.wav,464.166625500191,,None,464.166625500191,464.166625500191,464.166625500191,464.166625500191,464.166625500191,464.166625500191,,,,,,340201,001,2023-12-12_09h18.08.937,REPSWITCH1_version2_list1,2022.2.4,143.90994689605458,
REPSWITCH1/PICTURE_271.png,conejo,speak,darkblue,filler,2,F,4,1,1,2,Stim7_Set3,0,None,96,95,96,0,95,95,95,,,,,,,,,,,,,,,,,,,,,,,464.6666966001503,465.7848895001225,465.7848895001225,465.7848895001225,465.7848895001225,465.7848895001225,465.7848895001225,465.7848895001225,465.7848895001225,None,0,,,C:\2023\REPSWITCH21092023\REPSWITCH_excgange\REPSWITCH_excgange\data/340201_REPSWITCH1_version2_list1_2023-12-12_09h18.08.937_micRespv2l1_recorded\recording_micRespv2l1_2023-12-12_09h25.47.797.wav,468.8130471003242,469.3131114002317,None,468.8130471003242,468.8130471003242,468.8130471003242,468.8130471003242,468.8130471003242,468.8130471003242,,,,,,340201,001,2023-12-12_09h18.08.937,REPSWITCH1_version2_list1,2022.2.4,143.90994689605458,
REPSWITCH1/PICTURE_48.png,bombero,speak,darkblue,nontarget,2,NT,4,1,1,2,Stim7_Set4,0,None,97,96,97,0,96,96,96,,,,,,,,,,,,,,,,,,,,,,,469.3131114002317,470.36189310019836,470.36189310019836,470.36189310019836,470.36189310019836,470.36189310019836,470.36189310019836,470.36189310019836,470.36189310019836,None,0,,,C:\2023\REPSWITCH21092023\REPSWITCH_excgange\REPSWITCH_excgange\data/340201_REPSWITCH1_version2_list1_2023-12-12_09h18.08.937_micRespv2l1_recorded\recording_micRespv2l1_2023-12-12_09h25.52.374.wav,473.3900319002569,,None,473.3900319002569,473.3900319002569,473.3900319002569,473.3900319002569,473.3900319002569,473.3900319002569,,,,,,340201,001,2023-12-12_09h18.08.937,REPSWITCH1_version2_list1,2022.2.4,143.90994689605458,
REPSWITCH1/PICTURE_48.png,bombero,type,gold,switch,1,T,4,1,1,2,Stim7_Set4,0,None,98,97,98,0,97,97,97,,,,,,,,,,,,,,,,,,,,,,,473.8900992004201,475.00144849997014,475.00144849997014,475.00144849997014,475.00144849997014,475.00144849997014,475.00144849997014,475.00144849997014,475.00144849997014,"['b', 'o', 'm', 'b', 'e', 'r', 'o']",0,"[0.9368110997602344, 1.2906257999129593, 1.6407246999442577, 1.9020337997935712, 2.024676099885255, 2.1916006999090314, 2.3321655998006463]",bombero,C:\2023\REPSWITCH21092023\REPSWITCH_excgange\REPSWITCH_excgange\data/340201_REPSWITCH1_version2_list1_2023-12-12_09h18.08.937_micRespv2l1_recorded\recording_micRespv2l1_2023-12-12_09h25.57.014.wav,478.02955380035564,478.52962800022215,None,478.02955380035564,478.02955380035564,478.02955380035564,478.02955380035564,478.02955380035564,478.02955380035564,,,,,,340201,001,2023-12-12_09h18.08.937,REPSWITCH1_version2_list1,2022.2.4,143.90994689605458,
REPSWITCH1/PICTURE_728.png,pulpo,type,gold,nontarget,1,NT,4,1,1,2,Stim8_Set4,0,None,99,98,99,0,98,98,98,,,,,,,,,,,,,,,,,,,,,,,478.52962800022215,479.6478183004074,479.6478183004074,479.6478183004074,479.6478183004074,479.6478183004074,479.6478183004074,479.6478183004074,479.6478183004074,"['p', 'u', 'l', 'p', 'o']",0,"[1.0443386998958886, 1.282885099761188, 1.534427999984473, 1.7370432000607252, 1.9054792998358607]",pulpo,C:\2023\REPSWITCH21092023\REPSWITCH_excgange\REPSWITCH_excgange\data/340201_REPSWITCH1_version2_list1_2023-12-12_09h18.08.937_micRespv2l1_recorded\recording_micRespv2l1_2023-12-12_09h26.01.659.wav,482.66901940014213,483.16909650014713,None,482.66901940014213,482.66901940014213,482.66901940014213,482.66901940014213,482.66901940014213,482.66901940014213,,,,,,340201,001,2023-12-12_09h18.08.937,REPSWITCH1_version2_list1,2022.2.4,143.90994689605458,
REPSWITCH1/PICTURE_728.png,pulpo,type,gold,repeat,1,T,4,1,1,2,Stim8_Set4,0,None,100,99,100,0,99,99,99,,,,,,,,,,,,,,,,,,,,,,,483.16909650014713,484.2248198003508,484.2248198003508,484.2248198003508,484.2248198003508,484.2248198003508,484.2248198003508,484.2248198003508,484.2248198003508,"['p', 'u', 'l', 'p', 'o']",0,"[1.0644982000812888, 1.3627761001698673, 1.6179379001259804, 1.8600833998061717, 1.9717346001416445]",pulpo,C:\2023\REPSWITCH21092023\REPSWITCH_excgange\REPSWITCH_excgange\data/340201_REPSWITCH1_version2_list1_2023-12-12_09h18.08.937_micRespv2l1_recorded\recording_micRespv2l1_2023-12-12_09h26.06.237.wav,487.24601800041273,487.74608199996874,None,487.24601800041273,487.24601800041273,487.24601800041273,487.24601800041273,487.24601800041273,487.24601800041273,,,,,,340201,001,2023-12-12_09h18.08.937,REPSWITCH1_version2_list1,2022.2.4,143.90994689605458,
REPSWITCH1/PICTURE_320.png,iglesia,speak,darkblue,filler,1,F,4,1,1,2,Stim8_Set3,0,None,101,100,101,0,100,100,100,,,,,,,,,,,,,,,,,,,,,,,487.74608199996874,488.87127450015396,488.87127450015396,488.87127450015396,488.87127450015396,488.87127450015396,488.87127450015396,488.87127450015396,488.87127450015396,None,0,,,C:\2023\REPSWITCH21092023\REPSWITCH_excgange\REPSWITCH_excgange\data/340201_REPSWITCH1_version2_list1_2023-12-12_09h18.08.937_micRespv2l1_recorded\recording_micRespv2l1_2023-12-12_09h26.10.883.wav,491.8924874002114,492.39253820013255,None,491.8924874002114,491.8924874002114,491.8924874002114,491.8924874002114,491.8924874002114,491.8924874002114,,,,,,340201,001,2023-12-12_09h18.08.937,REPSWITCH1_version2_list1,2022.2.4,143.90994689605458,
REPSWITCH1/PICTURE_464.png,goma,type,gold,filler,1,F,4,1,1,2,Stim6_Set3,0,None,102,101,102,0,101,101,101,,,,,,,,,,,,,,,,,,,,,,,492.39253820013255,493.46906829997897,493.46906829997897,493.46906829997897,493.46906829997897,493.46906829997897,493.46906829997897,493.46906829997897,493.46906829997897,"['g', 'o', 'm', 'a']",0,"[1.0675014997832477, 1.1979538002051413, 1.4233184000477195, 1.5691096000373363]",goma,C:\2023\REPSWITCH21092023\REPSWITCH_excgange\REPSWITCH_excgange\data/340201_REPSWITCH1_version2_list1_2023-12-12_09h18.08.937_micRespv2l1_recorded\recording_micRespv2l1_2023-12-12_09h26.15.481.wav,496.49029930029064,496.99036390008405,space,496.49029930029064,496.49029930029064,496.49029930029064,496.49029930029064,496.49029930029064,496.49029930029064,496.99036390008405,496.99036390008405,13.588908199686557,,,340201,001,2023-12-12_09h18.08.937,REPSWITCH1_version2_list1,2022.2.4,143.90994689605458,
REPSWITCH1/PICTURE_663.png,columna,type,gold,filler,1,F,1,2,1,2,Extra6,0,None,103,102,1,0,102,102,102,,,,,,,,,,,,,,,,,,,,,,,510.5893725003116,511.72848749998957,511.72848749998957,511.72848749998957,511.72848749998957,511.72848749998957,511.72848749998957,511.72848749998957,511.72848749998957,"['c', 'o', 'l', 'u', 'm', 'n', 'a']",0,"[1.1999882003292441, 1.3557818001136184, 1.5235097999684513, 1.7403871002607048, 1.936998300254345, 2.109416800085455, 2.2330016000196338]",columna,C:\2023\REPSWITCH21092023\REPSWITCH_excgange\REPSWITCH_excgange\data/340201_REPSWITCH1_version2_list1_2023-12-12_09h18.08.937_micRespv2l1_recorded\recording_micRespv2l1_2023-12-12_09h26.33.740.wav,514.7497125002556,515.2497175000608,None,514.7497125002556,514.7497125002556,514.7497125002556,514.7497125002556,514.7497125002556,514.7497125002556,,,,,,340201,001,2023-12-12_09h18.08.937,REPSWITCH1_version2_list1,2022.2.4,143.90994689605458,
REPSWITCH1/PICTURE_128.png,muñeca,speak,darkblue,nontarget,2,NT,1,2,1,2,Stim4_Set1,1,switch,104,103,2,0,103,103,103,,,,,,,,,,,,,,,,,,,,,,,515.2497175000608,516.3749264003709,516.3749264003709,516.3749264003709,516.3749264003709,516.3749264003709,516.3749264003709,516.3749264003709,516.3749264003709,None,0,,,C:\2023\REPSWITCH21092023\REPSWITCH_excgange\REPSWITCH_excgange\data/340201_REPSWITCH1_version2_list1_2023-12-12_09h18.08.937_micRespv2l1_recorded\recording_micRespv2l1_2023-12-12_09h26.38.387.wav,519.403023800347,,None,519.403023800347,519.403023800347,519.403023800347,519.403023800347,519.403023800347,519.403023800347,,,,,,340201,001,2023-12-12_09h18.08.937,REPSWITCH1_version2_list1,2022.2.4,143.90994689605458,
REPSWITCH1/PICTURE_128.png,muñeca,speak,darkblue,repeat,2,T,1,2,1,2,Stim4_Set1,0,None,105,104,3,0,104,104,104,,,,,,,,,,,,,,,,,,,,,,,519.9031558004208,521.1324964002706,521.1324964002706,521.1324964002706,521.1324964002706,521.1324964002706,521.1324964002706,521.1324964002706,521.1324964002706,None,0,,,C:\2023\REPSWITCH21092023\REPSWITCH_excgange\REPSWITCH_excgange\data/340201_REPSWITCH1_version2_list1_2023-12-12_09h18.08.937_micRespv2l1_recorded\recording_micRespv2l1_2023-12-12_09h26.43.144.wav,524.160614900291,,None,524.160614900291,524.160614900291,524.160614900291,524.160614900291,524.160614900291,524.160614900291,,,,,,340201,001,2023-12-12_09h18.08.937,REPSWITCH1_version2_list1,2022.2.4,143.90994689605458,
REPSWITCH1/PICTURE_8.png,pierna,type,gold,filler,1,F,1,2,1,2,Stim3_Set4,0,None,106,105,4,0,105,105,105,,,,,,,,,,,,,,,,,,,,,,,524.6606816002168,525.7997368001379,525.7997368001379,525.7997368001379,525.7997368001379,525.7997368001379,525.7997368001379,525.7997368001379,525.7997368001379,"['p', 'i', 'e', 'r', 'n', 'a']",0,"[1.022065100260079, 1.2591821998357773, 1.4084871001541615, 1.5722143999300897, 1.774523800238967, 1.91316320002079]",pierna,C:\2023\REPSWITCH21092023\REPSWITCH_excgange\REPSWITCH_excgange\data/340201_REPSWITCH1_version2_list1_2023-12-12_09h18.08.937_micRespv2l1_recorded\recording_micRespv2l1_2023-12-12_09h26.47.812.wav,528.8209238001145,529.3210590002127,None,528.8209238001145,528.8209238001145,528.8209238001145,528.8209238001145,528.8209238001145,528.8209238001145,,,,,,340201,001,2023-12-12_09h18.08.937,REPSWITCH1_version2_list1,2022.2.4,143.90994689605458,
REPSWITCH1/PICTURE_135.png,traje,speak,darkblue,nontarget,2,NT,1,2,1,2,Stim3_Set1,1,switch,107,106,5,0,106,106,106,,,,,,,,,,,,,,,,,,,,,,,529.3210590002127,530.3628212003969,530.3628212003969,530.3628212003969,530.3628212003969,530.3628212003969,530.3628212003969,530.3628212003969,530.3628212003969,None,0,,,C:\2023\REPSWITCH21092023\REPSWITCH_excgange\REPSWITCH_excgange\data/340201_REPSWITCH1_version2_list1_2023-12-12_09h18.08.937_micRespv2l1_recorded\recording_micRespv2l1_2023-12-12_09h26.52.375.wav,533.384044600185,533.8840851001441,None,533.384044600185,533.384044600185,533.384044600185,533.384044600185,533.384044600185,533.384044600185,,,,,,340201,001,2023-12-12_09h18.08.937,REPSWITCH1_version2_list1,2022.2.4,143.90994689605458,
REPSWITCH1/PICTURE_135.png,traje,speak,darkblue,repeat,2,T,1,2,1,2,Stim3_Set1,0,None,108,107,6,0,107,107,107,,,,,,,,,,,,,,,,,,,,,,,533.8840851001441,534.9745402000844,534.9745402000844,534.9745402000844,534.9745402000844,534.9745402000844,534.9745402000844,534.9745402000844,534.9745402000844,None,0,,,C:\2023\REPSWITCH21092023\REPSWITCH_excgange\REPSWITCH_excgange\data/340201_REPSWITCH1_version2_list1_2023-12-12_09h18.08.937_micRespv2l1_recorded\recording_micRespv2l1_2023-12-12_09h26.56.986.wav,537.9957512002438,538.4958248003386,None,537.9957512002438,537.9957512002438,537.9957512002438,537.9957512002438,537.9957512002438,537.9957512002438,,,,,,340201,001,2023-12-12_09h18.08.937,REPSWITCH1_version2_list1,2022.2.4,143.90994689605458,
REPSWITCH1/PICTURE_673.png,tenedor,type,gold,filler,1,F,1,2,1,2,Extra5,0,None,109,108,7,0,108,108,108,,,,,,,,,,,,,,,,,,,,,,,538.4958248003386,539.6071382001974,539.6071382001974,539.6071382001974,539.6071382001974,539.6071382001974,539.6071382001974,539.6071382001974,539.6071382001974,"['t', 'e', 'n', 'e', 'd', 'o', 'r']",0,"[0.9898831001482904, 1.158322500064969, 1.310767199844122, 1.4333941000513732, 1.639772499911487, 1.869461600203067, 2.009072800166905]",tenedor,C:\2023\REPSWITCH21092023\REPSWITCH_excgange\REPSWITCH_excgange\data/340201_REPSWITCH1_version2_list1_2023-12-12_09h18.08.937_micRespv2l1_recorded\recording_micRespv2l1_2023-12-12_09h27.01.619.wav,542.628284800332,543.1283820001408,None,542.628284800332,542.628284800332,542.628284800332,542.628284800332,542.628284800332,542.628284800332,,,,,,340201,001,2023-12-12_09h18.08.937,REPSWITCH1_version2_list1,2022.2.4,143.90994689605458,
REPSWITCH1/PICTURE_728.png,pulpo,speak,darkblue,filler,2,F,1,2,1,2,Stim8_Set4,0,None,110,109,8,0,109,109,109,,,,,,,,,,,,,,,,,,,,,,,543.1283820001408,544.1562853003852,544.1562853003852,544.1562853003852,544.1562853003852,544.1562853003852,544.1562853003852,544.1562853003852,544.1562853003852,None,0,,,C:\2023\REPSWITCH21092023\REPSWITCH_excgange\REPSWITCH_excgange\data/340201_REPSWITCH1_version2_list1_2023-12-12_09h18.08.937_micRespv2l1_recorded\recording_micRespv2l1_2023-12-12_09h27.06.167.wav,547.1774891000241,547.6775895003229,None,547.1774891000241,547.1774891000241,547.1774891000241,547.1774891000241,547.1774891000241,547.1774891000241,,,,,,340201,001,2023-12-12_09h18.08.937,REPSWITCH1_version2_list1,2022.2.4,143.90994689605458,
REPSWITCH1/PICTURE_16.png,cazador,speak,darkblue,nontarget,2,NT,1,2,1,2,Stim6_Set1,1,repeat,111,110,9,0,110,110,110,,,,,,,,,,,,,,,,,,,,,,,547.6775895003229,548.7749427002855,548.7749427002855,548.7749427002855,548.7749427002855,548.7749427002855,548.7749427002855,548.7749427002855,548.7749427002855,None,0,,,C:\2023\REPSWITCH21092023\REPSWITCH_excgange\REPSWITCH_excgange\data/340201_REPSWITCH1_version2_list1_2023-12-12_09h18.08.937_micRespv2l1_recorded\recording_micRespv2l1_2023-12-12_09h27.10.787.wav,551.8031198000535,,None,551.8031198000535,551.8031198000535,551.8031198000535,551.8031198000535,551.8031198000535,551.8031198000535,,,,,,340201,001,2023-12-12_09h18.08.937,REPSWITCH1_version2_list1,2022.2.4,143.90994689605458,
REPSWITCH1/PICTURE_16.png,cazador,type,gold,switch,1,T,1,2,1,2,Stim6_Set1,0,None,112,111,10,0,111,111,111,,,,,,,,,,,,,,,,,,,,,,,552.3032682002522,553.3867296003737,553.3867296003737,553.3867296003737,553.3867296003737,553.3867296003737,553.3867296003737,553.3867296003737,553.3867296003737,"['c', 'a', 'z', 'a', 'd', 'o', 'r']",0,"[1.0164804998785257, 1.1309005999937654, 1.33554059965536, 1.5432702996768057, 1.7039005998522043, 2.0287973997183144, 2.1543837999925017]",cazador,C:\2023\REPSWITCH21092023\REPSWITCH_excgange\REPSWITCH_excgange\data/340201_REPSWITCH1_version2_list1_2023-12-12_09h18.08.937_micRespv2l1_recorded\recording_micRespv2l1_2023-12-12_09h27.15.398.wav,556.4079480003566,556.9080227999948,None,556.4079480003566,556.4079480003566,556.4079480003566,556.4079480003566,556.4079480003566,556.4079480003566,,,,,,340201,001,2023-12-12_09h18.08.937,REPSWITCH1_version2_list1,2022.2.4,143.90994689605458,
REPSWITCH1/PICTURE_498.png,taza,type,gold,filler,1,F,1,2,1,2,Stim4_Set4,1,repeat,113,112,11,0,112,112,112,,,,,,,,,,,,,,,,,,,,,,,556.9080227999948,557.9776046001352,557.9776046001352,557.9776046001352,557.9776046001352,557.9776046001352,557.9776046001352,557.9776046001352,557.9776046001352,"['t', 'a', 'z', 'a']",0,"[0.9852666999213398, 1.076219200156629, 1.2376929000020027, 1.3163900999352336]",taza,C:\2023\REPSWITCH21092023\REPSWITCH_excgange\REPSWITCH_excgange\data/340201_REPSWITCH1_version2_list1_2023-12-12_09h18.08.937_micRespv2l1_recorded\recording_micRespv2l1_2023-12-12_09h27.19.989.wav,560.9988416000269,561.4989038002677,None,560.9988416000269,560.9988416000269,560.9988416000269,560.9988416000269,560.9988416000269,560.9988416000269,,,,,,340201,001,2023-12-12_09h18.08.937,REPSWITCH1_version2_list1,2022.2.4,143.90994689605458,
REPSWITCH1/PICTURE_381.png,fresa,type,gold,nontarget,1,NT,1,2,1,2,Stim2_Set1,1,repeat,114,113,12,0,113,113,113,,,,,,,,,,,,,,,,,,,,,,,561.4989038002677,562.6309696002863,562.6309696002863,562.6309696002863,562.6309696002863,562.6309696002863,562.6309696002863,562.6309696002863,562.6309696002863,"['f', 'r', 'e', 's', 'a']",0,"[0.980517900083214, 1.1597966998815536, 1.3122894996777177, 1.4360806997865438, 1.6391527997329831]",fresa,C:\2023\REPSWITCH21092023\REPSWITCH_excgange\REPSWITCH_excgange\data/340201_REPSWITCH1_version2_list1_2023-12-12_09h18.08.937_micRespv2l1_recorded\recording_micRespv2l1_2023-12-12_09h27.24.644.wav,565.6590820001438,,None,565.6590820001438,565.6590820001438,565.6590820001438,565.6590820001438,565.6590820001438,565.6590820001438,,,,,,340201,001,2023-12-12_09h18.08.937,REPSWITCH1_version2_list1,2022.2.4,143.90994689605458,
REPSWITCH1/PICTURE_381.png,fresa,speak,darkblue,switch,2,T,1,2,1,2,Stim2_Set1,0,None,115,114,13,0,114,114,114,,,,,,,,,,,,,,,,,,,,,,,566.1591855003498,567.3329275003634,567.3329275003634,567.3329275003634,567.3329275003634,567.3329275003634,567.3329275003634,567.3329275003634,567.3329275003634,None,0,,,C:\2023\REPSWITCH21092023\REPSWITCH_excgange\REPSWITCH_excgange\data/340201_REPSWITCH1_version2_list1_2023-12-12_09h18.08.937_micRespv2l1_recorded\recording_micRespv2l1_2023-12-12_09h27.29.345.wav,570.3611012003385,,None,570.3611012003385,570.3611012003385,570.3611012003385,570.3611012003385,570.3611012003385,570.3611012003385,,,,,,340201,001,2023-12-12_09h18.08.937,REPSWITCH1_version2_list1,2022.2.4,143.90994689605458,
REPSWITCH1/PICTURE_178.png,puente,speak,darkblue,nontarget,2,NT,1,2,1,2,Stim1_Set1,0,None,116,115,14,0,115,115,115,,,,,,,,,,,,,,,,,,,,,,,570.8611956001259,571.9655175004154,571.9655175004154,571.9655175004154,571.9655175004154,571.9655175004154,571.9655175004154,571.9655175004154,571.9655175004154,None,0,,,C:\2023\REPSWITCH21092023\REPSWITCH_excgange\REPSWITCH_excgange\data/340201_REPSWITCH1_version2_list1_2023-12-12_09h18.08.937_micRespv2l1_recorded\recording_micRespv2l1_2023-12-12_09h27.33.978.wav,574.9936713003553,,None,574.9936713003553,574.9936713003553,574.9936713003553,574.9936713003553,574.9936713003553,574.9936713003553,,,,,,340201,001,2023-12-12_09h18.08.937,REPSWITCH1_version2_list1,2022.2.4,143.90994689605458,
REPSWITCH1/PICTURE_178.png,puente,type,gold,switch,1,T,1,2,1,2,Stim1_Set1,0,None,117,116,15,0,116,116,116,,,,,,,,,,,,,,,,,,,,,,,575.4937399001792,576.5772679001093,576.5772679001093,576.5772679001093,576.5772679001093,576.5772679001093,576.5772679001093,576.5772679001093,576.5772679001093,"['p', 'u', 'e', 'n', 't', 'e']",0,"[1.3566959002055228, 1.631127499975264, 1.829877800308168, 1.9253980000503361, 2.140677399933338, 2.230343900155276]",puente,C:\2023\REPSWITCH21092023\REPSWITCH_excgange\REPSWITCH_excgange\data/340201_REPSWITCH1_version2_list1_2023-12-12_09h18.08.937_micRespv2l1_recorded\recording_micRespv2l1_2023-12-12_09h27.38.588.wav,579.5984471002594,580.0985112003982,None,579.5984471002594,579.5984471002594,579.5984471002594,579.5984471002594,579.5984471002594,579.5984471002594,,,,,,340201,001,2023-12-12_09h18.08.937,REPSWITCH1_version2_list1,2022.2.4,143.90994689605458,
REPSWITCH1/PICTURE_719.png,baño,speak,darkblue,filler,2,F,1,2,1,2,Stim2_Set4,0,None,118,117,16,0,117,117,117,,,,,,,,,,,,,,,,,,,,,,,580.0985112003982,581.1264379001223,581.1264379001223,581.1264379001223,581.1264379001223,581.1264379001223,581.1264379001223,581.1264379001223,581.1264379001223,None,0,,,C:\2023\REPSWITCH21092023\REPSWITCH_excgange\REPSWITCH_excgange\data/340201_REPSWITCH1_version2_list1_2023-12-12_09h18.08.937_micRespv2l1_recorded\recording_micRespv2l1_2023-12-12_09h27.43.139.wav,584.1545855002478,,None,584.1545855002478,584.1545855002478,584.1545855002478,584.1545855002478,584.1545855002478,584.1545855002478,,,,,,340201,001,2023-12-12_09h18.08.937,REPSWITCH1_version2_list1,2022.2.4,143.90994689605458,
REPSWITCH1/PICTURE_169.png,espalda,type,gold,nontarget,1,NT,1,2,1,2,Stim8_Set1,1,switch,119,118,17,0,118,118,118,,,,,,,,,,,,,,,,,,,,,,,584.6547448001802,585.6756238001399,585.6756238001399,585.6756238001399,585.6756238001399,585.6756238001399,585.6756238001399,585.6756238001399,585.6756238001399,"['e', 's', 'p', 'a', 'l', 'd', 'a']",0,"[0.9865561998449266, 1.172238899860531, 1.562413000036031, 1.7240010001696646, 1.817752500064671, 2.1069232998415828, 2.1956222001463175]",espalda,C:\2023\REPSWITCH21092023\REPSWITCH_excgange\REPSWITCH_excgange\data/340201_REPSWITCH1_version2_list1_2023-12-12_09h18.08.937_micRespv2l1_recorded\recording_micRespv2l1_2023-12-12_09h27.47.687.wav,588.6968784001656,589.1969801001251,None,588.6968784001656,588.6968784001656,588.6968784001656,588.6968784001656,588.6968784001656,588.6968784001656,,,,,,340201,001,2023-12-12_09h18.08.937,REPSWITCH1_version2_list1,2022.2.4,143.90994689605458,
REPSWITCH1/PICTURE_169.png,espalda,type,gold,repeat,1,T,1,2,1,2,Stim8_Set1,0,None,120,119,18,0,119,119,119,,,,,,,,,,,,,,,,,,,,,,,589.1969801001251,590.3706831000745,590.3706831000745,590.3706831000745,590.3706831000745,590.3706831000745,590.3706831000745,590.3706831000745,590.3706831000745,"['e', 's', 'p', 'a', 'l', 'd', 'a']",0,"[0.8560287998989224, 1.0929084001109004, 1.237231200095266, 1.3638351000845432, 1.4814447001554072, 1.7794834999367595, 1.8980049001984298]",espalda,C:\2023\REPSWITCH21092023\REPSWITCH_excgange\REPSWITCH_excgange\data/340201_REPSWITCH1_version2_list1_2023-12-12_09h18.08.937_micRespv2l1_recorded\recording_micRespv2l1_2023-12-12_09h27.52.383.wav,593.3919053003192,593.8919697003439,None,593.3919053003192,593.3919053003192,593.3919053003192,593.3919053003192,593.3919053003192,593.3919053003192,,,,,,340201,001,2023-12-12_09h18.08.937,REPSWITCH1_version2_list1,2022.2.4,143.90994689605458,
REPSWITCH1/PICTURE_48.png,bombero,speak,darkblue,filler,2,F,1,2,1,2,Stim7_Set4,1,switch,121,120,19,0,120,120,120,,,,,,,,,,,,,,,,,,,,,,,593.8919697003439,594.9477318003774,594.9477318003774,594.9477318003774,594.9477318003774,594.9477318003774,594.9477318003774,594.9477318003774,594.9477318003774,None,0,,,C:\2023\REPSWITCH21092023\REPSWITCH_excgange\REPSWITCH_excgange\data/340201_REPSWITCH1_version2_list1_2023-12-12_09h18.08.937_micRespv2l1_recorded\recording_micRespv2l1_2023-12-12_09h27.56.960.wav,597.9758291002363,,None,597.9758291002363,597.9758291002363,597.9758291002363,597.9758291002363,597.9758291002363,597.9758291002363,,,,,,340201,001,2023-12-12_09h18.08.937,REPSWITCH1_version2_list1,2022.2.4,143.90994689605458,
