image,correctAns,famTrials.thisRepN,famTrials.thisTrialN,famTrials.thisN,famTrials.thisIndex,textWelcomeFam.started,textBlank500.started,textboxInstrFam.started,keyInstrFam.started,keyInstrFam.keys,keyInstrFam.rt,textBlank2.started,fixationITI.started,fixationITI.stopped,polygonWhiteFam.started,imageFam.started,micFam.started,textFam.started,textFam.stopped,micFam.clip,polygonWhiteFam.stopped,imageFam.stopped,textBlank3.started,textboxEndFam.started,keyEndFam.started,keyEndFam.keys,keyEndFam.rt,participant,session,date,expName,psychopyVersion,frameRate,
,,,,,,5.38712600000008,7.37594880000006,7.88188880000007,7.88188880000007,space,4.356294599999956,,,,,,,,,,,,,,,,,351780,001,2023-09-15_11h29.16.141,REPSWITCH1_Fam,2022.2.4,360.14232824819015,
REPSWITCH1_Fam/PICTURE_552.png,manzana,0,0,0,25,,,,,,,12.247189500000104,12.754835300000082,13.835029899999995,13.835029899999995,13.835029899999995,0.00821239999993395,17.32551090000004,19.863738300000023,C:\2023\REPSWITCH12092023\REPSWITCH_excgange\REPSWITCH_excgange\data/351780_REPSWITCH1_Fam_2023-09-15_11h29.16.141_micFam_recorded\recording_micFam_2023-09-15_11h29.32.332.wav,,,,,,,,351780,001,2023-09-15_11h29.16.141,REPSWITCH1_Fam,2022.2.4,360.14232824819015,
REPSWITCH1_Fam/PICTURE_498.png,taza,0,1,1,23,,,,,,,,19.863738300000023,20.961519300000077,20.961519300000077,20.961519300000077,0.0013833000000431639,24.457152900000096,,C:\2023\REPSWITCH12092023\REPSWITCH_excgange\REPSWITCH_excgange\data/351780_REPSWITCH1_Fam_2023-09-15_11h29.16.141_micFam_recorded\recording_micFam_2023-09-15_11h29.39.456.wav,,,,,,,,351780,001,2023-09-15_11h29.16.141,REPSWITCH1_Fam,2022.2.4,360.14232824819015,
REPSWITCH1_Fam/PICTURE_169.png,espalda,0,2,2,5,,,,,,,,26.989028700000063,28.038818200000037,28.038818200000037,28.038818200000037,0.004584300000033181,31.532588200000077,34.07097740000006,C:\2023\REPSWITCH12092023\REPSWITCH_excgange\REPSWITCH_excgange\data/351780_REPSWITCH1_Fam_2023-09-15_11h29.16.141_micFam_recorded\recording_micFam_2023-09-15_11h29.46.538.wav,,,,,,,,351780,001,2023-09-15_11h29.16.141,REPSWITCH1_Fam,2022.2.4,360.14232824819015,
REPSWITCH1_Fam/PICTURE_599.png,nube,0,3,3,33,,,,,,,,34.07097740000006,35.250615500000094,35.250615500000094,35.250615500000094,0.005693500000006679,38.743901200000096,41.28284110000004,C:\2023\REPSWITCH12092023\REPSWITCH_excgange\REPSWITCH_excgange\data/351780_REPSWITCH1_Fam_2023-09-15_11h29.16.141_micFam_recorded\recording_micFam_2023-09-15_11h29.53.747.wav,,,,,,,,351780,001,2023-09-15_11h29.16.141,REPSWITCH1_Fam,2022.2.4,360.14232824819015,
REPSWITCH1_Fam/PICTURE_610.png,miel,0,4,4,27,,,,,,,,41.28284110000004,42.329329200000075,42.329329200000075,42.329329200000075,0.005139099999951213,45.8192454,48.36065800000006,C:\2023\REPSWITCH12092023\REPSWITCH_excgange\REPSWITCH_excgange\data/351780_REPSWITCH1_Fam_2023-09-15_11h29.16.141_micFam_recorded\recording_micFam_2023-09-15_11h30.00.825.wav,,,,,,,,351780,001,2023-09-15_11h29.16.141,REPSWITCH1_Fam,2022.2.4,360.14232824819015,
REPSWITCH1_Fam/PICTURE_178.png,puente,0,5,5,7,,,,,,,,48.36065800000006,49.438028200000076,49.438028200000076,49.438028200000076,0.004568599999970502,52.934926700000005,,C:\2023\REPSWITCH12092023\REPSWITCH_excgange\REPSWITCH_excgange\data/351780_REPSWITCH1_Fam_2023-09-15_11h29.16.141_micFam_recorded\recording_micFam_2023-09-15_11h30.07.934.wav,,,,,,,,351780,001,2023-09-15_11h29.16.141,REPSWITCH1_Fam,2022.2.4,360.14232824819015,
REPSWITCH1_Fam/PICTURE_446.png,cerdo,0,6,6,20,,,,,,,,55.46693190000008,56.50471500000003,56.50471500000003,56.50471500000003,0.004810000000020409,60.00087660000008,62.53660860000002,C:\2023\REPSWITCH12092023\REPSWITCH_excgange\REPSWITCH_excgange\data/351780_REPSWITCH1_Fam_2023-09-15_11h29.16.141_micFam_recorded\recording_micFam_2023-09-15_11h30.15.004.wav,,,,,,,,351780,001,2023-09-15_11h29.16.141,REPSWITCH1_Fam,2022.2.4,360.14232824819015,
REPSWITCH1_Fam/PICTURE_517.png,cuerda,0,7,7,24,,,,,,,,62.53660860000002,63.563604600000076,63.563604600000076,63.563604600000076,0.0048292000000174085,67.05691100000001,69.55614550000007,C:\2023\REPSWITCH12092023\REPSWITCH_excgange\REPSWITCH_excgange\data/351780_REPSWITCH1_Fam_2023-09-15_11h29.16.141_micFam_recorded\recording_micFam_2023-09-15_11h30.22.063.wav,,,,,,,,351780,001,2023-09-15_11h29.16.141,REPSWITCH1_Fam,2022.2.4,360.14232824819015,
REPSWITCH1_Fam/PICTURE_319.png,vaca,0,8,8,15,,,,,,,,69.59503280000001,70.70688460000008,70.70688460000008,70.70688460000008,0.005354600000032406,74.19961950000004,,C:\2023\REPSWITCH12092023\REPSWITCH_excgange\REPSWITCH_excgange\data/351780_REPSWITCH1_Fam_2023-09-15_11h29.16.141_micFam_recorded\recording_micFam_2023-09-15_11h30.29.201.wav,,,,,,,,351780,001,2023-09-15_11h29.16.141,REPSWITCH1_Fam,2022.2.4,360.14232824819015,
REPSWITCH1_Fam/PICTURE_340.png,espejo,0,9,9,39,,,,,,,,76.73161640000001,77.7734908000001,77.7734908000001,77.7734908000001,0.004302499999994325,81.27238220000015,,C:\2023\REPSWITCH12092023\REPSWITCH_excgange\REPSWITCH_excgange\data/351780_REPSWITCH1_Fam_2023-09-15_11h29.16.141_micFam_recorded\recording_micFam_2023-09-15_11h30.36.269.wav,,,,,,,,351780,001,2023-09-15_11h29.16.141,REPSWITCH1_Fam,2022.2.4,360.14232824819015,
REPSWITCH1_Fam/PICTURE_733.png,gafas,0,10,10,35,,,,,,,,83.80160990000002,84.8179206000001,84.8179206000001,84.8179206000001,0.0046559999998407875,88.31405860000007,90.8513107,C:\2023\REPSWITCH12092023\REPSWITCH_excgange\REPSWITCH_excgange\data/351780_REPSWITCH1_Fam_2023-09-15_11h29.16.141_micFam_recorded\recording_micFam_2023-09-15_11h30.43.317.wav,,,,,,,,351780,001,2023-09-15_11h29.16.141,REPSWITCH1_Fam,2022.2.4,360.14232824819015,
REPSWITCH1_Fam/PICTURE_338.png,regalo,0,11,11,17,,,,,,,,90.8513107,91.8827877,91.8827877,91.8827877,0.0038894000001619133,95.37554269999998,97.87488930000006,C:\2023\REPSWITCH12092023\REPSWITCH_excgange\REPSWITCH_excgange\data/351780_REPSWITCH1_Fam_2023-09-15_11h29.16.141_micFam_recorded\recording_micFam_2023-09-15_11h30.50.381.wav,,,,,,,,351780,001,2023-09-15_11h29.16.141,REPSWITCH1_Fam,2022.2.4,360.14232824819015,
REPSWITCH1_Fam/PICTURE_612.png,rana,0,12,12,32,,,,,,,,97.91100700000004,98.96086479999997,98.96086479999997,98.96086479999997,0.005632800000057614,102.45116169999994,104.95041049999998,C:\2023\REPSWITCH12092023\REPSWITCH_excgange\REPSWITCH_excgange\data/351780_REPSWITCH1_Fam_2023-09-15_11h29.16.141_micFam_recorded\recording_micFam_2023-09-15_11h30.57.457.wav,,,,,,,,351780,001,2023-09-15_11h29.16.141,REPSWITCH1_Fam,2022.2.4,360.14232824819015,
REPSWITCH1_Fam/PICTURE_135.png,traje,0,13,13,1,,,,,,,,104.98930189999999,106.04170550000015,106.04170550000015,106.04170550000015,0.005191899999999805,109.53502719999994,112.03422880000005,C:\2023\REPSWITCH12092023\REPSWITCH_excgange\REPSWITCH_excgange\data/351780_REPSWITCH1_Fam_2023-09-15_11h29.16.141_micFam_recorded\recording_micFam_2023-09-15_11h31.04.540.wav,,,,,,,,351780,001,2023-09-15_11h29.16.141,REPSWITCH1_Fam,2022.2.4,360.14232824819015,
REPSWITCH1_Fam/PICTURE_646.png,tronco,0,14,14,42,,,,,,,,112.07020180000006,113.13943759999995,113.13943759999995,113.13943759999995,0.004900700000007419,116.63276600000006,119.13199530000009,C:\2023\REPSWITCH12092023\REPSWITCH_excgange\REPSWITCH_excgange\data/351780_REPSWITCH1_Fam_2023-09-15_11h29.16.141_micFam_recorded\recording_micFam_2023-09-15_11h31.11.638.wav,,,,,,,,351780,001,2023-09-15_11h29.16.141,REPSWITCH1_Fam,2022.2.4,360.14232824819015,
REPSWITCH1_Fam/PICTURE_142.png,vaso,0,15,15,2,,,,,,,,119.17088969999998,120.27113199999997,120.27113199999997,120.27113199999997,0.0049283000000741595,123.76435170000002,126.29988800000012,C:\2023\REPSWITCH12092023\REPSWITCH_excgange\REPSWITCH_excgange\data/351780_REPSWITCH1_Fam_2023-09-15_11h29.16.141_micFam_recorded\recording_micFam_2023-09-15_11h31.18.768.wav,,,,,,,,351780,001,2023-09-15_11h29.16.141,REPSWITCH1_Fam,2022.2.4,360.14232824819015,
REPSWITCH1_Fam/PICTURE_673.png,tenedor,0,16,16,44,,,,,,,,126.29988800000012,127.3460397,127.3460397,127.3460397,0.0037260000001424487,130.83933839999997,133.33872210000015,C:\2023\REPSWITCH12092023\REPSWITCH_excgange\REPSWITCH_excgange\data/351780_REPSWITCH1_Fam_2023-09-15_11h29.16.141_micFam_recorded\recording_micFam_2023-09-15_11h31.25.844.wav,,,,,,,,351780,001,2023-09-15_11h29.16.141,REPSWITCH1_Fam,2022.2.4,360.14232824819015,
REPSWITCH1_Fam/PICTURE_381.png,fresa,0,17,17,19,,,,,,,,133.3748369000001,134.39933380000014,134.39933380000014,134.39933380000014,0.004970799999910014,137.89264490000016,140.39228650000007,C:\2023\REPSWITCH12092023\REPSWITCH_excgange\REPSWITCH_excgange\data/351780_REPSWITCH1_Fam_2023-09-15_11h29.16.141_micFam_recorded\recording_micFam_2023-09-15_11h31.32.899.wav,,,,,,,,351780,001,2023-09-15_11h29.16.141,REPSWITCH1_Fam,2022.2.4,360.14232824819015,
REPSWITCH1_Fam/PICTURE_16.png,cazador,0,18,18,4,,,,,,,,140.4311652,141.5164691000001,141.5164691000001,141.5164691000001,0.004898400000001857,145.0098223000001,147.50904950000006,C:\2023\REPSWITCH12092023\REPSWITCH_excgange\REPSWITCH_excgange\data/351780_REPSWITCH1_Fam_2023-09-15_11h29.16.141_micFam_recorded\recording_micFam_2023-09-15_11h31.40.016.wav,,,,,,,,351780,001,2023-09-15_11h29.16.141,REPSWITCH1_Fam,2022.2.4,360.14232824819015,
REPSWITCH1_Fam/PICTURE_464.png,goma,0,19,19,21,,,,,,,,147.54789310000012,148.61424909999994,148.61424909999994,148.61424909999994,0.0045328999999583175,152.10755540000002,154.60679850000008,C:\2023\REPSWITCH12092023\REPSWITCH_excgange\REPSWITCH_excgange\data/351780_REPSWITCH1_Fam_2023-09-15_11h29.16.141_micFam_recorded\recording_micFam_2023-09-15_11h31.47.113.wav,,,,,,,,351780,001,2023-09-15_11h29.16.141,REPSWITCH1_Fam,2022.2.4,360.14232824819015,
REPSWITCH1_Fam/PICTURE_576.png,guante,0,20,20,26,,,,,,,,154.6456763,155.79075380000006,155.79075380000006,155.79075380000006,0.005114899999853151,159.28357390000008,,C:\2023\REPSWITCH12092023\REPSWITCH_excgange\REPSWITCH_excgange\data/351780_REPSWITCH1_Fam_2023-09-15_11h29.16.141_micFam_recorded\recording_micFam_2023-09-15_11h31.54.283.wav,,,,,,,,351780,001,2023-09-15_11h29.16.141,REPSWITCH1_Fam,2022.2.4,360.14232824819015,
REPSWITCH1_Fam/PICTURE_663.png,columna,0,21,21,43,,,,,,,,161.81574970000008,162.8597049000001,162.8597049000001,162.8597049000001,0.003787800000054631,166.35300570000015,168.89192370000012,C:\2023\REPSWITCH12092023\REPSWITCH_excgange\REPSWITCH_excgange\data/351780_REPSWITCH1_Fam_2023-09-15_11h29.16.141_micFam_recorded\recording_micFam_2023-09-15_11h32.01.358.wav,,,,,,,,351780,001,2023-09-15_11h29.16.141,REPSWITCH1_Fam,2022.2.4,360.14232824819015,
REPSWITCH1_Fam/PICTURE_152.png,caracol,0,22,22,3,,,,,,,,168.89192370000012,169.92750130000002,169.92750130000002,169.92750130000002,0.005314699999871664,173.42300360000002,175.95639949999997,C:\2023\REPSWITCH12092023\REPSWITCH_excgange\REPSWITCH_excgange\data/351780_REPSWITCH1_Fam_2023-09-15_11h29.16.141_micFam_recorded\recording_micFam_2023-09-15_11h32.08.424.wav,,,,,,,,351780,001,2023-09-15_11h29.16.141,REPSWITCH1_Fam,2022.2.4,360.14232824819015,
REPSWITCH1_Fam/PICTURE_19.png,pavo,0,23,23,8,,,,,,,,175.95639949999997,177.02184799999998,177.02184799999998,177.02184799999998,0.005132499999945139,180.51512850000006,183.0574702,C:\2023\REPSWITCH12092023\REPSWITCH_excgange\REPSWITCH_excgange\data/351780_REPSWITCH1_Fam_2023-09-15_11h29.16.141_micFam_recorded\recording_micFam_2023-09-15_11h32.15.521.wav,,,,,,,,351780,001,2023-09-15_11h29.16.141,REPSWITCH1_Fam,2022.2.4,360.14232824819015,
REPSWITCH1_Fam/PICTURE_570.png,toro,0,24,24,34,,,,,,,,183.0574702,184.10565980000013,184.10565980000013,184.10565980000013,0.004786299999977928,187.59901849999994,190.13858240000002,C:\2023\REPSWITCH12092023\REPSWITCH_excgange\REPSWITCH_excgange\data/351780_REPSWITCH1_Fam_2023-09-15_11h29.16.141_micFam_recorded\recording_micFam_2023-09-15_11h32.22.604.wav,,,,,,,,351780,001,2023-09-15_11h29.16.141,REPSWITCH1_Fam,2022.2.4,360.14232824819015,
REPSWITCH1_Fam/PICTURE_687.png,camisa,0,25,25,28,,,,,,,,190.13858240000002,191.27330029999996,191.27330029999996,191.27330029999996,0.004586100000096849,194.76339730000007,197.26263630000005,C:\2023\REPSWITCH12092023\REPSWITCH_excgange\REPSWITCH_excgange\data/351780_REPSWITCH1_Fam_2023-09-15_11h29.16.141_micFam_recorded\recording_micFam_2023-09-15_11h32.29.769.wav,,,,,,,,351780,001,2023-09-15_11h29.16.141,REPSWITCH1_Fam,2022.2.4,360.14232824819015,
REPSWITCH1_Fam/PICTURE_614.png,reina,0,26,26,36,,,,,,,,197.30150330000004,198.33448039999996,198.33448039999996,198.33448039999996,0.0037942999999813765,201.8283368000001,204.36311209999997,C:\2023\REPSWITCH12092023\REPSWITCH_excgange\REPSWITCH_excgange\data/351780_REPSWITCH1_Fam_2023-09-15_11h29.16.141_micFam_recorded\recording_micFam_2023-09-15_11h32.36.833.wav,,,,,,,,351780,001,2023-09-15_11h29.16.141,REPSWITCH1_Fam,2022.2.4,360.14232824819015,
REPSWITCH1_Fam/PICTURE_264.png,mano,0,27,27,12,,,,,,,,204.36311209999997,205.4553591,205.4553591,205.4553591,0.005193000000190295,208.94221100000016,211.44147080000005,C:\2023\REPSWITCH12092023\REPSWITCH_excgange\REPSWITCH_excgange\data/351780_REPSWITCH1_Fam_2023-09-15_11h29.16.141_micFam_recorded\recording_micFam_2023-09-15_11h32.43.948.wav,,,,,,,,351780,001,2023-09-15_11h29.16.141,REPSWITCH1_Fam,2022.2.4,360.14232824819015,
REPSWITCH1_Fam/PICTURE_12.png,sirena,0,28,28,38,,,,,,,,211.48035420000008,212.57797360000006,212.57797360000006,212.57797360000006,0.005272600000125749,216.06815229999995,218.60378030000004,C:\2023\REPSWITCH12092023\REPSWITCH_excgange\REPSWITCH_excgange\data/351780_REPSWITCH1_Fam_2023-09-15_11h29.16.141_micFam_recorded\recording_micFam_2023-09-15_11h32.51.072.wav,,,,,,,,351780,001,2023-09-15_11h29.16.141,REPSWITCH1_Fam,2022.2.4,360.14232824819015,
REPSWITCH1_Fam/PICTURE_391.png,cadena,0,29,29,40,,,,,,,,218.60378030000004,219.74020910000002,219.74020910000002,219.74020910000002,0.004948600000034276,223.2265453000001,225.72907999999995,C:\2023\REPSWITCH12092023\REPSWITCH_excgange\REPSWITCH_excgange\data/351780_REPSWITCH1_Fam_2023-09-15_11h29.16.141_micFam_recorded\recording_micFam_2023-09-15_11h32.58.234.wav,,,,,,,,351780,001,2023-09-15_11h29.16.141,REPSWITCH1_Fam,2022.2.4,360.14232824819015,
REPSWITCH1_Fam/PICTURE_199.png,falda,0,30,30,9,,,,,,,,225.76509910000016,226.78517799999997,226.78517799999997,226.78517799999997,0.005408100000067861,230.27772110000012,,C:\2023\REPSWITCH12092023\REPSWITCH_excgange\REPSWITCH_excgange\data/351780_REPSWITCH1_Fam_2023-09-15_11h29.16.141_micFam_recorded\recording_micFam_2023-09-15_11h33.05.278.wav,,,,,,,,351780,001,2023-09-15_11h29.16.141,REPSWITCH1_Fam,2022.2.4,360.14232824819015,
REPSWITCH1_Fam/PICTURE_8.png,pierna,0,31,31,31,,,,,,,,232.80965400000002,233.94259990000012,233.94259990000012,233.94259990000012,0.005022699999926772,237.4358959,239.93528730000014,C:\2023\REPSWITCH12092023\REPSWITCH_excgange\REPSWITCH_excgange\data/351780_REPSWITCH1_Fam_2023-09-15_11h29.16.141_micFam_recorded\recording_micFam_2023-09-15_11h33.12.441.wav,,,,,,,,351780,001,2023-09-15_11h29.16.141,REPSWITCH1_Fam,2022.2.4,360.14232824819015,
REPSWITCH1_Fam/PICTURE_235.png,aguja,0,32,32,10,,,,,,,,239.97401019999995,241.02131670000006,241.02131670000006,241.02131670000006,0.004916800000046351,244.51751550000006,,C:\2023\REPSWITCH12092023\REPSWITCH_excgange\REPSWITCH_excgange\data/351780_REPSWITCH1_Fam_2023-09-15_11h29.16.141_micFam_recorded\recording_micFam_2023-09-15_11h33.19.517.wav,,,,,,,,351780,001,2023-09-15_11h29.16.141,REPSWITCH1_Fam,2022.2.4,360.14232824819015,
REPSWITCH1_Fam/PICTURE_719.png,baño,0,33,33,29,,,,,,,,247.0507589,248.10297660000003,248.10297660000003,248.10297660000003,0.005472000000054322,251.59579540000016,,C:\2023\REPSWITCH12092023\REPSWITCH_excgange\REPSWITCH_excgange\data/351780_REPSWITCH1_Fam_2023-09-15_11h29.16.141_micFam_recorded\recording_micFam_2023-09-15_11h33.26.596.wav,,,,,,,,351780,001,2023-09-15_11h29.16.141,REPSWITCH1_Fam,2022.2.4,360.14232824819015,
REPSWITCH1_Fam/PICTURE_110.png,mesa,0,34,34,37,,,,,,,,254.12799900000016,255.25902870000016,255.25902870000016,255.25902870000016,0.005058700000063254,258.7518509,,C:\2023\REPSWITCH12092023\REPSWITCH_excgange\REPSWITCH_excgange\data/351780_REPSWITCH1_Fam_2023-09-15_11h29.16.141_micFam_recorded\recording_micFam_2023-09-15_11h33.33.752.wav,,,,,,,,351780,001,2023-09-15_11h29.16.141,REPSWITCH1_Fam,2022.2.4,360.14232824819015,
REPSWITCH1_Fam/PICTURE_48.png,bombero,0,35,35,22,,,,,,,,261.28388900000016,262.348558,262.348558,262.348558,0.0052614000001085515,265.8384863,,C:\2023\REPSWITCH12092023\REPSWITCH_excgange\REPSWITCH_excgange\data/351780_REPSWITCH1_Fam_2023-09-15_11h29.16.141_micFam_recorded\recording_micFam_2023-09-15_11h33.40.841.wav,,,,,,,,351780,001,2023-09-15_11h29.16.141,REPSWITCH1_Fam,2022.2.4,360.14232824819015,
REPSWITCH1_Fam/PICTURE_30.png,granja,0,36,36,14,,,,,,,,268.37328590000004,269.4368587,269.4368587,269.4368587,0.0052754999999251595,272.92735730000015,275.4298923,C:\2023\REPSWITCH12092023\REPSWITCH_excgange\REPSWITCH_excgange\data/351780_REPSWITCH1_Fam_2023-09-15_11h29.16.141_micFam_recorded\recording_micFam_2023-09-15_11h33.47.933.wav,,,,,,,,351780,001,2023-09-15_11h29.16.141,REPSWITCH1_Fam,2022.2.4,360.14232824819015,
REPSWITCH1_Fam/PICTURE_175.png,pintor,0,37,37,6,,,,,,,,275.46619680000015,276.5627410000001,276.5627410000001,276.5627410000001,0.004629999999906431,280.0560861,282.59170500000016,C:\2023\REPSWITCH12092023\REPSWITCH_excgange\REPSWITCH_excgange\data/351780_REPSWITCH1_Fam_2023-09-15_11h29.16.141_micFam_recorded\recording_micFam_2023-09-15_11h33.55.059.wav,,,,,,,,351780,001,2023-09-15_11h29.16.141,REPSWITCH1_Fam,2022.2.4,360.14232824819015,
REPSWITCH1_Fam/PICTURE_128.png,muñeca,0,38,38,0,,,,,,,,282.59170500000016,283.6850726000001,283.6850726000001,283.6850726000001,0.0012732999998661398,287.1811385,289.68380360000003,C:\2023\REPSWITCH12092023\REPSWITCH_excgange\REPSWITCH_excgange\data/351780_REPSWITCH1_Fam_2023-09-15_11h29.16.141_micFam_recorded\recording_micFam_2023-09-15_11h34.02.193.wav,289.7282314,289.7282314,,,,,,351780,001,2023-09-15_11h29.16.141,REPSWITCH1_Fam,2022.2.4,360.14232824819015,
REPSWITCH1_Fam/PICTURE_728.png,pulpo,0,39,39,30,,,,,,,,289.7282314,290.80782120000015,290.80782120000015,290.80782120000015,0.005456900000126552,294.2983150000001,296.7975199000001,C:\2023\REPSWITCH12092023\REPSWITCH_excgange\REPSWITCH_excgange\data/351780_REPSWITCH1_Fam_2023-09-15_11h29.16.141_micFam_recorded\recording_micFam_2023-09-15_11h34.09.305.wav,,,,,,,,351780,001,2023-09-15_11h29.16.141,REPSWITCH1_Fam,2022.2.4,360.14232824819015,
REPSWITCH1_Fam/PICTURE_320.png,iglesia,0,40,40,16,,,,,,,,296.8368819000001,297.9027634,297.9027634,297.9027634,0.004329200000029232,301.39603139999997,303.89528810000013,C:\2023\REPSWITCH12092023\REPSWITCH_excgange\REPSWITCH_excgange\data/351780_REPSWITCH1_Fam_2023-09-15_11h29.16.141_micFam_recorded\recording_micFam_2023-09-15_11h34.16.401.wav,,,,,,,,351780,001,2023-09-15_11h29.16.141,REPSWITCH1_Fam,2022.2.4,360.14232824819015,
REPSWITCH1_Fam/PICTURE_35.png,oreja,0,41,41,18,,,,,,,,303.9313717000001,305.0708916,305.0708916,305.0708916,0.0012202000000343105,308.56929530000014,,C:\2023\REPSWITCH12092023\REPSWITCH_excgange\REPSWITCH_excgange\data/351780_REPSWITCH1_Fam_2023-09-15_11h29.16.141_micFam_recorded\recording_micFam_2023-09-15_11h34.23.565.wav,,,,,,,,351780,001,2023-09-15_11h29.16.141,REPSWITCH1_Fam,2022.2.4,360.14232824819015,
REPSWITCH1_Fam/PICTURE_242.png,cartero,0,42,42,11,,,,,,,,311.09588829999996,312.1435167000001,312.1435167000001,312.1435167000001,0.0012184999998225976,315.63926619999995,,C:\2023\REPSWITCH12092023\REPSWITCH_excgange\REPSWITCH_excgange\data/351780_REPSWITCH1_Fam_2023-09-15_11h29.16.141_micFam_recorded\recording_micFam_2023-09-15_11h34.30.638.wav,,,,,,,,351780,001,2023-09-15_11h29.16.141,REPSWITCH1_Fam,2022.2.4,360.14232824819015,
REPSWITCH1_Fam/PICTURE_590.png,escoba,0,43,43,41,,,,,,,,318.1713020000001,319.2607445,319.2607445,319.2607445,0.005482300000039686,322.7475872000001,325.28911960000016,C:\2023\REPSWITCH12092023\REPSWITCH_excgange\REPSWITCH_excgange\data/351780_REPSWITCH1_Fam_2023-09-15_11h29.16.141_micFam_recorded\recording_micFam_2023-09-15_11h34.37.754.wav,,,,,,,,351780,001,2023-09-15_11h29.16.141,REPSWITCH1_Fam,2022.2.4,360.14232824819015,
REPSWITCH1_Fam/PICTURE_271.png,conejo,0,44,44,13,,,,,,,,325.28911960000016,326.3530799000001,326.3530799000001,326.3530799000001,0.005487599999923987,329.84584540000003,,C:\2023\REPSWITCH12092023\REPSWITCH_excgange\REPSWITCH_excgange\data/351780_REPSWITCH1_Fam_2023-09-15_11h29.16.141_micFam_recorded\recording_micFam_2023-09-15_11h34.44.846.wav,,,,,,,,351780,001,2023-09-15_11h29.16.141,REPSWITCH1_Fam,2022.2.4,360.14232824819015,
,,,,,,,,,,,,,,,,,,,,,,,332.37849029999995,332.88049950000016,332.88049950000016,space,6.492868999999928,351780,001,2023-09-15_11h29.16.141,REPSWITCH1_Fam,2022.2.4,360.14232824819015,
