image;correctAns;respModal;frameColor;repSwitch;sequence;target;set;block;list;exp_version;stimulus;baseline;baseline_condition;trial_no;psychopy_trial;Column1;trialsREPSWITCH.thisRepN;trialsREPSWITCH.thisTrialN;trialsREPSWITCH.thisN;trialsREPSWITCH.thisIndex;textWelcome.started;textboxInstrMain1.started;textboxInstrMain1_2.started;textboxInstrMain1_3.started;keyInstrMain.started;keyInstrMain.keys;keyInstrMain.rt;textboxInstrMain2.started;textboxInstrMain2_2.started;textboxInstrMain2_3.started;textboxInstrMain2_4.started;textboxInstrMain2_5.started;textboxInstrMain2_6.started;textboxInstrMain2_7.started;textboxInstrMain2_8.started;textboxInstrMain2_9.started;textboxInstrMain2_10.started;textboxInstrMain2_11.started;textboxInstrMain2_12.started;keyInstrMain2.started;keyInstrMain2.keys;keyInstrMain2.rt;fixationITI.started;fixationITI.stopped;polygonColour.started;polygonWhite.started;imageObject.started;polygonType.started;textInput.started;keyResp.started;micRespv2l2.started;keyResp.keys;keyResp.corr;subjResponse;micRespv2l2.clip;textBlankLoop.started;textBlankLoop.stopped;keyPause.keys;polygonColour.stopped;polygonWhite.stopped;imageObject.stopped;polygonType.stopped;textInput.stopped;keyResp.stopped;keyResp.rt;textboxPause.started;keyPause.started;keyPause.rt;textboxGoodbye.started;textboxGoodbye.stopped;participant;session;date;expName;psychopyVersion;frameRate;Column2
;;;;;;;;;;;;;;;;;;;;;7.3994803;9.8964103;9.8964103;9.8964103;9.8964103;space;8.6445338;;;;;;;;;;;;;;;;;;;;;;;;;;;;;;;;;;;;;;;;;;;;360202;1;2023-12-12_17h48.19.720;REPSWITCH1_version2_list2;2022.2.4;143.9290028;
;;;;;;;;;;;;;;;;;;;;;;;;;;;;18.5572728;18.5572728;18.5572728;18.5572728;18.5572728;18.5572728;18.5572728;18.5572728;18.5572728;18.5572728;18.5572728;18.5572728;18.5572728;space;2.814172;;;;;;;;;;;;;;;;;;;;;;;;;;;;;360202;1;2023-12-12_17h48.19.720;REPSWITCH1_version2_list2;2022.2.4;143.9290028;
REPSWITCH1/PICTURE_646.png;tronco;speak;darkblue;filler;2;F;1;3;2;2;Extra4;0;None;1;0;1;0;0;0;0;;;;;;;;;;;;;;;;;;;;;;;21.467336;22.5161503;22.5161503;22.5161503;22.5161503;22.5161503;22.5161503;22.5161503;22.5161503;None;0;;C:\2023\REPSWITCH21092023\REPSWITCH_excgange\REPSWITCH_excgange\data/360202_REPSWITCH1_version2_list2_2023-12-12_17h48.19.720_micRespv2l2_recorded\recording_micRespv2l2_2023-12-12_17h48.39.715.wav;25.5373556;26.0374186;None;;;;;;;;;;;;;360202;1;2023-12-12_17h48.19.720;REPSWITCH1_version2_list2;2022.2.4;143.9290028;
REPSWITCH1/PICTURE_340.png;espejo;type;gold;filler;1;F;1;3;2;2;Extra1;0;None;2;1;2;0;1;1;1;;;;;;;;;;;;;;;;;;;;;;;26.0374186;27.2389812;27.2389812;27.2389812;27.2389812;27.2389812;27.2389812;27.2389812;27.2389812;['e', 's', 'p', 'e', 'j', 'o'];0;espejo;C:\2023\REPSWITCH21092023\REPSWITCH_excgange\REPSWITCH_excgange\data/360202_REPSWITCH1_version2_list2_2023-12-12_17h48.19.720_micRespv2l2_recorded\recording_micRespv2l2_2023-12-12_17h48.44.442.wav;30.2671323;;None;30.2671323;30.2671323;30.2671323;30.2671323;30.2671323;30.2671323;[0.7566633000969887, 0.9386236001737416, 1.0962534002028406, 1.1999013000167906, 1.397156700026244, 1.590871499851346];;;;;;360202;1;2023-12-12_17h48.19.720;REPSWITCH1_version2_list2;2022.2.4;143.9290028;
REPSWITCH1/PICTURE_338.png;regalo;speak;darkblue;filler;2;F;1;3;2;2;Stim6_Set4;0;None;3;2;3;0;2;2;2;;;;;;;;;;;;;;;;;;;;;;;30.7672103;31.9410394;31.9410394;31.9410394;31.9410394;31.9410394;31.9410394;31.9410394;31.9410394;None;0;;C:\2023\REPSWITCH21092023\REPSWITCH_excgange\REPSWITCH_excgange\data/360202_REPSWITCH1_version2_list2_2023-12-12_17h48.19.720_micRespv2l2_recorded\recording_micRespv2l2_2023-12-12_17h48.49.144.wav;34.9621817;35.4622768;None;34.9621817;34.9621817;34.9621817;34.9621817;34.9621817;34.9621817;;;;;;;360202;1;2023-12-12_17h48.19.720;REPSWITCH1_version2_list2;2022.2.4;143.9290028;
REPSWITCH1/PICTURE_142.png;vaso;speak;darkblue;nontarget;2;NT;1;3;2;2;Stim7_Set1;1;repeat;4;3;4;0;3;3;3;;;;;;;;;;;;;;;;;;;;;;;35.4622768;36.5249607;36.5249607;36.5249607;36.5249607;36.5249607;36.5249607;36.5249607;36.5249607;None;0;;C:\2023\REPSWITCH21092023\REPSWITCH_excgange\REPSWITCH_excgange\data/360202_REPSWITCH1_version2_list2_2023-12-12_17h48.19.720_micRespv2l2_recorded\recording_micRespv2l2_2023-12-12_17h48.53.728.wav;39.55307;;None;39.55307;39.55307;39.55307;39.55307;39.55307;39.55307;;;;;;;360202;1;2023-12-12_17h48.19.720;REPSWITCH1_version2_list2;2022.2.4;143.9290028;
REPSWITCH1/PICTURE_142.png;vaso;speak;darkblue;repeat;2;T;1;3;2;2;Stim7_Set1;0;None;5;4;5;0;4;4;4;;;;;;;;;;;;;;;;;;;;;;;40.0531355;41.240801;41.240801;41.240801;41.240801;41.240801;41.240801;41.240801;41.240801;None;0;;C:\2023\REPSWITCH21092023\REPSWITCH_excgange\REPSWITCH_excgange\data/360202_REPSWITCH1_version2_list2_2023-12-12_17h48.19.720_micRespv2l2_recorded\recording_micRespv2l2_2023-12-12_17h48.58.443.wav;44.262075;44.7620752;None;44.262075;44.262075;44.262075;44.262075;44.262075;44.262075;;;;;;;360202;1;2023-12-12_17h48.19.720;REPSWITCH1_version2_list2;2022.2.4;143.9290028;
REPSWITCH1/PICTURE_498.png;taza;type;gold;filler;1;F;1;3;2;2;Stim4_Set4;0;None;6;5;6;0;5;5;5;;;;;;;;;;;;;;;;;;;;;;;44.7620752;45.8455488;45.8455488;45.8455488;45.8455488;45.8455488;45.8455488;45.8455488;45.8455488;['t', 'a', 'z', 'a'];0;taza;C:\2023\REPSWITCH21092023\REPSWITCH_excgange\REPSWITCH_excgange\data/360202_REPSWITCH1_version2_list2_2023-12-12_17h48.19.720_micRespv2l2_recorded\recording_micRespv2l2_2023-12-12_17h49.03.048.wav;48.866813;49.3668648;None;48.866813;48.866813;48.866813;48.866813;48.866813;48.866813;[0.9357655998319387, 1.0164922000840306, 1.205110200215131, 1.3845374998636544];;;;;;360202;1;2023-12-12_17h48.19.720;REPSWITCH1_version2_list2;2022.2.4;143.9290028;
REPSWITCH1/PICTURE_16.png;cazador;speak;darkblue;nontarget;2;NT;1;3;2;2;Stim6_Set1;1;switch;7;6;7;0;6;6;6;;;;;;;;;;;;;;;;;;;;;;;49.3668648;50.5059074;50.5059074;50.5059074;50.5059074;50.5059074;50.5059074;50.5059074;50.5059074;None;0;;C:\2023\REPSWITCH21092023\REPSWITCH_excgange\REPSWITCH_excgange\data/360202_REPSWITCH1_version2_list2_2023-12-12_17h48.19.720_micRespv2l2_recorded\recording_micRespv2l2_2023-12-12_17h49.07.709.wav;53.5270915;54.0271893;None;53.5270915;53.5270915;53.5270915;53.5270915;53.5270915;53.5270915;;;;;;;360202;1;2023-12-12_17h48.19.720;REPSWITCH1_version2_list2;2022.2.4;143.9290028;
REPSWITCH1/PICTURE_16.png;cazador;speak;darkblue;repeat;2;T;1;3;2;2;Stim6_Set1;0;None;8;7;8;0;7;7;7;;;;;;;;;;;;;;;;;;;;;;;54.0271893;55.1454087;55.1454087;55.1454087;55.1454087;55.1454087;55.1454087;55.1454087;55.1454087;None;0;;C:\2023\REPSWITCH21092023\REPSWITCH_excgange\REPSWITCH_excgange\data/360202_REPSWITCH1_version2_list2_2023-12-12_17h48.19.720_micRespv2l2_recorded\recording_micRespv2l2_2023-12-12_17h49.12.348.wav;58.1666328;58.6667213;None;58.1666328;58.1666328;58.1666328;58.1666328;58.1666328;58.1666328;;;;;;;360202;1;2023-12-12_17h48.19.720;REPSWITCH1_version2_list2;2022.2.4;143.9290028;
REPSWITCH1/PICTURE_719.png;baño;type;gold;filler;1;F;1;3;2;2;Stim2_Set4;0;None;9;8;9;0;8;8;8;;;;;;;;;;;;;;;;;;;;;;;58.6667213;59.7710062;59.7710062;59.7710062;59.7710062;59.7710062;59.7710062;59.7710062;59.7710062;['b', 'a', 'ñ', 'o'];0;baño;C:\2023\REPSWITCH21092023\REPSWITCH_excgange\REPSWITCH_excgange\data/360202_REPSWITCH1_version2_list2_2023-12-12_17h48.19.720_micRespv2l2_recorded\recording_micRespv2l2_2023-12-12_17h49.16.974.wav;62.7922131;63.2922926;None;62.7922131;62.7922131;62.7922131;62.7922131;62.7922131;62.7922131;[1.1874577002599835, 1.2930705002509058, 1.6651339000090957, 1.8263397002592683];;;;;;360202;1;2023-12-12_17h48.19.720;REPSWITCH1_version2_list2;2022.2.4;143.9290028;
REPSWITCH1/PICTURE_169.png;espalda;speak;darkblue;nontarget;2;NT;1;3;2;2;Stim8_Set1;0;None;10;9;10;0;9;9;9;;;;;;;;;;;;;;;;;;;;;;;63.2922926;64.3549513;64.3549513;64.3549513;64.3549513;64.3549513;64.3549513;64.3549513;64.3549513;None;0;;C:\2023\REPSWITCH21092023\REPSWITCH_excgange\REPSWITCH_excgange\data/360202_REPSWITCH1_version2_list2_2023-12-12_17h48.19.720_micRespv2l2_recorded\recording_micRespv2l2_2023-12-12_17h49.21.557.wav;67.376167;67.8762272;None;67.376167;67.376167;67.376167;67.376167;67.376167;67.376167;;;;;;;360202;1;2023-12-12_17h48.19.720;REPSWITCH1_version2_list2;2022.2.4;143.9290028;
REPSWITCH1/PICTURE_169.png;espalda;type;gold;switch;1;T;1;3;2;2;Stim8_Set1;0;None;11;10;11;0;10;10;10;;;;;;;;;;;;;;;;;;;;;;;67.8762272;69.0013711;69.0013711;69.0013711;69.0013711;69.0013711;69.0013711;69.0013711;69.0013711;['e', 's', 'p', 'l', 'backspace', 'a'];0;espa;C:\2023\REPSWITCH21092023\REPSWITCH_excgange\REPSWITCH_excgange\data/360202_REPSWITCH1_version2_list2_2023-12-12_17h48.19.720_micRespv2l2_recorded\recording_micRespv2l2_2023-12-12_17h49.26.205.wav;72.0225722;72.522646;None;72.0225722;72.0225722;72.0225722;72.0225722;72.0225722;72.0225722;[0.8508325996808708, 1.019825799856335, 1.1525910999625921, 1.374845499638468, 2.672305699903518, 2.7749532996676862];;;;;;360202;1;2023-12-12_17h48.19.720;REPSWITCH1_version2_list2;2022.2.4;143.9290028;
REPSWITCH1/PICTURE_687.png;camisa;type;gold;filler;1;F;1;3;2;2;Stim5_Set4;0;None;12;11;12;0;11;11;11;;;;;;;;;;;;;;;;;;;;;;;72.522646;73.5714781;73.5714781;73.5714781;73.5714781;73.5714781;73.5714781;73.5714781;73.5714781;['c', 'a', 'i', 'o', 's', 'a'];0;caiosa;C:\2023\REPSWITCH21092023\REPSWITCH_excgange\REPSWITCH_excgange\data/360202_REPSWITCH1_version2_list2_2023-12-12_17h48.19.720_micRespv2l2_recorded\recording_micRespv2l2_2023-12-12_17h49.30.774.wav;76.5995624;;None;76.5995624;76.5995624;76.5995624;76.5995624;76.5995624;76.5995624;[1.4629920003935695, 1.655321600381285, 2.4479845999740064, 2.4519238001666963, 2.54963820008561, 2.7818569000810385];;;;;;360202;1;2023-12-12_17h48.19.720;REPSWITCH1_version2_list2;2022.2.4;143.9290028;
REPSWITCH1/PICTURE_178.png;puente;type;gold;nontarget;1;NT;1;3;2;2;Stim1_Set1;1;repeat;13;12;13;0;12;12;12;;;;;;;;;;;;;;;;;;;;;;;77.0996343;78.1831489;78.1831489;78.1831489;78.1831489;78.1831489;78.1831489;78.1831489;78.1831489;['p', 'u', 'e', 'n', 't', 'e'];0;puente;C:\2023\REPSWITCH21092023\REPSWITCH_excgange\REPSWITCH_excgange\data/360202_REPSWITCH1_version2_list2_2023-12-12_17h48.19.720_micRespv2l2_recorded\recording_micRespv2l2_2023-12-12_17h49.35.387.wav;81.2113545;;None;81.2113545;81.2113545;81.2113545;81.2113545;81.2113545;81.2113545;[0.9436225001700222, 1.2525844001211226, 1.5251061003655195, 1.6509596002288163, 2.256891000084579, 2.4023895002901554];;;;;;360202;1;2023-12-12_17h48.19.720;REPSWITCH1_version2_list2;2022.2.4;143.9290028;
REPSWITCH1/PICTURE_178.png;puente;speak;darkblue;switch;2;T;1;3;2;2;Stim1_Set1;0;None;14;13;14;0;13;13;13;;;;;;;;;;;;;;;;;;;;;;;81.7113776;82.7601071;82.7601071;82.7601071;82.7601071;82.7601071;82.7601071;82.7601071;82.7601071;None;0;;C:\2023\REPSWITCH21092023\REPSWITCH_excgange\REPSWITCH_excgange\data/360202_REPSWITCH1_version2_list2_2023-12-12_17h48.19.720_micRespv2l2_recorded\recording_micRespv2l2_2023-12-12_17h49.39.963.wav;85.7813557;86.2814928;None;85.7813557;85.7813557;85.7813557;85.7813557;85.7813557;85.7813557;;;;;;;360202;1;2023-12-12_17h48.19.720;REPSWITCH1_version2_list2;2022.2.4;143.9290028;
REPSWITCH1/PICTURE_128.png;muñeca;speak;darkblue;nontarget;2;NT;1;3;2;2;Stim4_Set1;1;repeat;15;14;15;0;14;14;14;;;;;;;;;;;;;;;;;;;;;;;86.2814928;87.3441379;87.3441379;87.3441379;87.3441379;87.3441379;87.3441379;87.3441379;87.3441379;None;0;;C:\2023\REPSWITCH21092023\REPSWITCH_excgange\REPSWITCH_excgange\data/360202_REPSWITCH1_version2_list2_2023-12-12_17h48.19.720_micRespv2l2_recorded\recording_micRespv2l2_2023-12-12_17h49.44.547.wav;90.365253;90.8653538;None;90.365253;90.365253;90.365253;90.365253;90.365253;90.365253;;;;;;;360202;1;2023-12-12_17h48.19.720;REPSWITCH1_version2_list2;2022.2.4;143.9290028;
REPSWITCH1/PICTURE_128.png;muñeca;type;gold;switch;1;T;1;3;2;2;Stim4_Set1;0;None;16;15;16;0;15;15;15;;;;;;;;;;;;;;;;;;;;;;;90.8653538;92.0113312;92.0113312;92.0113312;92.0113312;92.0113312;92.0113312;92.0113312;92.0113312;['m', 'u', 'ñ', 'e', 'c', 'a'];0;muñeca;C:\2023\REPSWITCH21092023\REPSWITCH_excgange\REPSWITCH_excgange\data/360202_REPSWITCH1_version2_list2_2023-12-12_17h48.19.720_micRespv2l2_recorded\recording_micRespv2l2_2023-12-12_17h49.49.213.wav;95.0325423;95.5326063;None;95.0325423;95.0325423;95.0325423;95.0325423;95.0325423;95.0325423;[1.2067791000008583, 1.3921766001731157, 1.8203939003869891, 2.015723400283605, 2.2161026000976562, 2.320746600162238];;;;;;360202;1;2023-12-12_17h48.19.720;REPSWITCH1_version2_list2;2022.2.4;143.9290028;
REPSWITCH1/PICTURE_319.png;vaca;speak;darkblue;filler;2;F;1;3;2;2;Stim1_Set4;1;switch;17;16;17;0;16;16;16;;;;;;;;;;;;;;;;;;;;;;;95.5326063;96.6855737;96.6855737;96.6855737;96.6855737;96.6855737;96.6855737;96.6855737;96.6855737;None;0;;C:\2023\REPSWITCH21092023\REPSWITCH_excgange\REPSWITCH_excgange\data/360202_REPSWITCH1_version2_list2_2023-12-12_17h48.19.720_micRespv2l2_recorded\recording_micRespv2l2_2023-12-12_17h49.53.888.wav;99.7068182;100.206857;None;99.7068182;99.7068182;99.7068182;99.7068182;99.7068182;99.7068182;;;;;;;360202;1;2023-12-12_17h48.19.720;REPSWITCH1_version2_list2;2022.2.4;143.9290028;
REPSWITCH1/PICTURE_728.png;pulpo;speak;darkblue;filler;2;F;1;3;2;2;Stim8_Set4;0;None;18;17;18;0;17;17;17;;;;;;;;;;;;;;;;;;;;;;;100.206857;101.3597808;101.3597808;101.3597808;101.3597808;101.3597808;101.3597808;101.3597808;101.3597808;None;0;;C:\2023\REPSWITCH21092023\REPSWITCH_excgange\REPSWITCH_excgange\data/360202_REPSWITCH1_version2_list2_2023-12-12_17h48.19.720_micRespv2l2_recorded\recording_micRespv2l2_2023-12-12_17h49.58.562.wav;104.3810045;104.8810805;None;104.3810045;104.3810045;104.3810045;104.3810045;104.3810045;104.3810045;;;;;;;360202;1;2023-12-12_17h48.19.720;REPSWITCH1_version2_list2;2022.2.4;143.9290028;
REPSWITCH1/PICTURE_381.png;fresa;type;gold;nontarget;1;NT;1;3;2;2;Stim2_Set1;1;switch;19;18;19;0;18;18;18;;;;;;;;;;;;;;;;;;;;;;;104.8810805;105.9784252;105.9784252;105.9784252;105.9784252;105.9784252;105.9784252;105.9784252;105.9784252;['f', 'r', 'e', 's', 'a'];0;fresa;C:\2023\REPSWITCH21092023\REPSWITCH_excgange\REPSWITCH_excgange\data/360202_REPSWITCH1_version2_list2_2023-12-12_17h48.19.720_micRespv2l2_recorded\recording_micRespv2l2_2023-12-12_17h50.03.181.wav;108.999674;109.4997285;None;108.999674;108.999674;108.999674;108.999674;108.999674;108.999674;[1.324791599996388, 1.4610248999670148, 1.610523299779743, 1.7946148999035358, 2.0001441999338567];;;;;;360202;1;2023-12-12_17h48.19.720;REPSWITCH1_version2_list2;2022.2.4;143.9290028;
REPSWITCH1/PICTURE_381.png;fresa;type;gold;repeat;1;T;1;3;2;2;Stim2_Set1;0;None;20;19;20;0;19;19;19;;;;;;;;;;;;;;;;;;;;;;;109.4997285;110.5763078;110.5763078;110.5763078;110.5763078;110.5763078;110.5763078;110.5763078;110.5763078;['f', 'r', 'e', 's', 'a'];0;fresa;C:\2023\REPSWITCH21092023\REPSWITCH_excgange\REPSWITCH_excgange\data/360202_REPSWITCH1_version2_list2_2023-12-12_17h48.19.720_micRespv2l2_recorded\recording_micRespv2l2_2023-12-12_17h50.07.779.wav;113.5974735;114.0975609;None;113.5974735;113.5974735;113.5974735;113.5974735;113.5974735;113.5974735;[1.0829448997974396, 1.2244691997766495, 1.3041910999454558, 1.4749233997426927, 1.6792073999531567];;;;;;360202;1;2023-12-12_17h48.19.720;REPSWITCH1_version2_list2;2022.2.4;143.9290028;
REPSWITCH1/PICTURE_8.png;pierna;speak;darkblue;filler;2;F;1;3;2;2;Stim3_Set4;0;None;21;20;21;0;20;20;20;;;;;;;;;;;;;;;;;;;;;;;114.0975609;115.222744;115.222744;115.222744;115.222744;115.222744;115.222744;115.222744;115.222744;None;0;;C:\2023\REPSWITCH21092023\REPSWITCH_excgange\REPSWITCH_excgange\data/360202_REPSWITCH1_version2_list2_2023-12-12_17h48.19.720_micRespv2l2_recorded\recording_micRespv2l2_2023-12-12_17h50.12.425.wav;118.2440199;118.7440069;None;118.2440199;118.2440199;118.2440199;118.2440199;118.2440199;118.2440199;;;;;;;360202;1;2023-12-12_17h48.19.720;REPSWITCH1_version2_list2;2022.2.4;143.9290028;
REPSWITCH1/PICTURE_48.png;bombero;speak;darkblue;filler;2;F;1;3;2;2;Stim7_Set4;0;None;22;21;22;0;21;21;21;;;;;;;;;;;;;;;;;;;;;;;118.7440069;119.8205141;119.8205141;119.8205141;119.8205141;119.8205141;119.8205141;119.8205141;119.8205141;None;0;;C:\2023\REPSWITCH21092023\REPSWITCH_excgange\REPSWITCH_excgange\data/360202_REPSWITCH1_version2_list2_2023-12-12_17h48.19.720_micRespv2l2_recorded\recording_micRespv2l2_2023-12-12_17h50.17.024.wav;122.8417267;123.3418932;None;122.8417267;122.8417267;122.8417267;122.8417267;122.8417267;122.8417267;;;;;;;360202;1;2023-12-12_17h48.19.720;REPSWITCH1_version2_list2;2022.2.4;143.9290028;
REPSWITCH1/PICTURE_135.png;traje;type;gold;nontarget;1;NT;1;3;2;2;Stim3_Set1;1;switch;23;22;23;0;22;22;22;;;;;;;;;;;;;;;;;;;;;;;123.3418932;124.4669954;124.4669954;124.4669954;124.4669954;124.4669954;124.4669954;124.4669954;124.4669954;['t', 'r', 'a', 'j', 'e'];0;traje;C:\2023\REPSWITCH21092023\REPSWITCH_excgange\REPSWITCH_excgange\data/360202_REPSWITCH1_version2_list2_2023-12-12_17h48.19.720_micRespv2l2_recorded\recording_micRespv2l2_2023-12-12_17h50.21.670.wav;127.4882031;127.9882562;None;127.4882031;127.4882031;127.4882031;127.4882031;127.4882031;127.4882031;[1.1572904996573925, 1.303795199841261, 1.378510299604386, 2.1256887996569276, 2.2302819998003542];;;;;;360202;1;2023-12-12_17h48.19.720;REPSWITCH1_version2_list2;2022.2.4;143.9290028;
REPSWITCH1/PICTURE_135.png;traje;type;gold;repeat;1;T;1;3;2;2;Stim3_Set1;0;None;24;23;24;0;23;23;23;;;;;;;;;;;;;;;;;;;;;;;127.9882562;129.0718096;129.0718096;129.0718096;129.0718096;129.0718096;129.0718096;129.0718096;129.0718096;['t', 'r', 'a', 'j', 'e'];0;traje;C:\2023\REPSWITCH21092023\REPSWITCH_excgange\REPSWITCH_excgange\data/360202_REPSWITCH1_version2_list2_2023-12-12_17h48.19.720_micRespv2l2_recorded\recording_micRespv2l2_2023-12-12_17h50.26.274.wav;132.0929386;132.5930317;None;132.0929386;132.0929386;132.0929386;132.0929386;132.0929386;132.0929386;[0.913583000190556, 1.0514771998859942, 1.1411700998432934, 1.481081500183791, 1.649831300135702];;;;;;360202;1;2023-12-12_17h48.19.720;REPSWITCH1_version2_list2;2022.2.4;143.9290028;
REPSWITCH1/PICTURE_19.png;pavo;type;gold;nontarget;1;NT;1;3;2;2;Stim5_Set1;1;repeat;25;24;25;0;24;24;24;;;;;;;;;;;;;;;;;;;;;;;132.5930317;133.8015891;133.8015891;133.8015891;133.8015891;133.8015891;133.8015891;133.8015891;133.8015891;['p', 'a', 'v', 'o'];0;pavo;C:\2023\REPSWITCH21092023\REPSWITCH_excgange\REPSWITCH_excgange\data/360202_REPSWITCH1_version2_list2_2023-12-12_17h48.19.720_micRespv2l2_recorded\recording_micRespv2l2_2023-12-12_17h50.31.005.wav;136.8297005;;None;136.8297005;136.8297005;136.8297005;136.8297005;136.8297005;136.8297005;[1.2152462000958622, 1.3118751998990774, 1.6469697998836637, 1.8202634998597205];;;;;;360202;1;2023-12-12_17h48.19.720;REPSWITCH1_version2_list2;2022.2.4;143.9290028;
REPSWITCH1/PICTURE_19.png;pavo;speak;darkblue;switch;2;T;1;3;2;2;Stim5_Set1;0;None;26;25;26;0;25;25;25;;;;;;;;;;;;;;;;;;;;;;;137.3297803;138.4757621;138.4757621;138.4757621;138.4757621;138.4757621;138.4757621;138.4757621;138.4757621;None;0;;C:\2023\REPSWITCH21092023\REPSWITCH_excgange\REPSWITCH_excgange\data/360202_REPSWITCH1_version2_list2_2023-12-12_17h48.19.720_micRespv2l2_recorded\recording_micRespv2l2_2023-12-12_17h50.35.678.wav;141.504;;None;141.504;141.504;141.504;141.504;141.504;141.504;;;;;;;360202;1;2023-12-12_17h48.19.720;REPSWITCH1_version2_list2;2022.2.4;143.9290028;
REPSWITCH1/PICTURE_142.png;vaso;speak;darkblue;filler;2;F;2;3;2;2;Stim7_Set1;0;None;27;26;27;0;26;26;26;;;;;;;;;;;;;;;;;;;;;;;142.0039998;143.1153216;143.1153216;143.1153216;143.1153216;143.1153216;143.1153216;143.1153216;143.1153216;None;0;;C:\2023\REPSWITCH21092023\REPSWITCH_excgange\REPSWITCH_excgange\data/360202_REPSWITCH1_version2_list2_2023-12-12_17h48.19.720_micRespv2l2_recorded\recording_micRespv2l2_2023-12-12_17h50.40.318.wav;146.1365338;146.6365223;None;146.1365338;146.1365338;146.1365338;146.1365338;146.1365338;146.1365338;;;;;;;360202;1;2023-12-12_17h48.19.720;REPSWITCH1_version2_list2;2022.2.4;143.9290028;
REPSWITCH1/PICTURE_135.png;traje;type;gold;filler;1;F;2;3;2;2;Stim3_Set1;0;None;28;27;28;0;27;27;27;;;;;;;;;;;;;;;;;;;;;;;146.6365223;147.8450319;147.8450319;147.8450319;147.8450319;147.8450319;147.8450319;147.8450319;147.8450319;['t', 'r', 'a', 'j', 'e'];0;traje;C:\2023\REPSWITCH21092023\REPSWITCH_excgange\REPSWITCH_excgange\data/360202_REPSWITCH1_version2_list2_2023-12-12_17h48.19.720_micRespv2l2_recorded\recording_micRespv2l2_2023-12-12_17h50.45.048.wav;150.8663414;151.3663328;None;150.8663414;150.8663414;150.8663414;150.8663414;150.8663414;150.8663414;[0.9678532998077571, 1.1346163996495306, 1.1844214000739157, 1.5535228997468948, 1.6651781997643411];;;;;;360202;1;2023-12-12_17h48.19.720;REPSWITCH1_version2_list2;2022.2.4;143.9290028;
REPSWITCH1/PICTURE_446.png;cerdo;type;gold;nontarget;1;NT;2;3;2;2;Stim7_Set2;0;None;29;28;29;0;28;28;28;;;;;;;;;;;;;;;;;;;;;;;151.3663328;152.5331762;152.5331762;152.5331762;152.5331762;152.5331762;152.5331762;152.5331762;152.5331762;['c', 'e', 'r', 'd', 'o'];0;cerdo;C:\2023\REPSWITCH21092023\REPSWITCH_excgange\REPSWITCH_excgange\data/360202_REPSWITCH1_version2_list2_2023-12-12_17h48.19.720_micRespv2l2_recorded\recording_micRespv2l2_2023-12-12_17h50.49.736.wav;155.5543536;156.0544118;None;155.5543536;155.5543536;155.5543536;155.5543536;155.5543536;155.5543536;[1.0397122004069388, 1.1525661000050604, 1.3319739000871778, 1.5015364000573754, 1.6607614001259208];;;;;;360202;1;2023-12-12_17h48.19.720;REPSWITCH1_version2_list2;2022.2.4;143.9290028;
REPSWITCH1/PICTURE_446.png;cerdo;type;gold;repeat;1;T;2;3;2;2;Stim7_Set2;0;None;30;29;30;0;29;29;29;;;;;;;;;;;;;;;;;;;;;;;156.0544118;157.2212609;157.2212609;157.2212609;157.2212609;157.2212609;157.2212609;157.2212609;157.2212609;['c', 'e', 'r', 'd', 'o'];0;cerdo;C:\2023\REPSWITCH21092023\REPSWITCH_excgange\REPSWITCH_excgange\data/360202_REPSWITCH1_version2_list2_2023-12-12_17h48.19.720_micRespv2l2_recorded\recording_micRespv2l2_2023-12-12_17h50.54.424.wav;160.2424636;160.7425395;None;160.2424636;160.2424636;160.2424636;160.2424636;160.2424636;160.2424636;[0.8040909999981523, 0.912765100132674, 1.1140672001056373, 1.2775410003960133, 1.3692324003204703];;;;;;360202;1;2023-12-12_17h48.19.720;REPSWITCH1_version2_list2;2022.2.4;143.9290028;
REPSWITCH1/PICTURE_16.png;cazador;speak;darkblue;filler;2;F;2;3;2;2;Stim6_Set1;0;None;31;30;31;0;30;30;30;;;;;;;;;;;;;;;;;;;;;;;160.7425395;161.7843793;161.7843793;161.7843793;161.7843793;161.7843793;161.7843793;161.7843793;161.7843793;None;0;;C:\2023\REPSWITCH21092023\REPSWITCH_excgange\REPSWITCH_excgange\data/360202_REPSWITCH1_version2_list2_2023-12-12_17h48.19.720_micRespv2l2_recorded\recording_micRespv2l2_2023-12-12_17h50.58.988.wav;164.8125174;;None;164.8125174;164.8125174;164.8125174;164.8125174;164.8125174;164.8125174;;;;;;;360202;1;2023-12-12_17h48.19.720;REPSWITCH1_version2_list2;2022.2.4;143.9290028;
REPSWITCH1/PICTURE_552.png;manzana;type;gold;nontarget;1;NT;2;3;2;2;Stim6_Set2;1;switch;32;31;32;0;31;31;31;;;;;;;;;;;;;;;;;;;;;;;165.3125742;166.4517241;166.4517241;166.4517241;166.4517241;166.4517241;166.4517241;166.4517241;166.4517241;['a', 'backspace', 'a', 'm', 'z'];0;amz;C:\2023\REPSWITCH21092023\REPSWITCH_excgange\REPSWITCH_excgange\data/360202_REPSWITCH1_version2_list2_2023-12-12_17h48.19.720_micRespv2l2_recorded\recording_micRespv2l2_2023-12-12_17h51.03.654.wav;169.47288;169.9729392;None;169.47288;169.47288;169.47288;169.47288;169.47288;169.47288;[1.4559833998791873, 2.279125299770385, 2.6867340998724103, 2.797691199928522, 2.881444999948144];;;;;;360202;1;2023-12-12_17h48.19.720;REPSWITCH1_version2_list2;2022.2.4;143.9290028;
REPSWITCH1/PICTURE_552.png;manzana;type;gold;repeat;1;T;2;3;2;2;Stim6_Set2;0;None;33;32;33;0;32;32;32;;;;;;;;;;;;;;;;;;;;;;;169.9729392;171.0772751;171.0772751;171.0772751;171.0772751;171.0772751;171.0772751;171.0772751;171.0772751;['m', 'a', 'n', 'z', 'a', 'n', 'a'];0;manzana;C:\2023\REPSWITCH21092023\REPSWITCH_excgange\REPSWITCH_excgange\data/360202_REPSWITCH1_version2_list2_2023-12-12_17h48.19.720_micRespv2l2_recorded\recording_micRespv2l2_2023-12-12_17h51.08.280.wav;174.1054032;;None;174.1054032;174.1054032;174.1054032;174.1054032;174.1054032;174.1054032;[0.7558531002141535, 1.5775219001807272, 1.7906853002496064, 1.979063699953258, 2.170407300349325, 2.4751468002796173, 2.6129234000109136];;;;;;360202;1;2023-12-12_17h48.19.720;REPSWITCH1_version2_list2;2022.2.4;143.9290028;
REPSWITCH1/PICTURE_517.png;cuerda;type;gold;nontarget;1;NT;2;3;2;2;Stim4_Set2;0;None;34;33;34;0;33;33;33;;;;;;;;;;;;;;;;;;;;;;;174.6054669;175.6889887;175.6889887;175.6889887;175.6889887;175.6889887;175.6889887;175.6889887;175.6889887;['c', 'u', 'e', 'r', 'd', 'a'];0;cuerda;C:\2023\REPSWITCH21092023\REPSWITCH_excgange\REPSWITCH_excgange\data/360202_REPSWITCH1_version2_list2_2023-12-12_17h48.19.720_micRespv2l2_recorded\recording_micRespv2l2_2023-12-12_17h51.12.892.wav;178.7102027;179.2102633;None;178.7102027;178.7102027;178.7102027;178.7102027;178.7102027;178.7102027;[0.9093550997786224, 1.1016949997283518, 1.2222879999317229, 1.4036037996411324, 1.5750604998320341, 1.6844084998592734];;;;;;360202;1;2023-12-12_17h48.19.720;REPSWITCH1_version2_list2;2022.2.4;143.9290028;
REPSWITCH1/PICTURE_517.png;cuerda;speak;darkblue;switch;2;T;2;3;2;2;Stim4_Set2;0;None;35;34;35;0;34;34;34;;;;;;;;;;;;;;;;;;;;;;;179.2102633;180.293762;180.293762;180.293762;180.293762;180.293762;180.293762;180.293762;180.293762;None;0;;C:\2023\REPSWITCH21092023\REPSWITCH_excgange\REPSWITCH_excgange\data/360202_REPSWITCH1_version2_list2_2023-12-12_17h48.19.720_micRespv2l2_recorded\recording_micRespv2l2_2023-12-12_17h51.17.497.wav;183.3149371;183.8150345;None;183.3149371;183.3149371;183.3149371;183.3149371;183.3149371;183.3149371;;;;;;;360202;1;2023-12-12_17h48.19.720;REPSWITCH1_version2_list2;2022.2.4;143.9290028;
REPSWITCH1/PICTURE_169.png;espalda;speak;darkblue;filler;2;F;2;3;2;2;Stim8_Set1;1;repeat;36;35;36;0;35;35;35;;;;;;;;;;;;;;;;;;;;;;;183.8150345;185.0721239;185.0721239;185.0721239;185.0721239;185.0721239;185.0721239;185.0721239;185.0721239;None;0;;C:\2023\REPSWITCH21092023\REPSWITCH_excgange\REPSWITCH_excgange\data/360202_REPSWITCH1_version2_list2_2023-12-12_17h48.19.720_micRespv2l2_recorded\recording_micRespv2l2_2023-12-12_17h51.22.274.wav;188.0934478;188.5934802;None;188.0934478;188.0934478;188.0934478;188.0934478;188.0934478;188.0934478;;;;;;;360202;1;2023-12-12_17h48.19.720;REPSWITCH1_version2_list2;2022.2.4;143.9290028;
REPSWITCH1/PICTURE_30.png;granja;speak;darkblue;nontarget;2;NT;2;3;2;2;Stim5_Set2;1;repeat;37;36;37;0;36;36;36;;;;;;;;;;;;;;;;;;;;;;;188.5934802;189.6839238;189.6839238;189.6839238;189.6839238;189.6839238;189.6839238;189.6839238;189.6839238;None;0;;C:\2023\REPSWITCH21092023\REPSWITCH_excgange\REPSWITCH_excgange\data/360202_REPSWITCH1_version2_list2_2023-12-12_17h48.19.720_micRespv2l2_recorded\recording_micRespv2l2_2023-12-12_17h51.26.887.wav;192.7120297;;None;192.7120297;192.7120297;192.7120297;192.7120297;192.7120297;192.7120297;;;;;;;360202;1;2023-12-12_17h48.19.720;REPSWITCH1_version2_list2;2022.2.4;143.9290028;
REPSWITCH1/PICTURE_30.png;granja;type;gold;switch;1;T;2;3;2;2;Stim5_Set2;0;None;38;37;38;0;37;37;37;;;;;;;;;;;;;;;;;;;;;;;193.212172;194.3719483;194.3719483;194.3719483;194.3719483;194.3719483;194.3719483;194.3719483;194.3719483;['g', 'r', 'a', 'n', 'j', 'a'];0;granja;C:\2023\REPSWITCH21092023\REPSWITCH_excgange\REPSWITCH_excgange\data/360202_REPSWITCH1_version2_list2_2023-12-12_17h48.19.720_micRespv2l2_recorded\recording_micRespv2l2_2023-12-12_17h51.31.575.wav;197.3931806;197.8932765;None;197.3931806;197.3931806;197.3931806;197.3931806;197.3931806;197.3931806;[0.9710142998956144, 1.1394031001254916, 1.3925820998847485, 2.2628426998853683, 2.518973700236529, 2.65779950004071];;;;;;360202;1;2023-12-12_17h48.19.720;REPSWITCH1_version2_list2;2022.2.4;143.9290028;
REPSWITCH1/PICTURE_128.png;muñeca;type;gold;filler;1;F;2;3;2;2;Stim4_Set1;1;repeat;39;38;39;0;38;38;38;;;;;;;;;;;;;;;;;;;;;;;197.8932765;199.0253439;199.0253439;199.0253439;199.0253439;199.0253439;199.0253439;199.0253439;199.0253439;['m', 'u', 'ñ', 'e', 'c', 'a'];0;muñeca;C:\2023\REPSWITCH21092023\REPSWITCH_excgange\REPSWITCH_excgange\data/360202_REPSWITCH1_version2_list2_2023-12-12_17h48.19.720_micRespv2l2_recorded\recording_micRespv2l2_2023-12-12_17h51.36.228.wav;202.0465671;202.5467065;None;202.0465671;202.0465671;202.0465671;202.0465671;202.0465671;202.0465671;[1.0233081998303533, 1.239572400227189, 1.7007300998084247, 1.9423899999819696, 2.1865098997950554, 2.387046600226313];;;;;;360202;1;2023-12-12_17h48.19.720;REPSWITCH1_version2_list2;2022.2.4;143.9290028;
REPSWITCH1/PICTURE_199.png;falda;type;gold;nontarget;1;NT;2;3;2;2;Stim8_Set2;0;None;40;39;40;0;39;39;39;;;;;;;;;;;;;;;;;;;;;;;202.5467065;203.6579884;203.6579884;203.6579884;203.6579884;203.6579884;203.6579884;203.6579884;203.6579884;['f', 'a', 'l', 'd', 'a'];0;falda;C:\2023\REPSWITCH21092023\REPSWITCH_excgange\REPSWITCH_excgange\data/360202_REPSWITCH1_version2_list2_2023-12-12_17h48.19.720_micRespv2l2_recorded\recording_micRespv2l2_2023-12-12_17h51.40.861.wav;206.6791273;207.1792088;None;206.6791273;206.6791273;206.6791273;206.6791273;206.6791273;206.6791273;[0.97411929955706, 1.1625963998958468, 1.4382327999919653, 1.6076923999935389, 1.83822779962793];;;;;;360202;1;2023-12-12_17h48.19.720;REPSWITCH1_version2_list2;2022.2.4;143.9290028;
REPSWITCH1/PICTURE_199.png;falda;speak;darkblue;switch;2;T;2;3;2;2;Stim8_Set2;0;None;41;40;41;0;40;40;40;;;;;;;;;;;;;;;;;;;;;;;207.1792088;208.207099;208.207099;208.207099;208.207099;208.207099;208.207099;208.207099;208.207099;None;0;;C:\2023\REPSWITCH21092023\REPSWITCH_excgange\REPSWITCH_excgange\data/360202_REPSWITCH1_version2_list2_2023-12-12_17h48.19.720_micRespv2l2_recorded\recording_micRespv2l2_2023-12-12_17h51.45.411.wav;211.2283414;211.7283786;None;211.2283414;211.2283414;211.2283414;211.2283414;211.2283414;211.2283414;;;;;;;360202;1;2023-12-12_17h48.19.720;REPSWITCH1_version2_list2;2022.2.4;143.9290028;
REPSWITCH1/PICTURE_152.png;caracol;speak;darkblue;nontarget;2;NT;2;3;2;2;Stim2_Set2;1;switch;42;41;42;0;41;41;41;;;;;;;;;;;;;;;;;;;;;;;211.7283786;212.7493767;212.7493767;212.7493767;212.7493767;212.7493767;212.7493767;212.7493767;212.7493767;None;0;;C:\2023\REPSWITCH21092023\REPSWITCH_excgange\REPSWITCH_excgange\data/360202_REPSWITCH1_version2_list2_2023-12-12_17h48.19.720_micRespv2l2_recorded\recording_micRespv2l2_2023-12-12_17h51.49.953.wav;215.770614;216.270682;None;215.770614;215.770614;215.770614;215.770614;215.770614;215.770614;;;;;;;360202;1;2023-12-12_17h48.19.720;REPSWITCH1_version2_list2;2022.2.4;143.9290028;
REPSWITCH1/PICTURE_152.png;caracol;speak;darkblue;repeat;2;T;2;3;2;2;Stim2_Set2;0;None;43;42;43;0;42;42;42;;;;;;;;;;;;;;;;;;;;;;;216.270682;217.3889455;217.3889455;217.3889455;217.3889455;217.3889455;217.3889455;217.3889455;217.3889455;None;0;;C:\2023\REPSWITCH21092023\REPSWITCH_excgange\REPSWITCH_excgange\data/360202_REPSWITCH1_version2_list2_2023-12-12_17h48.19.720_micRespv2l2_recorded\recording_micRespv2l2_2023-12-12_17h51.54.592.wav;220.410169;220.9102447;None;220.410169;220.410169;220.410169;220.410169;220.410169;220.410169;;;;;;;360202;1;2023-12-12_17h48.19.720;REPSWITCH1_version2_list2;2022.2.4;143.9290028;
REPSWITCH1/PICTURE_381.png;fresa;type;gold;filler;1;F;2;3;2;2;Stim2_Set1;0;None;44;43;44;0;43;43;43;;;;;;;;;;;;;;;;;;;;;;;220.9102447;221.9728719;221.9728719;221.9728719;221.9728719;221.9728719;221.9728719;221.9728719;221.9728719;['f', 'r', 'e', 's', 'a'];0;fresa;C:\2023\REPSWITCH21092023\REPSWITCH_excgange\REPSWITCH_excgange\data/360202_REPSWITCH1_version2_list2_2023-12-12_17h48.19.720_micRespv2l2_recorded\recording_micRespv2l2_2023-12-12_17h51.59.176.wav;224.9940412;225.4940761;None;224.9940412;224.9940412;224.9940412;224.9940412;224.9940412;224.9940412;[0.9538595997728407, 1.560760600026697, 1.7421583998948336, 1.9504258995875716, 2.15176979964599];;;;;;360202;1;2023-12-12_17h48.19.720;REPSWITCH1_version2_list2;2022.2.4;143.9290028;
REPSWITCH1/PICTURE_175.png;pintor;speak;darkblue;nontarget;2;NT;2;3;2;2;Stim1_Set2;1;switch;45;44;45;0;44;44;44;;;;;;;;;;;;;;;;;;;;;;;225.4940761;226.5845108;226.5845108;226.5845108;226.5845108;226.5845108;226.5845108;226.5845108;226.5845108;None;0;;C:\2023\REPSWITCH21092023\REPSWITCH_excgange\REPSWITCH_excgange\data/360202_REPSWITCH1_version2_list2_2023-12-12_17h48.19.720_micRespv2l2_recorded\recording_micRespv2l2_2023-12-12_17h52.03.787.wav;229.6057588;230.1058234;None;229.6057588;229.6057588;229.6057588;229.6057588;229.6057588;229.6057588;;;;;;;360202;1;2023-12-12_17h48.19.720;REPSWITCH1_version2_list2;2022.2.4;143.9290028;
REPSWITCH1/PICTURE_175.png;pintor;speak;darkblue;repeat;2;T;2;3;2;2;Stim1_Set2;0;None;46;45;46;0;45;45;45;;;;;;;;;;;;;;;;;;;;;;;230.1058234;231.1337181;231.1337181;231.1337181;231.1337181;231.1337181;231.1337181;231.1337181;231.1337181;None;0;;C:\2023\REPSWITCH21092023\REPSWITCH_excgange\REPSWITCH_excgange\data/360202_REPSWITCH1_version2_list2_2023-12-12_17h48.19.720_micRespv2l2_recorded\recording_micRespv2l2_2023-12-12_17h52.08.336.wav;234.1549997;234.6551018;None;234.1549997;234.1549997;234.1549997;234.1549997;234.1549997;234.1549997;;;;;;;360202;1;2023-12-12_17h48.19.720;REPSWITCH1_version2_list2;2022.2.4;143.9290028;
REPSWITCH1/PICTURE_178.png;puente;type;gold;filler;1;F;2;3;2;2;Stim1_Set1;0;None;47;46;47;0;46;46;46;;;;;;;;;;;;;;;;;;;;;;;234.6551018;235.7246287;235.7246287;235.7246287;235.7246287;235.7246287;235.7246287;235.7246287;235.7246287;['p', 'u', 'e', 'n', 't', 'e'];0;puente;C:\2023\REPSWITCH21092023\REPSWITCH_excgange\REPSWITCH_excgange\data/360202_REPSWITCH1_version2_list2_2023-12-12_17h48.19.720_micRespv2l2_recorded\recording_micRespv2l2_2023-12-12_17h52.12.928.wav;238.752849;;None;238.752849;238.752849;238.752849;238.752849;238.752849;238.752849;[1.1178382001817226, 1.417915300000459, 1.6670734002254903, 1.8524946002289653, 2.0571852000430226, 2.201647700276226];;;;;;360202;1;2023-12-12_17h48.19.720;REPSWITCH1_version2_list2;2022.2.4;143.9290028;
REPSWITCH1/PICTURE_19.png;pavo;speak;darkblue;filler;2;F;2;3;2;2;Stim5_Set1;0;None;48;47;48;0;47;47;47;;;;;;;;;;;;;;;;;;;;;;;239.2528584;240.2668955;240.2668955;240.2668955;240.2668955;240.2668955;240.2668955;240.2668955;240.2668955;None;0;;C:\2023\REPSWITCH21092023\REPSWITCH_excgange\REPSWITCH_excgange\data/360202_REPSWITCH1_version2_list2_2023-12-12_17h48.19.720_micRespv2l2_recorded\recording_micRespv2l2_2023-12-12_17h52.17.471.wav;243.2950948;;None;243.2950948;243.2950948;243.2950948;243.2950948;243.2950948;243.2950948;;;;;;;360202;1;2023-12-12_17h48.19.720;REPSWITCH1_version2_list2;2022.2.4;143.9290028;
REPSWITCH1/PICTURE_264.png;mano;speak;darkblue;nontarget;2;NT;2;3;2;2;Stim3_Set2;1;repeat;49;48;49;0;48;48;48;;;;;;;;;;;;;;;;;;;;;;;243.7951229;244.8299645;244.8299645;244.8299645;244.8299645;244.8299645;244.8299645;244.8299645;244.8299645;None;0;;C:\2023\REPSWITCH21092023\REPSWITCH_excgange\REPSWITCH_excgange\data/360202_REPSWITCH1_version2_list2_2023-12-12_17h48.19.720_micRespv2l2_recorded\recording_micRespv2l2_2023-12-12_17h52.22.032.wav;247.851215;248.3513456;None;247.851215;247.851215;247.851215;247.851215;247.851215;247.851215;;;;;;;360202;1;2023-12-12_17h48.19.720;REPSWITCH1_version2_list2;2022.2.4;143.9290028;
REPSWITCH1/PICTURE_264.png;mano;type;gold;switch;1;T;2;3;2;2;Stim3_Set2;0;None;50;49;50;0;49;49;49;;;;;;;;;;;;;;;;;;;;;;;248.3513456;249.5320108;249.5320108;249.5320108;249.5320108;249.5320108;249.5320108;249.5320108;249.5320108;['m', 'a', 'n', 'o'];0;mano;C:\2023\REPSWITCH21092023\REPSWITCH_excgange\REPSWITCH_excgange\data/360202_REPSWITCH1_version2_list2_2023-12-12_17h48.19.720_micRespv2l2_recorded\recording_micRespv2l2_2023-12-12_17h52.26.735.wav;252.5601491;;None;252.5601491;252.5601491;252.5601491;252.5601491;252.5601491;252.5601491;[0.9035339998081326, 1.029113699682057, 1.117811099626124, 1.3150744000449777];;;;;;360202;1;2023-12-12_17h48.19.720;REPSWITCH1_version2_list2;2022.2.4;143.9290028;
REPSWITCH1/PICTURE_446.png;cerdo;type;gold;filler;1;F;3;3;2;2;Stim7_Set2;0;None;51;50;51;0;50;50;50;;;;;;;;;;;;;;;;;;;;;;;253.0602237;254.067357;254.067357;254.067357;254.067357;254.067357;254.067357;254.067357;254.067357;['c', 'e', 'r', 'd', 'o'];0;cerdo;C:\2023\REPSWITCH21092023\REPSWITCH_excgange\REPSWITCH_excgange\data/360202_REPSWITCH1_version2_list2_2023-12-12_17h48.19.720_micRespv2l2_recorded\recording_micRespv2l2_2023-12-12_17h52.31.270.wav;257.0885373;257.5885562;space;257.0885373;257.0885373;257.0885373;257.0885373;257.0885373;257.0885373;[1.0518984999507666, 1.164511799812317, 1.3628488997928798, 1.5840087998658419, 1.7145670000463724];257.5885562;257.5885562;1.7392901;;;360202;1;2023-12-12_17h48.19.720;REPSWITCH1_version2_list2;2022.2.4;143.9290028;
REPSWITCH1/PICTURE_235.png;aguja;type;gold;nontarget;1;NT;3;3;2;2;Stim4_Set3;1;repeat;52;51;52;0;51;51;51;;;;;;;;;;;;;;;;;;;;;;;259.3388299;260.5056709;260.5056709;260.5056709;260.5056709;260.5056709;260.5056709;260.5056709;260.5056709;['a', 'g', 'u', 'j', 'a'];0;aguja;C:\2023\REPSWITCH21092023\REPSWITCH_excgange\REPSWITCH_excgange\data/360202_REPSWITCH1_version2_list2_2023-12-12_17h48.19.720_micRespv2l2_recorded\recording_micRespv2l2_2023-12-12_17h52.37.708.wav;263.5269024;264.0269326;None;263.5269024;263.5269024;263.5269024;263.5269024;263.5269024;263.5269024;[1.0108709000051022, 1.1606581998057663, 1.4278432996943593, 1.58741689985618, 1.7010833998210728];;;;;;360202;1;2023-12-12_17h48.19.720;REPSWITCH1_version2_list2;2022.2.4;143.9290028;
REPSWITCH1/PICTURE_235.png;aguja;speak;darkblue;switch;2;T;3;3;2;2;Stim4_Set3;0;None;53;52;53;0;52;52;52;;;;;;;;;;;;;;;;;;;;;;;264.0269326;265.0826481;265.0826481;265.0826481;265.0826481;265.0826481;265.0826481;265.0826481;265.0826481;None;0;;C:\2023\REPSWITCH21092023\REPSWITCH_excgange\REPSWITCH_excgange\data/360202_REPSWITCH1_version2_list2_2023-12-12_17h48.19.720_micRespv2l2_recorded\recording_micRespv2l2_2023-12-12_17h52.42.285.wav;268.10383;268.6039516;None;268.10383;268.10383;268.10383;268.10383;268.10383;268.10383;;;;;;;360202;1;2023-12-12_17h48.19.720;REPSWITCH1_version2_list2;2022.2.4;143.9290028;
REPSWITCH1/PICTURE_552.png;manzana;speak;darkblue;filler;2;F;3;3;2;2;Stim6_Set2;0;None;54;53;54;0;53;53;53;;;;;;;;;;;;;;;;;;;;;;;268.6039516;269.67353;269.67353;269.67353;269.67353;269.67353;269.67353;269.67353;269.67353;None;0;;C:\2023\REPSWITCH21092023\REPSWITCH_excgange\REPSWITCH_excgange\data/360202_REPSWITCH1_version2_list2_2023-12-12_17h48.19.720_micRespv2l2_recorded\recording_micRespv2l2_2023-12-12_17h52.46.876.wav;272.6947075;273.1948097;None;272.6947075;272.6947075;272.6947075;272.6947075;272.6947075;272.6947075;;;;;;;360202;1;2023-12-12_17h48.19.720;REPSWITCH1_version2_list2;2022.2.4;143.9290028;
REPSWITCH1/PICTURE_271.png;conejo;speak;darkblue;nontarget;2;NT;3;3;2;2;Stim7_Set3;1;repeat;55;54;55;0;54;54;54;;;;;;;;;;;;;;;;;;;;;;;273.1948097;274.2713489;274.2713489;274.2713489;274.2713489;274.2713489;274.2713489;274.2713489;274.2713489;None;0;;C:\2023\REPSWITCH21092023\REPSWITCH_excgange\REPSWITCH_excgange\data/360202_REPSWITCH1_version2_list2_2023-12-12_17h48.19.720_micRespv2l2_recorded\recording_micRespv2l2_2023-12-12_17h52.51.475.wav;277.2994939;277.7995563;None;277.2994939;277.2994939;277.2994939;277.2994939;277.2994939;277.2994939;;;;;;;360202;1;2023-12-12_17h48.19.720;REPSWITCH1_version2_list2;2022.2.4;143.9290028;
REPSWITCH1/PICTURE_271.png;conejo;type;gold;switch;1;T;3;3;2;2;Stim7_Set3;0;None;56;55;56;0;55;55;55;;;;;;;;;;;;;;;;;;;;;;;277.7995563;278.9385915;278.9385915;278.9385915;278.9385915;278.9385915;278.9385915;278.9385915;278.9385915;['c', 'o', 'n', 'e', 'j', 'o'];0;conejo;C:\2023\REPSWITCH21092023\REPSWITCH_excgange\REPSWITCH_excgange\data/360202_REPSWITCH1_version2_list2_2023-12-12_17h48.19.720_micRespv2l2_recorded\recording_micRespv2l2_2023-12-12_17h52.56.141.wav;281.9667885;;None;281.9667885;281.9667885;281.9667885;281.9667885;281.9667885;281.9667885;[1.035959200002253, 1.2661863998509943, 1.4765456998720765, 1.6110368999652565, 1.7146914997138083, 1.9090475998818874];;;;;;360202;1;2023-12-12_17h48.19.720;REPSWITCH1_version2_list2;2022.2.4;143.9290028;
REPSWITCH1/PICTURE_610.png;miel;type;gold;nontarget;1;NT;3;3;2;2;Stim2_Set3;1;repeat;57;56;57;0;56;56;56;;;;;;;;;;;;;;;;;;;;;;;282.4668595;283.6058903;283.6058903;283.6058903;283.6058903;283.6058903;283.6058903;283.6058903;283.6058903;['m', 'i', 'e', 'l'];0;miel;C:\2023\REPSWITCH21092023\REPSWITCH_excgange\REPSWITCH_excgange\data/360202_REPSWITCH1_version2_list2_2023-12-12_17h48.19.720_micRespv2l2_recorded\recording_micRespv2l2_2023-12-12_17h53.00.809.wav;286.6271672;287.1272607;None;286.6271672;286.6271672;286.6271672;286.6271672;286.6271672;286.6271672;[1.7471413998864591, 1.9424467999488115, 2.042489300016314, 2.1959942998364568];;;;;;360202;1;2023-12-12_17h48.19.720;REPSWITCH1_version2_list2;2022.2.4;143.9290028;
REPSWITCH1/PICTURE_610.png;miel;speak;darkblue;switch;2;T;3;3;2;2;Stim2_Set3;0;None;58;57;58;0;57;57;57;;;;;;;;;;;;;;;;;;;;;;;287.1272607;288.2523511;288.2523511;288.2523511;288.2523511;288.2523511;288.2523511;288.2523511;288.2523511;None;0;;C:\2023\REPSWITCH21092023\REPSWITCH_excgange\REPSWITCH_excgange\data/360202_REPSWITCH1_version2_list2_2023-12-12_17h48.19.720_micRespv2l2_recorded\recording_micRespv2l2_2023-12-12_17h53.05.454.wav;291.2735502;291.7736441;None;291.2735502;291.2735502;291.2735502;291.2735502;291.2735502;291.2735502;;;;;;;360202;1;2023-12-12_17h48.19.720;REPSWITCH1_version2_list2;2022.2.4;143.9290028;
REPSWITCH1/PICTURE_199.png;falda;type;gold;filler;1;F;3;3;2;2;Stim8_Set2;0;None;59;58;59;0;58;58;58;;;;;;;;;;;;;;;;;;;;;;;291.7736441;292.85714;292.85714;292.85714;292.85714;292.85714;292.85714;292.85714;292.85714;['f', 'a', 'l', 'd', 'a'];0;falda;C:\2023\REPSWITCH21092023\REPSWITCH_excgange\REPSWITCH_excgange\data/360202_REPSWITCH1_version2_list2_2023-12-12_17h48.19.720_micRespv2l2_recorded\recording_micRespv2l2_2023-12-12_17h53.10.060.wav;295.8783847;296.3783674;None;295.8783847;295.8783847;295.8783847;295.8783847;295.8783847;295.8783847;[1.075955900363624, 1.243358200415969, 1.5652854000218213, 1.7746087000705302, 1.965932700317353];;;;;;360202;1;2023-12-12_17h48.19.720;REPSWITCH1_version2_list2;2022.2.4;143.9290028;
REPSWITCH1/PICTURE_464.png;goma;speak;darkblue;nontarget;2;NT;3;3;2;2;Stim6_Set3;1;switch;60;59;60;0;59;59;59;;;;;;;;;;;;;;;;;;;;;;;296.3783674;297.4896875;297.4896875;297.4896875;297.4896875;297.4896875;297.4896875;297.4896875;297.4896875;None;0;;C:\2023\REPSWITCH21092023\REPSWITCH_excgange\REPSWITCH_excgange\data/360202_REPSWITCH1_version2_list2_2023-12-12_17h48.19.720_micRespv2l2_recorded\recording_micRespv2l2_2023-12-12_17h53.14.693.wav;300.5179042;;None;300.5179042;300.5179042;300.5179042;300.5179042;300.5179042;300.5179042;;;;;;;360202;1;2023-12-12_17h48.19.720;REPSWITCH1_version2_list2;2022.2.4;143.9290028;
REPSWITCH1/PICTURE_464.png;goma;speak;darkblue;repeat;2;T;3;3;2;2;Stim6_Set3;0;None;61;60;61;0;60;60;60;;;;;;;;;;;;;;;;;;;;;;;301.0178646;302.0597192;302.0597192;302.0597192;302.0597192;302.0597192;302.0597192;302.0597192;302.0597192;None;0;;C:\2023\REPSWITCH21092023\REPSWITCH_excgange\REPSWITCH_excgange\data/360202_REPSWITCH1_version2_list2_2023-12-12_17h48.19.720_micRespv2l2_recorded\recording_micRespv2l2_2023-12-12_17h53.19.262.wav;305.0810038;305.5809875;None;305.0810038;305.0810038;305.0810038;305.0810038;305.0810038;305.0810038;;;;;;;360202;1;2023-12-12_17h48.19.720;REPSWITCH1_version2_list2;2022.2.4;143.9290028;
REPSWITCH1/PICTURE_152.png;caracol;type;gold;filler;1;F;3;3;2;2;Stim2_Set2;0;None;62;61;62;0;61;61;61;;;;;;;;;;;;;;;;;;;;;;;305.5809875;306.664477;306.664477;306.664477;306.664477;306.664477;306.664477;306.664477;306.664477;['c', 'a', 'r', 'a', 'c', 'o', 'l'];0;caracol;C:\2023\REPSWITCH21092023\REPSWITCH_excgange\REPSWITCH_excgange\data/360202_REPSWITCH1_version2_list2_2023-12-12_17h48.19.720_micRespv2l2_recorded\recording_micRespv2l2_2023-12-12_17h53.23.867.wav;309.6856992;310.1857706;None;309.6856992;309.6856992;309.6856992;309.6856992;309.6856992;309.6856992;[0.9382547000423074, 1.07874759985134, 1.1654252000153065, 1.300017800182104, 1.4196126000024378, 2.3846821999177337, 2.536521699745208];;;;;;360202;1;2023-12-12_17h48.19.720;REPSWITCH1_version2_list2;2022.2.4;143.9290028;
REPSWITCH1/PICTURE_320.png;iglesia;speak;darkblue;nontarget;2;NT;3;3;2;2;Stim8_Set3;1;switch;63;62;63;0;62;62;62;;;;;;;;;;;;;;;;;;;;;;;310.1857706;311.2207027;311.2207027;311.2207027;311.2207027;311.2207027;311.2207027;311.2207027;311.2207027;None;0;;C:\2023\REPSWITCH21092023\REPSWITCH_excgange\REPSWITCH_excgange\data/360202_REPSWITCH1_version2_list2_2023-12-12_17h48.19.720_micRespv2l2_recorded\recording_micRespv2l2_2023-12-12_17h53.28.425.wav;314.2488102;;None;314.2488102;314.2488102;314.2488102;314.2488102;314.2488102;314.2488102;;;;;;;360202;1;2023-12-12_17h48.19.720;REPSWITCH1_version2_list2;2022.2.4;143.9290028;
REPSWITCH1/PICTURE_320.png;iglesia;speak;darkblue;repeat;2;T;3;3;2;2;Stim8_Set3;0;None;64;63;64;0;63;63;63;;;;;;;;;;;;;;;;;;;;;;;314.7488713;315.8601163;315.8601163;315.8601163;315.8601163;315.8601163;315.8601163;315.8601163;315.8601163;None;0;;C:\2023\REPSWITCH21092023\REPSWITCH_excgange\REPSWITCH_excgange\data/360202_REPSWITCH1_version2_list2_2023-12-12_17h48.19.720_micRespv2l2_recorded\recording_micRespv2l2_2023-12-12_17h53.33.064.wav;318.8882837;;None;318.8882837;318.8882837;318.8882837;318.8882837;318.8882837;318.8882837;;;;;;;360202;1;2023-12-12_17h48.19.720;REPSWITCH1_version2_list2;2022.2.4;143.9290028;
REPSWITCH1/PICTURE_35.png;oreja;speak;darkblue;nontarget;2;NT;3;3;2;2;Stim5_Set3;0;None;65;64;65;0;64;64;64;;;;;;;;;;;;;;;;;;;;;;;319.3883288;320.4926617;320.4926617;320.4926617;320.4926617;320.4926617;320.4926617;320.4926617;320.4926617;None;0;;C:\2023\REPSWITCH21092023\REPSWITCH_excgange\REPSWITCH_excgange\data/360202_REPSWITCH1_version2_list2_2023-12-12_17h48.19.720_micRespv2l2_recorded\recording_micRespv2l2_2023-12-12_17h53.37.695.wav;323.5208725;;None;323.5208725;323.5208725;323.5208725;323.5208725;323.5208725;323.5208725;;;;;;;360202;1;2023-12-12_17h48.19.720;REPSWITCH1_version2_list2;2022.2.4;143.9290028;
REPSWITCH1/PICTURE_35.png;oreja;type;gold;switch;1;T;3;3;2;2;Stim5_Set3;0;None;66;65;66;0;65;65;65;;;;;;;;;;;;;;;;;;;;;;;324.0209516;325.0696572;325.0696572;325.0696572;325.0696572;325.0696572;325.0696572;325.0696572;325.0696572;['o', 'r', 'e', 'j', 'a'];0;oreja;C:\2023\REPSWITCH21092023\REPSWITCH_excgange\REPSWITCH_excgange\data/360202_REPSWITCH1_version2_list2_2023-12-12_17h48.19.720_micRespv2l2_recorded\recording_micRespv2l2_2023-12-12_17h53.42.272.wav;328.0978621;;None;328.0978621;328.0978621;328.0978621;328.0978621;328.0978621;328.0978621;[1.0819589998573065, 1.2928193002007902, 1.484199000056833, 1.6029763999395072, 1.7166561000049114];;;;;;360202;1;2023-12-12_17h48.19.720;REPSWITCH1_version2_list2;2022.2.4;143.9290028;
REPSWITCH1/PICTURE_517.png;cuerda;speak;darkblue;filler;2;F;3;3;2;2;Stim4_Set2;0;None;67;66;67;0;66;66;66;;;;;;;;;;;;;;;;;;;;;;;328.5979152;329.7717344;329.7717344;329.7717344;329.7717344;329.7717344;329.7717344;329.7717344;329.7717344;None;0;;C:\2023\REPSWITCH21092023\REPSWITCH_excgange\REPSWITCH_excgange\data/360202_REPSWITCH1_version2_list2_2023-12-12_17h48.19.720_micRespv2l2_recorded\recording_micRespv2l2_2023-12-12_17h53.46.975.wav;332.7998508;;None;332.7998508;332.7998508;332.7998508;332.7998508;332.7998508;332.7998508;;;;;;;360202;1;2023-12-12_17h48.19.720;REPSWITCH1_version2_list2;2022.2.4;143.9290028;
REPSWITCH1/PICTURE_30.png;granja;type;gold;filler;1;F;3;3;2;2;Stim5_Set2;1;switch;68;67;68;0;67;67;67;;;;;;;;;;;;;;;;;;;;;;;333.2999149;334.4667922;334.4667922;334.4667922;334.4667922;334.4667922;334.4667922;334.4667922;334.4667922;['g', 'r', 'a', 'n', 'k', 'a'];0;grank;C:\2023\REPSWITCH21092023\REPSWITCH_excgange\REPSWITCH_excgange\data/360202_REPSWITCH1_version2_list2_2023-12-12_17h48.19.720_micRespv2l2_recorded\recording_micRespv2l2_2023-12-12_17h53.51.669.wav;337.4949453;;None;337.4949453;337.4949453;337.4949453;337.4949453;337.4949453;337.4949453;[1.1960108997300267, 1.3339669997803867, 1.4855595999397337, 1.7936740997247398, 2.0938944998197258, 2.2506400998681784, 2.9849522998556495];;;;;;360202;1;2023-12-12_17h48.19.720;REPSWITCH1_version2_list2;2022.2.4;143.9290028;
REPSWITCH1/PICTURE_242.png;cartero;type;gold;nontarget;1;NT;3;3;2;2;Stim3_Set3;0;None;69;68;69;0;68;68;68;;;;;;;;;;;;;;;;;;;;;;;337.9950473;339.0854078;339.0854078;339.0854078;339.0854078;339.0854078;339.0854078;339.0854078;339.0854078;['c', 'a', 'r', 't', 'e', 'r', 'r', 'o'];0;carterro;C:\2023\REPSWITCH21092023\REPSWITCH_excgange\REPSWITCH_excgange\data/360202_REPSWITCH1_version2_list2_2023-12-12_17h48.19.720_micRespv2l2_recorded\recording_micRespv2l2_2023-12-12_17h53.56.289.wav;342.113556;;None;342.113556;342.113556;342.113556;342.113556;342.113556;342.113556;[0.9052169001661241, 1.000854799989611, 1.1067894999869168, 1.257460200227797, 1.3441812000237405, 1.4638987998478115, 1.5961970002390444, 2.458889199886471];;;;;;360202;1;2023-12-12_17h48.19.720;REPSWITCH1_version2_list2;2022.2.4;143.9290028;
REPSWITCH1/PICTURE_242.png;cartero;type;gold;repeat;1;T;3;3;2;2;Stim3_Set3;0;None;70;69;70;0;69;69;69;;;;;;;;;;;;;;;;;;;;;;;342.6136303;343.7457501;343.7457501;343.7457501;343.7457501;343.7457501;343.7457501;343.7457501;343.7457501;['c', 'a', 'r', 't', 'e', 'r', 'o'];0;cartero;C:\2023\REPSWITCH21092023\REPSWITCH_excgange\REPSWITCH_excgange\data/360202_REPSWITCH1_version2_list2_2023-12-12_17h48.19.720_micRespv2l2_recorded\recording_micRespv2l2_2023-12-12_17h54.00.949.wav;346.7739702;;None;346.7739702;346.7739702;346.7739702;346.7739702;346.7739702;346.7739702;[0.8530424004420638, 0.9765951000154018, 1.0723324003629386, 1.2166555002331734, 1.3230998003855348, 1.4907277002930641, 1.6834090002812445];;;;;;360202;1;2023-12-12_17h48.19.720;REPSWITCH1_version2_list2;2022.2.4;143.9290028;
REPSWITCH1/PICTURE_264.png;mano;speak;darkblue;filler;2;F;3;3;2;2;Stim3_Set2;1;switch;71;70;71;0;70;70;70;;;;;;;;;;;;;;;;;;;;;;;347.2739815;348.4477177;348.4477177;348.4477177;348.4477177;348.4477177;348.4477177;348.4477177;348.4477177;['m', 'a', 'n', 'o', 'backspace', 'backspace', 'backspace'];0;m;C:\2023\REPSWITCH21092023\REPSWITCH_excgange\REPSWITCH_excgange\data/360202_REPSWITCH1_version2_list2_2023-12-12_17h48.19.720_micRespv2l2_recorded\recording_micRespv2l2_2023-12-12_17h54.05.651.wav;351.4758983;;None;351.4758983;351.4758983;351.4758983;351.4758983;351.4758983;351.4758983;[0.8688003001734614, 0.9926769002340734, 1.070365000050515, 1.274901700206101, 2.021243500057608, 2.309040800202638, 2.822271800134331];;;;;;360202;1;2023-12-12_17h48.19.720;REPSWITCH1_version2_list2;2022.2.4;143.9290028;
REPSWITCH1/PICTURE_576.png;guante;type;gold;nontarget;1;NT;3;3;2;2;Stim1_Set3;1;switch;72;71;72;0;71;71;71;;;;;;;;;;;;;;;;;;;;;;;351.9759829;353.0316514;353.0316514;353.0316514;353.0316514;353.0316514;353.0316514;353.0316514;353.0316514;['g', 'f', 'u'];0;gfu;C:\2023\REPSWITCH21092023\REPSWITCH_excgange\REPSWITCH_excgange\data/360202_REPSWITCH1_version2_list2_2023-12-12_17h48.19.720_micRespv2l2_recorded\recording_micRespv2l2_2023-12-12_17h54.10.235.wav;356.0598413;;None;356.0598413;356.0598413;356.0598413;356.0598413;356.0598413;356.0598413;[1.684092199895531, 1.6980411000549793, 2.190003300085664];;;;;;360202;1;2023-12-12_17h48.19.720;REPSWITCH1_version2_list2;2022.2.4;143.9290028;
REPSWITCH1/PICTURE_576.png;guante;type;gold;repeat;1;T;3;3;2;2;Stim1_Set3;0;None;73;72;73;0;72;72;72;;;;;;;;;;;;;;;;;;;;;;;356.559986;357.6851105;357.6851105;357.6851105;357.6851105;357.6851105;357.6851105;357.6851105;357.6851105;['g', 'u', 'a', 'n', 't', 'e'];0;guante;C:\2023\REPSWITCH21092023\REPSWITCH_excgange\REPSWITCH_excgange\data/360202_REPSWITCH1_version2_list2_2023-12-12_17h48.19.720_micRespv2l2_recorded\recording_micRespv2l2_2023-12-12_17h54.14.889.wav;360.7062536;361.2063325;None;360.7062536;360.7062536;360.7062536;360.7062536;360.7062536;360.7062536;[1.0832155998796225, 1.2435677996836603, 1.4115019999444485, 1.489230299834162, 1.680645799729973, 1.7662567999213934];;;;;;360202;1;2023-12-12_17h48.19.720;REPSWITCH1_version2_list2;2022.2.4;143.9290028;
REPSWITCH1/PICTURE_175.png;pintor;speak;darkblue;filler;2;F;3;3;2;2;Stim1_Set2;0;None;74;73;74;0;73;73;73;;;;;;;;;;;;;;;;;;;;;;;361.2063325;362.338432;362.338432;362.338432;362.338432;362.338432;362.338432;362.338432;362.338432;None;0;;C:\2023\REPSWITCH21092023\REPSWITCH_excgange\REPSWITCH_excgange\data/360202_REPSWITCH1_version2_list2_2023-12-12_17h48.19.720_micRespv2l2_recorded\recording_micRespv2l2_2023-12-12_17h54.19.541.wav;365.3597219;365.859822;None;365.3597219;365.3597219;365.3597219;365.3597219;365.3597219;365.3597219;;;;;;;360202;1;2023-12-12_17h48.19.720;REPSWITCH1_version2_list2;2022.2.4;143.9290028;
REPSWITCH1/PICTURE_498.png;taza;type;gold;nontarget;1;NT;4;3;2;2;Stim4_Set4;0;None;75;74;75;0;74;74;74;;;;;;;;;;;;;;;;;;;;;;;365.859822;366.9293113;366.9293113;366.9293113;366.9293113;366.9293113;366.9293113;366.9293113;366.9293113;['t', 'a', 'z', 'a'];0;taza;C:\2023\REPSWITCH21092023\REPSWITCH_excgange\REPSWITCH_excgange\data/360202_REPSWITCH1_version2_list2_2023-12-12_17h48.19.720_micRespv2l2_recorded\recording_micRespv2l2_2023-12-12_17h54.24.132.wav;369.9506057;370.450621;None;369.9506057;369.9506057;369.9506057;369.9506057;369.9506057;369.9506057;[0.9829724999144673, 1.0911262999288738, 1.3027265998534858, 1.4611963001079857];;;;;;360202;1;2023-12-12_17h48.19.720;REPSWITCH1_version2_list2;2022.2.4;143.9290028;
REPSWITCH1/PICTURE_498.png;taza;type;gold;repeat;1;T;4;3;2;2;Stim4_Set4;0;None;76;75;76;0;75;75;75;;;;;;;;;;;;;;;;;;;;;;;370.450621;371.520265;371.520265;371.520265;371.520265;371.520265;371.520265;371.520265;371.520265;['t', 'a', 'z', 'a'];0;taza;C:\2023\REPSWITCH21092023\REPSWITCH_excgange\REPSWITCH_excgange\data/360202_REPSWITCH1_version2_list2_2023-12-12_17h48.19.720_micRespv2l2_recorded\recording_micRespv2l2_2023-12-12_17h54.28.723.wav;374.5483561;;None;374.5483561;374.5483561;374.5483561;374.5483561;374.5483561;374.5483561;[0.8570123999379575, 0.9626468000933528, 1.140416800044477, 1.361908399965614];;;;;;360202;1;2023-12-12_17h48.19.720;REPSWITCH1_version2_list2;2022.2.4;143.9290028;
REPSWITCH1/PICTURE_235.png;aguja;speak;darkblue;filler;2;F;4;3;2;2;Stim4_Set3;0;None;77;76;77;0;76;76;76;;;;;;;;;;;;;;;;;;;;;;;375.048422;376.2777886;376.2777886;376.2777886;376.2777886;376.2777886;376.2777886;376.2777886;376.2777886;None;0;;C:\2023\REPSWITCH21092023\REPSWITCH_excgange\REPSWITCH_excgange\data/360202_REPSWITCH1_version2_list2_2023-12-12_17h48.19.720_micRespv2l2_recorded\recording_micRespv2l2_2023-12-12_17h54.33.480.wav;379.2990453;379.7990713;None;379.2990453;379.2990453;379.2990453;379.2990453;379.2990453;379.2990453;;;;;;;360202;1;2023-12-12_17h48.19.720;REPSWITCH1_version2_list2;2022.2.4;143.9290028;
REPSWITCH1/PICTURE_338.png;regalo;type;gold;nontarget;1;NT;4;3;2;2;Stim6_Set4;1;switch;78;77;78;0;77;77;77;;;;;;;;;;;;;;;;;;;;;;;379.7990713;380.9242409;380.9242409;380.9242409;380.9242409;380.9242409;380.9242409;380.9242409;380.9242409;['r', 'e', 'g', 'a', 'l', 'o'];0;regalo;C:\2023\REPSWITCH21092023\REPSWITCH_excgange\REPSWITCH_excgange\data/360202_REPSWITCH1_version2_list2_2023-12-12_17h48.19.720_micRespv2l2_recorded\recording_micRespv2l2_2023-12-12_17h54.38.127.wav;383.9524415;;None;383.9524415;383.9524415;383.9524415;383.9524415;383.9524415;383.9524415;[0.9504463998600841, 1.0650865999050438, 1.1880534999072552, 1.3209716002456844, 1.566191100049764, 2.2079986999742687];;;;;;360202;1;2023-12-12_17h48.19.720;REPSWITCH1_version2_list2;2022.2.4;143.9290028;
REPSWITCH1/PICTURE_338.png;regalo;speak;darkblue;switch;2;T;4;3;2;2;Stim6_Set4;0;None;79;78;79;0;78;78;78;;;;;;;;;;;;;;;;;;;;;;;384.4524354;385.6331859;385.6331859;385.6331859;385.6331859;385.6331859;385.6331859;385.6331859;385.6331859;None;0;;C:\2023\REPSWITCH21092023\REPSWITCH_excgange\REPSWITCH_excgange\data/360202_REPSWITCH1_version2_list2_2023-12-12_17h48.19.720_micRespv2l2_recorded\recording_micRespv2l2_2023-12-12_17h54.42.836.wav;388.6613816;;None;388.6613816;388.6613816;388.6613816;388.6613816;388.6613816;388.6613816;;;;;;;360202;1;2023-12-12_17h48.19.720;REPSWITCH1_version2_list2;2022.2.4;143.9290028;
REPSWITCH1/PICTURE_719.png;baño;speak;darkblue;nontarget;2;NT;4;3;2;2;Stim2_Set4;1;repeat;80;79;80;0;79;79;79;;;;;;;;;;;;;;;;;;;;;;;389.1613728;390.1962786;390.1962786;390.1962786;390.1962786;390.1962786;390.1962786;390.1962786;390.1962786;None;0;;C:\2023\REPSWITCH21092023\REPSWITCH_excgange\REPSWITCH_excgange\data/360202_REPSWITCH1_version2_list2_2023-12-12_17h48.19.720_micRespv2l2_recorded\recording_micRespv2l2_2023-12-12_17h54.47.398.wav;393.2175508;393.7176303;None;393.2175508;393.2175508;393.2175508;393.2175508;393.2175508;393.2175508;;;;;;;360202;1;2023-12-12_17h48.19.720;REPSWITCH1_version2_list2;2022.2.4;143.9290028;
REPSWITCH1/PICTURE_719.png;baño;speak;darkblue;repeat;2;T;4;3;2;2;Stim2_Set4;0;None;81;80;81;0;80;80;80;;;;;;;;;;;;;;;;;;;;;;;393.7176303;394.8843991;394.8843991;394.8843991;394.8843991;394.8843991;394.8843991;394.8843991;394.8843991;None;0;;C:\2023\REPSWITCH21092023\REPSWITCH_excgange\REPSWITCH_excgange\data/360202_REPSWITCH1_version2_list2_2023-12-12_17h48.19.720_micRespv2l2_recorded\recording_micRespv2l2_2023-12-12_17h54.52.087.wav;397.9056179;398.4056783;None;397.9056179;397.9056179;397.9056179;397.9056179;397.9056179;397.9056179;;;;;;;360202;1;2023-12-12_17h48.19.720;REPSWITCH1_version2_list2;2022.2.4;143.9290028;
REPSWITCH1/PICTURE_271.png;conejo;type;gold;filler;1;F;4;3;2;2;Stim7_Set3;0;None;82;81;82;0;81;81;81;;;;;;;;;;;;;;;;;;;;;;;398.4056783;399.5447896;399.5447896;399.5447896;399.5447896;399.5447896;399.5447896;399.5447896;399.5447896;['c', 'o', 'n', 'e', 'j', 'o'];0;conejo;C:\2023\REPSWITCH21092023\REPSWITCH_excgange\REPSWITCH_excgange\data/360202_REPSWITCH1_version2_list2_2023-12-12_17h48.19.720_micRespv2l2_recorded\recording_micRespv2l2_2023-12-12_17h54.56.748.wav;402.5729015;;None;402.5729015;402.5729015;402.5729015;402.5729015;402.5729015;402.5729015;[0.9835049998946488, 1.2599123995751143, 1.5090710995718837, 1.679468599613756, 1.8502431996166706, 2.0389263997785747];;;;;;360202;1;2023-12-12_17h48.19.720;REPSWITCH1_version2_list2;2022.2.4;143.9290028;
REPSWITCH1/PICTURE_610.png;miel;speak;darkblue;filler;2;F;4;3;2;2;Stim2_Set3;0;None;83;82;83;0;82;82;82;;;;;;;;;;;;;;;;;;;;;;;403.0729604;404.1355786;404.1355786;404.1355786;404.1355786;404.1355786;404.1355786;404.1355786;404.1355786;None;0;;C:\2023\REPSWITCH21092023\REPSWITCH_excgange\REPSWITCH_excgange\data/360202_REPSWITCH1_version2_list2_2023-12-12_17h48.19.720_micRespv2l2_recorded\recording_micRespv2l2_2023-12-12_17h55.01.339.wav;407.1638178;;None;407.1638178;407.1638178;407.1638178;407.1638178;407.1638178;407.1638178;;;;;;;360202;1;2023-12-12_17h48.19.720;REPSWITCH1_version2_list2;2022.2.4;143.9290028;
REPSWITCH1/PICTURE_687.png;camisa;speak;darkblue;nontarget;2;NT;4;3;2;2;Stim5_Set4;1;repeat;84;83;84;0;83;83;83;;;;;;;;;;;;;;;;;;;;;;;407.6638272;408.7889754;408.7889754;408.7889754;408.7889754;408.7889754;408.7889754;408.7889754;408.7889754;None;0;;C:\2023\REPSWITCH21092023\REPSWITCH_excgange\REPSWITCH_excgange\data/360202_REPSWITCH1_version2_list2_2023-12-12_17h48.19.720_micRespv2l2_recorded\recording_micRespv2l2_2023-12-12_17h55.05.992.wav;411.8172234;;None;411.8172234;411.8172234;411.8172234;411.8172234;411.8172234;411.8172234;;;;;;;360202;1;2023-12-12_17h48.19.720;REPSWITCH1_version2_list2;2022.2.4;143.9290028;
REPSWITCH1/PICTURE_687.png;camisa;type;gold;switch;1;T;4;3;2;2;Stim5_Set4;0;None;85;84;85;0;84;84;84;;;;;;;;;;;;;;;;;;;;;;;412.3172283;413.4910303;413.4910303;413.4910303;413.4910303;413.4910303;413.4910303;413.4910303;413.4910303;['c', 'a', 'm', 'i', 's', 'a'];0;camisa;C:\2023\REPSWITCH21092023\REPSWITCH_excgange\REPSWITCH_excgange\data/360202_REPSWITCH1_version2_list2_2023-12-12_17h48.19.720_micRespv2l2_recorded\recording_micRespv2l2_2023-12-12_17h55.10.694.wav;416.5191558;;None;416.5191558;416.5191558;416.5191558;416.5191558;416.5191558;416.5191558;[1.0612343000248075, 1.1738122999668121, 1.5949201001785696, 1.750262700021267, 1.8330773999914527, 2.00539859989658];;;;;;360202;1;2023-12-12_17h48.19.720;REPSWITCH1_version2_list2;2022.2.4;143.9290028;
REPSWITCH1/PICTURE_319.png;vaca;type;gold;nontarget;1;NT;4;3;2;2;Stim1_Set4;0;None;86;85;86;0;85;85;85;;;;;;;;;;;;;;;;;;;;;;;417.019221;418.2277474;418.2277474;418.2277474;418.2277474;418.2277474;418.2277474;418.2277474;418.2277474;['v', 'a', 'c', 'a'];0;vaca;C:\2023\REPSWITCH21092023\REPSWITCH_excgange\REPSWITCH_excgange\data/360202_REPSWITCH1_version2_list2_2023-12-12_17h48.19.720_micRespv2l2_recorded\recording_micRespv2l2_2023-12-12_17h55.15.430.wav;421.2489907;421.7490329;None;421.2489907;421.2489907;421.2489907;421.2489907;421.2489907;421.2489907;[0.9226454999297857, 1.0442361999303102, 1.1458990001119673, 1.2378765000030398];;;;;;360202;1;2023-12-12_17h48.19.720;REPSWITCH1_version2_list2;2022.2.4;143.9290028;
REPSWITCH1/PICTURE_319.png;vaca;speak;darkblue;switch;2;T;4;3;2;2;Stim1_Set4;0;None;87;86;87;0;86;86;86;;;;;;;;;;;;;;;;;;;;;;;421.7490329;422.8603329;422.8603329;422.8603329;422.8603329;422.8603329;422.8603329;422.8603329;422.8603329;None;0;;C:\2023\REPSWITCH21092023\REPSWITCH_excgange\REPSWITCH_excgange\data/360202_REPSWITCH1_version2_list2_2023-12-12_17h48.19.720_micRespv2l2_recorded\recording_micRespv2l2_2023-12-12_17h55.20.063.wav;425.8814856;426.3815355;None;425.8814856;425.8814856;425.8814856;425.8814856;425.8814856;425.8814856;;;;;;;360202;1;2023-12-12_17h48.19.720;REPSWITCH1_version2_list2;2022.2.4;143.9290028;
REPSWITCH1/PICTURE_464.png;goma;type;gold;filler;1;F;4;3;2;2;Stim6_Set3;1;switch;88;87;88;0;87;87;87;;;;;;;;;;;;;;;;;;;;;;;426.3815355;427.4164437;427.4164437;427.4164437;427.4164437;427.4164437;427.4164437;427.4164437;427.4164437;['g', 'o', 'm', 'a'];0;goma;C:\2023\REPSWITCH21092023\REPSWITCH_excgange\REPSWITCH_excgange\data/360202_REPSWITCH1_version2_list2_2023-12-12_17h48.19.720_micRespv2l2_recorded\recording_micRespv2l2_2023-12-12_17h55.24.619.wav;430.4377125;430.9377183;None;430.4377125;430.4377125;430.4377125;430.4377125;430.4377125;430.4377125;[1.0396285997703671, 1.1951564997434616, 1.391493999864906, 1.507119500078261];;;;;;360202;1;2023-12-12_17h48.19.720;REPSWITCH1_version2_list2;2022.2.4;143.9290028;
REPSWITCH1/PICTURE_728.png;pulpo;speak;darkblue;nontarget;2;NT;4;3;2;2;Stim8_Set4;1;switch;89;88;89;0;88;88;88;;;;;;;;;;;;;;;;;;;;;;;430.9377183;432.0976998;432.0976998;432.0976998;432.0976998;432.0976998;432.0976998;432.0976998;432.0976998;None;0;;C:\2023\REPSWITCH21092023\REPSWITCH_excgange\REPSWITCH_excgange\data/360202_REPSWITCH1_version2_list2_2023-12-12_17h48.19.720_micRespv2l2_recorded\recording_micRespv2l2_2023-12-12_17h55.29.301.wav;435.1257828;435.6258368;None;435.1257828;435.1257828;435.1257828;435.1257828;435.1257828;435.1257828;;;;;;;360202;1;2023-12-12_17h48.19.720;REPSWITCH1_version2_list2;2022.2.4;143.9290028;
REPSWITCH1/PICTURE_728.png;pulpo;speak;darkblue;repeat;2;T;4;3;2;2;Stim8_Set4;0;None;90;89;90;0;89;89;89;;;;;;;;;;;;;;;;;;;;;;;435.6258368;436.632987;436.632987;436.632987;436.632987;436.632987;436.632987;436.632987;436.632987;None;0;;C:\2023\REPSWITCH21092023\REPSWITCH_excgange\REPSWITCH_excgange\data/360202_REPSWITCH1_version2_list2_2023-12-12_17h48.19.720_micRespv2l2_recorded\recording_micRespv2l2_2023-12-12_17h55.33.836.wav;439.6611209;440.1611227;None;439.6611209;439.6611209;439.6611209;439.6611209;439.6611209;439.6611209;;;;;;;360202;1;2023-12-12_17h48.19.720;REPSWITCH1_version2_list2;2022.2.4;143.9290028;
REPSWITCH1/PICTURE_320.png;iglesia;type;gold;filler;1;F;4;3;2;2;Stim8_Set3;0;None;91;90;91;0;90;90;90;;;;;;;;;;;;;;;;;;;;;;;440.1611227;441.1821167;441.1821167;441.1821167;441.1821167;441.1821167;441.1821167;441.1821167;441.1821167;['i', 'g', 'l', 'e', 's', 'i', 'a'];0;iglesia;C:\2023\REPSWITCH21092023\REPSWITCH_excgange\REPSWITCH_excgange\data/360202_REPSWITCH1_version2_list2_2023-12-12_17h48.19.720_micRespv2l2_recorded\recording_micRespv2l2_2023-12-12_17h55.38.384.wav;444.2033354;444.7033953;None;444.2033354;444.2033354;444.2033354;444.2033354;444.2033354;444.2033354;[0.9538886998780072, 1.6107924999669194, 1.8171745999716222, 1.9619714003056288, 2.180185900069773, 2.2825978002510965, 2.4164463002234697];;;;;;360202;1;2023-12-12_17h48.19.720;REPSWITCH1_version2_list2;2022.2.4;143.9290028;
REPSWITCH1/PICTURE_576.png;guante;speak;darkblue;filler;2;F;4;3;2;2;Stim1_Set3;0;None;92;91;92;0;91;91;91;;;;;;;;;;;;;;;;;;;;;;;444.7033953;445.7938218;445.7938218;445.7938218;445.7938218;445.7938218;445.7938218;445.7938218;445.7938218;None;0;;C:\2023\REPSWITCH21092023\REPSWITCH_excgange\REPSWITCH_excgange\data/360202_REPSWITCH1_version2_list2_2023-12-12_17h48.19.720_micRespv2l2_recorded\recording_micRespv2l2_2023-12-12_17h55.42.996.wav;448.8150382;449.3151268;None;448.8150382;448.8150382;448.8150382;448.8150382;448.8150382;448.8150382;;;;;;;360202;1;2023-12-12_17h48.19.720;REPSWITCH1_version2_list2;2022.2.4;143.9290028;
REPSWITCH1/PICTURE_8.png;pierna;speak;darkblue;nontarget;2;NT;4;3;2;2;Stim3_Set4;1;repeat;93;92;93;0;92;92;92;;;;;;;;;;;;;;;;;;;;;;;449.3151268;450.4124909;450.4124909;450.4124909;450.4124909;450.4124909;450.4124909;450.4124909;450.4124909;None;0;;C:\2023\REPSWITCH21092023\REPSWITCH_excgange\REPSWITCH_excgange\data/360202_REPSWITCH1_version2_list2_2023-12-12_17h48.19.720_micRespv2l2_recorded\recording_micRespv2l2_2023-12-12_17h55.47.614.wav;453.4337375;453.9338729;None;453.4337375;453.4337375;453.4337375;453.4337375;453.4337375;453.4337375;;;;;;;360202;1;2023-12-12_17h48.19.720;REPSWITCH1_version2_list2;2022.2.4;143.9290028;
REPSWITCH1/PICTURE_8.png;pierna;type;gold;switch;1;T;4;3;2;2;Stim3_Set4;0;None;94;93;94;0;93;93;93;;;;;;;;;;;;;;;;;;;;;;;453.9338729;455.1214687;455.1214687;455.1214687;455.1214687;455.1214687;455.1214687;455.1214687;455.1214687;['p', 'i', 'e', 'r', 'n', 'a'];0;pierna;C:\2023\REPSWITCH21092023\REPSWITCH_excgange\REPSWITCH_excgange\data/360202_REPSWITCH1_version2_list2_2023-12-12_17h48.19.720_micRespv2l2_recorded\recording_micRespv2l2_2023-12-12_17h55.52.324.wav;458.1426873;458.6427536;None;458.1426873;458.1426873;458.1426873;458.1426873;458.1426873;458.1426873;[1.0430542998947203, 1.3629430001601577, 1.5428065001033247, 1.7298190998844802, 1.8543643997982144, 1.9829011000692844];;;;;;360202;1;2023-12-12_17h48.19.720;REPSWITCH1_version2_list2;2022.2.4;143.9290028;
REPSWITCH1/PICTURE_673.png;tenedor;speak;darkblue;filler;2;F;4;3;2;2;Extra5;0;None;95;94;95;0;94;94;94;;;;;;;;;;;;;;;;;;;;;;;458.6427536;459.788785;459.788785;459.788785;459.788785;459.788785;459.788785;459.788785;459.788785;None;0;;C:\2023\REPSWITCH21092023\REPSWITCH_excgange\REPSWITCH_excgange\data/360202_REPSWITCH1_version2_list2_2023-12-12_17h48.19.720_micRespv2l2_recorded\recording_micRespv2l2_2023-12-12_17h55.56.992.wav;462.8169049;;None;462.8169049;462.8169049;462.8169049;462.8169049;462.8169049;462.8169049;;;;;;;360202;1;2023-12-12_17h48.19.720;REPSWITCH1_version2_list2;2022.2.4;143.9290028;
REPSWITCH1/PICTURE_35.png;oreja;type;gold;filler;1;F;4;3;2;2;Stim5_Set3;1;switch;96;95;96;0;95;95;95;;;;;;;;;;;;;;;;;;;;;;;463.3169755;464.3935018;464.3935018;464.3935018;464.3935018;464.3935018;464.3935018;464.3935018;464.3935018;['o', 'r', 'e', 'j', 'a'];0;oreja;C:\2023\REPSWITCH21092023\REPSWITCH_excgange\REPSWITCH_excgange\data/360202_REPSWITCH1_version2_list2_2023-12-12_17h48.19.720_micRespv2l2_recorded\recording_micRespv2l2_2023-12-12_17h56.01.596.wav;467.4147137;467.9148045;None;467.4147137;467.4147137;467.4147137;467.4147137;467.4147137;467.4147137;[1.247810899745673, 1.441942600067705, 1.6233672997914255, 1.7490070001222193, 1.8678938997909427];;;;;;360202;1;2023-12-12_17h48.19.720;REPSWITCH1_version2_list2;2022.2.4;143.9290028;
REPSWITCH1/PICTURE_663.png;columna;speak;darkblue;filler;2;F;4;3;2;2;Extra6;0;None;97;96;97;0;96;96;96;;;;;;;;;;;;;;;;;;;;;;;467.9148045;468.9843956;468.9843956;468.9843956;468.9843956;468.9843956;468.9843956;468.9843956;468.9843956;None;0;;C:\2023\REPSWITCH21092023\REPSWITCH_excgange\REPSWITCH_excgange\data/360202_REPSWITCH1_version2_list2_2023-12-12_17h48.19.720_micRespv2l2_recorded\recording_micRespv2l2_2023-12-12_17h56.06.187.wav;472.0056165;472.5056791;None;472.0056165;472.0056165;472.0056165;472.0056165;472.0056165;472.0056165;;;;;;;360202;1;2023-12-12_17h48.19.720;REPSWITCH1_version2_list2;2022.2.4;143.9290028;
REPSWITCH1/PICTURE_242.png;cartero;type;gold;filler;1;F;4;3;2;2;Stim3_Set3;1;switch;98;97;98;0;97;97;97;;;;;;;;;;;;;;;;;;;;;;;472.5056791;473.6586166;473.6586166;473.6586166;473.6586166;473.6586166;473.6586166;473.6586166;473.6586166;['c', 'a', 'r', 't', 'e', 'r', 'o'];0;cartero;C:\2023\REPSWITCH21092023\REPSWITCH_excgange\REPSWITCH_excgange\data/360202_REPSWITCH1_version2_list2_2023-12-12_17h48.19.720_micRespv2l2_recorded\recording_micRespv2l2_2023-12-12_17h56.10.861.wav;476.6798195;477.1798958;None;476.6798195;476.6798195;476.6798195;476.6798195;476.6798195;476.6798195;[0.9570945999585092, 1.0966813997365534, 1.2032685996964574, 1.34077089978382, 1.43714899988845, 1.5422589997760952, 2.225025899708271];;;;;;360202;1;2023-12-12_17h48.19.720;REPSWITCH1_version2_list2;2022.2.4;143.9290028;
REPSWITCH1/PICTURE_48.png;bombero;type;gold;nontarget;1;NT;4;3;2;2;Stim7_Set4;1;repeat;99;98;99;0;98;98;98;;;;;;;;;;;;;;;;;;;;;;;477.1798958;478.3536613;478.3536613;478.3536613;478.3536613;478.3536613;478.3536613;478.3536613;478.3536613;['b', 'o', 'm', 'b', 'e', 'r', 'o'];0;bombero;C:\2023\REPSWITCH21092023\REPSWITCH_excgange\REPSWITCH_excgange\data/360202_REPSWITCH1_version2_list2_2023-12-12_17h48.19.720_micRespv2l2_recorded\recording_micRespv2l2_2023-12-12_17h56.15.556.wav;481.3749257;481.8749673;None;481.3749257;481.3749257;481.3749257;481.3749257;481.3749257;481.3749257;[1.0751168997958302, 1.278427300043404, 1.504673599731177, 1.7342000999487936, 1.8606952000409365, 2.022157199680805, 2.1646456997841597];;;;;;360202;1;2023-12-12_17h48.19.720;REPSWITCH1_version2_list2;2022.2.4;143.9290028;
REPSWITCH1/PICTURE_48.png;bombero;type;gold;repeat;1;T;4;3;2;2;Stim7_Set4;0;None;100;99;100;0;99;99;99;;;;;;;;;;;;;;;;;;;;;;;481.8749673;482.8959612;482.8959612;482.8959612;482.8959612;482.8959612;482.8959612;482.8959612;482.8959612;['b', 'o', 'm', 'b', 'e', 'r', 'o'];0;bombero;C:\2023\REPSWITCH21092023\REPSWITCH_excgange\REPSWITCH_excgange\data/360202_REPSWITCH1_version2_list2_2023-12-12_17h48.19.720_micRespv2l2_recorded\recording_micRespv2l2_2023-12-12_17h56.20.098.wav;485.9172245;486.4172142;None;485.9172245;485.9172245;485.9172245;485.9172245;485.9172245;485.9172245;[0.98417739989236, 1.1605329997837543, 1.3800564999692142, 1.5823327000252903, 1.715235199779272, 1.8989634001627564, 2.06538309995085];;;;;;360202;1;2023-12-12_17h48.19.720;REPSWITCH1_version2_list2;2022.2.4;143.9290028;
REPSWITCH1/PICTURE_391.png;cadena;speak;darkblue;filler;2;F;4;3;2;2;Extra2;0;None;101;100;101;0;100;100;100;;;;;;;;;;;;;;;;;;;;;;;486.4172142;487.5563358;487.5563358;487.5563358;487.5563358;487.5563358;487.5563358;487.5563358;487.5563358;None;0;;C:\2023\REPSWITCH21092023\REPSWITCH_excgange\REPSWITCH_excgange\data/360202_REPSWITCH1_version2_list2_2023-12-12_17h48.19.720_micRespv2l2_recorded\recording_micRespv2l2_2023-12-12_17h56.24.760.wav;490.5844751;;None;490.5844751;490.5844751;490.5844751;490.5844751;490.5844751;490.5844751;;;;;;;360202;1;2023-12-12_17h48.19.720;REPSWITCH1_version2_list2;2022.2.4;143.9290028;
REPSWITCH1/PICTURE_590.png;escoba;type;gold;filler;1;F;4;3;2;2;Extra3;0;None;102;101;102;0;101;101;101;;;;;;;;;;;;;;;;;;;;;;;491.08455;492.2097168;492.2097168;492.2097168;492.2097168;492.2097168;492.2097168;492.2097168;492.2097168;['e', 's', 'c', 'o', 'b', 'a'];0;escoba;C:\2023\REPSWITCH21092023\REPSWITCH_excgange\REPSWITCH_excgange\data/360202_REPSWITCH1_version2_list2_2023-12-12_17h48.19.720_micRespv2l2_recorded\recording_micRespv2l2_2023-12-12_17h56.29.412.wav;495.2308929;495.7309576;space;495.2308929;495.2308929;495.2308929;495.2308929;495.2308929;495.2308929;[0.9771537999622524, 1.1944223996251822, 1.4116937997750938, 1.6358931995928288, 1.8842930998653173, 2.0030314000323415];495.7309576;495.7309576;1.4275193;;;360202;1;2023-12-12_17h48.19.720;REPSWITCH1_version2_list2;2022.2.4;143.9290028;
REPSWITCH1/PICTURE_340.png;espejo;type;gold;filler;1;F;1;1;2;2;Extra1;0;None;103;102;1;0;102;102;102;;;;;;;;;;;;;;;;;;;;;;;497.1686447;498.328535;498.328535;498.328535;498.328535;498.328535;498.328535;498.328535;498.328535;['e', 's', 'p', 'e', 'j', 'o'];0;espejo;C:\2023\REPSWITCH21092023\REPSWITCH_excgange\REPSWITCH_excgange\data/360202_REPSWITCH1_version2_list2_2023-12-12_17h48.19.720_micRespv2l2_recorded\recording_micRespv2l2_2023-12-12_17h56.35.531.wav;501.3566837;;None;501.3566837;501.3566837;501.3566837;501.3566837;501.3566837;501.3566837;[0.8725541001185775, 1.0529583999887109, 1.2489034999161959, 1.3724893000908196, 1.5079993000254035, 2.4331781999208033];;;;;;360202;1;2023-12-12_17h48.19.720;REPSWITCH1_version2_list2;2022.2.4;143.9290028;
REPSWITCH1/PICTURE_391.png;cadena;speak;darkblue;filler;2;F;1;1;2;2;Extra2;0;None;104;103;2;0;103;103;103;;;;;;;;;;;;;;;;;;;;;;;501.8567402;502.9263309;502.9263309;502.9263309;502.9263309;502.9263309;502.9263309;502.9263309;502.9263309;None;0;;C:\2023\REPSWITCH21092023\REPSWITCH_excgange\REPSWITCH_excgange\data/360202_REPSWITCH1_version2_list2_2023-12-12_17h48.19.720_micRespv2l2_recorded\recording_micRespv2l2_2023-12-12_17h56.40.129.wav;505.947648;506.4476354;None;505.947648;505.947648;505.947648;505.947648;505.947648;505.947648;;;;;;;360202;1;2023-12-12_17h48.19.720;REPSWITCH1_version2_list2;2022.2.4;143.9290028;
REPSWITCH1/PICTURE_178.png;puente;speak;darkblue;nontarget;2;NT;1;1;2;2;Stim1_Set1;1;repeat;105;104;3;0;104;104;104;;;;;;;;;;;;;;;;;;;;;;;506.4476354;507.5866556;507.5866556;507.5866556;507.5866556;507.5866556;507.5866556;507.5866556;507.5866556;None;0;;C:\2023\REPSWITCH21092023\REPSWITCH_excgange\REPSWITCH_excgange\data/360202_REPSWITCH1_version2_list2_2023-12-12_17h48.19.720_micRespv2l2_recorded\recording_micRespv2l2_2023-12-12_17h56.44.789.wav;510.6079778;511.1079573;None;510.6079778;510.6079778;510.6079778;510.6079778;510.6079778;510.6079778;;;;;;;360202;1;2023-12-12_17h48.19.720;REPSWITCH1_version2_list2;2022.2.4;143.9290028;
REPSWITCH1/PICTURE_178.png;puente;speak;darkblue;repeat;2;T;1;1;2;2;Stim1_Set1;0;None;106;105;4;0;105;105;105;;;;;;;;;;;;;;;;;;;;;;;511.1079573;512.3233889;512.3233889;512.3233889;512.3233889;512.3233889;512.3233889;512.3233889;512.3233889;None;0;;C:\2023\REPSWITCH21092023\REPSWITCH_excgange\REPSWITCH_excgange\data/360202_REPSWITCH1_version2_list2_2023-12-12_17h48.19.720_micRespv2l2_recorded\recording_micRespv2l2_2023-12-12_17h56.49.527.wav;515.344612;515.8447054;None;515.344612;515.344612;515.344612;515.344612;515.344612;515.344612;;;;;;;360202;1;2023-12-12_17h48.19.720;REPSWITCH1_version2_list2;2022.2.4;143.9290028;
REPSWITCH1/PICTURE_319.png;vaca;type;gold;filler;1;F;1;1;2;2;Stim1_Set4;0;None;107;106;5;0;106;106;106;;;;;;;;;;;;;;;;;;;;;;;515.8447054;516.9212079;516.9212079;516.9212079;516.9212079;516.9212079;516.9212079;516.9212079;516.9212079;['v', 'a', 'c', 'a'];0;vaca;C:\2023\REPSWITCH21092023\REPSWITCH_excgange\REPSWITCH_excgange\data/360202_REPSWITCH1_version2_list2_2023-12-12_17h48.19.720_micRespv2l2_recorded\recording_micRespv2l2_2023-12-12_17h56.54.124.wav;519.9493817;;None;519.9493817;519.9493817;519.9493817;519.9493817;519.9493817;519.9493817;[0.9304978000000119, 1.0311519000679255, 1.1507489001378417, 1.2205854002386332];;;;;;360202;1;2023-12-12_17h48.19.720;REPSWITCH1_version2_list2;2022.2.4;143.9290028;
REPSWITCH1/PICTURE_381.png;fresa;speak;darkblue;nontarget;2;NT;1;1;2;2;Stim2_Set1;1;switch;108;107;6;0;107;107;107;;;;;;;;;;;;;;;;;;;;;;;520.44945;521.4634994;521.4634994;521.4634994;521.4634994;521.4634994;521.4634994;521.4634994;521.4634994;None;0;;C:\2023\REPSWITCH21092023\REPSWITCH_excgange\REPSWITCH_excgange\data/360202_REPSWITCH1_version2_list2_2023-12-12_17h48.19.720_micRespv2l2_recorded\recording_micRespv2l2_2023-12-12_17h56.58.667.wav;524.4847648;524.9847851;None;524.4847648;524.4847648;524.4847648;524.4847648;524.4847648;524.4847648;;;;;;;360202;1;2023-12-12_17h48.19.720;REPSWITCH1_version2_list2;2022.2.4;143.9290028;
REPSWITCH1/PICTURE_381.png;fresa;speak;darkblue;repeat;2;T;1;1;2;2;Stim2_Set1;0;None;109;108;7;0;108;108;108;;;;;;;;;;;;;;;;;;;;;;;524.9847851;526.0405457;526.0405457;526.0405457;526.0405457;526.0405457;526.0405457;526.0405457;526.0405457;None;0;;C:\2023\REPSWITCH21092023\REPSWITCH_excgange\REPSWITCH_excgange\data/360202_REPSWITCH1_version2_list2_2023-12-12_17h48.19.720_micRespv2l2_recorded\recording_micRespv2l2_2023-12-12_17h57.03.243.wav;529.0616912;529.561765;None;529.0616912;529.0616912;529.0616912;529.0616912;529.0616912;529.0616912;;;;;;;360202;1;2023-12-12_17h48.19.720;REPSWITCH1_version2_list2;2022.2.4;143.9290028;
REPSWITCH1/PICTURE_719.png;baño;type;gold;filler;1;F;1;1;2;2;Stim2_Set4;1;switch;110;109;8;0;109;109;109;;;;;;;;;;;;;;;;;;;;;;;529.561765;530.7216683;530.7216683;530.7216683;530.7216683;530.7216683;530.7216683;530.7216683;530.7216683;['b', 'a', 'ñ', 'o'];0;baño;C:\2023\REPSWITCH21092023\REPSWITCH_excgange\REPSWITCH_excgange\data/360202_REPSWITCH1_version2_list2_2023-12-12_17h48.19.720_micRespv2l2_recorded\recording_micRespv2l2_2023-12-12_17h57.07.925.wav;533.742889;534.2429355;None;533.742889;533.742889;533.742889;533.742889;533.742889;533.742889;[0.9453577999956906, 1.149935600347817, 1.4330016002058983, 1.592459900304675];;;;;;360202;1;2023-12-12_17h48.19.720;REPSWITCH1_version2_list2;2022.2.4;143.9290028;
REPSWITCH1/PICTURE_135.png;traje;speak;darkblue;nontarget;2;NT;1;1;2;2;Stim3_Set1;0;None;111;110;9;0;110;110;110;;;;;;;;;;;;;;;;;;;;;;;534.2429355;535.4097698;535.4097698;535.4097698;535.4097698;535.4097698;535.4097698;535.4097698;535.4097698;None;0;;C:\2023\REPSWITCH21092023\REPSWITCH_excgange\REPSWITCH_excgange\data/360202_REPSWITCH1_version2_list2_2023-12-12_17h48.19.720_micRespv2l2_recorded\recording_micRespv2l2_2023-12-12_17h57.12.612.wav;538.4310749;538.931049;None;538.4310749;538.4310749;538.4310749;538.4310749;538.4310749;538.4310749;;;;;;;360202;1;2023-12-12_17h48.19.720;REPSWITCH1_version2_list2;2022.2.4;143.9290028;
REPSWITCH1/PICTURE_135.png;traje;type;gold;switch;1;T;1;1;2;2;Stim3_Set1;0;None;112;111;10;0;111;111;111;;;;;;;;;;;;;;;;;;;;;;;538.931049;540.097897;540.097897;540.097897;540.097897;540.097897;540.097897;540.097897;540.097897;['t', 'r', 'a', 'j', 'e'];0;traje;C:\2023\REPSWITCH21092023\REPSWITCH_excgange\REPSWITCH_excgange\data/360202_REPSWITCH1_version2_list2_2023-12-12_17h48.19.720_micRespv2l2_recorded\recording_micRespv2l2_2023-12-12_17h57.17.301.wav;543.1260531;;None;543.1260531;543.1260531;543.1260531;543.1260531;543.1260531;543.1260531;[1.01393699971959, 1.1734029999934137, 1.2292578998021781, 1.579335100017488, 1.6880846000276506];;;;;;360202;1;2023-12-12_17h48.19.720;REPSWITCH1_version2_list2;2022.2.4;143.9290028;
REPSWITCH1/PICTURE_687.png;camisa;speak;darkblue;filler;2;F;1;1;2;2;Stim5_Set4;0;None;113;112;11;0;112;112;112;;;;;;;;;;;;;;;;;;;;;;;543.6261097;544.7374182;544.7374182;544.7374182;544.7374182;544.7374182;544.7374182;544.7374182;544.7374182;None;0;;C:\2023\REPSWITCH21092023\REPSWITCH_excgange\REPSWITCH_excgange\data/360202_REPSWITCH1_version2_list2_2023-12-12_17h48.19.720_micRespv2l2_recorded\recording_micRespv2l2_2023-12-12_17h57.21.939.wav;547.7586029;548.2586786;None;547.7586029;547.7586029;547.7586029;547.7586029;547.7586029;547.7586029;;;;;;;360202;1;2023-12-12_17h48.19.720;REPSWITCH1_version2_list2;2022.2.4;143.9290028;
REPSWITCH1/PICTURE_128.png;muñeca;type;gold;nontarget;1;NT;1;1;2;2;Stim4_Set1;1;switch;114;113;12;0;113;113;113;;;;;;;;;;;;;;;;;;;;;;;548.2586786;549.3630533;549.3630533;549.3630533;549.3630533;549.3630533;549.3630533;549.3630533;549.3630533;['m', 'u', 'ñ', 'e', 'c', 'a'];0;muñeca;C:\2023\REPSWITCH21092023\REPSWITCH_excgange\REPSWITCH_excgange\data/360202_REPSWITCH1_version2_list2_2023-12-12_17h48.19.720_micRespv2l2_recorded\recording_micRespv2l2_2023-12-12_17h57.26.566.wav;552.3841986;552.8842583;None;552.3841986;552.3841986;552.3841986;552.3841986;552.3841986;552.3841986;[1.1437857002019882, 1.3545920001342893, 1.7574652000330389, 1.9186128000728786, 2.1209366000257432, 2.266760100144893];;;;;;360202;1;2023-12-12_17h48.19.720;REPSWITCH1_version2_list2;2022.2.4;143.9290028;
REPSWITCH1/PICTURE_128.png;muñeca;speak;darkblue;switch;2;T;1;1;2;2;Stim4_Set1;0;None;115;114;13;0;114;114;114;;;;;;;;;;;;;;;;;;;;;;;552.8842583;553.9330236;553.9330236;553.9330236;553.9330236;553.9330236;553.9330236;553.9330236;553.9330236;None;0;;C:\2023\REPSWITCH21092023\REPSWITCH_excgange\REPSWITCH_excgange\data/360202_REPSWITCH1_version2_list2_2023-12-12_17h48.19.720_micRespv2l2_recorded\recording_micRespv2l2_2023-12-12_17h57.31.136.wav;556.9542244;557.4543076;None;556.9542244;556.9542244;556.9542244;556.9542244;556.9542244;556.9542244;;;;;;;360202;1;2023-12-12_17h48.19.720;REPSWITCH1_version2_list2;2022.2.4;143.9290028;
REPSWITCH1/PICTURE_8.png;pierna;speak;darkblue;filler;2;F;1;1;2;2;Stim3_Set4;0;None;116;115;14;0;115;115;115;;;;;;;;;;;;;;;;;;;;;;;557.4543076;558.5655841;558.5655841;558.5655841;558.5655841;558.5655841;558.5655841;558.5655841;558.5655841;None;0;;C:\2023\REPSWITCH21092023\REPSWITCH_excgange\REPSWITCH_excgange\data/360202_REPSWITCH1_version2_list2_2023-12-12_17h48.19.720_micRespv2l2_recorded\recording_micRespv2l2_2023-12-12_17h57.35.768.wav;561.5868953;562.0868774;None;561.5868953;561.5868953;561.5868953;561.5868953;561.5868953;561.5868953;;;;;;;360202;1;2023-12-12_17h48.19.720;REPSWITCH1_version2_list2;2022.2.4;143.9290028;
REPSWITCH1/PICTURE_19.png;pavo;speak;darkblue;nontarget;2;NT;1;1;2;2;Stim5_Set1;0;None;117;116;15;0;116;116;116;;;;;;;;;;;;;;;;;;;;;;;562.0868774;563.1633878;563.1633878;563.1633878;563.1633878;563.1633878;563.1633878;563.1633878;563.1633878;None;0;;C:\2023\REPSWITCH21092023\REPSWITCH_excgange\REPSWITCH_excgange\data/360202_REPSWITCH1_version2_list2_2023-12-12_17h48.19.720_micRespv2l2_recorded\recording_micRespv2l2_2023-12-12_17h57.40.367.wav;566.1846183;566.6847109;None;566.1846183;566.1846183;566.1846183;566.1846183;566.1846183;566.1846183;;;;;;;360202;1;2023-12-12_17h48.19.720;REPSWITCH1_version2_list2;2022.2.4;143.9290028;
REPSWITCH1/PICTURE_19.png;pavo;type;gold;switch;1;T;1;1;2;2;Stim5_Set1;0;None;118;117;16;0;117;117;117;;;;;;;;;;;;;;;;;;;;;;;566.6847109;567.8028826;567.8028826;567.8028826;567.8028826;567.8028826;567.8028826;567.8028826;567.8028826;['p', 'a', 'o', 'backspace', 'c', 'o', 'backspace'];0;pac;C:\2023\REPSWITCH21092023\REPSWITCH_excgange\REPSWITCH_excgange\data/360202_REPSWITCH1_version2_list2_2023-12-12_17h48.19.720_micRespv2l2_recorded\recording_micRespv2l2_2023-12-12_17h57.45.006.wav;570.8310871;;None;570.8310871;570.8310871;570.8310871;570.8310871;570.8310871;570.8310871;[1.0817607999779284, 1.1933414000086486, 1.5624211002141237, 2.2414869000203907, 2.369070400018245, 2.4777255998924375, 2.9132739999331534];;;;;;360202;1;2023-12-12_17h48.19.720;REPSWITCH1_version2_list2;2022.2.4;143.9290028;
REPSWITCH1/PICTURE_16.png;cazador;type;gold;nontarget;1;NT;1;1;2;2;Stim6_Set1;1;switch;119;118;17;0;118;118;118;;;;;;;;;;;;;;;;;;;;;;;571.3311548;572.4701996;572.4701996;572.4701996;572.4701996;572.4701996;572.4701996;572.4701996;572.4701996;['c', 'a', 'z', 'a', 'r', 'd', 'o', 'r'];0;cazardor;C:\2023\REPSWITCH21092023\REPSWITCH_excgange\REPSWITCH_excgange\data/360202_REPSWITCH1_version2_list2_2023-12-12_17h48.19.720_micRespv2l2_recorded\recording_micRespv2l2_2023-12-12_17h57.49.673.wav;575.4914134;575.9914589;None;575.4914134;575.4914134;575.4914134;575.4914134;575.4914134;575.4914134;[1.0550648998469114, 1.20328399958089, 1.4125923998653889, 1.5911787999793887, 1.7158921998925507, 1.8547406997531652, 2.212582599837333, 2.357083899900317];;;;;;360202;1;2023-12-12_17h48.19.720;REPSWITCH1_version2_list2;2022.2.4;143.9290028;
REPSWITCH1/PICTURE_16.png;cazador;type;gold;repeat;1;T;1;1;2;2;Stim6_Set1;0;None;120;119;18;0;119;119;119;;;;;;;;;;;;;;;;;;;;;;;575.9914589;577.1513768;577.1513768;577.1513768;577.1513768;577.1513768;577.1513768;577.1513768;577.1513768;['c', 'a', 'z', 'a', 'd', 'o', 'r'];0;cazador;C:\2023\REPSWITCH21092023\REPSWITCH_excgange\REPSWITCH_excgange\data/360202_REPSWITCH1_version2_list2_2023-12-12_17h48.19.720_micRespv2l2_recorded\recording_micRespv2l2_2023-12-12_17h57.54.354.wav;580.1795936;;None;580.1795936;580.1795936;580.1795936;580.1795936;580.1795936;580.1795936;[0.8034143000841141, 0.9427934000268579, 1.1460307002998888, 1.301503200083971, 1.5077852001413703, 1.7530008000321686, 1.881576200015843];;;;;;360202;1;2023-12-12_17h48.19.720;REPSWITCH1_version2_list2;2022.2.4;143.9290028;
REPSWITCH1/PICTURE_498.png;taza;speak;darkblue;filler;2;F;1;1;2;2;Stim4_Set4;0;None;121;120;19;0;120;120;120;;;;;;;;;;;;;;;;;;;;;;;580.679602;581.811754;581.811754;581.811754;581.811754;581.811754;581.811754;581.811754;581.811754;None;0;;C:\2023\REPSWITCH21092023\REPSWITCH_excgange\REPSWITCH_excgange\data/360202_REPSWITCH1_version2_list2_2023-12-12_17h48.19.720_micRespv2l2_recorded\recording_micRespv2l2_2023-12-12_17h57.59.014.wav;584.8329985;585.3330576;None;584.8329985;584.8329985;584.8329985;584.8329985;584.8329985;584.8329985;;;;;;;360202;1;2023-12-12_17h48.19.720;REPSWITCH1_version2_list2;2022.2.4;143.9290028;
REPSWITCH1/PICTURE_48.png;bombero;type;gold;filler;1;F;1;1;2;2;Stim7_Set4;0;None;122;121;20;0;121;121;121;;;;;;;;;;;;;;;;;;;;;;;585.3330576;586.451201;586.451201;586.451201;586.451201;586.451201;586.451201;586.451201;586.451201;['b', 'o', 'm', 'v'];0;bomv;C:\2023\REPSWITCH21092023\REPSWITCH_excgange\REPSWITCH_excgange\data/360202_REPSWITCH1_version2_list2_2023-12-12_17h48.19.720_micRespv2l2_recorded\recording_micRespv2l2_2023-12-12_17h58.03.653.wav;589.4724644;589.9724666;None;589.4724644;589.4724644;589.4724644;589.4724644;589.4724644;589.4724644;[0.9497887999750674, 1.2408126001246274, 2.345152999740094, 2.9613604000769556];;;;;;360202;1;2023-12-12_17h48.19.720;REPSWITCH1_version2_list2;2022.2.4;143.9290028;
REPSWITCH1/PICTURE_142.png;vaso;type;gold;nontarget;1;NT;1;1;2;2;Stim7_Set1;1;repeat;123;122;21;0;122;122;122;;;;;;;;;;;;;;;;;;;;;;;589.9724666;591.0212598;591.0212598;591.0212598;591.0212598;591.0212598;591.0212598;591.0212598;591.0212598;['v', 'a', 's', 'o'];0;vaso;C:\2023\REPSWITCH21092023\REPSWITCH_excgange\REPSWITCH_excgange\data/360202_REPSWITCH1_version2_list2_2023-12-12_17h48.19.720_micRespv2l2_recorded\recording_micRespv2l2_2023-12-12_17h58.08.224.wav;594.0424434;594.5425153;None;594.0424434;594.0424434;594.0424434;594.0424434;594.0424434;594.0424434;[1.0179249001666903, 1.111624600365758, 1.2750504002906382, 1.4066544999368489];;;;;;360202;1;2023-12-12_17h48.19.720;REPSWITCH1_version2_list2;2022.2.4;143.9290028;
REPSWITCH1/PICTURE_142.png;vaso;type;gold;repeat;1;T;1;1;2;2;Stim7_Set1;0;None;124;123;22;0;123;123;123;;;;;;;;;;;;;;;;;;;;;;;594.5425153;595.6052341;595.6052341;595.6052341;595.6052341;595.6052341;595.6052341;595.6052341;595.6052341;['v', 'a', 's', 'o'];0;vaso;C:\2023\REPSWITCH21092023\REPSWITCH_excgange\REPSWITCH_excgange\data/360202_REPSWITCH1_version2_list2_2023-12-12_17h48.19.720_micRespv2l2_recorded\recording_micRespv2l2_2023-12-12_17h58.12.807.wav;598.6264423;599.1264374;None;598.6264423;598.6264423;598.6264423;598.6264423;598.6264423;598.6264423;[1.0218823999166489, 1.116556600201875, 1.2982491999864578, 1.4357778001576662];;;;;;360202;1;2023-12-12_17h48.19.720;REPSWITCH1_version2_list2;2022.2.4;143.9290028;
REPSWITCH1/PICTURE_338.png;regalo;speak;darkblue;filler;2;F;1;1;2;2;Stim6_Set4;1;switch;125;124;23;0;124;124;124;;;;;;;;;;;;;;;;;;;;;;;599.1264374;600.2238853;600.2238853;600.2238853;600.2238853;600.2238853;600.2238853;600.2238853;600.2238853;['r', 'e', 'g', 'l', 'backspace', 'a', 'l', 'o'];0;regalo;C:\2023\REPSWITCH21092023\REPSWITCH_excgange\REPSWITCH_excgange\data/360202_REPSWITCH1_version2_list2_2023-12-12_17h48.19.720_micRespv2l2_recorded\recording_micRespv2l2_2023-12-12_17h58.17.427.wav;603.2520006;;None;603.2520006;603.2520006;603.2520006;603.2520006;603.2520006;603.2520006;[1.0987951001152396, 1.2024010000750422, 1.324040399864316, 1.6499373000115156, 2.133598600048572, 2.2521911999210715, 2.4345181002281606, 2.564368300139904];;;;;;360202;1;2023-12-12_17h48.19.720;REPSWITCH1_version2_list2;2022.2.4;143.9290028;
REPSWITCH1/PICTURE_728.png;pulpo;type;gold;filler;1;F;1;1;2;2;Stim8_Set4;1;switch;126;125;24;0;125;125;125;;;;;;;;;;;;;;;;;;;;;;;603.752069;604.8981205;604.8981205;604.8981205;604.8981205;604.8981205;604.8981205;604.8981205;604.8981205;['p', 'u', 'p', 'backspace', 'l', 'o'];0;pulo;C:\2023\REPSWITCH21092023\REPSWITCH_excgange\REPSWITCH_excgange\data/360202_REPSWITCH1_version2_list2_2023-12-12_17h48.19.720_micRespv2l2_recorded\recording_micRespv2l2_2023-12-12_17h58.22.101.wav;607.9192969;608.4193928;None;607.9192969;607.9192969;607.9192969;607.9192969;607.9192969;607.9192969;[1.0370378997176886, 1.3300568996928632, 1.8007540996186435, 2.257529199589044, 2.484799299854785, 2.8282397999428213];;;;;;360202;1;2023-12-12_17h48.19.720;REPSWITCH1_version2_list2;2022.2.4;143.9290028;
REPSWITCH1/PICTURE_169.png;espalda;type;gold;nontarget;1;NT;1;1;2;2;Stim8_Set1;1;repeat;127;126;25;0;126;126;126;;;;;;;;;;;;;;;;;;;;;;;608.4193928;609.6278224;609.6278224;609.6278224;609.6278224;609.6278224;609.6278224;609.6278224;609.6278224;['e', 's', 'p', 'a', 'l', 'd', 'a'];0;espalda;C:\2023\REPSWITCH21092023\REPSWITCH_excgange\REPSWITCH_excgange\data/360202_REPSWITCH1_version2_list2_2023-12-12_17h48.19.720_micRespv2l2_recorded\recording_micRespv2l2_2023-12-12_17h58.26.830.wav;612.6560007;;None;612.6560007;612.6560007;612.6560007;612.6560007;612.6560007;612.6560007;[0.8190112998709083, 1.0124993999488652, 1.131046099588275, 1.237758099567145, 1.3563346997834742, 1.4640000998042524, 1.667896999977529];;;;;;360202;1;2023-12-12_17h48.19.720;REPSWITCH1_version2_list2;2022.2.4;143.9290028;
REPSWITCH1/PICTURE_169.png;espalda;speak;darkblue;switch;2;T;1;1;2;2;Stim8_Set1;0;None;128;127;26;0;127;127;127;;;;;;;;;;;;;;;;;;;;;;;613.1560806;614.2742977;614.2742977;614.2742977;614.2742977;614.2742977;614.2742977;614.2742977;614.2742977;None;0;;C:\2023\REPSWITCH21092023\REPSWITCH_excgange\REPSWITCH_excgange\data/360202_REPSWITCH1_version2_list2_2023-12-12_17h48.19.720_micRespv2l2_recorded\recording_micRespv2l2_2023-12-12_17h58.31.477.wav;617.2955097;617.7955847;None;617.2955097;617.2955097;617.2955097;617.2955097;617.2955097;617.2955097;;;;;;;360202;1;2023-12-12_17h48.19.720;REPSWITCH1_version2_list2;2022.2.4;143.9290028;
REPSWITCH1/PICTURE_178.png;puente;speak;darkblue;filler;2;F;2;1;2;2;Stim1_Set1;0;None;129;128;27;0;128;128;128;;;;;;;;;;;;;;;;;;;;;;;617.7955847;618.8998922;618.8998922;618.8998922;618.8998922;618.8998922;618.8998922;618.8998922;618.8998922;None;0;;C:\2023\REPSWITCH21092023\REPSWITCH_excgange\REPSWITCH_excgange\data/360202_REPSWITCH1_version2_list2_2023-12-12_17h48.19.720_micRespv2l2_recorded\recording_micRespv2l2_2023-12-12_17h58.36.103.wav;621.9281293;;None;621.9281293;621.9281293;621.9281293;621.9281293;621.9281293;621.9281293;;;;;;;360202;1;2023-12-12_17h48.19.720;REPSWITCH1_version2_list2;2022.2.4;143.9290028;
REPSWITCH1/PICTURE_175.png;pintor;type;gold;nontarget;1;NT;2;1;2;2;Stim1_Set2;1;switch;130;129;28;0;129;129;129;;;;;;;;;;;;;;;;;;;;;;;622.4281997;623.442157;623.442157;623.442157;623.442157;623.442157;623.442157;623.442157;623.442157;['p', 'i', 'm', 't', 'o'];0;pimto;C:\2023\REPSWITCH21092023\REPSWITCH_excgange\REPSWITCH_excgange\data/360202_REPSWITCH1_version2_list2_2023-12-12_17h48.19.720_micRespv2l2_recorded\recording_micRespv2l2_2023-12-12_17h58.40.645.wav;626.4703121;626.970376;None;626.4703121;626.4703121;626.4703121;626.4703121;626.4703121;626.4703121;[2.056783299893141, 2.332157699856907, 2.5165654001757503, 2.859718299936503, 2.975328499916941];;;;;;360202;1;2023-12-12_17h48.19.720;REPSWITCH1_version2_list2;2022.2.4;143.9290028;
REPSWITCH1/PICTURE_175.png;pintor;type;gold;repeat;1;T;2;1;2;2;Stim1_Set2;0;None;131;130;29;0;130;130;130;;;;;;;;;;;;;;;;;;;;;;;626.970376;628.1649741;628.1649741;628.1649741;628.1649741;628.1649741;628.1649741;628.1649741;628.1649741;['p', 'i', 'm', 't', 'o', 'r', 'r'];0;pimtorr;C:\2023\REPSWITCH21092023\REPSWITCH_excgange\REPSWITCH_excgange\data/360202_REPSWITCH1_version2_list2_2023-12-12_17h48.19.720_micRespv2l2_recorded\recording_micRespv2l2_2023-12-12_17h58.45.369.wav;631.1861885;631.6862647;None;631.1861885;631.1861885;631.1861885;631.1861885;631.1861885;631.1861885;[0.8734761998057365, 1.1357991001568735, 1.3434243998490274, 1.5443114000372589, 1.7037984002381563, 2.2709499998018146, 2.466287999879569];;;;;;360202;1;2023-12-12_17h48.19.720;REPSWITCH1_version2_list2;2022.2.4;143.9290028;
REPSWITCH1/PICTURE_381.png;fresa;speak;darkblue;filler;2;F;2;1;2;2;Stim2_Set1;0;None;132;131;30;0;131;131;131;;;;;;;;;;;;;;;;;;;;;;;631.6862647;632.7697597;632.7697597;632.7697597;632.7697597;632.7697597;632.7697597;632.7697597;632.7697597;None;0;;C:\2023\REPSWITCH21092023\REPSWITCH_excgange\REPSWITCH_excgange\data/360202_REPSWITCH1_version2_list2_2023-12-12_17h48.19.720_micRespv2l2_recorded\recording_micRespv2l2_2023-12-12_17h58.49.972.wav;635.7909775;636.291139;None;635.7909775;635.7909775;635.7909775;635.7909775;635.7909775;635.7909775;;;;;;;360202;1;2023-12-12_17h48.19.720;REPSWITCH1_version2_list2;2022.2.4;143.9290028;
REPSWITCH1/PICTURE_152.png;caracol;type;gold;nontarget;1;NT;2;1;2;2;Stim2_Set2;1;switch;133;132;31;0;132;132;132;;;;;;;;;;;;;;;;;;;;;;;636.291139;637.4371155;637.4371155;637.4371155;637.4371155;637.4371155;637.4371155;637.4371155;637.4371155;['c', 'a', 'r', 'a', 'c', 'o', 'l'];0;caracol;C:\2023\REPSWITCH21092023\REPSWITCH_excgange\REPSWITCH_excgange\data/360202_REPSWITCH1_version2_list2_2023-12-12_17h48.19.720_micRespv2l2_recorded\recording_micRespv2l2_2023-12-12_17h58.54.639.wav;640.4651976;;None;640.4651976;640.4651976;640.4651976;640.4651976;640.4651976;640.4651976;[0.9145180000923574, 1.0600282000377774, 1.1895949002355337, 1.2692988999187946, 1.4714748999103904, 1.6379140000790358, 1.7818113001994789];;;;;;360202;1;2023-12-12_17h48.19.720;REPSWITCH1_version2_list2;2022.2.4;143.9290028;
REPSWITCH1/PICTURE_152.png;caracol;type;gold;repeat;1;T;2;1;2;2;Stim2_Set2;0;None;134;133;32;0;133;133;133;;;;;;;;;;;;;;;;;;;;;;;640.9652664;642.0210111;642.0210111;642.0210111;642.0210111;642.0210111;642.0210111;642.0210111;642.0210111;['c', 'a', 'r', 'a', 'c', 'o', 'l'];0;caracol;C:\2023\REPSWITCH21092023\REPSWITCH_excgange\REPSWITCH_excgange\data/360202_REPSWITCH1_version2_list2_2023-12-12_17h48.19.720_micRespv2l2_recorded\recording_micRespv2l2_2023-12-12_17h58.59.224.wav;645.0421983;645.5423188;None;645.0421983;645.0421983;645.0421983;645.0421983;645.0421983;645.0421983;[0.9036076003685594, 1.0275003002025187, 1.14439250016585, 1.2490332000888884, 1.353685200214386, 1.8789119999855757, 2.034448300022632];;;;;;360202;1;2023-12-12_17h48.19.720;REPSWITCH1_version2_list2;2022.2.4;143.9290028;
REPSWITCH1/PICTURE_128.png;muñeca;speak;darkblue;filler;2;F;2;1;2;2;Stim4_Set1;0;None;135;134;33;0;134;134;134;;;;;;;;;;;;;;;;;;;;;;;645.5423188;646.5910075;646.5910075;646.5910075;646.5910075;646.5910075;646.5910075;646.5910075;646.5910075;None;0;;C:\2023\REPSWITCH21092023\REPSWITCH_excgange\REPSWITCH_excgange\data/360202_REPSWITCH1_version2_list2_2023-12-12_17h48.19.720_micRespv2l2_recorded\recording_micRespv2l2_2023-12-12_17h59.03.793.wav;649.6122305;650.1122809;None;649.6122305;649.6122305;649.6122305;649.6122305;649.6122305;649.6122305;;;;;;;360202;1;2023-12-12_17h48.19.720;REPSWITCH1_version2_list2;2022.2.4;143.9290028;
REPSWITCH1/PICTURE_264.png;mano;type;gold;nontarget;1;NT;2;1;2;2;Stim3_Set2;0;None;136;135;34;0;135;135;135;;;;;;;;;;;;;;;;;;;;;;;650.1122809;651.2374661;651.2374661;651.2374661;651.2374661;651.2374661;651.2374661;651.2374661;651.2374661;['m', 'a', 'n', 'o'];0;mano;C:\2023\REPSWITCH21092023\REPSWITCH_excgange\REPSWITCH_excgange\data/360202_REPSWITCH1_version2_list2_2023-12-12_17h48.19.720_micRespv2l2_recorded\recording_micRespv2l2_2023-12-12_17h59.08.440.wav;654.2587767;654.7587681;None;654.2587767;654.2587767;654.2587767;654.2587767;654.2587767;654.2587767;[1.0775839001871645, 1.1802361002191901, 1.2749171000905335, 1.478717400226742];;;;;;360202;1;2023-12-12_17h48.19.720;REPSWITCH1_version2_list2;2022.2.4;143.9290028;
REPSWITCH1/PICTURE_264.png;mano;speak;darkblue;switch;2;T;2;1;2;2;Stim3_Set2;0;None;137;136;35;0;136;136;136;;;;;;;;;;;;;;;;;;;;;;;654.7587681;655.8144369;655.8144369;655.8144369;655.8144369;655.8144369;655.8144369;655.8144369;655.8144369;None;0;;C:\2023\REPSWITCH21092023\REPSWITCH_excgange\REPSWITCH_excgange\data/360202_REPSWITCH1_version2_list2_2023-12-12_17h48.19.720_micRespv2l2_recorded\recording_micRespv2l2_2023-12-12_17h59.13.018.wav;658.8425897;;None;658.8425897;658.8425897;658.8425897;658.8425897;658.8425897;658.8425897;;;;;;;360202;1;2023-12-12_17h48.19.720;REPSWITCH1_version2_list2;2022.2.4;143.9290028;
REPSWITCH1/PICTURE_517.png;cuerda;speak;darkblue;nontarget;2;NT;2;1;2;2;Stim4_Set2;1;repeat;138;137;36;0;137;137;137;;;;;;;;;;;;;;;;;;;;;;;659.3426952;660.6206525;660.6206525;660.6206525;660.6206525;660.6206525;660.6206525;660.6206525;660.6206525;None;0;;C:\2023\REPSWITCH21092023\REPSWITCH_excgange\REPSWITCH_excgange\data/360202_REPSWITCH1_version2_list2_2023-12-12_17h48.19.720_micRespv2l2_recorded\recording_micRespv2l2_2023-12-12_17h59.17.823.wav;663.6419509;664.1419243;None;663.6419509;663.6419509;663.6419509;663.6419509;663.6419509;663.6419509;;;;;;;360202;1;2023-12-12_17h48.19.720;REPSWITCH1_version2_list2;2022.2.4;143.9290028;
REPSWITCH1/PICTURE_517.png;cuerda;type;gold;switch;1;T;2;1;2;2;Stim4_Set2;0;None;139;138;37;0;138;138;138;;;;;;;;;;;;;;;;;;;;;;;664.1419243;665.2601334;665.2601334;665.2601334;665.2601334;665.2601334;665.2601334;665.2601334;665.2601334;['c', 'u', 'e', 'r', 'd', 'a'];0;cuerda;C:\2023\REPSWITCH21092023\REPSWITCH_excgange\REPSWITCH_excgange\data/360202_REPSWITCH1_version2_list2_2023-12-12_17h48.19.720_micRespv2l2_recorded\recording_micRespv2l2_2023-12-12_17h59.22.463.wav;668.2813782;668.7814855;None;668.2813782;668.2813782;668.2813782;668.2813782;668.2813782;668.2813782;[0.6529044997878373, 0.7932374998927116, 0.9925708998925984, 1.216087100096047, 1.4186674999073148, 1.7086737002246082];;;;;;360202;1;2023-12-12_17h48.19.720;REPSWITCH1_version2_list2;2022.2.4;143.9290028;
REPSWITCH1/PICTURE_135.png;traje;type;gold;filler;1;F;2;1;2;2;Stim3_Set1;0;None;140;139;38;0;139;139;139;;;;;;;;;;;;;;;;;;;;;;;668.7814855;669.9551915;669.9551915;669.9551915;669.9551915;669.9551915;669.9551915;669.9551915;669.9551915;['t', 'r', 'a', 'j', 'e'];0;traje;C:\2023\REPSWITCH21092023\REPSWITCH_excgange\REPSWITCH_excgange\data/360202_REPSWITCH1_version2_list2_2023-12-12_17h48.19.720_micRespv2l2_recorded\recording_micRespv2l2_2023-12-12_17h59.27.158.wav;672.9763954;673.4765641;None;672.9763954;672.9763954;672.9763954;672.9763954;672.9763954;672.9763954;[0.9281640998087823, 1.0948057998903096, 1.1834999998100102, 1.5901677999645472, 1.7905953000299633];;;;;;360202;1;2023-12-12_17h48.19.720;REPSWITCH1_version2_list2;2022.2.4;143.9290028;
REPSWITCH1/PICTURE_30.png;granja;type;gold;nontarget;1;NT;2;1;2;2;Stim5_Set2;1;repeat;141;140;39;0;140;140;140;;;;;;;;;;;;;;;;;;;;;;;673.4765641;674.4905146;674.4905146;674.4905146;674.4905146;674.4905146;674.4905146;674.4905146;674.4905146;['g', 'r', 'a', 'n', 'j', 'a', 'a'];0;granjaa;C:\2023\REPSWITCH21092023\REPSWITCH_excgange\REPSWITCH_excgange\data/360202_REPSWITCH1_version2_list2_2023-12-12_17h48.19.720_micRespv2l2_recorded\recording_micRespv2l2_2023-12-12_17h59.31.694.wav;677.5186968;;None;677.5186968;677.5186968;677.5186968;677.5186968;677.5186968;677.5186968;[0.8816225999034941, 1.0363034000620246, 1.1548621002584696, 1.4552091998048127, 1.6448854999616742, 1.7705112998373806, 1.7944273999892175];;;;;;360202;1;2023-12-12_17h48.19.720;REPSWITCH1_version2_list2;2022.2.4;143.9290028;
