image,correctAns,respModal,frameColor,repSwitch,sequence,target,set,block,list,exp_version,stimulus,baseline,baseline_condition,trial_no,psychopy_trial,Column1,trialsREPSWITCH.thisRepN,trialsREPSWITCH.thisTrialN,trialsREPSWITCH.thisN,trialsREPSWITCH.thisIndex,textWelcome.started,textboxInstrMain1.started,textboxInstrMain1_2.started,textboxInstrMain1_3.started,keyInstrMain.started,keyInstrMain.keys,keyInstrMain.rt,textboxInstrMain2.started,textboxInstrMain2_2.started,textboxInstrMain2_3.started,textboxInstrMain2_4.started,textboxInstrMain2_5.started,textboxInstrMain2_6.started,textboxInstrMain2_7.started,textboxInstrMain2_8.started,textboxInstrMain2_9.started,textboxInstrMain2_10.started,textboxInstrMain2_11.started,textboxInstrMain2_12.started,keyInstrMain2.started,keyInstrMain2.keys,keyInstrMain2.rt,fixationITI.started,fixationITI.stopped,polygonColour.started,polygonWhite.started,imageObject.started,polygonType.started,textInput.started,keyResp.started,micRespv2l2.started,keyResp.keys,keyResp.corr,subjResponse,micRespv2l2.clip,textBlankLoop.started,textBlankLoop.stopped,keyPause.keys,polygonColour.stopped,polygonWhite.stopped,imageObject.stopped,polygonType.stopped,textInput.stopped,keyResp.stopped,keyResp.rt,textboxPause.started,keyPause.started,keyPause.rt,textboxGoodbye.started,textboxGoodbye.stopped,participant,session,date,expName,psychopyVersion,frameRate,
,,,,,,,,,,,,,,,,,,,,,7.399480300024152,9.896410300396383,9.896410300396383,9.896410300396383,9.896410300396383,space,8.64453380042687,,,,,,,,,,,,,,,,,,,,,,,,,,,,,,,,,,,,,,,,,,,,360202,001,2023-12-12_17h48.19.720,REPSWITCH1_version2_list2,2022.2.4,143.92900283109668,
,,,,,,,,,,,,,,,,,,,,,,,,,,,,18.55727280024439,18.55727280024439,18.55727280024439,18.55727280024439,18.55727280024439,18.55727280024439,18.55727280024439,18.55727280024439,18.55727280024439,18.55727280024439,18.55727280024439,18.55727280024439,18.55727280024439,space,2.814172000158578,,,,,,,,,,,,,,,,,,,,,,,,,,,,,360202,001,2023-12-12_17h48.19.720,REPSWITCH1_version2_list2,2022.2.4,143.92900283109668,
REPSWITCH1/PICTURE_646.png,tronco,speak,darkblue,filler,2,F,1,3,2,2,Extra4,0,None,1,0,1,0,0,0,0,,,,,,,,,,,,,,,,,,,,,,,21.467336000408977,22.51615030039102,22.51615030039102,22.51615030039102,22.51615030039102,22.51615030039102,22.51615030039102,22.51615030039102,22.51615030039102,None,0,,C:\2023\REPSWITCH21092023\REPSWITCH_excgange\REPSWITCH_excgange\data/360202_REPSWITCH1_version2_list2_2023-12-12_17h48.19.720_micRespv2l2_recorded\recording_micRespv2l2_2023-12-12_17h48.39.715.wav,25.537355600390583,26.037418600171804,None,,,,,,,,,,,,,360202,001,2023-12-12_17h48.19.720,REPSWITCH1_version2_list2,2022.2.4,143.92900283109668,
REPSWITCH1/PICTURE_340.png,espejo,type,gold,filler,1,F,1,3,2,2,Extra1,0,None,2,1,2,0,1,1,1,,,,,,,,,,,,,,,,,,,,,,,26.037418600171804,27.238981200382113,27.238981200382113,27.238981200382113,27.238981200382113,27.238981200382113,27.238981200382113,27.238981200382113,27.238981200382113,"['e', 's', 'p', 'e', 'j', 'o']",0,espejo,C:\2023\REPSWITCH21092023\REPSWITCH_excgange\REPSWITCH_excgange\data/360202_REPSWITCH1_version2_list2_2023-12-12_17h48.19.720_micRespv2l2_recorded\recording_micRespv2l2_2023-12-12_17h48.44.442.wav,30.26713230041787,,None,30.26713230041787,30.26713230041787,30.26713230041787,30.26713230041787,30.26713230041787,30.26713230041787,"[0.7566633000969887, 0.9386236001737416, 1.0962534002028406, 1.1999013000167906, 1.397156700026244, 1.590871499851346]",,,,,,360202,001,2023-12-12_17h48.19.720,REPSWITCH1_version2_list2,2022.2.4,143.92900283109668,
REPSWITCH1/PICTURE_338.png,regalo,speak,darkblue,filler,2,F,1,3,2,2,Stim6_Set4,0,None,3,2,3,0,2,2,2,,,,,,,,,,,,,,,,,,,,,,,30.767210300080478,31.941039400175214,31.941039400175214,31.941039400175214,31.941039400175214,31.941039400175214,31.941039400175214,31.941039400175214,31.941039400175214,None,0,,C:\2023\REPSWITCH21092023\REPSWITCH_excgange\REPSWITCH_excgange\data/360202_REPSWITCH1_version2_list2_2023-12-12_17h48.19.720_micRespv2l2_recorded\recording_micRespv2l2_2023-12-12_17h48.49.144.wav,34.96218170039356,35.46227680006996,None,34.96218170039356,34.96218170039356,34.96218170039356,34.96218170039356,34.96218170039356,34.96218170039356,,,,,,,360202,001,2023-12-12_17h48.19.720,REPSWITCH1_version2_list2,2022.2.4,143.92900283109668,
REPSWITCH1/PICTURE_142.png,vaso,speak,darkblue,nontarget,2,NT,1,3,2,2,Stim7_Set1,1,repeat,4,3,4,0,3,3,3,,,,,,,,,,,,,,,,,,,,,,,35.46227680006996,36.524960700422525,36.524960700422525,36.524960700422525,36.524960700422525,36.524960700422525,36.524960700422525,36.524960700422525,36.524960700422525,None,0,,C:\2023\REPSWITCH21092023\REPSWITCH_excgange\REPSWITCH_excgange\data/360202_REPSWITCH1_version2_list2_2023-12-12_17h48.19.720_micRespv2l2_recorded\recording_micRespv2l2_2023-12-12_17h48.53.728.wav,39.55307000037283,,None,39.55307000037283,39.55307000037283,39.55307000037283,39.55307000037283,39.55307000037283,39.55307000037283,,,,,,,360202,001,2023-12-12_17h48.19.720,REPSWITCH1_version2_list2,2022.2.4,143.92900283109668,
REPSWITCH1/PICTURE_142.png,vaso,speak,darkblue,repeat,2,T,1,3,2,2,Stim7_Set1,0,None,5,4,5,0,4,4,4,,,,,,,,,,,,,,,,,,,,,,,40.0531355002895,41.2408010000363,41.2408010000363,41.2408010000363,41.2408010000363,41.2408010000363,41.2408010000363,41.2408010000363,41.2408010000363,None,0,,C:\2023\REPSWITCH21092023\REPSWITCH_excgange\REPSWITCH_excgange\data/360202_REPSWITCH1_version2_list2_2023-12-12_17h48.19.720_micRespv2l2_recorded\recording_micRespv2l2_2023-12-12_17h48.58.443.wav,44.2620749999769,44.76207520021126,None,44.2620749999769,44.2620749999769,44.2620749999769,44.2620749999769,44.2620749999769,44.2620749999769,,,,,,,360202,001,2023-12-12_17h48.19.720,REPSWITCH1_version2_list2,2022.2.4,143.92900283109668,
REPSWITCH1/PICTURE_498.png,taza,type,gold,filler,1,F,1,3,2,2,Stim4_Set4,0,None,6,5,6,0,5,5,5,,,,,,,,,,,,,,,,,,,,,,,44.76207520021126,45.84554880019277,45.84554880019277,45.84554880019277,45.84554880019277,45.84554880019277,45.84554880019277,45.84554880019277,45.84554880019277,"['t', 'a', 'z', 'a']",0,taza,C:\2023\REPSWITCH21092023\REPSWITCH_excgange\REPSWITCH_excgange\data/360202_REPSWITCH1_version2_list2_2023-12-12_17h48.19.720_micRespv2l2_recorded\recording_micRespv2l2_2023-12-12_17h49.03.048.wav,48.866813000291586,49.366864799987525,None,48.866813000291586,48.866813000291586,48.866813000291586,48.866813000291586,48.866813000291586,48.866813000291586,"[0.9357655998319387, 1.0164922000840306, 1.205110200215131, 1.3845374998636544]",,,,,,360202,001,2023-12-12_17h48.19.720,REPSWITCH1_version2_list2,2022.2.4,143.92900283109668,
REPSWITCH1/PICTURE_16.png,cazador,speak,darkblue,nontarget,2,NT,1,3,2,2,Stim6_Set1,1,switch,7,6,7,0,6,6,6,,,,,,,,,,,,,,,,,,,,,,,49.366864799987525,50.505907400045544,50.505907400045544,50.505907400045544,50.505907400045544,50.505907400045544,50.505907400045544,50.505907400045544,50.505907400045544,None,0,,C:\2023\REPSWITCH21092023\REPSWITCH_excgange\REPSWITCH_excgange\data/360202_REPSWITCH1_version2_list2_2023-12-12_17h48.19.720_micRespv2l2_recorded\recording_micRespv2l2_2023-12-12_17h49.07.709.wav,53.52709150034934,54.02718930039555,None,53.52709150034934,53.52709150034934,53.52709150034934,53.52709150034934,53.52709150034934,53.52709150034934,,,,,,,360202,001,2023-12-12_17h48.19.720,REPSWITCH1_version2_list2,2022.2.4,143.92900283109668,
REPSWITCH1/PICTURE_16.png,cazador,speak,darkblue,repeat,2,T,1,3,2,2,Stim6_Set1,0,None,8,7,8,0,7,7,7,,,,,,,,,,,,,,,,,,,,,,,54.02718930039555,55.14540870022029,55.14540870022029,55.14540870022029,55.14540870022029,55.14540870022029,55.14540870022029,55.14540870022029,55.14540870022029,None,0,,C:\2023\REPSWITCH21092023\REPSWITCH_excgange\REPSWITCH_excgange\data/360202_REPSWITCH1_version2_list2_2023-12-12_17h48.19.720_micRespv2l2_recorded\recording_micRespv2l2_2023-12-12_17h49.12.348.wav,58.166632800363004,58.66672130022198,None,58.166632800363004,58.166632800363004,58.166632800363004,58.166632800363004,58.166632800363004,58.166632800363004,,,,,,,360202,001,2023-12-12_17h48.19.720,REPSWITCH1_version2_list2,2022.2.4,143.92900283109668,
REPSWITCH1/PICTURE_719.png,baño,type,gold,filler,1,F,1,3,2,2,Stim2_Set4,0,None,9,8,9,0,8,8,8,,,,,,,,,,,,,,,,,,,,,,,58.66672130022198,59.77100619999692,59.77100619999692,59.77100619999692,59.77100619999692,59.77100619999692,59.77100619999692,59.77100619999692,59.77100619999692,"['b', 'a', 'ñ', 'o']",0,baño,C:\2023\REPSWITCH21092023\REPSWITCH_excgange\REPSWITCH_excgange\data/360202_REPSWITCH1_version2_list2_2023-12-12_17h48.19.720_micRespv2l2_recorded\recording_micRespv2l2_2023-12-12_17h49.16.974.wav,62.79221310000867,63.29229260003194,None,62.79221310000867,62.79221310000867,62.79221310000867,62.79221310000867,62.79221310000867,62.79221310000867,"[1.1874577002599835, 1.2930705002509058, 1.6651339000090957, 1.8263397002592683]",,,,,,360202,001,2023-12-12_17h48.19.720,REPSWITCH1_version2_list2,2022.2.4,143.92900283109668,
REPSWITCH1/PICTURE_169.png,espalda,speak,darkblue,nontarget,2,NT,1,3,2,2,Stim8_Set1,0,None,10,9,10,0,9,9,9,,,,,,,,,,,,,,,,,,,,,,,63.29229260003194,64.35495130019262,64.35495130019262,64.35495130019262,64.35495130019262,64.35495130019262,64.35495130019262,64.35495130019262,64.35495130019262,None,0,,C:\2023\REPSWITCH21092023\REPSWITCH_excgange\REPSWITCH_excgange\data/360202_REPSWITCH1_version2_list2_2023-12-12_17h48.19.720_micRespv2l2_recorded\recording_micRespv2l2_2023-12-12_17h49.21.557.wav,67.37616700027138,67.87622720003128,None,67.37616700027138,67.37616700027138,67.37616700027138,67.37616700027138,67.37616700027138,67.37616700027138,,,,,,,360202,001,2023-12-12_17h48.19.720,REPSWITCH1_version2_list2,2022.2.4,143.92900283109668,
REPSWITCH1/PICTURE_169.png,espalda,type,gold,switch,1,T,1,3,2,2,Stim8_Set1,0,None,11,10,11,0,10,10,10,,,,,,,,,,,,,,,,,,,,,,,67.87622720003128,69.00137110007927,69.00137110007927,69.00137110007927,69.00137110007927,69.00137110007927,69.00137110007927,69.00137110007927,69.00137110007927,"['e', 's', 'p', 'l', 'backspace', 'a']",0,espa,C:\2023\REPSWITCH21092023\REPSWITCH_excgange\REPSWITCH_excgange\data/360202_REPSWITCH1_version2_list2_2023-12-12_17h48.19.720_micRespv2l2_recorded\recording_micRespv2l2_2023-12-12_17h49.26.205.wav,72.02257220027968,72.52264600014314,None,72.02257220027968,72.02257220027968,72.02257220027968,72.02257220027968,72.02257220027968,72.02257220027968,"[0.8508325996808708, 1.019825799856335, 1.1525910999625921, 1.374845499638468, 2.672305699903518, 2.7749532996676862]",,,,,,360202,001,2023-12-12_17h48.19.720,REPSWITCH1_version2_list2,2022.2.4,143.92900283109668,
REPSWITCH1/PICTURE_687.png,camisa,type,gold,filler,1,F,1,3,2,2,Stim5_Set4,0,None,12,11,12,0,11,11,11,,,,,,,,,,,,,,,,,,,,,,,72.52264600014314,73.57147810002789,73.57147810002789,73.57147810002789,73.57147810002789,73.57147810002789,73.57147810002789,73.57147810002789,73.57147810002789,"['c', 'a', 'i', 'o', 's', 'a']",0,caiosa,C:\2023\REPSWITCH21092023\REPSWITCH_excgange\REPSWITCH_excgange\data/360202_REPSWITCH1_version2_list2_2023-12-12_17h48.19.720_micRespv2l2_recorded\recording_micRespv2l2_2023-12-12_17h49.30.774.wav,76.59956240002066,,None,76.59956240002066,76.59956240002066,76.59956240002066,76.59956240002066,76.59956240002066,76.59956240002066,"[1.4629920003935695, 1.655321600381285, 2.4479845999740064, 2.4519238001666963, 2.54963820008561, 2.7818569000810385]",,,,,,360202,001,2023-12-12_17h48.19.720,REPSWITCH1_version2_list2,2022.2.4,143.92900283109668,
REPSWITCH1/PICTURE_178.png,puente,type,gold,nontarget,1,NT,1,3,2,2,Stim1_Set1,1,repeat,13,12,13,0,12,12,12,,,,,,,,,,,,,,,,,,,,,,,77.09963429998606,78.18314890004694,78.18314890004694,78.18314890004694,78.18314890004694,78.18314890004694,78.18314890004694,78.18314890004694,78.18314890004694,"['p', 'u', 'e', 'n', 't', 'e']",0,puente,C:\2023\REPSWITCH21092023\REPSWITCH_excgange\REPSWITCH_excgange\data/360202_REPSWITCH1_version2_list2_2023-12-12_17h48.19.720_micRespv2l2_recorded\recording_micRespv2l2_2023-12-12_17h49.35.387.wav,81.21135450014845,,None,81.21135450014845,81.21135450014845,81.21135450014845,81.21135450014845,81.21135450014845,81.21135450014845,"[0.9436225001700222, 1.2525844001211226, 1.5251061003655195, 1.6509596002288163, 2.256891000084579, 2.4023895002901554]",,,,,,360202,001,2023-12-12_17h48.19.720,REPSWITCH1_version2_list2,2022.2.4,143.92900283109668,
REPSWITCH1/PICTURE_178.png,puente,speak,darkblue,switch,2,T,1,3,2,2,Stim1_Set1,0,None,14,13,14,0,13,13,13,,,,,,,,,,,,,,,,,,,,,,,81.71137760020792,82.76010710000992,82.76010710000992,82.76010710000992,82.76010710000992,82.76010710000992,82.76010710000992,82.76010710000992,82.76010710000992,None,0,,C:\2023\REPSWITCH21092023\REPSWITCH_excgange\REPSWITCH_excgange\data/360202_REPSWITCH1_version2_list2_2023-12-12_17h48.19.720_micRespv2l2_recorded\recording_micRespv2l2_2023-12-12_17h49.39.963.wav,85.78135569998994,86.28149279998615,None,85.78135569998994,85.78135569998994,85.78135569998994,85.78135569998994,85.78135569998994,85.78135569998994,,,,,,,360202,001,2023-12-12_17h48.19.720,REPSWITCH1_version2_list2,2022.2.4,143.92900283109668,
REPSWITCH1/PICTURE_128.png,muñeca,speak,darkblue,nontarget,2,NT,1,3,2,2,Stim4_Set1,1,repeat,15,14,15,0,14,14,14,,,,,,,,,,,,,,,,,,,,,,,86.28149279998615,87.34413790004328,87.34413790004328,87.34413790004328,87.34413790004328,87.34413790004328,87.34413790004328,87.34413790004328,87.34413790004328,None,0,,C:\2023\REPSWITCH21092023\REPSWITCH_excgange\REPSWITCH_excgange\data/360202_REPSWITCH1_version2_list2_2023-12-12_17h48.19.720_micRespv2l2_recorded\recording_micRespv2l2_2023-12-12_17h49.44.547.wav,90.36525300005451,90.86535380035639,None,90.36525300005451,90.36525300005451,90.36525300005451,90.36525300005451,90.36525300005451,90.36525300005451,,,,,,,360202,001,2023-12-12_17h48.19.720,REPSWITCH1_version2_list2,2022.2.4,143.92900283109668,
REPSWITCH1/PICTURE_128.png,muñeca,type,gold,switch,1,T,1,3,2,2,Stim4_Set1,0,None,16,15,16,0,15,15,15,,,,,,,,,,,,,,,,,,,,,,,90.86535380035639,92.01133120013401,92.01133120013401,92.01133120013401,92.01133120013401,92.01133120013401,92.01133120013401,92.01133120013401,92.01133120013401,"['m', 'u', 'ñ', 'e', 'c', 'a']",0,muñeca,C:\2023\REPSWITCH21092023\REPSWITCH_excgange\REPSWITCH_excgange\data/360202_REPSWITCH1_version2_list2_2023-12-12_17h48.19.720_micRespv2l2_recorded\recording_micRespv2l2_2023-12-12_17h49.49.213.wav,95.03254230041057,95.53260630043224,None,95.03254230041057,95.03254230041057,95.03254230041057,95.03254230041057,95.03254230041057,95.03254230041057,"[1.2067791000008583, 1.3921766001731157, 1.8203939003869891, 2.015723400283605, 2.2161026000976562, 2.320746600162238]",,,,,,360202,001,2023-12-12_17h48.19.720,REPSWITCH1_version2_list2,2022.2.4,143.92900283109668,
REPSWITCH1/PICTURE_319.png,vaca,speak,darkblue,filler,2,F,1,3,2,2,Stim1_Set4,1,switch,17,16,17,0,16,16,16,,,,,,,,,,,,,,,,,,,,,,,95.53260630043224,96.68557370034978,96.68557370034978,96.68557370034978,96.68557370034978,96.68557370034978,96.68557370034978,96.68557370034978,96.68557370034978,None,0,,C:\2023\REPSWITCH21092023\REPSWITCH_excgange\REPSWITCH_excgange\data/360202_REPSWITCH1_version2_list2_2023-12-12_17h48.19.720_micRespv2l2_recorded\recording_micRespv2l2_2023-12-12_17h49.53.888.wav,99.70681820018217,100.20685700001195,None,99.70681820018217,99.70681820018217,99.70681820018217,99.70681820018217,99.70681820018217,99.70681820018217,,,,,,,360202,001,2023-12-12_17h48.19.720,REPSWITCH1_version2_list2,2022.2.4,143.92900283109668,
REPSWITCH1/PICTURE_728.png,pulpo,speak,darkblue,filler,2,F,1,3,2,2,Stim8_Set4,0,None,18,17,18,0,17,17,17,,,,,,,,,,,,,,,,,,,,,,,100.20685700001195,101.35978080006316,101.35978080006316,101.35978080006316,101.35978080006316,101.35978080006316,101.35978080006316,101.35978080006316,101.35978080006316,None,0,,C:\2023\REPSWITCH21092023\REPSWITCH_excgange\REPSWITCH_excgange\data/360202_REPSWITCH1_version2_list2_2023-12-12_17h48.19.720_micRespv2l2_recorded\recording_micRespv2l2_2023-12-12_17h49.58.562.wav,104.38100450020283,104.88108050031587,None,104.38100450020283,104.38100450020283,104.38100450020283,104.38100450020283,104.38100450020283,104.38100450020283,,,,,,,360202,001,2023-12-12_17h48.19.720,REPSWITCH1_version2_list2,2022.2.4,143.92900283109668,
REPSWITCH1/PICTURE_381.png,fresa,type,gold,nontarget,1,NT,1,3,2,2,Stim2_Set1,1,switch,19,18,19,0,18,18,18,,,,,,,,,,,,,,,,,,,,,,,104.88108050031587,105.97842520009726,105.97842520009726,105.97842520009726,105.97842520009726,105.97842520009726,105.97842520009726,105.97842520009726,105.97842520009726,"['f', 'r', 'e', 's', 'a']",0,fresa,C:\2023\REPSWITCH21092023\REPSWITCH_excgange\REPSWITCH_excgange\data/360202_REPSWITCH1_version2_list2_2023-12-12_17h48.19.720_micRespv2l2_recorded\recording_micRespv2l2_2023-12-12_17h50.03.181.wav,108.99967400031164,109.49972850037739,None,108.99967400031164,108.99967400031164,108.99967400031164,108.99967400031164,108.99967400031164,108.99967400031164,"[1.324791599996388, 1.4610248999670148, 1.610523299779743, 1.7946148999035358, 2.0001441999338567]",,,,,,360202,001,2023-12-12_17h48.19.720,REPSWITCH1_version2_list2,2022.2.4,143.92900283109668,
REPSWITCH1/PICTURE_381.png,fresa,type,gold,repeat,1,T,1,3,2,2,Stim2_Set1,0,None,20,19,20,0,19,19,19,,,,,,,,,,,,,,,,,,,,,,,109.49972850037739,110.57630780013278,110.57630780013278,110.57630780013278,110.57630780013278,110.57630780013278,110.57630780013278,110.57630780013278,110.57630780013278,"['f', 'r', 'e', 's', 'a']",0,fresa,C:\2023\REPSWITCH21092023\REPSWITCH_excgange\REPSWITCH_excgange\data/360202_REPSWITCH1_version2_list2_2023-12-12_17h48.19.720_micRespv2l2_recorded\recording_micRespv2l2_2023-12-12_17h50.07.779.wav,113.59747350029647,114.09756090026349,None,113.59747350029647,113.59747350029647,113.59747350029647,113.59747350029647,113.59747350029647,113.59747350029647,"[1.0829448997974396, 1.2244691997766495, 1.3041910999454558, 1.4749233997426927, 1.6792073999531567]",,,,,,360202,001,2023-12-12_17h48.19.720,REPSWITCH1_version2_list2,2022.2.4,143.92900283109668,
REPSWITCH1/PICTURE_8.png,pierna,speak,darkblue,filler,2,F,1,3,2,2,Stim3_Set4,0,None,21,20,21,0,20,20,20,,,,,,,,,,,,,,,,,,,,,,,114.09756090026349,115.2227440001443,115.2227440001443,115.2227440001443,115.2227440001443,115.2227440001443,115.2227440001443,115.2227440001443,115.2227440001443,None,0,,C:\2023\REPSWITCH21092023\REPSWITCH_excgange\REPSWITCH_excgange\data/360202_REPSWITCH1_version2_list2_2023-12-12_17h48.19.720_micRespv2l2_recorded\recording_micRespv2l2_2023-12-12_17h50.12.425.wav,118.24401989998296,118.7440069001168,None,118.24401989998296,118.24401989998296,118.24401989998296,118.24401989998296,118.24401989998296,118.24401989998296,,,,,,,360202,001,2023-12-12_17h48.19.720,REPSWITCH1_version2_list2,2022.2.4,143.92900283109668,
REPSWITCH1/PICTURE_48.png,bombero,speak,darkblue,filler,2,F,1,3,2,2,Stim7_Set4,0,None,22,21,22,0,21,21,21,,,,,,,,,,,,,,,,,,,,,,,118.7440069001168,119.8205141001381,119.8205141001381,119.8205141001381,119.8205141001381,119.8205141001381,119.8205141001381,119.8205141001381,119.8205141001381,None,0,,C:\2023\REPSWITCH21092023\REPSWITCH_excgange\REPSWITCH_excgange\data/360202_REPSWITCH1_version2_list2_2023-12-12_17h48.19.720_micRespv2l2_recorded\recording_micRespv2l2_2023-12-12_17h50.17.024.wav,122.84172670030966,123.34189320029691,None,122.84172670030966,122.84172670030966,122.84172670030966,122.84172670030966,122.84172670030966,122.84172670030966,,,,,,,360202,001,2023-12-12_17h48.19.720,REPSWITCH1_version2_list2,2022.2.4,143.92900283109668,
REPSWITCH1/PICTURE_135.png,traje,type,gold,nontarget,1,NT,1,3,2,2,Stim3_Set1,1,switch,23,22,23,0,22,22,22,,,,,,,,,,,,,,,,,,,,,,,123.34189320029691,124.46699540037662,124.46699540037662,124.46699540037662,124.46699540037662,124.46699540037662,124.46699540037662,124.46699540037662,124.46699540037662,"['t', 'r', 'a', 'j', 'e']",0,traje,C:\2023\REPSWITCH21092023\REPSWITCH_excgange\REPSWITCH_excgange\data/360202_REPSWITCH1_version2_list2_2023-12-12_17h48.19.720_micRespv2l2_recorded\recording_micRespv2l2_2023-12-12_17h50.21.670.wav,127.48820310039446,127.98825620021671,None,127.48820310039446,127.48820310039446,127.48820310039446,127.48820310039446,127.48820310039446,127.48820310039446,"[1.1572904996573925, 1.303795199841261, 1.378510299604386, 2.1256887996569276, 2.2302819998003542]",,,,,,360202,001,2023-12-12_17h48.19.720,REPSWITCH1_version2_list2,2022.2.4,143.92900283109668,
REPSWITCH1/PICTURE_135.png,traje,type,gold,repeat,1,T,1,3,2,2,Stim3_Set1,0,None,24,23,24,0,23,23,23,,,,,,,,,,,,,,,,,,,,,,,127.98825620021671,129.07180960010737,129.07180960010737,129.07180960010737,129.07180960010737,129.07180960010737,129.07180960010737,129.07180960010737,129.07180960010737,"['t', 'r', 'a', 'j', 'e']",0,traje,C:\2023\REPSWITCH21092023\REPSWITCH_excgange\REPSWITCH_excgange\data/360202_REPSWITCH1_version2_list2_2023-12-12_17h48.19.720_micRespv2l2_recorded\recording_micRespv2l2_2023-12-12_17h50.26.274.wav,132.09293860010803,132.59303170023486,None,132.09293860010803,132.09293860010803,132.09293860010803,132.09293860010803,132.09293860010803,132.09293860010803,"[0.913583000190556, 1.0514771998859942, 1.1411700998432934, 1.481081500183791, 1.649831300135702]",,,,,,360202,001,2023-12-12_17h48.19.720,REPSWITCH1_version2_list2,2022.2.4,143.92900283109668,
REPSWITCH1/PICTURE_19.png,pavo,type,gold,nontarget,1,NT,1,3,2,2,Stim5_Set1,1,repeat,25,24,25,0,24,24,24,,,,,,,,,,,,,,,,,,,,,,,132.59303170023486,133.80158910015598,133.80158910015598,133.80158910015598,133.80158910015598,133.80158910015598,133.80158910015598,133.80158910015598,133.80158910015598,"['p', 'a', 'v', 'o']",0,pavo,C:\2023\REPSWITCH21092023\REPSWITCH_excgange\REPSWITCH_excgange\data/360202_REPSWITCH1_version2_list2_2023-12-12_17h48.19.720_micRespv2l2_recorded\recording_micRespv2l2_2023-12-12_17h50.31.005.wav,136.8297005002387,,None,136.8297005002387,136.8297005002387,136.8297005002387,136.8297005002387,136.8297005002387,136.8297005002387,"[1.2152462000958622, 1.3118751998990774, 1.6469697998836637, 1.8202634998597205]",,,,,,360202,001,2023-12-12_17h48.19.720,REPSWITCH1_version2_list2,2022.2.4,143.92900283109668,
REPSWITCH1/PICTURE_19.png,pavo,speak,darkblue,switch,2,T,1,3,2,2,Stim5_Set1,0,None,26,25,26,0,25,25,25,,,,,,,,,,,,,,,,,,,,,,,137.32978030014783,138.47576210042462,138.47576210042462,138.47576210042462,138.47576210042462,138.47576210042462,138.47576210042462,138.47576210042462,138.47576210042462,None,0,,C:\2023\REPSWITCH21092023\REPSWITCH_excgange\REPSWITCH_excgange\data/360202_REPSWITCH1_version2_list2_2023-12-12_17h48.19.720_micRespv2l2_recorded\recording_micRespv2l2_2023-12-12_17h50.35.678.wav,141.50400000019,,None,141.50400000019,141.50400000019,141.50400000019,141.50400000019,141.50400000019,141.50400000019,,,,,,,360202,001,2023-12-12_17h48.19.720,REPSWITCH1_version2_list2,2022.2.4,143.92900283109668,
REPSWITCH1/PICTURE_142.png,vaso,speak,darkblue,filler,2,F,2,3,2,2,Stim7_Set1,0,None,27,26,27,0,26,26,26,,,,,,,,,,,,,,,,,,,,,,,142.0039998004213,143.11532160034403,143.11532160034403,143.11532160034403,143.11532160034403,143.11532160034403,143.11532160034403,143.11532160034403,143.11532160034403,None,0,,C:\2023\REPSWITCH21092023\REPSWITCH_excgange\REPSWITCH_excgange\data/360202_REPSWITCH1_version2_list2_2023-12-12_17h48.19.720_micRespv2l2_recorded\recording_micRespv2l2_2023-12-12_17h50.40.318.wav,146.1365338000469,146.63652230007574,None,146.1365338000469,146.1365338000469,146.1365338000469,146.1365338000469,146.1365338000469,146.1365338000469,,,,,,,360202,001,2023-12-12_17h48.19.720,REPSWITCH1_version2_list2,2022.2.4,143.92900283109668,
REPSWITCH1/PICTURE_135.png,traje,type,gold,filler,1,F,2,3,2,2,Stim3_Set1,0,None,28,27,28,0,27,27,27,,,,,,,,,,,,,,,,,,,,,,,146.63652230007574,147.84503190033138,147.84503190033138,147.84503190033138,147.84503190033138,147.84503190033138,147.84503190033138,147.84503190033138,147.84503190033138,"['t', 'r', 'a', 'j', 'e']",0,traje,C:\2023\REPSWITCH21092023\REPSWITCH_excgange\REPSWITCH_excgange\data/360202_REPSWITCH1_version2_list2_2023-12-12_17h48.19.720_micRespv2l2_recorded\recording_micRespv2l2_2023-12-12_17h50.45.048.wav,150.86634140042588,151.36633280012757,None,150.86634140042588,150.86634140042588,150.86634140042588,150.86634140042588,150.86634140042588,150.86634140042588,"[0.9678532998077571, 1.1346163996495306, 1.1844214000739157, 1.5535228997468948, 1.6651781997643411]",,,,,,360202,001,2023-12-12_17h48.19.720,REPSWITCH1_version2_list2,2022.2.4,143.92900283109668,
REPSWITCH1/PICTURE_446.png,cerdo,type,gold,nontarget,1,NT,2,3,2,2,Stim7_Set2,0,None,29,28,29,0,28,28,28,,,,,,,,,,,,,,,,,,,,,,,151.36633280012757,152.5331761999987,152.5331761999987,152.5331761999987,152.5331761999987,152.5331761999987,152.5331761999987,152.5331761999987,152.5331761999987,"['c', 'e', 'r', 'd', 'o']",0,cerdo,C:\2023\REPSWITCH21092023\REPSWITCH_excgange\REPSWITCH_excgange\data/360202_REPSWITCH1_version2_list2_2023-12-12_17h48.19.720_micRespv2l2_recorded\recording_micRespv2l2_2023-12-12_17h50.49.736.wav,155.5543536003679,156.05441180011258,None,155.5543536003679,155.5543536003679,155.5543536003679,155.5543536003679,155.5543536003679,155.5543536003679,"[1.0397122004069388, 1.1525661000050604, 1.3319739000871778, 1.5015364000573754, 1.6607614001259208]",,,,,,360202,001,2023-12-12_17h48.19.720,REPSWITCH1_version2_list2,2022.2.4,143.92900283109668,
REPSWITCH1/PICTURE_446.png,cerdo,type,gold,repeat,1,T,2,3,2,2,Stim7_Set2,0,None,30,29,30,0,29,29,29,,,,,,,,,,,,,,,,,,,,,,,156.05441180011258,157.22126090014353,157.22126090014353,157.22126090014353,157.22126090014353,157.22126090014353,157.22126090014353,157.22126090014353,157.22126090014353,"['c', 'e', 'r', 'd', 'o']",0,cerdo,C:\2023\REPSWITCH21092023\REPSWITCH_excgange\REPSWITCH_excgange\data/360202_REPSWITCH1_version2_list2_2023-12-12_17h48.19.720_micRespv2l2_recorded\recording_micRespv2l2_2023-12-12_17h50.54.424.wav,160.24246360035613,160.742539500352,None,160.24246360035613,160.24246360035613,160.24246360035613,160.24246360035613,160.24246360035613,160.24246360035613,"[0.8040909999981523, 0.912765100132674, 1.1140672001056373, 1.2775410003960133, 1.3692324003204703]",,,,,,360202,001,2023-12-12_17h48.19.720,REPSWITCH1_version2_list2,2022.2.4,143.92900283109668,
REPSWITCH1/PICTURE_16.png,cazador,speak,darkblue,filler,2,F,2,3,2,2,Stim6_Set1,0,None,31,30,31,0,30,30,30,,,,,,,,,,,,,,,,,,,,,,,160.742539500352,161.78437930019572,161.78437930019572,161.78437930019572,161.78437930019572,161.78437930019572,161.78437930019572,161.78437930019572,161.78437930019572,None,0,,C:\2023\REPSWITCH21092023\REPSWITCH_excgange\REPSWITCH_excgange\data/360202_REPSWITCH1_version2_list2_2023-12-12_17h48.19.720_micRespv2l2_recorded\recording_micRespv2l2_2023-12-12_17h50.58.988.wav,164.81251740036532,,None,164.81251740036532,164.81251740036532,164.81251740036532,164.81251740036532,164.81251740036532,164.81251740036532,,,,,,,360202,001,2023-12-12_17h48.19.720,REPSWITCH1_version2_list2,2022.2.4,143.92900283109668,
REPSWITCH1/PICTURE_552.png,manzana,type,gold,nontarget,1,NT,2,3,2,2,Stim6_Set2,1,switch,32,31,32,0,31,31,31,,,,,,,,,,,,,,,,,,,,,,,165.31257420033216,166.4517241003923,166.4517241003923,166.4517241003923,166.4517241003923,166.4517241003923,166.4517241003923,166.4517241003923,166.4517241003923,"['a', 'backspace', 'a', 'm', 'z']",0,amz,C:\2023\REPSWITCH21092023\REPSWITCH_excgange\REPSWITCH_excgange\data/360202_REPSWITCH1_version2_list2_2023-12-12_17h48.19.720_micRespv2l2_recorded\recording_micRespv2l2_2023-12-12_17h51.03.654.wav,169.47288000024855,169.97293920023367,None,169.47288000024855,169.47288000024855,169.47288000024855,169.47288000024855,169.47288000024855,169.47288000024855,"[1.4559833998791873, 2.279125299770385, 2.6867340998724103, 2.797691199928522, 2.881444999948144]",,,,,,360202,001,2023-12-12_17h48.19.720,REPSWITCH1_version2_list2,2022.2.4,143.92900283109668,
REPSWITCH1/PICTURE_552.png,manzana,type,gold,repeat,1,T,2,3,2,2,Stim6_Set2,0,None,33,32,33,0,32,32,32,,,,,,,,,,,,,,,,,,,,,,,169.97293920023367,171.07727510016412,171.07727510016412,171.07727510016412,171.07727510016412,171.07727510016412,171.07727510016412,171.07727510016412,171.07727510016412,"['m', 'a', 'n', 'z', 'a', 'n', 'a']",0,manzana,C:\2023\REPSWITCH21092023\REPSWITCH_excgange\REPSWITCH_excgange\data/360202_REPSWITCH1_version2_list2_2023-12-12_17h48.19.720_micRespv2l2_recorded\recording_micRespv2l2_2023-12-12_17h51.08.280.wav,174.10540320025757,,None,174.10540320025757,174.10540320025757,174.10540320025757,174.10540320025757,174.10540320025757,174.10540320025757,"[0.7558531002141535, 1.5775219001807272, 1.7906853002496064, 1.979063699953258, 2.170407300349325, 2.4751468002796173, 2.6129234000109136]",,,,,,360202,001,2023-12-12_17h48.19.720,REPSWITCH1_version2_list2,2022.2.4,143.92900283109668,
REPSWITCH1/PICTURE_517.png,cuerda,type,gold,nontarget,1,NT,2,3,2,2,Stim4_Set2,0,None,34,33,34,0,33,33,33,,,,,,,,,,,,,,,,,,,,,,,174.60546690039337,175.6889887000434,175.6889887000434,175.6889887000434,175.6889887000434,175.6889887000434,175.6889887000434,175.6889887000434,175.6889887000434,"['c', 'u', 'e', 'r', 'd', 'a']",0,cuerda,C:\2023\REPSWITCH21092023\REPSWITCH_excgange\REPSWITCH_excgange\data/360202_REPSWITCH1_version2_list2_2023-12-12_17h48.19.720_micRespv2l2_recorded\recording_micRespv2l2_2023-12-12_17h51.12.892.wav,178.7102026999928,179.2102633002214,None,178.7102026999928,178.7102026999928,178.7102026999928,178.7102026999928,178.7102026999928,178.7102026999928,"[0.9093550997786224, 1.1016949997283518, 1.2222879999317229, 1.4036037996411324, 1.5750604998320341, 1.6844084998592734]",,,,,,360202,001,2023-12-12_17h48.19.720,REPSWITCH1_version2_list2,2022.2.4,143.92900283109668,
REPSWITCH1/PICTURE_517.png,cuerda,speak,darkblue,switch,2,T,2,3,2,2,Stim4_Set2,0,None,35,34,35,0,34,34,34,,,,,,,,,,,,,,,,,,,,,,,179.2102633002214,180.29376200027764,180.29376200027764,180.29376200027764,180.29376200027764,180.29376200027764,180.29376200027764,180.29376200027764,180.29376200027764,None,0,,C:\2023\REPSWITCH21092023\REPSWITCH_excgange\REPSWITCH_excgange\data/360202_REPSWITCH1_version2_list2_2023-12-12_17h48.19.720_micRespv2l2_recorded\recording_micRespv2l2_2023-12-12_17h51.17.497.wav,183.31493710028008,183.81503450032324,None,183.31493710028008,183.31493710028008,183.31493710028008,183.31493710028008,183.31493710028008,183.31493710028008,,,,,,,360202,001,2023-12-12_17h48.19.720,REPSWITCH1_version2_list2,2022.2.4,143.92900283109668,
REPSWITCH1/PICTURE_169.png,espalda,speak,darkblue,filler,2,F,2,3,2,2,Stim8_Set1,1,repeat,36,35,36,0,35,35,35,,,,,,,,,,,,,,,,,,,,,,,183.81503450032324,185.07212390005589,185.07212390005589,185.07212390005589,185.07212390005589,185.07212390005589,185.07212390005589,185.07212390005589,185.07212390005589,None,0,,C:\2023\REPSWITCH21092023\REPSWITCH_excgange\REPSWITCH_excgange\data/360202_REPSWITCH1_version2_list2_2023-12-12_17h48.19.720_micRespv2l2_recorded\recording_micRespv2l2_2023-12-12_17h51.22.274.wav,188.09344780026004,188.59348020004109,None,188.09344780026004,188.09344780026004,188.09344780026004,188.09344780026004,188.09344780026004,188.09344780026004,,,,,,,360202,001,2023-12-12_17h48.19.720,REPSWITCH1_version2_list2,2022.2.4,143.92900283109668,
REPSWITCH1/PICTURE_30.png,granja,speak,darkblue,nontarget,2,NT,2,3,2,2,Stim5_Set2,1,repeat,37,36,37,0,36,36,36,,,,,,,,,,,,,,,,,,,,,,,188.59348020004109,189.68392380001023,189.68392380001023,189.68392380001023,189.68392380001023,189.68392380001023,189.68392380001023,189.68392380001023,189.68392380001023,None,0,,C:\2023\REPSWITCH21092023\REPSWITCH_excgange\REPSWITCH_excgange\data/360202_REPSWITCH1_version2_list2_2023-12-12_17h48.19.720_micRespv2l2_recorded\recording_micRespv2l2_2023-12-12_17h51.26.887.wav,192.71202970016748,,None,192.71202970016748,192.71202970016748,192.71202970016748,192.71202970016748,192.71202970016748,192.71202970016748,,,,,,,360202,001,2023-12-12_17h48.19.720,REPSWITCH1_version2_list2,2022.2.4,143.92900283109668,
REPSWITCH1/PICTURE_30.png,granja,type,gold,switch,1,T,2,3,2,2,Stim5_Set2,0,None,38,37,38,0,37,37,37,,,,,,,,,,,,,,,,,,,,,,,193.21217200020328,194.37194830039516,194.37194830039516,194.37194830039516,194.37194830039516,194.37194830039516,194.37194830039516,194.37194830039516,194.37194830039516,"['g', 'r', 'a', 'n', 'j', 'a']",0,granja,C:\2023\REPSWITCH21092023\REPSWITCH_excgange\REPSWITCH_excgange\data/360202_REPSWITCH1_version2_list2_2023-12-12_17h48.19.720_micRespv2l2_recorded\recording_micRespv2l2_2023-12-12_17h51.31.575.wav,197.3931806003675,197.89327650004998,None,197.3931806003675,197.3931806003675,197.3931806003675,197.3931806003675,197.3931806003675,197.3931806003675,"[0.9710142998956144, 1.1394031001254916, 1.3925820998847485, 2.2628426998853683, 2.518973700236529, 2.65779950004071]",,,,,,360202,001,2023-12-12_17h48.19.720,REPSWITCH1_version2_list2,2022.2.4,143.92900283109668,
REPSWITCH1/PICTURE_128.png,muñeca,type,gold,filler,1,F,2,3,2,2,Stim4_Set1,1,repeat,39,38,39,0,38,38,38,,,,,,,,,,,,,,,,,,,,,,,197.89327650004998,199.02534390008077,199.02534390008077,199.02534390008077,199.02534390008077,199.02534390008077,199.02534390008077,199.02534390008077,199.02534390008077,"['m', 'u', 'ñ', 'e', 'c', 'a']",0,muñeca,C:\2023\REPSWITCH21092023\REPSWITCH_excgange\REPSWITCH_excgange\data/360202_REPSWITCH1_version2_list2_2023-12-12_17h48.19.720_micRespv2l2_recorded\recording_micRespv2l2_2023-12-12_17h51.36.228.wav,202.04656710010022,202.54670649999753,None,202.04656710010022,202.04656710010022,202.04656710010022,202.04656710010022,202.04656710010022,202.04656710010022,"[1.0233081998303533, 1.239572400227189, 1.7007300998084247, 1.9423899999819696, 2.1865098997950554, 2.387046600226313]",,,,,,360202,001,2023-12-12_17h48.19.720,REPSWITCH1_version2_list2,2022.2.4,143.92900283109668,
REPSWITCH1/PICTURE_199.png,falda,type,gold,nontarget,1,NT,2,3,2,2,Stim8_Set2,0,None,40,39,40,0,39,39,39,,,,,,,,,,,,,,,,,,,,,,,202.54670649999753,203.65798840019852,203.65798840019852,203.65798840019852,203.65798840019852,203.65798840019852,203.65798840019852,203.65798840019852,203.65798840019852,"['f', 'a', 'l', 'd', 'a']",0,falda,C:\2023\REPSWITCH21092023\REPSWITCH_excgange\REPSWITCH_excgange\data/360202_REPSWITCH1_version2_list2_2023-12-12_17h48.19.720_micRespv2l2_recorded\recording_micRespv2l2_2023-12-12_17h51.40.861.wav,206.67912730015814,207.17920880019665,None,206.67912730015814,206.67912730015814,206.67912730015814,206.67912730015814,206.67912730015814,206.67912730015814,"[0.97411929955706, 1.1625963998958468, 1.4382327999919653, 1.6076923999935389, 1.83822779962793]",,,,,,360202,001,2023-12-12_17h48.19.720,REPSWITCH1_version2_list2,2022.2.4,143.92900283109668,
REPSWITCH1/PICTURE_199.png,falda,speak,darkblue,switch,2,T,2,3,2,2,Stim8_Set2,0,None,41,40,41,0,40,40,40,,,,,,,,,,,,,,,,,,,,,,,207.17920880019665,208.207098999992,208.207098999992,208.207098999992,208.207098999992,208.207098999992,208.207098999992,208.207098999992,208.207098999992,None,0,,C:\2023\REPSWITCH21092023\REPSWITCH_excgange\REPSWITCH_excgange\data/360202_REPSWITCH1_version2_list2_2023-12-12_17h48.19.720_micRespv2l2_recorded\recording_micRespv2l2_2023-12-12_17h51.45.411.wav,211.22834140015766,211.72837859997526,None,211.22834140015766,211.22834140015766,211.22834140015766,211.22834140015766,211.22834140015766,211.22834140015766,,,,,,,360202,001,2023-12-12_17h48.19.720,REPSWITCH1_version2_list2,2022.2.4,143.92900283109668,
REPSWITCH1/PICTURE_152.png,caracol,speak,darkblue,nontarget,2,NT,2,3,2,2,Stim2_Set2,1,switch,42,41,42,0,41,41,41,,,,,,,,,,,,,,,,,,,,,,,211.72837859997526,212.74937670025975,212.74937670025975,212.74937670025975,212.74937670025975,212.74937670025975,212.74937670025975,212.74937670025975,212.74937670025975,None,0,,C:\2023\REPSWITCH21092023\REPSWITCH_excgange\REPSWITCH_excgange\data/360202_REPSWITCH1_version2_list2_2023-12-12_17h48.19.720_micRespv2l2_recorded\recording_micRespv2l2_2023-12-12_17h51.49.953.wav,215.7706140000373,216.27068200008944,None,215.7706140000373,215.7706140000373,215.7706140000373,215.7706140000373,215.7706140000373,215.7706140000373,,,,,,,360202,001,2023-12-12_17h48.19.720,REPSWITCH1_version2_list2,2022.2.4,143.92900283109668,
REPSWITCH1/PICTURE_152.png,caracol,speak,darkblue,repeat,2,T,2,3,2,2,Stim2_Set2,0,None,43,42,43,0,42,42,42,,,,,,,,,,,,,,,,,,,,,,,216.27068200008944,217.3889455003664,217.3889455003664,217.3889455003664,217.3889455003664,217.3889455003664,217.3889455003664,217.3889455003664,217.3889455003664,None,0,,C:\2023\REPSWITCH21092023\REPSWITCH_excgange\REPSWITCH_excgange\data/360202_REPSWITCH1_version2_list2_2023-12-12_17h48.19.720_micRespv2l2_recorded\recording_micRespv2l2_2023-12-12_17h51.54.592.wav,220.4101690002717,220.91024470003322,None,220.4101690002717,220.4101690002717,220.4101690002717,220.4101690002717,220.4101690002717,220.4101690002717,,,,,,,360202,001,2023-12-12_17h48.19.720,REPSWITCH1_version2_list2,2022.2.4,143.92900283109668,
REPSWITCH1/PICTURE_381.png,fresa,type,gold,filler,1,F,2,3,2,2,Stim2_Set1,0,None,44,43,44,0,43,43,43,,,,,,,,,,,,,,,,,,,,,,,220.91024470003322,221.97287190007046,221.97287190007046,221.97287190007046,221.97287190007046,221.97287190007046,221.97287190007046,221.97287190007046,221.97287190007046,"['f', 'r', 'e', 's', 'a']",0,fresa,C:\2023\REPSWITCH21092023\REPSWITCH_excgange\REPSWITCH_excgange\data/360202_REPSWITCH1_version2_list2_2023-12-12_17h48.19.720_micRespv2l2_recorded\recording_micRespv2l2_2023-12-12_17h51.59.176.wav,224.99404120026156,225.49407610017806,None,224.99404120026156,224.99404120026156,224.99404120026156,224.99404120026156,224.99404120026156,224.99404120026156,"[0.9538595997728407, 1.560760600026697, 1.7421583998948336, 1.9504258995875716, 2.15176979964599]",,,,,,360202,001,2023-12-12_17h48.19.720,REPSWITCH1_version2_list2,2022.2.4,143.92900283109668,
REPSWITCH1/PICTURE_175.png,pintor,speak,darkblue,nontarget,2,NT,2,3,2,2,Stim1_Set2,1,switch,45,44,45,0,44,44,44,,,,,,,,,,,,,,,,,,,,,,,225.49407610017806,226.5845108004287,226.5845108004287,226.5845108004287,226.5845108004287,226.5845108004287,226.5845108004287,226.5845108004287,226.5845108004287,None,0,,C:\2023\REPSWITCH21092023\REPSWITCH_excgange\REPSWITCH_excgange\data/360202_REPSWITCH1_version2_list2_2023-12-12_17h48.19.720_micRespv2l2_recorded\recording_micRespv2l2_2023-12-12_17h52.03.787.wav,229.60575880017132,230.10582340043038,None,229.60575880017132,229.60575880017132,229.60575880017132,229.60575880017132,229.60575880017132,229.60575880017132,,,,,,,360202,001,2023-12-12_17h48.19.720,REPSWITCH1_version2_list2,2022.2.4,143.92900283109668,
REPSWITCH1/PICTURE_175.png,pintor,speak,darkblue,repeat,2,T,2,3,2,2,Stim1_Set2,0,None,46,45,46,0,45,45,45,,,,,,,,,,,,,,,,,,,,,,,230.10582340043038,231.13371810037643,231.13371810037643,231.13371810037643,231.13371810037643,231.13371810037643,231.13371810037643,231.13371810037643,231.13371810037643,None,0,,C:\2023\REPSWITCH21092023\REPSWITCH_excgange\REPSWITCH_excgange\data/360202_REPSWITCH1_version2_list2_2023-12-12_17h48.19.720_micRespv2l2_recorded\recording_micRespv2l2_2023-12-12_17h52.08.336.wav,234.1549997003749,234.65510180033743,None,234.1549997003749,234.1549997003749,234.1549997003749,234.1549997003749,234.1549997003749,234.1549997003749,,,,,,,360202,001,2023-12-12_17h48.19.720,REPSWITCH1_version2_list2,2022.2.4,143.92900283109668,
REPSWITCH1/PICTURE_178.png,puente,type,gold,filler,1,F,2,3,2,2,Stim1_Set1,0,None,47,46,47,0,46,46,46,,,,,,,,,,,,,,,,,,,,,,,234.65510180033743,235.72462870040908,235.72462870040908,235.72462870040908,235.72462870040908,235.72462870040908,235.72462870040908,235.72462870040908,235.72462870040908,"['p', 'u', 'e', 'n', 't', 'e']",0,puente,C:\2023\REPSWITCH21092023\REPSWITCH_excgange\REPSWITCH_excgange\data/360202_REPSWITCH1_version2_list2_2023-12-12_17h48.19.720_micRespv2l2_recorded\recording_micRespv2l2_2023-12-12_17h52.12.928.wav,238.75284900004044,,None,238.75284900004044,238.75284900004044,238.75284900004044,238.75284900004044,238.75284900004044,238.75284900004044,"[1.1178382001817226, 1.417915300000459, 1.6670734002254903, 1.8524946002289653, 2.0571852000430226, 2.201647700276226]",,,,,,360202,001,2023-12-12_17h48.19.720,REPSWITCH1_version2_list2,2022.2.4,143.92900283109668,
REPSWITCH1/PICTURE_19.png,pavo,speak,darkblue,filler,2,F,2,3,2,2,Stim5_Set1,0,None,48,47,48,0,47,47,47,,,,,,,,,,,,,,,,,,,,,,,239.25285840034485,240.26689550001174,240.26689550001174,240.26689550001174,240.26689550001174,240.26689550001174,240.26689550001174,240.26689550001174,240.26689550001174,None,0,,C:\2023\REPSWITCH21092023\REPSWITCH_excgange\REPSWITCH_excgange\data/360202_REPSWITCH1_version2_list2_2023-12-12_17h48.19.720_micRespv2l2_recorded\recording_micRespv2l2_2023-12-12_17h52.17.471.wav,243.2950948001817,,None,243.2950948001817,243.2950948001817,243.2950948001817,243.2950948001817,243.2950948001817,243.2950948001817,,,,,,,360202,001,2023-12-12_17h48.19.720,REPSWITCH1_version2_list2,2022.2.4,143.92900283109668,
REPSWITCH1/PICTURE_264.png,mano,speak,darkblue,nontarget,2,NT,2,3,2,2,Stim3_Set2,1,repeat,49,48,49,0,48,48,48,,,,,,,,,,,,,,,,,,,,,,,243.7951229000464,244.82996450038627,244.82996450038627,244.82996450038627,244.82996450038627,244.82996450038627,244.82996450038627,244.82996450038627,244.82996450038627,None,0,,C:\2023\REPSWITCH21092023\REPSWITCH_excgange\REPSWITCH_excgange\data/360202_REPSWITCH1_version2_list2_2023-12-12_17h48.19.720_micRespv2l2_recorded\recording_micRespv2l2_2023-12-12_17h52.22.032.wav,247.85121500026435,248.35134560009465,None,247.85121500026435,247.85121500026435,247.85121500026435,247.85121500026435,247.85121500026435,247.85121500026435,,,,,,,360202,001,2023-12-12_17h48.19.720,REPSWITCH1_version2_list2,2022.2.4,143.92900283109668,
REPSWITCH1/PICTURE_264.png,mano,type,gold,switch,1,T,2,3,2,2,Stim3_Set2,0,None,50,49,50,0,49,49,49,,,,,,,,,,,,,,,,,,,,,,,248.35134560009465,249.53201080020517,249.53201080020517,249.53201080020517,249.53201080020517,249.53201080020517,249.53201080020517,249.53201080020517,249.53201080020517,"['m', 'a', 'n', 'o']",0,mano,C:\2023\REPSWITCH21092023\REPSWITCH_excgange\REPSWITCH_excgange\data/360202_REPSWITCH1_version2_list2_2023-12-12_17h48.19.720_micRespv2l2_recorded\recording_micRespv2l2_2023-12-12_17h52.26.735.wav,252.56014910014346,,None,252.56014910014346,252.56014910014346,252.56014910014346,252.56014910014346,252.56014910014346,252.56014910014346,"[0.9035339998081326, 1.029113699682057, 1.117811099626124, 1.3150744000449777]",,,,,,360202,001,2023-12-12_17h48.19.720,REPSWITCH1_version2_list2,2022.2.4,143.92900283109668,
REPSWITCH1/PICTURE_446.png,cerdo,type,gold,filler,1,F,3,3,2,2,Stim7_Set2,0,None,51,50,51,0,50,50,50,,,,,,,,,,,,,,,,,,,,,,,253.060223700013,254.06735700042918,254.06735700042918,254.06735700042918,254.06735700042918,254.06735700042918,254.06735700042918,254.06735700042918,254.06735700042918,"['c', 'e', 'r', 'd', 'o']",0,cerdo,C:\2023\REPSWITCH21092023\REPSWITCH_excgange\REPSWITCH_excgange\data/360202_REPSWITCH1_version2_list2_2023-12-12_17h48.19.720_micRespv2l2_recorded\recording_micRespv2l2_2023-12-12_17h52.31.270.wav,257.08853730000556,257.5885562002659,space,257.08853730000556,257.08853730000556,257.08853730000556,257.08853730000556,257.08853730000556,257.08853730000556,"[1.0518984999507666, 1.164511799812317, 1.3628488997928798, 1.5840087998658419, 1.7145670000463724]",257.5885562002659,257.5885562002659,1.739290100056678,,,360202,001,2023-12-12_17h48.19.720,REPSWITCH1_version2_list2,2022.2.4,143.92900283109668,
REPSWITCH1/PICTURE_235.png,aguja,type,gold,nontarget,1,NT,3,3,2,2,Stim4_Set3,1,repeat,52,51,52,0,51,51,51,,,,,,,,,,,,,,,,,,,,,,,259.3388299001381,260.50567089999095,260.50567089999095,260.50567089999095,260.50567089999095,260.50567089999095,260.50567089999095,260.50567089999095,260.50567089999095,"['a', 'g', 'u', 'j', 'a']",0,aguja,C:\2023\REPSWITCH21092023\REPSWITCH_excgange\REPSWITCH_excgange\data/360202_REPSWITCH1_version2_list2_2023-12-12_17h48.19.720_micRespv2l2_recorded\recording_micRespv2l2_2023-12-12_17h52.37.708.wav,263.52690240042284,264.02693260041997,None,263.52690240042284,263.52690240042284,263.52690240042284,263.52690240042284,263.52690240042284,263.52690240042284,"[1.0108709000051022, 1.1606581998057663, 1.4278432996943593, 1.58741689985618, 1.7010833998210728]",,,,,,360202,001,2023-12-12_17h48.19.720,REPSWITCH1_version2_list2,2022.2.4,143.92900283109668,
REPSWITCH1/PICTURE_235.png,aguja,speak,darkblue,switch,2,T,3,3,2,2,Stim4_Set3,0,None,53,52,53,0,52,52,52,,,,,,,,,,,,,,,,,,,,,,,264.02693260041997,265.0826481003314,265.0826481003314,265.0826481003314,265.0826481003314,265.0826481003314,265.0826481003314,265.0826481003314,265.0826481003314,None,0,,C:\2023\REPSWITCH21092023\REPSWITCH_excgange\REPSWITCH_excgange\data/360202_REPSWITCH1_version2_list2_2023-12-12_17h48.19.720_micRespv2l2_recorded\recording_micRespv2l2_2023-12-12_17h52.42.285.wav,268.10383000038564,268.60395160038024,None,268.10383000038564,268.10383000038564,268.10383000038564,268.10383000038564,268.10383000038564,268.10383000038564,,,,,,,360202,001,2023-12-12_17h48.19.720,REPSWITCH1_version2_list2,2022.2.4,143.92900283109668,
REPSWITCH1/PICTURE_552.png,manzana,speak,darkblue,filler,2,F,3,3,2,2,Stim6_Set2,0,None,54,53,54,0,53,53,53,,,,,,,,,,,,,,,,,,,,,,,268.60395160038024,269.67353000026196,269.67353000026196,269.67353000026196,269.67353000026196,269.67353000026196,269.67353000026196,269.67353000026196,269.67353000026196,None,0,,C:\2023\REPSWITCH21092023\REPSWITCH_excgange\REPSWITCH_excgange\data/360202_REPSWITCH1_version2_list2_2023-12-12_17h48.19.720_micRespv2l2_recorded\recording_micRespv2l2_2023-12-12_17h52.46.876.wav,272.6947075002827,273.1948097003624,None,272.6947075002827,272.6947075002827,272.6947075002827,272.6947075002827,272.6947075002827,272.6947075002827,,,,,,,360202,001,2023-12-12_17h48.19.720,REPSWITCH1_version2_list2,2022.2.4,143.92900283109668,
REPSWITCH1/PICTURE_271.png,conejo,speak,darkblue,nontarget,2,NT,3,3,2,2,Stim7_Set3,1,repeat,55,54,55,0,54,54,54,,,,,,,,,,,,,,,,,,,,,,,273.1948097003624,274.2713489001617,274.2713489001617,274.2713489001617,274.2713489001617,274.2713489001617,274.2713489001617,274.2713489001617,274.2713489001617,None,0,,C:\2023\REPSWITCH21092023\REPSWITCH_excgange\REPSWITCH_excgange\data/360202_REPSWITCH1_version2_list2_2023-12-12_17h48.19.720_micRespv2l2_recorded\recording_micRespv2l2_2023-12-12_17h52.51.475.wav,277.2994939000346,277.79955630004406,None,277.2994939000346,277.2994939000346,277.2994939000346,277.2994939000346,277.2994939000346,277.2994939000346,,,,,,,360202,001,2023-12-12_17h48.19.720,REPSWITCH1_version2_list2,2022.2.4,143.92900283109668,
REPSWITCH1/PICTURE_271.png,conejo,type,gold,switch,1,T,3,3,2,2,Stim7_Set3,0,None,56,55,56,0,55,55,55,,,,,,,,,,,,,,,,,,,,,,,277.79955630004406,278.93859150027856,278.93859150027856,278.93859150027856,278.93859150027856,278.93859150027856,278.93859150027856,278.93859150027856,278.93859150027856,"['c', 'o', 'n', 'e', 'j', 'o']",0,conejo,C:\2023\REPSWITCH21092023\REPSWITCH_excgange\REPSWITCH_excgange\data/360202_REPSWITCH1_version2_list2_2023-12-12_17h48.19.720_micRespv2l2_recorded\recording_micRespv2l2_2023-12-12_17h52.56.141.wav,281.96678850008175,,None,281.96678850008175,281.96678850008175,281.96678850008175,281.96678850008175,281.96678850008175,281.96678850008175,"[1.035959200002253, 1.2661863998509943, 1.4765456998720765, 1.6110368999652565, 1.7146914997138083, 1.9090475998818874]",,,,,,360202,001,2023-12-12_17h48.19.720,REPSWITCH1_version2_list2,2022.2.4,143.92900283109668,
REPSWITCH1/PICTURE_610.png,miel,type,gold,nontarget,1,NT,3,3,2,2,Stim2_Set3,1,repeat,57,56,57,0,56,56,56,,,,,,,,,,,,,,,,,,,,,,,282.46685950038955,283.6058903001249,283.6058903001249,283.6058903001249,283.6058903001249,283.6058903001249,283.6058903001249,283.6058903001249,283.6058903001249,"['m', 'i', 'e', 'l']",0,miel,C:\2023\REPSWITCH21092023\REPSWITCH_excgange\REPSWITCH_excgange\data/360202_REPSWITCH1_version2_list2_2023-12-12_17h48.19.720_micRespv2l2_recorded\recording_micRespv2l2_2023-12-12_17h53.00.809.wav,286.627167200204,287.12726070033386,None,286.627167200204,286.627167200204,286.627167200204,286.627167200204,286.627167200204,286.627167200204,"[1.7471413998864591, 1.9424467999488115, 2.042489300016314, 2.1959942998364568]",,,,,,360202,001,2023-12-12_17h48.19.720,REPSWITCH1_version2_list2,2022.2.4,143.92900283109668,
REPSWITCH1/PICTURE_610.png,miel,speak,darkblue,switch,2,T,3,3,2,2,Stim2_Set3,0,None,58,57,58,0,57,57,57,,,,,,,,,,,,,,,,,,,,,,,287.12726070033386,288.2523511000909,288.2523511000909,288.2523511000909,288.2523511000909,288.2523511000909,288.2523511000909,288.2523511000909,288.2523511000909,None,0,,C:\2023\REPSWITCH21092023\REPSWITCH_excgange\REPSWITCH_excgange\data/360202_REPSWITCH1_version2_list2_2023-12-12_17h48.19.720_micRespv2l2_recorded\recording_micRespv2l2_2023-12-12_17h53.05.454.wav,291.2735502002761,291.773644100409,None,291.2735502002761,291.2735502002761,291.2735502002761,291.2735502002761,291.2735502002761,291.2735502002761,,,,,,,360202,001,2023-12-12_17h48.19.720,REPSWITCH1_version2_list2,2022.2.4,143.92900283109668,
REPSWITCH1/PICTURE_199.png,falda,type,gold,filler,1,F,3,3,2,2,Stim8_Set2,0,None,59,58,59,0,58,58,58,,,,,,,,,,,,,,,,,,,,,,,291.773644100409,292.85713999997824,292.85713999997824,292.85713999997824,292.85713999997824,292.85713999997824,292.85713999997824,292.85713999997824,292.85713999997824,"['f', 'a', 'l', 'd', 'a']",0,falda,C:\2023\REPSWITCH21092023\REPSWITCH_excgange\REPSWITCH_excgange\data/360202_REPSWITCH1_version2_list2_2023-12-12_17h48.19.720_micRespv2l2_recorded\recording_micRespv2l2_2023-12-12_17h53.10.060.wav,295.878384700045,296.3783674002625,None,295.878384700045,295.878384700045,295.878384700045,295.878384700045,295.878384700045,295.878384700045,"[1.075955900363624, 1.243358200415969, 1.5652854000218213, 1.7746087000705302, 1.965932700317353]",,,,,,360202,001,2023-12-12_17h48.19.720,REPSWITCH1_version2_list2,2022.2.4,143.92900283109668,
REPSWITCH1/PICTURE_464.png,goma,speak,darkblue,nontarget,2,NT,3,3,2,2,Stim6_Set3,1,switch,60,59,60,0,59,59,59,,,,,,,,,,,,,,,,,,,,,,,296.3783674002625,297.4896875000559,297.4896875000559,297.4896875000559,297.4896875000559,297.4896875000559,297.4896875000559,297.4896875000559,297.4896875000559,None,0,,C:\2023\REPSWITCH21092023\REPSWITCH_excgange\REPSWITCH_excgange\data/360202_REPSWITCH1_version2_list2_2023-12-12_17h48.19.720_micRespv2l2_recorded\recording_micRespv2l2_2023-12-12_17h53.14.693.wav,300.5179042001255,,None,300.5179042001255,300.5179042001255,300.5179042001255,300.5179042001255,300.5179042001255,300.5179042001255,,,,,,,360202,001,2023-12-12_17h48.19.720,REPSWITCH1_version2_list2,2022.2.4,143.92900283109668,
REPSWITCH1/PICTURE_464.png,goma,speak,darkblue,repeat,2,T,3,3,2,2,Stim6_Set3,0,None,61,60,61,0,60,60,60,,,,,,,,,,,,,,,,,,,,,,,301.0178646002896,302.05971920024604,302.05971920024604,302.05971920024604,302.05971920024604,302.05971920024604,302.05971920024604,302.05971920024604,302.05971920024604,None,0,,C:\2023\REPSWITCH21092023\REPSWITCH_excgange\REPSWITCH_excgange\data/360202_REPSWITCH1_version2_list2_2023-12-12_17h48.19.720_micRespv2l2_recorded\recording_micRespv2l2_2023-12-12_17h53.19.262.wav,305.0810038000345,305.5809875000268,None,305.0810038000345,305.0810038000345,305.0810038000345,305.0810038000345,305.0810038000345,305.0810038000345,,,,,,,360202,001,2023-12-12_17h48.19.720,REPSWITCH1_version2_list2,2022.2.4,143.92900283109668,
REPSWITCH1/PICTURE_152.png,caracol,type,gold,filler,1,F,3,3,2,2,Stim2_Set2,0,None,62,61,62,0,61,61,61,,,,,,,,,,,,,,,,,,,,,,,305.5809875000268,306.664477000013,306.664477000013,306.664477000013,306.664477000013,306.664477000013,306.664477000013,306.664477000013,306.664477000013,"['c', 'a', 'r', 'a', 'c', 'o', 'l']",0,caracol,C:\2023\REPSWITCH21092023\REPSWITCH_excgange\REPSWITCH_excgange\data/360202_REPSWITCH1_version2_list2_2023-12-12_17h48.19.720_micRespv2l2_recorded\recording_micRespv2l2_2023-12-12_17h53.23.867.wav,309.68569920025766,310.18577060010284,None,309.68569920025766,309.68569920025766,309.68569920025766,309.68569920025766,309.68569920025766,309.68569920025766,"[0.9382547000423074, 1.07874759985134, 1.1654252000153065, 1.300017800182104, 1.4196126000024378, 2.3846821999177337, 2.536521699745208]",,,,,,360202,001,2023-12-12_17h48.19.720,REPSWITCH1_version2_list2,2022.2.4,143.92900283109668,
REPSWITCH1/PICTURE_320.png,iglesia,speak,darkblue,nontarget,2,NT,3,3,2,2,Stim8_Set3,1,switch,63,62,63,0,62,62,62,,,,,,,,,,,,,,,,,,,,,,,310.18577060010284,311.2207027003169,311.2207027003169,311.2207027003169,311.2207027003169,311.2207027003169,311.2207027003169,311.2207027003169,311.2207027003169,None,0,,C:\2023\REPSWITCH21092023\REPSWITCH_excgange\REPSWITCH_excgange\data/360202_REPSWITCH1_version2_list2_2023-12-12_17h48.19.720_micRespv2l2_recorded\recording_micRespv2l2_2023-12-12_17h53.28.425.wav,314.24881020002067,,None,314.24881020002067,314.24881020002067,314.24881020002067,314.24881020002067,314.24881020002067,314.24881020002067,,,,,,,360202,001,2023-12-12_17h48.19.720,REPSWITCH1_version2_list2,2022.2.4,143.92900283109668,
REPSWITCH1/PICTURE_320.png,iglesia,speak,darkblue,repeat,2,T,3,3,2,2,Stim8_Set3,0,None,64,63,64,0,63,63,63,,,,,,,,,,,,,,,,,,,,,,,314.7488713003695,315.8601163001731,315.8601163001731,315.8601163001731,315.8601163001731,315.8601163001731,315.8601163001731,315.8601163001731,315.8601163001731,None,0,,C:\2023\REPSWITCH21092023\REPSWITCH_excgange\REPSWITCH_excgange\data/360202_REPSWITCH1_version2_list2_2023-12-12_17h48.19.720_micRespv2l2_recorded\recording_micRespv2l2_2023-12-12_17h53.33.064.wav,318.88828370021656,,None,318.88828370021656,318.88828370021656,318.88828370021656,318.88828370021656,318.88828370021656,318.88828370021656,,,,,,,360202,001,2023-12-12_17h48.19.720,REPSWITCH1_version2_list2,2022.2.4,143.92900283109668,
REPSWITCH1/PICTURE_35.png,oreja,speak,darkblue,nontarget,2,NT,3,3,2,2,Stim5_Set3,0,None,65,64,65,0,64,64,64,,,,,,,,,,,,,,,,,,,,,,,319.3883287999779,320.49266170011833,320.49266170011833,320.49266170011833,320.49266170011833,320.49266170011833,320.49266170011833,320.49266170011833,320.49266170011833,None,0,,C:\2023\REPSWITCH21092023\REPSWITCH_excgange\REPSWITCH_excgange\data/360202_REPSWITCH1_version2_list2_2023-12-12_17h48.19.720_micRespv2l2_recorded\recording_micRespv2l2_2023-12-12_17h53.37.695.wav,323.52087250025943,,None,323.52087250025943,323.52087250025943,323.52087250025943,323.52087250025943,323.52087250025943,323.52087250025943,,,,,,,360202,001,2023-12-12_17h48.19.720,REPSWITCH1_version2_list2,2022.2.4,143.92900283109668,
REPSWITCH1/PICTURE_35.png,oreja,type,gold,switch,1,T,3,3,2,2,Stim5_Set3,0,None,66,65,66,0,65,65,65,,,,,,,,,,,,,,,,,,,,,,,324.02095160027966,325.0696572000161,325.0696572000161,325.0696572000161,325.0696572000161,325.0696572000161,325.0696572000161,325.0696572000161,325.0696572000161,"['o', 'r', 'e', 'j', 'a']",0,oreja,C:\2023\REPSWITCH21092023\REPSWITCH_excgange\REPSWITCH_excgange\data/360202_REPSWITCH1_version2_list2_2023-12-12_17h48.19.720_micRespv2l2_recorded\recording_micRespv2l2_2023-12-12_17h53.42.272.wav,328.09786210022867,,None,328.09786210022867,328.09786210022867,328.09786210022867,328.09786210022867,328.09786210022867,328.09786210022867,"[1.0819589998573065, 1.2928193002007902, 1.484199000056833, 1.6029763999395072, 1.7166561000049114]",,,,,,360202,001,2023-12-12_17h48.19.720,REPSWITCH1_version2_list2,2022.2.4,143.92900283109668,
REPSWITCH1/PICTURE_517.png,cuerda,speak,darkblue,filler,2,F,3,3,2,2,Stim4_Set2,0,None,67,66,67,0,66,66,66,,,,,,,,,,,,,,,,,,,,,,,328.5979152000509,329.7717344001867,329.7717344001867,329.7717344001867,329.7717344001867,329.7717344001867,329.7717344001867,329.7717344001867,329.7717344001867,None,0,,C:\2023\REPSWITCH21092023\REPSWITCH_excgange\REPSWITCH_excgange\data/360202_REPSWITCH1_version2_list2_2023-12-12_17h48.19.720_micRespv2l2_recorded\recording_micRespv2l2_2023-12-12_17h53.46.975.wav,332.79985080007464,,None,332.79985080007464,332.79985080007464,332.79985080007464,332.79985080007464,332.79985080007464,332.79985080007464,,,,,,,360202,001,2023-12-12_17h48.19.720,REPSWITCH1_version2_list2,2022.2.4,143.92900283109668,
REPSWITCH1/PICTURE_30.png,granja,type,gold,filler,1,F,3,3,2,2,Stim5_Set2,1,switch,68,67,68,0,67,67,67,,,,,,,,,,,,,,,,,,,,,,,333.2999149002135,334.46679220022634,334.46679220022634,334.46679220022634,334.46679220022634,334.46679220022634,334.46679220022634,334.46679220022634,334.46679220022634,"['g', 'r', 'a', 'n', 'k', 'a']",0,grank,C:\2023\REPSWITCH21092023\REPSWITCH_excgange\REPSWITCH_excgange\data/360202_REPSWITCH1_version2_list2_2023-12-12_17h48.19.720_micRespv2l2_recorded\recording_micRespv2l2_2023-12-12_17h53.51.669.wav,337.4949453002773,,None,337.4949453002773,337.4949453002773,337.4949453002773,337.4949453002773,337.4949453002773,337.4949453002773,"[1.1960108997300267, 1.3339669997803867, 1.4855595999397337, 1.7936740997247398, 2.0938944998197258, 2.2506400998681784, 2.9849522998556495]",,,,,,360202,001,2023-12-12_17h48.19.720,REPSWITCH1_version2_list2,2022.2.4,143.92900283109668,
REPSWITCH1/PICTURE_242.png,cartero,type,gold,nontarget,1,NT,3,3,2,2,Stim3_Set3,0,None,69,68,69,0,68,68,68,,,,,,,,,,,,,,,,,,,,,,,337.9950473001227,339.08540780004114,339.08540780004114,339.08540780004114,339.08540780004114,339.08540780004114,339.08540780004114,339.08540780004114,339.08540780004114,"['c', 'a', 'r', 't', 'e', 'r', 'r', 'o']",0,carterro,C:\2023\REPSWITCH21092023\REPSWITCH_excgange\REPSWITCH_excgange\data/360202_REPSWITCH1_version2_list2_2023-12-12_17h48.19.720_micRespv2l2_recorded\recording_micRespv2l2_2023-12-12_17h53.56.289.wav,342.11355600040406,,None,342.11355600040406,342.11355600040406,342.11355600040406,342.11355600040406,342.11355600040406,342.11355600040406,"[0.9052169001661241, 1.000854799989611, 1.1067894999869168, 1.257460200227797, 1.3441812000237405, 1.4638987998478115, 1.5961970002390444, 2.458889199886471]",,,,,,360202,001,2023-12-12_17h48.19.720,REPSWITCH1_version2_list2,2022.2.4,143.92900283109668,
REPSWITCH1/PICTURE_242.png,cartero,type,gold,repeat,1,T,3,3,2,2,Stim3_Set3,0,None,70,69,70,0,69,69,69,,,,,,,,,,,,,,,,,,,,,,,342.61363030038774,343.74575010035187,343.74575010035187,343.74575010035187,343.74575010035187,343.74575010035187,343.74575010035187,343.74575010035187,343.74575010035187,"['c', 'a', 'r', 't', 'e', 'r', 'o']",0,cartero,C:\2023\REPSWITCH21092023\REPSWITCH_excgange\REPSWITCH_excgange\data/360202_REPSWITCH1_version2_list2_2023-12-12_17h48.19.720_micRespv2l2_recorded\recording_micRespv2l2_2023-12-12_17h54.00.949.wav,346.77397020021453,,None,346.77397020021453,346.77397020021453,346.77397020021453,346.77397020021453,346.77397020021453,346.77397020021453,"[0.8530424004420638, 0.9765951000154018, 1.0723324003629386, 1.2166555002331734, 1.3230998003855348, 1.4907277002930641, 1.6834090002812445]",,,,,,360202,001,2023-12-12_17h48.19.720,REPSWITCH1_version2_list2,2022.2.4,143.92900283109668,
REPSWITCH1/PICTURE_264.png,mano,speak,darkblue,filler,2,F,3,3,2,2,Stim3_Set2,1,switch,71,70,71,0,70,70,70,,,,,,,,,,,,,,,,,,,,,,,347.273981500417,348.4477177001536,348.4477177001536,348.4477177001536,348.4477177001536,348.4477177001536,348.4477177001536,348.4477177001536,348.4477177001536,"['m', 'a', 'n', 'o', 'backspace', 'backspace', 'backspace']",0,m,C:\2023\REPSWITCH21092023\REPSWITCH_excgange\REPSWITCH_excgange\data/360202_REPSWITCH1_version2_list2_2023-12-12_17h48.19.720_micRespv2l2_recorded\recording_micRespv2l2_2023-12-12_17h54.05.651.wav,351.47589830029756,,None,351.47589830029756,351.47589830029756,351.47589830029756,351.47589830029756,351.47589830029756,351.47589830029756,"[0.8688003001734614, 0.9926769002340734, 1.070365000050515, 1.274901700206101, 2.021243500057608, 2.309040800202638, 2.822271800134331]",,,,,,360202,001,2023-12-12_17h48.19.720,REPSWITCH1_version2_list2,2022.2.4,143.92900283109668,
REPSWITCH1/PICTURE_576.png,guante,type,gold,nontarget,1,NT,3,3,2,2,Stim1_Set3,1,switch,72,71,72,0,71,71,71,,,,,,,,,,,,,,,,,,,,,,,351.97598290024325,353.03165140002966,353.03165140002966,353.03165140002966,353.03165140002966,353.03165140002966,353.03165140002966,353.03165140002966,353.03165140002966,"['g', 'f', 'u']",0,gfu,C:\2023\REPSWITCH21092023\REPSWITCH_excgange\REPSWITCH_excgange\data/360202_REPSWITCH1_version2_list2_2023-12-12_17h48.19.720_micRespv2l2_recorded\recording_micRespv2l2_2023-12-12_17h54.10.235.wav,356.05984130036086,,None,356.05984130036086,356.05984130036086,356.05984130036086,356.05984130036086,356.05984130036086,356.05984130036086,"[1.684092199895531, 1.6980411000549793, 2.190003300085664]",,,,,,360202,001,2023-12-12_17h48.19.720,REPSWITCH1_version2_list2,2022.2.4,143.92900283109668,
REPSWITCH1/PICTURE_576.png,guante,type,gold,repeat,1,T,3,3,2,2,Stim1_Set3,0,None,73,72,73,0,72,72,72,,,,,,,,,,,,,,,,,,,,,,,356.55998600041494,357.6851105000824,357.6851105000824,357.6851105000824,357.6851105000824,357.6851105000824,357.6851105000824,357.6851105000824,357.6851105000824,"['g', 'u', 'a', 'n', 't', 'e']",0,guante,C:\2023\REPSWITCH21092023\REPSWITCH_excgange\REPSWITCH_excgange\data/360202_REPSWITCH1_version2_list2_2023-12-12_17h48.19.720_micRespv2l2_recorded\recording_micRespv2l2_2023-12-12_17h54.14.889.wav,360.7062536003068,361.2063325000927,None,360.7062536003068,360.7062536003068,360.7062536003068,360.7062536003068,360.7062536003068,360.7062536003068,"[1.0832155998796225, 1.2435677996836603, 1.4115019999444485, 1.489230299834162, 1.680645799729973, 1.7662567999213934]",,,,,,360202,001,2023-12-12_17h48.19.720,REPSWITCH1_version2_list2,2022.2.4,143.92900283109668,
REPSWITCH1/PICTURE_175.png,pintor,speak,darkblue,filler,2,F,3,3,2,2,Stim1_Set2,0,None,74,73,74,0,73,73,73,,,,,,,,,,,,,,,,,,,,,,,361.2063325000927,362.33843200001866,362.33843200001866,362.33843200001866,362.33843200001866,362.33843200001866,362.33843200001866,362.33843200001866,362.33843200001866,None,0,,C:\2023\REPSWITCH21092023\REPSWITCH_excgange\REPSWITCH_excgange\data/360202_REPSWITCH1_version2_list2_2023-12-12_17h48.19.720_micRespv2l2_recorded\recording_micRespv2l2_2023-12-12_17h54.19.541.wav,365.3597219004296,365.8598220003769,None,365.3597219004296,365.3597219004296,365.3597219004296,365.3597219004296,365.3597219004296,365.3597219004296,,,,,,,360202,001,2023-12-12_17h48.19.720,REPSWITCH1_version2_list2,2022.2.4,143.92900283109668,
REPSWITCH1/PICTURE_498.png,taza,type,gold,nontarget,1,NT,4,3,2,2,Stim4_Set4,0,None,75,74,75,0,74,74,74,,,,,,,,,,,,,,,,,,,,,,,365.8598220003769,366.9293113001622,366.9293113001622,366.9293113001622,366.9293113001622,366.9293113001622,366.9293113001622,366.9293113001622,366.9293113001622,"['t', 'a', 'z', 'a']",0,taza,C:\2023\REPSWITCH21092023\REPSWITCH_excgange\REPSWITCH_excgange\data/360202_REPSWITCH1_version2_list2_2023-12-12_17h48.19.720_micRespv2l2_recorded\recording_micRespv2l2_2023-12-12_17h54.24.132.wav,369.95060570025817,370.4506210000254,None,369.95060570025817,369.95060570025817,369.95060570025817,369.95060570025817,369.95060570025817,369.95060570025817,"[0.9829724999144673, 1.0911262999288738, 1.3027265998534858, 1.4611963001079857]",,,,,,360202,001,2023-12-12_17h48.19.720,REPSWITCH1_version2_list2,2022.2.4,143.92900283109668,
REPSWITCH1/PICTURE_498.png,taza,type,gold,repeat,1,T,4,3,2,2,Stim4_Set4,0,None,76,75,76,0,75,75,75,,,,,,,,,,,,,,,,,,,,,,,370.4506210000254,371.52026500040665,371.52026500040665,371.52026500040665,371.52026500040665,371.52026500040665,371.52026500040665,371.52026500040665,371.52026500040665,"['t', 'a', 'z', 'a']",0,taza,C:\2023\REPSWITCH21092023\REPSWITCH_excgange\REPSWITCH_excgange\data/360202_REPSWITCH1_version2_list2_2023-12-12_17h48.19.720_micRespv2l2_recorded\recording_micRespv2l2_2023-12-12_17h54.28.723.wav,374.54835609998554,,None,374.54835609998554,374.54835609998554,374.54835609998554,374.54835609998554,374.54835609998554,374.54835609998554,"[0.8570123999379575, 0.9626468000933528, 1.140416800044477, 1.361908399965614]",,,,,,360202,001,2023-12-12_17h48.19.720,REPSWITCH1_version2_list2,2022.2.4,143.92900283109668,
REPSWITCH1/PICTURE_235.png,aguja,speak,darkblue,filler,2,F,4,3,2,2,Stim4_Set3,0,None,77,76,77,0,76,76,76,,,,,,,,,,,,,,,,,,,,,,,375.0484220003709,376.2777886004187,376.2777886004187,376.2777886004187,376.2777886004187,376.2777886004187,376.2777886004187,376.2777886004187,376.2777886004187,None,0,,C:\2023\REPSWITCH21092023\REPSWITCH_excgange\REPSWITCH_excgange\data/360202_REPSWITCH1_version2_list2_2023-12-12_17h48.19.720_micRespv2l2_recorded\recording_micRespv2l2_2023-12-12_17h54.33.480.wav,379.2990453001112,379.79907130030915,None,379.2990453001112,379.2990453001112,379.2990453001112,379.2990453001112,379.2990453001112,379.2990453001112,,,,,,,360202,001,2023-12-12_17h48.19.720,REPSWITCH1_version2_list2,2022.2.4,143.92900283109668,
REPSWITCH1/PICTURE_338.png,regalo,type,gold,nontarget,1,NT,4,3,2,2,Stim6_Set4,1,switch,78,77,78,0,77,77,77,,,,,,,,,,,,,,,,,,,,,,,379.79907130030915,380.9242409002036,380.9242409002036,380.9242409002036,380.9242409002036,380.9242409002036,380.9242409002036,380.9242409002036,380.9242409002036,"['r', 'e', 'g', 'a', 'l', 'o']",0,regalo,C:\2023\REPSWITCH21092023\REPSWITCH_excgange\REPSWITCH_excgange\data/360202_REPSWITCH1_version2_list2_2023-12-12_17h48.19.720_micRespv2l2_recorded\recording_micRespv2l2_2023-12-12_17h54.38.127.wav,383.9524415000342,,None,383.9524415000342,383.9524415000342,383.9524415000342,383.9524415000342,383.9524415000342,383.9524415000342,"[0.9504463998600841, 1.0650865999050438, 1.1880534999072552, 1.3209716002456844, 1.566191100049764, 2.2079986999742687]",,,,,,360202,001,2023-12-12_17h48.19.720,REPSWITCH1_version2_list2,2022.2.4,143.92900283109668,
REPSWITCH1/PICTURE_338.png,regalo,speak,darkblue,switch,2,T,4,3,2,2,Stim6_Set4,0,None,79,78,79,0,78,78,78,,,,,,,,,,,,,,,,,,,,,,,384.452435400337,385.6331859002821,385.6331859002821,385.6331859002821,385.6331859002821,385.6331859002821,385.6331859002821,385.6331859002821,385.6331859002821,None,0,,C:\2023\REPSWITCH21092023\REPSWITCH_excgange\REPSWITCH_excgange\data/360202_REPSWITCH1_version2_list2_2023-12-12_17h48.19.720_micRespv2l2_recorded\recording_micRespv2l2_2023-12-12_17h54.42.836.wav,388.66138160042465,,None,388.66138160042465,388.66138160042465,388.66138160042465,388.66138160042465,388.66138160042465,388.66138160042465,,,,,,,360202,001,2023-12-12_17h48.19.720,REPSWITCH1_version2_list2,2022.2.4,143.92900283109668,
REPSWITCH1/PICTURE_719.png,baño,speak,darkblue,nontarget,2,NT,4,3,2,2,Stim2_Set4,1,repeat,80,79,80,0,79,79,79,,,,,,,,,,,,,,,,,,,,,,,389.16137280035764,390.1962786000222,390.1962786000222,390.1962786000222,390.1962786000222,390.1962786000222,390.1962786000222,390.1962786000222,390.1962786000222,None,0,,C:\2023\REPSWITCH21092023\REPSWITCH_excgange\REPSWITCH_excgange\data/360202_REPSWITCH1_version2_list2_2023-12-12_17h48.19.720_micRespv2l2_recorded\recording_micRespv2l2_2023-12-12_17h54.47.398.wav,393.2175508001819,393.7176303002052,None,393.2175508001819,393.2175508001819,393.2175508001819,393.2175508001819,393.2175508001819,393.2175508001819,,,,,,,360202,001,2023-12-12_17h48.19.720,REPSWITCH1_version2_list2,2022.2.4,143.92900283109668,
REPSWITCH1/PICTURE_719.png,baño,speak,darkblue,repeat,2,T,4,3,2,2,Stim2_Set4,0,None,81,80,81,0,80,80,80,,,,,,,,,,,,,,,,,,,,,,,393.7176303002052,394.8843991002068,394.8843991002068,394.8843991002068,394.8843991002068,394.8843991002068,394.8843991002068,394.8843991002068,394.8843991002068,None,0,,C:\2023\REPSWITCH21092023\REPSWITCH_excgange\REPSWITCH_excgange\data/360202_REPSWITCH1_version2_list2_2023-12-12_17h48.19.720_micRespv2l2_recorded\recording_micRespv2l2_2023-12-12_17h54.52.087.wav,397.90561790019274,398.405678300187,None,397.90561790019274,397.90561790019274,397.90561790019274,397.90561790019274,397.90561790019274,397.90561790019274,,,,,,,360202,001,2023-12-12_17h48.19.720,REPSWITCH1_version2_list2,2022.2.4,143.92900283109668,
REPSWITCH1/PICTURE_271.png,conejo,type,gold,filler,1,F,4,3,2,2,Stim7_Set3,0,None,82,81,82,0,81,81,81,,,,,,,,,,,,,,,,,,,,,,,398.405678300187,399.54478960018605,399.54478960018605,399.54478960018605,399.54478960018605,399.54478960018605,399.54478960018605,399.54478960018605,399.54478960018605,"['c', 'o', 'n', 'e', 'j', 'o']",0,conejo,C:\2023\REPSWITCH21092023\REPSWITCH_excgange\REPSWITCH_excgange\data/360202_REPSWITCH1_version2_list2_2023-12-12_17h48.19.720_micRespv2l2_recorded\recording_micRespv2l2_2023-12-12_17h54.56.748.wav,402.572901500389,,None,402.572901500389,402.572901500389,402.572901500389,402.572901500389,402.572901500389,402.572901500389,"[0.9835049998946488, 1.2599123995751143, 1.5090710995718837, 1.679468599613756, 1.8502431996166706, 2.0389263997785747]",,,,,,360202,001,2023-12-12_17h48.19.720,REPSWITCH1_version2_list2,2022.2.4,143.92900283109668,
REPSWITCH1/PICTURE_610.png,miel,speak,darkblue,filler,2,F,4,3,2,2,Stim2_Set3,0,None,83,82,83,0,82,82,82,,,,,,,,,,,,,,,,,,,,,,,403.07296040002257,404.1355786002241,404.1355786002241,404.1355786002241,404.1355786002241,404.1355786002241,404.1355786002241,404.1355786002241,404.1355786002241,None,0,,C:\2023\REPSWITCH21092023\REPSWITCH_excgange\REPSWITCH_excgange\data/360202_REPSWITCH1_version2_list2_2023-12-12_17h48.19.720_micRespv2l2_recorded\recording_micRespv2l2_2023-12-12_17h55.01.339.wav,407.1638178001158,,None,407.1638178001158,407.1638178001158,407.1638178001158,407.1638178001158,407.1638178001158,407.1638178001158,,,,,,,360202,001,2023-12-12_17h48.19.720,REPSWITCH1_version2_list2,2022.2.4,143.92900283109668,
REPSWITCH1/PICTURE_687.png,camisa,speak,darkblue,nontarget,2,NT,4,3,2,2,Stim5_Set4,1,repeat,84,83,84,0,83,83,83,,,,,,,,,,,,,,,,,,,,,,,407.6638272004202,408.7889754003845,408.7889754003845,408.7889754003845,408.7889754003845,408.7889754003845,408.7889754003845,408.7889754003845,408.7889754003845,None,0,,C:\2023\REPSWITCH21092023\REPSWITCH_excgange\REPSWITCH_excgange\data/360202_REPSWITCH1_version2_list2_2023-12-12_17h48.19.720_micRespv2l2_recorded\recording_micRespv2l2_2023-12-12_17h55.05.992.wav,411.8172234003432,,None,411.8172234003432,411.8172234003432,411.8172234003432,411.8172234003432,411.8172234003432,411.8172234003432,,,,,,,360202,001,2023-12-12_17h48.19.720,REPSWITCH1_version2_list2,2022.2.4,143.92900283109668,
REPSWITCH1/PICTURE_687.png,camisa,type,gold,switch,1,T,4,3,2,2,Stim5_Set4,0,None,85,84,85,0,84,84,84,,,,,,,,,,,,,,,,,,,,,,,412.3172283000313,413.4910303000361,413.4910303000361,413.4910303000361,413.4910303000361,413.4910303000361,413.4910303000361,413.4910303000361,413.4910303000361,"['c', 'a', 'm', 'i', 's', 'a']",0,camisa,C:\2023\REPSWITCH21092023\REPSWITCH_excgange\REPSWITCH_excgange\data/360202_REPSWITCH1_version2_list2_2023-12-12_17h48.19.720_micRespv2l2_recorded\recording_micRespv2l2_2023-12-12_17h55.10.694.wav,416.51915580034256,,None,416.51915580034256,416.51915580034256,416.51915580034256,416.51915580034256,416.51915580034256,416.51915580034256,"[1.0612343000248075, 1.1738122999668121, 1.5949201001785696, 1.750262700021267, 1.8330773999914527, 2.00539859989658]",,,,,,360202,001,2023-12-12_17h48.19.720,REPSWITCH1_version2_list2,2022.2.4,143.92900283109668,
REPSWITCH1/PICTURE_319.png,vaca,type,gold,nontarget,1,NT,4,3,2,2,Stim1_Set4,0,None,86,85,86,0,85,85,85,,,,,,,,,,,,,,,,,,,,,,,417.01922100037336,418.22774740029126,418.22774740029126,418.22774740029126,418.22774740029126,418.22774740029126,418.22774740029126,418.22774740029126,418.22774740029126,"['v', 'a', 'c', 'a']",0,vaca,C:\2023\REPSWITCH21092023\REPSWITCH_excgange\REPSWITCH_excgange\data/360202_REPSWITCH1_version2_list2_2023-12-12_17h48.19.720_micRespv2l2_recorded\recording_micRespv2l2_2023-12-12_17h55.15.430.wav,421.2489907001145,421.749032900203,None,421.2489907001145,421.2489907001145,421.2489907001145,421.2489907001145,421.2489907001145,421.2489907001145,"[0.9226454999297857, 1.0442361999303102, 1.1458990001119673, 1.2378765000030398]",,,,,,360202,001,2023-12-12_17h48.19.720,REPSWITCH1_version2_list2,2022.2.4,143.92900283109668,
REPSWITCH1/PICTURE_319.png,vaca,speak,darkblue,switch,2,T,4,3,2,2,Stim1_Set4,0,None,87,86,87,0,86,86,86,,,,,,,,,,,,,,,,,,,,,,,421.749032900203,422.8603329001926,422.8603329001926,422.8603329001926,422.8603329001926,422.8603329001926,422.8603329001926,422.8603329001926,422.8603329001926,None,0,,C:\2023\REPSWITCH21092023\REPSWITCH_excgange\REPSWITCH_excgange\data/360202_REPSWITCH1_version2_list2_2023-12-12_17h48.19.720_micRespv2l2_recorded\recording_micRespv2l2_2023-12-12_17h55.20.063.wav,425.88148560002446,426.381535500288,None,425.88148560002446,425.88148560002446,425.88148560002446,425.88148560002446,425.88148560002446,425.88148560002446,,,,,,,360202,001,2023-12-12_17h48.19.720,REPSWITCH1_version2_list2,2022.2.4,143.92900283109668,
REPSWITCH1/PICTURE_464.png,goma,type,gold,filler,1,F,4,3,2,2,Stim6_Set3,1,switch,88,87,88,0,87,87,87,,,,,,,,,,,,,,,,,,,,,,,426.381535500288,427.41644369997084,427.41644369997084,427.41644369997084,427.41644369997084,427.41644369997084,427.41644369997084,427.41644369997084,427.41644369997084,"['g', 'o', 'm', 'a']",0,goma,C:\2023\REPSWITCH21092023\REPSWITCH_excgange\REPSWITCH_excgange\data/360202_REPSWITCH1_version2_list2_2023-12-12_17h48.19.720_micRespv2l2_recorded\recording_micRespv2l2_2023-12-12_17h55.24.619.wav,430.4377125003375,430.93771830014884,None,430.4377125003375,430.4377125003375,430.4377125003375,430.4377125003375,430.4377125003375,430.4377125003375,"[1.0396285997703671, 1.1951564997434616, 1.391493999864906, 1.507119500078261]",,,,,,360202,001,2023-12-12_17h48.19.720,REPSWITCH1_version2_list2,2022.2.4,143.92900283109668,
REPSWITCH1/PICTURE_728.png,pulpo,speak,darkblue,nontarget,2,NT,4,3,2,2,Stim8_Set4,1,switch,89,88,89,0,88,88,88,,,,,,,,,,,,,,,,,,,,,,,430.93771830014884,432.0976998000406,432.0976998000406,432.0976998000406,432.0976998000406,432.0976998000406,432.0976998000406,432.0976998000406,432.0976998000406,None,0,,C:\2023\REPSWITCH21092023\REPSWITCH_excgange\REPSWITCH_excgange\data/360202_REPSWITCH1_version2_list2_2023-12-12_17h48.19.720_micRespv2l2_recorded\recording_micRespv2l2_2023-12-12_17h55.29.301.wav,435.1257828003727,435.6258368003182,None,435.1257828003727,435.1257828003727,435.1257828003727,435.1257828003727,435.1257828003727,435.1257828003727,,,,,,,360202,001,2023-12-12_17h48.19.720,REPSWITCH1_version2_list2,2022.2.4,143.92900283109668,
REPSWITCH1/PICTURE_728.png,pulpo,speak,darkblue,repeat,2,T,4,3,2,2,Stim8_Set4,0,None,90,89,90,0,89,89,89,,,,,,,,,,,,,,,,,,,,,,,435.6258368003182,436.63298700004816,436.63298700004816,436.63298700004816,436.63298700004816,436.63298700004816,436.63298700004816,436.63298700004816,436.63298700004816,None,0,,C:\2023\REPSWITCH21092023\REPSWITCH_excgange\REPSWITCH_excgange\data/360202_REPSWITCH1_version2_list2_2023-12-12_17h48.19.720_micRespv2l2_recorded\recording_micRespv2l2_2023-12-12_17h55.33.836.wav,439.6611209004186,440.1611227001995,None,439.6611209004186,439.6611209004186,439.6611209004186,439.6611209004186,439.6611209004186,439.6611209004186,,,,,,,360202,001,2023-12-12_17h48.19.720,REPSWITCH1_version2_list2,2022.2.4,143.92900283109668,
REPSWITCH1/PICTURE_320.png,iglesia,type,gold,filler,1,F,4,3,2,2,Stim8_Set3,0,None,91,90,91,0,90,90,90,,,,,,,,,,,,,,,,,,,,,,,440.1611227001995,441.18211670033634,441.18211670033634,441.18211670033634,441.18211670033634,441.18211670033634,441.18211670033634,441.18211670033634,441.18211670033634,"['i', 'g', 'l', 'e', 's', 'i', 'a']",0,iglesia,C:\2023\REPSWITCH21092023\REPSWITCH_excgange\REPSWITCH_excgange\data/360202_REPSWITCH1_version2_list2_2023-12-12_17h48.19.720_micRespv2l2_recorded\recording_micRespv2l2_2023-12-12_17h55.38.384.wav,444.2033354002051,444.70339530007914,None,444.2033354002051,444.2033354002051,444.2033354002051,444.2033354002051,444.2033354002051,444.2033354002051,"[0.9538886998780072, 1.6107924999669194, 1.8171745999716222, 1.9619714003056288, 2.180185900069773, 2.2825978002510965, 2.4164463002234697]",,,,,,360202,001,2023-12-12_17h48.19.720,REPSWITCH1_version2_list2,2022.2.4,143.92900283109668,
REPSWITCH1/PICTURE_576.png,guante,speak,darkblue,filler,2,F,4,3,2,2,Stim1_Set3,0,None,92,91,92,0,91,91,91,,,,,,,,,,,,,,,,,,,,,,,444.70339530007914,445.7938218000345,445.7938218000345,445.7938218000345,445.7938218000345,445.7938218000345,445.7938218000345,445.7938218000345,445.7938218000345,None,0,,C:\2023\REPSWITCH21092023\REPSWITCH_excgange\REPSWITCH_excgange\data/360202_REPSWITCH1_version2_list2_2023-12-12_17h48.19.720_micRespv2l2_recorded\recording_micRespv2l2_2023-12-12_17h55.42.996.wav,448.81503820000216,449.3151267999783,None,448.81503820000216,448.81503820000216,448.81503820000216,448.81503820000216,448.81503820000216,448.81503820000216,,,,,,,360202,001,2023-12-12_17h48.19.720,REPSWITCH1_version2_list2,2022.2.4,143.92900283109668,
REPSWITCH1/PICTURE_8.png,pierna,speak,darkblue,nontarget,2,NT,4,3,2,2,Stim3_Set4,1,repeat,93,92,93,0,92,92,92,,,,,,,,,,,,,,,,,,,,,,,449.3151267999783,450.41249090014026,450.41249090014026,450.41249090014026,450.41249090014026,450.41249090014026,450.41249090014026,450.41249090014026,450.41249090014026,None,0,,C:\2023\REPSWITCH21092023\REPSWITCH_excgange\REPSWITCH_excgange\data/360202_REPSWITCH1_version2_list2_2023-12-12_17h48.19.720_micRespv2l2_recorded\recording_micRespv2l2_2023-12-12_17h55.47.614.wav,453.43373750010505,453.9338728999719,None,453.43373750010505,453.43373750010505,453.43373750010505,453.43373750010505,453.43373750010505,453.43373750010505,,,,,,,360202,001,2023-12-12_17h48.19.720,REPSWITCH1_version2_list2,2022.2.4,143.92900283109668,
REPSWITCH1/PICTURE_8.png,pierna,type,gold,switch,1,T,4,3,2,2,Stim3_Set4,0,None,94,93,94,0,93,93,93,,,,,,,,,,,,,,,,,,,,,,,453.9338728999719,455.1214687000029,455.1214687000029,455.1214687000029,455.1214687000029,455.1214687000029,455.1214687000029,455.1214687000029,455.1214687000029,"['p', 'i', 'e', 'r', 'n', 'a']",0,pierna,C:\2023\REPSWITCH21092023\REPSWITCH_excgange\REPSWITCH_excgange\data/360202_REPSWITCH1_version2_list2_2023-12-12_17h48.19.720_micRespv2l2_recorded\recording_micRespv2l2_2023-12-12_17h55.52.324.wav,458.14268730022013,458.6427536001429,None,458.14268730022013,458.14268730022013,458.14268730022013,458.14268730022013,458.14268730022013,458.14268730022013,"[1.0430542998947203, 1.3629430001601577, 1.5428065001033247, 1.7298190998844802, 1.8543643997982144, 1.9829011000692844]",,,,,,360202,001,2023-12-12_17h48.19.720,REPSWITCH1_version2_list2,2022.2.4,143.92900283109668,
REPSWITCH1/PICTURE_673.png,tenedor,speak,darkblue,filler,2,F,4,3,2,2,Extra5,0,None,95,94,95,0,94,94,94,,,,,,,,,,,,,,,,,,,,,,,458.6427536001429,459.7887850003317,459.7887850003317,459.7887850003317,459.7887850003317,459.7887850003317,459.7887850003317,459.7887850003317,459.7887850003317,None,0,,C:\2023\REPSWITCH21092023\REPSWITCH_excgange\REPSWITCH_excgange\data/360202_REPSWITCH1_version2_list2_2023-12-12_17h48.19.720_micRespv2l2_recorded\recording_micRespv2l2_2023-12-12_17h55.56.992.wav,462.8169049001299,,None,462.8169049001299,462.8169049001299,462.8169049001299,462.8169049001299,462.8169049001299,462.8169049001299,,,,,,,360202,001,2023-12-12_17h48.19.720,REPSWITCH1_version2_list2,2022.2.4,143.92900283109668,
REPSWITCH1/PICTURE_35.png,oreja,type,gold,filler,1,F,4,3,2,2,Stim5_Set3,1,switch,96,95,96,0,95,95,95,,,,,,,,,,,,,,,,,,,,,,,463.31697550043464,464.3935018000193,464.3935018000193,464.3935018000193,464.3935018000193,464.3935018000193,464.3935018000193,464.3935018000193,464.3935018000193,"['o', 'r', 'e', 'j', 'a']",0,oreja,C:\2023\REPSWITCH21092023\REPSWITCH_excgange\REPSWITCH_excgange\data/360202_REPSWITCH1_version2_list2_2023-12-12_17h48.19.720_micRespv2l2_recorded\recording_micRespv2l2_2023-12-12_17h56.01.596.wav,467.41471370030195,467.914804500062,None,467.41471370030195,467.41471370030195,467.41471370030195,467.41471370030195,467.41471370030195,467.41471370030195,"[1.247810899745673, 1.441942600067705, 1.6233672997914255, 1.7490070001222193, 1.8678938997909427]",,,,,,360202,001,2023-12-12_17h48.19.720,REPSWITCH1_version2_list2,2022.2.4,143.92900283109668,
REPSWITCH1/PICTURE_663.png,columna,speak,darkblue,filler,2,F,4,3,2,2,Extra6,0,None,97,96,97,0,96,96,96,,,,,,,,,,,,,,,,,,,,,,,467.914804500062,468.9843956003897,468.9843956003897,468.9843956003897,468.9843956003897,468.9843956003897,468.9843956003897,468.9843956003897,468.9843956003897,None,0,,C:\2023\REPSWITCH21092023\REPSWITCH_excgange\REPSWITCH_excgange\data/360202_REPSWITCH1_version2_list2_2023-12-12_17h48.19.720_micRespv2l2_recorded\recording_micRespv2l2_2023-12-12_17h56.06.187.wav,472.0056165000424,472.5056791002862,None,472.0056165000424,472.0056165000424,472.0056165000424,472.0056165000424,472.0056165000424,472.0056165000424,,,,,,,360202,001,2023-12-12_17h48.19.720,REPSWITCH1_version2_list2,2022.2.4,143.92900283109668,
REPSWITCH1/PICTURE_242.png,cartero,type,gold,filler,1,F,4,3,2,2,Stim3_Set3,1,switch,98,97,98,0,97,97,97,,,,,,,,,,,,,,,,,,,,,,,472.5056791002862,473.6586166000925,473.6586166000925,473.6586166000925,473.6586166000925,473.6586166000925,473.6586166000925,473.6586166000925,473.6586166000925,"['c', 'a', 'r', 't', 'e', 'r', 'o']",0,cartero,C:\2023\REPSWITCH21092023\REPSWITCH_excgange\REPSWITCH_excgange\data/360202_REPSWITCH1_version2_list2_2023-12-12_17h48.19.720_micRespv2l2_recorded\recording_micRespv2l2_2023-12-12_17h56.10.861.wav,476.6798195000738,477.1798958000727,None,476.6798195000738,476.6798195000738,476.6798195000738,476.6798195000738,476.6798195000738,476.6798195000738,"[0.9570945999585092, 1.0966813997365534, 1.2032685996964574, 1.34077089978382, 1.43714899988845, 1.5422589997760952, 2.225025899708271]",,,,,,360202,001,2023-12-12_17h48.19.720,REPSWITCH1_version2_list2,2022.2.4,143.92900283109668,
REPSWITCH1/PICTURE_48.png,bombero,type,gold,nontarget,1,NT,4,3,2,2,Stim7_Set4,1,repeat,99,98,99,0,98,98,98,,,,,,,,,,,,,,,,,,,,,,,477.1798958000727,478.3536613001488,478.3536613001488,478.3536613001488,478.3536613001488,478.3536613001488,478.3536613001488,478.3536613001488,478.3536613001488,"['b', 'o', 'm', 'b', 'e', 'r', 'o']",0,bombero,C:\2023\REPSWITCH21092023\REPSWITCH_excgange\REPSWITCH_excgange\data/360202_REPSWITCH1_version2_list2_2023-12-12_17h48.19.720_micRespv2l2_recorded\recording_micRespv2l2_2023-12-12_17h56.15.556.wav,481.3749257000163,481.8749673003331,None,481.3749257000163,481.3749257000163,481.3749257000163,481.3749257000163,481.3749257000163,481.3749257000163,"[1.0751168997958302, 1.278427300043404, 1.504673599731177, 1.7342000999487936, 1.8606952000409365, 2.022157199680805, 2.1646456997841597]",,,,,,360202,001,2023-12-12_17h48.19.720,REPSWITCH1_version2_list2,2022.2.4,143.92900283109668,
REPSWITCH1/PICTURE_48.png,bombero,type,gold,repeat,1,T,4,3,2,2,Stim7_Set4,0,None,100,99,100,0,99,99,99,,,,,,,,,,,,,,,,,,,,,,,481.8749673003331,482.89596120035276,482.89596120035276,482.89596120035276,482.89596120035276,482.89596120035276,482.89596120035276,482.89596120035276,482.89596120035276,"['b', 'o', 'm', 'b', 'e', 'r', 'o']",0,bombero,C:\2023\REPSWITCH21092023\REPSWITCH_excgange\REPSWITCH_excgange\data/360202_REPSWITCH1_version2_list2_2023-12-12_17h48.19.720_micRespv2l2_recorded\recording_micRespv2l2_2023-12-12_17h56.20.098.wav,485.9172245003283,486.4172142003663,None,485.9172245003283,485.9172245003283,485.9172245003283,485.9172245003283,485.9172245003283,485.9172245003283,"[0.98417739989236, 1.1605329997837543, 1.3800564999692142, 1.5823327000252903, 1.715235199779272, 1.8989634001627564, 2.06538309995085]",,,,,,360202,001,2023-12-12_17h48.19.720,REPSWITCH1_version2_list2,2022.2.4,143.92900283109668,
REPSWITCH1/PICTURE_391.png,cadena,speak,darkblue,filler,2,F,4,3,2,2,Extra2,0,None,101,100,101,0,100,100,100,,,,,,,,,,,,,,,,,,,,,,,486.4172142003663,487.55633580032736,487.55633580032736,487.55633580032736,487.55633580032736,487.55633580032736,487.55633580032736,487.55633580032736,487.55633580032736,None,0,,C:\2023\REPSWITCH21092023\REPSWITCH_excgange\REPSWITCH_excgange\data/360202_REPSWITCH1_version2_list2_2023-12-12_17h48.19.720_micRespv2l2_recorded\recording_micRespv2l2_2023-12-12_17h56.24.760.wav,490.58447510004044,,None,490.58447510004044,490.58447510004044,490.58447510004044,490.58447510004044,490.58447510004044,490.58447510004044,,,,,,,360202,001,2023-12-12_17h48.19.720,REPSWITCH1_version2_list2,2022.2.4,143.92900283109668,
REPSWITCH1/PICTURE_590.png,escoba,type,gold,filler,1,F,4,3,2,2,Extra3,0,None,102,101,102,0,101,101,101,,,,,,,,,,,,,,,,,,,,,,,491.0845500002615,492.20971680013463,492.20971680013463,492.20971680013463,492.20971680013463,492.20971680013463,492.20971680013463,492.20971680013463,492.20971680013463,"['e', 's', 'c', 'o', 'b', 'a']",0,escoba,C:\2023\REPSWITCH21092023\REPSWITCH_excgange\REPSWITCH_excgange\data/360202_REPSWITCH1_version2_list2_2023-12-12_17h48.19.720_micRespv2l2_recorded\recording_micRespv2l2_2023-12-12_17h56.29.412.wav,495.2308929003775,495.7309576002881,space,495.2308929003775,495.2308929003775,495.2308929003775,495.2308929003775,495.2308929003775,495.2308929003775,"[0.9771537999622524, 1.1944223996251822, 1.4116937997750938, 1.6358931995928288, 1.8842930998653173, 2.0030314000323415]",495.7309576002881,495.7309576002881,1.4275193000212312,,,360202,001,2023-12-12_17h48.19.720,REPSWITCH1_version2_list2,2022.2.4,143.92900283109668,
REPSWITCH1/PICTURE_340.png,espejo,type,gold,filler,1,F,1,1,2,2,Extra1,0,None,103,102,1,0,102,102,102,,,,,,,,,,,,,,,,,,,,,,,497.16864470019937,498.328535000328,498.328535000328,498.328535000328,498.328535000328,498.328535000328,498.328535000328,498.328535000328,498.328535000328,"['e', 's', 'p', 'e', 'j', 'o']",0,espejo,C:\2023\REPSWITCH21092023\REPSWITCH_excgange\REPSWITCH_excgange\data/360202_REPSWITCH1_version2_list2_2023-12-12_17h48.19.720_micRespv2l2_recorded\recording_micRespv2l2_2023-12-12_17h56.35.531.wav,501.35668370034546,,None,501.35668370034546,501.35668370034546,501.35668370034546,501.35668370034546,501.35668370034546,501.35668370034546,"[0.8725541001185775, 1.0529583999887109, 1.2489034999161959, 1.3724893000908196, 1.5079993000254035, 2.4331781999208033]",,,,,,360202,001,2023-12-12_17h48.19.720,REPSWITCH1_version2_list2,2022.2.4,143.92900283109668,
REPSWITCH1/PICTURE_391.png,cadena,speak,darkblue,filler,2,F,1,1,2,2,Extra2,0,None,104,103,2,0,103,103,103,,,,,,,,,,,,,,,,,,,,,,,501.85674020042643,502.9263309002854,502.9263309002854,502.9263309002854,502.9263309002854,502.9263309002854,502.9263309002854,502.9263309002854,502.9263309002854,None,0,,C:\2023\REPSWITCH21092023\REPSWITCH_excgange\REPSWITCH_excgange\data/360202_REPSWITCH1_version2_list2_2023-12-12_17h48.19.720_micRespv2l2_recorded\recording_micRespv2l2_2023-12-12_17h56.40.129.wav,505.9476479999721,506.447635400109,None,505.9476479999721,505.9476479999721,505.9476479999721,505.9476479999721,505.9476479999721,505.9476479999721,,,,,,,360202,001,2023-12-12_17h48.19.720,REPSWITCH1_version2_list2,2022.2.4,143.92900283109668,
REPSWITCH1/PICTURE_178.png,puente,speak,darkblue,nontarget,2,NT,1,1,2,2,Stim1_Set1,1,repeat,105,104,3,0,104,104,104,,,,,,,,,,,,,,,,,,,,,,,506.447635400109,507.58665559999645,507.58665559999645,507.58665559999645,507.58665559999645,507.58665559999645,507.58665559999645,507.58665559999645,507.58665559999645,None,0,,C:\2023\REPSWITCH21092023\REPSWITCH_excgange\REPSWITCH_excgange\data/360202_REPSWITCH1_version2_list2_2023-12-12_17h48.19.720_micRespv2l2_recorded\recording_micRespv2l2_2023-12-12_17h56.44.789.wav,510.60797780007124,511.1079573002644,None,510.60797780007124,510.60797780007124,510.60797780007124,510.60797780007124,510.60797780007124,510.60797780007124,,,,,,,360202,001,2023-12-12_17h48.19.720,REPSWITCH1_version2_list2,2022.2.4,143.92900283109668,
REPSWITCH1/PICTURE_178.png,puente,speak,darkblue,repeat,2,T,1,1,2,2,Stim1_Set1,0,None,106,105,4,0,105,105,105,,,,,,,,,,,,,,,,,,,,,,,511.1079573002644,512.3233889001422,512.3233889001422,512.3233889001422,512.3233889001422,512.3233889001422,512.3233889001422,512.3233889001422,512.3233889001422,None,0,,C:\2023\REPSWITCH21092023\REPSWITCH_excgange\REPSWITCH_excgange\data/360202_REPSWITCH1_version2_list2_2023-12-12_17h48.19.720_micRespv2l2_recorded\recording_micRespv2l2_2023-12-12_17h56.49.527.wav,515.3446120000444,515.8447054000571,None,515.3446120000444,515.3446120000444,515.3446120000444,515.3446120000444,515.3446120000444,515.3446120000444,,,,,,,360202,001,2023-12-12_17h48.19.720,REPSWITCH1_version2_list2,2022.2.4,143.92900283109668,
REPSWITCH1/PICTURE_319.png,vaca,type,gold,filler,1,F,1,1,2,2,Stim1_Set4,0,None,107,106,5,0,106,106,106,,,,,,,,,,,,,,,,,,,,,,,515.8447054000571,516.9212079001591,516.9212079001591,516.9212079001591,516.9212079001591,516.9212079001591,516.9212079001591,516.9212079001591,516.9212079001591,"['v', 'a', 'c', 'a']",0,vaca,C:\2023\REPSWITCH21092023\REPSWITCH_excgange\REPSWITCH_excgange\data/360202_REPSWITCH1_version2_list2_2023-12-12_17h48.19.720_micRespv2l2_recorded\recording_micRespv2l2_2023-12-12_17h56.54.124.wav,519.9493817002513,,None,519.9493817002513,519.9493817002513,519.9493817002513,519.9493817002513,519.9493817002513,519.9493817002513,"[0.9304978000000119, 1.0311519000679255, 1.1507489001378417, 1.2205854002386332]",,,,,,360202,001,2023-12-12_17h48.19.720,REPSWITCH1_version2_list2,2022.2.4,143.92900283109668,
REPSWITCH1/PICTURE_381.png,fresa,speak,darkblue,nontarget,2,NT,1,1,2,2,Stim2_Set1,1,switch,108,107,6,0,107,107,107,,,,,,,,,,,,,,,,,,,,,,,520.4494500001892,521.463499400299,521.463499400299,521.463499400299,521.463499400299,521.463499400299,521.463499400299,521.463499400299,521.463499400299,None,0,,C:\2023\REPSWITCH21092023\REPSWITCH_excgange\REPSWITCH_excgange\data/360202_REPSWITCH1_version2_list2_2023-12-12_17h48.19.720_micRespv2l2_recorded\recording_micRespv2l2_2023-12-12_17h56.58.667.wav,524.484764800407,524.9847850999795,None,524.484764800407,524.484764800407,524.484764800407,524.484764800407,524.484764800407,524.484764800407,,,,,,,360202,001,2023-12-12_17h48.19.720,REPSWITCH1_version2_list2,2022.2.4,143.92900283109668,
REPSWITCH1/PICTURE_381.png,fresa,speak,darkblue,repeat,2,T,1,1,2,2,Stim2_Set1,0,None,109,108,7,0,108,108,108,,,,,,,,,,,,,,,,,,,,,,,524.9847850999795,526.040545700118,526.040545700118,526.040545700118,526.040545700118,526.040545700118,526.040545700118,526.040545700118,526.040545700118,None,0,,C:\2023\REPSWITCH21092023\REPSWITCH_excgange\REPSWITCH_excgange\data/360202_REPSWITCH1_version2_list2_2023-12-12_17h48.19.720_micRespv2l2_recorded\recording_micRespv2l2_2023-12-12_17h57.03.243.wav,529.0616912003607,529.5617650002241,None,529.0616912003607,529.0616912003607,529.0616912003607,529.0616912003607,529.0616912003607,529.0616912003607,,,,,,,360202,001,2023-12-12_17h48.19.720,REPSWITCH1_version2_list2,2022.2.4,143.92900283109668,
REPSWITCH1/PICTURE_719.png,baño,type,gold,filler,1,F,1,1,2,2,Stim2_Set4,1,switch,110,109,8,0,109,109,109,,,,,,,,,,,,,,,,,,,,,,,529.5617650002241,530.7216683002189,530.7216683002189,530.7216683002189,530.7216683002189,530.7216683002189,530.7216683002189,530.7216683002189,530.7216683002189,"['b', 'a', 'ñ', 'o']",0,baño,C:\2023\REPSWITCH21092023\REPSWITCH_excgange\REPSWITCH_excgange\data/360202_REPSWITCH1_version2_list2_2023-12-12_17h48.19.720_micRespv2l2_recorded\recording_micRespv2l2_2023-12-12_17h57.07.925.wav,533.7428890001029,534.2429355001077,None,533.7428890001029,533.7428890001029,533.7428890001029,533.7428890001029,533.7428890001029,533.7428890001029,"[0.9453577999956906, 1.149935600347817, 1.4330016002058983, 1.592459900304675]",,,,,,360202,001,2023-12-12_17h48.19.720,REPSWITCH1_version2_list2,2022.2.4,143.92900283109668,
REPSWITCH1/PICTURE_135.png,traje,speak,darkblue,nontarget,2,NT,1,1,2,2,Stim3_Set1,0,None,111,110,9,0,110,110,110,,,,,,,,,,,,,,,,,,,,,,,534.2429355001077,535.409769800026,535.409769800026,535.409769800026,535.409769800026,535.409769800026,535.409769800026,535.409769800026,535.409769800026,None,0,,C:\2023\REPSWITCH21092023\REPSWITCH_excgange\REPSWITCH_excgange\data/360202_REPSWITCH1_version2_list2_2023-12-12_17h48.19.720_micRespv2l2_recorded\recording_micRespv2l2_2023-12-12_17h57.12.612.wav,538.431074900087,538.9310490000062,None,538.431074900087,538.431074900087,538.431074900087,538.431074900087,538.431074900087,538.431074900087,,,,,,,360202,001,2023-12-12_17h48.19.720,REPSWITCH1_version2_list2,2022.2.4,143.92900283109668,
REPSWITCH1/PICTURE_135.png,traje,type,gold,switch,1,T,1,1,2,2,Stim3_Set1,0,None,112,111,10,0,111,111,111,,,,,,,,,,,,,,,,,,,,,,,538.9310490000062,540.0978970001452,540.0978970001452,540.0978970001452,540.0978970001452,540.0978970001452,540.0978970001452,540.0978970001452,540.0978970001452,"['t', 'r', 'a', 'j', 'e']",0,traje,C:\2023\REPSWITCH21092023\REPSWITCH_excgange\REPSWITCH_excgange\data/360202_REPSWITCH1_version2_list2_2023-12-12_17h48.19.720_micRespv2l2_recorded\recording_micRespv2l2_2023-12-12_17h57.17.301.wav,543.1260530999862,,None,543.1260530999862,543.1260530999862,543.1260530999862,543.1260530999862,543.1260530999862,543.1260530999862,"[1.01393699971959, 1.1734029999934137, 1.2292578998021781, 1.579335100017488, 1.6880846000276506]",,,,,,360202,001,2023-12-12_17h48.19.720,REPSWITCH1_version2_list2,2022.2.4,143.92900283109668,
REPSWITCH1/PICTURE_687.png,camisa,speak,darkblue,filler,2,F,1,1,2,2,Stim5_Set4,0,None,113,112,11,0,112,112,112,,,,,,,,,,,,,,,,,,,,,,,543.6261097001843,544.737418200355,544.737418200355,544.737418200355,544.737418200355,544.737418200355,544.737418200355,544.737418200355,544.737418200355,None,0,,C:\2023\REPSWITCH21092023\REPSWITCH_excgange\REPSWITCH_excgange\data/360202_REPSWITCH1_version2_list2_2023-12-12_17h48.19.720_micRespv2l2_recorded\recording_micRespv2l2_2023-12-12_17h57.21.939.wav,547.7586029004306,548.2586786001921,None,547.7586029004306,547.7586029004306,547.7586029004306,547.7586029004306,547.7586029004306,547.7586029004306,,,,,,,360202,001,2023-12-12_17h48.19.720,REPSWITCH1_version2_list2,2022.2.4,143.92900283109668,
REPSWITCH1/PICTURE_128.png,muñeca,type,gold,nontarget,1,NT,1,1,2,2,Stim4_Set1,1,switch,114,113,12,0,113,113,113,,,,,,,,,,,,,,,,,,,,,,,548.2586786001921,549.363053300418,549.363053300418,549.363053300418,549.363053300418,549.363053300418,549.363053300418,549.363053300418,549.363053300418,"['m', 'u', 'ñ', 'e', 'c', 'a']",0,muñeca,C:\2023\REPSWITCH21092023\REPSWITCH_excgange\REPSWITCH_excgange\data/360202_REPSWITCH1_version2_list2_2023-12-12_17h48.19.720_micRespv2l2_recorded\recording_micRespv2l2_2023-12-12_17h57.26.566.wav,552.3841986004263,552.884258300066,None,552.3841986004263,552.3841986004263,552.3841986004263,552.3841986004263,552.3841986004263,552.3841986004263,"[1.1437857002019882, 1.3545920001342893, 1.7574652000330389, 1.9186128000728786, 2.1209366000257432, 2.266760100144893]",,,,,,360202,001,2023-12-12_17h48.19.720,REPSWITCH1_version2_list2,2022.2.4,143.92900283109668,
REPSWITCH1/PICTURE_128.png,muñeca,speak,darkblue,switch,2,T,1,1,2,2,Stim4_Set1,0,None,115,114,13,0,114,114,114,,,,,,,,,,,,,,,,,,,,,,,552.884258300066,553.9330236003734,553.9330236003734,553.9330236003734,553.9330236003734,553.9330236003734,553.9330236003734,553.9330236003734,553.9330236003734,None,0,,C:\2023\REPSWITCH21092023\REPSWITCH_excgange\REPSWITCH_excgange\data/360202_REPSWITCH1_version2_list2_2023-12-12_17h48.19.720_micRespv2l2_recorded\recording_micRespv2l2_2023-12-12_17h57.31.136.wav,556.9542244002223,557.4543076003902,None,556.9542244002223,556.9542244002223,556.9542244002223,556.9542244002223,556.9542244002223,556.9542244002223,,,,,,,360202,001,2023-12-12_17h48.19.720,REPSWITCH1_version2_list2,2022.2.4,143.92900283109668,
REPSWITCH1/PICTURE_8.png,pierna,speak,darkblue,filler,2,F,1,1,2,2,Stim3_Set4,0,None,116,115,14,0,115,115,115,,,,,,,,,,,,,,,,,,,,,,,557.4543076003902,558.5655841003172,558.5655841003172,558.5655841003172,558.5655841003172,558.5655841003172,558.5655841003172,558.5655841003172,558.5655841003172,None,0,,C:\2023\REPSWITCH21092023\REPSWITCH_excgange\REPSWITCH_excgange\data/360202_REPSWITCH1_version2_list2_2023-12-12_17h48.19.720_micRespv2l2_recorded\recording_micRespv2l2_2023-12-12_17h57.35.768.wav,561.5868953000754,562.0868774000555,None,561.5868953000754,561.5868953000754,561.5868953000754,561.5868953000754,561.5868953000754,561.5868953000754,,,,,,,360202,001,2023-12-12_17h48.19.720,REPSWITCH1_version2_list2,2022.2.4,143.92900283109668,
REPSWITCH1/PICTURE_19.png,pavo,speak,darkblue,nontarget,2,NT,1,1,2,2,Stim5_Set1,0,None,117,116,15,0,116,116,116,,,,,,,,,,,,,,,,,,,,,,,562.0868774000555,563.1633878001012,563.1633878001012,563.1633878001012,563.1633878001012,563.1633878001012,563.1633878001012,563.1633878001012,563.1633878001012,None,0,,C:\2023\REPSWITCH21092023\REPSWITCH_excgange\REPSWITCH_excgange\data/360202_REPSWITCH1_version2_list2_2023-12-12_17h48.19.720_micRespv2l2_recorded\recording_micRespv2l2_2023-12-12_17h57.40.367.wav,566.1846183002926,566.6847109002993,None,566.1846183002926,566.1846183002926,566.1846183002926,566.1846183002926,566.1846183002926,566.1846183002926,,,,,,,360202,001,2023-12-12_17h48.19.720,REPSWITCH1_version2_list2,2022.2.4,143.92900283109668,
REPSWITCH1/PICTURE_19.png,pavo,type,gold,switch,1,T,1,1,2,2,Stim5_Set1,0,None,118,117,16,0,117,117,117,,,,,,,,,,,,,,,,,,,,,,,566.6847109002993,567.80288260011,567.80288260011,567.80288260011,567.80288260011,567.80288260011,567.80288260011,567.80288260011,567.80288260011,"['p', 'a', 'o', 'backspace', 'c', 'o', 'backspace']",0,pac,C:\2023\REPSWITCH21092023\REPSWITCH_excgange\REPSWITCH_excgange\data/360202_REPSWITCH1_version2_list2_2023-12-12_17h48.19.720_micRespv2l2_recorded\recording_micRespv2l2_2023-12-12_17h57.45.006.wav,570.8310871003196,,None,570.8310871003196,570.8310871003196,570.8310871003196,570.8310871003196,570.8310871003196,570.8310871003196,"[1.0817607999779284, 1.1933414000086486, 1.5624211002141237, 2.2414869000203907, 2.369070400018245, 2.4777255998924375, 2.9132739999331534]",,,,,,360202,001,2023-12-12_17h48.19.720,REPSWITCH1_version2_list2,2022.2.4,143.92900283109668,
REPSWITCH1/PICTURE_16.png,cazador,type,gold,nontarget,1,NT,1,1,2,2,Stim6_Set1,1,switch,119,118,17,0,118,118,118,,,,,,,,,,,,,,,,,,,,,,,571.3311548000202,572.4701996003278,572.4701996003278,572.4701996003278,572.4701996003278,572.4701996003278,572.4701996003278,572.4701996003278,572.4701996003278,"['c', 'a', 'z', 'a', 'r', 'd', 'o', 'r']",0,cazardor,C:\2023\REPSWITCH21092023\REPSWITCH_excgange\REPSWITCH_excgange\data/360202_REPSWITCH1_version2_list2_2023-12-12_17h48.19.720_micRespv2l2_recorded\recording_micRespv2l2_2023-12-12_17h57.49.673.wav,575.4914134000428,575.9914589002728,None,575.4914134000428,575.4914134000428,575.4914134000428,575.4914134000428,575.4914134000428,575.4914134000428,"[1.0550648998469114, 1.20328399958089, 1.4125923998653889, 1.5911787999793887, 1.7158921998925507, 1.8547406997531652, 2.212582599837333, 2.357083899900317]",,,,,,360202,001,2023-12-12_17h48.19.720,REPSWITCH1_version2_list2,2022.2.4,143.92900283109668,
REPSWITCH1/PICTURE_16.png,cazador,type,gold,repeat,1,T,1,1,2,2,Stim6_Set1,0,None,120,119,18,0,119,119,119,,,,,,,,,,,,,,,,,,,,,,,575.9914589002728,577.151376800146,577.151376800146,577.151376800146,577.151376800146,577.151376800146,577.151376800146,577.151376800146,577.151376800146,"['c', 'a', 'z', 'a', 'd', 'o', 'r']",0,cazador,C:\2023\REPSWITCH21092023\REPSWITCH_excgange\REPSWITCH_excgange\data/360202_REPSWITCH1_version2_list2_2023-12-12_17h48.19.720_micRespv2l2_recorded\recording_micRespv2l2_2023-12-12_17h57.54.354.wav,580.1795936003327,,None,580.1795936003327,580.1795936003327,580.1795936003327,580.1795936003327,580.1795936003327,580.1795936003327,"[0.8034143000841141, 0.9427934000268579, 1.1460307002998888, 1.301503200083971, 1.5077852001413703, 1.7530008000321686, 1.881576200015843]",,,,,,360202,001,2023-12-12_17h48.19.720,REPSWITCH1_version2_list2,2022.2.4,143.92900283109668,
REPSWITCH1/PICTURE_498.png,taza,speak,darkblue,filler,2,F,1,1,2,2,Stim4_Set4,0,None,121,120,19,0,120,120,120,,,,,,,,,,,,,,,,,,,,,,,580.6796020003967,581.8117540003732,581.8117540003732,581.8117540003732,581.8117540003732,581.8117540003732,581.8117540003732,581.8117540003732,581.8117540003732,None,0,,C:\2023\REPSWITCH21092023\REPSWITCH_excgange\REPSWITCH_excgange\data/360202_REPSWITCH1_version2_list2_2023-12-12_17h48.19.720_micRespv2l2_recorded\recording_micRespv2l2_2023-12-12_17h57.59.014.wav,584.8329985002056,585.3330576000735,None,584.8329985002056,584.8329985002056,584.8329985002056,584.8329985002056,584.8329985002056,584.8329985002056,,,,,,,360202,001,2023-12-12_17h48.19.720,REPSWITCH1_version2_list2,2022.2.4,143.92900283109668,
