image,correctAns,respModal,frameColor,repSwitch,sequence,target,set,block,list,exp_version,stimulus,baseline,baseline_condition,trial_no,psychopy_trial,Column1,trialsREPSWITCH.thisRepN,trialsREPSWITCH.thisTrialN,trialsREPSWITCH.thisN,trialsREPSWITCH.thisIndex,textWelcome.started,textboxInstrMain1.started,textboxInstrMain1_2.started,textboxInstrMain1_3.started,keyInstrMain.started,keyInstrMain.keys,keyInstrMain.rt,textboxInstrMain2.started,textboxInstrMain2_2.started,textboxInstrMain2_3.started,textboxInstrMain2_4.started,textboxInstrMain2_5.started,textboxInstrMain2_6.started,textboxInstrMain2_7.started,textboxInstrMain2_8.started,textboxInstrMain2_9.started,textboxInstrMain2_10.started,textboxInstrMain2_11.started,textboxInstrMain2_12.started,keyInstrMain2.started,keyInstrMain2.keys,keyInstrMain2.rt,fixationITI.started,fixationITI.stopped,polygonColour.started,polygonWhite.started,imageObject.started,polygonType.started,textInput.started,keyResp.started,micRespv1l3.started,keyResp.keys,keyResp.corr,keyResp.rt,subjResponse,micRespv1l3.clip,textBlankLoop.started,textBlankLoop.stopped,keyPause.keys,polygonColour.stopped,polygonWhite.stopped,imageObject.stopped,polygonType.stopped,textInput.stopped,keyResp.stopped,textboxPause.started,keyPause.started,keyPause.rt,textboxGoodbye.started,textboxGoodbye.stopped,participant,session,date,expName,psychopyVersion,frameRate,
,,,,,,,,,,,,,,,,,,,,,8.953378499951214,11.451088900212198,11.451088900212198,11.451088900212198,11.451088900212198,space,2.8971208003349602,,,,,,,,,,,,,,,,,,,,,,,,,,,,,,,,,,,,,,,,,,,,370103,001,2023-12-13_09h39.12.096,REPSWITCH1_version1_list3,2022.2.4,143.9244460002626,
,,,,,,,,,,,,,,,,,,,,,,,,,,,,14.36814900022,14.36814900022,14.36814900022,14.36814900022,14.36814900022,14.36814900022,14.36814900022,14.36814900022,14.36814900022,14.36814900022,14.36814900022,14.36814900022,14.36814900022,space,1.5355857000686228,,,,,,,,,,,,,,,,,,,,,,,,,,,,,370103,001,2023-12-13_09h39.12.096,REPSWITCH1_version1_list3,2022.2.4,143.9244460002626,
REPSWITCH1/PICTURE_663.png,columna,type,darkblue,filler,1,F,1,2,3,1,Extra6,0,None,1,0,1,0,0,0,0,,,,,,,,,,,,,,,,,,,,,,,16.00727229984477,17.056040599942207,17.056040599942207,17.056040599942207,17.056040599942207,17.056040599942207,17.056040599942207,17.056040599942207,17.056040599942207,"['c', 'o', 'l', 'u', 'm', 'n', 'a']",0,"[1.4470371003262699, 1.5473719001747668, 1.723105600103736, 1.950621800031513, 2.0352956000715494, 2.185212700162083, 2.4403639999218285]",columna,C:\2023\REPSWITCH21092023\REPSWITCH_excgange\REPSWITCH_excgange\data/370103_REPSWITCH1_version1_list3_2023-12-13_09h39.12.096_micRespv1l3_recorded\recording_micRespv1l3_2023-12-13_09h39.25.075.wav,20.077203299850225,20.57737349998206,None,,,,,,,,,,,,370103,001,2023-12-13_09h39.12.096,REPSWITCH1_version1_list3,2022.2.4,143.9244460002626,
REPSWITCH1/PICTURE_128.png,muñeca,speak,gold,nontarget,2,NT,1,2,3,1,Stim4_Set1,1,switch,2,1,2,0,1,1,1,,,,,,,,,,,,,,,,,,,,,,,20.57737349998206,21.681578500196338,21.681578500196338,21.681578500196338,21.681578500196338,21.681578500196338,21.681578500196338,21.681578500196338,21.681578500196338,None,0,,,C:\2023\REPSWITCH21092023\REPSWITCH_excgange\REPSWITCH_excgange\data/370103_REPSWITCH1_version1_list3_2023-12-13_09h39.12.096_micRespv1l3_recorded\recording_micRespv1l3_2023-12-13_09h39.29.706.wav,24.709779100026935,25.20985580002889,None,24.709779100026935,24.709779100026935,24.709779100026935,24.709779100026935,24.709779100026935,24.709779100026935,,,,,,370103,001,2023-12-13_09h39.12.096,REPSWITCH1_version1_list3,2022.2.4,143.9244460002626,
REPSWITCH1/PICTURE_128.png,muñeca,speak,gold,repeat,2,T,1,2,3,1,Stim4_Set1,0,None,3,2,3,0,2,2,2,,,,,,,,,,,,,,,,,,,,,,,25.20985580002889,26.2933375001885,26.2933375001885,26.2933375001885,26.2933375001885,26.2933375001885,26.2933375001885,26.2933375001885,26.2933375001885,None,0,,,C:\2023\REPSWITCH21092023\REPSWITCH_excgange\REPSWITCH_excgange\data/370103_REPSWITCH1_version1_list3_2023-12-13_09h39.12.096_micRespv1l3_recorded\recording_micRespv1l3_2023-12-13_09h39.34.316.wav,29.321507799904794,,None,29.321507799904794,29.321507799904794,29.321507799904794,29.321507799904794,29.321507799904794,29.321507799904794,,,,,,370103,001,2023-12-13_09h39.12.096,REPSWITCH1_version1_list3,2022.2.4,143.9244460002626,
REPSWITCH1/PICTURE_8.png,pierna,type,darkblue,filler,1,F,1,2,3,1,Stim3_Set4,0,None,4,3,4,0,3,3,3,,,,,,,,,,,,,,,,,,,,,,,29.821569900028408,30.87725039990619,30.87725039990619,30.87725039990619,30.87725039990619,30.87725039990619,30.87725039990619,30.87725039990619,30.87725039990619,"['p', 'i', 'e', 'r', 'n', 'a']",0,"[1.0259187002666295, 1.1245553004555404, 1.2551427003927529, 1.3112855004146695, 1.46811080025509, 1.5279257004149258]",pierna,C:\2023\REPSWITCH21092023\REPSWITCH_excgange\REPSWITCH_excgange\data/370103_REPSWITCH1_version1_list3_2023-12-13_09h39.12.096_micRespv1l3_recorded\recording_micRespv1l3_2023-12-13_09h39.38.900.wav,33.90543959988281,34.405564200133085,None,33.90543959988281,33.90543959988281,33.90543959988281,33.90543959988281,33.90543959988281,33.90543959988281,,,,,,370103,001,2023-12-13_09h39.12.096,REPSWITCH1_version1_list3,2022.2.4,143.9244460002626,
REPSWITCH1/PICTURE_135.png,traje,speak,gold,nontarget,2,NT,1,2,3,1,Stim3_Set1,1,switch,5,4,5,0,4,4,4,,,,,,,,,,,,,,,,,,,,,,,34.405564200133085,35.4681656002067,35.4681656002067,35.4681656002067,35.4681656002067,35.4681656002067,35.4681656002067,35.4681656002067,35.4681656002067,None,0,,,C:\2023\REPSWITCH21092023\REPSWITCH_excgange\REPSWITCH_excgange\data/370103_REPSWITCH1_version1_list3_2023-12-13_09h39.12.096_micRespv1l3_recorded\recording_micRespv1l3_2023-12-13_09h39.43.491.wav,38.49632429983467,38.99643190018833,None,38.49632429983467,38.49632429983467,38.49632429983467,38.49632429983467,38.49632429983467,38.49632429983467,,,,,,370103,001,2023-12-13_09h39.12.096,REPSWITCH1_version1_list3,2022.2.4,143.9244460002626,
REPSWITCH1/PICTURE_135.png,traje,speak,gold,repeat,2,T,1,2,3,1,Stim3_Set1,0,None,6,5,6,0,5,5,5,,,,,,,,,,,,,,,,,,,,,,,38.99643190018833,40.1355090001598,40.1355090001598,40.1355090001598,40.1355090001598,40.1355090001598,40.1355090001598,40.1355090001598,40.1355090001598,None,0,,,C:\2023\REPSWITCH21092023\REPSWITCH_excgange\REPSWITCH_excgange\data/370103_REPSWITCH1_version1_list3_2023-12-13_09h39.12.096_micRespv1l3_recorded\recording_micRespv1l3_2023-12-13_09h39.48.157.wav,43.1635598000139,,None,43.1635598000139,43.1635598000139,43.1635598000139,43.1635598000139,43.1635598000139,43.1635598000139,,,,,,370103,001,2023-12-13_09h39.12.096,REPSWITCH1_version1_list3,2022.2.4,143.9244460002626,
REPSWITCH1/PICTURE_673.png,tenedor,type,darkblue,filler,1,F,1,2,3,1,Extra5,0,None,7,6,7,0,6,6,6,,,,,,,,,,,,,,,,,,,,,,,43.66366299986839,44.80964360013604,44.80964360013604,44.80964360013604,44.80964360013604,44.80964360013604,44.80964360013604,44.80964360013604,44.80964360013604,"['t', 'e', 'n', 'e', 'd', 'o', 'r']",0,"[0.9626798997633159, 1.0352662997320294, 1.165253299754113, 1.2688386999070644, 1.4611557996831834, 1.5850780000910163, 1.655840199906379]",tenedor,C:\2023\REPSWITCH21092023\REPSWITCH_excgange\REPSWITCH_excgange\data/370103_REPSWITCH1_version1_list3_2023-12-13_09h39.12.096_micRespv1l3_recorded\recording_micRespv1l3_2023-12-13_09h39.52.832.wav,47.83783369977027,48.33785830019042,None,47.83783369977027,47.83783369977027,47.83783369977027,47.83783369977027,47.83783369977027,47.83783369977027,,,,,,370103,001,2023-12-13_09h39.12.096,REPSWITCH1_version1_list3,2022.2.4,143.9244460002626,
REPSWITCH1/PICTURE_728.png,pulpo,speak,gold,filler,2,F,1,2,3,1,Stim8_Set4,0,None,8,7,8,0,7,7,7,,,,,,,,,,,,,,,,,,,,,,,48.33785830019042,49.37270070007071,49.37270070007071,49.37270070007071,49.37270070007071,49.37270070007071,49.37270070007071,49.37270070007071,49.37270070007071,None,0,,,C:\2023\REPSWITCH21092023\REPSWITCH_excgange\REPSWITCH_excgange\data/370103_REPSWITCH1_version1_list3_2023-12-13_09h39.12.096_micRespv1l3_recorded\recording_micRespv1l3_2023-12-13_09h39.57.397.wav,52.400892899837345,52.90097780013457,None,52.400892899837345,52.400892899837345,52.400892899837345,52.400892899837345,52.400892899837345,52.400892899837345,,,,,,370103,001,2023-12-13_09h39.12.096,REPSWITCH1_version1_list3,2022.2.4,143.9244460002626,
REPSWITCH1/PICTURE_16.png,cazador,speak,gold,nontarget,2,NT,1,2,3,1,Stim6_Set1,1,repeat,9,8,9,0,8,8,8,,,,,,,,,,,,,,,,,,,,,,,52.90097780013457,54.00526829995215,54.00526829995215,54.00526829995215,54.00526829995215,54.00526829995215,54.00526829995215,54.00526829995215,54.00526829995215,None,0,,,C:\2023\REPSWITCH21092023\REPSWITCH_excgange\REPSWITCH_excgange\data/370103_REPSWITCH1_version1_list3_2023-12-13_09h39.12.096_micRespv1l3_recorded\recording_micRespv1l3_2023-12-13_09h40.02.029.wav,57.033499400131404,57.533523300196975,None,57.033499400131404,57.033499400131404,57.033499400131404,57.033499400131404,57.033499400131404,57.033499400131404,,,,,,370103,001,2023-12-13_09h39.12.096,REPSWITCH1_version1_list3,2022.2.4,143.9244460002626,
REPSWITCH1/PICTURE_16.png,cazador,type,darkblue,switch,1,T,1,2,3,1,Stim6_Set1,0,None,10,9,10,0,9,9,9,,,,,,,,,,,,,,,,,,,,,,,57.533523300196975,58.568464200012386,58.568464200012386,58.568464200012386,58.568464200012386,58.568464200012386,58.568464200012386,58.568464200012386,58.568464200012386,"['c', 'a', 'z', 'a', 'd', 'o', 'r']",0,"[1.1066874000243843, 1.2329651000909507, 1.4910889002494514, 1.6925023002550006, 1.7672723000869155, 1.9068176001310349, 1.9885447002016008]",cazador,C:\2023\REPSWITCH21092023\REPSWITCH_excgange\REPSWITCH_excgange\data/370103_REPSWITCH1_version1_list3_2023-12-13_09h39.12.096_micRespv1l3_recorded\recording_micRespv1l3_2023-12-13_09h40.06.591.wav,61.59655380016193,62.096632400061935,None,61.59655380016193,61.59655380016193,61.59655380016193,61.59655380016193,61.59655380016193,61.59655380016193,,,,,,370103,001,2023-12-13_09h39.12.096,REPSWITCH1_version1_list3,2022.2.4,143.9244460002626,
REPSWITCH1/PICTURE_498.png,taza,type,darkblue,filler,1,F,1,2,3,1,Stim4_Set4,1,repeat,11,10,11,0,10,10,10,,,,,,,,,,,,,,,,,,,,,,,62.096632400061935,63.22177860001102,63.22177860001102,63.22177860001102,63.22177860001102,63.22177860001102,63.22177860001102,63.22177860001102,63.22177860001102,"['t', 'a', 'z', 'a']",0,"[0.8656339002773166, 0.9672900000587106, 1.194497600197792, 1.4007689002901316]",taza,C:\2023\REPSWITCH21092023\REPSWITCH_excgange\REPSWITCH_excgange\data/370103_REPSWITCH1_version1_list3_2023-12-13_09h39.12.096_micRespv1l3_recorded\recording_micRespv1l3_2023-12-13_09h40.11.245.wav,66.2499295999296,,None,66.2499295999296,66.2499295999296,66.2499295999296,66.2499295999296,66.2499295999296,66.2499295999296,,,,,,370103,001,2023-12-13_09h39.12.096,REPSWITCH1_version1_list3,2022.2.4,143.9244460002626,
REPSWITCH1/PICTURE_381.png,fresa,type,darkblue,nontarget,1,NT,1,2,3,1,Stim2_Set1,1,repeat,12,11,12,0,11,11,11,,,,,,,,,,,,,,,,,,,,,,,66.74999690009281,67.79189039999619,67.79189039999619,67.79189039999619,67.79189039999619,67.79189039999619,67.79189039999619,67.79189039999619,67.79189039999619,"['f', 'r', 'e', 's', 'a']",0,"[0.9654987002722919, 1.2484458000399172, 1.3081682999618351, 1.5810124003328383, 1.6517973002046347]",fresa,C:\2023\REPSWITCH21092023\REPSWITCH_excgange\REPSWITCH_excgange\data/370103_REPSWITCH1_version1_list3_2023-12-13_09h39.12.096_micRespv1l3_recorded\recording_micRespv1l3_2023-12-13_09h40.15.812.wav,70.81302959984168,71.31311419978738,None,,,,,,,,,,,,370103,001,2023-12-13_09h39.12.096,REPSWITCH1_version1_list3,2022.2.4,143.9244460002626,
REPSWITCH1/PICTURE_381.png,fresa,speak,gold,switch,2,T,1,2,3,1,Stim2_Set1,0,None,13,12,13,0,12,12,12,,,,,,,,,,,,,,,,,,,,,,,71.31311419978738,72.38962080003694,72.38962080003694,72.38962080003694,72.38962080003694,72.38962080003694,72.38962080003694,72.38962080003694,72.38962080003694,None,0,,,C:\2023\REPSWITCH21092023\REPSWITCH_excgange\REPSWITCH_excgange\data/370103_REPSWITCH1_version1_list3_2023-12-13_09h39.12.096_micRespv1l3_recorded\recording_micRespv1l3_2023-12-13_09h40.20.413.wav,75.41785770002753,,None,75.41785770002753,75.41785770002753,75.41785770002753,75.41785770002753,75.41785770002753,75.41785770002753,,,,,,370103,001,2023-12-13_09h39.12.096,REPSWITCH1_version1_list3,2022.2.4,143.9244460002626,
REPSWITCH1/PICTURE_178.png,puente,speak,gold,nontarget,2,NT,1,2,3,1,Stim1_Set1,0,None,14,13,14,0,13,13,13,,,,,,,,,,,,,,,,,,,,,,,75.91785989981145,76.94578790012747,76.94578790012747,76.94578790012747,76.94578790012747,76.94578790012747,76.94578790012747,76.94578790012747,76.94578790012747,None,0,,,C:\2023\REPSWITCH21092023\REPSWITCH_excgange\REPSWITCH_excgange\data/370103_REPSWITCH1_version1_list3_2023-12-13_09h39.12.096_micRespv1l3_recorded\recording_micRespv1l3_2023-12-13_09h40.24.969.wav,79.97395259980112,80.4740193001926,None,79.97395259980112,79.97395259980112,79.97395259980112,79.97395259980112,79.97395259980112,79.97395259980112,,,,,,370103,001,2023-12-13_09h39.12.096,REPSWITCH1_version1_list3,2022.2.4,143.9244460002626,
REPSWITCH1/PICTURE_178.png,puente,type,darkblue,switch,1,T,1,2,3,1,Stim1_Set1,0,None,15,14,15,0,14,14,14,,,,,,,,,,,,,,,,,,,,,,,80.4740193001926,81.52979950001463,81.52979950001463,81.52979950001463,81.52979950001463,81.52979950001463,81.52979950001463,81.52979950001463,81.52979950001463,"['p', 'u', 'e', 'n', 't', 'e']",0,"[0.968138700351119, 1.092731200158596, 1.2242903001606464, 1.3478710004128516, 1.452930100262165, 1.538599600084126]",puente,C:\2023\REPSWITCH21092023\REPSWITCH_excgange\REPSWITCH_excgange\data/370103_REPSWITCH1_version1_list3_2023-12-13_09h39.12.096_micRespv1l3_recorded\recording_micRespv1l3_2023-12-13_09h40.29.551.wav,84.55093580018729,85.05099949985743,None,84.55093580018729,84.55093580018729,84.55093580018729,84.55093580018729,84.55093580018729,84.55093580018729,,,,,,370103,001,2023-12-13_09h39.12.096,REPSWITCH1_version1_list3,2022.2.4,143.9244460002626,
REPSWITCH1/PICTURE_719.png,baño,speak,gold,filler,2,F,1,2,3,1,Stim2_Set4,0,None,16,15,16,0,15,15,15,,,,,,,,,,,,,,,,,,,,,,,85.05099949985743,86.24570230022073,86.24570230022073,86.24570230022073,86.24570230022073,86.24570230022073,86.24570230022073,86.24570230022073,86.24570230022073,None,0,,,C:\2023\REPSWITCH21092023\REPSWITCH_excgange\REPSWITCH_excgange\data/370103_REPSWITCH1_version1_list3_2023-12-13_09h39.12.096_micRespv1l3_recorded\recording_micRespv1l3_2023-12-13_09h40.34.270.wav,89.27385659981519,89.77383970003575,None,89.27385659981519,89.27385659981519,89.27385659981519,89.27385659981519,89.27385659981519,89.27385659981519,,,,,,370103,001,2023-12-13_09h39.12.096,REPSWITCH1_version1_list3,2022.2.4,143.9244460002626,
REPSWITCH1/PICTURE_169.png,espalda,type,darkblue,nontarget,1,NT,1,2,3,1,Stim8_Set1,1,switch,17,16,17,0,16,16,16,,,,,,,,,,,,,,,,,,,,,,,89.77383970003575,90.85733440006152,90.85733440006152,90.85733440006152,90.85733440006152,90.85733440006152,90.85733440006152,90.85733440006152,90.85733440006152,"['e', 's', 'p', 'a', 'l', 'd', 'a']",0,"[0.909550900105387, 0.9573292001150548, 1.1278985999524593, 1.2386298002675176, 1.3392552002333105, 1.44826229987666, 1.5389316999353468]",espalda,C:\2023\REPSWITCH21092023\REPSWITCH_excgange\REPSWITCH_excgange\data/370103_REPSWITCH1_version1_list3_2023-12-13_09h39.12.096_micRespv1l3_recorded\recording_micRespv1l3_2023-12-13_09h40.38.880.wav,93.88558600004762,,None,93.88558600004762,93.88558600004762,93.88558600004762,93.88558600004762,93.88558600004762,93.88558600004762,,,,,,370103,001,2023-12-13_09h39.12.096,REPSWITCH1_version1_list3,2022.2.4,143.9244460002626,
REPSWITCH1/PICTURE_169.png,espalda,type,darkblue,repeat,1,T,1,2,3,1,Stim8_Set1,0,None,18,17,18,0,17,17,17,,,,,,,,,,,,,,,,,,,,,,,94.38557869987562,95.44824559986591,95.44824559986591,95.44824559986591,95.44824559986591,95.44824559986591,95.44824559986591,95.44824559986591,95.44824559986591,"['e', 's', 'p', 'a', 'l', 'd', 'a']",0,"[0.9401933001354337, 0.9959992999210954, 1.1448806999251246, 1.275441600009799, 1.3974600997753441, 1.5378682999871671, 1.6085943998768926]",espalda,C:\2023\REPSWITCH21092023\REPSWITCH_excgange\REPSWITCH_excgange\data/370103_REPSWITCH1_version1_list3_2023-12-13_09h39.12.096_micRespv1l3_recorded\recording_micRespv1l3_2023-12-13_09h40.43.471.wav,98.4764542998746,,None,98.4764542998746,98.4764542998746,98.4764542998746,98.4764542998746,98.4764542998746,98.4764542998746,,,,,,370103,001,2023-12-13_09h39.12.096,REPSWITCH1_version1_list3,2022.2.4,143.9244460002626,
REPSWITCH1/PICTURE_48.png,bombero,speak,gold,filler,2,F,1,2,3,1,Stim7_Set4,1,switch,19,18,19,0,18,18,18,,,,,,,,,,,,,,,,,,,,,,,98.97645770013332,100.0599235999398,100.0599235999398,100.0599235999398,100.0599235999398,100.0599235999398,100.0599235999398,100.0599235999398,100.0599235999398,None,0,,,C:\2023\REPSWITCH21092023\REPSWITCH_excgange\REPSWITCH_excgange\data/370103_REPSWITCH1_version1_list3_2023-12-13_09h39.12.096_micRespv1l3_recorded\recording_micRespv1l3_2023-12-13_09h40.48.082.wav,103.08811199991032,,None,103.08811199991032,103.08811199991032,103.08811199991032,103.08811199991032,103.08811199991032,103.08811199991032,,,,,,370103,001,2023-12-13_09h39.12.096,REPSWITCH1_version1_list3,2022.2.4,143.9244460002626,
REPSWITCH1/PICTURE_19.png,pavo,type,darkblue,nontarget,1,NT,1,2,3,1,Stim5_Set1,1,switch,20,19,20,0,19,19,19,,,,,,,,,,,,,,,,,,,,,,,103.58817450003698,104.67859880020842,104.67859880020842,104.67859880020842,104.67859880020842,104.67859880020842,104.67859880020842,104.67859880020842,104.67859880020842,"['p', 'a', 'v', 'o']",0,"[1.2098487000912428, 1.370308100245893, 1.5558860003948212, 1.7357412003912032]",pavo,C:\2023\REPSWITCH21092023\REPSWITCH_excgange\REPSWITCH_excgange\data/370103_REPSWITCH1_version1_list3_2023-12-13_09h39.12.096_micRespv1l3_recorded\recording_micRespv1l3_2023-12-13_09h40.52.702.wav,107.70677099982277,,None,107.70677099982277,107.70677099982277,107.70677099982277,107.70677099982277,107.70677099982277,107.70677099982277,,,,,,370103,001,2023-12-13_09h39.12.096,REPSWITCH1_version1_list3,2022.2.4,143.9244460002626,
REPSWITCH1/PICTURE_19.png,pavo,type,darkblue,repeat,1,T,1,2,3,1,Stim5_Set1,0,None,21,20,21,0,20,20,20,,,,,,,,,,,,,,,,,,,,,,,108.20689690019935,109.47784279985353,109.47784279985353,109.47784279985353,109.47784279985353,109.47784279985353,109.47784279985353,109.47784279985353,109.47784279985353,"['p', 'a', 'v', 'o']",0,"[0.8998538004234433, 1.0822323001921177, 1.1449863002635539, 1.3799057002179325]",pavo,C:\2023\REPSWITCH21092023\REPSWITCH_excgange\REPSWITCH_excgange\data/370103_REPSWITCH1_version1_list3_2023-12-13_09h39.12.096_micRespv1l3_recorded\recording_micRespv1l3_2023-12-13_09h40.57.501.wav,112.50598970009014,,None,112.50598970009014,112.50598970009014,112.50598970009014,112.50598970009014,112.50598970009014,112.50598970009014,,,,,,370103,001,2023-12-13_09h39.12.096,REPSWITCH1_version1_list3,2022.2.4,143.9244460002626,
REPSWITCH1/PICTURE_319.png,vaca,speak,gold,filler,2,F,1,2,3,1,Stim1_Set4,0,None,22,21,22,0,21,21,21,,,,,,,,,,,,,,,,,,,,,,,113.00608999980614,114.10348939988762,114.10348939988762,114.10348939988762,114.10348939988762,114.10348939988762,114.10348939988762,114.10348939988762,114.10348939988762,None,0,,,C:\2023\REPSWITCH21092023\REPSWITCH_excgange\REPSWITCH_excgange\data/370103_REPSWITCH1_version1_list3_2023-12-13_09h39.12.096_micRespv1l3_recorded\recording_micRespv1l3_2023-12-13_09h41.02.137.wav,117.138563899789,117.63863909989595,None,117.10379950003698,117.10379950003698,117.10379950003698,117.10379950003698,117.10379950003698,117.10379950003698,,,,,,370103,001,2023-12-13_09h39.12.096,REPSWITCH1_version1_list3,2022.2.4,143.9244460002626,
REPSWITCH1/PICTURE_338.png,regalo,type,darkblue,filler,1,F,1,2,3,1,Stim6_Set4,0,None,23,22,23,0,22,22,22,,,,,,,,,,,,,,,,,,,,,,,117.63863909989595,118.83329709991813,118.83329709991813,118.83329709991813,118.83329709991813,118.83329709991813,118.83329709991813,118.83329709991813,118.83329709991813,"['r', 'e', 'g', 'a', 'l', 'o']",0,"[0.9592104000039399, 1.091937500052154, 1.2930137002840638, 1.356816700194031, 1.477381099946797, 1.6455347002483904]",regalo,C:\2023\REPSWITCH21092023\REPSWITCH_excgange\REPSWITCH_excgange\data/370103_REPSWITCH1_version1_list3_2023-12-13_09h39.12.096_micRespv1l3_recorded\recording_micRespv1l3_2023-12-13_09h41.06.857.wav,121.86140839988366,122.36152900010347,None,121.86140839988366,121.86140839988366,121.86140839988366,121.86140839988366,121.86140839988366,121.86140839988366,,,,,,370103,001,2023-12-13_09h39.12.096,REPSWITCH1_version1_list3,2022.2.4,143.9244460002626,
REPSWITCH1/PICTURE_142.png,vaso,type,darkblue,nontarget,1,NT,1,2,3,1,Stim7_Set1,0,None,24,23,24,0,23,23,23,,,,,,,,,,,,,,,,,,,,,,,122.36152900010347,123.46578219998628,123.46578219998628,123.46578219998628,123.46578219998628,123.46578219998628,123.46578219998628,123.46578219998628,123.46578219998628,"['v', 'a', 's', 'o']",0,"[0.909232399892062, 1.0898317000828683, 1.1725544999353588, 1.3502730000764132]",vaso,C:\2023\REPSWITCH21092023\REPSWITCH_excgange\REPSWITCH_excgange\data/370103_REPSWITCH1_version1_list3_2023-12-13_09h39.12.096_micRespv1l3_recorded\recording_micRespv1l3_2023-12-13_09h41.11.489.wav,126.49394939979538,126.99399410001934,None,126.49394939979538,126.49394939979538,126.49394939979538,126.49394939979538,126.49394939979538,126.49394939979538,,,,,,370103,001,2023-12-13_09h39.12.096,REPSWITCH1_version1_list3,2022.2.4,143.9244460002626,
REPSWITCH1/PICTURE_142.png,vaso,speak,gold,switch,2,T,1,2,3,1,Stim7_Set1,0,None,25,24,25,0,24,24,24,,,,,,,,,,,,,,,,,,,,,,,126.99399410001934,128.1192212998867,128.1192212998867,128.1192212998867,128.1192212998867,128.1192212998867,128.1192212998867,128.1192212998867,128.1192212998867,None,0,,,C:\2023\REPSWITCH21092023\REPSWITCH_excgange\REPSWITCH_excgange\data/370103_REPSWITCH1_version1_list3_2023-12-13_09h39.12.096_micRespv1l3_recorded\recording_micRespv1l3_2023-12-13_09h41.16.141.wav,131.14037440018728,131.64046170003712,None,131.14037440018728,131.14037440018728,131.14037440018728,131.14037440018728,131.14037440018728,131.14037440018728,,,,,,370103,001,2023-12-13_09h39.12.096,REPSWITCH1_version1_list3,2022.2.4,143.9244460002626,
REPSWITCH1/PICTURE_687.png,camisa,type,darkblue,filler,1,F,1,2,3,1,Stim5_Set4,1,switch,26,25,26,0,25,25,25,,,,,,,,,,,,,,,,,,,,,,,131.64046170003712,132.69615889992565,132.69615889992565,132.69615889992565,132.69615889992565,132.69615889992565,132.69615889992565,132.69615889992565,132.69615889992565,"['c', 'a', 'm', 'i', 's', 'a']",0,"[1.166421600151807, 1.2232042998075485, 1.342826799955219, 1.4564479999244213, 1.5272065000608563, 1.6368400999344885]",camisa,C:\2023\REPSWITCH21092023\REPSWITCH_excgange\REPSWITCH_excgange\data/370103_REPSWITCH1_version1_list3_2023-12-13_09h39.12.096_micRespv1l3_recorded\recording_micRespv1l3_2023-12-13_09h41.20.720.wav,135.72433649981394,136.22440150007606,None,135.72433649981394,135.72433649981394,135.72433649981394,135.72433649981394,135.72433649981394,135.72433649981394,,,,,,370103,001,2023-12-13_09h39.12.096,REPSWITCH1_version1_list3,2022.2.4,143.9244460002626,
REPSWITCH1/PICTURE_30.png,granja,type,darkblue,nontarget,1,NT,2,2,3,1,Stim5_Set2,0,None,27,26,27,0,26,26,26,,,,,,,,,,,,,,,,,,,,,,,136.22440150007606,137.36339769978076,137.36339769978076,137.36339769978076,137.36339769978076,137.36339769978076,137.36339769978076,137.36339769978076,137.36339769978076,"['g', 'r', 'a', 'n', 'j', 'a']",0,"[2.17787959985435, 2.256768699735403, 2.4155970998108387, 2.580634099896997, 2.651587199885398, 2.8289947998709977]",granja,C:\2023\REPSWITCH21092023\REPSWITCH_excgange\REPSWITCH_excgange\data/370103_REPSWITCH1_version1_list3_2023-12-13_09h39.12.096_micRespv1l3_recorded\recording_micRespv1l3_2023-12-13_09h41.25.387.wav,140.3915888001211,140.8916756999679,None,140.3915888001211,140.3915888001211,140.3915888001211,140.3915888001211,140.3915888001211,140.3915888001211,,,,,,370103,001,2023-12-13_09h39.12.096,REPSWITCH1_version1_list3,2022.2.4,143.9244460002626,
REPSWITCH1/PICTURE_30.png,granja,type,darkblue,repeat,1,T,2,2,3,1,Stim5_Set2,0,None,28,27,28,0,27,27,27,,,,,,,,,,,,,,,,,,,,,,,140.8916756999679,142.01683170022443,142.01683170022443,142.01683170022443,142.01683170022443,142.01683170022443,142.01683170022443,142.01683170022443,142.01683170022443,"['g', 'r', 'a', 'n', 'j', 'a']",0,"[0.823078800458461, 0.8868617000989616, 0.9964931001886725, 1.1393560003489256, 1.2001171000301838, 1.4582519000396132]",granja,C:\2023\REPSWITCH21092023\REPSWITCH_excgange\REPSWITCH_excgange\data/370103_REPSWITCH1_version1_list3_2023-12-13_09h39.12.096_micRespv1l3_recorded\recording_micRespv1l3_2023-12-13_09h41.30.039.wav,145.04503430007026,,None,145.04503430007026,145.04503430007026,145.04503430007026,145.04503430007026,145.04503430007026,145.04503430007026,,,,,,370103,001,2023-12-13_09h39.12.096,REPSWITCH1_version1_list3,2022.2.4,143.9244460002626,
REPSWITCH1/PICTURE_128.png,muñeca,speak,gold,filler,2,F,2,2,3,1,Stim4_Set1,0,None,29,28,29,0,28,28,28,,,,,,,,,,,,,,,,,,,,,,,145.54511909978464,146.63549719983712,146.63549719983712,146.63549719983712,146.63549719983712,146.63549719983712,146.63549719983712,146.63549719983712,146.63549719983712,None,0,,,C:\2023\REPSWITCH21092023\REPSWITCH_excgange\REPSWITCH_excgange\data/370103_REPSWITCH1_version1_list3_2023-12-13_09h39.12.096_micRespv1l3_recorded\recording_micRespv1l3_2023-12-13_09h41.34.658.wav,149.6567045999691,150.15674629993737,None,149.6567045999691,149.6567045999691,149.6567045999691,149.6567045999691,149.6567045999691,149.6567045999691,,,,,,370103,001,2023-12-13_09h39.12.096,REPSWITCH1_version1_list3,2022.2.4,143.9244460002626,
REPSWITCH1/PICTURE_264.png,mano,type,darkblue,nontarget,1,NT,2,2,3,1,Stim3_Set2,1,switch,30,29,30,0,29,29,29,,,,,,,,,,,,,,,,,,,,,,,150.15674629993737,151.22643220005557,151.22643220005557,151.22643220005557,151.22643220005557,151.22643220005557,151.22643220005557,151.22643220005557,151.22643220005557,"['m', 'a', 'n', 'o']",0,"[0.7902219002135098, 1.114255900029093, 1.1970367999747396, 1.5530137000605464]",mano,C:\2023\REPSWITCH21092023\REPSWITCH_excgange\REPSWITCH_excgange\data/370103_REPSWITCH1_version1_list3_2023-12-13_09h39.12.096_micRespv1l3_recorded\recording_micRespv1l3_2023-12-13_09h41.39.250.wav,154.25453949999064,154.75460019987077,None,154.25453949999064,154.25453949999064,154.25453949999064,154.25453949999064,154.25453949999064,154.25453949999064,,,,,,370103,001,2023-12-13_09h39.12.096,REPSWITCH1_version1_list3,2022.2.4,143.9244460002626,
REPSWITCH1/PICTURE_264.png,mano,type,darkblue,repeat,1,T,2,2,3,1,Stim3_Set2,0,None,31,30,31,0,30,30,30,,,,,,,,,,,,,,,,,,,,,,,154.75460019987077,155.80333530018106,155.80333530018106,155.80333530018106,155.80333530018106,155.80333530018106,155.80333530018106,155.80333530018106,155.80333530018106,"['m', 'a', 'n', 'o']",0,"[0.6838752003386617, 0.8433234002441168, 0.9712358000688255, 1.0442977002821863]",mano,C:\2023\REPSWITCH21092023\REPSWITCH_excgange\REPSWITCH_excgange\data/370103_REPSWITCH1_version1_list3_2023-12-13_09h39.12.096_micRespv1l3_recorded\recording_micRespv1l3_2023-12-13_09h41.43.826.wav,158.8315133000724,,None,158.8315133000724,158.8315133000724,158.8315133000724,158.8315133000724,158.8315133000724,158.8315133000724,,,,,,370103,001,2023-12-13_09h39.12.096,REPSWITCH1_version1_list3,2022.2.4,143.9244460002626,
REPSWITCH1/PICTURE_175.png,pintor,type,darkblue,nontarget,1,NT,2,2,3,1,Stim1_Set2,0,None,32,31,32,0,31,31,31,,,,,,,,,,,,,,,,,,,,,,,159.33162799989805,160.48452140018344,160.48452140018344,160.48452140018344,160.48452140018344,160.48452140018344,160.48452140018344,160.48452140018344,160.48452140018344,"['p', 'i', 'n', 't', 'o', 'r', 'a']",0,"[1.3050313000567257, 1.438580000307411, 1.667089099995792, 1.7638012003153563, 1.9900666000321507, 2.0707829003222287, 2.188350500073284]",pintora,C:\2023\REPSWITCH21092023\REPSWITCH_excgange\REPSWITCH_excgange\data/370103_REPSWITCH1_version1_list3_2023-12-13_09h39.12.096_micRespv1l3_recorded\recording_micRespv1l3_2023-12-13_09h41.48.509.wav,163.51277149980888,164.0127592999488,None,163.51277149980888,163.51277149980888,163.51277149980888,163.51277149980888,163.51277149980888,163.51277149980888,,,,,,370103,001,2023-12-13_09h39.12.096,REPSWITCH1_version1_list3,2022.2.4,143.9244460002626,
REPSWITCH1/PICTURE_175.png,pintor,speak,gold,switch,2,T,2,2,3,1,Stim1_Set2,0,None,33,32,33,0,32,32,32,,,,,,,,,,,,,,,,,,,,,,,164.0127592999488,165.11712469998747,165.11712469998747,165.11712469998747,165.11712469998747,165.11712469998747,165.11712469998747,165.11712469998747,165.11712469998747,None,0,,,C:\2023\REPSWITCH21092023\REPSWITCH_excgange\REPSWITCH_excgange\data/370103_REPSWITCH1_version1_list3_2023-12-13_09h39.12.096_micRespv1l3_recorded\recording_micRespv1l3_2023-12-13_09h41.53.139.wav,168.13827499980107,168.63836630014703,None,168.13827499980107,168.13827499980107,168.13827499980107,168.13827499980107,168.13827499980107,168.13827499980107,,,,,,370103,001,2023-12-13_09h39.12.096,REPSWITCH1_version1_list3,2022.2.4,143.9244460002626,
REPSWITCH1/PICTURE_135.png,traje,speak,gold,filler,2,F,2,2,3,1,Stim3_Set1,1,repeat,34,33,34,0,33,33,33,,,,,,,,,,,,,,,,,,,,,,,168.63836630014703,169.81211609998718,169.81211609998718,169.81211609998718,169.81211609998718,169.81211609998718,169.81211609998718,169.81211609998718,169.81211609998718,None,0,,,C:\2023\REPSWITCH21092023\REPSWITCH_excgange\REPSWITCH_excgange\data/370103_REPSWITCH1_version1_list3_2023-12-13_09h39.12.096_micRespv1l3_recorded\recording_micRespv1l3_2023-12-13_09h41.57.834.wav,172.8334373999387,173.3334367000498,None,172.8334373999387,172.8334373999387,172.8334373999387,172.8334373999387,172.8334373999387,172.8334373999387,,,,,,370103,001,2023-12-13_09h39.12.096,REPSWITCH1_version1_list3,2022.2.4,143.9244460002626,
REPSWITCH1/PICTURE_446.png,cerdo,speak,gold,nontarget,2,NT,2,2,3,1,Stim7_Set2,1,repeat,35,34,35,0,34,34,34,,,,,,,,,,,,,,,,,,,,,,,173.3334367000498,174.4446874000132,174.4446874000132,174.4446874000132,174.4446874000132,174.4446874000132,174.4446874000132,174.4446874000132,174.4446874000132,None,0,,,C:\2023\REPSWITCH21092023\REPSWITCH_excgange\REPSWITCH_excgange\data/370103_REPSWITCH1_version1_list3_2023-12-13_09h39.12.096_micRespv1l3_recorded\recording_micRespv1l3_2023-12-13_09h42.02.468.wav,177.47283479990438,177.97289540013298,None,177.47283479990438,177.47283479990438,177.47283479990438,177.47283479990438,177.47283479990438,177.47283479990438,,,,,,370103,001,2023-12-13_09h39.12.096,REPSWITCH1_version1_list3,2022.2.4,143.9244460002626,
REPSWITCH1/PICTURE_446.png,cerdo,type,darkblue,switch,1,T,2,2,3,1,Stim7_Set2,0,None,36,35,36,0,35,35,35,,,,,,,,,,,,,,,,,,,,,,,177.97289540013298,179.02860500011593,179.02860500011593,179.02860500011593,179.02860500011593,179.02860500011593,179.02860500011593,179.02860500011593,179.02860500011593,"['c', 'e', 'r', 'd', 'o']",0,"[0.7742969002574682, 0.9910862003453076, 1.0339257000014186, 1.2203036001883447, 1.3358971001580358]",cerdo,C:\2023\REPSWITCH21092023\REPSWITCH_excgange\REPSWITCH_excgange\data/370103_REPSWITCH1_version1_list3_2023-12-13_09h39.12.096_micRespv1l3_recorded\recording_micRespv1l3_2023-12-13_09h42.07.050.wav,182.04982439987361,182.54987239977345,None,182.04982439987361,182.04982439987361,182.04982439987361,182.04982439987361,182.04982439987361,182.04982439987361,,,,,,370103,001,2023-12-13_09h39.12.096,REPSWITCH1_version1_list3,2022.2.4,143.9244460002626,
REPSWITCH1/PICTURE_152.png,caracol,type,darkblue,nontarget,1,NT,2,2,3,1,Stim2_Set2,1,repeat,37,36,37,0,36,36,36,,,,,,,,,,,,,,,,,,,,,,,182.54987239977345,183.65420620003715,183.65420620003715,183.65420620003715,183.65420620003715,183.65420620003715,183.65420620003715,183.65420620003715,183.65420620003715,"['c', 'a', 'r', 'a', 'c', 'o', 'l']",0,"[1.1082419999875128, 1.2418419001623988, 1.4679988999851048, 1.6076015001162887, 1.6874722000211477, 1.8466602000407875, 2.040891700424254]",caracol,C:\2023\REPSWITCH21092023\REPSWITCH_excgange\REPSWITCH_excgange\data/370103_REPSWITCH1_version1_list3_2023-12-13_09h39.12.096_micRespv1l3_recorded\recording_micRespv1l3_2023-12-13_09h42.11.677.wav,186.68246839987114,,None,186.68246839987114,186.68246839987114,186.68246839987114,186.68246839987114,186.68246839987114,186.68246839987114,,,,,,370103,001,2023-12-13_09h39.12.096,REPSWITCH1_version1_list3,2022.2.4,143.9244460002626,
REPSWITCH1/PICTURE_152.png,caracol,speak,gold,switch,2,T,2,2,3,1,Stim2_Set2,0,None,38,37,38,0,37,37,37,,,,,,,,,,,,,,,,,,,,,,,187.18243690021336,188.29371679993346,188.29371679993346,188.29371679993346,188.29371679993346,188.29371679993346,188.29371679993346,188.29371679993346,188.29371679993346,None,0,,,C:\2023\REPSWITCH21092023\REPSWITCH_excgange\REPSWITCH_excgange\data/370103_REPSWITCH1_version1_list3_2023-12-13_09h39.12.096_micRespv1l3_recorded\recording_micRespv1l3_2023-12-13_09h42.16.317.wav,191.32186579983681,,None,191.32186579983681,191.32186579983681,191.32186579983681,191.32186579983681,191.32186579983681,191.32186579983681,,,,,,370103,001,2023-12-13_09h39.12.096,REPSWITCH1_version1_list3,2022.2.4,143.9244460002626,
REPSWITCH1/PICTURE_16.png,cazador,type,darkblue,filler,1,F,2,2,3,1,Stim6_Set1,0,None,39,38,39,0,38,38,38,,,,,,,,,,,,,,,,,,,,,,,191.82195510016754,192.90549540007487,192.90549540007487,192.90549540007487,192.90549540007487,192.90549540007487,192.90549540007487,192.90549540007487,192.90549540007487,"['c', 'a', 'z', 'a', 'd', 'o', 'r']",0,"[0.8192674000747502, 0.9210638999938965, 1.1780448998324573, 1.400603000074625, 1.7962170001119375, 1.955975600052625, 2.08364380011335]",cazador,C:\2023\REPSWITCH21092023\REPSWITCH_excgange\REPSWITCH_excgange\data/370103_REPSWITCH1_version1_list3_2023-12-13_09h39.12.096_micRespv1l3_recorded\recording_micRespv1l3_2023-12-13_09h42.20.927.wav,195.92668920010328,196.42673170007765,None,195.92668920010328,195.92668920010328,195.92668920010328,195.92668920010328,195.92668920010328,195.92668920010328,,,,,,370103,001,2023-12-13_09h39.12.096,REPSWITCH1_version1_list3,2022.2.4,143.9244460002626,
REPSWITCH1/PICTURE_381.png,fresa,speak,gold,filler,2,F,2,2,3,1,Stim2_Set1,0,None,40,39,40,0,39,39,39,,,,,,,,,,,,,,,,,,,,,,,196.42673170007765,197.5588529999368,197.5588529999368,197.5588529999368,197.5588529999368,197.5588529999368,197.5588529999368,197.5588529999368,197.5588529999368,None,0,,,C:\2023\REPSWITCH21092023\REPSWITCH_excgange\REPSWITCH_excgange\data/370103_REPSWITCH1_version1_list3_2023-12-13_09h39.12.096_micRespv1l3_recorded\recording_micRespv1l3_2023-12-13_09h42.25.581.wav,200.58008139999583,201.08012280007824,None,200.58008139999583,200.58008139999583,200.58008139999583,200.58008139999583,200.58008139999583,200.58008139999583,,,,,,370103,001,2023-12-13_09h39.12.096,REPSWITCH1_version1_list3,2022.2.4,143.9244460002626,
REPSWITCH1/PICTURE_19.png,pavo,type,darkblue,filler,1,F,2,2,3,1,Stim5_Set1,0,None,41,40,41,0,40,40,40,,,,,,,,,,,,,,,,,,,,,,,201.08012280007824,202.33027820009738,202.33027820009738,202.33027820009738,202.33027820009738,202.33027820009738,202.33027820009738,202.33027820009738,202.33027820009738,"['p', 'a', 'v', 'o']",0,"[1.0119221997447312, 1.129453499801457, 1.169187500141561, 1.3356607998721302]",pavo,C:\2023\REPSWITCH21092023\REPSWITCH_excgange\REPSWITCH_excgange\data/370103_REPSWITCH1_version1_list3_2023-12-13_09h39.12.096_micRespv1l3_recorded\recording_micRespv1l3_2023-12-13_09h42.30.353.wav,205.35851299995556,,None,205.35851299995556,205.35851299995556,205.35851299995556,205.35851299995556,205.35851299995556,205.35851299995556,,,,,,370103,001,2023-12-13_09h39.12.096,REPSWITCH1_version1_list3,2022.2.4,143.9244460002626,
REPSWITCH1/PICTURE_517.png,cuerda,speak,gold,nontarget,2,NT,2,2,3,1,Stim4_Set2,1,switch,42,41,42,0,41,41,41,,,,,,,,,,,,,,,,,,,,,,,205.85852540004998,206.893381500151,206.893381500151,206.893381500151,206.893381500151,206.893381500151,206.893381500151,206.893381500151,206.893381500151,None,0,,,C:\2023\REPSWITCH21092023\REPSWITCH_excgange\REPSWITCH_excgange\data/370103_REPSWITCH1_version1_list3_2023-12-13_09h39.12.096_micRespv1l3_recorded\recording_micRespv1l3_2023-12-13_09h42.34.917.wav,209.92162760021165,210.42161790002137,None,209.92162760021165,209.92162760021165,209.92162760021165,209.92162760021165,209.92162760021165,209.92162760021165,,,,,,370103,001,2023-12-13_09h39.12.096,REPSWITCH1_version1_list3,2022.2.4,143.9244460002626,
REPSWITCH1/PICTURE_517.png,cuerda,speak,gold,repeat,2,T,2,2,3,1,Stim4_Set2,0,None,43,42,43,0,42,42,42,,,,,,,,,,,,,,,,,,,,,,,210.42161790002137,211.53990809991956,211.53990809991956,211.53990809991956,211.53990809991956,211.53990809991956,211.53990809991956,211.53990809991956,211.53990809991956,None,0,,,C:\2023\REPSWITCH21092023\REPSWITCH_excgange\REPSWITCH_excgange\data/370103_REPSWITCH1_version1_list3_2023-12-13_09h39.12.096_micRespv1l3_recorded\recording_micRespv1l3_2023-12-13_09h42.39.562.wav,214.56803369987756,,None,214.56803369987756,214.56803369987756,214.56803369987756,214.56803369987756,214.56803369987756,214.56803369987756,,,,,,370103,001,2023-12-13_09h39.12.096,REPSWITCH1_version1_list3,2022.2.4,143.9244460002626,
REPSWITCH1/PICTURE_178.png,puente,type,darkblue,filler,1,F,2,2,3,1,Stim1_Set1,0,None,44,43,44,0,43,43,43,,,,,,,,,,,,,,,,,,,,,,,215.0680555999279,216.1584928999655,216.1584928999655,216.1584928999655,216.1584928999655,216.1584928999655,216.1584928999655,216.1584928999655,216.1584928999655,"['p', 'u', 'e', 'n', 't', 'e']",0,"[0.9389640004374087, 1.0595633001066744, 1.2100939000956714, 1.337937300093472, 1.4353106003254652, 1.4762794002890587]",puente,C:\2023\REPSWITCH21092023\REPSWITCH_excgange\REPSWITCH_excgange\data/370103_REPSWITCH1_version1_list3_2023-12-13_09h39.12.096_micRespv1l3_recorded\recording_micRespv1l3_2023-12-13_09h42.44.180.wav,219.1797202997841,219.67982870014384,None,219.1797202997841,219.1797202997841,219.1797202997841,219.1797202997841,219.1797202997841,219.1797202997841,,,,,,370103,001,2023-12-13_09h39.12.096,REPSWITCH1_version1_list3,2022.2.4,143.9244460002626,
REPSWITCH1/PICTURE_199.png,falda,speak,gold,nontarget,2,NT,2,2,3,1,Stim8_Set2,1,switch,45,44,45,0,44,44,44,,,,,,,,,,,,,,,,,,,,,,,219.67982870014384,220.75639150012285,220.75639150012285,220.75639150012285,220.75639150012285,220.75639150012285,220.75639150012285,220.75639150012285,220.75639150012285,None,0,,,C:\2023\REPSWITCH21092023\REPSWITCH_excgange\REPSWITCH_excgange\data/370103_REPSWITCH1_version1_list3_2023-12-13_09h39.12.096_micRespv1l3_recorded\recording_micRespv1l3_2023-12-13_09h42.48.780.wav,223.7844877000898,224.2845620000735,None,223.7844877000898,223.7844877000898,223.7844877000898,223.7844877000898,223.7844877000898,223.7844877000898,,,,,,370103,001,2023-12-13_09h39.12.096,REPSWITCH1_version1_list3,2022.2.4,143.9244460002626,
REPSWITCH1/PICTURE_199.png,falda,speak,gold,repeat,2,T,2,2,3,1,Stim8_Set2,0,None,46,45,46,0,45,45,45,,,,,,,,,,,,,,,,,,,,,,,224.2845620000735,225.34030140005052,225.34030140005052,225.34030140005052,225.34030140005052,225.34030140005052,225.34030140005052,225.34030140005052,225.34030140005052,None,0,,,C:\2023\REPSWITCH21092023\REPSWITCH_excgange\REPSWITCH_excgange\data/370103_REPSWITCH1_version1_list3_2023-12-13_09h39.12.096_micRespv1l3_recorded\recording_micRespv1l3_2023-12-13_09h42.53.362.wav,228.36146409995854,228.86152180004865,None,228.36146409995854,228.36146409995854,228.36146409995854,228.36146409995854,228.36146409995854,228.36146409995854,,,,,,370103,001,2023-12-13_09h39.12.096,REPSWITCH1_version1_list3,2022.2.4,143.9244460002626,
REPSWITCH1/PICTURE_169.png,espalda,type,darkblue,filler,1,F,2,2,3,1,Stim8_Set1,0,None,47,46,47,0,46,46,46,,,,,,,,,,,,,,,,,,,,,,,228.86152180004865,230.0075151999481,230.0075151999481,230.0075151999481,230.0075151999481,230.0075151999481,230.0075151999481,230.0075151999481,230.0075151999481,"['e', 's', 'p', 'a', 'l', 'a', 'backspace', 'd', 'a']",0,"[0.8143417001701891, 0.8741280999965966, 0.9947112998925149, 1.1630767001770437, 1.2517936998046935, 1.4560932000167668, 1.8853374999016523, 1.9846491999924183, 2.0405688998289406]",espalda,C:\2023\REPSWITCH21092023\REPSWITCH_excgange\REPSWITCH_excgange\data/370103_REPSWITCH1_version1_list3_2023-12-13_09h39.12.096_micRespv1l3_recorded\recording_micRespv1l3_2023-12-13_09h42.58.029.wav,233.02879399992526,233.52879039989784,None,233.02879399992526,233.02879399992526,233.02879399992526,233.02879399992526,233.02879399992526,233.02879399992526,,,,,,370103,001,2023-12-13_09h39.12.096,REPSWITCH1_version1_list3,2022.2.4,143.9244460002626,
REPSWITCH1/PICTURE_142.png,vaso,speak,gold,filler,2,F,2,2,3,1,Stim7_Set1,0,None,48,47,48,0,47,47,47,,,,,,,,,,,,,,,,,,,,,,,233.52879039989784,234.6817931002006,234.6817931002006,234.6817931002006,234.6817931002006,234.6817931002006,234.6817931002006,234.6817931002006,234.6817931002006,None,0,,,C:\2023\REPSWITCH21092023\REPSWITCH_excgange\REPSWITCH_excgange\data/370103_REPSWITCH1_version1_list3_2023-12-13_09h39.12.096_micRespv1l3_recorded\recording_micRespv1l3_2023-12-13_09h43.02.704.wav,237.7029396998696,238.20303779980168,None,237.7029396998696,237.7029396998696,237.7029396998696,237.7029396998696,237.7029396998696,237.7029396998696,,,,,,370103,001,2023-12-13_09h39.12.096,REPSWITCH1_version1_list3,2022.2.4,143.9244460002626,
REPSWITCH1/PICTURE_552.png,manzana,speak,gold,nontarget,2,NT,2,2,3,1,Stim6_Set2,0,None,49,48,49,0,48,48,48,,,,,,,,,,,,,,,,,,,,,,,238.20303779980168,239.34209189983085,239.34209189983085,239.34209189983085,239.34209189983085,239.34209189983085,239.34209189983085,239.34209189983085,239.34209189983085,None,0,,,C:\2023\REPSWITCH21092023\REPSWITCH_excgange\REPSWITCH_excgange\data/370103_REPSWITCH1_version1_list3_2023-12-13_09h39.12.096_micRespv1l3_recorded\recording_micRespv1l3_2023-12-13_09h43.07.364.wav,242.3632726999931,242.86337290005758,None,242.3632726999931,242.3632726999931,242.3632726999931,242.3632726999931,242.3632726999931,242.3632726999931,,,,,,370103,001,2023-12-13_09h39.12.096,REPSWITCH1_version1_list3,2022.2.4,143.9244460002626,
REPSWITCH1/PICTURE_552.png,manzana,type,darkblue,switch,1,T,2,2,3,1,Stim6_Set2,0,None,50,49,50,0,49,49,49,,,,,,,,,,,,,,,,,,,,,,,242.86337290005758,243.93302450003102,243.93302450003102,243.93302450003102,243.93302450003102,243.93302450003102,243.93302450003102,243.93302450003102,243.93302450003102,"['f', 'r', 'e', 's', 'a']",0,"[0.7900705002248287, 1.1790338000282645, 1.2967189000919461, 1.5758690000511706, 1.7728137001395226]",fresa,C:\2023\REPSWITCH21092023\REPSWITCH_excgange\REPSWITCH_excgange\data/370103_REPSWITCH1_version1_list3_2023-12-13_09h39.12.096_micRespv1l3_recorded\recording_micRespv1l3_2023-12-13_09h43.11.956.wav,246.95422630012035,247.45426429994404,None,246.95422630012035,246.95422630012035,246.95422630012035,246.95422630012035,246.95422630012035,246.95422630012035,,,,,,370103,001,2023-12-13_09h39.12.096,REPSWITCH1_version1_list3,2022.2.4,143.9244460002626,
REPSWITCH1/PICTURE_590.png,escoba,speak,gold,filler,2,F,1,2,3,1,Extra3,0,None,51,50,51,0,50,50,50,,,,,,,,,,,,,,,,,,,,,,,247.45426429994404,248.482166999951,248.482166999951,248.482166999951,248.482166999951,248.482166999951,248.482166999951,248.482166999951,248.482166999951,None,0,,,C:\2023\REPSWITCH21092023\REPSWITCH_excgange\REPSWITCH_excgange\data/370103_REPSWITCH1_version1_list3_2023-12-13_09h39.12.096_micRespv1l3_recorded\recording_micRespv1l3_2023-12-13_09h43.16.505.wav,251.51041240012273,252.0103927999735,space,251.51041240012273,251.51041240012273,251.51041240012273,251.51041240012273,251.51041240012273,251.51041240012273,252.0103927999735,252.0103927999735,0.6593492003157735,,,370103,001,2023-12-13_09h39.12.096,REPSWITCH1_version1_list3,2022.2.4,143.9244460002626,
REPSWITCH1/PICTURE_552.png,manzana,type,darkblue,filler,1,F,3,2,3,1,Stim6_Set2,0,None,52,51,52,0,51,51,51,,,,,,,,,,,,,,,,,,,,,,,252.67715380014852,253.69117109989747,253.69117109989747,253.69117109989747,253.69117109989747,253.69117109989747,253.69117109989747,253.69117109989747,253.69117109989747,"['f', 'r', 'e', 's', 'a']",0,"[0.7239356003701687, 0.9554837001487613, 1.0272265002131462, 1.235529700294137, 1.3013360002078116]",fresa,C:\2023\REPSWITCH21092023\REPSWITCH_excgange\REPSWITCH_excgange\data/370103_REPSWITCH1_version1_list3_2023-12-13_09h39.12.096_micRespv1l3_recorded\recording_micRespv1l3_2023-12-13_09h43.21.712.wav,256.7124156001955,257.2124781999737,None,256.7124156001955,256.7124156001955,256.7124156001955,256.7124156001955,256.7124156001955,256.7124156001955,,,,,,370103,001,2023-12-13_09h39.12.096,REPSWITCH1_version1_list3,2022.2.4,143.9244460002626,
REPSWITCH1/PICTURE_464.png,goma,type,darkblue,nontarget,1,NT,3,2,3,1,Stim6_Set3,1,repeat,53,52,53,0,52,52,52,,,,,,,,,,,,,,,,,,,,,,,257.2124781999737,258.37235559988767,258.37235559988767,258.37235559988767,258.37235559988767,258.37235559988767,258.37235559988767,258.37235559988767,258.37235559988767,"['g', 'o', 'm', 'a']",0,"[1.03826649999246, 1.207187999971211, 1.3490031999535859, 1.4911124999634922]",goma,C:\2023\REPSWITCH21092023\REPSWITCH_excgange\REPSWITCH_excgange\data/370103_REPSWITCH1_version1_list3_2023-12-13_09h39.12.096_micRespv1l3_recorded\recording_micRespv1l3_2023-12-13_09h43.26.396.wav,261.40052920021117,261.90059179998934,None,261.40052920021117,261.40052920021117,261.40052920021117,261.40052920021117,261.40052920021117,261.40052920021117,,,,,,370103,001,2023-12-13_09h39.12.096,REPSWITCH1_version1_list3,2022.2.4,143.9244460002626,
REPSWITCH1/PICTURE_464.png,goma,speak,gold,switch,2,T,3,2,3,1,Stim6_Set3,0,None,54,53,54,0,53,53,53,,,,,,,,,,,,,,,,,,,,,,,261.90059179998934,263.025799700059,263.025799700059,263.025799700059,263.025799700059,263.025799700059,263.025799700059,263.025799700059,263.025799700059,None,0,,,C:\2023\REPSWITCH21092023\REPSWITCH_excgange\REPSWITCH_excgange\data/370103_REPSWITCH1_version1_list3_2023-12-13_09h39.12.096_micRespv1l3_recorded\recording_micRespv1l3_2023-12-13_09h43.31.048.wav,266.04694500006735,266.5470432001166,None,266.04694500006735,266.04694500006735,266.04694500006735,266.04694500006735,266.04694500006735,266.04694500006735,,,,,,370103,001,2023-12-13_09h39.12.096,REPSWITCH1_version1_list3,2022.2.4,143.9244460002626,
REPSWITCH1/PICTURE_30.png,granja,speak,gold,filler,2,F,3,2,3,1,Stim5_Set2,0,None,55,54,55,0,54,54,54,,,,,,,,,,,,,,,,,,,,,,,266.5470432001166,267.6652085999958,267.6652085999958,267.6652085999958,267.6652085999958,267.6652085999958,267.6652085999958,267.6652085999958,267.6652085999958,None,0,,,C:\2023\REPSWITCH21092023\REPSWITCH_excgange\REPSWITCH_excgange\data/370103_REPSWITCH1_version1_list3_2023-12-13_09h39.12.096_micRespv1l3_recorded\recording_micRespv1l3_2023-12-13_09h43.35.688.wav,270.6934472997673,,None,270.6934472997673,270.6934472997673,270.6934472997673,270.6934472997673,270.6934472997673,270.6934472997673,,,,,,370103,001,2023-12-13_09h39.12.096,REPSWITCH1_version1_list3,2022.2.4,143.9244460002626,
REPSWITCH1/PICTURE_235.png,aguja,speak,gold,nontarget,2,NT,3,2,3,1,Stim4_Set3,1,repeat,56,55,56,0,55,55,55,,,,,,,,,,,,,,,,,,,,,,,271.19348010001704,272.3950255000964,272.3950255000964,272.3950255000964,272.3950255000964,272.3950255000964,272.3950255000964,272.3950255000964,272.3950255000964,None,0,,,C:\2023\REPSWITCH21092023\REPSWITCH_excgange\REPSWITCH_excgange\data/370103_REPSWITCH1_version1_list3_2023-12-13_09h39.12.096_micRespv1l3_recorded\recording_micRespv1l3_2023-12-13_09h43.40.418.wav,275.4231957998127,,None,275.4231957998127,275.4231957998127,275.4231957998127,275.4231957998127,275.4231957998127,275.4231957998127,,,,,,370103,001,2023-12-13_09h39.12.096,REPSWITCH1_version1_list3,2022.2.4,143.9244460002626,
REPSWITCH1/PICTURE_235.png,aguja,type,darkblue,switch,1,T,3,2,3,1,Stim4_Set3,0,None,57,56,57,0,56,56,56,,,,,,,,,,,,,,,,,,,,,,,275.9232501001097,276.95813150005415,276.95813150005415,276.95813150005415,276.95813150005415,276.95813150005415,276.95813150005415,276.95813150005415,276.95813150005415,"['a', 'g', 'u', 'j', 'a']",0,"[0.9345215004868805, 0.9893232001923025, 1.178691300097853, 1.3780946005135775, 1.4301541005261242]",aguja,C:\2023\REPSWITCH21092023\REPSWITCH_excgange\REPSWITCH_excgange\data/370103_REPSWITCH1_version1_list3_2023-12-13_09h39.12.096_micRespv1l3_recorded\recording_micRespv1l3_2023-12-13_09h43.44.981.wav,279.9793918998912,280.47941440017894,None,279.9793918998912,279.9793918998912,279.9793918998912,279.9793918998912,279.9793918998912,279.9793918998912,,,,,,370103,001,2023-12-13_09h39.12.096,REPSWITCH1_version1_list3,2022.2.4,143.9244460002626,
REPSWITCH1/PICTURE_391.png,cadena,type,darkblue,filler,1,F,3,2,3,1,Extra2,0,None,58,57,58,0,57,57,57,,,,,,,,,,,,,,,,,,,,,,,280.47941440017894,281.51427870010957,281.51427870010957,281.51427870010957,281.51427870010957,281.51427870010957,281.51427870010957,281.51427870010957,281.51427870010957,"['c', 'a', 'e', 'backspace', 'd', 'e', 'n', 'a']",0,"[1.175576000008732, 1.2781899003311992, 1.5184220001101494, 1.9100909000262618, 2.029714100062847, 2.096452900208533, 2.321096300147474, 2.511150199919939]",cadena,C:\2023\REPSWITCH21092023\REPSWITCH_excgange\REPSWITCH_excgange\data/370103_REPSWITCH1_version1_list3_2023-12-13_09h39.12.096_micRespv1l3_recorded\recording_micRespv1l3_2023-12-13_09h43.49.537.wav,284.54251950001344,,None,284.54251950001344,284.54251950001344,284.54251950001344,284.54251950001344,284.54251950001344,284.54251950001344,,,,,,370103,001,2023-12-13_09h39.12.096,REPSWITCH1_version1_list3,2022.2.4,143.9244460002626,
REPSWITCH1/PICTURE_320.png,iglesia,type,darkblue,nontarget,1,NT,3,2,3,1,Stim8_Set3,0,None,59,58,59,0,58,58,58,,,,,,,,,,,,,,,,,,,,,,,285.0425077001564,286.18159129982814,286.18159129982814,286.18159129982814,286.18159129982814,286.18159129982814,286.18159129982814,286.18159129982814,286.18159129982814,"['i', 'g', 'l', 'e', 's', 'i', 'a']",0,"[1.3959653000347316, 1.519538899883628, 1.6541634001769125, 1.7404637997969985, 1.8391518997959793, 1.9686541999690235, 2.098221200052649]",iglesia,C:\2023\REPSWITCH21092023\REPSWITCH_excgange\REPSWITCH_excgange\data/370103_REPSWITCH1_version1_list3_2023-12-13_09h39.12.096_micRespv1l3_recorded\recording_micRespv1l3_2023-12-13_09h43.54.204.wav,289.2097236998379,,None,289.2097236998379,289.2097236998379,289.2097236998379,289.2097236998379,289.2097236998379,289.2097236998379,,,,,,370103,001,2023-12-13_09h39.12.096,REPSWITCH1_version1_list3,2022.2.4,143.9244460002626,
REPSWITCH1/PICTURE_320.png,iglesia,speak,gold,switch,2,T,3,2,3,1,Stim8_Set3,0,None,60,59,60,0,59,59,59,,,,,,,,,,,,,,,,,,,,,,,289.7097674999386,290.77938879979774,290.77938879979774,290.77938879979774,290.77938879979774,290.77938879979774,290.77938879979774,290.77938879979774,290.77938879979774,None,0,,,C:\2023\REPSWITCH21092023\REPSWITCH_excgange\REPSWITCH_excgange\data/370103_REPSWITCH1_version1_list3_2023-12-13_09h39.12.096_micRespv1l3_recorded\recording_micRespv1l3_2023-12-13_09h43.58.802.wav,293.8006103001535,294.30063739977777,None,293.8006103001535,293.8006103001535,293.8006103001535,293.8006103001535,293.8006103001535,293.8006103001535,,,,,,370103,001,2023-12-13_09h39.12.096,REPSWITCH1_version1_list3,2022.2.4,143.9244460002626,
REPSWITCH1/PICTURE_175.png,pintor,type,darkblue,filler,1,F,3,2,3,1,Stim1_Set2,0,None,61,60,61,0,60,60,60,,,,,,,,,,,,,,,,,,,,,,,294.30063739977777,295.3841543002054,295.3841543002054,295.3841543002054,295.3841543002054,295.3841543002054,295.3841543002054,295.3841543002054,295.3841543002054,"['p', 'i', 'n', 't', 'o', 'r']",0,"[0.9854144002310932, 1.080096300225705, 1.307024100329727, 1.9569525001570582, 1.9958166000433266, 2.2141382000409067]",pintor,C:\2023\REPSWITCH21092023\REPSWITCH_excgange\REPSWITCH_excgange\data/370103_REPSWITCH1_version1_list3_2023-12-13_09h39.12.096_micRespv1l3_recorded\recording_micRespv1l3_2023-12-13_09h44.03.407.wav,298.4123073001392,,None,298.4123073001392,298.4123073001392,298.4123073001392,298.4123073001392,298.4123073001392,298.4123073001392,,,,,,370103,001,2023-12-13_09h39.12.096,REPSWITCH1_version1_list3,2022.2.4,143.9244460002626,
REPSWITCH1/PICTURE_271.png,conejo,speak,gold,nontarget,2,NT,3,2,3,1,Stim7_Set3,1,switch,62,61,62,0,61,61,61,,,,,,,,,,,,,,,,,,,,,,,298.9123496999964,299.9750323998742,299.9750323998742,299.9750323998742,299.9750323998742,299.9750323998742,299.9750323998742,299.9750323998742,299.9750323998742,None,0,,,C:\2023\REPSWITCH21092023\REPSWITCH_excgange\REPSWITCH_excgange\data/370103_REPSWITCH1_version1_list3_2023-12-13_09h39.12.096_micRespv1l3_recorded\recording_micRespv1l3_2023-12-13_09h44.07.999.wav,303.0032779001631,303.503272799775,None,303.0032779001631,303.0032779001631,303.0032779001631,303.0032779001631,303.0032779001631,303.0032779001631,,,,,,370103,001,2023-12-13_09h39.12.096,REPSWITCH1_version1_list3,2022.2.4,143.9244460002626,
REPSWITCH1/PICTURE_271.png,conejo,speak,gold,repeat,2,T,3,2,3,1,Stim7_Set3,0,None,63,62,63,0,62,62,62,,,,,,,,,,,,,,,,,,,,,,,303.503272799775,304.58675289992243,304.58675289992243,304.58675289992243,304.58675289992243,304.58675289992243,304.58675289992243,304.58675289992243,304.58675289992243,None,0,,,C:\2023\REPSWITCH21092023\REPSWITCH_excgange\REPSWITCH_excgange\data/370103_REPSWITCH1_version1_list3_2023-12-13_09h39.12.096_micRespv1l3_recorded\recording_micRespv1l3_2023-12-13_09h44.12.608.wav,307.6080013997853,308.10810970002785,None,307.6080013997853,307.6080013997853,307.6080013997853,307.6080013997853,307.6080013997853,307.6080013997853,,,,,,370103,001,2023-12-13_09h39.12.096,REPSWITCH1_version1_list3,2022.2.4,143.9244460002626,
REPSWITCH1/PICTURE_446.png,cerdo,speak,gold,filler,2,F,3,2,3,1,Stim7_Set2,0,None,64,63,64,0,63,63,63,,,,,,,,,,,,,,,,,,,,,,,308.10810970002785,309.2540361001156,309.2540361001156,309.2540361001156,309.2540361001156,309.2540361001156,309.2540361001156,309.2540361001156,309.2540361001156,None,0,,,C:\2023\REPSWITCH21092023\REPSWITCH_excgange\REPSWITCH_excgange\data/370103_REPSWITCH1_version1_list3_2023-12-13_09h39.12.096_micRespv1l3_recorded\recording_micRespv1l3_2023-12-13_09h44.17.276.wav,312.2752821999602,312.77538419980556,None,312.2752821999602,312.2752821999602,312.2752821999602,312.2752821999602,312.2752821999602,312.2752821999602,,,,,,370103,001,2023-12-13_09h39.12.096,REPSWITCH1_version1_list3,2022.2.4,143.9244460002626,
REPSWITCH1/PICTURE_152.png,caracol,type,darkblue,filler,1,F,3,2,3,1,Stim2_Set2,0,None,65,64,65,0,64,64,64,,,,,,,,,,,,,,,,,,,,,,,312.77538419980556,313.87968780007213,313.87968780007213,313.87968780007213,313.87968780007213,313.87968780007213,313.87968780007213,313.87968780007213,313.87968780007213,"['c', 'a', 'r', 'a', 'c', 'o', 'l']",0,"[0.7976675000973046, 0.982636499684304, 1.1550505999475718, 1.3217687997967005, 1.4489230001345277, 1.5946955000981688, 1.7973063997924328]",caracol,C:\2023\REPSWITCH21092023\REPSWITCH_excgange\REPSWITCH_excgange\data/370103_REPSWITCH1_version1_list3_2023-12-13_09h39.12.096_micRespv1l3_recorded\recording_micRespv1l3_2023-12-13_09h44.21.902.wav,316.90090830018744,317.4009011001326,None,316.90090830018744,316.90090830018744,316.90090830018744,316.90090830018744,316.90090830018744,316.90090830018744,,,,,,370103,001,2023-12-13_09h39.12.096,REPSWITCH1_version1_list3,2022.2.4,143.9244460002626,
REPSWITCH1/PICTURE_576.png,guante,speak,gold,nontarget,2,NT,3,2,3,1,Stim1_Set3,1,switch,66,65,66,0,65,65,65,,,,,,,,,,,,,,,,,,,,,,,317.4009011001326,318.5052574002184,318.5052574002184,318.5052574002184,318.5052574002184,318.5052574002184,318.5052574002184,318.5052574002184,318.5052574002184,None,0,,,C:\2023\REPSWITCH21092023\REPSWITCH_excgange\REPSWITCH_excgange\data/370103_REPSWITCH1_version1_list3_2023-12-13_09h39.12.096_micRespv1l3_recorded\recording_micRespv1l3_2023-12-13_09h44.26.528.wav,321.5334801999852,322.0334804998711,None,321.5334801999852,321.5334801999852,321.5334801999852,321.5334801999852,321.5334801999852,321.5334801999852,,,,,,370103,001,2023-12-13_09h39.12.096,REPSWITCH1_version1_list3,2022.2.4,143.9244460002626,
REPSWITCH1/PICTURE_576.png,guante,speak,gold,repeat,2,T,3,2,3,1,Stim1_Set3,0,None,67,66,67,0,66,66,66,,,,,,,,,,,,,,,,,,,,,,,322.0334804998711,323.15860839979723,323.15860839979723,323.15860839979723,323.15860839979723,323.15860839979723,323.15860839979723,323.15860839979723,323.15860839979723,None,0,,,C:\2023\REPSWITCH21092023\REPSWITCH_excgange\REPSWITCH_excgange\data/370103_REPSWITCH1_version1_list3_2023-12-13_09h39.12.096_micRespv1l3_recorded\recording_micRespv1l3_2023-12-13_09h44.31.180.wav,326.17985389987007,326.67996730003506,None,326.17985389987007,326.17985389987007,326.17985389987007,326.17985389987007,326.17985389987007,326.17985389987007,,,,,,370103,001,2023-12-13_09h39.12.096,REPSWITCH1_version1_list3,2022.2.4,143.9244460002626,
REPSWITCH1/PICTURE_242.png,cartero,speak,gold,nontarget,2,NT,3,2,3,1,Stim3_Set3,0,None,68,67,68,0,67,67,67,,,,,,,,,,,,,,,,,,,,,,,326.67996730003506,327.7147507998161,327.7147507998161,327.7147507998161,327.7147507998161,327.7147507998161,327.7147507998161,327.7147507998161,327.7147507998161,None,0,,,C:\2023\REPSWITCH21092023\REPSWITCH_excgange\REPSWITCH_excgange\data/370103_REPSWITCH1_version1_list3_2023-12-13_09h39.12.096_micRespv1l3_recorded\recording_micRespv1l3_2023-12-13_09h44.35.738.wav,330.7429416999221,331.24301690002903,None,330.7429416999221,330.7429416999221,330.7429416999221,330.7429416999221,330.7429416999221,330.7429416999221,,,,,,370103,001,2023-12-13_09h39.12.096,REPSWITCH1_version1_list3,2022.2.4,143.9244460002626,
REPSWITCH1/PICTURE_242.png,cartero,type,darkblue,switch,1,T,3,2,3,1,Stim3_Set3,0,None,69,68,69,0,68,68,68,,,,,,,,,,,,,,,,,,,,,,,331.24301690002903,332.3265547999181,332.3265547999181,332.3265547999181,332.3265547999181,332.3265547999181,332.3265547999181,332.3265547999181,332.3265547999181,"['c', 'r', 'a', 'backspace', 'backspace', 'a', 'r', 't', 'e', 'r', 'o']",0,"[0.8659798000007868, 1.093206100165844, 1.1921829003840685, 1.6002142000943422, 1.7647533002309501, 1.8912359001114964, 2.063291000202298, 2.2730329004116356, 2.4421471999958158, 2.513879199977964, 2.716493600048125]",cartero,C:\2023\REPSWITCH21092023\REPSWITCH_excgange\REPSWITCH_excgange\data/370103_REPSWITCH1_version1_list3_2023-12-13_09h39.12.096_micRespv1l3_recorded\recording_micRespv1l3_2023-12-13_09h44.40.348.wav,335.34770070016384,335.8477587001398,None,335.34770070016384,335.34770070016384,335.34770070016384,335.34770070016384,335.34770070016384,335.34770070016384,,,,,,370103,001,2023-12-13_09h39.12.096,REPSWITCH1_version1_list3,2022.2.4,143.9244460002626,
REPSWITCH1/PICTURE_517.png,cuerda,speak,gold,filler,2,F,3,2,3,1,Stim4_Set2,0,None,70,69,70,0,69,69,69,,,,,,,,,,,,,,,,,,,,,,,335.8477587001398,336.9243209999986,336.9243209999986,336.9243209999986,336.9243209999986,336.9243209999986,336.9243209999986,336.9243209999986,336.9243209999986,None,0,,,C:\2023\REPSWITCH21092023\REPSWITCH_excgange\REPSWITCH_excgange\data/370103_REPSWITCH1_version1_list3_2023-12-13_09h39.12.096_micRespv1l3_recorded\recording_micRespv1l3_2023-12-13_09h44.44.946.wav,339.94554199976847,340.4456187998876,None,339.94554199976847,339.94554199976847,339.94554199976847,339.94554199976847,339.94554199976847,339.94554199976847,,,,,,370103,001,2023-12-13_09h39.12.096,REPSWITCH1_version1_list3,2022.2.4,143.9244460002626,
REPSWITCH1/PICTURE_646.png,tronco,type,darkblue,filler,1,F,3,2,3,1,Extra4,0,None,71,70,71,0,70,70,70,,,,,,,,,,,,,,,,,,,,,,,340.4456187998876,341.5777491000481,341.5777491000481,341.5777491000481,341.5777491000481,341.5777491000481,341.5777491000481,341.5777491000481,341.5777491000481,"['t', 'r', 'o', 'n', 'c', 'o']",0,"[0.9409028002992272, 0.9997150003910065, 1.1143415002152324, 1.2396988002583385, 1.384410200174898, 1.5199924004264176]",tronco,C:\2023\REPSWITCH21092023\REPSWITCH_excgange\REPSWITCH_excgange\data/370103_REPSWITCH1_version1_list3_2023-12-13_09h39.12.096_micRespv1l3_recorded\recording_micRespv1l3_2023-12-13_09h44.49.601.wav,344.60586109990254,345.1059984001331,None,344.60586109990254,344.60586109990254,344.60586109990254,344.60586109990254,344.60586109990254,344.60586109990254,,,,,,370103,001,2023-12-13_09h39.12.096,REPSWITCH1_version1_list3,2022.2.4,143.9244460002626,
REPSWITCH1/PICTURE_35.png,oreja,type,darkblue,nontarget,1,NT,3,2,3,1,Stim5_Set3,1,repeat,72,71,72,0,71,71,71,,,,,,,,,,,,,,,,,,,,,,,345.1059984001331,346.2866623001173,346.2866623001173,346.2866623001173,346.2866623001173,346.2866623001173,346.2866623001173,346.2866623001173,346.2866623001173,"['o', 'r', 'e', 'j', 'a']",0,"[0.8389368001371622, 1.0233216998167336, 1.1352885998785496, 1.3026327998377383, 1.3627566001378]",oreja,C:\2023\REPSWITCH21092023\REPSWITCH_excgange\REPSWITCH_excgange\data/370103_REPSWITCH1_version1_list3_2023-12-13_09h39.12.096_micRespv1l3_recorded\recording_micRespv1l3_2023-12-13_09h44.54.310.wav,349.31480980012566,349.81487359991297,None,349.31480980012566,349.31480980012566,349.31480980012566,349.31480980012566,349.31480980012566,349.31480980012566,,,,,,370103,001,2023-12-13_09h39.12.096,REPSWITCH1_version1_list3,2022.2.4,143.9244460002626,
REPSWITCH1/PICTURE_35.png,oreja,type,darkblue,repeat,1,T,3,2,3,1,Stim5_Set3,0,None,73,72,73,0,72,72,72,,,,,,,,,,,,,,,,,,,,,,,349.81487359991297,350.92621419997886,350.92621419997886,350.92621419997886,350.92621419997886,350.92621419997886,350.92621419997886,350.92621419997886,350.92621419997886,"['o', 'r', 'e', 'j', 'a']",0,"[0.7077550999820232, 0.8243545000441372, 0.9030407001264393, 1.0755158001556993, 1.1263341000303626]",oreja,C:\2023\REPSWITCH21092023\REPSWITCH_excgange\REPSWITCH_excgange\data/370103_REPSWITCH1_version1_list3_2023-12-13_09h39.12.096_micRespv1l3_recorded\recording_micRespv1l3_2023-12-13_09h44.58.949.wav,353.95433099986985,,None,353.95433099986985,353.95433099986985,353.95433099986985,353.95433099986985,353.95433099986985,353.95433099986985,,,,,,370103,001,2023-12-13_09h39.12.096,REPSWITCH1_version1_list3,2022.2.4,143.9244460002626,
REPSWITCH1/PICTURE_199.png,falda,speak,gold,filler,2,F,3,2,3,1,Stim8_Set2,0,None,74,73,74,0,73,73,73,,,,,,,,,,,,,,,,,,,,,,,354.4544023000635,355.5031873001717,355.5031873001717,355.5031873001717,355.5031873001717,355.5031873001717,355.5031873001717,355.5031873001717,355.5031873001717,None,0,,,C:\2023\REPSWITCH21092023\REPSWITCH_excgange\REPSWITCH_excgange\data/370103_REPSWITCH1_version1_list3_2023-12-13_09h39.12.096_micRespv1l3_recorded\recording_micRespv1l3_2023-12-13_09h45.03.526.wav,358.5313253002241,,None,358.5313253002241,358.5313253002241,358.5313253002241,358.5313253002241,358.5313253002241,358.5313253002241,,,,,,370103,001,2023-12-13_09h39.12.096,REPSWITCH1_version1_list3,2022.2.4,143.9244460002626,
REPSWITCH1/PICTURE_610.png,miel,type,darkblue,nontarget,1,NT,3,2,3,1,Stim2_Set3,1,switch,75,74,75,0,74,74,74,,,,,,,,,,,,,,,,,,,,,,,359.03138990001753,360.1912759002298,360.1912759002298,360.1912759002298,360.1912759002298,360.1912759002298,360.1912759002298,360.1912759002298,360.1912759002298,"['m', 'i', 'e', 'l']",0,"[0.7737983004190028, 0.8767419001087546, 1.0122809004969895, 1.1318876002915204]",miel,C:\2023\REPSWITCH21092023\REPSWITCH_excgange\REPSWITCH_excgange\data/370103_REPSWITCH1_version1_list3_2023-12-13_09h39.12.096_micRespv1l3_recorded\recording_micRespv1l3_2023-12-13_09h45.08.215.wav,363.2194121000357,363.71953050000593,None,363.2194121000357,363.2194121000357,363.2194121000357,363.2194121000357,363.2194121000357,363.2194121000357,,,,,,370103,001,2023-12-13_09h39.12.096,REPSWITCH1_version1_list3,2022.2.4,143.9244460002626,
REPSWITCH1/PICTURE_610.png,miel,type,darkblue,repeat,1,T,3,2,3,1,Stim2_Set3,0,None,76,75,76,0,75,75,75,,,,,,,,,,,,,,,,,,,,,,,363.71953050000593,364.7683393000625,364.7683393000625,364.7683393000625,364.7683393000625,364.7683393000625,364.7683393000625,364.7683393000625,364.7683393000625,"['m', 'i', 'e', 'l']",0,"[0.7293736999854445, 0.8589812000282109, 1.0183971002697945, 1.160282399971038]",miel,C:\2023\REPSWITCH21092023\REPSWITCH_excgange\REPSWITCH_excgange\data/370103_REPSWITCH1_version1_list3_2023-12-13_09h39.12.096_micRespv1l3_recorded\recording_micRespv1l3_2023-12-13_09h45.12.791.wav,367.79642680007964,,None,367.79642680007964,367.79642680007964,367.79642680007964,367.79642680007964,367.79642680007964,367.79642680007964,,,,,,370103,001,2023-12-13_09h39.12.096,REPSWITCH1_version1_list3,2022.2.4,143.9244460002626,
REPSWITCH1/PICTURE_264.png,mano,type,darkblue,filler,1,F,3,2,3,1,Stim3_Set2,1,repeat,77,76,77,0,76,76,76,,,,,,,,,,,,,,,,,,,,,,,368.29649189999327,369.31052810000256,369.31052810000256,369.31052810000256,369.31052810000256,369.31052810000256,369.31052810000256,369.31052810000256,369.31052810000256,"['m', 'a', 'n', 'o']",0,"[0.6939504002220929, 0.8619535001926124, 1.028718600049615, 1.083564800210297]",mano,C:\2023\REPSWITCH21092023\REPSWITCH_excgange\REPSWITCH_excgange\data/370103_REPSWITCH1_version1_list3_2023-12-13_09h39.12.096_micRespv1l3_recorded\recording_micRespv1l3_2023-12-13_09h45.17.333.wav,372.338647400029,,None,372.338647400029,372.338647400029,372.338647400029,372.338647400029,372.338647400029,372.338647400029,,,,,,370103,001,2023-12-13_09h39.12.096,REPSWITCH1_version1_list3,2022.2.4,143.9244460002626,
REPSWITCH1/PICTURE_464.png,goma,speak,gold,filler,2,F,4,2,3,1,Stim6_Set3,0,None,78,77,78,0,77,77,77,,,,,,,,,,,,,,,,,,,,,,,372.83871140005067,373.936199599877,373.936199599877,373.936199599877,373.936199599877,373.936199599877,373.936199599877,373.936199599877,373.936199599877,None,0,,,C:\2023\REPSWITCH21092023\REPSWITCH_excgange\REPSWITCH_excgange\data/370103_REPSWITCH1_version1_list3_2023-12-13_09h39.12.096_micRespv1l3_recorded\recording_micRespv1l3_2023-12-13_09h45.21.958.wav,376.95735319983214,377.45748260011896,None,376.95735319983214,376.95735319983214,376.95735319983214,376.95735319983214,376.95735319983214,376.95735319983214,,,,,,370103,001,2023-12-13_09h39.12.096,REPSWITCH1_version1_list3,2022.2.4,143.9244460002626,
REPSWITCH1/PICTURE_8.png,pierna,type,darkblue,nontarget,1,NT,4,2,3,1,Stim3_Set4,1,switch,79,78,79,0,78,78,78,,,,,,,,,,,,,,,,,,,,,,,377.45748260011896,378.5061865998432,378.5061865998432,378.5061865998432,378.5061865998432,378.5061865998432,378.5061865998432,378.5061865998432,378.5061865998432,"['p', 'i', 'e', 'r', 'n', 'a']",0,"[1.0315895001403987, 1.1362677002325654, 1.2589069004170597, 1.3186679002828896, 1.4422859004698694, 1.551275800447911]",pierna,C:\2023\REPSWITCH21092023\REPSWITCH_excgange\REPSWITCH_excgange\data/370103_REPSWITCH1_version1_list3_2023-12-13_09h39.12.096_micRespv1l3_recorded\recording_micRespv1l3_2023-12-13_09h45.26.528.wav,381.5273802001029,382.027462199796,None,381.5273802001029,381.5273802001029,381.5273802001029,381.5273802001029,381.5273802001029,381.5273802001029,,,,,,370103,001,2023-12-13_09h39.12.096,REPSWITCH1_version1_list3,2022.2.4,143.9244460002626,
REPSWITCH1/PICTURE_8.png,pierna,type,darkblue,repeat,1,T,4,2,3,1,Stim3_Set4,0,None,80,79,80,0,79,79,79,,,,,,,,,,,,,,,,,,,,,,,382.027462199796,383.1317850998603,383.1317850998603,383.1317850998603,383.1317850998603,383.1317850998603,383.1317850998603,383.1317850998603,383.1317850998603,"['p', 'i', 'e', 'r', 'n', 'a']",0,"[0.6210461999289691, 0.7148798000998795, 0.857439000159502, 0.9282053001224995, 1.07201710017398, 1.1856408002786338]",pierna,C:\2023\REPSWITCH21092023\REPSWITCH_excgange\REPSWITCH_excgange\data/370103_REPSWITCH1_version1_list3_2023-12-13_09h39.12.096_micRespv1l3_recorded\recording_micRespv1l3_2023-12-13_09h45.31.155.wav,386.1599380001426,,None,386.1599380001426,386.1599380001426,386.1599380001426,386.1599380001426,386.1599380001426,386.1599380001426,,,,,,370103,001,2023-12-13_09h39.12.096,REPSWITCH1_version1_list3,2022.2.4,143.9244460002626,
REPSWITCH1/PICTURE_728.png,pulpo,type,darkblue,nontarget,1,NT,4,2,3,1,Stim8_Set4,1,repeat,81,80,81,0,80,80,80,,,,,,,,,,,,,,,,,,,,,,,386.6600083000958,387.7782264999114,387.7782264999114,387.7782264999114,387.7782264999114,387.7782264999114,387.7782264999114,387.7782264999114,387.7782264999114,"['p', 'u', 'l', 'p', 'o']",0,"[0.7359289000742137, 0.8338930001482368, 1.0394918001256883, 1.250136099755764, 1.3259239997714758]",pulpo,C:\2023\REPSWITCH21092023\REPSWITCH_excgange\REPSWITCH_excgange\data/370103_REPSWITCH1_version1_list3_2023-12-13_09h39.12.096_micRespv1l3_recorded\recording_micRespv1l3_2023-12-13_09h45.35.800.wav,390.7994558000937,391.299509299919,None,390.7994558000937,390.7994558000937,390.7994558000937,390.7994558000937,390.7994558000937,390.7994558000937,,,,,,370103,001,2023-12-13_09h39.12.096,REPSWITCH1_version1_list3,2022.2.4,143.9244460002626,
REPSWITCH1/PICTURE_728.png,pulpo,speak,gold,switch,2,T,4,2,3,1,Stim8_Set4,0,None,82,81,82,0,81,81,81,,,,,,,,,,,,,,,,,,,,,,,391.299509299919,392.3482320001349,392.3482320001349,392.3482320001349,392.3482320001349,392.3482320001349,392.3482320001349,392.3482320001349,392.3482320001349,None,0,,,C:\2023\REPSWITCH21092023\REPSWITCH_excgange\REPSWITCH_excgange\data/370103_REPSWITCH1_version1_list3_2023-12-13_09h39.12.096_micRespv1l3_recorded\recording_micRespv1l3_2023-12-13_09h45.40.370.wav,395.37648979993537,,None,395.37648979993537,395.37648979993537,395.37648979993537,395.37648979993537,395.37648979993537,395.37648979993537,,,,,,370103,001,2023-12-13_09h39.12.096,REPSWITCH1_version1_list3,2022.2.4,143.9244460002626,
REPSWITCH1/PICTURE_235.png,aguja,type,darkblue,filler,1,F,4,2,3,1,Stim4_Set3,0,None,83,82,83,0,82,82,82,,,,,,,,,,,,,,,,,,,,,,,395.8764944002032,396.9113813000731,396.9113813000731,396.9113813000731,396.9113813000731,396.9113813000731,396.9113813000731,396.9113813000731,396.9113813000731,"['a', 'g', 'u', 'j', 'a']",0,"[0.8829475999809802, 0.9307548999786377, 1.0832552998326719, 1.2636668998748064, 1.5019991002045572]",aguja,C:\2023\REPSWITCH21092023\REPSWITCH_excgange\REPSWITCH_excgange\data/370103_REPSWITCH1_version1_list3_2023-12-13_09h39.12.096_micRespv1l3_recorded\recording_micRespv1l3_2023-12-13_09h45.44.933.wav,399.93959649978206,,None,399.93959649978206,399.93959649978206,399.93959649978206,399.93959649978206,399.93959649978206,399.93959649978206,,,,,,370103,001,2023-12-13_09h39.12.096,REPSWITCH1_version1_list3,2022.2.4,143.9244460002626,
REPSWITCH1/PICTURE_498.png,taza,speak,gold,nontarget,2,NT,4,2,3,1,Stim4_Set4,1,switch,84,83,84,0,83,83,83,,,,,,,,,,,,,,,,,,,,,,,400.43959729978815,401.5299953999929,401.5299953999929,401.5299953999929,401.5299953999929,401.5299953999929,401.5299953999929,401.5299953999929,401.5299953999929,None,0,,,C:\2023\REPSWITCH21092023\REPSWITCH_excgange\REPSWITCH_excgange\data/370103_REPSWITCH1_version1_list3_2023-12-13_09h39.12.096_micRespv1l3_recorded\recording_micRespv1l3_2023-12-13_09h45.49.553.wav,404.55826919991523,,None,404.55826919991523,404.55826919991523,404.55826919991523,404.55826919991523,404.55826919991523,404.55826919991523,,,,,,370103,001,2023-12-13_09h39.12.096,REPSWITCH1_version1_list3,2022.2.4,143.9244460002626,
REPSWITCH1/PICTURE_498.png,taza,speak,gold,repeat,2,T,4,2,3,1,Stim4_Set4,0,None,85,84,85,0,84,84,84,,,,,,,,,,,,,,,,,,,,,,,405.05825849995017,406.15563570009544,406.15563570009544,406.15563570009544,406.15563570009544,406.15563570009544,406.15563570009544,406.15563570009544,406.15563570009544,None,0,,,C:\2023\REPSWITCH21092023\REPSWITCH_excgange\REPSWITCH_excgange\data/370103_REPSWITCH1_version1_list3_2023-12-13_09h39.12.096_micRespv1l3_recorded\recording_micRespv1l3_2023-12-13_09h45.54.178.wav,409.17685920000076,409.67690079985186,None,409.17685920000076,409.17685920000076,409.17685920000076,409.17685920000076,409.17685920000076,409.17685920000076,,,,,,370103,001,2023-12-13_09h39.12.096,REPSWITCH1_version1_list3,2022.2.4,143.9244460002626,
REPSWITCH1/PICTURE_719.png,baño,speak,gold,nontarget,2,NT,4,2,3,1,Stim2_Set4,0,None,86,85,86,0,85,85,85,,,,,,,,,,,,,,,,,,,,,,,409.67690079985186,410.781229800079,410.781229800079,410.781229800079,410.781229800079,410.781229800079,410.781229800079,410.781229800079,410.781229800079,None,0,,,C:\2023\REPSWITCH21092023\REPSWITCH_excgange\REPSWITCH_excgange\data/370103_REPSWITCH1_version1_list3_2023-12-13_09h39.12.096_micRespv1l3_recorded\recording_micRespv1l3_2023-12-13_09h45.58.803.wav,413.80245100008324,414.30252650007606,None,413.80245100008324,413.80245100008324,413.80245100008324,413.80245100008324,413.80245100008324,413.80245100008324,,,,,,370103,001,2023-12-13_09h39.12.096,REPSWITCH1_version1_list3,2022.2.4,143.9244460002626,
REPSWITCH1/PICTURE_719.png,baño,type,darkblue,switch,1,T,4,2,3,1,Stim2_Set4,0,None,87,86,87,0,86,86,86,,,,,,,,,,,,,,,,,,,,,,,414.30252650007606,415.4693618998863,415.4693618998863,415.4693618998863,415.4693618998863,415.4693618998863,415.4693618998863,415.4693618998863,415.4693618998863,"['b', 'a', 'ñ', 'o']",0,"[0.8134316001087427, 0.9350553001277149, 1.1537760999053717, 1.2593572000041604]",baño,C:\2023\REPSWITCH21092023\REPSWITCH_excgange\REPSWITCH_excgange\data/370103_REPSWITCH1_version1_list3_2023-12-13_09h39.12.096_micRespv1l3_recorded\recording_micRespv1l3_2023-12-13_09h46.03.492.wav,418.4975212002173,,None,418.4975212002173,418.4975212002173,418.4975212002173,418.4975212002173,418.4975212002173,418.4975212002173,,,,,,370103,001,2023-12-13_09h39.12.096,REPSWITCH1_version1_list3,2022.2.4,143.9244460002626,
REPSWITCH1/PICTURE_320.png,iglesia,speak,gold,filler,2,F,4,2,3,1,Stim8_Set3,0,None,88,87,88,0,87,87,87,,,,,,,,,,,,,,,,,,,,,,,418.9975827001035,420.1018722001463,420.1018722001463,420.1018722001463,420.1018722001463,420.1018722001463,420.1018722001463,420.1018722001463,420.1018722001463,None,0,,,C:\2023\REPSWITCH21092023\REPSWITCH_excgange\REPSWITCH_excgange\data/370103_REPSWITCH1_version1_list3_2023-12-13_09h39.12.096_micRespv1l3_recorded\recording_micRespv1l3_2023-12-13_09h46.08.124.wav,423.1231224001385,423.6231773002073,None,423.1231224001385,423.1231224001385,423.1231224001385,423.1231224001385,423.1231224001385,423.1231224001385,,,,,,370103,001,2023-12-13_09h39.12.096,REPSWITCH1_version1_list3,2022.2.4,143.9244460002626,
REPSWITCH1/PICTURE_48.png,bombero,type,darkblue,nontarget,1,NT,4,2,3,1,Stim7_Set4,1,switch,89,88,89,0,88,88,88,,,,,,,,,,,,,,,,,,,,,,,423.6231773002073,424.69276370014995,424.69276370014995,424.69276370014995,424.69276370014995,424.69276370014995,424.69276370014995,424.69276370014995,424.69276370014995,"['b', 'o', 'm', 'b', 'e', 'r', 'o']",0,"[1.0801264997571707, 1.1907561998814344, 1.4182053999975324, 1.6523095001466572, 1.8396840998902917, 1.9541174001060426, 2.02927209995687]",bombero,C:\2023\REPSWITCH21092023\REPSWITCH_excgange\REPSWITCH_excgange\data/370103_REPSWITCH1_version1_list3_2023-12-13_09h39.12.096_micRespv1l3_recorded\recording_micRespv1l3_2023-12-13_09h46.12.715.wav,427.7140768999234,428.21406979998574,None,427.7140768999234,427.7140768999234,427.7140768999234,427.7140768999234,427.7140768999234,427.7140768999234,,,,,,370103,001,2023-12-13_09h39.12.096,REPSWITCH1_version1_list3,2022.2.4,143.9244460002626,
REPSWITCH1/PICTURE_48.png,bombero,speak,gold,switch,2,T,4,2,3,1,Stim7_Set4,0,None,90,89,90,0,89,89,89,,,,,,,,,,,,,,,,,,,,,,,428.21406979998574,429.28371560014784,429.28371560014784,429.28371560014784,429.28371560014784,429.28371560014784,429.28371560014784,429.28371560014784,429.28371560014784,None,0,,,C:\2023\REPSWITCH21092023\REPSWITCH_excgange\REPSWITCH_excgange\data/370103_REPSWITCH1_version1_list3_2023-12-13_09h39.12.096_micRespv1l3_recorded\recording_micRespv1l3_2023-12-13_09h46.17.306.wav,432.30484940018505,432.8049579001963,None,432.30484940018505,432.30484940018505,432.30484940018505,432.30484940018505,432.30484940018505,432.30484940018505,,,,,,370103,001,2023-12-13_09h39.12.096,REPSWITCH1_version1_list3,2022.2.4,143.9244460002626,
REPSWITCH1/PICTURE_576.png,guante,type,darkblue,filler,1,F,4,2,3,1,Stim1_Set3,0,None,91,90,91,0,90,90,90,,,,,,,,,,,,,,,,,,,,,,,432.8049579001963,433.9231385998428,433.9231385998428,433.9231385998428,433.9231385998428,433.9231385998428,433.9231385998428,433.9231385998428,433.9231385998428,"['g', 'u', 'a', 'n', 't', 'e']",0,"[0.6910072001628578, 0.8227808005176485, 0.9253175002522767, 1.0349372001364827, 1.2262991000898182, 1.2516254005022347]",guante,C:\2023\REPSWITCH21092023\REPSWITCH_excgange\REPSWITCH_excgange\data/370103_REPSWITCH1_version1_list3_2023-12-13_09h39.12.096_micRespv1l3_recorded\recording_micRespv1l3_2023-12-13_09h46.21.945.wav,436.9443613998592,437.4444500999525,None,436.9443613998592,436.9443613998592,436.9443613998592,436.9443613998592,436.9443613998592,436.9443613998592,,,,,,370103,001,2023-12-13_09h39.12.096,REPSWITCH1_version1_list3,2022.2.4,143.9244460002626,
REPSWITCH1/PICTURE_271.png,conejo,speak,gold,filler,2,F,4,2,3,1,Stim7_Set3,0,None,92,91,92,0,91,91,91,,,,,,,,,,,,,,,,,,,,,,,437.4444500999525,438.46544260019436,438.46544260019436,438.46544260019436,438.46544260019436,438.46544260019436,438.46544260019436,438.46544260019436,438.46544260019436,None,0,,,C:\2023\REPSWITCH21092023\REPSWITCH_excgange\REPSWITCH_excgange\data/370103_REPSWITCH1_version1_list3_2023-12-13_09h39.12.096_micRespv1l3_recorded\recording_micRespv1l3_2023-12-13_09h46.26.487.wav,441.486633699853,441.9866860001348,None,441.486633699853,441.486633699853,441.486633699853,441.486633699853,441.486633699853,441.486633699853,,,,,,370103,001,2023-12-13_09h39.12.096,REPSWITCH1_version1_list3,2022.2.4,143.9244460002626,
REPSWITCH1/PICTURE_319.png,vaca,speak,gold,nontarget,2,NT,4,2,3,1,Stim1_Set4,1,repeat,93,92,93,0,92,92,92,,,,,,,,,,,,,,,,,,,,,,,441.9866860001348,443.13965030014515,443.13965030014515,443.13965030014515,443.13965030014515,443.13965030014515,443.13965030014515,443.13965030014515,443.13965030014515,None,0,,,C:\2023\REPSWITCH21092023\REPSWITCH_excgange\REPSWITCH_excgange\data/370103_REPSWITCH1_version1_list3_2023-12-13_09h39.12.096_micRespv1l3_recorded\recording_micRespv1l3_2023-12-13_09h46.31.161.wav,446.16084720008075,446.66093260003254,None,446.16084720008075,446.16084720008075,446.16084720008075,446.16084720008075,446.16084720008075,446.16084720008075,,,,,,370103,001,2023-12-13_09h39.12.096,REPSWITCH1_version1_list3,2022.2.4,143.9244460002626,
REPSWITCH1/PICTURE_319.png,vaca,speak,gold,repeat,2,T,4,2,3,1,Stim1_Set4,0,None,94,93,94,0,93,93,93,,,,,,,,,,,,,,,,,,,,,,,446.66093260003254,447.76523339981213,447.76523339981213,447.76523339981213,447.76523339981213,447.76523339981213,447.76523339981213,447.76523339981213,447.76523339981213,None,0,,,C:\2023\REPSWITCH21092023\REPSWITCH_excgange\REPSWITCH_excgange\data/370103_REPSWITCH1_version1_list3_2023-12-13_09h39.12.096_micRespv1l3_recorded\recording_micRespv1l3_2023-12-13_09h46.35.787.wav,450.78652189997956,451.2865333999507,None,450.78652189997956,450.78652189997956,450.78652189997956,450.78652189997956,450.78652189997956,450.78652189997956,,,,,,370103,001,2023-12-13_09h39.12.096,REPSWITCH1_version1_list3,2022.2.4,143.9244460002626,
REPSWITCH1/PICTURE_242.png,cartero,type,darkblue,filler,1,F,4,2,3,1,Stim3_Set3,0,None,95,94,95,0,94,94,94,,,,,,,,,,,,,,,,,,,,,,,451.2865333999507,452.3700027000159,452.3700027000159,452.3700027000159,452.3700027000159,452.3700027000159,452.3700027000159,452.3700027000159,452.3700027000159,"['c', 'a', 'r', 't', 'e', 'r', 'o']",0,"[0.9073136001825333, 1.0522770001553, 1.2322007003240287, 1.3230714001692832, 1.4475861000828445, 1.518346100114286, 1.6837566001340747]",cartero,C:\2023\REPSWITCH21092023\REPSWITCH_excgange\REPSWITCH_excgange\data/370103_REPSWITCH1_version1_list3_2023-12-13_09h39.12.096_micRespv1l3_recorded\recording_micRespv1l3_2023-12-13_09h46.40.391.wav,455.39125780016184,455.8913131998852,None,455.39125780016184,455.39125780016184,455.39125780016184,455.39125780016184,455.39125780016184,455.39125780016184,,,,,,370103,001,2023-12-13_09h39.12.096,REPSWITCH1_version1_list3,2022.2.4,143.9244460002626,
REPSWITCH1/PICTURE_35.png,oreja,speak,gold,filler,2,F,4,2,3,1,Stim5_Set3,1,switch,96,95,96,0,95,95,95,,,,,,,,,,,,,,,,,,,,,,,455.8913131998852,456.9678328000009,456.9678328000009,456.9678328000009,456.9678328000009,456.9678328000009,456.9678328000009,456.9678328000009,456.9678328000009,None,0,,,C:\2023\REPSWITCH21092023\REPSWITCH_excgange\REPSWITCH_excgange\data/370103_REPSWITCH1_version1_list3_2023-12-13_09h39.12.096_micRespv1l3_recorded\recording_micRespv1l3_2023-12-13_09h46.44.990.wav,459.989071900025,460.48913779994473,None,459.989071900025,459.989071900025,459.989071900025,459.989071900025,459.989071900025,459.989071900025,,,,,,370103,001,2023-12-13_09h39.12.096,REPSWITCH1_version1_list3,2022.2.4,143.9244460002626,
REPSWITCH1/PICTURE_338.png,regalo,speak,gold,nontarget,2,NT,4,2,3,1,Stim6_Set4,1,repeat,97,96,97,0,96,96,96,,,,,,,,,,,,,,,,,,,,,,,460.48913779994473,461.64901479985565,461.64901479985565,461.64901479985565,461.64901479985565,461.64901479985565,461.64901479985565,461.64901479985565,461.64901479985565,None,0,,,C:\2023\REPSWITCH21092023\REPSWITCH_excgange\REPSWITCH_excgange\data/370103_REPSWITCH1_version1_list3_2023-12-13_09h39.12.096_micRespv1l3_recorded\recording_micRespv1l3_2023-12-13_09h46.49.670.wav,464.670272000134,465.17029529996216,None,464.670272000134,464.670272000134,464.670272000134,464.670272000134,464.670272000134,464.670272000134,,,,,,370103,001,2023-12-13_09h39.12.096,REPSWITCH1_version1_list3,2022.2.4,143.9244460002626,
REPSWITCH1/PICTURE_338.png,regalo,type,darkblue,switch,1,T,4,2,3,1,Stim6_Set4,0,None,98,97,98,0,97,97,97,,,,,,,,,,,,,,,,,,,,,,,465.17029529996216,466.2537699001841,466.2537699001841,466.2537699001841,466.2537699001841,466.2537699001841,466.2537699001841,466.2537699001841,466.2537699001841,"['r', 'e', 'g', 'a', 'l', 'o']",0,"[0.8221613001078367, 0.9078683000989258, 1.1012514000758529, 1.2050140001811087, 1.318633500020951, 1.53320029983297]",regalo,C:\2023\REPSWITCH21092023\REPSWITCH_excgange\REPSWITCH_excgange\data/370103_REPSWITCH1_version1_list3_2023-12-13_09h39.12.096_micRespv1l3_recorded\recording_micRespv1l3_2023-12-13_09h46.54.276.wav,469.2750181001611,469.7751496001147,None,469.2750181001611,469.2750181001611,469.2750181001611,469.2750181001611,469.2750181001611,469.2750181001611,,,,,,370103,001,2023-12-13_09h39.12.096,REPSWITCH1_version1_list3,2022.2.4,143.9244460002626,
REPSWITCH1/PICTURE_687.png,camisa,type,darkblue,nontarget,1,NT,4,2,3,1,Stim5_Set4,0,None,99,98,99,0,98,98,98,,,,,,,,,,,,,,,,,,,,,,,469.7751496001147,470.8863579002209,470.8863579002209,470.8863579002209,470.8863579002209,470.8863579002209,470.8863579002209,470.8863579002209,470.8863579002209,"['c', 'a', 'm', 's', 'a', 'backspace', 'backspace', 'i', 's', 'a']",0,"[0.7474811002612114, 0.8581417999230325, 0.9690070003271103, 1.1744377999566495, 1.3525690999813378, 1.7352963001467288, 1.8928265003487468, 2.450286699924618, 2.6069940999150276, 2.7707036999054253]",camisa,C:\2023\REPSWITCH21092023\REPSWITCH_excgange\REPSWITCH_excgange\data/370103_REPSWITCH1_version1_list3_2023-12-13_09h39.12.096_micRespv1l3_recorded\recording_micRespv1l3_2023-12-13_09h46.58.908.wav,473.90757740009576,474.4076173999347,None,473.90757740009576,473.90757740009576,473.90757740009576,473.90757740009576,473.90757740009576,473.90757740009576,,,,,,370103,001,2023-12-13_09h39.12.096,REPSWITCH1_version1_list3,2022.2.4,143.9244460002626,
REPSWITCH1/PICTURE_687.png,camisa,type,darkblue,repeat,1,T,4,2,3,1,Stim5_Set4,0,None,100,99,100,0,99,99,99,,,,,,,,,,,,,,,,,,,,,,,474.4076173999347,475.5189133998938,475.5189133998938,475.5189133998938,475.5189133998938,475.5189133998938,475.5189133998938,475.5189133998938,475.5189133998938,"['c', 'a', 'm', 'i', 's', 'a']",0,"[1.127386000007391, 1.2130936002358794, 1.3290847004391253, 1.435692600440234, 1.6536939004436135, 1.8483259002678096]",camisa,C:\2023\REPSWITCH21092023\REPSWITCH_excgange\REPSWITCH_excgange\data/370103_REPSWITCH1_version1_list3_2023-12-13_09h39.12.096_micRespv1l3_recorded\recording_micRespv1l3_2023-12-13_09h47.03.542.wav,478.54710160009563,,None,478.54710160009563,478.54710160009563,478.54710160009563,478.54710160009563,478.54710160009563,478.54710160009563,,,,,,370103,001,2023-12-13_09h39.12.096,REPSWITCH1_version1_list3,2022.2.4,143.9244460002626,
REPSWITCH1/PICTURE_340.png,espejo,speak,gold,filler,2,F,4,2,3,1,Extra1,0,None,101,100,101,0,100,100,100,,,,,,,,,,,,,,,,,,,,,,,479.0471292999573,480.1237093000673,480.1237093000673,480.1237093000673,480.1237093000673,480.1237093000673,480.1237093000673,480.1237093000673,480.1237093000673,None,0,,,C:\2023\REPSWITCH21092023\REPSWITCH_excgange\REPSWITCH_excgange\data/370103_REPSWITCH1_version1_list3_2023-12-13_09h39.12.096_micRespv1l3_recorded\recording_micRespv1l3_2023-12-13_09h47.08.147.wav,483.1518164998852,483.65189650002867,None,483.1518164998852,483.1518164998852,483.1518164998852,483.1518164998852,483.1518164998852,483.1518164998852,,,,,,370103,001,2023-12-13_09h39.12.096,REPSWITCH1_version1_list3,2022.2.4,143.9244460002626,
REPSWITCH1/PICTURE_610.png,miel,type,darkblue,filler,1,F,4,2,3,1,Stim2_Set3,0,None,102,101,102,0,101,101,101,,,,,,,,,,,,,,,,,,,,,,,483.65189650002867,484.87428929982707,484.87428929982707,484.87428929982707,484.87428929982707,484.87428929982707,484.87428929982707,484.87428929982707,484.87428929982707,"['m', 'i', 'e', 'l']",0,"[0.7673674002289772, 0.8232233999297023, 1.1700482000596821, 1.3800099999643862]",miel,C:\2023\REPSWITCH21092023\REPSWITCH_excgange\REPSWITCH_excgange\data/370103_REPSWITCH1_version1_list3_2023-12-13_09h39.12.096_micRespv1l3_recorded\recording_micRespv1l3_2023-12-13_09h47.12.896.wav,487.8955903998576,488.39566269982606,space,487.8955903998576,487.8955903998576,487.8955903998576,487.8955903998576,487.8955903998576,487.8955903998576,488.39566269982606,488.39566269982606,0.7479600002989173,,,370103,001,2023-12-13_09h39.12.096,REPSWITCH1_version1_list3,2022.2.4,143.9244460002626,
REPSWITCH1/PICTURE_8.png,pierna,type,darkblue,filler,1,F,1,4,3,1,Stim3_Set4,0,None,103,102,1,0,102,102,102,,,,,,,,,,,,,,,,,,,,,,,489.1526394998655,490.29861789988354,490.29861789988354,490.29861789988354,490.29861789988354,490.29861789988354,490.29861789988354,490.29861789988354,490.29861789988354,"['p', 'i', 'e', 'r', 'n', 'a']",0,"[0.9926565997302532, 1.0844217999838293, 1.1940553998574615, 1.2350310999900103, 1.3635082999244332, 1.502059199847281]",pierna,C:\2023\REPSWITCH21092023\REPSWITCH_excgange\REPSWITCH_excgange\data/370103_REPSWITCH1_version1_list3_2023-12-13_09h39.12.096_micRespv1l3_recorded\recording_micRespv1l3_2023-12-13_09h47.18.320.wav,493.31981230014935,493.81988860014826,None,493.31981230014935,493.31981230014935,493.31981230014935,493.31981230014935,493.31981230014935,493.31981230014935,,,,,,370103,001,2023-12-13_09h39.12.096,REPSWITCH1_version1_list3,2022.2.4,143.9244460002626,
REPSWITCH1/PICTURE_498.png,taza,speak,gold,filler,2,F,1,4,3,1,Stim4_Set4,0,None,104,103,2,0,103,103,103,,,,,,,,,,,,,,,,,,,,,,,493.81988860014826,494.9520024000667,494.9520024000667,494.9520024000667,494.9520024000667,494.9520024000667,494.9520024000667,494.9520024000667,494.9520024000667,None,0,,,C:\2023\REPSWITCH21092023\REPSWITCH_excgange\REPSWITCH_excgange\data/370103_REPSWITCH1_version1_list3_2023-12-13_09h39.12.096_micRespv1l3_recorded\recording_micRespv1l3_2023-12-13_09h47.22.975.wav,497.9801814001985,498.4802398001775,None,497.9801814001985,497.9801814001985,497.9801814001985,497.9801814001985,497.9801814001985,497.9801814001985,,,,,,370103,001,2023-12-13_09h39.12.096,REPSWITCH1_version1_list3,2022.2.4,143.9244460002626,
REPSWITCH1/PICTURE_19.png,pavo,speak,gold,nontarget,2,NT,1,4,3,1,Stim5_Set1,1,repeat,105,104,3,0,104,104,104,,,,,,,,,,,,,,,,,,,,,,,498.4802398001775,499.5289795999415,499.5289795999415,499.5289795999415,499.5289795999415,499.5289795999415,499.5289795999415,499.5289795999415,499.5289795999415,None,0,,,C:\2023\REPSWITCH21092023\REPSWITCH_excgange\REPSWITCH_excgange\data/370103_REPSWITCH1_version1_list3_2023-12-13_09h39.12.096_micRespv1l3_recorded\recording_micRespv1l3_2023-12-13_09h47.27.551.wav,502.55722879990935,,None,502.55722879990935,502.55722879990935,502.55722879990935,502.55722879990935,502.55722879990935,502.55722879990935,,,,,,370103,001,2023-12-13_09h39.12.096,REPSWITCH1_version1_list3,2022.2.4,143.9244460002626,
REPSWITCH1/PICTURE_19.png,pavo,speak,gold,repeat,2,T,1,4,3,1,Stim5_Set1,0,None,106,105,4,0,105,105,105,,,,,,,,,,,,,,,,,,,,,,,503.0572298001498,504.1545744999312,504.1545744999312,504.1545744999312,504.1545744999312,504.1545744999312,504.1545744999312,504.1545744999312,504.1545744999312,None,0,,,C:\2023\REPSWITCH21092023\REPSWITCH_excgange\REPSWITCH_excgange\data/370103_REPSWITCH1_version1_list3_2023-12-13_09h39.12.096_micRespv1l3_recorded\recording_micRespv1l3_2023-12-13_09h47.32.176.wav,507.1757943998091,507.67588949995115,None,507.1757943998091,507.1757943998091,507.1757943998091,507.1757943998091,507.1757943998091,507.1757943998091,,,,,,370103,001,2023-12-13_09h39.12.096,REPSWITCH1_version1_list3,2022.2.4,143.9244460002626,
REPSWITCH1/PICTURE_319.png,vaca,type,darkblue,filler,1,F,1,4,3,1,Stim1_Set4,1,repeat,107,106,5,0,106,106,106,,,,,,,,,,,,,,,,,,,,,,,507.67588949995115,508.75938900001347,508.75938900001347,508.75938900001347,508.75938900001347,508.75938900001347,508.75938900001347,508.75938900001347,508.75938900001347,"['v', 'a', 'c', 'a']",0,"[0.9148495998233557, 0.993652299977839, 1.2435870999470353, 1.3024213998578489]",vaca,C:\2023\REPSWITCH21092023\REPSWITCH_excgange\REPSWITCH_excgange\data/370103_REPSWITCH1_version1_list3_2023-12-13_09h39.12.096_micRespv1l3_recorded\recording_micRespv1l3_2023-12-13_09h47.36.781.wav,511.78059120010585,512.2806234997697,None,511.78059120010585,511.78059120010585,511.78059120010585,511.78059120010585,511.78059120010585,511.78059120010585,,,,,,370103,001,2023-12-13_09h39.12.096,REPSWITCH1_version1_list3,2022.2.4,143.9244460002626,
REPSWITCH1/PICTURE_169.png,espalda,speak,gold,nontarget,2,NT,1,4,3,1,Stim8_Set1,1,switch,108,107,6,0,107,107,107,,,,,,,,,,,,,,,,,,,,,,,512.2806234997697,513.3224550001323,513.3224550001323,513.3224550001323,513.3224550001323,513.3224550001323,513.3224550001323,513.3224550001323,513.3224550001323,None,0,,,C:\2023\REPSWITCH21092023\REPSWITCH_excgange\REPSWITCH_excgange\data/370103_REPSWITCH1_version1_list3_2023-12-13_09h39.12.096_micRespv1l3_recorded\recording_micRespv1l3_2023-12-13_09h47.41.345.wav,516.3436559000984,516.8437358001247,None,516.3436559000984,516.3436559000984,516.3436559000984,516.3436559000984,516.3436559000984,516.3436559000984,,,,,,370103,001,2023-12-13_09h39.12.096,REPSWITCH1_version1_list3,2022.2.4,143.9244460002626,
REPSWITCH1/PICTURE_169.png,espalda,speak,gold,repeat,2,T,1,4,3,1,Stim8_Set1,0,None,109,108,7,0,108,108,108,,,,,,,,,,,,,,,,,,,,,,,516.8437358001247,517.8438740000129,517.8438740000129,517.8438740000129,517.8438740000129,517.8438740000129,517.8438740000129,517.8438740000129,517.8438740000129,None,0,,,C:\2023\REPSWITCH21092023\REPSWITCH_excgange\REPSWITCH_excgange\data/370103_REPSWITCH1_version1_list3_2023-12-13_09h39.12.096_micRespv1l3_recorded\recording_micRespv1l3_2023-12-13_09h47.45.866.wav,520.8651753999293,521.3651820998639,None,520.8651753999293,520.8651753999293,520.8651753999293,520.8651753999293,520.8651753999293,520.8651753999293,,,,,,370103,001,2023-12-13_09h39.12.096,REPSWITCH1_version1_list3,2022.2.4,143.9244460002626,
REPSWITCH1/PICTURE_728.png,pulpo,type,darkblue,filler,1,F,1,4,3,1,Stim8_Set4,0,None,110,109,8,0,109,109,109,,,,,,,,,,,,,,,,,,,,,,,521.3651820998639,522.427818399854,522.427818399854,522.427818399854,522.427818399854,522.427818399854,522.427818399854,522.427818399854,522.427818399854,"['p', 'u', 'l', 'p', 'o']",0,"[0.8210265003144741, 0.9316441002301872, 1.176188400015235, 1.4038117001764476, 1.4958639000542462]",pulpo,C:\2023\REPSWITCH21092023\REPSWITCH_excgange\REPSWITCH_excgange\data/370103_REPSWITCH1_version1_list3_2023-12-13_09h39.12.096_micRespv1l3_recorded\recording_micRespv1l3_2023-12-13_09h47.50.450.wav,525.4490605997853,525.9491265001707,None,525.4490605997853,525.4490605997853,525.4490605997853,525.4490605997853,525.4490605997853,525.4490605997853,,,,,,370103,001,2023-12-13_09h39.12.096,REPSWITCH1_version1_list3,2022.2.4,143.9244460002626,
REPSWITCH1/PICTURE_142.png,vaso,speak,gold,nontarget,2,NT,1,4,3,1,Stim7_Set1,1,switch,111,110,9,0,110,110,110,,,,,,,,,,,,,,,,,,,,,,,525.9491265001707,527.0326037998311,527.0326037998311,527.0326037998311,527.0326037998311,527.0326037998311,527.0326037998311,527.0326037998311,527.0326037998311,None,0,,,C:\2023\REPSWITCH21092023\REPSWITCH_excgange\REPSWITCH_excgange\data/370103_REPSWITCH1_version1_list3_2023-12-13_09h39.12.096_micRespv1l3_recorded\recording_micRespv1l3_2023-12-13_09h47.55.054.wav,530.0538025000133,530.5539667000994,None,530.0538025000133,530.0538025000133,530.0538025000133,530.0538025000133,530.0538025000133,530.0538025000133,,,,,,370103,001,2023-12-13_09h39.12.096,REPSWITCH1_version1_list3,2022.2.4,143.9244460002626,
REPSWITCH1/PICTURE_142.png,vaso,type,darkblue,switch,1,T,1,4,3,1,Stim7_Set1,0,None,112,111,10,0,111,111,111,,,,,,,,,,,,,,,,,,,,,,,530.5539667000994,531.6512410999276,531.6512410999276,531.6512410999276,531.6512410999276,531.6512410999276,531.6512410999276,531.6512410999276,531.6512410999276,"['v', 'a', 's', 'o']",0,"[0.5743430005386472, 0.6593671003356576, 0.7953468002378941, 0.9439269001595676]",vaso,C:\2023\REPSWITCH21092023\REPSWITCH_excgange\REPSWITCH_excgange\data/370103_REPSWITCH1_version1_list3_2023-12-13_09h39.12.096_micRespv1l3_recorded\recording_micRespv1l3_2023-12-13_09h47.59.673.wav,534.672550200019,535.172627999913,None,534.672550200019,534.672550200019,534.672550200019,534.672550200019,534.672550200019,534.672550200019,,,,,,370103,001,2023-12-13_09h39.12.096,REPSWITCH1_version1_list3,2022.2.4,143.9244460002626,
REPSWITCH1/PICTURE_338.png,regalo,type,darkblue,filler,1,F,1,4,3,1,Stim6_Set4,1,repeat,113,112,11,0,112,112,112,,,,,,,,,,,,,,,,,,,,,,,535.172627999913,536.2768855998293,536.2768855998293,536.2768855998293,536.2768855998293,536.2768855998293,536.2768855998293,536.2768855998293,536.2768855998293,"['r', 'e', 'g', 'a', 'l', 'o']",0,"[0.7165346001274884, 0.8032438005320728, 1.0048725004307926, 1.0766366003081203, 1.2071976005099714, 1.5967704001814127]",regalo,C:\2023\REPSWITCH21092023\REPSWITCH_excgange\REPSWITCH_excgange\data/370103_REPSWITCH1_version1_list3_2023-12-13_09h39.12.096_micRespv1l3_recorded\recording_micRespv1l3_2023-12-13_09h48.04.299.wav,539.3050405001268,,None,539.3050405001268,539.3050405001268,539.3050405001268,539.3050405001268,539.3050405001268,539.3050405001268,,,,,,370103,001,2023-12-13_09h39.12.096,REPSWITCH1_version1_list3,2022.2.4,143.9244460002626,
REPSWITCH1/PICTURE_135.png,traje,type,darkblue,nontarget,1,NT,1,4,3,1,Stim3_Set1,1,repeat,114,113,12,0,113,113,113,,,,,,,,,,,,,,,,,,,,,,,539.8051069998182,540.8816778999753,540.8816778999753,540.8816778999753,540.8816778999753,540.8816778999753,540.8816778999753,540.8816778999753,540.8816778999753,"['t', 'r', 'a', 'j', 'e']",0,"[1.0142637002281845, 1.028245999943465, 1.3082870999351144, 1.483699900098145, 1.5803673998452723]",traje,C:\2023\REPSWITCH21092023\REPSWITCH_excgange\REPSWITCH_excgange\data/370103_REPSWITCH1_version1_list3_2023-12-13_09h39.12.096_micRespv1l3_recorded\recording_micRespv1l3_2023-12-13_09h48.08.904.wav,543.9098102999851,,None,543.9098102999851,543.9098102999851,543.9098102999851,543.9098102999851,543.9098102999851,543.9098102999851,,,,,,370103,001,2023-12-13_09h39.12.096,REPSWITCH1_version1_list3,2022.2.4,143.9244460002626,
REPSWITCH1/PICTURE_135.png,traje,speak,gold,switch,2,T,1,4,3,1,Stim3_Set1,0,None,115,114,13,0,114,114,114,,,,,,,,,,,,,,,,,,,,,,,544.409925499931,545.6392349000089,545.6392349000089,545.6392349000089,545.6392349000089,545.6392349000089,545.6392349000089,545.6392349000089,545.6392349000089,None,0,,,C:\2023\REPSWITCH21092023\REPSWITCH_excgange\REPSWITCH_excgange\data/370103_REPSWITCH1_version1_list3_2023-12-13_09h39.12.096_micRespv1l3_recorded\recording_micRespv1l3_2023-12-13_09h48.13.662.wav,548.6604670002125,549.1604976998642,None,548.6604670002125,548.6604670002125,548.6604670002125,548.6604670002125,548.6604670002125,548.6604670002125,,,,,,370103,001,2023-12-13_09h39.12.096,REPSWITCH1_version1_list3,2022.2.4,143.9244460002626,
REPSWITCH1/PICTURE_381.png,fresa,speak,gold,nontarget,2,NT,1,4,3,1,Stim2_Set1,1,repeat,116,115,14,0,115,115,115,,,,,,,,,,,,,,,,,,,,,,,549.1604976998642,550.2440336998552,550.2440336998552,550.2440336998552,550.2440336998552,550.2440336998552,550.2440336998552,550.2440336998552,550.2440336998552,None,0,,,C:\2023\REPSWITCH21092023\REPSWITCH_excgange\REPSWITCH_excgange\data/370103_REPSWITCH1_version1_list3_2023-12-13_09h39.12.096_micRespv1l3_recorded\recording_micRespv1l3_2023-12-13_09h48.18.266.wav,553.2652806001715,553.7652679001912,None,553.2652806001715,553.2652806001715,553.2652806001715,553.2652806001715,553.2652806001715,553.2652806001715,,,,,,370103,001,2023-12-13_09h39.12.096,REPSWITCH1_version1_list3,2022.2.4,143.9244460002626,
REPSWITCH1/PICTURE_381.png,fresa,type,darkblue,switch,1,T,1,4,3,1,Stim2_Set1,0,None,117,116,15,0,116,116,116,,,,,,,,,,,,,,,,,,,,,,,553.7652679001912,554.827891800087,554.827891800087,554.827891800087,554.827891800087,554.827891800087,554.827891800087,554.827891800087,554.827891800087,"['f', 'r', 'e', 's', 'a']",0,"[0.720201900228858, 0.9225324001163244, 1.0136341000907123, 1.2667276998981833, 1.5401985999196768]",fresa,C:\2023\REPSWITCH21092023\REPSWITCH_excgange\REPSWITCH_excgange\data/370103_REPSWITCH1_version1_list3_2023-12-13_09h39.12.096_micRespv1l3_recorded\recording_micRespv1l3_2023-12-13_09h48.22.849.wav,557.8491421001963,558.3492032000795,None,557.8491421001963,557.8491421001963,557.8491421001963,557.8491421001963,557.8491421001963,557.8491421001963,,,,,,370103,001,2023-12-13_09h39.12.096,REPSWITCH1_version1_list3,2022.2.4,143.9244460002626,
REPSWITCH1/PICTURE_48.png,bombero,type,darkblue,filler,1,F,1,4,3,1,Stim7_Set4,0,None,118,117,16,0,117,117,117,,,,,,,,,,,,,,,,,,,,,,,558.3492032000795,559.4882545000874,559.4882545000874,559.4882545000874,559.4882545000874,559.4882545000874,559.4882545000874,559.4882545000874,559.4882545000874,"['b', 'o', 'm', 'b', 'e', 'r', 'o']",0,"[0.9329204000532627, 1.036536999978125, 1.2548376000486314, 1.4562113001011312, 1.5393047002144158, 1.6256420002318919, 1.7283233003690839]",bombero,C:\2023\REPSWITCH21092023\REPSWITCH_excgange\REPSWITCH_excgange\data/370103_REPSWITCH1_version1_list3_2023-12-13_09h39.12.096_micRespv1l3_recorded\recording_micRespv1l3_2023-12-13_09h48.27.510.wav,562.5164226000197,,None,562.5164226000197,562.5164226000197,562.5164226000197,562.5164226000197,562.5164226000197,562.5164226000197,,,,,,370103,001,2023-12-13_09h39.12.096,REPSWITCH1_version1_list3,2022.2.4,143.9244460002626,
REPSWITCH1/PICTURE_687.png,camisa,speak,gold,filler,2,F,1,4,3,1,Stim5_Set4,0,None,119,118,17,0,118,118,118,,,,,,,,,,,,,,,,,,,,,,,563.016480400227,564.1347477999516,564.1347477999516,564.1347477999516,564.1347477999516,564.1347477999516,564.1347477999516,564.1347477999516,564.1347477999516,None,0,,,C:\2023\REPSWITCH21092023\REPSWITCH_excgange\REPSWITCH_excgange\data/370103_REPSWITCH1_version1_list3_2023-12-13_09h39.12.096_micRespv1l3_recorded\recording_micRespv1l3_2023-12-13_09h48.32.156.wav,567.1558896000497,567.6559721999802,None,567.1558896000497,567.1558896000497,567.1558896000497,567.1558896000497,567.1558896000497,567.1558896000497,,,,,,370103,001,2023-12-13_09h39.12.096,REPSWITCH1_version1_list3,2022.2.4,143.9244460002626,
REPSWITCH1/PICTURE_128.png,muñeca,type,darkblue,nontarget,1,NT,1,4,3,1,Stim4_Set1,0,None,120,119,18,0,119,119,119,,,,,,,,,,,,,,,,,,,,,,,567.6559721999802,568.7117381999269,568.7117381999269,568.7117381999269,568.7117381999269,568.7117381999269,568.7117381999269,568.7117381999269,568.7117381999269,"['m', 'u', 'ñ', 'e', 'c', 'a']",0,"[0.8481987002305686, 1.0223278999328613, 1.3043881999328732, 1.5571860000491142, 1.869459600187838, 1.9989566998556256]",muñeca,C:\2023\REPSWITCH21092023\REPSWITCH_excgange\REPSWITCH_excgange\data/370103_REPSWITCH1_version1_list3_2023-12-13_09h39.12.096_micRespv1l3_recorded\recording_micRespv1l3_2023-12-13_09h48.36.734.wav,571.7328709000722,572.2329989001155,None,571.7328709000722,571.7328709000722,571.7328709000722,571.7328709000722,571.7328709000722,571.7328709000722,,,,,,370103,001,2023-12-13_09h39.12.096,REPSWITCH1_version1_list3,2022.2.4,143.9244460002626,
