image;correctAns;respModal;frameColor;repSwitch;sequence;target;set;block;list;exp_version;stimulus;baseline;baseline_condition;trial_no;psychopy_trial;Column1;trialsREPSWITCH.thisRepN;trialsREPSWITCH.thisTrialN;trialsREPSWITCH.thisN;trialsREPSWITCH.thisIndex;textWelcome.started;textboxInstrMain1.started;textboxInstrMain1_2.started;textboxInstrMain1_3.started;keyInstrMain.started;keyInstrMain.keys;keyInstrMain.rt;textboxInstrMain2.started;textboxInstrMain2_2.started;textboxInstrMain2_3.started;textboxInstrMain2_4.started;textboxInstrMain2_5.started;textboxInstrMain2_6.started;textboxInstrMain2_7.started;textboxInstrMain2_8.started;textboxInstrMain2_9.started;textboxInstrMain2_10.started;textboxInstrMain2_11.started;textboxInstrMain2_12.started;keyInstrMain2.started;keyInstrMain2.keys;keyInstrMain2.rt;fixationITI.started;fixationITI.stopped;polygonColour.started;polygonWhite.started;imageObject.started;polygonType.started;textInput.started;keyResp.started;micRespv2l3.started;keyResp.keys;keyResp.corr;keyResp.rt;subjResponse;micRespv2l3.clip;textBlankLoop.started;textBlankLoop.stopped;keyPause.keys;polygonColour.stopped;polygonWhite.stopped;imageObject.stopped;polygonType.stopped;textInput.stopped;keyResp.stopped;textboxPause.started;keyPause.started;keyPause.rt;textboxGoodbye.started;textboxGoodbye.stopped;participant;session;date;expName;psychopyVersion;frameRate;Column2
;;;;;;;;;;;;;;;;;;;;;8.9687223;11.4666646;11.4666646;11.4666646;11.4666646;space;2.2695846;;;;;;;;;;;;;;;;;;;;;;;;;;;;;;;;;;;;;;;;;;;;380203;1;2023-12-13_11h01.11.464;REPSWITCH1_version2_list3;2022.2.4;143.9078754;
;;;;;;;;;;;;;;;;;;;;;;;;;;;;13.7516923;13.7516923;13.7516923;13.7516923;13.7516923;13.7516923;13.7516923;13.7516923;13.7516923;13.7516923;13.7516923;13.7516923;13.7516923;space;0.4662418;;;;;;;;;;;;;;;;;;;;;;;;;;;;;380203;1;2023-12-13_11h01.11.464;REPSWITCH1_version2_list3;2022.2.4;143.9078754;
REPSWITCH1/PICTURE_663.png;columna;type;gold;filler;1;F;1;2;3;2;Extra6;0;None;1;0;1;0;0;0;0;;;;;;;;;;;;;;;;;;;;;;;14.3142476;15.390797;15.390797;15.390797;15.390797;15.390797;15.390797;15.390797;15.390797;['c', 'o', 'l', 'u', 'm', 'n', 'a'];0;[0.9889631001278758, 1.328927000053227, 1.505398000124842, 1.7657643998973072, 1.968305999878794, 2.159753799904138, 2.249440799932927];columna;C:\2023\REPSWITCH21092023\REPSWITCH_excgange\REPSWITCH_excgange\data/380203_REPSWITCH1_version2_list3_2023-12-13_11h01.11.464_micRespv2l3_recorded\recording_micRespv2l3_2023-12-13_11h01.22.761.wav;18.4120248;18.9121633;None;;;;;;;;;;;;380203;1;2023-12-13_11h01.11.464;REPSWITCH1_version2_list3;2022.2.4;143.9078754;
REPSWITCH1/PICTURE_128.png;muñeca;speak;darkblue;nontarget;2;NT;1;2;3;2;Stim4_Set1;1;switch;2;1;2;0;1;1;1;;;;;;;;;;;;;;;;;;;;;;;18.9121633;20.0441632;20.0441632;20.0441632;20.0441632;20.0441632;20.0441632;20.0441632;20.0441632;None;0;;;C:\2023\REPSWITCH21092023\REPSWITCH_excgange\REPSWITCH_excgange\data/380203_REPSWITCH1_version2_list3_2023-12-13_11h01.11.464_micRespv2l3_recorded\recording_micRespv2l3_2023-12-13_11h01.27.418.wav;23.0723347;;None;23.0723347;23.0723347;23.0723347;23.0723347;23.0723347;23.0723347;;;;;;380203;1;2023-12-13_11h01.11.464;REPSWITCH1_version2_list3;2022.2.4;143.9078754;
REPSWITCH1/PICTURE_128.png;muñeca;speak;darkblue;repeat;2;T;1;2;3;2;Stim4_Set1;0;None;3;2;3;0;2;2;2;;;;;;;;;;;;;;;;;;;;;;;23.5724276;24.6003969;24.6003969;24.6003969;24.6003969;24.6003969;24.6003969;24.6003969;24.6003969;None;0;;;C:\2023\REPSWITCH21092023\REPSWITCH_excgange\REPSWITCH_excgange\data/380203_REPSWITCH1_version2_list3_2023-12-13_11h01.11.464_micRespv2l3_recorded\recording_micRespv2l3_2023-12-13_11h01.31.975.wav;27.6285782;;None;27.6285782;27.6285782;27.6285782;27.6285782;27.6285782;27.6285782;;;;;;380203;1;2023-12-13_11h01.11.464;REPSWITCH1_version2_list3;2022.2.4;143.9078754;
REPSWITCH1/PICTURE_8.png;pierna;type;gold;filler;1;F;1;2;3;2;Stim3_Set4;0;None;4;3;4;0;3;3;3;;;;;;;;;;;;;;;;;;;;;;;28.1285741;29.2189869;29.2189869;29.2189869;29.2189869;29.2189869;29.2189869;29.2189869;29.2189869;['p', 'i', 'e', 'r', 'n', 'a'];0;[1.2138539999723434, 1.597243799827993, 1.7824610997922719, 1.9508318998850882, 2.086525999940932, 2.2689180998131633];pierna;C:\2023\REPSWITCH21092023\REPSWITCH_excgange\REPSWITCH_excgange\data/380203_REPSWITCH1_version2_list3_2023-12-13_11h01.11.464_micRespv2l3_recorded\recording_micRespv2l3_2023-12-13_11h01.36.593.wav;32.2402125;32.7402668;None;32.2402125;32.2402125;32.2402125;32.2402125;32.2402125;32.2402125;;;;;;380203;1;2023-12-13_11h01.11.464;REPSWITCH1_version2_list3;2022.2.4;143.9078754;
REPSWITCH1/PICTURE_135.png;traje;speak;darkblue;nontarget;2;NT;1;2;3;2;Stim3_Set1;1;switch;5;4;5;0;4;4;4;;;;;;;;;;;;;;;;;;;;;;;32.7402668;33.7682781;33.7682781;33.7682781;33.7682781;33.7682781;33.7682781;33.7682781;33.7682781;None;0;;;C:\2023\REPSWITCH21092023\REPSWITCH_excgange\REPSWITCH_excgange\data/380203_REPSWITCH1_version2_list3_2023-12-13_11h01.11.464_micRespv2l3_recorded\recording_micRespv2l3_2023-12-13_11h01.41.141.wav;36.7894022;37.2894829;None;36.7894022;36.7894022;36.7894022;36.7894022;36.7894022;36.7894022;;;;;;380203;1;2023-12-13_11h01.11.464;REPSWITCH1_version2_list3;2022.2.4;143.9078754;
REPSWITCH1/PICTURE_135.png;traje;speak;darkblue;repeat;2;T;1;2;3;2;Stim3_Set1;0;None;6;5;6;0;5;5;5;;;;;;;;;;;;;;;;;;;;;;;37.2894829;38.4285398;38.4285398;38.4285398;38.4285398;38.4285398;38.4285398;38.4285398;38.4285398;None;0;;;C:\2023\REPSWITCH21092023\REPSWITCH_excgange\REPSWITCH_excgange\data/380203_REPSWITCH1_version2_list3_2023-12-13_11h01.11.464_micRespv2l3_recorded\recording_micRespv2l3_2023-12-13_11h01.45.801.wav;41.4497645;41.9499037;None;41.4497645;41.4497645;41.4497645;41.4497645;41.4497645;41.4497645;;;;;;380203;1;2023-12-13_11h01.11.464;REPSWITCH1_version2_list3;2022.2.4;143.9078754;
REPSWITCH1/PICTURE_673.png;tenedor;type;gold;filler;1;F;1;2;3;2;Extra5;0;None;7;6;7;0;6;6;6;;;;;;;;;;;;;;;;;;;;;;;41.9499037;43.0541592;43.0541592;43.0541592;43.0541592;43.0541592;43.0541592;43.0541592;43.0541592;['t', 'e', 'n', 'e', 'd', 'o', 'r'];0;[0.9477273998782039, 1.0809120000340044, 1.2247967002913356, 1.3224698002450168, 1.5039360001683235, 1.6524224998429418, 1.8045131000690162];tenedor;C:\2023\REPSWITCH21092023\REPSWITCH_excgange\REPSWITCH_excgange\data/380203_REPSWITCH1_version2_list3_2023-12-13_11h01.11.464_micRespv2l3_recorded\recording_micRespv2l3_2023-12-13_11h01.50.428.wav;46.0753927;46.5754353;None;46.0753927;46.0753927;46.0753927;46.0753927;46.0753927;46.0753927;;;;;;380203;1;2023-12-13_11h01.11.464;REPSWITCH1_version2_list3;2022.2.4;143.9078754;
REPSWITCH1/PICTURE_728.png;pulpo;speak;darkblue;filler;2;F;1;2;3;2;Stim8_Set4;0;None;8;7;8;0;7;7;7;;;;;;;;;;;;;;;;;;;;;;;46.5754353;47.6103488;47.6103488;47.6103488;47.6103488;47.6103488;47.6103488;47.6103488;47.6103488;None;0;;;C:\2023\REPSWITCH21092023\REPSWITCH_excgange\REPSWITCH_excgange\data/380203_REPSWITCH1_version2_list3_2023-12-13_11h01.11.464_micRespv2l3_recorded\recording_micRespv2l3_2023-12-13_11h01.54.984.wav;50.6315375;51.1315905;None;50.6315375;50.6315375;50.6315375;50.6315375;50.6315375;50.6315375;;;;;;380203;1;2023-12-13_11h01.11.464;REPSWITCH1_version2_list3;2022.2.4;143.9078754;
REPSWITCH1/PICTURE_16.png;cazador;speak;darkblue;nontarget;2;NT;1;2;3;2;Stim6_Set1;1;repeat;9;8;9;0;8;8;8;;;;;;;;;;;;;;;;;;;;;;;51.1315905;52.2428203;52.2428203;52.2428203;52.2428203;52.2428203;52.2428203;52.2428203;52.2428203;None;0;;;C:\2023\REPSWITCH21092023\REPSWITCH_excgange\REPSWITCH_excgange\data/380203_REPSWITCH1_version2_list3_2023-12-13_11h01.11.464_micRespv2l3_recorded\recording_micRespv2l3_2023-12-13_11h01.59.617.wav;55.2710217;;None;55.2710217;55.2710217;55.2710217;55.2710217;55.2710217;55.2710217;;;;;;380203;1;2023-12-13_11h01.11.464;REPSWITCH1_version2_list3;2022.2.4;143.9078754;
REPSWITCH1/PICTURE_16.png;cazador;type;gold;switch;1;T;1;2;3;2;Stim6_Set1;0;None;10;9;10;0;9;9;9;;;;;;;;;;;;;;;;;;;;;;;55.7710755;56.8962267;56.8962267;56.8962267;56.8962267;56.8962267;56.8962267;56.8962267;56.8962267;['c', 'a', 'z', 'a', 'd', 'o', 'r'];0;[0.837774199899286, 0.9814106002449989, 1.197121700271964, 1.7276416001841426, 1.9748953999951482, 2.0874197999946773, 2.2438711998984218];cazador;C:\2023\REPSWITCH21092023\REPSWITCH_excgange\REPSWITCH_excgange\data/380203_REPSWITCH1_version2_list3_2023-12-13_11h01.11.464_micRespv2l3_recorded\recording_micRespv2l3_2023-12-13_11h02.04.270.wav;59.9174837;60.4176004;None;59.9174837;59.9174837;59.9174837;59.9174837;59.9174837;59.9174837;;;;;;380203;1;2023-12-13_11h01.11.464;REPSWITCH1_version2_list3;2022.2.4;143.9078754;
REPSWITCH1/PICTURE_498.png;taza;type;gold;filler;1;F;1;2;3;2;Stim4_Set4;1;repeat;11;10;11;0;10;10;10;;;;;;;;;;;;;;;;;;;;;;;60.4176004;61.4940427;61.4940427;61.4940427;61.4940427;61.4940427;61.4940427;61.4940427;61.4940427;['t', 'a', 'z', 'a'];0;[1.0590400998480618, 1.2205269997939467, 1.4108229000121355, 1.6356674996204674];taza;C:\2023\REPSWITCH21092023\REPSWITCH_excgange\REPSWITCH_excgange\data/380203_REPSWITCH1_version2_list3_2023-12-13_11h01.11.464_micRespv2l3_recorded\recording_micRespv2l3_2023-12-13_11h02.08.868.wav;64.5222026;;None;64.5222026;64.5222026;64.5222026;64.5222026;64.5222026;64.5222026;;;;;;380203;1;2023-12-13_11h01.11.464;REPSWITCH1_version2_list3;2022.2.4;143.9078754;
REPSWITCH1/PICTURE_381.png;fresa;type;gold;nontarget;1;NT;1;2;3;2;Stim2_Set1;1;repeat;12;11;12;0;11;11;11;;;;;;;;;;;;;;;;;;;;;;;65.0222586;66.1613138;66.1613138;66.1613138;66.1613138;66.1613138;66.1613138;66.1613138;66.1613138;['f', 'r', 'e', 's', 'a'];0;[0.9055949002504349, 1.1589785004034638, 1.370860300026834, 1.636009800247848, 1.836081000044942];fresa;C:\2023\REPSWITCH21092023\REPSWITCH_excgange\REPSWITCH_excgange\data/380203_REPSWITCH1_version2_list3_2023-12-13_11h01.11.464_micRespv2l3_recorded\recording_micRespv2l3_2023-12-13_11h02.13.535.wav;69.1895635;;None;69.1895635;69.1895635;69.1895635;69.1895635;69.1895635;69.1895635;;;;;;380203;1;2023-12-13_11h01.11.464;REPSWITCH1_version2_list3;2022.2.4;143.9078754;
REPSWITCH1/PICTURE_381.png;fresa;speak;darkblue;switch;2;T;1;2;3;2;Stim2_Set1;0;None;13;12;13;0;12;12;12;;;;;;;;;;;;;;;;;;;;;;;69.6895807;70.8911021;70.8911021;70.8911021;70.8911021;70.8911021;70.8911021;70.8911021;70.8911021;None;0;;;C:\2023\REPSWITCH21092023\REPSWITCH_excgange\REPSWITCH_excgange\data/380203_REPSWITCH1_version2_list3_2023-12-13_11h01.11.464_micRespv2l3_recorded\recording_micRespv2l3_2023-12-13_11h02.18.265.wav;73.9192788;;None;73.9192788;73.9192788;73.9192788;73.9192788;73.9192788;73.9192788;;;;;;380203;1;2023-12-13_11h01.11.464;REPSWITCH1_version2_list3;2022.2.4;143.9078754;
REPSWITCH1/PICTURE_178.png;puente;speak;darkblue;nontarget;2;NT;1;2;3;2;Stim1_Set1;0;None;14;13;14;0;13;13;13;;;;;;;;;;;;;;;;;;;;;;;74.419335;75.5375945;75.5375945;75.5375945;75.5375945;75.5375945;75.5375945;75.5375945;75.5375945;None;0;;;C:\2023\REPSWITCH21092023\REPSWITCH_excgange\REPSWITCH_excgange\data/380203_REPSWITCH1_version2_list3_2023-12-13_11h01.11.464_micRespv2l3_recorded\recording_micRespv2l3_2023-12-13_11h02.22.911.wav;78.5657415;;None;78.5657415;78.5657415;78.5657415;78.5657415;78.5657415;78.5657415;;;;;;380203;1;2023-12-13_11h01.11.464;REPSWITCH1_version2_list3;2022.2.4;143.9078754;
REPSWITCH1/PICTURE_178.png;puente;type;gold;switch;1;T;1;2;3;2;Stim1_Set1;0;None;15;14;15;0;14;14;14;;;;;;;;;;;;;;;;;;;;;;;79.0658031;80.1215123;80.1215123;80.1215123;80.1215123;80.1215123;80.1215123;80.1215123;80.1215123;['p', 'u', 'e', 'n', 't', 'e'];0;[0.9814788997173309, 1.2747903000563383, 1.4071438000537455, 1.5177607997320592, 1.7552330996841192, 2.010732799768448];puente;C:\2023\REPSWITCH21092023\REPSWITCH_excgange\REPSWITCH_excgange\data/380203_REPSWITCH1_version2_list3_2023-12-13_11h01.11.464_micRespv2l3_recorded\recording_micRespv2l3_2023-12-13_11h02.27.495.wav;83.1427164;83.6428614;None;83.1427164;83.1427164;83.1427164;83.1427164;83.1427164;83.1427164;;;;;;380203;1;2023-12-13_11h01.11.464;REPSWITCH1_version2_list3;2022.2.4;143.9078754;
REPSWITCH1/PICTURE_719.png;baño;speak;darkblue;filler;2;F;1;2;3;2;Stim2_Set4;0;None;16;15;16;0;15;15;15;;;;;;;;;;;;;;;;;;;;;;;83.6428614;84.7123807;84.7123807;84.7123807;84.7123807;84.7123807;84.7123807;84.7123807;84.7123807;None;0;;;C:\2023\REPSWITCH21092023\REPSWITCH_excgange\REPSWITCH_excgange\data/380203_REPSWITCH1_version2_list3_2023-12-13_11h01.11.464_micRespv2l3_recorded\recording_micRespv2l3_2023-12-13_11h02.32.086.wav;87.7405485;;None;87.7405485;87.7405485;87.7405485;87.7405485;87.7405485;87.7405485;;;;;;380203;1;2023-12-13_11h01.11.464;REPSWITCH1_version2_list3;2022.2.4;143.9078754;
REPSWITCH1/PICTURE_169.png;espalda;type;gold;nontarget;1;NT;1;2;3;2;Stim8_Set1;1;switch;17;16;17;0;16;16;16;;;;;;;;;;;;;;;;;;;;;;;88.2405769;89.3797321;89.3797321;89.3797321;89.3797321;89.3797321;89.3797321;89.3797321;89.3797321;['e', 's', 'p', 'a', 'd', 'backspace', 'l', 'd'];0;[0.8330764998681843, 1.054228600114584, 1.2575742001645267, 1.3921515000984073, 1.663498000241816, 2.1483328002505004, 2.7685610000044107, 2.9139904999174178];espald;C:\2023\REPSWITCH21092023\REPSWITCH_excgange\REPSWITCH_excgange\data/380203_REPSWITCH1_version2_list3_2023-12-13_11h01.11.464_micRespv2l3_recorded\recording_micRespv2l3_2023-12-13_11h02.36.754.wav;92.4008502;92.9009147;None;92.4008502;92.4008502;92.4008502;92.4008502;92.4008502;92.4008502;;;;;;380203;1;2023-12-13_11h01.11.464;REPSWITCH1_version2_list3;2022.2.4;143.9078754;
REPSWITCH1/PICTURE_169.png;espalda;type;gold;repeat;1;T;1;2;3;2;Stim8_Set1;0;None;18;17;18;0;17;17;17;;;;;;;;;;;;;;;;;;;;;;;92.9009147;93.9358948;93.9358948;93.9358948;93.9358948;93.9358948;93.9358948;93.9358948;93.9358948;['e', 's', 'p', 'l', 'a', 'd', 'a'];0;[1.8566474001854658, 2.0371623001992702, 2.1258658999577165, 2.379170599859208, 2.4260684000328183, 2.6622227001935244, 2.8678131997585297];esplada;C:\2023\REPSWITCH21092023\REPSWITCH_excgange\REPSWITCH_excgange\data/380203_REPSWITCH1_version2_list3_2023-12-13_11h01.11.464_micRespv2l3_recorded\recording_micRespv2l3_2023-12-13_11h02.41.310.wav;96.9569994;97.4570754;None;96.9569994;96.9569994;96.9569994;96.9569994;96.9569994;96.9569994;;;;;;380203;1;2023-12-13_11h01.11.464;REPSWITCH1_version2_list3;2022.2.4;143.9078754;
REPSWITCH1/PICTURE_48.png;bombero;speak;darkblue;filler;2;F;1;2;3;2;Stim7_Set4;1;switch;19;18;19;0;18;18;18;;;;;;;;;;;;;;;;;;;;;;;97.4570754;98.5891711;98.5891711;98.5891711;98.5891711;98.5891711;98.5891711;98.5891711;98.5891711;None;0;;;C:\2023\REPSWITCH21092023\REPSWITCH_excgange\REPSWITCH_excgange\data/380203_REPSWITCH1_version2_list3_2023-12-13_11h01.11.464_micRespv2l3_recorded\recording_micRespv2l3_2023-12-13_11h02.45.963.wav;101.6104491;102.11049;None;101.6104491;101.6104491;101.6104491;101.6104491;101.6104491;101.6104491;;;;;;380203;1;2023-12-13_11h01.11.464;REPSWITCH1_version2_list3;2022.2.4;143.9078754;
REPSWITCH1/PICTURE_19.png;pavo;type;gold;nontarget;1;NT;1;2;3;2;Stim5_Set1;1;switch;20;19;20;0;19;19;19;;;;;;;;;;;;;;;;;;;;;;;102.11049;103.256446;103.256446;103.256446;103.256446;103.256446;103.256446;103.256446;103.256446;['p', 'a', 'v', 'o'];0;[1.1878843000158668, 1.3035289999097586, 1.615573300048709, 1.7660170998424292];pavo;C:\2023\REPSWITCH21092023\REPSWITCH_excgange\REPSWITCH_excgange\data/380203_REPSWITCH1_version2_list3_2023-12-13_11h01.11.464_micRespv2l3_recorded\recording_micRespv2l3_2023-12-13_11h02.50.629.wav;106.2777078;106.777765;None;106.2777078;106.2777078;106.2777078;106.2777078;106.2777078;106.2777078;;;;;;380203;1;2023-12-13_11h01.11.464;REPSWITCH1_version2_list3;2022.2.4;143.9078754;
REPSWITCH1/PICTURE_19.png;pavo;type;gold;repeat;1;T;1;2;3;2;Stim5_Set1;0;None;21;20;21;0;20;20;20;;;;;;;;;;;;;;;;;;;;;;;106.777765;107.8612982;107.8612982;107.8612982;107.8612982;107.8612982;107.8612982;107.8612982;107.8612982;['p', 'a', 'v', 'o'];0;[0.9887814000248909, 1.1174105000682175, 1.4530857000499964, 1.6138872001320124];pavo;C:\2023\REPSWITCH21092023\REPSWITCH_excgange\REPSWITCH_excgange\data/380203_REPSWITCH1_version2_list3_2023-12-13_11h01.11.464_micRespv2l3_recorded\recording_micRespv2l3_2023-12-13_11h02.55.235.wav;110.8824713;111.382538;None;110.8824713;110.8824713;110.8824713;110.8824713;110.8824713;110.8824713;;;;;;380203;1;2023-12-13_11h01.11.464;REPSWITCH1_version2_list3;2022.2.4;143.9078754;
REPSWITCH1/PICTURE_319.png;vaca;speak;darkblue;filler;2;F;1;2;3;2;Stim1_Set4;0;None;22;21;22;0;21;21;21;;;;;;;;;;;;;;;;;;;;;;;111.382538;112.5216322;112.5216322;112.5216322;112.5216322;112.5216322;112.5216322;112.5216322;112.5216322;None;0;;;C:\2023\REPSWITCH21092023\REPSWITCH_excgange\REPSWITCH_excgange\data/380203_REPSWITCH1_version2_list3_2023-12-13_11h01.11.464_micRespv2l3_recorded\recording_micRespv2l3_2023-12-13_11h02.59.896.wav;115.5497331;;None;115.5497331;115.5497331;115.5497331;115.5497331;115.5497331;115.5497331;;;;;;380203;1;2023-12-13_11h01.11.464;REPSWITCH1_version2_list3;2022.2.4;143.9078754;
REPSWITCH1/PICTURE_338.png;regalo;type;gold;filler;1;F;1;2;3;2;Stim6_Set4;0;None;23;22;23;0;22;22;22;;;;;;;;;;;;;;;;;;;;;;;116.0498937;117.1749658;117.1749658;117.1749658;117.1749658;117.1749658;117.1749658;117.1749658;117.1749658;['r', 'e', 'g', 'a', 'l', 'o'];0;[0.82011489989236, 1.0234774998389184, 1.1733575998805463, 1.3330935998819768, 1.580977899953723, 1.799154399894178];regalo;C:\2023\REPSWITCH21092023\REPSWITCH_excgange\REPSWITCH_excgange\data/380203_REPSWITCH1_version2_list3_2023-12-13_11h01.11.464_micRespv2l3_recorded\recording_micRespv2l3_2023-12-13_11h03.04.549.wav;120.2031157;;None;120.2031157;120.2031157;120.2031157;120.2031157;120.2031157;120.2031157;;;;;;380203;1;2023-12-13_11h01.11.464;REPSWITCH1_version2_list3;2022.2.4;143.9078754;
REPSWITCH1/PICTURE_142.png;vaso;type;gold;nontarget;1;NT;1;2;3;2;Stim7_Set1;0;None;24;23;24;0;23;23;23;;;;;;;;;;;;;;;;;;;;;;;120.7032516;121.7450166;121.7450166;121.7450166;121.7450166;121.7450166;121.7450166;121.7450166;121.7450166;['v', 'a', 's', 'o'];0;[0.8690970996394753, 0.9886777000501752, 1.1999717997387052, 1.6824015998281538];vaso;C:\2023\REPSWITCH21092023\REPSWITCH_excgange\REPSWITCH_excgange\data/380203_REPSWITCH1_version2_list3_2023-12-13_11h01.11.464_micRespv2l3_recorded\recording_micRespv2l3_2023-12-13_11h03.09.119.wav;124.7731518;;None;124.7731518;124.7731518;124.7731518;124.7731518;124.7731518;124.7731518;;;;;;380203;1;2023-12-13_11h01.11.464;REPSWITCH1_version2_list3;2022.2.4;143.9078754;
REPSWITCH1/PICTURE_142.png;vaso;speak;darkblue;switch;2;T;1;2;3;2;Stim7_Set1;0;None;25;24;25;0;24;24;24;;;;;;;;;;;;;;;;;;;;;;;125.2732176;126.4401347;126.4401347;126.4401347;126.4401347;126.4401347;126.4401347;126.4401347;126.4401347;None;0;;;C:\2023\REPSWITCH21092023\REPSWITCH_excgange\REPSWITCH_excgange\data/380203_REPSWITCH1_version2_list3_2023-12-13_11h01.11.464_micRespv2l3_recorded\recording_micRespv2l3_2023-12-13_11h03.13.814.wav;129.4682252;;None;129.4682252;129.4682252;129.4682252;129.4682252;129.4682252;129.4682252;;;;;;380203;1;2023-12-13_11h01.11.464;REPSWITCH1_version2_list3;2022.2.4;143.9078754;
REPSWITCH1/PICTURE_687.png;camisa;type;gold;filler;1;F;1;2;3;2;Stim5_Set4;1;switch;26;25;26;0;25;25;25;;;;;;;;;;;;;;;;;;;;;;;129.968345;131.0657166;131.0657166;131.0657166;131.0657166;131.0657166;131.0657166;131.0657166;131.0657166;['c', 'a', 'm', 'i', 's', 'a'];0;[1.0762746999971569, 1.2366631999611855, 1.5070643001236022, 1.7482583997771144, 1.9217431996949017, 2.5654913997277617];camisa;C:\2023\REPSWITCH21092023\REPSWITCH_excgange\REPSWITCH_excgange\data/380203_REPSWITCH1_version2_list3_2023-12-13_11h01.11.464_micRespv2l3_recorded\recording_micRespv2l3_2023-12-13_11h03.18.439.wav;134.093845;134.5939098;None;134.093845;134.093845;134.093845;134.093845;134.093845;134.093845;;;;;;380203;1;2023-12-13_11h01.11.464;REPSWITCH1_version2_list3;2022.2.4;143.9078754;
REPSWITCH1/PICTURE_30.png;granja;type;gold;nontarget;1;NT;2;2;3;2;Stim5_Set2;0;None;27;26;27;0;26;26;26;;;;;;;;;;;;;;;;;;;;;;;134.5939098;135.7121346;135.7121346;135.7121346;135.7121346;135.7121346;135.7121346;135.7121346;135.7121346;['g', 'g', 'r', 'a', 'backspace', 'backspace', 'r'];0;[1.0268116001971066, 1.2191488998942077, 1.4244647999294102, 1.5612804000265896, 2.1896112002432346, 2.3430905998684466, 2.9755799998529255];ggr;C:\2023\REPSWITCH21092023\REPSWITCH_excgange\REPSWITCH_excgange\data/380203_REPSWITCH1_version2_list3_2023-12-13_11h01.11.464_micRespv2l3_recorded\recording_micRespv2l3_2023-12-13_11h03.23.086.wav;138.7402636;139.2403541;None;138.7402636;138.7402636;138.7402636;138.7402636;138.7402636;138.7402636;;;;;;380203;1;2023-12-13_11h01.11.464;REPSWITCH1_version2_list3;2022.2.4;143.9078754;
REPSWITCH1/PICTURE_30.png;granja;type;gold;repeat;1;T;2;2;3;2;Stim5_Set2;0;None;28;27;28;0;27;27;27;;;;;;;;;;;;;;;;;;;;;;;139.2403541;140.4279988;140.4279988;140.4279988;140.4279988;140.4279988;140.4279988;140.4279988;140.4279988;['g', 'r', 'a', 'n', 'j', 'a'];0;[0.812874199822545, 1.0281471000052989, 1.1816461998969316, 1.3152176002040505, 1.5646004998125136, 1.718982799910009];granja;C:\2023\REPSWITCH21092023\REPSWITCH_excgange\REPSWITCH_excgange\data/380203_REPSWITCH1_version2_list3_2023-12-13_11h01.11.464_micRespv2l3_recorded\recording_micRespv2l3_2023-12-13_11h03.27.802.wav;143.4561647;;None;143.4561647;143.4561647;143.4561647;143.4561647;143.4561647;143.4561647;;;;;;380203;1;2023-12-13_11h01.11.464;REPSWITCH1_version2_list3;2022.2.4;143.9078754;
REPSWITCH1/PICTURE_128.png;muñeca;speak;darkblue;filler;2;F;2;2;3;2;Stim4_Set1;0;None;29;28;29;0;28;28;28;;;;;;;;;;;;;;;;;;;;;;;143.9562236;145.0675306;145.0675306;145.0675306;145.0675306;145.0675306;145.0675306;145.0675306;145.0675306;None;0;;;C:\2023\REPSWITCH21092023\REPSWITCH_excgange\REPSWITCH_excgange\data/380203_REPSWITCH1_version2_list3_2023-12-13_11h01.11.464_micRespv2l3_recorded\recording_micRespv2l3_2023-12-13_11h03.32.441.wav;148.0957047;;None;148.0957047;148.0957047;148.0957047;148.0957047;148.0957047;148.0957047;;;;;;380203;1;2023-12-13_11h01.11.464;REPSWITCH1_version2_list3;2022.2.4;143.9078754;
REPSWITCH1/PICTURE_264.png;mano;type;gold;nontarget;1;NT;2;2;3;2;Stim3_Set2;1;switch;30;29;30;0;29;29;29;;;;;;;;;;;;;;;;;;;;;;;148.5957467;149.6792364;149.6792364;149.6792364;149.6792364;149.6792364;149.6792364;149.6792364;149.6792364;['m', 'n', 'o', 'backspace', 'backspace', 'a', 'n', 'o'];0;[0.7611727002076805, 1.1013704999350011, 1.4925048998557031, 1.9851536001078784, 2.21694379998371, 2.349902799818665, 2.555207900237292, 2.6160591999068856];mano;C:\2023\REPSWITCH21092023\REPSWITCH_excgange\REPSWITCH_excgange\data/380203_REPSWITCH1_version2_list3_2023-12-13_11h01.11.464_micRespv2l3_recorded\recording_micRespv2l3_2023-12-13_11h03.37.053.wav;152.7004309;153.2005169;None;152.7004309;152.7004309;152.7004309;152.7004309;152.7004309;152.7004309;;;;;;380203;1;2023-12-13_11h01.11.464;REPSWITCH1_version2_list3;2022.2.4;143.9078754;
REPSWITCH1/PICTURE_264.png;mano;type;gold;repeat;1;T;2;2;3;2;Stim3_Set2;0;None;31;30;31;0;30;30;30;;;;;;;;;;;;;;;;;;;;;;;153.2005169;154.228445;154.228445;154.228445;154.228445;154.228445;154.228445;154.228445;154.228445;['m', 'a', 'n', 'o'];0;[0.7041696002706885, 0.8260623002424836, 0.9605887001380324, 1.0791921000927687];mano;C:\2023\REPSWITCH21092023\REPSWITCH_excgange\REPSWITCH_excgange\data/380203_REPSWITCH1_version2_list3_2023-12-13_11h01.11.464_micRespv2l3_recorded\recording_micRespv2l3_2023-12-13_11h03.41.603.wav;157.2565846;;None;157.2565846;157.2565846;157.2565846;157.2565846;157.2565846;157.2565846;;;;;;380203;1;2023-12-13_11h01.11.464;REPSWITCH1_version2_list3;2022.2.4;143.9078754;
REPSWITCH1/PICTURE_175.png;pintor;type;gold;nontarget;1;NT;2;2;3;2;Stim1_Set2;0;None;32;31;32;0;31;31;31;;;;;;;;;;;;;;;;;;;;;;;157.7567243;158.8262587;158.8262587;158.8262587;158.8262587;158.8262587;158.8262587;158.8262587;158.8262587;['p', 'n', 'm', 't', 'o', 'backspace', 'backspace', 'backspace', 'backspace', 'i'];0;[0.8769630999304354, 1.452097900211811, 1.466040600091219, 1.673344099894166, 1.7690866002812982, 2.200255800038576, 2.3840135000646114, 2.5424454999156296, 2.6824692003428936, 2.970348299946636];pi;C:\2023\REPSWITCH21092023\REPSWITCH_excgange\REPSWITCH_excgange\data/380203_REPSWITCH1_version2_list3_2023-12-13_11h01.11.464_micRespv2l3_recorded\recording_micRespv2l3_2023-12-13_11h03.46.200.wav;161.8474865;162.3475448;None;161.8474865;161.8474865;161.8474865;161.8474865;161.8474865;161.8474865;;;;;;380203;1;2023-12-13_11h01.11.464;REPSWITCH1_version2_list3;2022.2.4;143.9078754;
REPSWITCH1/PICTURE_175.png;pintor;speak;darkblue;switch;2;T;2;2;3;2;Stim1_Set2;0;None;33;32;33;0;32;32;32;;;;;;;;;;;;;;;;;;;;;;;162.3475448;163.3824524;163.3824524;163.3824524;163.3824524;163.3824524;163.3824524;163.3824524;163.3824524;None;0;;;C:\2023\REPSWITCH21092023\REPSWITCH_excgange\REPSWITCH_excgange\data/380203_REPSWITCH1_version2_list3_2023-12-13_11h01.11.464_micRespv2l3_recorded\recording_micRespv2l3_2023-12-13_11h03.50.756.wav;166.4036252;166.9037403;None;166.4036252;166.4036252;166.4036252;166.4036252;166.4036252;166.4036252;;;;;;380203;1;2023-12-13_11h01.11.464;REPSWITCH1_version2_list3;2022.2.4;143.9078754;
REPSWITCH1/PICTURE_135.png;traje;speak;darkblue;filler;2;F;2;2;3;2;Stim3_Set1;1;repeat;34;33;34;0;33;33;33;;;;;;;;;;;;;;;;;;;;;;;166.9037403;167.9315942;167.9315942;167.9315942;167.9315942;167.9315942;167.9315942;167.9315942;167.9315942;None;0;;;C:\2023\REPSWITCH21092023\REPSWITCH_excgange\REPSWITCH_excgange\data/380203_REPSWITCH1_version2_list3_2023-12-13_11h01.11.464_micRespv2l3_recorded\recording_micRespv2l3_2023-12-13_11h03.55.305.wav;170.9528474;171.4529057;None;170.9528474;170.9528474;170.9528474;170.9528474;170.9528474;170.9528474;;;;;;380203;1;2023-12-13_11h01.11.464;REPSWITCH1_version2_list3;2022.2.4;143.9078754;
REPSWITCH1/PICTURE_446.png;cerdo;speak;darkblue;nontarget;2;NT;2;2;3;2;Stim7_Set2;1;repeat;35;34;35;0;34;34;34;;;;;;;;;;;;;;;;;;;;;;;171.4529057;172.5363635;172.5363635;172.5363635;172.5363635;172.5363635;172.5363635;172.5363635;172.5363635;None;0;;;C:\2023\REPSWITCH21092023\REPSWITCH_excgange\REPSWITCH_excgange\data/380203_REPSWITCH1_version2_list3_2023-12-13_11h01.11.464_micRespv2l3_recorded\recording_micRespv2l3_2023-12-13_11h03.59.910.wav;175.5576559;176.0576615;None;175.5576559;175.5576559;175.5576559;175.5576559;175.5576559;175.5576559;;;;;;380203;1;2023-12-13_11h01.11.464;REPSWITCH1_version2_list3;2022.2.4;143.9078754;
REPSWITCH1/PICTURE_446.png;cerdo;type;gold;switch;1;T;2;2;3;2;Stim7_Set2;0;None;36;35;36;0;35;35;35;;;;;;;;;;;;;;;;;;;;;;;176.0576615;177.1273175;177.1273175;177.1273175;177.1273175;177.1273175;177.1273175;177.1273175;177.1273175;['c', 'e', 'r', 'd', 'o'];0;[1.0091236997395754, 1.2135024997405708, 1.4030349999666214, 1.6102486997842789, 1.790653099771589];cerdo;C:\2023\REPSWITCH21092023\REPSWITCH_excgange\REPSWITCH_excgange\data/380203_REPSWITCH1_version2_list3_2023-12-13_11h01.11.464_micRespv2l3_recorded\recording_micRespv2l3_2023-12-13_11h04.04.502.wav;180.1554027;;None;180.1554027;180.1554027;180.1554027;180.1554027;180.1554027;180.1554027;;;;;;380203;1;2023-12-13_11h01.11.464;REPSWITCH1_version2_list3;2022.2.4;143.9078754;
REPSWITCH1/PICTURE_152.png;caracol;type;gold;nontarget;1;NT;2;2;3;2;Stim2_Set2;1;repeat;37;36;37;0;36;36;36;;;;;;;;;;;;;;;;;;;;;;;180.655583;181.7736752;181.7736752;181.7736752;181.7736752;181.7736752;181.7736752;181.7736752;181.7736752;['c', 'a', 'r', 'a', 'c', 'o', 'l'];0;[0.8928694999776781, 1.1019907998852432, 1.1938069998286664, 1.3052777997218072, 1.5527250999584794, 1.7221592999994755, 1.8616573996841908];caracol;C:\2023\REPSWITCH21092023\REPSWITCH_excgange\REPSWITCH_excgange\data/380203_REPSWITCH1_version2_list3_2023-12-13_11h01.11.464_micRespv2l3_recorded\recording_micRespv2l3_2023-12-13_11h04.09.148.wav;184.7949385;185.2949899;None;184.7949385;184.7949385;184.7949385;184.7949385;184.7949385;184.7949385;;;;;;380203;1;2023-12-13_11h01.11.464;REPSWITCH1_version2_list3;2022.2.4;143.9078754;
REPSWITCH1/PICTURE_152.png;caracol;speak;darkblue;switch;2;T;2;2;3;2;Stim2_Set2;0;None;38;37;38;0;37;37;37;;;;;;;;;;;;;;;;;;;;;;;185.2949899;186.3576347;186.3576347;186.3576347;186.3576347;186.3576347;186.3576347;186.3576347;186.3576347;None;0;;;C:\2023\REPSWITCH21092023\REPSWITCH_excgange\REPSWITCH_excgange\data/380203_REPSWITCH1_version2_list3_2023-12-13_11h01.11.464_micRespv2l3_recorded\recording_micRespv2l3_2023-12-13_11h04.13.731.wav;189.3788362;189.8789353;None;189.3788362;189.3788362;189.3788362;189.3788362;189.3788362;189.3788362;;;;;;380203;1;2023-12-13_11h01.11.464;REPSWITCH1_version2_list3;2022.2.4;143.9078754;
REPSWITCH1/PICTURE_16.png;cazador;type;gold;filler;1;F;2;2;3;2;Stim6_Set1;0;None;39;38;39;0;38;38;38;;;;;;;;;;;;;;;;;;;;;;;189.8789353;191.0665994;191.0665994;191.0665994;191.0665994;191.0665994;191.0665994;191.0665994;191.0665994;['c', 'a', 'z', 'a', 'd', 'o', 'r'];0;[0.8944236999377608, 1.087782900314778, 1.2652981001883745, 1.470592400059104, 1.6802439000457525, 1.8162870001979172, 1.96304289996624];cazador;C:\2023\REPSWITCH21092023\REPSWITCH_excgange\REPSWITCH_excgange\data/380203_REPSWITCH1_version2_list3_2023-12-13_11h01.11.464_micRespv2l3_recorded\recording_micRespv2l3_2023-12-13_11h04.18.440.wav;194.0878275;194.5878793;None;194.0878275;194.0878275;194.0878275;194.0878275;194.0878275;194.0878275;;;;;;380203;1;2023-12-13_11h01.11.464;REPSWITCH1_version2_list3;2022.2.4;143.9078754;
REPSWITCH1/PICTURE_381.png;fresa;speak;darkblue;filler;2;F;2;2;3;2;Stim2_Set1;0;None;40;39;40;0;39;39;39;;;;;;;;;;;;;;;;;;;;;;;194.5878793;195.6922904;195.6922904;195.6922904;195.6922904;195.6922904;195.6922904;195.6922904;195.6922904;None;0;;;C:\2023\REPSWITCH21092023\REPSWITCH_excgange\REPSWITCH_excgange\data/380203_REPSWITCH1_version2_list3_2023-12-13_11h01.11.464_micRespv2l3_recorded\recording_micRespv2l3_2023-12-13_11h04.23.066.wav;198.7134289;199.2134959;None;198.7134289;198.7134289;198.7134289;198.7134289;198.7134289;198.7134289;;;;;;380203;1;2023-12-13_11h01.11.464;REPSWITCH1_version2_list3;2022.2.4;143.9078754;
REPSWITCH1/PICTURE_19.png;pavo;type;gold;filler;1;F;2;2;3;2;Stim5_Set1;0;None;41;40;41;0;40;40;40;;;;;;;;;;;;;;;;;;;;;;;199.2134959;200.2969915;200.2969915;200.2969915;200.2969915;200.2969915;200.2969915;200.2969915;200.2969915;['p', 'a', 'v', 'o'];0;[1.1375347999855876, 1.2322046998888254, 1.5303631001152098, 1.654580700211227];pavo;C:\2023\REPSWITCH21092023\REPSWITCH_excgange\REPSWITCH_excgange\data/380203_REPSWITCH1_version2_list3_2023-12-13_11h01.11.464_micRespv2l3_recorded\recording_micRespv2l3_2023-12-13_11h04.27.671.wav;203.3182056;203.8182341;None;203.3182056;203.3182056;203.3182056;203.3182056;203.3182056;203.3182056;;;;;;380203;1;2023-12-13_11h01.11.464;REPSWITCH1_version2_list3;2022.2.4;143.9078754;
REPSWITCH1/PICTURE_517.png;cuerda;speak;darkblue;nontarget;2;NT;2;2;3;2;Stim4_Set2;1;switch;42;41;42;0;41;41;41;;;;;;;;;;;;;;;;;;;;;;;203.8182341;204.9573142;204.9573142;204.9573142;204.9573142;204.9573142;204.9573142;204.9573142;204.9573142;None;0;;;C:\2023\REPSWITCH21092023\REPSWITCH_excgange\REPSWITCH_excgange\data/380203_REPSWITCH1_version2_list3_2023-12-13_11h01.11.464_micRespv2l3_recorded\recording_micRespv2l3_2023-12-13_11h04.32.332.wav;207.9854712;;None;207.9854712;207.9854712;207.9854712;207.9854712;207.9854712;207.9854712;;;;;;380203;1;2023-12-13_11h01.11.464;REPSWITCH1_version2_list3;2022.2.4;143.9078754;
REPSWITCH1/PICTURE_517.png;cuerda;speak;darkblue;repeat;2;T;2;2;3;2;Stim4_Set2;0;None;43;42;43;0;42;42;42;;;;;;;;;;;;;;;;;;;;;;;208.4856147;209.5343111;209.5343111;209.5343111;209.5343111;209.5343111;209.5343111;209.5343111;209.5343111;None;0;;;C:\2023\REPSWITCH21092023\REPSWITCH_excgange\REPSWITCH_excgange\data/380203_REPSWITCH1_version2_list3_2023-12-13_11h01.11.464_micRespv2l3_recorded\recording_micRespv2l3_2023-12-13_11h04.36.908.wav;212.5555115;213.0556636;None;212.5555115;212.5555115;212.5555115;212.5555115;212.5555115;212.5555115;;;;;;380203;1;2023-12-13_11h01.11.464;REPSWITCH1_version2_list3;2022.2.4;143.9078754;
REPSWITCH1/PICTURE_178.png;puente;type;gold;filler;1;F;2;2;3;2;Stim1_Set1;0;None;44;43;44;0;43;43;43;;;;;;;;;;;;;;;;;;;;;;;213.0556636;214.1530322;214.1530322;214.1530322;214.1530322;214.1530322;214.1530322;214.1530322;214.1530322;['p', 'u', 'e', 'n', 't', 'e'];0;[0.9908668999560177, 1.3698619999922812, 1.5103782997466624, 1.6190163996070623, 1.8164069997146726, 2.0326846996322274];puente;C:\2023\REPSWITCH21092023\REPSWITCH_excgange\REPSWITCH_excgange\data/380203_REPSWITCH1_version2_list3_2023-12-13_11h01.11.464_micRespv2l3_recorded\recording_micRespv2l3_2023-12-13_11h04.41.527.wav;217.1811753;;None;217.1811753;217.1811753;217.1811753;217.1811753;217.1811753;217.1811753;;;;;;380203;1;2023-12-13_11h01.11.464;REPSWITCH1_version2_list3;2022.2.4;143.9078754;
REPSWITCH1/PICTURE_199.png;falda;speak;darkblue;nontarget;2;NT;2;2;3;2;Stim8_Set2;1;switch;45;44;45;0;44;44;44;;;;;;;;;;;;;;;;;;;;;;;217.6812307;218.7646389;218.7646389;218.7646389;218.7646389;218.7646389;218.7646389;218.7646389;218.7646389;None;0;;;C:\2023\REPSWITCH21092023\REPSWITCH_excgange\REPSWITCH_excgange\data/380203_REPSWITCH1_version2_list3_2023-12-13_11h01.11.464_micRespv2l3_recorded\recording_micRespv2l3_2023-12-13_11h04.46.139.wav;221.7928032;;None;221.7928032;221.7928032;221.7928032;221.7928032;221.7928032;221.7928032;;;;;;380203;1;2023-12-13_11h01.11.464;REPSWITCH1_version2_list3;2022.2.4;143.9078754;
REPSWITCH1/PICTURE_199.png;falda;speak;darkblue;repeat;2;T;2;2;3;2;Stim8_Set2;0;None;46;45;46;0;45;45;45;;;;;;;;;;;;;;;;;;;;;;;222.2929058;223.3485794;223.3485794;223.3485794;223.3485794;223.3485794;223.3485794;223.3485794;223.3485794;None;0;;;C:\2023\REPSWITCH21092023\REPSWITCH_excgange\REPSWITCH_excgange\data/380203_REPSWITCH1_version2_list3_2023-12-13_11h01.11.464_micRespv2l3_recorded\recording_micRespv2l3_2023-12-13_11h04.50.722.wav;226.369809;226.8698898;None;226.369809;226.369809;226.369809;226.369809;226.369809;226.369809;;;;;;380203;1;2023-12-13_11h01.11.464;REPSWITCH1_version2_list3;2022.2.4;143.9078754;
REPSWITCH1/PICTURE_169.png;espalda;type;gold;filler;1;F;2;2;3;2;Stim8_Set1;0;None;47;46;47;0;46;46;46;;;;;;;;;;;;;;;;;;;;;;;226.8698898;228.0089386;228.0089386;228.0089386;228.0089386;228.0089386;228.0089386;228.0089386;228.0089386;['e', 's', 'p', 'a', 'k', 'l', 'd', 'a'];0;[1.0084165995940566, 1.1956360996700823, 1.3327162000350654, 1.4333146000280976, 1.5739180999808013, 1.5778680997900665, 1.7114496999420226, 1.9015937997028232];espaklda;C:\2023\REPSWITCH21092023\REPSWITCH_excgange\REPSWITCH_excgange\data/380203_REPSWITCH1_version2_list3_2023-12-13_11h01.11.464_micRespv2l3_recorded\recording_micRespv2l3_2023-12-13_11h04.55.382.wav;231.0301248;231.5301984;None;231.0301248;231.0301248;231.0301248;231.0301248;231.0301248;231.0301248;;;;;;380203;1;2023-12-13_11h01.11.464;REPSWITCH1_version2_list3;2022.2.4;143.9078754;
REPSWITCH1/PICTURE_142.png;vaso;speak;darkblue;filler;2;F;2;2;3;2;Stim7_Set1;0;None;48;47;48;0;47;47;47;;;;;;;;;;;;;;;;;;;;;;;231.5301984;232.5442937;232.5442937;232.5442937;232.5442937;232.5442937;232.5442937;232.5442937;232.5442937;None;0;;;C:\2023\REPSWITCH21092023\REPSWITCH_excgange\REPSWITCH_excgange\data/380203_REPSWITCH1_version2_list3_2023-12-13_11h01.11.464_micRespv2l3_recorded\recording_micRespv2l3_2023-12-13_11h04.59.918.wav;235.5724248;236.0724853;None;235.5724248;235.5724248;235.5724248;235.5724248;235.5724248;235.5724248;;;;;;380203;1;2023-12-13_11h01.11.464;REPSWITCH1_version2_list3;2022.2.4;143.9078754;
REPSWITCH1/PICTURE_552.png;manzana;speak;darkblue;nontarget;2;NT;2;2;3;2;Stim6_Set2;0;None;49;48;49;0;48;48;48;;;;;;;;;;;;;;;;;;;;;;;236.0724853;237.3018298;237.3018298;237.3018298;237.3018298;237.3018298;237.3018298;237.3018298;237.3018298;None;0;;;C:\2023\REPSWITCH21092023\REPSWITCH_excgange\REPSWITCH_excgange\data/380203_REPSWITCH1_version2_list3_2023-12-13_11h01.11.464_micRespv2l3_recorded\recording_micRespv2l3_2023-12-13_11h05.04.676.wav;240.3230792;240.8231414;None;240.3230792;240.3230792;240.3230792;240.3230792;240.3230792;240.3230792;;;;;;380203;1;2023-12-13_11h01.11.464;REPSWITCH1_version2_list3;2022.2.4;143.9078754;
REPSWITCH1/PICTURE_552.png;manzana;type;gold;switch;1;T;2;2;3;2;Stim6_Set2;0;None;50;49;50;0;49;49;49;;;;;;;;;;;;;;;;;;;;;;;240.8231414;241.8996201;241.8996201;241.8996201;241.8996201;241.8996201;241.8996201;241.8996201;241.8996201;['m', 'a', 'n', 'a', 'n', 'a', 'backspace', 'backspace', 'z', 'a', 'n', 'b'];0;[0.4850168996490538, 0.6513934000395238, 0.7949472996406257, 1.327191499993205, 1.5046449997462332, 1.7051937999203801, 2.1743203997612, 2.3158438997343183, 2.4364403998479247, 2.6417843997478485, 2.8026453000493348, 2.8056246996857226];manazab;C:\2023\REPSWITCH21092023\REPSWITCH_excgange\REPSWITCH_excgange\data/380203_REPSWITCH1_version2_list3_2023-12-13_11h01.11.464_micRespv2l3_recorded\recording_micRespv2l3_2023-12-13_11h05.09.274.wav;244.927812;;None;244.927812;244.927812;244.927812;244.927812;244.927812;244.927812;;;;;;380203;1;2023-12-13_11h01.11.464;REPSWITCH1_version2_list3;2022.2.4;143.9078754;
REPSWITCH1/PICTURE_590.png;escoba;speak;darkblue;filler;2;F;1;2;3;2;Extra3;0;None;51;50;51;0;50;50;50;;;;;;;;;;;;;;;;;;;;;;;245.4278681;246.5460538;246.5460538;246.5460538;246.5460538;246.5460538;246.5460538;246.5460538;246.5460538;None;0;;;C:\2023\REPSWITCH21092023\REPSWITCH_excgange\REPSWITCH_excgange\data/380203_REPSWITCH1_version2_list3_2023-12-13_11h01.11.464_micRespv2l3_recorded\recording_micRespv2l3_2023-12-13_11h05.13.920.wav;249.5743286;;space;249.5743286;249.5743286;249.5743286;249.5743286;249.5743286;249.5743286;250.0743305;250.0743305;2.3044044;;;380203;1;2023-12-13_11h01.11.464;REPSWITCH1_version2_list3;2022.2.4;143.9078754;
REPSWITCH1/PICTURE_552.png;manzana;type;gold;filler;1;F;3;2;3;2;Stim6_Set2;0;None;52;51;52;0;51;51;51;;;;;;;;;;;;;;;;;;;;;;;252.3871031;253.4428091;253.4428091;253.4428091;253.4428091;253.4428091;253.4428091;253.4428091;253.4428091;['m', 'a', 'n', 'z', 'a', 'n', 'a'];0;[1.0379015998914838, 1.2152664000168443, 1.3229598999023438, 1.4705389998853207, 1.65583990002051, 1.7485449998639524, 1.8878783998079598];manzana;C:\2023\REPSWITCH21092023\REPSWITCH_excgange\REPSWITCH_excgange\data/380203_REPSWITCH1_version2_list3_2023-12-13_11h01.11.464_micRespv2l3_recorded\recording_micRespv2l3_2023-12-13_11h05.20.817.wav;256.4710099;;None;256.4710099;256.4710099;256.4710099;256.4710099;256.4710099;256.4710099;;;;;;380203;1;2023-12-13_11h01.11.464;REPSWITCH1_version2_list3;2022.2.4;143.9078754;
REPSWITCH1/PICTURE_464.png;goma;type;gold;nontarget;1;NT;3;2;3;2;Stim6_Set3;1;repeat;53;52;53;0;52;52;52;;;;;;;;;;;;;;;;;;;;;;;256.9710244;258.0407113;258.0407113;258.0407113;258.0407113;258.0407113;258.0407113;258.0407113;258.0407113;['g', 'o', 'm', 'a'];0;[1.1514192000031471, 1.322845600079745, 1.531139800325036, 1.6816516001708806];goma;C:\2023\REPSWITCH21092023\REPSWITCH_excgange\REPSWITCH_excgange\data/380203_REPSWITCH1_version2_list3_2023-12-13_11h01.11.464_micRespv2l3_recorded\recording_micRespv2l3_2023-12-13_11h05.25.415.wav;261.0619342;261.5619052;None;261.0619342;261.0619342;261.0619342;261.0619342;261.0619342;261.0619342;;;;;;380203;1;2023-12-13_11h01.11.464;REPSWITCH1_version2_list3;2022.2.4;143.9078754;
REPSWITCH1/PICTURE_464.png;goma;speak;darkblue;switch;2;T;3;2;3;2;Stim6_Set3;0;None;54;53;54;0;53;53;53;;;;;;;;;;;;;;;;;;;;;;;261.5619052;262.6384881;262.6384881;262.6384881;262.6384881;262.6384881;262.6384881;262.6384881;262.6384881;None;0;;;C:\2023\REPSWITCH21092023\REPSWITCH_excgange\REPSWITCH_excgange\data/380203_REPSWITCH1_version2_list3_2023-12-13_11h01.11.464_micRespv2l3_recorded\recording_micRespv2l3_2023-12-13_11h05.30.012.wav;265.6597032;266.1598469;None;265.6597032;265.6597032;265.6597032;265.6597032;265.6597032;265.6597032;;;;;;380203;1;2023-12-13_11h01.11.464;REPSWITCH1_version2_list3;2022.2.4;143.9078754;
REPSWITCH1/PICTURE_30.png;granja;speak;darkblue;filler;2;F;3;2;3;2;Stim5_Set2;0;None;55;54;55;0;54;54;54;;;;;;;;;;;;;;;;;;;;;;;266.1598469;267.2849259;267.2849259;267.2849259;267.2849259;267.2849259;267.2849259;267.2849259;267.2849259;None;0;;;C:\2023\REPSWITCH21092023\REPSWITCH_excgange\REPSWITCH_excgange\data/380203_REPSWITCH1_version2_list3_2023-12-13_11h01.11.464_micRespv2l3_recorded\recording_micRespv2l3_2023-12-13_11h05.34.659.wav;270.3061033;270.8062519;None;270.3061033;270.3061033;270.3061033;270.3061033;270.3061033;270.3061033;;;;;;380203;1;2023-12-13_11h01.11.464;REPSWITCH1_version2_list3;2022.2.4;143.9078754;
REPSWITCH1/PICTURE_235.png;aguja;speak;darkblue;nontarget;2;NT;3;2;3;2;Stim4_Set3;1;repeat;56;55;56;0;55;55;55;;;;;;;;;;;;;;;;;;;;;;;270.8062519;271.9035829;271.9035829;271.9035829;271.9035829;271.9035829;271.9035829;271.9035829;271.9035829;None;0;;;C:\2023\REPSWITCH21092023\REPSWITCH_excgange\REPSWITCH_excgange\data/380203_REPSWITCH1_version2_list3_2023-12-13_11h01.11.464_micRespv2l3_recorded\recording_micRespv2l3_2023-12-13_11h05.39.277.wav;274.9317079;;None;274.9317079;274.9317079;274.9317079;274.9317079;274.9317079;274.9317079;;;;;;380203;1;2023-12-13_11h01.11.464;REPSWITCH1_version2_list3;2022.2.4;143.9078754;
REPSWITCH1/PICTURE_235.png;aguja;type;gold;switch;1;T;3;2;3;2;Stim4_Set3;0;None;57;56;57;0;56;56;56;;;;;;;;;;;;;;;;;;;;;;;275.4318188;276.4597302;276.4597302;276.4597302;276.4597302;276.4597302;276.4597302;276.4597302;276.4597302;['a', 'g', 'u', 'j', 'a'];0;[0.7319497996941209, 1.0927439997904003, 1.3390262997709215, 1.5823703999631107, 1.698334800079465];aguja;C:\2023\REPSWITCH21092023\REPSWITCH_excgange\REPSWITCH_excgange\data/380203_REPSWITCH1_version2_list3_2023-12-13_11h01.11.464_micRespv2l3_recorded\recording_micRespv2l3_2023-12-13_11h05.43.833.wav;279.4809652;279.9809975;None;279.4809652;279.4809652;279.4809652;279.4809652;279.4809652;279.4809652;;;;;;380203;1;2023-12-13_11h01.11.464;REPSWITCH1_version2_list3;2022.2.4;143.9078754;
REPSWITCH1/PICTURE_391.png;cadena;type;gold;filler;1;F;3;2;3;2;Extra2;0;None;58;57;58;0;57;57;57;;;;;;;;;;;;;;;;;;;;;;;279.9809975;281.1061818;281.1061818;281.1061818;281.1061818;281.1061818;281.1061818;281.1061818;281.1061818;['c', 'a', 'd', 'e', 'n', 'a'];0;[1.6765692001208663, 1.7711984999477863, 1.9965745001100004, 2.1759287999011576, 2.2636726000346243, 2.404634799808264];cadena;C:\2023\REPSWITCH21092023\REPSWITCH_excgange\REPSWITCH_excgange\data/380203_REPSWITCH1_version2_list3_2023-12-13_11h01.11.464_micRespv2l3_recorded\recording_micRespv2l3_2023-12-13_11h05.48.481.wav;284.1343837;;None;284.1343837;284.1343837;284.1343837;284.1343837;284.1343837;284.1343837;;;;;;380203;1;2023-12-13_11h01.11.464;REPSWITCH1_version2_list3;2022.2.4;143.9078754;
REPSWITCH1/PICTURE_320.png;iglesia;type;gold;nontarget;1;NT;3;2;3;2;Stim8_Set3;0;None;59;58;59;0;58;58;58;;;;;;;;;;;;;;;;;;;;;;;284.6344058;285.842884;285.842884;285.842884;285.842884;285.842884;285.842884;285.842884;285.842884;['i', 'l', 'e', 's', 'o', 'a', 'backspace', 'backspace', 'backspace', 'backspace'];0;[1.1025107000023127, 1.4596259002573788, 1.612109700217843, 1.8323885998688638, 1.9440130000002682, 2.062230700161308, 2.357530999928713, 2.5030207000672817, 2.7883804999291897, 2.9528290000744164];il;C:\2023\REPSWITCH21092023\REPSWITCH_excgange\REPSWITCH_excgange\data/380203_REPSWITCH1_version2_list3_2023-12-13_11h01.11.464_micRespv2l3_recorded\recording_micRespv2l3_2023-12-13_11h05.53.216.wav;288.8641094;289.3641697;None;288.8641094;288.8641094;288.8641094;288.8641094;288.8641094;288.8641094;;;;;;380203;1;2023-12-13_11h01.11.464;REPSWITCH1_version2_list3;2022.2.4;143.9078754;
REPSWITCH1/PICTURE_320.png;iglesia;speak;darkblue;switch;2;T;3;2;3;2;Stim8_Set3;0;None;60;59;60;0;59;59;59;;;;;;;;;;;;;;;;;;;;;;;289.3641697;290.5518365;290.5518365;290.5518365;290.5518365;290.5518365;290.5518365;290.5518365;290.5518365;None;0;;;C:\2023\REPSWITCH21092023\REPSWITCH_excgange\REPSWITCH_excgange\data/380203_REPSWITCH1_version2_list3_2023-12-13_11h01.11.464_micRespv2l3_recorded\recording_micRespv2l3_2023-12-13_11h05.57.925.wav;293.5730737;294.0731242;None;293.5730737;293.5730737;293.5730737;293.5730737;293.5730737;293.5730737;;;;;;380203;1;2023-12-13_11h01.11.464;REPSWITCH1_version2_list3;2022.2.4;143.9078754;
REPSWITCH1/PICTURE_175.png;pintor;type;gold;filler;1;F;3;2;3;2;Stim1_Set2;0;None;61;60;61;0;60;60;60;;;;;;;;;;;;;;;;;;;;;;;294.0731242;295.1705777;295.1705777;295.1705777;295.1705777;295.1705777;295.1705777;295.1705777;295.1705777;['p', 'u', 'i', 'n', 't', 'o', 't', 'backspace', 'r'];0;[0.8098713997751474, 1.1207826999016106, 1.1237689997069538, 1.315470099914819, 1.5397534999065101, 1.7024118998087943, 2.2379957996308804, 2.6306745000183582, 2.7513383999466896];pintor;C:\2023\REPSWITCH21092023\REPSWITCH_excgange\REPSWITCH_excgange\data/380203_REPSWITCH1_version2_list3_2023-12-13_11h01.11.464_micRespv2l3_recorded\recording_micRespv2l3_2023-12-13_11h06.02.545.wav;298.1986503;;None;298.1986503;298.1986503;298.1986503;298.1986503;298.1986503;298.1986503;;;;;;380203;1;2023-12-13_11h01.11.464;REPSWITCH1_version2_list3;2022.2.4;143.9078754;
REPSWITCH1/PICTURE_271.png;conejo;speak;darkblue;nontarget;2;NT;3;2;3;2;Stim7_Set3;1;switch;62;61;62;0;61;61;61;;;;;;;;;;;;;;;;;;;;;;;298.6988221;299.8169921;299.8169921;299.8169921;299.8169921;299.8169921;299.8169921;299.8169921;299.8169921;None;0;;;C:\2023\REPSWITCH21092023\REPSWITCH_excgange\REPSWITCH_excgange\data/380203_REPSWITCH1_version2_list3_2023-12-13_11h01.11.464_micRespv2l3_recorded\recording_micRespv2l3_2023-12-13_11h06.07.191.wav;302.8451786;;None;302.8451786;302.8451786;302.8451786;302.8451786;302.8451786;302.8451786;;;;;;380203;1;2023-12-13_11h01.11.464;REPSWITCH1_version2_list3;2022.2.4;143.9078754;
REPSWITCH1/PICTURE_271.png;conejo;speak;darkblue;repeat;2;T;3;2;3;2;Stim7_Set3;0;None;63;62;63;0;62;62;62;;;;;;;;;;;;;;;;;;;;;;;303.3451724;304.4425748;304.4425748;304.4425748;304.4425748;304.4425748;304.4425748;304.4425748;304.4425748;None;0;;;C:\2023\REPSWITCH21092023\REPSWITCH_excgange\REPSWITCH_excgange\data/380203_REPSWITCH1_version2_list3_2023-12-13_11h01.11.464_micRespv2l3_recorded\recording_micRespv2l3_2023-12-13_11h06.11.817.wav;307.4707313;;None;307.4707313;307.4707313;307.4707313;307.4707313;307.4707313;307.4707313;;;;;;380203;1;2023-12-13_11h01.11.464;REPSWITCH1_version2_list3;2022.2.4;143.9078754;
REPSWITCH1/PICTURE_446.png;cerdo;speak;darkblue;filler;2;F;3;2;3;2;Stim7_Set2;0;None;64;63;64;0;63;63;63;;;;;;;;;;;;;;;;;;;;;;;307.9707865;309.0820474;309.0820474;309.0820474;309.0820474;309.0820474;309.0820474;309.0820474;309.0820474;None;0;;;C:\2023\REPSWITCH21092023\REPSWITCH_excgange\REPSWITCH_excgange\data/380203_REPSWITCH1_version2_list3_2023-12-13_11h01.11.464_micRespv2l3_recorded\recording_micRespv2l3_2023-12-13_11h06.16.456.wav;312.1102082;;None;312.1102082;312.1102082;312.1102082;312.1102082;312.1102082;312.1102082;;;;;;380203;1;2023-12-13_11h01.11.464;REPSWITCH1_version2_list3;2022.2.4;143.9078754;
REPSWITCH1/PICTURE_152.png;caracol;type;gold;filler;1;F;3;2;3;2;Stim2_Set2;0;None;65;64;65;0;64;64;64;;;;;;;;;;;;;;;;;;;;;;;312.6103002;313.7076727;313.7076727;313.7076727;313.7076727;313.7076727;313.7076727;313.7076727;313.7076727;['c', 'a', 'r', 'a', 'c', 'o', 'l'];0;[0.5909279002808034, 0.938000800088048, 1.1413573999889195, 1.2513437001034617, 1.4955021999776363, 1.692164700012654, 1.8323764000087976];caracol;C:\2023\REPSWITCH21092023\REPSWITCH_excgange\REPSWITCH_excgange\data/380203_REPSWITCH1_version2_list3_2023-12-13_11h01.11.464_micRespv2l3_recorded\recording_micRespv2l3_2023-12-13_11h06.21.082.wav;316.7358358;;None;316.7358358;316.7358358;316.7358358;316.7358358;316.7358358;316.7358358;;;;;;380203;1;2023-12-13_11h01.11.464;REPSWITCH1_version2_list3;2022.2.4;143.9078754;
REPSWITCH1/PICTURE_576.png;guante;speak;darkblue;nontarget;2;NT;3;2;3;2;Stim1_Set3;1;switch;66;65;66;0;65;65;65;;;;;;;;;;;;;;;;;;;;;;;317.2358978;318.2846737;318.2846737;318.2846737;318.2846737;318.2846737;318.2846737;318.2846737;318.2846737;None;0;;;C:\2023\REPSWITCH21092023\REPSWITCH_excgange\REPSWITCH_excgange\data/380203_REPSWITCH1_version2_list3_2023-12-13_11h01.11.464_micRespv2l3_recorded\recording_micRespv2l3_2023-12-13_11h06.25.659.wav;321.3128202;321.8128946;None;321.3128202;321.3128202;321.3128202;321.3128202;321.3128202;321.3128202;;;;;;380203;1;2023-12-13_11h01.11.464;REPSWITCH1_version2_list3;2022.2.4;143.9078754;
REPSWITCH1/PICTURE_576.png;guante;speak;darkblue;repeat;2;T;3;2;3;2;Stim1_Set3;0;None;67;66;67;0;66;66;66;;;;;;;;;;;;;;;;;;;;;;;321.8128946;322.8547015;322.8547015;322.8547015;322.8547015;322.8547015;322.8547015;322.8547015;322.8547015;None;0;;;C:\2023\REPSWITCH21092023\REPSWITCH_excgange\REPSWITCH_excgange\data/380203_REPSWITCH1_version2_list3_2023-12-13_11h01.11.464_micRespv2l3_recorded\recording_micRespv2l3_2023-12-13_11h06.30.228.wav;325.8759185;326.3759691;None;325.8759185;325.8759185;325.8759185;325.8759185;325.8759185;325.8759185;;;;;;380203;1;2023-12-13_11h01.11.464;REPSWITCH1_version2_list3;2022.2.4;143.9078754;
REPSWITCH1/PICTURE_242.png;cartero;speak;darkblue;nontarget;2;NT;3;2;3;2;Stim3_Set3;0;None;68;67;68;0;67;67;67;;;;;;;;;;;;;;;;;;;;;;;326.3759691;327.4177926;327.4177926;327.4177926;327.4177926;327.4177926;327.4177926;327.4177926;327.4177926;None;0;;;C:\2023\REPSWITCH21092023\REPSWITCH_excgange\REPSWITCH_excgange\data/380203_REPSWITCH1_version2_list3_2023-12-13_11h01.11.464_micRespv2l3_recorded\recording_micRespv2l3_2023-12-13_11h06.34.792.wav;330.4390021;330.9390547;None;330.4390021;330.4390021;330.4390021;330.4390021;330.4390021;330.4390021;;;;;;380203;1;2023-12-13_11h01.11.464;REPSWITCH1_version2_list3;2022.2.4;143.9078754;
REPSWITCH1/PICTURE_242.png;cartero;type;gold;switch;1;T;3;2;3;2;Stim3_Set3;0;None;69;68;69;0;68;68;68;;;;;;;;;;;;;;;;;;;;;;;330.9390547;332.1753542;332.1753542;332.1753542;332.1753542;332.1753542;332.1753542;332.1753542;332.1753542;['c', 'a', 'r', 't', 'y', 'e', 'r', 'o'];0;[0.7302782000042498, 0.9086218001320958, 1.0760999000631273, 1.2547003999352455, 1.2576643000356853, 1.4202142003923655, 1.5716479001566768, 1.7094995002262294];cartyero;C:\2023\REPSWITCH21092023\REPSWITCH_excgange\REPSWITCH_excgange\data/380203_REPSWITCH1_version2_list3_2023-12-13_11h01.11.464_micRespv2l3_recorded\recording_micRespv2l3_2023-12-13_11h06.39.549.wav;335.1965617;335.6966475;None;335.1965617;335.1965617;335.1965617;335.1965617;335.1965617;335.1965617;;;;;;380203;1;2023-12-13_11h01.11.464;REPSWITCH1_version2_list3;2022.2.4;143.9078754;
REPSWITCH1/PICTURE_517.png;cuerda;speak;darkblue;filler;2;F;3;2;3;2;Stim4_Set2;0;None;70;69;70;0;69;69;69;;;;;;;;;;;;;;;;;;;;;;;335.6966475;336.7454456;336.7454456;336.7454456;336.7454456;336.7454456;336.7454456;336.7454456;336.7454456;None;0;;;C:\2023\REPSWITCH21092023\REPSWITCH_excgange\REPSWITCH_excgange\data/380203_REPSWITCH1_version2_list3_2023-12-13_11h01.11.464_micRespv2l3_recorded\recording_micRespv2l3_2023-12-13_11h06.44.119.wav;339.7666096;340.2667526;None;339.7666096;339.7666096;339.7666096;339.7666096;339.7666096;339.7666096;;;;;;380203;1;2023-12-13_11h01.11.464;REPSWITCH1_version2_list3;2022.2.4;143.9078754;
REPSWITCH1/PICTURE_646.png;tronco;type;gold;filler;1;F;3;2;3;2;Extra4;0;None;71;70;71;0;70;70;70;;;;;;;;;;;;;;;;;;;;;;;340.2667526;341.3918367;341.3918367;341.3918367;341.3918367;341.3918367;341.3918367;341.3918367;341.3918367;['t', 'r', 'o', 'n', 'm', 'c', 'o'];0;[1.2621705001220107, 1.4485368002206087, 1.6159713002853096, 1.861243600025773, 1.8621817003004253, 2.0934310001321137, 2.2670657001435757];tronmco;C:\2023\REPSWITCH21092023\REPSWITCH_excgange\REPSWITCH_excgange\data/380203_REPSWITCH1_version2_list3_2023-12-13_11h01.11.464_micRespv2l3_recorded\recording_micRespv2l3_2023-12-13_11h06.48.765.wav;344.4130593;344.9131125;None;344.4130593;344.4130593;344.4130593;344.4130593;344.4130593;344.4130593;;;;;;380203;1;2023-12-13_11h01.11.464;REPSWITCH1_version2_list3;2022.2.4;143.9078754;
REPSWITCH1/PICTURE_35.png;oreja;type;gold;nontarget;1;NT;3;2;3;2;Stim5_Set3;1;repeat;72;71;72;0;71;71;71;;;;;;;;;;;;;;;;;;;;;;;344.9131125;346.0383203;346.0383203;346.0383203;346.0383203;346.0383203;346.0383203;346.0383203;346.0383203;['o', 'r', 'e', 'j', 'a'];0;[0.917155500035733, 1.1382908998057246, 1.322263399604708, 1.446450499817729, 1.6022381000220776];oreja;C:\2023\REPSWITCH21092023\REPSWITCH_excgange\REPSWITCH_excgange\data/380203_REPSWITCH1_version2_list3_2023-12-13_11h01.11.464_micRespv2l3_recorded\recording_micRespv2l3_2023-12-13_11h06.53.412.wav;349.0665296;;None;349.0665296;349.0665296;349.0665296;349.0665296;349.0665296;349.0665296;;;;;;380203;1;2023-12-13_11h01.11.464;REPSWITCH1_version2_list3;2022.2.4;143.9078754;
REPSWITCH1/PICTURE_35.png;oreja;type;gold;repeat;1;T;3;2;3;2;Stim5_Set3;0;None;73;72;73;0;72;72;72;;;;;;;;;;;;;;;;;;;;;;;349.5665355;350.6291802;350.6291802;350.6291802;350.6291802;350.6291802;350.6291802;350.6291802;350.6291802;['o', 'r', 'e', 'j', 'a'];0;[0.7908888999372721, 0.980570400133729, 1.1738779000006616, 1.2725879000499845, 1.4140858999453485];oreja;C:\2023\REPSWITCH21092023\REPSWITCH_excgange\REPSWITCH_excgange\data/380203_REPSWITCH1_version2_list3_2023-12-13_11h01.11.464_micRespv2l3_recorded\recording_micRespv2l3_2023-12-13_11h06.58.003.wav;353.657356;;None;353.657356;353.657356;353.657356;353.657356;353.657356;353.657356;;;;;;380203;1;2023-12-13_11h01.11.464;REPSWITCH1_version2_list3;2022.2.4;143.9078754;
REPSWITCH1/PICTURE_199.png;falda;speak;darkblue;filler;2;F;3;2;3;2;Stim8_Set2;0;None;74;73;74;0;73;73;73;;;;;;;;;;;;;;;;;;;;;;;354.1574004;355.2964729;355.2964729;355.2964729;355.2964729;355.2964729;355.2964729;355.2964729;355.2964729;None;0;;;C:\2023\REPSWITCH21092023\REPSWITCH_excgange\REPSWITCH_excgange\data/380203_REPSWITCH1_version2_list3_2023-12-13_11h01.11.464_micRespv2l3_recorded\recording_micRespv2l3_2023-12-13_11h07.02.671.wav;358.3246309;;None;358.3246309;358.3246309;358.3246309;358.3246309;358.3246309;358.3246309;;;;;;380203;1;2023-12-13_11h01.11.464;REPSWITCH1_version2_list3;2022.2.4;143.9078754;
REPSWITCH1/PICTURE_610.png;miel;type;gold;nontarget;1;NT;3;2;3;2;Stim2_Set3;1;switch;75;74;75;0;74;74;74;;;;;;;;;;;;;;;;;;;;;;;358.8247645;359.9360289;359.9360289;359.9360289;359.9360289;359.9360289;359.9360289;359.9360289;359.9360289;['m', 'i', 'e', 'l'];0;[0.9249034002423286, 1.1845035003498197, 1.3379545002244413, 1.4516083002090454];miel;C:\2023\REPSWITCH21092023\REPSWITCH_excgange\REPSWITCH_excgange\data/380203_REPSWITCH1_version2_list3_2023-12-13_11h01.11.464_micRespv2l3_recorded\recording_micRespv2l3_2023-12-13_11h07.07.310.wav;362.9641039;;None;362.9641039;362.9641039;362.9641039;362.9641039;362.9641039;362.9641039;;;;;;380203;1;2023-12-13_11h01.11.464;REPSWITCH1_version2_list3;2022.2.4;143.9078754;
REPSWITCH1/PICTURE_610.png;miel;type;gold;repeat;1;T;3;2;3;2;Stim2_Set3;0;None;76;75;76;0;75;75;75;;;;;;;;;;;;;;;;;;;;;;;363.4641699;364.6101685;364.6101685;364.6101685;364.6101685;364.6101685;364.6101685;364.6101685;364.6101685;['m', 'i', 'e', 'l'];0;[0.6869867001660168, 0.949203500058502, 1.0860693003050983, 1.1872539999894798];miel;C:\2023\REPSWITCH21092023\REPSWITCH_excgange\REPSWITCH_excgange\data/380203_REPSWITCH1_version2_list3_2023-12-13_11h01.11.464_micRespv2l3_recorded\recording_micRespv2l3_2023-12-13_11h07.11.983.wav;367.6313725;368.1314774;None;367.6313725;367.6313725;367.6313725;367.6313725;367.6313725;367.6313725;;;;;;380203;1;2023-12-13_11h01.11.464;REPSWITCH1_version2_list3;2022.2.4;143.9078754;
REPSWITCH1/PICTURE_264.png;mano;type;gold;filler;1;F;3;2;3;2;Stim3_Set2;1;repeat;77;76;77;0;76;76;76;;;;;;;;;;;;;;;;;;;;;;;368.1314774;369.2149735;369.2149735;369.2149735;369.2149735;369.2149735;369.2149735;369.2149735;369.2149735;['m', 'a', 'n', 'o'];0;[0.7144188000820577, 0.840955900028348, 0.9540013996884227, 1.2393114999867976];mano;C:\2023\REPSWITCH21092023\REPSWITCH_excgange\REPSWITCH_excgange\data/380203_REPSWITCH1_version2_list3_2023-12-13_11h01.11.464_micRespv2l3_recorded\recording_micRespv2l3_2023-12-13_11h07.16.589.wav;372.2361408;372.7362302;None;372.2361408;372.2361408;372.2361408;372.2361408;372.2361408;372.2361408;;;;;;380203;1;2023-12-13_11h01.11.464;REPSWITCH1_version2_list3;2022.2.4;143.9078754;
REPSWITCH1/PICTURE_464.png;goma;speak;darkblue;filler;2;F;4;2;3;2;Stim6_Set3;0;None;78;77;78;0;77;77;77;;;;;;;;;;;;;;;;;;;;;;;372.7362302;373.8475159;373.8475159;373.8475159;373.8475159;373.8475159;373.8475159;373.8475159;373.8475159;None;0;;;C:\2023\REPSWITCH21092023\REPSWITCH_excgange\REPSWITCH_excgange\data/380203_REPSWITCH1_version2_list3_2023-12-13_11h01.11.464_micRespv2l3_recorded\recording_micRespv2l3_2023-12-13_11h07.21.221.wav;376.8687059;377.3687787;None;376.8687059;376.8687059;376.8687059;376.8687059;376.8687059;376.8687059;;;;;;380203;1;2023-12-13_11h01.11.464;REPSWITCH1_version2_list3;2022.2.4;143.9078754;
REPSWITCH1/PICTURE_8.png;pierna;type;gold;nontarget;1;NT;4;2;3;2;Stim3_Set4;1;switch;79;78;79;0;78;78;78;;;;;;;;;;;;;;;;;;;;;;;377.3687787;378.4939448;378.4939448;378.4939448;378.4939448;378.4939448;378.4939448;378.4939448;378.4939448;['p', 'i', 'e', 'r', 'n', 'a'];0;[0.8818584997206926, 1.2296505998820066, 1.4369836999103427, 1.628364000003785, 1.7818495999090374, 2.0244426000863314];pierna;C:\2023\REPSWITCH21092023\REPSWITCH_excgange\REPSWITCH_excgange\data/380203_REPSWITCH1_version2_list3_2023-12-13_11h01.11.464_micRespv2l3_recorded\recording_micRespv2l3_2023-12-13_11h07.25.867.wav;381.5151517;382.0153053;None;381.5151517;381.5151517;381.5151517;381.5151517;381.5151517;381.5151517;;;;;;380203;1;2023-12-13_11h01.11.464;REPSWITCH1_version2_list3;2022.2.4;143.9078754;
REPSWITCH1/PICTURE_8.png;pierna;type;gold;repeat;1;T;4;2;3;2;Stim3_Set4;0;None;80;79;80;0;79;79;79;;;;;;;;;;;;;;;;;;;;;;;382.0153053;383.0986963;383.0986963;383.0986963;383.0986963;383.0986963;383.0986963;383.0986963;383.0986963;['p', 'u', 'e', 'r', 'n', 'a'];0;[0.7862089001573622, 1.0760035002604127, 1.2400512001477182, 1.4134355001151562, 1.5771182999014854, 1.7648272002115846];puerna;C:\2023\REPSWITCH21092023\REPSWITCH_excgange\REPSWITCH_excgange\data/380203_REPSWITCH1_version2_list3_2023-12-13_11h01.11.464_micRespv2l3_recorded\recording_micRespv2l3_2023-12-13_11h07.30.472.wav;386.1199389;386.6199817;None;386.1199389;386.1199389;386.1199389;386.1199389;386.1199389;386.1199389;;;;;;380203;1;2023-12-13_11h01.11.464;REPSWITCH1_version2_list3;2022.2.4;143.9078754;
REPSWITCH1/PICTURE_728.png;pulpo;type;gold;nontarget;1;NT;4;2;3;2;Stim8_Set4;1;repeat;81;80;81;0;80;80;80;;;;;;;;;;;;;;;;;;;;;;;386.6199817;387.7313203;387.7313203;387.7313203;387.7313203;387.7313203;387.7313203;387.7313203;387.7313203;['p', 'u', 'p', 'o'];0;[1.1501037999987602, 1.4631763002835214, 2.0759642999619246, 2.2782771000638604];pupo;C:\2023\REPSWITCH21092023\REPSWITCH_excgange\REPSWITCH_excgange\data/380203_REPSWITCH1_version2_list3_2023-12-13_11h01.11.464_micRespv2l3_recorded\recording_micRespv2l3_2023-12-13_11h07.35.105.wav;390.7594474;;None;390.7594474;390.7594474;390.7594474;390.7594474;390.7594474;390.7594474;;;;;;380203;1;2023-12-13_11h01.11.464;REPSWITCH1_version2_list3;2022.2.4;143.9078754;
REPSWITCH1/PICTURE_728.png;pulpo;speak;darkblue;switch;2;T;4;2;3;2;Stim8_Set4;0;None;82;81;82;0;81;81;81;;;;;;;;;;;;;;;;;;;;;;;391.2594916;392.4402118;392.4402118;392.4402118;392.4402118;392.4402118;392.4402118;392.4402118;392.4402118;None;0;;;C:\2023\REPSWITCH21092023\REPSWITCH_excgange\REPSWITCH_excgange\data/380203_REPSWITCH1_version2_list3_2023-12-13_11h01.11.464_micRespv2l3_recorded\recording_micRespv2l3_2023-12-13_11h07.39.815.wav;395.4683801;;None;395.4683801;395.4683801;395.4683801;395.4683801;395.4683801;395.4683801;;;;;;380203;1;2023-12-13_11h01.11.464;REPSWITCH1_version2_list3;2022.2.4;143.9078754;
REPSWITCH1/PICTURE_235.png;aguja;type;gold;filler;1;F;4;2;3;2;Stim4_Set3;0;None;83;82;83;0;82;82;82;;;;;;;;;;;;;;;;;;;;;;;395.9684536;397.0032938;397.0032938;397.0032938;397.0032938;397.0032938;397.0032938;397.0032938;397.0032938;['a', 'g', 'u', 'j', 'a'];0;[0.7548853000625968, 1.1136998999863863, 1.2741676000878215, 1.479435000102967, 1.6798875001259148];aguja;C:\2023\REPSWITCH21092023\REPSWITCH_excgange\REPSWITCH_excgange\data/380203_REPSWITCH1_version2_list3_2023-12-13_11h01.11.464_micRespv2l3_recorded\recording_micRespv2l3_2023-12-13_11h07.44.377.wav;400.0246184;400.5246154;None;400.0246184;400.0246184;400.0246184;400.0246184;400.0246184;400.0246184;;;;;;380203;1;2023-12-13_11h01.11.464;REPSWITCH1_version2_list3;2022.2.4;143.9078754;
REPSWITCH1/PICTURE_498.png;taza;speak;darkblue;nontarget;2;NT;4;2;3;2;Stim4_Set4;1;switch;84;83;84;0;83;83;83;;;;;;;;;;;;;;;;;;;;;;;400.5246154;401.5733576;401.5733576;401.5733576;401.5733576;401.5733576;401.5733576;401.5733576;401.5733576;None;0;;;C:\2023\REPSWITCH21092023\REPSWITCH_excgange\REPSWITCH_excgange\data/380203_REPSWITCH1_version2_list3_2023-12-13_11h01.11.464_micRespv2l3_recorded\recording_micRespv2l3_2023-12-13_11h07.48.947.wav;404.5946521;405.0946516;None;404.5946521;404.5946521;404.5946521;404.5946521;404.5946521;404.5946521;;;;;;380203;1;2023-12-13_11h01.11.464;REPSWITCH1_version2_list3;2022.2.4;143.9078754;
REPSWITCH1/PICTURE_498.png;taza;speak;darkblue;repeat;2;T;4;2;3;2;Stim4_Set4;0;None;85;84;85;0;84;84;84;;;;;;;;;;;;;;;;;;;;;;;405.0946516;406.1433879;406.1433879;406.1433879;406.1433879;406.1433879;406.1433879;406.1433879;406.1433879;None;0;;;C:\2023\REPSWITCH21092023\REPSWITCH_excgange\REPSWITCH_excgange\data/380203_REPSWITCH1_version2_list3_2023-12-13_11h01.11.464_micRespv2l3_recorded\recording_micRespv2l3_2023-12-13_11h07.53.516.wav;409.1646324;409.664702;None;409.1646324;409.1646324;409.1646324;409.1646324;409.1646324;409.1646324;;;;;;380203;1;2023-12-13_11h01.11.464;REPSWITCH1_version2_list3;2022.2.4;143.9078754;
REPSWITCH1/PICTURE_719.png;baño;speak;darkblue;nontarget;2;NT;4;2;3;2;Stim2_Set4;0;None;86;85;86;0;85;85;85;;;;;;;;;;;;;;;;;;;;;;;409.664702;410.7343395;410.7343395;410.7343395;410.7343395;410.7343395;410.7343395;410.7343395;410.7343395;None;0;;;C:\2023\REPSWITCH21092023\REPSWITCH_excgange\REPSWITCH_excgange\data/380203_REPSWITCH1_version2_list3_2023-12-13_11h01.11.464_micRespv2l3_recorded\recording_micRespv2l3_2023-12-13_11h07.58.109.wav;413.7555621;414.2555755;None;413.7555621;413.7555621;413.7555621;413.7555621;413.7555621;413.7555621;;;;;;380203;1;2023-12-13_11h01.11.464;REPSWITCH1_version2_list3;2022.2.4;143.9078754;
REPSWITCH1/PICTURE_719.png;baño;type;gold;switch;1;T;4;2;3;2;Stim2_Set4;0;None;87;86;87;0;86;86;86;;;;;;;;;;;;;;;;;;;;;;;414.2555755;415.3946916;415.3946916;415.3946916;415.3946916;415.3946916;415.3946916;415.3946916;415.3946916;['b', 'a', 'ñ', 'o'];0;[0.6828573001548648, 0.8666404997929931, 1.108782900031656, 1.377377400174737];baño;C:\2023\REPSWITCH21092023\REPSWITCH_excgange\REPSWITCH_excgange\data/380203_REPSWITCH1_version2_list3_2023-12-13_11h01.11.464_micRespv2l3_recorded\recording_micRespv2l3_2023-12-13_11h08.02.769.wav;418.4227865;;None;418.4227865;418.4227865;418.4227865;418.4227865;418.4227865;418.4227865;;;;;;380203;1;2023-12-13_11h01.11.464;REPSWITCH1_version2_list3;2022.2.4;143.9078754;
REPSWITCH1/PICTURE_320.png;iglesia;speak;darkblue;filler;2;F;4;2;3;2;Stim8_Set3;0;None;88;87;88;0;87;87;87;;;;;;;;;;;;;;;;;;;;;;;418.9228545;419.992428;419.992428;419.992428;419.992428;419.992428;419.992428;419.992428;419.992428;None;0;;;C:\2023\REPSWITCH21092023\REPSWITCH_excgange\REPSWITCH_excgange\data/380203_REPSWITCH1_version2_list3_2023-12-13_11h01.11.464_micRespv2l3_recorded\recording_micRespv2l3_2023-12-13_11h08.07.367.wav;423.0206009;;None;423.0206009;423.0206009;423.0206009;423.0206009;423.0206009;423.0206009;;;;;;380203;1;2023-12-13_11h01.11.464;REPSWITCH1_version2_list3;2022.2.4;143.9078754;
REPSWITCH1/PICTURE_48.png;bombero;type;gold;nontarget;1;NT;4;2;3;2;Stim7_Set4;1;switch;89;88;89;0;88;88;88;;;;;;;;;;;;;;;;;;;;;;;423.5206793;424.6528504;424.6528504;424.6528504;424.6528504;424.6528504;424.6528504;424.6528504;424.6528504;['b', 'o', 'm', 'b'];0;[1.7009161999449134, 1.8209883999079466, 2.089400500059128, 2.433215900324285];bomb;C:\2023\REPSWITCH21092023\REPSWITCH_excgange\REPSWITCH_excgange\data/380203_REPSWITCH1_version2_list3_2023-12-13_11h01.11.464_micRespv2l3_recorded\recording_micRespv2l3_2023-12-13_11h08.12.026.wav;427.6739856;428.1740323;None;427.6739856;427.6739856;427.6739856;427.6739856;427.6739856;427.6739856;;;;;;380203;1;2023-12-13_11h01.11.464;REPSWITCH1_version2_list3;2022.2.4;143.9078754;
REPSWITCH1/PICTURE_48.png;bombero;speak;darkblue;switch;2;T;4;2;3;2;Stim7_Set4;0;None;90;89;90;0;89;89;89;;;;;;;;;;;;;;;;;;;;;;;428.1740323;429.2645143;429.2645143;429.2645143;429.2645143;429.2645143;429.2645143;429.2645143;429.2645143;None;0;;;C:\2023\REPSWITCH21092023\REPSWITCH_excgange\REPSWITCH_excgange\data/380203_REPSWITCH1_version2_list3_2023-12-13_11h01.11.464_micRespv2l3_recorded\recording_micRespv2l3_2023-12-13_11h08.16.638.wav;432.2856831;432.7857865;None;432.2856831;432.2856831;432.2856831;432.2856831;432.2856831;432.2856831;;;;;;380203;1;2023-12-13_11h01.11.464;REPSWITCH1_version2_list3;2022.2.4;143.9078754;
REPSWITCH1/PICTURE_576.png;guante;type;gold;filler;1;F;4;2;3;2;Stim1_Set3;0;None;91;90;91;0;90;90;90;;;;;;;;;;;;;;;;;;;;;;;432.7857865;433.8831392;433.8831392;433.8831392;433.8831392;433.8831392;433.8831392;433.8831392;433.8831392;['g', 'u', 'a', 'n', 't', 'e'];0;[0.8353837002068758, 0.9698777999728918, 1.1296848002821207, 1.2094161002896726, 1.4437412000261247, 1.590146700385958];guante;C:\2023\REPSWITCH21092023\REPSWITCH_excgange\REPSWITCH_excgange\data/380203_REPSWITCH1_version2_list3_2023-12-13_11h01.11.464_micRespv2l3_recorded\recording_micRespv2l3_2023-12-13_11h08.21.256.wav;436.9043695;437.4044469;None;436.9043695;436.9043695;436.9043695;436.9043695;436.9043695;436.9043695;;;;;;380203;1;2023-12-13_11h01.11.464;REPSWITCH1_version2_list3;2022.2.4;143.9078754;
REPSWITCH1/PICTURE_271.png;conejo;speak;darkblue;filler;2;F;4;2;3;2;Stim7_Set3;0;None;92;91;92;0;91;91;91;;;;;;;;;;;;;;;;;;;;;;;437.4044469;438.4532579;438.4532579;438.4532579;438.4532579;438.4532579;438.4532579;438.4532579;438.4532579;None;0;;;C:\2023\REPSWITCH21092023\REPSWITCH_excgange\REPSWITCH_excgange\data/380203_REPSWITCH1_version2_list3_2023-12-13_11h01.11.464_micRespv2l3_recorded\recording_micRespv2l3_2023-12-13_11h08.25.827.wav;441.481445;;None;441.481445;441.481445;441.481445;441.481445;441.481445;441.481445;;;;;;380203;1;2023-12-13_11h01.11.464;REPSWITCH1_version2_list3;2022.2.4;143.9078754;
REPSWITCH1/PICTURE_319.png;vaca;speak;darkblue;nontarget;2;NT;4;2;3;2;Stim1_Set4;1;repeat;93;92;93;0;92;92;92;;;;;;;;;;;;;;;;;;;;;;;441.9814243;443.1274533;443.1274533;443.1274533;443.1274533;443.1274533;443.1274533;443.1274533;443.1274533;None;0;;;C:\2023\REPSWITCH21092023\REPSWITCH_excgange\REPSWITCH_excgange\data/380203_REPSWITCH1_version2_list3_2023-12-13_11h01.11.464_micRespv2l3_recorded\recording_micRespv2l3_2023-12-13_11h08.30.500.wav;446.148727;446.6487608;None;446.148727;446.148727;446.148727;446.148727;446.148727;446.148727;;;;;;380203;1;2023-12-13_11h01.11.464;REPSWITCH1_version2_list3;2022.2.4;143.9078754;
REPSWITCH1/PICTURE_319.png;vaca;speak;darkblue;repeat;2;T;4;2;3;2;Stim1_Set4;0;None;94;93;94;0;93;93;93;;;;;;;;;;;;;;;;;;;;;;;446.6487608;447.7043974;447.7043974;447.7043974;447.7043974;447.7043974;447.7043974;447.7043974;447.7043974;None;0;;;C:\2023\REPSWITCH21092023\REPSWITCH_excgange\REPSWITCH_excgange\data/380203_REPSWITCH1_version2_list3_2023-12-13_11h01.11.464_micRespv2l3_recorded\recording_micRespv2l3_2023-12-13_11h08.35.077.wav;450.7256343;451.2257049;None;450.7256343;450.7256343;450.7256343;450.7256343;450.7256343;450.7256343;;;;;;380203;1;2023-12-13_11h01.11.464;REPSWITCH1_version2_list3;2022.2.4;143.9078754;
REPSWITCH1/PICTURE_242.png;cartero;type;gold;filler;1;F;4;2;3;2;Stim3_Set3;0;None;95;94;95;0;94;94;94;;;;;;;;;;;;;;;;;;;;;;;451.2257049;452.2952913;452.2952913;452.2952913;452.2952913;452.2952913;452.2952913;452.2952913;452.2952913;['c', 'a', 'r', 't', 'y', 'e', 'r', 'o'];0;[1.2136821998283267, 1.3730798996984959, 1.515662099700421, 1.711315399967134, 1.7302399999462068, 1.856816599611193, 2.0385395996272564, 2.1983133000321686];cartyero;C:\2023\REPSWITCH21092023\REPSWITCH_excgange\REPSWITCH_excgange\data/380203_REPSWITCH1_version2_list3_2023-12-13_11h01.11.464_micRespv2l3_recorded\recording_micRespv2l3_2023-12-13_11h08.39.668.wav;455.3165232;455.8165948;None;455.3165232;455.3165232;455.3165232;455.3165232;455.3165232;455.3165232;;;;;;380203;1;2023-12-13_11h01.11.464;REPSWITCH1_version2_list3;2022.2.4;143.9078754;
REPSWITCH1/PICTURE_35.png;oreja;speak;darkblue;filler;2;F;4;2;3;2;Stim5_Set3;1;switch;96;95;96;0;95;95;95;;;;;;;;;;;;;;;;;;;;;;;455.8165948;456.8861887;456.8861887;456.8861887;456.8861887;456.8861887;456.8861887;456.8861887;456.8861887;None;0;;;C:\2023\REPSWITCH21092023\REPSWITCH_excgange\REPSWITCH_excgange\data/380203_REPSWITCH1_version2_list3_2023-12-13_11h01.11.464_micRespv2l3_recorded\recording_micRespv2l3_2023-12-13_11h08.44.259.wav;459.9143486;;None;459.9143486;459.9143486;459.9143486;459.9143486;459.9143486;459.9143486;;;;;;380203;1;2023-12-13_11h01.11.464;REPSWITCH1_version2_list3;2022.2.4;143.9078754;
REPSWITCH1/PICTURE_338.png;regalo;speak;darkblue;nontarget;2;NT;4;2;3;2;Stim6_Set4;1;repeat;97;96;97;0;96;96;96;;;;;;;;;;;;;;;;;;;;;;;460.4143704;461.5048308;461.5048308;461.5048308;461.5048308;461.5048308;461.5048308;461.5048308;461.5048308;None;0;;;C:\2023\REPSWITCH21092023\REPSWITCH_excgange\REPSWITCH_excgange\data/380203_REPSWITCH1_version2_list3_2023-12-13_11h01.11.464_micRespv2l3_recorded\recording_micRespv2l3_2023-12-13_11h08.48.879.wav;464.5330461;;None;464.5330461;464.5330461;464.5330461;464.5330461;464.5330461;464.5330461;;;;;;380203;1;2023-12-13_11h01.11.464;REPSWITCH1_version2_list3;2022.2.4;143.9078754;
REPSWITCH1/PICTURE_338.png;regalo;type;gold;switch;1;T;4;2;3;2;Stim6_Set4;0;None;98;97;98;0;97;97;97;;;;;;;;;;;;;;;;;;;;;;;465.0331135;466.0749292;466.0749292;466.0749292;466.0749292;466.0749292;466.0749292;466.0749292;466.0749292;['r', 'e', 'g', 'a', 'l', 'o'];0;[0.9630943001247942, 1.1594817000441253, 1.2561160000041127, 1.4175692000426352, 1.6249307002872229, 1.8073017001152039];regalo;C:\2023\REPSWITCH21092023\REPSWITCH_excgange\REPSWITCH_excgange\data/380203_REPSWITCH1_version2_list3_2023-12-13_11h01.11.464_micRespv2l3_recorded\recording_micRespv2l3_2023-12-13_11h08.53.449.wav;469.0960816;469.5961355;None;469.0960816;469.0960816;469.0960816;469.0960816;469.0960816;469.0960816;;;;;;380203;1;2023-12-13_11h01.11.464;REPSWITCH1_version2_list3;2022.2.4;143.9078754;
REPSWITCH1/PICTURE_687.png;camisa;type;gold;nontarget;1;NT;4;2;3;2;Stim5_Set4;0;None;99;98;99;0;98;98;98;;;;;;;;;;;;;;;;;;;;;;;469.5961355;470.7074134;470.7074134;470.7074134;470.7074134;470.7074134;470.7074134;470.7074134;470.7074134;['c', 'a', 'm', 'i', 's', 'a'];0;[0.8269331003539264, 0.9998699999414384, 1.2059709001332521, 1.4052723003551364, 1.4929944002069533, 1.6664168001152575];camisa;C:\2023\REPSWITCH21092023\REPSWITCH_excgange\REPSWITCH_excgange\data/380203_REPSWITCH1_version2_list3_2023-12-13_11h01.11.464_micRespv2l3_recorded\recording_micRespv2l3_2023-12-13_11h08.58.080.wav;473.728649;474.2287229;None;473.728649;473.728649;473.728649;473.728649;473.728649;473.728649;;;;;;380203;1;2023-12-13_11h01.11.464;REPSWITCH1_version2_list3;2022.2.4;143.9078754;
REPSWITCH1/PICTURE_687.png;camisa;type;gold;repeat;1;T;4;2;3;2;Stim5_Set4;0;None;100;99;100;0;99;99;99;;;;;;;;;;;;;;;;;;;;;;;474.2287229;475.32615;475.32615;475.32615;475.32615;475.32615;475.32615;475.32615;475.32615;['c', 'a', 'm', 'i', 's', 'a'];0;[0.700046599842608, 0.8477425999008119, 1.1228831000626087, 1.3752950998023152, 1.4929386000148952, 1.6494722999632359];camisa;C:\2023\REPSWITCH21092023\REPSWITCH_excgange\REPSWITCH_excgange\data/380203_REPSWITCH1_version2_list3_2023-12-13_11h01.11.464_micRespv2l3_recorded\recording_micRespv2l3_2023-12-13_11h09.02.700.wav;478.3473328;478.8473855;None;478.3473328;478.3473328;478.3473328;478.3473328;478.3473328;478.3473328;;;;;;380203;1;2023-12-13_11h01.11.464;REPSWITCH1_version2_list3;2022.2.4;143.9078754;
REPSWITCH1/PICTURE_340.png;espejo;speak;darkblue;filler;2;F;4;2;3;2;Extra1;0;None;101;100;101;0;100;100;100;;;;;;;;;;;;;;;;;;;;;;;478.8473855;480.0281519;480.0281519;480.0281519;480.0281519;480.0281519;480.0281519;480.0281519;480.0281519;None;0;;;C:\2023\REPSWITCH21092023\REPSWITCH_excgange\REPSWITCH_excgange\data/380203_REPSWITCH1_version2_list3_2023-12-13_11h01.11.464_micRespv2l3_recorded\recording_micRespv2l3_2023-12-13_11h09.07.402.wav;483.0562543;;None;483.0562543;483.0562543;483.0562543;483.0562543;483.0562543;483.0562543;;;;;;380203;1;2023-12-13_11h01.11.464;REPSWITCH1_version2_list3;2022.2.4;143.9078754;
REPSWITCH1/PICTURE_610.png;miel;type;gold;filler;1;F;4;2;3;2;Stim2_Set3;0;None;102;101;102;0;101;101;101;;;;;;;;;;;;;;;;;;;;;;;483.5563402;484.7301158;484.7301158;484.7301158;484.7301158;484.7301158;484.7301158;484.7301158;484.7301158;['m', 'i', 'e', 'l'];0;[0.8129958999343216, 1.0661649000830948, 1.2147451997734606, 1.3423125999979675];miel;C:\2023\REPSWITCH21092023\REPSWITCH_excgange\REPSWITCH_excgange\data/380203_REPSWITCH1_version2_list3_2023-12-13_11h01.11.464_micRespv2l3_recorded\recording_micRespv2l3_2023-12-13_11h09.12.103.wav;487.7512956;488.2513941;space;487.7512956;487.7512956;487.7512956;487.7512956;487.7512956;487.7512956;488.2513941;488.2513941;3.526057;;;380203;1;2023-12-13_11h01.11.464;REPSWITCH1_version2_list3;2022.2.4;143.9078754;
REPSWITCH1/PICTURE_8.png;pierna;type;gold;filler;1;F;1;4;3;2;Stim3_Set4;0;None;103;102;1;0;102;102;102;;;;;;;;;;;;;;;;;;;;;;;491.7865662;492.8492866;492.8492866;492.8492866;492.8492866;492.8492866;492.8492866;492.8492866;492.8492866;['p', 'i', 'e', 'r', 'n', 'a'];0;[0.9335550996474922, 1.2198486998677254, 1.3521348000504076, 1.5345405000261962, 1.6321604000404477, 1.8116015000268817];pierna;C:\2023\REPSWITCH21092023\REPSWITCH_excgange\REPSWITCH_excgange\data/380203_REPSWITCH1_version2_list3_2023-12-13_11h01.11.464_micRespv2l3_recorded\recording_micRespv2l3_2023-12-13_11h09.20.224.wav;495.8773901;;None;495.8773901;495.8773901;495.8773901;495.8773901;495.8773901;495.8773901;;;;;;380203;1;2023-12-13_11h01.11.464;REPSWITCH1_version2_list3;2022.2.4;143.9078754;
REPSWITCH1/PICTURE_498.png;taza;speak;darkblue;filler;2;F;1;4;3;2;Stim4_Set4;0;None;104;103;2;0;103;103;103;;;;;;;;;;;;;;;;;;;;;;;496.3774828;497.4192772;497.4192772;497.4192772;497.4192772;497.4192772;497.4192772;497.4192772;497.4192772;None;0;;;C:\2023\REPSWITCH21092023\REPSWITCH_excgange\REPSWITCH_excgange\data/380203_REPSWITCH1_version2_list3_2023-12-13_11h01.11.464_micRespv2l3_recorded\recording_micRespv2l3_2023-12-13_11h09.24.793.wav;500.4474518;;None;500.4474518;500.4474518;500.4474518;500.4474518;500.4474518;500.4474518;;;;;;380203;1;2023-12-13_11h01.11.464;REPSWITCH1_version2_list3;2022.2.4;143.9078754;
REPSWITCH1/PICTURE_19.png;pavo;speak;darkblue;nontarget;2;NT;1;4;3;2;Stim5_Set1;1;repeat;105;104;3;0;104;104;104;;;;;;;;;;;;;;;;;;;;;;;500.9474703;502.1768203;502.1768203;502.1768203;502.1768203;502.1768203;502.1768203;502.1768203;502.1768203;None;0;;;C:\2023\REPSWITCH21092023\REPSWITCH_excgange\REPSWITCH_excgange\data/380203_REPSWITCH1_version2_list3_2023-12-13_11h01.11.464_micRespv2l3_recorded\recording_micRespv2l3_2023-12-13_11h09.29.551.wav;505.198041;505.6981828;None;505.198041;505.198041;505.198041;505.198041;505.198041;505.198041;;;;;;380203;1;2023-12-13_11h01.11.464;REPSWITCH1_version2_list3;2022.2.4;143.9078754;
REPSWITCH1/PICTURE_19.png;pavo;speak;darkblue;repeat;2;T;1;4;3;2;Stim5_Set1;0;None;106;105;4;0;105;105;105;;;;;;;;;;;;;;;;;;;;;;;505.6981828;506.746942;506.746942;506.746942;506.746942;506.746942;506.746942;506.746942;506.746942;None;0;;;C:\2023\REPSWITCH21092023\REPSWITCH_excgange\REPSWITCH_excgange\data/380203_REPSWITCH1_version2_list3_2023-12-13_11h01.11.464_micRespv2l3_recorded\recording_micRespv2l3_2023-12-13_11h09.34.121.wav;509.7680909;510.2681797;None;509.7680909;509.7680909;509.7680909;509.7680909;509.7680909;509.7680909;;;;;;380203;1;2023-12-13_11h01.11.464;REPSWITCH1_version2_list3;2022.2.4;143.9078754;
REPSWITCH1/PICTURE_319.png;vaca;type;gold;filler;1;F;1;4;3;2;Stim1_Set4;1;repeat;107;106;5;0;106;106;106;;;;;;;;;;;;;;;;;;;;;;;510.2681797;511.36556;511.36556;511.36556;511.36556;511.36556;511.36556;511.36556;511.36556;['v', 'a', 'c', 'a'];0;[0.8563292999751866, 1.0045591997914016, 1.0853653997182846, 1.2148505998775363];vaca;C:\2023\REPSWITCH21092023\REPSWITCH_excgange\REPSWITCH_excgange\data/380203_REPSWITCH1_version2_list3_2023-12-13_11h01.11.464_micRespv2l3_recorded\recording_micRespv2l3_2023-12-13_11h09.38.739.wav;514.386773;514.8869105;None;514.386773;514.386773;514.386773;514.386773;514.386773;514.386773;;;;;;380203;1;2023-12-13_11h01.11.464;REPSWITCH1_version2_list3;2022.2.4;143.9078754;
REPSWITCH1/PICTURE_169.png;espalda;speak;darkblue;nontarget;2;NT;1;4;3;2;Stim8_Set1;1;switch;108;107;6;0;107;107;107;;;;;;;;;;;;;;;;;;;;;;;514.8869105;516.0883657;516.0883657;516.0883657;516.0883657;516.0883657;516.0883657;516.0883657;516.0883657;None;0;;;C:\2023\REPSWITCH21092023\REPSWITCH_excgange\REPSWITCH_excgange\data/380203_REPSWITCH1_version2_list3_2023-12-13_11h01.11.464_micRespv2l3_recorded\recording_micRespv2l3_2023-12-13_11h09.43.461.wav;519.1096174;519.6097496;None;519.1096174;519.1096174;519.1096174;519.1096174;519.1096174;519.1096174;;;;;;380203;1;2023-12-13_11h01.11.464;REPSWITCH1_version2_list3;2022.2.4;143.9078754;
REPSWITCH1/PICTURE_169.png;espalda;speak;darkblue;repeat;2;T;1;4;3;2;Stim8_Set1;0;None;109;108;7;0;108;108;108;;;;;;;;;;;;;;;;;;;;;;;519.6097496;520.658425;520.658425;520.658425;520.658425;520.658425;520.658425;520.658425;520.658425;None;0;;;C:\2023\REPSWITCH21092023\REPSWITCH_excgange\REPSWITCH_excgange\data/380203_REPSWITCH1_version2_list3_2023-12-13_11h01.11.464_micRespv2l3_recorded\recording_micRespv2l3_2023-12-13_11h09.48.031.wav;523.6796558;524.1796994;None;523.6796558;523.6796558;523.6796558;523.6796558;523.6796558;523.6796558;;;;;;380203;1;2023-12-13_11h01.11.464;REPSWITCH1_version2_list3;2022.2.4;143.9078754;
REPSWITCH1/PICTURE_728.png;pulpo;type;gold;filler;1;F;1;4;3;2;Stim8_Set4;0;None;110;109;8;0;109;109;109;;;;;;;;;;;;;;;;;;;;;;;524.1796994;525.3187468;525.3187468;525.3187468;525.3187468;525.3187468;525.3187468;525.3187468;525.3187468;['p', 'u', 'l', 'p', 'o'];0;[0.8478578003123403, 1.249504300300032, 1.8582468000240624, 2.076997000258416, 2.2404786003753543];pulpo;C:\2023\REPSWITCH21092023\REPSWITCH_excgange\REPSWITCH_excgange\data/380203_REPSWITCH1_version2_list3_2023-12-13_11h01.11.464_micRespv2l3_recorded\recording_micRespv2l3_2023-12-13_11h09.52.692.wav;528.3399714;528.8400173;None;528.3399714;528.3399714;528.3399714;528.3399714;528.3399714;528.3399714;;;;;;380203;1;2023-12-13_11h01.11.464;REPSWITCH1_version2_list3;2022.2.4;143.9078754;
REPSWITCH1/PICTURE_142.png;vaso;speak;darkblue;nontarget;2;NT;1;4;3;2;Stim7_Set1;1;switch;111;110;9;0;110;110;110;;;;;;;;;;;;;;;;;;;;;;;528.8400173;529.9721366;529.9721366;529.9721366;529.9721366;529.9721366;529.9721366;529.9721366;529.9721366;None;0;;;C:\2023\REPSWITCH21092023\REPSWITCH_excgange\REPSWITCH_excgange\data/380203_REPSWITCH1_version2_list3_2023-12-13_11h01.11.464_micRespv2l3_recorded\recording_micRespv2l3_2023-12-13_11h09.57.346.wav;533.000381;;None;533.000381;533.000381;533.000381;533.000381;533.000381;533.000381;;;;;;380203;1;2023-12-13_11h01.11.464;REPSWITCH1_version2_list3;2022.2.4;143.9078754;
REPSWITCH1/PICTURE_142.png;vaso;type;gold;switch;1;T;1;4;3;2;Stim7_Set1;0;None;112;111;10;0;111;111;111;;;;;;;;;;;;;;;;;;;;;;;533.5003874;534.5839328;534.5839328;534.5839328;534.5839328;534.5839328;534.5839328;534.5839328;534.5839328;['v', 'a', 's', 'o'];0;[0.8122444003820419, 0.9557575001381338, 1.1572949001565576, 1.2449589003808796];vaso;C:\2023\REPSWITCH21092023\REPSWITCH_excgange\REPSWITCH_excgange\data/380203_REPSWITCH1_version2_list3_2023-12-13_11h01.11.464_micRespv2l3_recorded\recording_micRespv2l3_2023-12-13_11h10.01.957.wav;537.6050721;538.105162;None;537.6050721;537.6050721;537.6050721;537.6050721;537.6050721;537.6050721;;;;;;380203;1;2023-12-13_11h01.11.464;REPSWITCH1_version2_list3;2022.2.4;143.9078754;
REPSWITCH1/PICTURE_338.png;regalo;type;gold;filler;1;F;1;4;3;2;Stim6_Set4;1;repeat;113;112;11;0;112;112;112;;;;;;;;;;;;;;;;;;;;;;;538.105162;539.2303217;539.2303217;539.2303217;539.2303217;539.2303217;539.2303217;539.2303217;539.2303217;['r', 'e', 'g', 'a', 'l', 'o'];0;[0.8694188999943435, 1.1128980000503361, 1.1999554000794888, 1.3902580002322793, 1.5257671000435948, 1.7042065998539329];regalo;C:\2023\REPSWITCH21092023\REPSWITCH_excgange\REPSWITCH_excgange\data/380203_REPSWITCH1_version2_list3_2023-12-13_11h01.11.464_micRespv2l3_recorded\recording_micRespv2l3_2023-12-13_11h10.06.605.wav;542.2584651;;None;542.2584651;542.2584651;542.2584651;542.2584651;542.2584651;542.2584651;;;;;;380203;1;2023-12-13_11h01.11.464;REPSWITCH1_version2_list3;2022.2.4;143.9078754;
REPSWITCH1/PICTURE_135.png;traje;type;gold;nontarget;1;NT;1;4;3;2;Stim3_Set1;1;repeat;114;113;12;0;113;113;113;;;;;;;;;;;;;;;;;;;;;;;542.7585114;543.9253492;543.9253492;543.9253492;543.9253492;543.9253492;543.9253492;543.9253492;543.9253492;['t', 'r', 'a', 'j', 'e'];0;[0.7748270002193749, 0.9465891001746058, 1.0552072999998927, 1.301304000429809, 1.4418322001583874];traje;C:\2023\REPSWITCH21092023\REPSWITCH_excgange\REPSWITCH_excgange\data/380203_REPSWITCH1_version2_list3_2023-12-13_11h01.11.464_micRespv2l3_recorded\recording_micRespv2l3_2023-12-13_11h10.11.299.wav;546.9465948;547.4466554;None;546.9465948;546.9465948;546.9465948;546.9465948;546.9465948;546.9465948;;;;;;380203;1;2023-12-13_11h01.11.464;REPSWITCH1_version2_list3;2022.2.4;143.9078754;
REPSWITCH1/PICTURE_135.png;traje;speak;darkblue;switch;2;T;1;4;3;2;Stim3_Set1;0;None;115;114;13;0;114;114;114;;;;;;;;;;;;;;;;;;;;;;;547.4466554;548.5093575;548.5093575;548.5093575;548.5093575;548.5093575;548.5093575;548.5093575;548.5093575;None;0;;;C:\2023\REPSWITCH21092023\REPSWITCH_excgange\REPSWITCH_excgange\data/380203_REPSWITCH1_version2_list3_2023-12-13_11h01.11.464_micRespv2l3_recorded\recording_micRespv2l3_2023-12-13_11h10.15.884.wav;551.5375395;;None;551.5375395;551.5375395;551.5375395;551.5375395;551.5375395;551.5375395;;;;;;380203;1;2023-12-13_11h01.11.464;REPSWITCH1_version2_list3;2022.2.4;143.9078754;
REPSWITCH1/PICTURE_381.png;fresa;speak;darkblue;nontarget;2;NT;1;4;3;2;Stim2_Set1;1;repeat;116;115;14;0;115;115;115;;;;;;;;;;;;;;;;;;;;;;;552.0375445;553.0862936;553.0862936;553.0862936;553.0862936;553.0862936;553.0862936;553.0862936;553.0862936;None;0;;;C:\2023\REPSWITCH21092023\REPSWITCH_excgange\REPSWITCH_excgange\data/380203_REPSWITCH1_version2_list3_2023-12-13_11h01.11.464_micRespv2l3_recorded\recording_micRespv2l3_2023-12-13_11h10.20.459.wav;556.1075218;556.6076565;None;556.1075218;556.1075218;556.1075218;556.1075218;556.1075218;556.1075218;;;;;;380203;1;2023-12-13_11h01.11.464;REPSWITCH1_version2_list3;2022.2.4;143.9078754;
REPSWITCH1/PICTURE_381.png;fresa;type;gold;switch;1;T;1;4;3;2;Stim2_Set1;0;None;117;116;15;0;116;116;116;;;;;;;;;;;;;;;;;;;;;;;556.6076565;557.7536418;557.7536418;557.7536418;557.7536418;557.7536418;557.7536418;557.7536418;557.7536418;['f', 'r', 'e', 's', 'a'];0;[0.8995202998630702, 1.105794900096953, 1.3071468998678029, 1.540372199844569, 1.7258264999836683];fresa;C:\2023\REPSWITCH21092023\REPSWITCH_excgange\REPSWITCH_excgange\data/380203_REPSWITCH1_version2_list3_2023-12-13_11h01.11.464_micRespv2l3_recorded\recording_micRespv2l3_2023-12-13_11h10.25.127.wav;560.7818069;;None;560.7818069;560.7818069;560.7818069;560.7818069;560.7818069;560.7818069;;;;;;380203;1;2023-12-13_11h01.11.464;REPSWITCH1_version2_list3;2022.2.4;143.9078754;
REPSWITCH1/PICTURE_48.png;bombero;type;gold;filler;1;F;1;4;3;2;Stim7_Set4;0;None;118;117;16;0;117;117;117;;;;;;;;;;;;;;;;;;;;;;;561.2818199;562.4486169;562.4486169;562.4486169;562.4486169;562.4486169;562.4486169;562.4486169;562.4486169;['b', 'o', 'm', 'b', 'n', 'e', 'r', 'o'];0;[1.328272399958223, 1.507656500209123, 1.7109781000763178, 1.975234200246632, 1.9792146002873778, 2.1167946001514792, 2.319365100003779, 2.427665800321847];bomnero;C:\2023\REPSWITCH21092023\REPSWITCH_excgange\REPSWITCH_excgange\data/380203_REPSWITCH1_version2_list3_2023-12-13_11h01.11.464_micRespv2l3_recorded\recording_micRespv2l3_2023-12-13_11h10.29.823.wav;565.4767951;;None;565.4767951;565.4767951;565.4767951;565.4767951;565.4767951;565.4767951;;;;;;380203;1;2023-12-13_11h01.11.464;REPSWITCH1_version2_list3;2022.2.4;143.9078754;
REPSWITCH1/PICTURE_687.png;camisa;speak;darkblue;filler;2;F;1;4;3;2;Stim5_Set4;0;None;119;118;17;0;118;118;118;;;;;;;;;;;;;;;;;;;;;;;565.9769288;567.1228568;567.1228568;567.1228568;567.1228568;567.1228568;567.1228568;567.1228568;567.1228568;None;0;;;C:\2023\REPSWITCH21092023\REPSWITCH_excgange\REPSWITCH_excgange\data/380203_REPSWITCH1_version2_list3_2023-12-13_11h01.11.464_micRespv2l3_recorded\recording_micRespv2l3_2023-12-13_11h10.34.497.wav;570.1440506;570.6441503;None;570.1440506;570.1440506;570.1440506;570.1440506;570.1440506;570.1440506;;;;;;380203;1;2023-12-13_11h01.11.464;REPSWITCH1_version2_list3;2022.2.4;143.9078754;
REPSWITCH1/PICTURE_128.png;muñeca;type;gold;nontarget;1;NT;1;4;3;2;Stim4_Set1;0;None;120;119;18;0;119;119;119;;;;;;;;;;;;;;;;;;;;;;;570.6441503;571.7484589;571.7484589;571.7484589;571.7484589;571.7484589;571.7484589;571.7484589;571.7484589;['m', 'u', 'ñ', 'e', 'c', 'a'];0;[0.9016650998964906, 1.2049424997530878, 1.5966551001183689, 1.7494904999621212, 1.9669798999093473, 2.086598999798298];muñeca;C:\2023\REPSWITCH21092023\REPSWITCH_excgange\REPSWITCH_excgange\data/380203_REPSWITCH1_version2_list3_2023-12-13_11h01.11.464_micRespv2l3_recorded\recording_micRespv2l3_2023-12-13_11h10.39.122.wav;574.7696977;575.2697608;None;574.7696977;574.7696977;574.7696977;574.7696977;574.7696977;574.7696977;;;;;;380203;1;2023-12-13_11h01.11.464;REPSWITCH1_version2_list3;2022.2.4;143.9078754;
REPSWITCH1/PICTURE_128.png;muñeca;type;gold;repeat;1;T;1;4;3;2;Stim4_Set1;0;None;121;120;19;0;120;120;120;;;;;;;;;;;;;;;;;;;;;;;575.2697608;576.3394095;576.3394095;576.3394095;576.3394095;576.3394095;576.3394095;576.3394095;576.3394095;['m', 'u', 'ñ', 'e', 'c', 'a'];0;[0.8933719997294247, 1.1682627997361124, 1.4822150999680161, 1.654934599995613, 1.8416704996488988, 1.9711130997166038];muñeca;C:\2023\REPSWITCH21092023\REPSWITCH_excgange\REPSWITCH_excgange\data/380203_REPSWITCH1_version2_list3_2023-12-13_11h01.11.464_micRespv2l3_recorded\recording_micRespv2l3_2023-12-13_11h10.43.713.wav;579.3606167;579.8607141;None;579.3606167;579.3606167;579.3606167;579.3606167;579.3606167;579.3606167;;;;;;380203;1;2023-12-13_11h01.11.464;REPSWITCH1_version2_list3;2022.2.4;143.9078754;
REPSWITCH1/PICTURE_719.png;baño;speak;darkblue;filler;2;F;1;4;3;2;Stim2_Set4;1;switch;122;121;20;0;121;121;121;;;;;;;;;;;;;;;;;;;;;;;579.8607141;580.9649341;580.9649341;580.9649341;580.9649341;580.9649341;580.9649341;580.9649341;580.9649341;None;0;;;C:\2023\REPSWITCH21092023\REPSWITCH_excgange\REPSWITCH_excgange\data/380203_REPSWITCH1_version2_list3_2023-12-13_11h01.11.464_micRespv2l3_recorded\recording_micRespv2l3_2023-12-13_11h10.48.339.wav;583.9931969;;None;583.9931969;583.9931969;583.9931969;583.9931969;583.9931969;583.9931969;;;;;;380203;1;2023-12-13_11h01.11.464;REPSWITCH1_version2_list3;2022.2.4;143.9078754;
REPSWITCH1/PICTURE_178.png;puente;type;gold;nontarget;1;NT;1;4;3;2;Stim1_Set1;1;switch;123;122;21;0;122;122;122;;;;;;;;;;;;;;;;;;;;;;;584.4931931;585.6044372;585.6044372;585.6044372;585.6044372;585.6044372;585.6044372;585.6044372;585.6044372;['p', 'u', 'e', 'n', 't', 'e'];0;[1.0461631999351084, 1.3456943999044597, 1.4822741001844406, 1.5772716999053955, 1.7525520003400743, 1.9788005999289453];puente;C:\2023\REPSWITCH21092023\REPSWITCH_excgange\REPSWITCH_excgange\data/380203_REPSWITCH1_version2_list3_2023-12-13_11h01.11.464_micRespv2l3_recorded\recording_micRespv2l3_2023-12-13_11h10.52.978.wav;588.63267;;None;588.63267;588.63267;588.63267;588.63267;588.63267;588.63267;;;;;;380203;1;2023-12-13_11h01.11.464;REPSWITCH1_version2_list3;2022.2.4;143.9078754;
REPSWITCH1/PICTURE_178.png;puente;type;gold;repeat;1;T;1;4;3;2;Stim1_Set1;0;None;124;123;22;0;123;123;123;;;;;;;;;;;;;;;;;;;;;;;589.1326916;590.1536601;590.1536601;590.1536601;590.1536601;590.1536601;590.1536601;590.1536601;590.1536601;['p', 'u', 'e', 'n', 't', 'e'];0;[0.816635999828577, 1.108620099723339, 1.219251399859786, 1.3119280999526381, 1.4847821998409927, 1.713009299710393];puente;C:\2023\REPSWITCH21092023\REPSWITCH_excgange\REPSWITCH_excgange\data/380203_REPSWITCH1_version2_list3_2023-12-13_11h01.11.464_micRespv2l3_recorded\recording_micRespv2l3_2023-12-13_11h10.57.527.wav;593.1818378;;None;593.1818378;593.1818378;593.1818378;593.1818378;593.1818378;593.1818378;;;;;;380203;1;2023-12-13_11h01.11.464;REPSWITCH1_version2_list3;2022.2.4;143.9078754;
REPSWITCH1/PICTURE_16.png;cazador;type;gold;nontarget;1;NT;1;4;3;2;Stim6_Set1;1;repeat;125;124;23;0;124;124;124;;;;;;;;;;;;;;;;;;;;;;;593.6818583;594.7653545;594.7653545;594.7653545;594.7653545;594.7653545;594.7653545;594.7653545;594.7653545;['c', 'a', 'z', 'a', 'd', 'o', 'r'];0;[1.016440199688077, 1.154202299658209, 1.3345729997381568, 1.5100940996780992, 1.7013870999217033, 1.8358905999921262, 1.912737499922514];cazador;C:\2023\REPSWITCH21092023\REPSWITCH_excgange\REPSWITCH_excgange\data/380203_REPSWITCH1_version2_list3_2023-12-13_11h01.11.464_micRespv2l3_recorded\recording_micRespv2l3_2023-12-13_11h11.02.139.wav;597.7866087;598.286675;None;597.7866087;597.7866087;597.7866087;597.7866087;597.7866087;597.7866087;;;;;;380203;1;2023-12-13_11h01.11.464;REPSWITCH1_version2_list3;2022.2.4;143.9078754;
REPSWITCH1/PICTURE_16.png;cazador;speak;darkblue;switch;2;T;1;4;3;2;Stim6_Set1;0;None;126;125;24;0;125;125;125;;;;;;;;;;;;;;;;;;;;;;;598.286675;599.397938;599.397938;599.397938;599.397938;599.397938;599.397938;599.397938;599.397938;None;0;;;C:\2023\REPSWITCH21092023\REPSWITCH_excgange\REPSWITCH_excgange\data/380203_REPSWITCH1_version2_list3_2023-12-13_11h01.11.464_micRespv2l3_recorded\recording_micRespv2l3_2023-12-13_11h11.06.772.wav;602.4260834;;None;602.4260834;602.4260834;602.4260834;602.4260834;602.4260834;602.4260834;;;;;;380203;1;2023-12-13_11h01.11.464;REPSWITCH1_version2_list3;2022.2.4;143.9078754;
REPSWITCH1/PICTURE_19.png;pavo;type;gold;filler;1;F;2;4;3;2;Stim5_Set1;0;None;127;126;25;0;126;126;126;;;;;;;;;;;;;;;;;;;;;;;602.9261685;603.9888234;603.9888234;603.9888234;603.9888234;603.9888234;603.9888234;603.9888234;603.9888234;['p', 'a', 'v', 'o'];0;[1.0038158004172146, 1.1214058003388345, 1.6459449999965727, 1.8136967001482844];pavo;C:\2023\REPSWITCH21092023\REPSWITCH_excgange\REPSWITCH_excgange\data/380203_REPSWITCH1_version2_list3_2023-12-13_11h01.11.464_micRespv2l3_recorded\recording_micRespv2l3_2023-12-13_11h11.11.363.wav;607.0100122;607.5101013;None;607.0100122;607.0100122;607.0100122;607.0100122;607.0100122;607.0100122;;;;;;380203;1;2023-12-13_11h01.11.464;REPSWITCH1_version2_list3;2022.2.4;143.9078754;
REPSWITCH1/PICTURE_199.png;falda;type;gold;nontarget;1;NT;2;4;3;2;Stim8_Set2;1;repeat;128;127;26;0;127;127;127;;;;;;;;;;;;;;;;;;;;;;;607.5101013;608.6422516;608.6422516;608.6422516;608.6422516;608.6422516;608.6422516;608.6422516;608.6422516;['f', 'a', 'l', 'd', 'a'];0;[0.8578864000737667, 1.045250799972564, 1.2605285001918674, 1.4623155002482235, 1.6747942003421485];falda;C:\2023\REPSWITCH21092023\REPSWITCH_excgange\REPSWITCH_excgange\data/380203_REPSWITCH1_version2_list3_2023-12-13_11h01.11.464_micRespv2l3_recorded\recording_micRespv2l3_2023-12-13_11h11.16.016.wav;611.6703749;;None;611.6703749;611.6703749;611.6703749;611.6703749;611.6703749;611.6703749;;;;;;380203;1;2023-12-13_11h01.11.464;REPSWITCH1_version2_list3;2022.2.4;143.9078754;
REPSWITCH1/PICTURE_199.png;falda;type;gold;repeat;1;T;2;4;3;2;Stim8_Set2;0;None;129;128;27;0;128;128;128;;;;;;;;;;;;;;;;;;;;;;;612.1705181;613.3233441;613.3233441;613.3233441;613.3233441;613.3233441;613.3233441;613.3233441;613.3233441;['f', 'a', 'l', 'd', 'a'];0;[0.9292342001572251, 1.0996495997533202, 1.3268303000368178, 1.531191899906844, 1.7417979999445379];falda;C:\2023\REPSWITCH21092023\REPSWITCH_excgange\REPSWITCH_excgange\data/380203_REPSWITCH1_version2_list3_2023-12-13_11h01.11.464_micRespv2l3_recorded\recording_micRespv2l3_2023-12-13_11h11.20.698.wav;616.3515465;616.8515951;None;616.3515465;616.3515465;616.3515465;616.3515465;616.3515465;616.3515465;;;;;;380203;1;2023-12-13_11h01.11.464;REPSWITCH1_version2_list3;2022.2.4;143.9078754;
REPSWITCH1/PICTURE_178.png;puente;speak;darkblue;filler;2;F;2;4;3;2;Stim1_Set1;1;switch;130;129;28;0;129;129;129;;;;;;;;;;;;;;;;;;;;;;;616.8515951;617.935062;617.935062;617.935062;617.935062;617.935062;617.935062;617.935062;617.935062;None;0;;;C:\2023\REPSWITCH21092023\REPSWITCH_excgange\REPSWITCH_excgange\data/380203_REPSWITCH1_version2_list3_2023-12-13_11h01.11.464_micRespv2l3_recorded\recording_micRespv2l3_2023-12-13_11h11.25.309.wav;620.9632398;;None;620.9632398;620.9632398;620.9632398;620.9632398;620.9632398;620.9632398;;;;;;380203;1;2023-12-13_11h01.11.464;REPSWITCH1_version2_list3;2022.2.4;143.9078754;
REPSWITCH1/PICTURE_517.png;cuerda;type;gold;nontarget;1;NT;2;4;3;2;Stim4_Set2;1;switch;131;130;29;0;130;130;130;;;;;;;;;;;;;;;;;;;;;;;621.4633064;622.5607381;622.5607381;622.5607381;622.5607381;622.5607381;622.5607381;622.5607381;622.5607381;['c', 'u', 'e', 'd', 'a'];0;[0.8179824003018439, 0.9977625999599695, 1.1482251002453268, 1.9474957999773324, 2.2308940002694726];cueda;C:\2023\REPSWITCH21092023\REPSWITCH_excgange\REPSWITCH_excgange\data/380203_REPSWITCH1_version2_list3_2023-12-13_11h01.11.464_micRespv2l3_recorded\recording_micRespv2l3_2023-12-13_11h11.29.934.wav;625.5818951;626.0819485;None;625.5818951;625.5818951;625.5818951;625.5818951;625.5818951;625.5818951;;;;;;380203;1;2023-12-13_11h01.11.464;REPSWITCH1_version2_list3;2022.2.4;143.9078754;
REPSWITCH1/PICTURE_517.png;cuerda;type;gold;repeat;1;T;2;4;3;2;Stim4_Set2;0;None;132;131;30;0;131;131;131;;;;;;;;;;;;;;;;;;;;;;;626.0819485;627.1168277;627.1168277;627.1168277;627.1168277;627.1168277;627.1168277;627.1168277;627.1168277;['c', 'u', 'e', 'r', 'd', 'a'];0;[0.798261999618262, 0.9779535997658968, 1.152394499629736, 1.3716922998428345, 1.594556899741292, 1.8098335997201502];cuerda;C:\2023\REPSWITCH21092023\REPSWITCH_excgange\REPSWITCH_excgange\data/380203_REPSWITCH1_version2_list3_2023-12-13_11h01.11.464_micRespv2l3_recorded\recording_micRespv2l3_2023-12-13_11h11.34.491.wav;630.1449937;;None;630.1449937;630.1449937;630.1449937;630.1449937;630.1449937;630.1449937;;;;;;380203;1;2023-12-13_11h01.11.464;REPSWITCH1_version2_list3;2022.2.4;143.9078754;
REPSWITCH1/PICTURE_169.png;espalda;type;gold;filler;1;F;2;4;3;2;Stim8_Set1;0;None;133;132;31;0;132;132;132;;;;;;;;;;;;;;;;;;;;;;;630.6450463;631.7216286;631.7216286;631.7216286;631.7216286;631.7216286;631.7216286;631.7216286;631.7216286;['e', 's', 'p', 'a', 'k', 'd', 'a'];0;[0.7021769001148641, 0.8958569001406431, 1.0464249001815915, 1.1365131000056863, 1.2966915001161397, 1.4203852000646293, 1.6329919998534024];espakda;C:\2023\REPSWITCH21092023\REPSWITCH_excgange\REPSWITCH_excgange\data/380203_REPSWITCH1_version2_list3_2023-12-13_11h01.11.464_micRespv2l3_recorded\recording_micRespv2l3_2023-12-13_11h11.39.095.wav;634.7428323;635.242867;None;634.7428323;634.7428323;634.7428323;634.7428323;634.7428323;634.7428323;;;;;;380203;1;2023-12-13_11h01.11.464;REPSWITCH1_version2_list3;2022.2.4;143.9078754;
REPSWITCH1/PICTURE_673.png;tenedor;speak;darkblue;filler;2;F;2;4;3;2;Extra5;0;None;134;133;32;0;133;133;133;;;;;;;;;;;;;;;;;;;;;;;635.242867;636.361095;636.361095;636.361095;636.361095;636.361095;636.361095;636.361095;636.361095;None;0;;;C:\2023\REPSWITCH21092023\REPSWITCH_excgange\REPSWITCH_excgange\data/380203_REPSWITCH1_version2_list3_2023-12-13_11h01.11.464_micRespv2l3_recorded\recording_micRespv2l3_2023-12-13_11h11.43.735.wav;639.3892867;;None;639.3892867;639.3892867;639.3892867;639.3892867;639.3892867;639.3892867;;;;;;380203;1;2023-12-13_11h01.11.464;REPSWITCH1_version2_list3;2022.2.4;143.9078754;
REPSWITCH1/PICTURE_142.png;vaso;type;gold;filler;1;F;2;4;3;2;Stim7_Set1;1;switch;135;134;33;0;134;134;134;;;;;;;;;;;;;;;;;;;;;;;639.8893477;640.9450312;640.9450312;640.9450312;640.9450312;640.9450312;640.9450312;640.9450312;640.9450312;['v', 'a', 's', 'o'];0;[0.7426455998793244, 0.8462368999607861, 1.0545997000299394, 1.1723174001090229];vaso;C:\2023\REPSWITCH21092023\REPSWITCH_excgange\REPSWITCH_excgange\data/380203_REPSWITCH1_version2_list3_2023-12-13_11h01.11.464_micRespv2l3_recorded\recording_micRespv2l3_2023-12-13_11h11.48.318.wav;643.9663549;644.4663293;None;643.9663549;643.9663549;643.9663549;643.9663549;643.9663549;643.9663549;;;;;;380203;1;2023-12-13_11h01.11.464;REPSWITCH1_version2_list3;2022.2.4;143.9078754;
REPSWITCH1/PICTURE_552.png;manzana;type;gold;nontarget;1;NT;2;4;3;2;Stim6_Set2;1;repeat;136;135;34;0;135;135;135;;;;;;;;;;;;;;;;;;;;;;;644.4663293;645.6053887;645.6053887;645.6053887;645.6053887;645.6053887;645.6053887;645.6053887;645.6053887;['m', 'a', 'n', 'z', 'a', 'b', 'a'];0;[0.8310357998125255, 0.9887409000657499, 1.0621833996847272, 1.2505026999861002, 1.4598452998325229, 1.5901688998565078, 1.726958299987018];manzaba;C:\2023\REPSWITCH21092023\REPSWITCH_excgange\REPSWITCH_excgange\data/380203_REPSWITCH1_version2_list3_2023-12-13_11h01.11.464_micRespv2l3_recorded\recording_micRespv2l3_2023-12-13_11h11.52.979.wav;648.6266224;649.1266714;None;648.6266224;648.6266224;648.6266224;648.6266224;648.6266224;648.6266224;;;;;;380203;1;2023-12-13_11h01.11.464;REPSWITCH1_version2_list3;2022.2.4;143.9078754;
REPSWITCH1/PICTURE_552.png;manzana;speak;darkblue;switch;1;T;2;4;3;2;Stim6_Set2;0;None;137;136;35;0;136;136;136;;;;;;;;;;;;;;;;;;;;;;;649.1266714;650.1546537;650.1546537;650.1546537;650.1546537;650.1546537;650.1546537;650.1546537;650.1546537;None;0;;;C:\2023\REPSWITCH21092023\REPSWITCH_excgange\REPSWITCH_excgange\data/380203_REPSWITCH1_version2_list3_2023-12-13_11h01.11.464_micRespv2l3_recorded\recording_micRespv2l3_2023-12-13_11h11.57.529.wav;653.1757765;653.6758542;None;653.1757765;653.1757765;653.1757765;653.1757765;653.1757765;653.1757765;;;;;;380203;1;2023-12-13_11h01.11.464;REPSWITCH1_version2_list3;2022.2.4;143.9078754;
REPSWITCH1/PICTURE_135.png;traje;speak;darkblue;filler;2;F;2;4;3;2;Stim3_Set1;0;None;138;137;36;0;137;137;137;;;;;;;;;;;;;;;;;;;;;;;653.6758542;654.8149318;654.8149318;654.8149318;654.8149318;654.8149318;654.8149318;654.8149318;654.8149318;None;0;;;C:\2023\REPSWITCH21092023\REPSWITCH_excgange\REPSWITCH_excgange\data/380203_REPSWITCH1_version2_list3_2023-12-13_11h01.11.464_micRespv2l3_recorded\recording_micRespv2l3_2023-12-13_11h12.02.188.wav;657.8361845;658.3362154;None;657.8361845;657.8361845;657.8361845;657.8361845;657.8361845;657.8361845;;;;;;380203;1;2023-12-13_11h01.11.464;REPSWITCH1_version2_list3;2022.2.4;143.9078754;
REPSWITCH1/PICTURE_152.png;caracol;speak;darkblue;nontarget;2;NT;2;4;3;2;Stim2_Set2;1;repeat;139;138;37;0;138;138;138;;;;;;;;;;;;;;;;;;;;;;;658.3362154;659.4544459;659.4544459;659.4544459;659.4544459;659.4544459;659.4544459;659.4544459;659.4544459;None;0;;;C:\2023\REPSWITCH21092023\REPSWITCH_excgange\REPSWITCH_excgange\data/380203_REPSWITCH1_version2_list3_2023-12-13_11h01.11.464_micRespv2l3_recorded\recording_micRespv2l3_2023-12-13_11h12.06.829.wav;662.4825796;;None;662.4825796;662.4825796;662.4825796;662.4825796;662.4825796;662.4825796;;;;;;380203;1;2023-12-13_11h01.11.464;REPSWITCH1_version2_list3;2022.2.4;143.9078754;
REPSWITCH1/PICTURE_152.png;caracol;type;gold;switch;1;T;2;4;3;2;Stim2_Set2;0;None;140;139;38;0;139;139;139;;;;;;;;;;;;;;;;;;;;;;;662.9827313;664.1286981;664.1286981;664.1286981;664.1286981;664.1286981;664.1286981;664.1286981;664.1286981;['c', 'a', 'r', 'a', 'c', 'o', 'l', 'l', 'backspace'];0;[0.5490053002722561, 0.8114390000700951, 0.9619303001090884, 1.0446570003405213, 1.2848277003504336, 1.4393287999555469, 1.6020757001824677, 1.6679330999031663, 2.2292925002984703];caracol;C:\2023\REPSWITCH21092023\REPSWITCH_excgange\REPSWITCH_excgange\data/380203_REPSWITCH1_version2_list3_2023-12-13_11h01.11.464_micRespv2l3_recorded\recording_micRespv2l3_2023-12-13_11h12.11.503.wav;667.1498586;667.6499152;None;667.1498586;667.1498586;667.1498586;667.1498586;667.1498586;667.1498586;;;;;;380203;1;2023-12-13_11h01.11.464;REPSWITCH1_version2_list3;2022.2.4;143.9078754;
