image,correctAns,respModal,frameColor,repSwitch,sequence,target,set,block,list,exp_version,stimulus,baseline,baseline_condition,trial_no,psychopy_trial,Column1,trialsREPSWITCH.thisRepN,trialsREPSWITCH.thisTrialN,trialsREPSWITCH.thisN,trialsREPSWITCH.thisIndex,textWelcome.started,textboxInstrMain1.started,textboxInstrMain1_2.started,textboxInstrMain1_3.started,keyInstrMain.started,keyInstrMain.keys,keyInstrMain.rt,textboxInstrMain2.started,textboxInstrMain2_2.started,textboxInstrMain2_3.started,textboxInstrMain2_4.started,textboxInstrMain2_5.started,textboxInstrMain2_6.started,textboxInstrMain2_7.started,textboxInstrMain2_8.started,textboxInstrMain2_9.started,textboxInstrMain2_10.started,textboxInstrMain2_11.started,textboxInstrMain2_12.started,keyInstrMain2.started,keyInstrMain2.keys,keyInstrMain2.rt,fixationITI.started,fixationITI.stopped,polygonColour.started,polygonWhite.started,imageObject.started,polygonType.started,textInput.started,keyResp.started,micRespv1l1.started,keyResp.keys,keyResp.corr,keyResp.rt,subjResponse,micRespv1l1.clip,textBlankLoop.started,textBlankLoop.stopped,keyPause.keys,polygonColour.stopped,polygonWhite.stopped,imageObject.stopped,polygonType.stopped,textInput.stopped,keyResp.stopped,textboxPause.started,keyPause.started,keyPause.rt,textboxGoodbye.started,textboxGoodbye.stopped,participant,session,date,expName,psychopyVersion,frameRate,
,,,,,,,,,,,,,,,,,,,,,8.972265699878335,11.464593400247395,11.464593400247395,11.464593400247395,11.464593400247395,space,9.748401600401849,,,,,,,,,,,,,,,,,,,,,,,,,,,,,,,,,,,,,,,,,,,,410101,001,2023-12-14_13h41.53.845,REPSWITCH1_version1_list1,2022.2.4,143.98412725668175,
,,,,,,,,,,,,,,,,,,,,,,,,,,,,21.22975860023871,21.22975860023871,21.22975860023871,21.22975860023871,21.22975860023871,21.22975860023871,21.22975860023871,21.22975860023871,21.22975860023871,21.22975860023871,21.22975860023871,21.22975860023871,21.22975860023871,space,2.9145527998916805,,,,,,,,,,,,,,,,,,,,,,,,,,,,,410101,001,2023-12-14_13h41.53.845,REPSWITCH1_version1_list1,2022.2.4,143.98412725668175,
REPSWITCH1/PICTURE_340.png,espejo,type,darkblue,filler,1,F,1,1,1,1,Extra1,0,None,1,0,1,0,0,0,0,,,,,,,,,,,,,,,,,,,,,,,24.23706390010193,25.390060300007463,25.390060300007463,25.390060300007463,25.390060300007463,25.390060300007463,25.390060300007463,25.390060300007463,25.390060300007463,"['e', 's', 'p', 'e', 'j', 'o']",0,"[1.028886300045997, 1.1215652003884315, 1.3129122001118958, 1.434404100291431, 1.575930300168693, 1.625201300252229]",espejo,C:\2023\REPSWITCH21092023\REPSWITCH_excgange\REPSWITCH_excgange\data/410101_REPSWITCH1_version1_list1_2023-12-14_13h41.53.845_micRespv1l1_recorded\recording_micRespv1l1_2023-12-14_13h42.15.146.wav,28.411323899868876,28.911307599861175,None,,,,,,,,,,,,410101,001,2023-12-14_13h41.53.845,REPSWITCH1_version1_list1,2022.2.4,143.98412725668175,
REPSWITCH1/PICTURE_391.png,cadena,speak,gold,filler,2,F,1,1,1,1,Extra2,0,None,2,1,2,0,1,1,1,,,,,,,,,,,,,,,,,,,,,,,28.911307599861175,30.043413099832833,30.043413099832833,30.043413099832833,30.043413099832833,30.043413099832833,30.043413099832833,30.043413099832833,30.043413099832833,None,0,,,C:\2023\REPSWITCH21092023\REPSWITCH_excgange\REPSWITCH_excgange\data/410101_REPSWITCH1_version1_list1_2023-12-14_13h41.53.845_micRespv1l1_recorded\recording_micRespv1l1_2023-12-14_13h42.19.803.wav,33.07159260008484,33.571648800279945,None,33.07159260008484,33.07159260008484,33.07159260008484,33.07159260008484,33.07159260008484,33.07159260008484,,,,,,410101,001,2023-12-14_13h41.53.845,REPSWITCH1_version1_list1,2022.2.4,143.98412725668175,
REPSWITCH1/PICTURE_178.png,puente,speak,gold,nontarget,2,NT,1,1,1,1,Stim1_Set1,1,repeat,3,2,3,0,2,2,2,,,,,,,,,,,,,,,,,,,,,,,33.571648800279945,34.61343290004879,34.61343290004879,34.61343290004879,34.61343290004879,34.61343290004879,34.61343290004879,34.61343290004879,34.61343290004879,None,0,,,C:\2023\REPSWITCH21092023\REPSWITCH_excgange\REPSWITCH_excgange\data/410101_REPSWITCH1_version1_list1_2023-12-14_13h41.53.845_micRespv1l1_recorded\recording_micRespv1l1_2023-12-14_13h42.24.372.wav,37.63467749999836,38.13475910015404,None,37.63467749999836,37.63467749999836,37.63467749999836,37.63467749999836,37.63467749999836,37.63467749999836,,,,,,410101,001,2023-12-14_13h41.53.845,REPSWITCH1_version1_list1,2022.2.4,143.98412725668175,
REPSWITCH1/PICTURE_178.png,puente,speak,gold,repeat,2,T,1,1,1,1,Stim1_Set1,0,None,4,3,4,0,3,3,3,,,,,,,,,,,,,,,,,,,,,,,38.13475910015404,39.35714909993112,39.35714909993112,39.35714909993112,39.35714909993112,39.35714909993112,39.35714909993112,39.35714909993112,39.35714909993112,None,0,,,C:\2023\REPSWITCH21092023\REPSWITCH_excgange\REPSWITCH_excgange\data/410101_REPSWITCH1_version1_list1_2023-12-14_13h41.53.845_micRespv1l1_recorded\recording_micRespv1l1_2023-12-14_13h42.29.117.wav,42.3852718998678,,None,42.3852718998678,42.3852718998678,42.3852718998678,42.3852718998678,42.3852718998678,42.3852718998678,,,,,,410101,001,2023-12-14_13h41.53.845,REPSWITCH1_version1_list1,2022.2.4,143.98412725668175,
REPSWITCH1/PICTURE_319.png,vaca,type,darkblue,filler,1,F,1,1,1,1,Stim1_Set4,0,None,5,4,5,0,4,4,4,,,,,,,,,,,,,,,,,,,,,,,42.88537620007992,44.01050710026175,44.01050710026175,44.01050710026175,44.01050710026175,44.01050710026175,44.01050710026175,44.01050710026175,44.01050710026175,"['v', 'a', 'c', 'a']",0,"[0.7669292003847659, 0.8366971001960337, 1.0234682001173496, 1.071342899929732]",vaca,C:\2023\REPSWITCH21092023\REPSWITCH_excgange\REPSWITCH_excgange\data/410101_REPSWITCH1_version1_list1_2023-12-14_13h41.53.845_micRespv1l1_recorded\recording_micRespv1l1_2023-12-14_13h42.33.770.wav,47.03179599996656,47.531782700214535,None,47.03179599996656,47.03179599996656,47.03179599996656,47.03179599996656,47.03179599996656,47.03179599996656,,,,,,410101,001,2023-12-14_13h41.53.845,REPSWITCH1_version1_list1,2022.2.4,143.98412725668175,
REPSWITCH1/PICTURE_381.png,fresa,speak,gold,nontarget,2,NT,1,1,1,1,Stim2_Set1,1,switch,6,5,6,0,5,5,5,,,,,,,,,,,,,,,,,,,,,,,47.531782700214535,48.594432400073856,48.594432400073856,48.594432400073856,48.594432400073856,48.594432400073856,48.594432400073856,48.594432400073856,48.594432400073856,None,0,,,C:\2023\REPSWITCH21092023\REPSWITCH_excgange\REPSWITCH_excgange\data/410101_REPSWITCH1_version1_list1_2023-12-14_13h41.53.845_micRespv1l1_recorded\recording_micRespv1l1_2023-12-14_13h42.38.354.wav,51.62262869998813,,None,51.62262869998813,51.62262869998813,51.62262869998813,51.62262869998813,51.62262869998813,51.62262869998813,,,,,,410101,001,2023-12-14_13h41.53.845,REPSWITCH1_version1_list1,2022.2.4,143.98412725668175,
REPSWITCH1/PICTURE_381.png,fresa,speak,gold,repeat,2,T,1,1,1,1,Stim2_Set1,0,None,7,6,7,0,6,6,6,,,,,,,,,,,,,,,,,,,,,,,52.122699699830264,53.178377400152385,53.178377400152385,53.178377400152385,53.178377400152385,53.178377400152385,53.178377400152385,53.178377400152385,53.178377400152385,None,0,,,C:\2023\REPSWITCH21092023\REPSWITCH_excgange\REPSWITCH_excgange\data/410101_REPSWITCH1_version1_list1_2023-12-14_13h41.53.845_micRespv1l1_recorded\recording_micRespv1l1_2023-12-14_13h42.42.937.wav,56.199679700192064,56.69974930025637,None,56.199679700192064,56.199679700192064,56.199679700192064,56.199679700192064,56.199679700192064,56.199679700192064,,,,,,410101,001,2023-12-14_13h41.53.845,REPSWITCH1_version1_list1,2022.2.4,143.98412725668175,
REPSWITCH1/PICTURE_719.png,baño,type,darkblue,filler,1,F,1,1,1,1,Stim2_Set4,1,switch,8,7,8,0,7,7,7,,,,,,,,,,,,,,,,,,,,,,,56.69974930025637,57.75538960006088,57.75538960006088,57.75538960006088,57.75538960006088,57.75538960006088,57.75538960006088,57.75538960006088,57.75538960006088,"['b', 'a', 'ñ', 'o']",0,"[0.7872230000793934, 0.8947811000980437, 1.128993900027126, 1.1633248999714851]",baño,C:\2023\REPSWITCH21092023\REPSWITCH_excgange\REPSWITCH_excgange\data/410101_REPSWITCH1_version1_list1_2023-12-14_13h41.53.845_micRespv1l1_recorded\recording_micRespv1l1_2023-12-14_13h42.47.515.wav,60.78355830023065,61.28369060019031,None,60.78355830023065,60.78355830023065,60.78355830023065,60.78355830023065,60.78355830023065,60.78355830023065,,,,,,410101,001,2023-12-14_13h41.53.845,REPSWITCH1_version1_list1,2022.2.4,143.98412725668175,
REPSWITCH1/PICTURE_135.png,traje,speak,gold,nontarget,2,NT,1,1,1,1,Stim3_Set1,0,None,9,8,9,0,8,8,8,,,,,,,,,,,,,,,,,,,,,,,61.28369060019031,62.33933590026572,62.33933590026572,62.33933590026572,62.33933590026572,62.33933590026572,62.33933590026572,62.33933590026572,62.33933590026572,None,0,,,C:\2023\REPSWITCH21092023\REPSWITCH_excgange\REPSWITCH_excgange\data/410101_REPSWITCH1_version1_list1_2023-12-14_13h41.53.845_micRespv1l1_recorded\recording_micRespv1l1_2023-12-14_13h42.52.099.wav,65.36750720022246,,None,65.36750720022246,65.36750720022246,65.36750720022246,65.36750720022246,65.36750720022246,65.36750720022246,,,,,,410101,001,2023-12-14_13h41.53.845,REPSWITCH1_version1_list1,2022.2.4,143.98412725668175,
REPSWITCH1/PICTURE_135.png,traje,type,darkblue,switch,1,T,1,1,1,1,Stim3_Set1,0,None,10,9,10,0,9,9,9,,,,,,,,,,,,,,,,,,,,,,,65.86755480011925,66.95800910005346,66.95800910005346,66.95800910005346,66.95800910005346,66.95800910005346,66.95800910005346,66.95800910005346,66.95800910005346,"['t', 'r', 'a', 'j', 'e']",0,"[0.8382447003386915, 0.9050125000067055, 1.0954332002438605, 1.2448850004002452, 1.3338629002682865]",traje,C:\2023\REPSWITCH21092023\REPSWITCH_excgange\REPSWITCH_excgange\data/410101_REPSWITCH1_version1_list1_2023-12-14_13h41.53.845_micRespv1l1_recorded\recording_micRespv1l1_2023-12-14_13h42.56.717.wav,69.98617780022323,,None,69.98617780022323,69.98617780022323,69.98617780022323,69.98617780022323,69.98617780022323,69.98617780022323,,,,,,410101,001,2023-12-14_13h41.53.845,REPSWITCH1_version1_list1,2022.2.4,143.98412725668175,
REPSWITCH1/PICTURE_687.png,camisa,speak,gold,filler,2,F,1,1,1,1,Stim5_Set4,0,None,11,10,11,0,10,10,10,,,,,,,,,,,,,,,,,,,,,,,70.48618949996307,71.7155276001431,71.7155276001431,71.7155276001431,71.7155276001431,71.7155276001431,71.7155276001431,71.7155276001431,71.7155276001431,None,0,,,C:\2023\REPSWITCH21092023\REPSWITCH_excgange\REPSWITCH_excgange\data/410101_REPSWITCH1_version1_list1_2023-12-14_13h41.53.845_micRespv1l1_recorded\recording_micRespv1l1_2023-12-14_13h43.01.475.wav,74.7437267000787,,None,74.7437267000787,74.7437267000787,74.7437267000787,74.7437267000787,74.7437267000787,74.7437267000787,,,,,,410101,001,2023-12-14_13h41.53.845,REPSWITCH1_version1_list1,2022.2.4,143.98412725668175,
REPSWITCH1/PICTURE_128.png,muñeca,type,darkblue,nontarget,1,NT,1,1,1,1,Stim4_Set1,1,switch,12,11,12,0,11,11,11,,,,,,,,,,,,,,,,,,,,,,,75.24377600010484,76.34814490005374,76.34814490005374,76.34814490005374,76.34814490005374,76.34814490005374,76.34814490005374,76.34814490005374,76.34814490005374,"['m', 'u', 'ñ', 'e', 'c', 'a']",0,"[0.9408978000283241, 1.0834147003479302, 1.2987572001293302, 1.3875064002349973, 1.5679083000868559, 1.623682000208646]",muñeca,C:\2023\REPSWITCH21092023\REPSWITCH_excgange\REPSWITCH_excgange\data/410101_REPSWITCH1_version1_list1_2023-12-14_13h41.53.845_micRespv1l1_recorded\recording_micRespv1l1_2023-12-14_13h43.06.107.wav,79.36935190018266,79.86946430010721,None,79.36935190018266,79.36935190018266,79.36935190018266,79.36935190018266,79.36935190018266,79.36935190018266,,,,,,410101,001,2023-12-14_13h41.53.845,REPSWITCH1_version1_list1,2022.2.4,143.98412725668175,
REPSWITCH1/PICTURE_128.png,muñeca,speak,gold,switch,2,T,1,1,1,1,Stim4_Set1,0,None,13,12,13,0,12,12,12,,,,,,,,,,,,,,,,,,,,,,,79.86946430010721,81.0014732000418,81.0014732000418,81.0014732000418,81.0014732000418,81.0014732000418,81.0014732000418,81.0014732000418,81.0014732000418,None,0,,,C:\2023\REPSWITCH21092023\REPSWITCH_excgange\REPSWITCH_excgange\data/410101_REPSWITCH1_version1_list1_2023-12-14_13h41.53.845_micRespv1l1_recorded\recording_micRespv1l1_2023-12-14_13h43.10.762.wav,84.02968040015548,,None,84.02968040015548,84.02968040015548,84.02968040015548,84.02968040015548,84.02968040015548,84.02968040015548,,,,,,410101,001,2023-12-14_13h41.53.845,REPSWITCH1_version1_list1,2022.2.4,143.98412725668175,
REPSWITCH1/PICTURE_8.png,pierna,speak,gold,filler,2,F,1,1,1,1,Stim3_Set4,0,None,14,13,14,0,13,13,13,,,,,,,,,,,,,,,,,,,,,,,84.52971479995176,85.68263779999688,85.68263779999688,85.68263779999688,85.68263779999688,85.68263779999688,85.68263779999688,85.68263779999688,85.68263779999688,None,0,,,C:\2023\REPSWITCH21092023\REPSWITCH_excgange\REPSWITCH_excgange\data/410101_REPSWITCH1_version1_list1_2023-12-14_13h41.53.845_micRespv1l1_recorded\recording_micRespv1l1_2023-12-14_13h43.15.442.wav,88.70385710010305,89.20391880022362,None,88.70385710010305,88.70385710010305,88.70385710010305,88.70385710010305,88.70385710010305,88.70385710010305,,,,,,410101,001,2023-12-14_13h41.53.845,REPSWITCH1_version1_list1,2022.2.4,143.98412725668175,
REPSWITCH1/PICTURE_19.png,pavo,speak,gold,nontarget,2,NT,1,1,1,1,Stim5_Set1,0,None,15,14,15,0,14,14,14,,,,,,,,,,,,,,,,,,,,,,,89.20391880022362,90.28046939987689,90.28046939987689,90.28046939987689,90.28046939987689,90.28046939987689,90.28046939987689,90.28046939987689,90.28046939987689,None,0,,,C:\2023\REPSWITCH21092023\REPSWITCH_excgange\REPSWITCH_excgange\data/410101_REPSWITCH1_version1_list1_2023-12-14_13h41.53.845_micRespv1l1_recorded\recording_micRespv1l1_2023-12-14_13h43.20.040.wav,93.30864519998431,,None,93.30864519998431,93.30864519998431,93.30864519998431,93.30864519998431,93.30864519998431,93.30864519998431,,,,,,410101,001,2023-12-14_13h41.53.845,REPSWITCH1_version1_list1,2022.2.4,143.98412725668175,
REPSWITCH1/PICTURE_19.png,pavo,type,darkblue,switch,1,T,1,1,1,1,Stim5_Set1,0,None,16,15,16,0,15,15,15,,,,,,,,,,,,,,,,,,,,,,,93.80873070005327,94.89224380021915,94.89224380021915,94.89224380021915,94.89224380021915,94.89224380021915,94.89224380021915,94.89224380021915,94.89224380021915,"['p', 'a', 'v', 'o']",0,"[0.7812640001066029, 0.8520261002704501, 1.0274236002005637, 1.1005737003870308]",pavo,C:\2023\REPSWITCH21092023\REPSWITCH_excgange\REPSWITCH_excgange\data/410101_REPSWITCH1_version1_list1_2023-12-14_13h41.53.845_micRespv1l1_recorded\recording_micRespv1l1_2023-12-14_13h43.24.652.wav,97.92035470018163,,None,97.92035470018163,97.92035470018163,97.92035470018163,97.92035470018163,97.92035470018163,97.92035470018163,,,,,,410101,001,2023-12-14_13h41.53.845,REPSWITCH1_version1_list1,2022.2.4,143.98412725668175,
REPSWITCH1/PICTURE_16.png,cazador,type,darkblue,nontarget,1,NT,1,1,1,1,Stim6_Set1,1,switch,17,16,17,0,16,16,16,,,,,,,,,,,,,,,,,,,,,,,98.42049220018089,99.53167759999633,99.53167759999633,99.53167759999633,99.53167759999633,99.53167759999633,99.53167759999633,99.53167759999633,99.53167759999633,"['c', 'a', 'z', 'a', 'd', 'o', 'r']",0,"[0.9652249002829194, 1.0244599003344774, 1.2317080004140735, 1.3721949001774192, 1.4949272000230849, 1.6090475004166365, 1.683799700345844]",cazador,C:\2023\REPSWITCH21092023\REPSWITCH_excgange\REPSWITCH_excgange\data/410101_REPSWITCH1_version1_list1_2023-12-14_13h41.53.845_micRespv1l1_recorded\recording_micRespv1l1_2023-12-14_13h43.29.290.wav,102.55296530015767,103.05297069996595,None,102.55296530015767,102.55296530015767,102.55296530015767,102.55296530015767,102.55296530015767,102.55296530015767,,,,,,410101,001,2023-12-14_13h41.53.845,REPSWITCH1_version1_list1,2022.2.4,143.98412725668175,
REPSWITCH1/PICTURE_16.png,cazador,type,darkblue,repeat,1,T,1,1,1,1,Stim6_Set1,0,None,18,17,18,0,17,17,17,,,,,,,,,,,,,,,,,,,,,,,103.05297069996595,104.06701250001788,104.06701250001788,104.06701250001788,104.06701250001788,104.06701250001788,104.06701250001788,104.06701250001788,104.06701250001788,"['c', 'a', 'z', 'a', 'd', 'o', 'r']",0,"[0.7738325004465878, 0.8296878002583981, 1.1484302002936602, 1.35294370027259, 1.5452386001124978, 1.7618222003802657, 1.9096438004635274]",cazador,C:\2023\REPSWITCH21092023\REPSWITCH_excgange\REPSWITCH_excgange\data/410101_REPSWITCH1_version1_list1_2023-12-14_13h41.53.845_micRespv1l1_recorded\recording_micRespv1l1_2023-12-14_13h43.33.827.wav,107.09518820000812,,None,107.09518820000812,107.09518820000812,107.09518820000812,107.09518820000812,107.09518820000812,107.09518820000812,,,,,,410101,001,2023-12-14_13h41.53.845,REPSWITCH1_version1_list1,2022.2.4,143.98412725668175,
REPSWITCH1/PICTURE_498.png,taza,speak,gold,filler,2,F,1,1,1,1,Stim4_Set4,0,None,19,18,19,0,18,18,18,,,,,,,,,,,,,,,,,,,,,,,107.59524419996887,108.60931769991294,108.60931769991294,108.60931769991294,108.60931769991294,108.60931769991294,108.60931769991294,108.60931769991294,108.60931769991294,None,0,,,C:\2023\REPSWITCH21092023\REPSWITCH_excgange\REPSWITCH_excgange\data/410101_REPSWITCH1_version1_list1_2023-12-14_13h41.53.845_micRespv1l1_recorded\recording_micRespv1l1_2023-12-14_13h43.38.369.wav,111.63746620016173,,None,111.63746620016173,111.63746620016173,111.63746620016173,111.63746620016173,111.63746620016173,111.63746620016173,,,,,,410101,001,2023-12-14_13h41.53.845,REPSWITCH1_version1_list1,2022.2.4,143.98412725668175,
REPSWITCH1/PICTURE_48.png,bombero,type,darkblue,filler,1,F,1,1,1,1,Stim7_Set4,0,None,20,19,20,0,19,19,19,,,,,,,,,,,,,,,,,,,,,,,112.13758230023086,113.33908569999039,113.33908569999039,113.33908569999039,113.33908569999039,113.33908569999039,113.33908569999039,113.33908569999039,113.33908569999039,"['b', 'o', 'm', 'b', 'e', 'r', 'o']",0,"[0.9134681997820735, 1.0818603998050094, 1.1915297000668943, 1.3958037002012134, 1.4907522997818887, 1.5366365001536906, 1.6353084999136627]",bombero,C:\2023\REPSWITCH21092023\REPSWITCH_excgange\REPSWITCH_excgange\data/410101_REPSWITCH1_version1_list1_2023-12-14_13h41.53.845_micRespv1l1_recorded\recording_micRespv1l1_2023-12-14_13h43.43.099.wav,116.36723530013114,116.86729020019993,None,116.36723530013114,116.36723530013114,116.36723530013114,116.36723530013114,116.36723530013114,116.36723530013114,,,,,,410101,001,2023-12-14_13h41.53.845,REPSWITCH1_version1_list1,2022.2.4,143.98412725668175,
REPSWITCH1/PICTURE_142.png,vaso,type,darkblue,nontarget,1,NT,1,1,1,1,Stim7_Set1,1,repeat,21,20,21,0,20,20,20,,,,,,,,,,,,,,,,,,,,,,,116.86729020019993,118.02020270004869,118.02020270004869,118.02020270004869,118.02020270004869,118.02020270004869,118.02020270004869,118.02020270004869,118.02020270004869,"['v', 'a', 's', 'o']",0,"[0.8057587002404034, 0.8944693002849817, 0.9193853000178933, 1.0552215999923646]",vaso,C:\2023\REPSWITCH21092023\REPSWITCH_excgange\REPSWITCH_excgange\data/410101_REPSWITCH1_version1_list1_2023-12-14_13h41.53.845_micRespv1l1_recorded\recording_micRespv1l1_2023-12-14_13h43.47.779.wav,121.04841489996761,,None,121.04841489996761,121.04841489996761,121.04841489996761,121.04841489996761,121.04841489996761,121.04841489996761,,,,,,410101,001,2023-12-14_13h41.53.845,REPSWITCH1_version1_list1,2022.2.4,143.98412725668175,
REPSWITCH1/PICTURE_142.png,vaso,type,darkblue,repeat,1,T,1,1,1,1,Stim7_Set1,0,None,22,21,22,0,21,21,21,,,,,,,,,,,,,,,,,,,,,,,121.54846089985222,122.61803610017523,122.61803610017523,122.61803610017523,122.61803610017523,122.61803610017523,122.61803610017523,122.61803610017523,122.61803610017523,"['v', 'a', 's', 'o']",0,"[0.6578441001474857, 0.7187655000016093, 0.8426680001430213, 1.0041252998635173]",vaso,C:\2023\REPSWITCH21092023\REPSWITCH_excgange\REPSWITCH_excgange\data/410101_REPSWITCH1_version1_list1_2023-12-14_13h41.53.845_micRespv1l1_recorded\recording_micRespv1l1_2023-12-14_13h43.52.377.wav,125.63927369983867,126.13940830016509,None,125.63927369983867,125.63927369983867,125.63927369983867,125.63927369983867,125.63927369983867,125.63927369983867,,,,,,410101,001,2023-12-14_13h41.53.845,REPSWITCH1_version1_list1,2022.2.4,143.98412725668175,
REPSWITCH1/PICTURE_338.png,regalo,speak,gold,filler,2,F,1,1,1,1,Stim6_Set4,1,switch,23,22,23,0,22,22,22,,,,,,,,,,,,,,,,,,,,,,,126.13940830016509,127.21585900010541,127.21585900010541,127.21585900010541,127.21585900010541,127.21585900010541,127.21585900010541,127.21585900010541,127.21585900010541,None,0,,,C:\2023\REPSWITCH21092023\REPSWITCH_excgange\REPSWITCH_excgange\data/410101_REPSWITCH1_version1_list1_2023-12-14_13h41.53.845_micRespv1l1_recorded\recording_micRespv1l1_2023-12-14_13h43.56.975.wav,130.24402379989624,,None,130.24402379989624,130.24402379989624,130.24402379989624,130.24402379989624,130.24402379989624,130.24402379989624,,,,,,410101,001,2023-12-14_13h41.53.845,REPSWITCH1_version1_list1,2022.2.4,143.98412725668175,
REPSWITCH1/PICTURE_728.png,pulpo,type,darkblue,filler,1,F,1,1,1,1,Stim8_Set4,1,switch,24,23,24,0,23,23,23,,,,,,,,,,,,,,,,,,,,,,,130.74411150021479,131.82764999987558,131.82764999987558,131.82764999987558,131.82764999987558,131.82764999987558,131.82764999987558,131.82764999987558,131.82764999987558,"['p', 'u', 'l', 'p', 'o']",0,"[0.777216600254178, 0.9646050999872386, 1.1334135001525283, 1.3377386000938714, 1.3835746999830008]",pulpo,C:\2023\REPSWITCH21092023\REPSWITCH_excgange\REPSWITCH_excgange\data/410101_REPSWITCH1_version1_list1_2023-12-14_13h41.53.845_micRespv1l1_recorded\recording_micRespv1l1_2023-12-14_13h44.01.586.wav,134.84878680016845,135.3488644999452,None,134.84878680016845,134.84878680016845,134.84878680016845,134.84878680016845,134.84878680016845,134.84878680016845,,,,,,410101,001,2023-12-14_13h41.53.845,REPSWITCH1_version1_list1,2022.2.4,143.98412725668175,
REPSWITCH1/PICTURE_169.png,espalda,type,darkblue,nontarget,1,NT,1,1,1,1,Stim8_Set1,1,repeat,25,24,25,0,24,24,24,,,,,,,,,,,,,,,,,,,,,,,135.3488644999452,136.41158189997077,136.41158189997077,136.41158189997077,136.41158189997077,136.41158189997077,136.41158189997077,136.41158189997077,136.41158189997077,"['e', 's', 'p', 'a', 'l', 'd', 'a']",0,"[0.889357800129801, 1.0831495998427272, 1.1808205000124872, 1.3014535000547767, 1.397441300097853, 1.4761417000554502, 1.5242010997608304]",espalda,C:\2023\REPSWITCH21092023\REPSWITCH_excgange\REPSWITCH_excgange\data/410101_REPSWITCH1_version1_list1_2023-12-14_13h41.53.845_micRespv1l1_recorded\recording_micRespv1l1_2023-12-14_13h44.06.170.wav,139.43275070004165,139.9327791002579,None,139.43275070004165,139.43275070004165,139.43275070004165,139.43275070004165,139.43275070004165,139.43275070004165,,,,,,410101,001,2023-12-14_13h41.53.845,REPSWITCH1_version1_list1,2022.2.4,143.98412725668175,
REPSWITCH1/PICTURE_169.png,espalda,speak,gold,switch,2,T,1,1,1,1,Stim8_Set1,0,None,26,25,26,0,25,25,25,,,,,,,,,,,,,,,,,,,,,,,139.9327791002579,140.99543510004878,140.99543510004878,140.99543510004878,140.99543510004878,140.99543510004878,140.99543510004878,140.99543510004878,140.99543510004878,None,0,,,C:\2023\REPSWITCH21092023\REPSWITCH_excgange\REPSWITCH_excgange\data/410101_REPSWITCH1_version1_list1_2023-12-14_13h41.53.845_micRespv1l1_recorded\recording_micRespv1l1_2023-12-14_13h44.10.755.wav,144.0166882001795,144.51674580015242,None,144.0166882001795,144.0166882001795,144.0166882001795,144.0166882001795,144.0166882001795,144.0166882001795,,,,,,410101,001,2023-12-14_13h41.53.845,REPSWITCH1_version1_list1,2022.2.4,143.98412725668175,
REPSWITCH1/PICTURE_178.png,puente,speak,gold,filler,2,F,2,1,1,1,Stim1_Set1,0,None,27,26,27,0,26,26,26,,,,,,,,,,,,,,,,,,,,,,,144.51674580015242,145.71135109988973,145.71135109988973,145.71135109988973,145.71135109988973,145.71135109988973,145.71135109988973,145.71135109988973,145.71135109988973,None,0,,,C:\2023\REPSWITCH21092023\REPSWITCH_excgange\REPSWITCH_excgange\data/410101_REPSWITCH1_version1_list1_2023-12-14_13h41.53.845_micRespv1l1_recorded\recording_micRespv1l1_2023-12-14_13h44.15.470.wav,148.73254569992423,149.2326378999278,None,148.73254569992423,148.73254569992423,148.73254569992423,148.73254569992423,148.73254569992423,148.73254569992423,,,,,,410101,001,2023-12-14_13h41.53.845,REPSWITCH1_version1_list1,2022.2.4,143.98412725668175,
REPSWITCH1/PICTURE_175.png,pintor,type,darkblue,nontarget,1,NT,2,1,1,1,Stim1_Set2,1,switch,28,27,28,0,27,27,27,,,,,,,,,,,,,,,,,,,,,,,149.2326378999278,150.42036439990625,150.42036439990625,150.42036439990625,150.42036439990625,150.42036439990625,150.42036439990625,150.42036439990625,150.42036439990625,"['p', 'i', 'n', 't', 'o', 'r']",0,"[0.8701773001812398, 1.0874398997984827, 1.3067184002138674, 1.5030745998956263, 1.6315879002213478, 1.7169508999213576]",pintor,C:\2023\REPSWITCH21092023\REPSWITCH_excgange\REPSWITCH_excgange\data/410101_REPSWITCH1_version1_list1_2023-12-14_13h41.53.845_micRespv1l1_recorded\recording_micRespv1l1_2023-12-14_13h44.20.180.wav,153.4484755001031,,None,153.4484755001031,153.4484755001031,153.4484755001031,153.4484755001031,153.4484755001031,153.4484755001031,,,,,,410101,001,2023-12-14_13h41.53.845,REPSWITCH1_version1_list1,2022.2.4,143.98412725668175,
REPSWITCH1/PICTURE_175.png,pintor,type,darkblue,repeat,1,T,2,1,1,1,Stim1_Set2,0,None,29,28,29,0,28,28,28,,,,,,,,,,,,,,,,,,,,,,,153.94853419996798,154.9834087002091,154.9834087002091,154.9834087002091,154.9834087002091,154.9834087002091,154.9834087002091,154.9834087002091,154.9834087002091,"['p', 'i', 'n', 't', 'o', 'r']",0,"[0.6898634000681341, 0.8463308000937104, 0.9190989998169243, 1.005830599926412, 1.1413353998214006, 1.255925899837166]",pintor,C:\2023\REPSWITCH21092023\REPSWITCH_excgange\REPSWITCH_excgange\data/410101_REPSWITCH1_version1_list1_2023-12-14_13h41.53.845_micRespv1l1_recorded\recording_micRespv1l1_2023-12-14_13h44.24.743.wav,158.00459770020097,158.5046999999322,None,158.00459770020097,158.00459770020097,158.00459770020097,158.00459770020097,158.00459770020097,158.00459770020097,,,,,,410101,001,2023-12-14_13h41.53.845,REPSWITCH1_version1_list1,2022.2.4,143.98412725668175,
REPSWITCH1/PICTURE_381.png,fresa,speak,gold,filler,2,F,2,1,1,1,Stim2_Set1,0,None,30,29,30,0,29,29,29,,,,,,,,,,,,,,,,,,,,,,,158.5046999999322,159.61602539988235,159.61602539988235,159.61602539988235,159.61602539988235,159.61602539988235,159.61602539988235,159.61602539988235,159.61602539988235,None,0,,,C:\2023\REPSWITCH21092023\REPSWITCH_excgange\REPSWITCH_excgange\data/410101_REPSWITCH1_version1_list1_2023-12-14_13h41.53.845_micRespv1l1_recorded\recording_micRespv1l1_2023-12-14_13h44.29.375.wav,162.63718160009012,163.13725139992312,None,162.63718160009012,162.63718160009012,162.63718160009012,162.63718160009012,162.63718160009012,162.63718160009012,,,,,,410101,001,2023-12-14_13h41.53.845,REPSWITCH1_version1_list1,2022.2.4,143.98412725668175,
REPSWITCH1/PICTURE_152.png,caracol,type,darkblue,nontarget,1,NT,2,1,1,1,Stim2_Set2,1,switch,31,30,31,0,30,30,30,,,,,,,,,,,,,,,,,,,,,,,163.13725139992312,164.25543500017375,164.25543500017375,164.25543500017375,164.25543500017375,164.25543500017375,164.25543500017375,164.25543500017375,164.25543500017375,"['c', 'a', 'r', 'a', 'c', 'o', 'l']",0,"[0.7532121003605425, 0.8757873000577092, 1.0073518003337085, 1.0820965003222227, 1.2418617000803351, 1.3398376004770398, 1.4949801000766456]",caracol,C:\2023\REPSWITCH21092023\REPSWITCH_excgange\REPSWITCH_excgange\data/410101_REPSWITCH1_version1_list1_2023-12-14_13h41.53.845_micRespv1l1_recorded\recording_micRespv1l1_2023-12-14_13h44.34.015.wav,167.28361700009555,,None,167.28361700009555,167.28361700009555,167.28361700009555,167.28361700009555,167.28361700009555,167.28361700009555,,,,,,410101,001,2023-12-14_13h41.53.845,REPSWITCH1_version1_list1,2022.2.4,143.98412725668175,
REPSWITCH1/PICTURE_152.png,caracol,type,darkblue,repeat,1,T,2,1,1,1,Stim2_Set2,0,None,32,31,32,0,31,31,31,,,,,,,,,,,,,,,,,,,,,,,167.78365470003337,168.8046777001582,168.8046777001582,168.8046777001582,168.8046777001582,168.8046777001582,168.8046777001582,168.8046777001582,168.8046777001582,"['c', 'a', 'r', 'a', 'c', 'o', 'l']",0,"[0.6032058000564575, 0.6689841002225876, 0.8154851999133825, 0.9021960003301501, 1.0920363003388047, 1.1517757000401616, 1.3162259003147483]",caracol,C:\2023\REPSWITCH21092023\REPSWITCH_excgange\REPSWITCH_excgange\data/410101_REPSWITCH1_version1_list1_2023-12-14_13h41.53.845_micRespv1l1_recorded\recording_micRespv1l1_2023-12-14_13h44.38.565.wav,171.8328331001103,,None,171.8328331001103,171.8328331001103,171.8328331001103,171.8328331001103,171.8328331001103,171.8328331001103,,,,,,410101,001,2023-12-14_13h41.53.845,REPSWITCH1_version1_list1,2022.2.4,143.98412725668175,
REPSWITCH1/PICTURE_128.png,muñeca,speak,gold,filler,2,F,2,1,1,1,Stim4_Set1,0,None,33,32,33,0,32,32,32,,,,,,,,,,,,,,,,,,,,,,,172.33287579985335,173.36777500016615,173.36777500016615,173.36777500016615,173.36777500016615,173.36777500016615,173.36777500016615,173.36777500016615,173.36777500016615,None,0,,,C:\2023\REPSWITCH21092023\REPSWITCH_excgange\REPSWITCH_excgange\data/410101_REPSWITCH1_version1_list1_2023-12-14_13h41.53.845_micRespv1l1_recorded\recording_micRespv1l1_2023-12-14_13h44.43.127.wav,176.3959647999145,,None,176.3959647999145,176.3959647999145,176.3959647999145,176.3959647999145,176.3959647999145,176.3959647999145,,,,,,410101,001,2023-12-14_13h41.53.845,REPSWITCH1_version1_list1,2022.2.4,143.98412725668175,
REPSWITCH1/PICTURE_264.png,mano,type,darkblue,nontarget,1,NT,2,1,1,1,Stim3_Set2,0,None,34,33,34,0,33,33,33,,,,,,,,,,,,,,,,,,,,,,,176.89596989983693,177.92391850007698,177.92391850007698,177.92391850007698,177.92391850007698,177.92391850007698,177.92391850007698,177.92391850007698,177.92391850007698,"['m', 'a', 'n', 'o']",0,"[0.6436761999502778, 0.7363276001997292, 0.8240451002493501, 0.8779004001989961]",mano,C:\2023\REPSWITCH21092023\REPSWITCH_excgange\REPSWITCH_excgange\data/410101_REPSWITCH1_version1_list1_2023-12-14_13h41.53.845_micRespv1l1_recorded\recording_micRespv1l1_2023-12-14_13h44.47.683.wav,180.94511680025607,181.44520300021395,None,180.94511680025607,180.94511680025607,180.94511680025607,180.94511680025607,180.94511680025607,180.94511680025607,,,,,,410101,001,2023-12-14_13h41.53.845,REPSWITCH1_version1_list1,2022.2.4,143.98412725668175,
REPSWITCH1/PICTURE_264.png,mano,speak,gold,switch,2,T,2,1,1,1,Stim3_Set2,0,None,35,34,35,0,34,34,34,,,,,,,,,,,,,,,,,,,,,,,181.44520300021395,182.5078309001401,182.5078309001401,182.5078309001401,182.5078309001401,182.5078309001401,182.5078309001401,182.5078309001401,182.5078309001401,['m'],0,[0.5624222001060843],m,C:\2023\REPSWITCH21092023\REPSWITCH_excgange\REPSWITCH_excgange\data/410101_REPSWITCH1_version1_list1_2023-12-14_13h41.53.845_micRespv1l1_recorded\recording_micRespv1l1_2023-12-14_13h44.52.267.wav,185.53605230012909,,None,185.53605230012909,185.53605230012909,185.53605230012909,185.53605230012909,185.53605230012909,185.53605230012909,,,,,,410101,001,2023-12-14_13h41.53.845,REPSWITCH1_version1_list1,2022.2.4,143.98412725668175,
REPSWITCH1/PICTURE_517.png,cuerda,speak,gold,nontarget,2,NT,2,1,1,1,Stim4_Set2,1,repeat,36,35,36,0,35,35,35,,,,,,,,,,,,,,,,,,,,,,,186.03608509991318,187.09175440017134,187.09175440017134,187.09175440017134,187.09175440017134,187.09175440017134,187.09175440017134,187.09175440017134,187.09175440017134,None,0,,,C:\2023\REPSWITCH21092023\REPSWITCH_excgange\REPSWITCH_excgange\data/410101_REPSWITCH1_version1_list1_2023-12-14_13h41.53.845_micRespv1l1_recorded\recording_micRespv1l1_2023-12-14_13h44.56.851.wav,190.11992520000786,,None,190.11992520000786,190.11992520000786,190.11992520000786,190.11992520000786,190.11992520000786,190.11992520000786,,,,,,410101,001,2023-12-14_13h41.53.845,REPSWITCH1_version1_list1,2022.2.4,143.98412725668175,
REPSWITCH1/PICTURE_517.png,cuerda,type,darkblue,switch,1,T,2,1,1,1,Stim4_Set2,0,None,37,36,37,0,36,36,36,,,,,,,,,,,,,,,,,,,,,,,190.62001339998096,191.71739039989188,191.71739039989188,191.71739039989188,191.71739039989188,191.71739039989188,191.71739039989188,191.71739039989188,191.71739039989188,"['c', 'u', 'e', 'r', 'd', 'a']",0,"[0.7220078003592789, 0.8171739000827074, 0.914851600304246, 0.950727500487119, 1.1371044004336, 1.1759857004508376]",cuerda,C:\2023\REPSWITCH21092023\REPSWITCH_excgange\REPSWITCH_excgange\data/410101_REPSWITCH1_version1_list1_2023-12-14_13h41.53.845_micRespv1l1_recorded\recording_micRespv1l1_2023-12-14_13h45.01.476.wav,194.73859990015626,195.23869949998334,None,194.73859990015626,194.73859990015626,194.73859990015626,194.73859990015626,194.73859990015626,194.73859990015626,,,,,,410101,001,2023-12-14_13h41.53.845,REPSWITCH1_version1_list1,2022.2.4,143.98412725668175,
REPSWITCH1/PICTURE_135.png,traje,type,darkblue,filler,1,F,2,1,1,1,Stim3_Set1,0,None,38,37,38,0,37,37,37,,,,,,,,,,,,,,,,,,,,,,,195.23869949998334,196.38463700003922,196.38463700003922,196.38463700003922,196.38463700003922,196.38463700003922,196.38463700003922,196.38463700003922,196.38463700003922,"['t', 'r', 'a', 'j', 'e']",0,"[0.9122516000643373, 0.9630435002036393, 1.1016151001676917, 1.1833401001058519, 1.5303958002477884]",traje,C:\2023\REPSWITCH21092023\REPSWITCH_excgange\REPSWITCH_excgange\data/410101_REPSWITCH1_version1_list1_2023-12-14_13h41.53.845_micRespv1l1_recorded\recording_micRespv1l1_2023-12-14_13h45.06.144.wav,199.41280939988792,199.91287939995527,None,199.41280939988792,199.41280939988792,199.41280939988792,199.41280939988792,199.41280939988792,199.41280939988792,,,,,,410101,001,2023-12-14_13h41.53.845,REPSWITCH1_version1_list1,2022.2.4,143.98412725668175,
REPSWITCH1/PICTURE_30.png,granja,type,darkblue,nontarget,1,NT,2,1,1,1,Stim5_Set2,1,repeat,39,38,39,0,38,38,38,,,,,,,,,,,,,,,,,,,,,,,199.91287939995527,201.07278680009767,201.07278680009767,201.07278680009767,201.07278680009767,201.07278680009767,201.07278680009767,201.07278680009767,201.07278680009767,"['g', 'r', 'a', 'n', 'j', 'a']",0,"[0.9419300002045929, 1.0087000001221895, 1.1731208004057407, 1.2977245002985, 1.4173544002696872, 1.524949800223112]",granja,C:\2023\REPSWITCH21092023\REPSWITCH_excgange\REPSWITCH_excgange\data/410101_REPSWITCH1_version1_list1_2023-12-14_13h41.53.845_micRespv1l1_recorded\recording_micRespv1l1_2023-12-14_13h45.10.832.wav,204.10092360014096,,None,204.10092360014096,204.10092360014096,204.10092360014096,204.10092360014096,204.10092360014096,204.10092360014096,,,,,,410101,001,2023-12-14_13h41.53.845,REPSWITCH1_version1_list1,2022.2.4,143.98412725668175,
REPSWITCH1/PICTURE_30.png,granja,speak,gold,switch,2,T,2,1,1,1,Stim5_Set2,0,None,40,39,40,0,39,39,39,,,,,,,,,,,,,,,,,,,,,,,204.6010175999254,205.8234279998578,205.8234279998578,205.8234279998578,205.8234279998578,205.8234279998578,205.8234279998578,205.8234279998578,205.8234279998578,None,0,,,C:\2023\REPSWITCH21092023\REPSWITCH_excgange\REPSWITCH_excgange\data/410101_REPSWITCH1_version1_list1_2023-12-14_13h41.53.845_micRespv1l1_recorded\recording_micRespv1l1_2023-12-14_13h45.15.584.wav,208.8515802999027,209.35163780022413,None,208.8515802999027,208.8515802999027,208.8515802999027,208.8515802999027,208.8515802999027,208.8515802999027,,,,,,410101,001,2023-12-14_13h41.53.845,REPSWITCH1_version1_list1,2022.2.4,143.98412725668175,
REPSWITCH1/PICTURE_142.png,vaso,type,darkblue,filler,1,F,2,1,1,1,Stim7_Set1,0,None,41,40,41,0,40,40,40,,,,,,,,,,,,,,,,,,,,,,,209.35163780022413,210.45595700014383,210.45595700014383,210.45595700014383,210.45595700014383,210.45595700014383,210.45595700014383,210.45595700014383,210.45595700014383,"['v', 'a', 's', 'o']",0,"[0.8421999998390675, 0.9238988002762198, 0.9677738002501428, 1.13821109989658]",vaso,C:\2023\REPSWITCH21092023\REPSWITCH_excgange\REPSWITCH_excgange\data/410101_REPSWITCH1_version1_list1_2023-12-14_13h41.53.845_micRespv1l1_recorded\recording_micRespv1l1_2023-12-14_13h45.20.215.wav,213.4771644002758,213.9773128000088,None,213.4771644002758,213.4771644002758,213.4771644002758,213.4771644002758,213.4771644002758,213.4771644002758,,,,,,410101,001,2023-12-14_13h41.53.845,REPSWITCH1_version1_list1,2022.2.4,143.98412725668175,
REPSWITCH1/PICTURE_19.png,pavo,speak,gold,filler,2,F,2,1,1,1,Stim5_Set1,1,switch,42,41,42,0,41,41,41,,,,,,,,,,,,,,,,,,,,,,,213.9773128000088,215.14412500010803,215.14412500010803,215.14412500010803,215.14412500010803,215.14412500010803,215.14412500010803,215.14412500010803,215.14412500010803,None,0,,,C:\2023\REPSWITCH21092023\REPSWITCH_excgange\REPSWITCH_excgange\data/410101_REPSWITCH1_version1_list1_2023-12-14_13h41.53.845_micRespv1l1_recorded\recording_micRespv1l1_2023-12-14_13h45.24.904.wav,218.1722500999458,,None,218.1722500999458,218.1722500999458,218.1722500999458,218.1722500999458,218.1722500999458,218.1722500999458,,,,,,410101,001,2023-12-14_13h41.53.845,REPSWITCH1_version1_list1,2022.2.4,143.98412725668175,
REPSWITCH1/PICTURE_552.png,manzana,speak,gold,nontarget,2,NT,2,1,1,1,Stim6_Set2,1,repeat,43,42,43,0,42,42,42,,,,,,,,,,,,,,,,,,,,,,,218.6722976001911,219.7766078999266,219.7766078999266,219.7766078999266,219.7766078999266,219.7766078999266,219.7766078999266,219.7766078999266,219.7766078999266,None,0,,,C:\2023\REPSWITCH21092023\REPSWITCH_excgange\REPSWITCH_excgange\data/410101_REPSWITCH1_version1_list1_2023-12-14_13h41.53.845_micRespv1l1_recorded\recording_micRespv1l1_2023-12-14_13h45.29.537.wav,222.80475320015103,,None,222.80475320015103,222.80475320015103,222.80475320015103,222.80475320015103,222.80475320015103,222.80475320015103,,,,,,410101,001,2023-12-14_13h41.53.845,REPSWITCH1_version1_list1,2022.2.4,143.98412725668175,
REPSWITCH1/PICTURE_552.png,manzana,speak,gold,repeat,2,T,2,1,1,1,Stim6_Set2,0,None,44,43,44,0,43,43,43,,,,,,,,,,,,,,,,,,,,,,,223.3049031002447,224.3605722002685,224.3605722002685,224.3605722002685,224.3605722002685,224.3605722002685,224.3605722002685,224.3605722002685,224.3605722002685,None,0,,,C:\2023\REPSWITCH21092023\REPSWITCH_excgange\REPSWITCH_excgange\data/410101_REPSWITCH1_version1_list1_2023-12-14_13h41.53.845_micRespv1l1_recorded\recording_micRespv1l1_2023-12-14_13h45.34.121.wav,227.38869319995865,,None,227.38869319995865,227.38869319995865,227.38869319995865,227.38869319995865,227.38869319995865,227.38869319995865,,,,,,410101,001,2023-12-14_13h41.53.845,REPSWITCH1_version1_list1,2022.2.4,143.98412725668175,
REPSWITCH1/PICTURE_16.png,cazador,type,darkblue,filler,1,F,2,1,1,1,Stim6_Set1,0,None,45,44,45,0,44,44,44,,,,,,,,,,,,,,,,,,,,,,,227.88884219992906,228.94449630007148,228.94449630007148,228.94449630007148,228.94449630007148,228.94449630007148,228.94449630007148,228.94449630007148,228.94449630007148,"['c', 'a', 'z', 'a', 'd', 'o', 'r']",0,"[0.7336758999153972, 0.8123564999550581, 1.0376249998807907, 1.2260141000151634, 1.3546418999321759, 1.4899796997196972, 1.5896517997607589]",cazador,C:\2023\REPSWITCH21092023\REPSWITCH_excgange\REPSWITCH_excgange\data/410101_REPSWITCH1_version1_list1_2023-12-14_13h41.53.845_micRespv1l1_recorded\recording_micRespv1l1_2023-12-14_13h45.38.703.wav,231.96569490013644,232.46575789991766,None,231.96569490013644,231.96569490013644,231.96569490013644,231.96569490013644,231.96569490013644,231.96569490013644,,,,,,410101,001,2023-12-14_13h41.53.845,REPSWITCH1_version1_list1,2022.2.4,143.98412725668175,
REPSWITCH1/PICTURE_446.png,cerdo,speak,gold,nontarget,2,NT,2,1,1,1,Stim7_Set2,1,switch,46,45,46,0,45,45,45,,,,,,,,,,,,,,,,,,,,,,,232.46575789991766,233.55620200000703,233.55620200000703,233.55620200000703,233.55620200000703,233.55620200000703,233.55620200000703,233.55620200000703,233.55620200000703,None,0,,,C:\2023\REPSWITCH21092023\REPSWITCH_excgange\REPSWITCH_excgange\data/410101_REPSWITCH1_version1_list1_2023-12-14_13h41.53.845_micRespv1l1_recorded\recording_micRespv1l1_2023-12-14_13h45.43.315.wav,236.57744849985465,237.0774896000512,None,236.57744849985465,236.57744849985465,236.57744849985465,236.57744849985465,236.57744849985465,236.57744849985465,,,,,,410101,001,2023-12-14_13h41.53.845,REPSWITCH1_version1_list1,2022.2.4,143.98412725668175,
REPSWITCH1/PICTURE_446.png,cerdo,speak,gold,repeat,2,T,2,1,1,1,Stim7_Set2,0,None,47,46,47,0,46,46,46,,,,,,,,,,,,,,,,,,,,,,,237.0774896000512,238.29986659996212,238.29986659996212,238.29986659996212,238.29986659996212,238.29986659996212,238.29986659996212,238.29986659996212,238.29986659996212,None,0,,,C:\2023\REPSWITCH21092023\REPSWITCH_excgange\REPSWITCH_excgange\data/410101_REPSWITCH1_version1_list1_2023-12-14_13h41.53.845_micRespv1l1_recorded\recording_micRespv1l1_2023-12-14_13h45.48.058.wav,241.32111850008368,241.82117730006576,None,241.32111850008368,241.32111850008368,241.32111850008368,241.32111850008368,241.32111850008368,241.32111850008368,,,,,,410101,001,2023-12-14_13h41.53.845,REPSWITCH1_version1_list1,2022.2.4,143.98412725668175,
REPSWITCH1/PICTURE_590.png,escoba,type,darkblue,filler,1,F,2,1,1,1,Extra3,0,None,48,47,48,0,47,47,47,,,,,,,,,,,,,,,,,,,,,,,241.82117730006576,242.8907420001924,242.8907420001924,242.8907420001924,242.8907420001924,242.8907420001924,242.8907420001924,242.8907420001924,242.8907420001924,"['e', 's', 'c', 'o', 'b', 'a']",0,"[1.6273524002172053, 1.7300021001137793, 1.920385000295937, 1.9901368003338575, 2.1186910001561046, 2.19446980021894]",escoba,C:\2023\REPSWITCH21092023\REPSWITCH_excgange\REPSWITCH_excgange\data/410101_REPSWITCH1_version1_list1_2023-12-14_13h41.53.845_micRespv1l1_recorded\recording_micRespv1l1_2023-12-14_13h45.52.650.wav,245.91891540028155,,None,245.91891540028155,245.91891540028155,245.91891540028155,245.91891540028155,245.91891540028155,245.91891540028155,,,,,,410101,001,2023-12-14_13h41.53.845,REPSWITCH1_version1_list1,2022.2.4,143.98412725668175,
REPSWITCH1/PICTURE_169.png,espalda,speak,gold,filler,2,F,2,1,1,1,Stim8_Set1,0,None,49,48,49,0,48,48,48,,,,,,,,,,,,,,,,,,,,,,,246.41900019999593,247.55805010022596,247.55805010022596,247.55805010022596,247.55805010022596,247.55805010022596,247.55805010022596,247.55805010022596,247.55805010022596,None,0,,,C:\2023\REPSWITCH21092023\REPSWITCH_excgange\REPSWITCH_excgange\data/410101_REPSWITCH1_version1_list1_2023-12-14_13h41.53.845_micRespv1l1_recorded\recording_micRespv1l1_2023-12-14_13h45.57.317.wav,250.5862770001404,,None,250.5862770001404,250.5862770001404,250.5862770001404,250.5862770001404,250.5862770001404,250.5862770001404,,,,,,410101,001,2023-12-14_13h41.53.845,REPSWITCH1_version1_list1,2022.2.4,143.98412725668175,
REPSWITCH1/PICTURE_199.png,falda,speak,gold,nontarget,2,NT,2,1,1,1,Stim8_Set2,1,repeat,50,49,50,0,49,49,49,,,,,,,,,,,,,,,,,,,,,,,251.0862799002789,252.2948368000798,252.2948368000798,252.2948368000798,252.2948368000798,252.2948368000798,252.2948368000798,252.2948368000798,252.2948368000798,None,0,,,C:\2023\REPSWITCH21092023\REPSWITCH_excgange\REPSWITCH_excgange\data/410101_REPSWITCH1_version1_list1_2023-12-14_13h41.53.845_micRespv1l1_recorded\recording_micRespv1l1_2023-12-14_13h46.02.054.wav,255.31607190007344,255.8160529001616,None,255.31607190007344,255.31607190007344,255.31607190007344,255.31607190007344,255.31607190007344,255.31607190007344,,,,,,410101,001,2023-12-14_13h41.53.845,REPSWITCH1_version1_list1,2022.2.4,143.98412725668175,
REPSWITCH1/PICTURE_199.png,falda,type,darkblue,switch,1,T,2,1,1,1,Stim8_Set2,0,None,51,50,51,0,50,50,50,,,,,,,,,,,,,,,,,,,,,,,255.8160529001616,256.9135004999116,256.9135004999116,256.9135004999116,256.9135004999116,256.9135004999116,256.9135004999116,256.9135004999116,256.9135004999116,"['f', 'a', 'l', 'd', 'a']",0,"[0.9612658997066319, 1.0508151999674737, 1.182308599818498, 1.2712441999465227, 1.3425742001272738]",falda,C:\2023\REPSWITCH21092023\REPSWITCH_excgange\REPSWITCH_excgange\data/410101_REPSWITCH1_version1_list1_2023-12-14_13h41.53.845_micRespv1l1_recorded\recording_micRespv1l1_2023-12-14_13h46.06.673.wav,259.9416052000597,,space,259.9416052000597,259.9416052000597,259.9416052000597,259.9416052000597,259.9416052000597,259.9416052000597,260.4417077000253,260.4417077000253,7.943284200038761,,,410101,001,2023-12-14_13h41.53.845,REPSWITCH1_version1_list1,2022.2.4,143.98412725668175,
REPSWITCH1/PICTURE_576.png,guante,type,darkblue,nontarget,1,NT,3,1,1,1,Stim1_Set3,0,None,52,51,52,0,51,51,51,,,,,,,,,,,,,,,,,,,,,,,268.3940913998522,269.5609081001021,269.5609081001021,269.5609081001021,269.5609081001021,269.5609081001021,269.5609081001021,269.5609081001021,269.5609081001021,"['g', 'u', 'a', 'n', 't', 'e']",0,"[1.3183906003832817, 1.4239922002889216, 1.4975060001015663, 1.5938794002868235, 1.672643500380218, 1.9497209005057812]",guante,C:\2023\REPSWITCH21092023\REPSWITCH_excgange\REPSWITCH_excgange\data/410101_REPSWITCH1_version1_list1_2023-12-14_13h41.53.845_micRespv1l1_recorded\recording_micRespv1l1_2023-12-14_13h46.19.320.wav,272.58910389989614,,None,272.58910389989614,272.58910389989614,272.58910389989614,272.58910389989614,272.58910389989614,272.58910389989614,,,,,,410101,001,2023-12-14_13h41.53.845,REPSWITCH1_version1_list1,2022.2.4,143.98412725668175,
REPSWITCH1/PICTURE_576.png,guante,speak,gold,switch,2,T,3,1,1,1,Stim1_Set3,0,None,53,52,53,0,52,52,52,,,,,,,,,,,,,,,,,,,,,,,273.08915719995275,274.11015179986134,274.11015179986134,274.11015179986134,274.11015179986134,274.11015179986134,274.11015179986134,274.11015179986134,274.11015179986134,None,0,,,C:\2023\REPSWITCH21092023\REPSWITCH_excgange\REPSWITCH_excgange\data/410101_REPSWITCH1_version1_list1_2023-12-14_13h41.53.845_micRespv1l1_recorded\recording_micRespv1l1_2023-12-14_13h46.23.869.wav,277.1314453999512,277.63142930017784,None,277.1314453999512,277.1314453999512,277.1314453999512,277.1314453999512,277.1314453999512,277.1314453999512,,,,,,410101,001,2023-12-14_13h41.53.845,REPSWITCH1_version1_list1,2022.2.4,143.98412725668175,
REPSWITCH1/PICTURE_646.png,tronco,speak,gold,filler,2,F,3,1,1,1,Extra4,0,None,54,53,54,0,53,53,53,,,,,,,,,,,,,,,,,,,,,,,277.63142930017784,278.77738740015775,278.77738740015775,278.77738740015775,278.77738740015775,278.77738740015775,278.77738740015775,278.77738740015775,278.77738740015775,None,0,,,C:\2023\REPSWITCH21092023\REPSWITCH_excgange\REPSWITCH_excgange\data/410101_REPSWITCH1_version1_list1_2023-12-14_13h41.53.845_micRespv1l1_recorded\recording_micRespv1l1_2023-12-14_13h46.28.537.wav,281.8056092001498,,None,281.8056092001498,281.8056092001498,281.8056092001498,281.8056092001498,281.8056092001498,281.8056092001498,,,,,,410101,001,2023-12-14_13h41.53.845,REPSWITCH1_version1_list1,2022.2.4,143.98412725668175,
REPSWITCH1/PICTURE_610.png,miel,speak,gold,nontarget,2,NT,3,1,1,1,Stim2_Set3,1,repeat,55,54,55,0,54,54,54,,,,,,,,,,,,,,,,,,,,,,,282.3057233002037,283.3405160000548,283.3405160000548,283.3405160000548,283.3405160000548,283.3405160000548,283.3405160000548,283.3405160000548,283.3405160000548,None,0,,,C:\2023\REPSWITCH21092023\REPSWITCH_excgange\REPSWITCH_excgange\data/410101_REPSWITCH1_version1_list1_2023-12-14_13h41.53.845_micRespv1l1_recorded\recording_micRespv1l1_2023-12-14_13h46.33.100.wav,286.36174570024014,286.86177999991924,None,286.36174570024014,286.36174570024014,286.36174570024014,286.36174570024014,286.36174570024014,286.36174570024014,,,,,,410101,001,2023-12-14_13h41.53.845,REPSWITCH1_version1_list1,2022.2.4,143.98412725668175,
REPSWITCH1/PICTURE_610.png,miel,type,darkblue,switch,1,T,3,1,1,1,Stim2_Set3,0,None,56,55,56,0,55,55,55,,,,,,,,,,,,,,,,,,,,,,,286.86177999991924,287.95916050020605,287.95916050020605,287.95916050020605,287.95916050020605,287.95916050020605,287.95916050020605,287.95916050020605,287.95916050020605,"['m', 'i', 'e', 'l']",0,"[0.7603274001739919, 0.8320725001394749, 0.9397792001254857, 1.0316591998562217]",miel,C:\2023\REPSWITCH21092023\REPSWITCH_excgange\REPSWITCH_excgange\data/410101_REPSWITCH1_version1_list1_2023-12-14_13h41.53.845_micRespv1l1_recorded\recording_micRespv1l1_2023-12-14_13h46.37.718.wav,290.98037749994546,291.48046790016815,None,290.98037749994546,290.98037749994546,290.98037749994546,290.98037749994546,290.98037749994546,290.98037749994546,,,,,,410101,001,2023-12-14_13h41.53.845,REPSWITCH1_version1_list1,2022.2.4,143.98412725668175,
REPSWITCH1/PICTURE_175.png,pintor,type,darkblue,filler,1,F,3,1,1,1,Stim1_Set2,1,repeat,57,56,57,0,56,56,56,,,,,,,,,,,,,,,,,,,,,,,291.48046790016815,292.53621749999,292.53621749999,292.53621749999,292.53621749999,292.53621749999,292.53621749999,292.53621749999,292.53621749999,"['p', 'i', 'i', 'n', 't', 'o', 'r']",0,"[0.8821531003341079, 1.4554016003385186, 1.5560685000382364, 1.5640342002734542, 1.714579500257969, 1.8354915999807417, 1.918211900163442]",piintor,C:\2023\REPSWITCH21092023\REPSWITCH_excgange\REPSWITCH_excgange\data/410101_REPSWITCH1_version1_list1_2023-12-14_13h41.53.845_micRespv1l1_recorded\recording_micRespv1l1_2023-12-14_13h46.42.296.wav,295.5573960002512,296.0575323002413,None,295.5573960002512,295.5573960002512,295.5573960002512,295.5573960002512,295.5573960002512,295.5573960002512,,,,,,410101,001,2023-12-14_13h41.53.845,REPSWITCH1_version1_list1,2022.2.4,143.98412725668175,
REPSWITCH1/PICTURE_242.png,cartero,type,darkblue,nontarget,1,NT,3,1,1,1,Stim3_Set3,1,repeat,58,57,58,0,57,57,57,,,,,,,,,,,,,,,,,,,,,,,296.0575323002413,297.1340812998824,297.1340812998824,297.1340812998824,297.1340812998824,297.1340812998824,297.1340812998824,297.1340812998824,297.1340812998824,"['c', 'a', 'r', 't', 'e', 'r', 'o']",0,"[1.3939589001238346, 1.5952743999660015, 1.7269009998999536, 1.8890275997109711, 1.9607898998074234, 2.136522399727255, 2.216332799755037]",cartero,C:\2023\REPSWITCH21092023\REPSWITCH_excgange\REPSWITCH_excgange\data/410101_REPSWITCH1_version1_list1_2023-12-14_13h41.53.845_micRespv1l1_recorded\recording_micRespv1l1_2023-12-14_13h46.46.894.wav,300.1621560002677,,None,300.1621560002677,300.1621560002677,300.1621560002677,300.1621560002677,300.1621560002677,300.1621560002677,,,,,,410101,001,2023-12-14_13h41.53.845,REPSWITCH1_version1_list1,2022.2.4,143.98412725668175,
REPSWITCH1/PICTURE_242.png,cartero,speak,gold,switch,2,T,3,1,1,1,Stim3_Set3,0,None,59,58,59,0,58,58,58,,,,,,,,,,,,,,,,,,,,,,,300.6622117999941,301.752689300105,301.752689300105,301.752689300105,301.752689300105,301.752689300105,301.752689300105,301.752689300105,301.752689300105,None,0,,,C:\2023\REPSWITCH21092023\REPSWITCH_excgange\REPSWITCH_excgange\data/410101_REPSWITCH1_version1_list1_2023-12-14_13h41.53.845_micRespv1l1_recorded\recording_micRespv1l1_2023-12-14_13h46.51.512.wav,304.77385669993237,305.2739180000499,None,304.77385669993237,304.77385669993237,304.77385669993237,304.77385669993237,304.77385669993237,304.77385669993237,,,,,,410101,001,2023-12-14_13h41.53.845,REPSWITCH1_version1_list1,2022.2.4,143.98412725668175,
REPSWITCH1/PICTURE_152.png,caracol,speak,gold,filler,2,F,3,1,1,1,Stim2_Set2,0,None,60,59,60,0,59,59,59,,,,,,,,,,,,,,,,,,,,,,,305.2739180000499,306.3644162998535,306.3644162998535,306.3644162998535,306.3644162998535,306.3644162998535,306.3644162998535,306.3644162998535,306.3644162998535,None,0,,,C:\2023\REPSWITCH21092023\REPSWITCH_excgange\REPSWITCH_excgange\data/410101_REPSWITCH1_version1_list1_2023-12-14_13h41.53.845_micRespv1l1_recorded\recording_micRespv1l1_2023-12-14_13h46.56.124.wav,309.392546699848,,None,309.392546699848,309.392546699848,309.392546699848,309.392546699848,309.392546699848,309.392546699848,,,,,,410101,001,2023-12-14_13h41.53.845,REPSWITCH1_version1_list1,2022.2.4,143.98412725668175,
REPSWITCH1/PICTURE_517.png,cuerda,type,darkblue,filler,1,F,3,1,1,1,Stim4_Set2,0,None,61,60,61,0,60,60,60,,,,,,,,,,,,,,,,,,,,,,,309.8925891001709,311.0107901999727,311.0107901999727,311.0107901999727,311.0107901999727,311.0107901999727,311.0107901999727,311.0107901999727,311.0107901999727,"['c', 'u', 'e', 'r', 'd', 'a']",0,"[0.7692291005514562, 0.9017907003872097, 0.9717086004093289, 0.9986124001443386, 1.1945573003031313, 1.254441600292921]",cuerda,C:\2023\REPSWITCH21092023\REPSWITCH_excgange\REPSWITCH_excgange\data/410101_REPSWITCH1_version1_list1_2023-12-14_13h41.53.845_micRespv1l1_recorded\recording_micRespv1l1_2023-12-14_13h47.00.770.wav,314.0320768998936,314.53217480005696,None,314.0320768998936,314.0320768998936,314.0320768998936,314.0320768998936,314.0320768998936,314.0320768998936,,,,,,410101,001,2023-12-14_13h41.53.845,REPSWITCH1_version1_list1,2022.2.4,143.98412725668175,
REPSWITCH1/PICTURE_235.png,aguja,speak,gold,nontarget,2,NT,3,1,1,1,Stim4_Set3,1,switch,62,61,62,0,61,61,61,,,,,,,,,,,,,,,,,,,,,,,314.53217480005696,315.6017034999095,315.6017034999095,315.6017034999095,315.6017034999095,315.6017034999095,315.6017034999095,315.6017034999095,315.6017034999095,None,0,,,C:\2023\REPSWITCH21092023\REPSWITCH_excgange\REPSWITCH_excgange\data/410101_REPSWITCH1_version1_list1_2023-12-14_13h41.53.845_micRespv1l1_recorded\recording_micRespv1l1_2023-12-14_13h47.05.362.wav,318.6229046001099,319.1229841001332,None,318.6229046001099,318.6229046001099,318.6229046001099,318.6229046001099,318.6229046001099,318.6229046001099,,,,,,410101,001,2023-12-14_13h41.53.845,REPSWITCH1_version1_list1,2022.2.4,143.98412725668175,
REPSWITCH1/PICTURE_235.png,aguja,speak,gold,repeat,2,T,3,1,1,1,Stim4_Set3,0,None,63,62,63,0,62,62,62,,,,,,,,,,,,,,,,,,,,,,,319.1229841001332,320.24812570028007,320.24812570028007,320.24812570028007,320.24812570028007,320.24812570028007,320.24812570028007,320.24812570028007,320.24812570028007,None,0,,,C:\2023\REPSWITCH21092023\REPSWITCH_excgange\REPSWITCH_excgange\data/410101_REPSWITCH1_version1_list1_2023-12-14_13h41.53.845_micRespv1l1_recorded\recording_micRespv1l1_2023-12-14_13h47.10.007.wav,323.269364700187,323.7694263001904,None,323.269364700187,323.269364700187,323.269364700187,323.269364700187,323.269364700187,323.269364700187,,,,,,410101,001,2023-12-14_13h41.53.845,REPSWITCH1_version1_list1,2022.2.4,143.98412725668175,
REPSWITCH1/PICTURE_30.png,granja,type,darkblue,filler,1,F,3,1,1,1,Stim5_Set2,0,None,64,63,64,0,63,63,63,,,,,,,,,,,,,,,,,,,,,,,323.7694263001904,324.9432068001479,324.9432068001479,324.9432068001479,324.9432068001479,324.9432068001479,324.9432068001479,324.9432068001479,324.9432068001479,"['g', 'r', 'a', 'n', 'j', 'a']",0,"[0.8566011004149914, 0.918340100441128, 1.4495696001686156, 1.6080616004765034, 1.7107085003517568, 1.808376300148666]",granja,C:\2023\REPSWITCH21092023\REPSWITCH_excgange\REPSWITCH_excgange\data/410101_REPSWITCH1_version1_list1_2023-12-14_13h41.53.845_micRespv1l1_recorded\recording_micRespv1l1_2023-12-14_13h47.14.703.wav,327.97136900015175,,None,327.97136900015175,327.97136900015175,327.97136900015175,327.97136900015175,327.97136900015175,327.97136900015175,,,,,,410101,001,2023-12-14_13h41.53.845,REPSWITCH1_version1_list1,2022.2.4,143.98412725668175,
REPSWITCH1/PICTURE_552.png,manzana,speak,gold,filler,2,F,3,1,1,1,Stim6_Set2,1,switch,65,64,65,0,64,64,64,,,,,,,,,,,,,,,,,,,,,,,328.47142670024186,329.65213230019435,329.65213230019435,329.65213230019435,329.65213230019435,329.65213230019435,329.65213230019435,329.65213230019435,329.65213230019435,None,0,,,C:\2023\REPSWITCH21092023\REPSWITCH_excgange\REPSWITCH_excgange\data/410101_REPSWITCH1_version1_list1_2023-12-14_13h41.53.845_micRespv1l1_recorded\recording_micRespv1l1_2023-12-14_13h47.19.411.wav,332.67343469988555,333.1734334002249,None,332.67343469988555,332.67343469988555,332.67343469988555,332.67343469988555,332.67343469988555,332.67343469988555,,,,,,410101,001,2023-12-14_13h41.53.845,REPSWITCH1_version1_list1,2022.2.4,143.98412725668175,
REPSWITCH1/PICTURE_35.png,oreja,speak,gold,nontarget,2,NT,3,1,1,1,Stim5_Set3,1,repeat,66,65,66,0,65,65,65,,,,,,,,,,,,,,,,,,,,,,,333.1734334002249,334.35413630027324,334.35413630027324,334.35413630027324,334.35413630027324,334.35413630027324,334.35413630027324,334.35413630027324,334.35413630027324,None,0,,,C:\2023\REPSWITCH21092023\REPSWITCH_excgange\REPSWITCH_excgange\data/410101_REPSWITCH1_version1_list1_2023-12-14_13h41.53.845_micRespv1l1_recorded\recording_micRespv1l1_2023-12-14_13h47.24.113.wav,337.3754301001318,337.8754278998822,None,337.3754301001318,337.3754301001318,337.3754301001318,337.3754301001318,337.3754301001318,337.3754301001318,,,,,,410101,001,2023-12-14_13h41.53.845,REPSWITCH1_version1_list1,2022.2.4,143.98412725668175,
REPSWITCH1/PICTURE_35.png,oreja,speak,gold,repeat,2,T,3,1,1,1,Stim5_Set3,0,None,67,66,67,0,66,66,66,,,,,,,,,,,,,,,,,,,,,,,337.8754278998822,339.09091060003266,339.09091060003266,339.09091060003266,339.09091060003266,339.09091060003266,339.09091060003266,339.09091060003266,339.09091060003266,None,0,,,C:\2023\REPSWITCH21092023\REPSWITCH_excgange\REPSWITCH_excgange\data/410101_REPSWITCH1_version1_list1_2023-12-14_13h41.53.845_micRespv1l1_recorded\recording_micRespv1l1_2023-12-14_13h47.28.849.wav,342.11211400013417,342.6121761999093,None,342.11211400013417,342.11211400013417,342.11211400013417,342.11211400013417,342.11211400013417,342.11211400013417,,,,,,410101,001,2023-12-14_13h41.53.845,REPSWITCH1_version1_list1,2022.2.4,143.98412725668175,
REPSWITCH1/PICTURE_673.png,tenedor,type,darkblue,filler,1,F,3,1,1,1,Extra5,0,None,68,67,68,0,67,67,67,,,,,,,,,,,,,,,,,,,,,,,342.6121761999093,343.67486680019647,343.67486680019647,343.67486680019647,343.67486680019647,343.67486680019647,343.67486680019647,343.67486680019647,343.67486680019647,"['t', 'e', 'n', 'e', 'd', 'o', 'r']",0,"[0.9006382999941707, 0.965451099909842, 1.0481243999674916, 1.145443200133741, 1.27754499996081, 1.3862238000147045, 1.4460330000147223]",tenedor,C:\2023\REPSWITCH21092023\REPSWITCH_excgange\REPSWITCH_excgange\data/410101_REPSWITCH1_version1_list1_2023-12-14_13h41.53.845_micRespv1l1_recorded\recording_micRespv1l1_2023-12-14_13h47.33.433.wav,346.6961131002754,347.19611279992387,None,346.6961131002754,346.6961131002754,346.6961131002754,346.6961131002754,346.6961131002754,346.6961131002754,,,,,,410101,001,2023-12-14_13h41.53.845,REPSWITCH1_version1_list1,2022.2.4,143.98412725668175,
REPSWITCH1/PICTURE_464.png,goma,speak,gold,nontarget,2,NT,3,1,1,1,Stim6_Set3,0,None,69,68,69,0,68,68,68,,,,,,,,,,,,,,,,,,,,,,,347.19611279992387,348.3699012999423,348.3699012999423,348.3699012999423,348.3699012999423,348.3699012999423,348.3699012999423,348.3699012999423,348.3699012999423,None,0,,,C:\2023\REPSWITCH21092023\REPSWITCH_excgange\REPSWITCH_excgange\data/410101_REPSWITCH1_version1_list1_2023-12-14_13h41.53.845_micRespv1l1_recorded\recording_micRespv1l1_2023-12-14_13h47.38.128.wav,351.3911061002873,351.89116619993,None,351.3911061002873,351.3911061002873,351.3911061002873,351.3911061002873,351.3911061002873,351.3911061002873,,,,,,410101,001,2023-12-14_13h41.53.845,REPSWITCH1_version1_list1,2022.2.4,143.98412725668175,
REPSWITCH1/PICTURE_464.png,goma,type,darkblue,switch,1,T,3,1,1,1,Stim6_Set3,0,None,70,69,70,0,69,69,69,,,,,,,,,,,,,,,,,,,,,,,351.89116619993,353.0649184002541,353.0649184002541,353.0649184002541,353.0649184002541,353.0649184002541,353.0649184002541,353.0649184002541,353.0649184002541,"['g', 'o', 'm', 'a']",0,"[0.7811863999813795, 0.8300212998874485, 0.9210079000331461, 0.9913571001961827]",goma,C:\2023\REPSWITCH21092023\REPSWITCH_excgange\REPSWITCH_excgange\data/410101_REPSWITCH1_version1_list1_2023-12-14_13h41.53.845_micRespv1l1_recorded\recording_micRespv1l1_2023-12-14_13h47.42.824.wav,356.08625050028786,356.5863037998788,None,356.08625050028786,356.08625050028786,356.08625050028786,356.08625050028786,356.08625050028786,356.08625050028786,,,,,,410101,001,2023-12-14_13h41.53.845,REPSWITCH1_version1_list1,2022.2.4,143.98412725668175,
REPSWITCH1/PICTURE_264.png,mano,speak,gold,filler,2,F,3,1,1,1,Stim3_Set2,0,None,71,70,71,0,70,70,70,,,,,,,,,,,,,,,,,,,,,,,356.5863037998788,357.6489002001472,357.6489002001472,357.6489002001472,357.6489002001472,357.6489002001472,357.6489002001472,357.6489002001472,357.6489002001472,None,0,,,C:\2023\REPSWITCH21092023\REPSWITCH_excgange\REPSWITCH_excgange\data/410101_REPSWITCH1_version1_list1_2023-12-14_13h41.53.845_micRespv1l1_recorded\recording_micRespv1l1_2023-12-14_13h47.47.409.wav,360.677051700186,,None,360.677051700186,360.677051700186,360.677051700186,360.677051700186,360.677051700186,360.677051700186,,,,,,410101,001,2023-12-14_13h41.53.845,REPSWITCH1_version1_list1,2022.2.4,143.98412725668175,
REPSWITCH1/PICTURE_271.png,conejo,type,darkblue,nontarget,1,NT,3,1,1,1,Stim7_Set3,1,switch,72,71,72,0,71,71,71,,,,,,,,,,,,,,,,,,,,,,,361.1771153002046,362.20504860021174,362.20504860021174,362.20504860021174,362.20504860021174,362.20504860021174,362.20504860021174,362.20504860021174,362.20504860021174,"['c', 'o', 'n', 'e', 'j', 'o']",0,"[0.9025833001360297, 0.9593560001812875, 1.0321505004540086, 1.1497475001960993, 1.2683029002510011, 1.2952015004120767]",conejo,C:\2023\REPSWITCH21092023\REPSWITCH_excgange\REPSWITCH_excgange\data/410101_REPSWITCH1_version1_list1_2023-12-14_13h41.53.845_micRespv1l1_recorded\recording_micRespv1l1_2023-12-14_13h47.51.965.wav,365.2331989002414,,None,365.2331989002414,365.2331989002414,365.2331989002414,365.2331989002414,365.2331989002414,365.2331989002414,,,,,,410101,001,2023-12-14_13h41.53.845,REPSWITCH1_version1_list1,2022.2.4,143.98412725668175,
REPSWITCH1/PICTURE_271.png,conejo,type,darkblue,repeat,1,T,3,1,1,1,Stim7_Set3,0,None,73,72,73,0,72,72,72,,,,,,,,,,,,,,,,,,,,,,,365.7332501001656,366.9347840999253,366.9347840999253,366.9347840999253,366.9347840999253,366.9347840999253,366.9347840999253,366.9347840999253,366.9347840999253,"['c', 'o', 'n', 'e', 'j', 'o']",0,"[0.7487734998576343, 0.8494178997352719, 0.9233393999747932, 1.0503354999236763, 1.1622715000994503, 1.1991471997462213]",conejo,C:\2023\REPSWITCH21092023\REPSWITCH_excgange\REPSWITCH_excgange\data/410101_REPSWITCH1_version1_list1_2023-12-14_13h41.53.845_micRespv1l1_recorded\recording_micRespv1l1_2023-12-14_13h47.56.694.wav,369.9560040002689,370.45610309997573,None,369.9560040002689,369.9560040002689,369.9560040002689,369.9560040002689,369.9560040002689,369.9560040002689,,,,,,410101,001,2023-12-14_13h41.53.845,REPSWITCH1_version1_list1,2022.2.4,143.98412725668175,
REPSWITCH1/PICTURE_446.png,cerdo,speak,gold,filler,2,F,3,1,1,1,Stim7_Set2,0,None,74,73,74,0,73,73,73,,,,,,,,,,,,,,,,,,,,,,,370.45610309997573,371.6229826998897,371.6229826998897,371.6229826998897,371.6229826998897,371.6229826998897,371.6229826998897,371.6229826998897,371.6229826998897,None,0,,,C:\2023\REPSWITCH21092023\REPSWITCH_excgange\REPSWITCH_excgange\data/410101_REPSWITCH1_version1_list1_2023-12-14_13h41.53.845_micRespv1l1_recorded\recording_micRespv1l1_2023-12-14_13h48.01.382.wav,374.6441199001856,375.1442217999138,None,374.6441199001856,374.6441199001856,374.6441199001856,374.6441199001856,374.6441199001856,374.6441199001856,,,,,,410101,001,2023-12-14_13h41.53.845,REPSWITCH1_version1_list1,2022.2.4,143.98412725668175,
REPSWITCH1/PICTURE_199.png,falda,type,darkblue,filler,1,F,3,1,1,1,Stim8_Set2,1,switch,75,74,75,0,74,74,74,,,,,,,,,,,,,,,,,,,,,,,375.1442217999138,376.29713620012626,376.29713620012626,376.29713620012626,376.29713620012626,376.29713620012626,376.29713620012626,376.29713620012626,376.29713620012626,"['f', 'a', 'l', 'd', 'a']",0,"[0.9123196001164615, 1.0106570003554225, 1.0754015003331006, 1.2240147003903985, 1.3426246005110443]",falda,C:\2023\REPSWITCH21092023\REPSWITCH_excgange\REPSWITCH_excgange\data/410101_REPSWITCH1_version1_list1_2023-12-14_13h41.53.845_micRespv1l1_recorded\recording_micRespv1l1_2023-12-14_13h48.06.056.wav,379.31840430013835,379.81851729983464,None,379.31840430013835,379.31840430013835,379.31840430013835,379.31840430013835,379.31840430013835,379.31840430013835,,,,,,410101,001,2023-12-14_13h41.53.845,REPSWITCH1_version1_list1,2022.2.4,143.98412725668175,
REPSWITCH1/PICTURE_320.png,iglesia,type,darkblue,nontarget,1,NT,3,1,1,1,Stim8_Set3,1,repeat,76,75,76,0,75,75,75,,,,,,,,,,,,,,,,,,,,,,,379.81851729983464,380.87414269987494,380.87414269987494,380.87414269987494,380.87414269987494,380.87414269987494,380.87414269987494,380.87414269987494,380.87414269987494,"['i', 'g', 'l', 'e', 's', 'i', 'a']",0,"[1.26919490005821, 1.3499050000682473, 1.486474100034684, 1.5472454000264406, 1.7166943000629544, 1.8073459998704493, 1.9052464002743363]",iglesia,C:\2023\REPSWITCH21092023\REPSWITCH_excgange\REPSWITCH_excgange\data/410101_REPSWITCH1_version1_list1_2023-12-14_13h41.53.845_micRespv1l1_recorded\recording_micRespv1l1_2023-12-14_13h48.10.633.wav,383.8953340998851,384.39543000003323,None,383.8953340998851,383.8953340998851,383.8953340998851,383.8953340998851,383.8953340998851,383.8953340998851,,,,,,410101,001,2023-12-14_13h41.53.845,REPSWITCH1_version1_list1,2022.2.4,143.98412725668175,
REPSWITCH1/PICTURE_320.png,iglesia,type,darkblue,repeat,1,T,3,1,1,1,Stim8_Set3,0,None,77,76,77,0,76,76,76,,,,,,,,,,,,,,,,,,,,,,,384.39543000003323,385.47198070026934,385.47198070026934,385.47198070026934,385.47198070026934,385.47198070026934,385.47198070026934,385.47198070026934,385.47198070026934,"['i', 'g', 'l', 'e', 's', 'i', 'a']",0,"[0.6458024000748992, 0.7477285000495613, 0.8816308001987636, 0.9832230000756681, 1.0988432001322508, 1.2951906002126634, 1.3559897001832724]",iglesia,C:\2023\REPSWITCH21092023\REPSWITCH_excgange\REPSWITCH_excgange\data/410101_REPSWITCH1_version1_list1_2023-12-14_13h41.53.845_micRespv1l1_recorded\recording_micRespv1l1_2023-12-14_13h48.15.232.wav,388.50011079991236,,None,388.50011079991236,388.50011079991236,388.50011079991236,388.50011079991236,388.50011079991236,388.50011079991236,,,,,,410101,001,2023-12-14_13h41.53.845,REPSWITCH1_version1_list1,2022.2.4,143.98412725668175,
REPSWITCH1/PICTURE_576.png,guante,speak,gold,filler,2,F,4,1,1,1,Stim1_Set3,0,None,78,77,78,0,77,77,77,,,,,,,,,,,,,,,,,,,,,,,389.00018869992346,390.0420400998555,390.0420400998555,390.0420400998555,390.0420400998555,390.0420400998555,390.0420400998555,390.0420400998555,390.0420400998555,None,0,,,C:\2023\REPSWITCH21092023\REPSWITCH_excgange\REPSWITCH_excgange\data/410101_REPSWITCH1_version1_list1_2023-12-14_13h41.53.845_micRespv1l1_recorded\recording_micRespv1l1_2023-12-14_13h48.19.802.wav,393.0632060999051,393.5633060000837,None,393.0632060999051,393.0632060999051,393.0632060999051,393.0632060999051,393.0632060999051,393.0632060999051,,,,,,410101,001,2023-12-14_13h41.53.845,REPSWITCH1_version1_list1,2022.2.4,143.98412725668175,
REPSWITCH1/PICTURE_319.png,vaca,type,darkblue,nontarget,1,NT,4,1,1,1,Stim1_Set4,1,switch,79,78,79,0,78,78,78,,,,,,,,,,,,,,,,,,,,,,,393.5633060000837,394.60511810006574,394.60511810006574,394.60511810006574,394.60511810006574,394.60511810006574,394.60511810006574,394.60511810006574,394.60511810006574,"['v', 'a', 'c', 'a']",0,"[0.8142417003400624, 0.894683700054884, 1.0571878999471664, 1.116979300044477]",vaca,C:\2023\REPSWITCH21092023\REPSWITCH_excgange\REPSWITCH_excgange\data/410101_REPSWITCH1_version1_list1_2023-12-14_13h41.53.845_micRespv1l1_recorded\recording_micRespv1l1_2023-12-14_13h48.24.365.wav,397.633253400214,,None,397.633253400214,397.633253400214,397.633253400214,397.633253400214,397.633253400214,397.633253400214,,,,,,410101,001,2023-12-14_13h41.53.845,REPSWITCH1_version1_list1,2022.2.4,143.98412725668175,
REPSWITCH1/PICTURE_319.png,vaca,type,darkblue,repeat,1,T,4,1,1,1,Stim1_Set4,0,None,80,79,80,0,79,79,79,,,,,,,,,,,,,,,,,,,,,,,398.1333453999832,399.1891030999832,399.1891030999832,399.1891030999832,399.1891030999832,399.1891030999832,399.1891030999832,399.1891030999832,399.1891030999832,"['v', 'a', 'c', 'a']",0,"[0.8208840005099773, 0.8913531000725925, 1.0477678002789617, 1.0975725003518164]",vaca,C:\2023\REPSWITCH21092023\REPSWITCH_excgange\REPSWITCH_excgange\data/410101_REPSWITCH1_version1_list1_2023-12-14_13h41.53.845_micRespv1l1_recorded\recording_micRespv1l1_2023-12-14_13h48.28.948.wav,402.217213800177,,None,402.217213800177,402.217213800177,402.217213800177,402.217213800177,402.217213800177,402.217213800177,,,,,,410101,001,2023-12-14_13h41.53.845,REPSWITCH1_version1_list1,2022.2.4,143.98412725668175,
REPSWITCH1/PICTURE_719.png,baño,type,darkblue,nontarget,1,NT,4,1,1,1,Stim2_Set4,0,None,81,80,81,0,80,80,80,,,,,,,,,,,,,,,,,,,,,,,402.7172846002504,403.7522109001875,403.7522109001875,403.7522109001875,403.7522109001875,403.7522109001875,403.7522109001875,403.7522109001875,403.7522109001875,"['b', 'a', 'ñ', 'o']",0,"[0.8615544000640512, 0.9263565000146627, 1.080848400015384, 1.162541199941188]",baño,C:\2023\REPSWITCH21092023\REPSWITCH_excgange\REPSWITCH_excgange\data/410101_REPSWITCH1_version1_list1_2023-12-14_13h41.53.845_micRespv1l1_recorded\recording_micRespv1l1_2023-12-14_13h48.33.512.wav,406.7803098000586,,None,406.7803098000586,406.7803098000586,406.7803098000586,406.7803098000586,406.7803098000586,406.7803098000586,,,,,,410101,001,2023-12-14_13h41.53.845,REPSWITCH1_version1_list1,2022.2.4,143.98412725668175,
REPSWITCH1/PICTURE_719.png,baño,speak,gold,switch,2,T,4,1,1,1,Stim2_Set4,0,None,82,81,82,0,81,81,81,,,,,,,,,,,,,,,,,,,,,,,407.2803655001335,408.38471319992095,408.38471319992095,408.38471319992095,408.38471319992095,408.38471319992095,408.38471319992095,408.38471319992095,408.38471319992095,None,0,,,C:\2023\REPSWITCH21092023\REPSWITCH_excgange\REPSWITCH_excgange\data/410101_REPSWITCH1_version1_list1_2023-12-14_13h41.53.845_micRespv1l1_recorded\recording_micRespv1l1_2023-12-14_13h48.38.144.wav,411.40592329995707,411.9059880999848,None,411.40592329995707,411.40592329995707,411.40592329995707,411.40592329995707,411.40592329995707,411.40592329995707,,,,,,410101,001,2023-12-14_13h41.53.845,REPSWITCH1_version1_list1,2022.2.4,143.98412725668175,
REPSWITCH1/PICTURE_242.png,cartero,speak,gold,filler,2,F,4,1,1,1,Stim3_Set3,1,repeat,83,82,83,0,82,82,82,,,,,,,,,,,,,,,,,,,,,,,411.9059880999848,413.01725410018116,413.01725410018116,413.01725410018116,413.01725410018116,413.01725410018116,413.01725410018116,413.01725410018116,413.01725410018116,None,0,,,C:\2023\REPSWITCH21092023\REPSWITCH_excgange\REPSWITCH_excgange\data/410101_REPSWITCH1_version1_list1_2023-12-14_13h41.53.845_micRespv1l1_recorded\recording_micRespv1l1_2023-12-14_13h48.42.776.wav,416.0385469002649,416.5385258998722,None,416.0385469002649,416.0385469002649,416.0385469002649,416.0385469002649,416.0385469002649,416.0385469002649,,,,,,410101,001,2023-12-14_13h41.53.845,REPSWITCH1_version1_list1,2022.2.4,143.98412725668175,
REPSWITCH1/PICTURE_610.png,miel,type,darkblue,filler,1,F,4,1,1,1,Stim2_Set3,0,None,84,83,84,0,83,83,83,,,,,,,,,,,,,,,,,,,,,,,416.5385258998722,417.61507639987394,417.61507639987394,417.61507639987394,417.61507639987394,417.61507639987394,417.61507639987394,417.61507639987394,417.61507639987394,"['m', 'i', 'e', 'l']",0,"[0.6532668001018465, 0.7330257999710739, 0.8426315002143383, 1.345204799901694]",miel,C:\2023\REPSWITCH21092023\REPSWITCH_excgange\REPSWITCH_excgange\data/410101_REPSWITCH1_version1_list1_2023-12-14_13h41.53.845_micRespv1l1_recorded\recording_micRespv1l1_2023-12-14_13h48.47.374.wav,420.63628870015964,421.13636279990897,None,420.63628870015964,420.63628870015964,420.63628870015964,420.63628870015964,420.63628870015964,420.63628870015964,,,,,,410101,001,2023-12-14_13h41.53.845,REPSWITCH1_version1_list1,2022.2.4,143.98412725668175,
REPSWITCH1/PICTURE_8.png,pierna,speak,gold,nontarget,2,NT,4,1,1,1,Stim3_Set4,1,switch,85,84,85,0,84,84,84,,,,,,,,,,,,,,,,,,,,,,,421.13636279990897,422.24760199990124,422.24760199990124,422.24760199990124,422.24760199990124,422.24760199990124,422.24760199990124,422.24760199990124,422.24760199990124,None,0,,,C:\2023\REPSWITCH21092023\REPSWITCH_excgange\REPSWITCH_excgange\data/410101_REPSWITCH1_version1_list1_2023-12-14_13h41.53.845_micRespv1l1_recorded\recording_micRespv1l1_2023-12-14_13h48.52.007.wav,425.2757752002217,,None,425.2757752002217,425.2757752002217,425.2757752002217,425.2757752002217,425.2757752002217,425.2757752002217,,,,,,410101,001,2023-12-14_13h41.53.845,REPSWITCH1_version1_list1,2022.2.4,143.98412725668175,
REPSWITCH1/PICTURE_8.png,pierna,speak,gold,repeat,2,T,4,1,1,1,Stim3_Set4,0,None,86,85,86,0,85,85,85,,,,,,,,,,,,,,,,,,,,,,,425.7758352998644,426.9912894000299,426.9912894000299,426.9912894000299,426.9912894000299,426.9912894000299,426.9912894000299,426.9912894000299,426.9912894000299,None,0,,,C:\2023\REPSWITCH21092023\REPSWITCH_excgange\REPSWITCH_excgange\data/410101_REPSWITCH1_version1_list1_2023-12-14_13h41.53.845_micRespv1l1_recorded\recording_micRespv1l1_2023-12-14_13h48.56.750.wav,430.01253229985014,430.5125822001137,None,430.01253229985014,430.01253229985014,430.01253229985014,430.01253229985014,430.01253229985014,430.01253229985014,,,,,,410101,001,2023-12-14_13h41.53.845,REPSWITCH1_version1_list1,2022.2.4,143.98412725668175,
REPSWITCH1/PICTURE_498.png,taza,speak,gold,nontarget,2,NT,4,1,1,1,Stim4_Set4,1,repeat,87,86,87,0,86,86,86,,,,,,,,,,,,,,,,,,,,,,,430.5125822001137,431.5474435002543,431.5474435002543,431.5474435002543,431.5474435002543,431.5474435002543,431.5474435002543,431.5474435002543,431.5474435002543,None,0,,,C:\2023\REPSWITCH21092023\REPSWITCH_excgange\REPSWITCH_excgange\data/410101_REPSWITCH1_version1_list1_2023-12-14_13h41.53.845_micRespv1l1_recorded\recording_micRespv1l1_2023-12-14_13h49.01.306.wav,434.56866770004854,435.0687229000032,None,434.56866770004854,434.56866770004854,434.56866770004854,434.56866770004854,434.56866770004854,434.56866770004854,,,,,,410101,001,2023-12-14_13h41.53.845,REPSWITCH1_version1_list1,2022.2.4,143.98412725668175,
REPSWITCH1/PICTURE_498.png,taza,type,darkblue,switch,1,T,4,1,1,1,Stim4_Set4,0,None,88,87,88,0,87,87,87,,,,,,,,,,,,,,,,,,,,,,,435.0687229000032,436.13835299992934,436.13835299992934,436.13835299992934,436.13835299992934,436.13835299992934,436.13835299992934,436.13835299992934,436.13835299992934,"['t', 'a', 'z', 'a']",0,"[0.8150869999080896, 0.869902899954468, 1.0912346001714468, 1.247651600278914]",taza,C:\2023\REPSWITCH21092023\REPSWITCH_excgange\REPSWITCH_excgange\data/410101_REPSWITCH1_version1_list1_2023-12-14_13h41.53.845_micRespv1l1_recorded\recording_micRespv1l1_2023-12-14_13h49.05.897.wav,439.15955589991063,439.65961869992316,None,439.15955589991063,439.15955589991063,439.15955589991063,439.15955589991063,439.15955589991063,439.15955589991063,,,,,,410101,001,2023-12-14_13h41.53.845,REPSWITCH1_version1_list1,2022.2.4,143.98412725668175,
REPSWITCH1/PICTURE_235.png,aguja,speak,gold,filler,2,F,4,1,1,1,Stim4_Set3,0,None,89,88,89,0,88,88,88,,,,,,,,,,,,,,,,,,,,,,,439.65961869992316,440.85421739984304,440.85421739984304,440.85421739984304,440.85421739984304,440.85421739984304,440.85421739984304,440.85421739984304,440.85421739984304,None,0,,,C:\2023\REPSWITCH21092023\REPSWITCH_excgange\REPSWITCH_excgange\data/410101_REPSWITCH1_version1_list1_2023-12-14_13h41.53.845_micRespv1l1_recorded\recording_micRespv1l1_2023-12-14_13h49.10.614.wav,443.8754627001472,444.3755226000212,None,443.8754627001472,443.8754627001472,443.8754627001472,443.8754627001472,443.8754627001472,443.8754627001472,,,,,,410101,001,2023-12-14_13h41.53.845,REPSWITCH1_version1_list1,2022.2.4,143.98412725668175,
REPSWITCH1/PICTURE_35.png,oreja,type,darkblue,filler,1,F,4,1,1,1,Stim5_Set3,0,None,90,89,90,0,89,89,89,,,,,,,,,,,,,,,,,,,,,,,444.3755226000212,445.5631782999262,445.5631782999262,445.5631782999262,445.5631782999262,445.5631782999262,445.5631782999262,445.5631782999262,445.5631782999262,"['o', 'r', 'e', 'j', 'a']",0,"[0.7421747003681958, 0.7890042001381516, 0.9125544000416994, 0.9983056001365185, 1.1378387003205717]",oreja,C:\2023\REPSWITCH21092023\REPSWITCH_excgange\REPSWITCH_excgange\data/410101_REPSWITCH1_version1_list1_2023-12-14_13h41.53.845_micRespv1l1_recorded\recording_micRespv1l1_2023-12-14_13h49.15.323.wav,448.5844232002273,449.0844820998609,None,448.5844232002273,448.5844232002273,448.5844232002273,448.5844232002273,448.5844232002273,448.5844232002273,,,,,,410101,001,2023-12-14_13h41.53.845,REPSWITCH1_version1_list1,2022.2.4,143.98412725668175,
REPSWITCH1/PICTURE_687.png,camisa,type,darkblue,nontarget,1,NT,4,1,1,1,Stim5_Set4,1,repeat,91,90,91,0,90,90,90,,,,,,,,,,,,,,,,,,,,,,,449.0844820998609,450.18884840002283,450.18884840002283,450.18884840002283,450.18884840002283,450.18884840002283,450.18884840002283,450.18884840002283,450.18884840002283,"['c', 'a', 'm', 'i', 's', 'a']",0,"[0.7588947000913322, 0.8230487001128495, 0.9649201999418437, 1.052083000075072, 1.128789700102061, 1.5424993000924587]",camisa,C:\2023\REPSWITCH21092023\REPSWITCH_excgange\REPSWITCH_excgange\data/410101_REPSWITCH1_version1_list1_2023-12-14_13h41.53.845_micRespv1l1_recorded\recording_micRespv1l1_2023-12-14_13h49.19.948.wav,453.21001240005717,453.7101540998556,None,453.21001240005717,453.21001240005717,453.21001240005717,453.21001240005717,453.21001240005717,453.21001240005717,,,,,,410101,001,2023-12-14_13h41.53.845,REPSWITCH1_version1_list1,2022.2.4,143.98412725668175,
REPSWITCH1/PICTURE_687.png,camisa,speak,gold,switch,2,T,4,1,1,1,Stim5_Set4,0,None,92,91,92,0,91,91,91,,,,,,,,,,,,,,,,,,,,,,,453.7101540998556,454.86299289995804,454.86299289995804,454.86299289995804,454.86299289995804,454.86299289995804,454.86299289995804,454.86299289995804,454.86299289995804,None,0,,,C:\2023\REPSWITCH21092023\REPSWITCH_excgange\REPSWITCH_excgange\data/410101_REPSWITCH1_version1_list1_2023-12-14_13h41.53.845_micRespv1l1_recorded\recording_micRespv1l1_2023-12-14_13h49.24.622.wav,457.88424309995025,458.3842974998988,None,457.88424309995025,457.88424309995025,457.88424309995025,457.88424309995025,457.88424309995025,457.88424309995025,,,,,,410101,001,2023-12-14_13h41.53.845,REPSWITCH1_version1_list1,2022.2.4,143.98412725668175,
REPSWITCH1/PICTURE_338.png,regalo,speak,gold,nontarget,2,NT,4,1,1,1,Stim6_Set4,0,None,93,92,93,0,92,92,92,,,,,,,,,,,,,,,,,,,,,,,458.3842974998988,459.52341279992834,459.52341279992834,459.52341279992834,459.52341279992834,459.52341279992834,459.52341279992834,459.52341279992834,459.52341279992834,None,0,,,C:\2023\REPSWITCH21092023\REPSWITCH_excgange\REPSWITCH_excgange\data/410101_REPSWITCH1_version1_list1_2023-12-14_13h41.53.845_micRespv1l1_recorded\recording_micRespv1l1_2023-12-14_13h49.29.283.wav,462.55158569989726,,None,462.55158569989726,462.55158569989726,462.55158569989726,462.55158569989726,462.55158569989726,462.55158569989726,,,,,,410101,001,2023-12-14_13h41.53.845,REPSWITCH1_version1_list1,2022.2.4,143.98412725668175,
REPSWITCH1/PICTURE_338.png,regalo,speak,gold,repeat,2,T,4,1,1,1,Stim6_Set4,0,None,94,93,94,0,93,93,93,,,,,,,,,,,,,,,,,,,,,,,463.0515914000571,464.2392453001812,464.2392453001812,464.2392453001812,464.2392453001812,464.2392453001812,464.2392453001812,464.2392453001812,464.2392453001812,None,0,,,C:\2023\REPSWITCH21092023\REPSWITCH_excgange\REPSWITCH_excgange\data/410101_REPSWITCH1_version1_list1_2023-12-14_13h41.53.845_micRespv1l1_recorded\recording_micRespv1l1_2023-12-14_13h49.33.998.wav,467.2605229001492,467.76053990004584,None,467.2605229001492,467.2605229001492,467.2605229001492,467.2605229001492,467.2605229001492,467.2605229001492,,,,,,410101,001,2023-12-14_13h41.53.845,REPSWITCH1_version1_list1,2022.2.4,143.98412725668175,
REPSWITCH1/PICTURE_663.png,columna,type,darkblue,filler,1,F,4,1,1,1,Extra6,0,None,95,94,95,0,94,94,94,,,,,,,,,,,,,,,,,,,,,,,467.76053990004584,468.8856744002551,468.8856744002551,468.8856744002551,468.8856744002551,468.8856744002551,468.8856744002551,468.8856744002551,468.8856744002551,"['c', 'o', 'l', 'm', 'backspace', 'u', 'm', 'n', 'a']",0,"[1.0871072001755238, 1.1588377002626657, 1.3352163000963628, 1.549576099961996, 2.1638332000002265, 2.450300599914044, 2.602072600275278, 2.7334747998975217, 2.8171918001025915]",columna,C:\2023\REPSWITCH21092023\REPSWITCH_excgange\REPSWITCH_excgange\data/410101_REPSWITCH1_version1_list1_2023-12-14_13h41.53.845_micRespv1l1_recorded\recording_micRespv1l1_2023-12-14_13h49.38.645.wav,471.9138341001235,,None,471.9138341001235,471.9138341001235,471.9138341001235,471.9138341001235,471.9138341001235,471.9138341001235,,,,,,410101,001,2023-12-14_13h41.53.845,REPSWITCH1_version1_list1,2022.2.4,143.98412725668175,
REPSWITCH1/PICTURE_271.png,conejo,speak,gold,filler,2,F,4,1,1,1,Stim7_Set3,0,None,96,95,96,0,95,95,95,,,,,,,,,,,,,,,,,,,,,,,472.41393689997494,473.5668640001677,473.5668640001677,473.5668640001677,473.5668640001677,473.5668640001677,473.5668640001677,473.5668640001677,473.5668640001677,None,0,,,C:\2023\REPSWITCH21092023\REPSWITCH_excgange\REPSWITCH_excgange\data/410101_REPSWITCH1_version1_list1_2023-12-14_13h41.53.845_micRespv1l1_recorded\recording_micRespv1l1_2023-12-14_13h49.43.327.wav,476.5950253000483,,None,476.5950253000483,476.5950253000483,476.5950253000483,476.5950253000483,476.5950253000483,476.5950253000483,,,,,,410101,001,2023-12-14_13h41.53.845,REPSWITCH1_version1_list1,2022.2.4,143.98412725668175,
REPSWITCH1/PICTURE_48.png,bombero,speak,gold,nontarget,2,NT,4,1,1,1,Stim7_Set4,0,None,97,96,97,0,96,96,96,,,,,,,,,,,,,,,,,,,,,,,477.0951735000126,478.2688464000821,478.2688464000821,478.2688464000821,478.2688464000821,478.2688464000821,478.2688464000821,478.2688464000821,478.2688464000821,None,0,,,C:\2023\REPSWITCH21092023\REPSWITCH_excgange\REPSWITCH_excgange\data/410101_REPSWITCH1_version1_list1_2023-12-14_13h41.53.845_micRespv1l1_recorded\recording_micRespv1l1_2023-12-14_13h49.48.028.wav,481.29009350016713,481.79022919991985,None,481.29009350016713,481.29009350016713,481.29009350016713,481.29009350016713,481.29009350016713,481.29009350016713,,,,,,410101,001,2023-12-14_13h41.53.845,REPSWITCH1_version1_list1,2022.2.4,143.98412725668175,
REPSWITCH1/PICTURE_48.png,bombero,type,darkblue,switch,1,T,4,1,1,1,Stim7_Set4,0,None,98,97,98,0,97,97,97,,,,,,,,,,,,,,,,,,,,,,,481.79022919991985,482.87370159989223,482.87370159989223,482.87370159989223,482.87370159989223,482.87370159989223,482.87370159989223,482.87370159989223,482.87370159989223,"['c', 'backspace', 'b', 'o', 'm', 'b', 'e', 'r', 'o']",0,"[0.8846819000318646, 1.2557235001586378, 1.4112732000648975, 1.5028973002918065, 1.5716623002663255, 1.668347300030291, 1.7420864002779126, 1.8580094003118575, 1.9548570001497865]",bombero,C:\2023\REPSWITCH21092023\REPSWITCH_excgange\REPSWITCH_excgange\data/410101_REPSWITCH1_version1_list1_2023-12-14_13h41.53.845_micRespv1l1_recorded\recording_micRespv1l1_2023-12-14_13h49.52.632.wav,485.8948385999538,486.3949222001247,None,485.8948385999538,485.8948385999538,485.8948385999538,485.8948385999538,485.8948385999538,485.8948385999538,,,,,,410101,001,2023-12-14_13h41.53.845,REPSWITCH1_version1_list1,2022.2.4,143.98412725668175,
REPSWITCH1/PICTURE_728.png,pulpo,type,darkblue,nontarget,1,NT,4,1,1,1,Stim8_Set4,0,None,99,98,99,0,98,98,98,,,,,,,,,,,,,,,,,,,,,,,486.3949222001247,487.4714724002406,487.4714724002406,487.4714724002406,487.4714724002406,487.4714724002406,487.4714724002406,487.4714724002406,487.4714724002406,"['p', 'u', 'l', 'p', 'o']",0,"[0.7459719004109502, 0.9204011000692844, 1.0898071001283824, 1.3431966002099216, 1.4492438002489507]",pulpo,C:\2023\REPSWITCH21092023\REPSWITCH_excgange\REPSWITCH_excgange\data/410101_REPSWITCH1_version1_list1_2023-12-14_13h41.53.845_micRespv1l1_recorded\recording_micRespv1l1_2023-12-14_13h49.57.231.wav,490.4926670002751,490.99272709991783,None,490.4926670002751,490.4926670002751,490.4926670002751,490.4926670002751,490.4926670002751,490.4926670002751,,,,,,410101,001,2023-12-14_13h41.53.845,REPSWITCH1_version1_list1,2022.2.4,143.98412725668175,
REPSWITCH1/PICTURE_728.png,pulpo,type,darkblue,repeat,1,T,4,1,1,1,Stim8_Set4,0,None,100,99,100,0,99,99,99,,,,,,,,,,,,,,,,,,,,,,,490.99272709991783,492.1665067002177,492.1665067002177,492.1665067002177,492.1665067002177,492.1665067002177,492.1665067002177,492.1665067002177,492.1665067002177,"['p', 'u', 'l', 'p', 'o']",0,"[0.7192417001351714, 0.9125918000936508, 1.1636875001713634, 1.3655361998826265, 1.4303128002211452]",pulpo,C:\2023\REPSWITCH21092023\REPSWITCH_excgange\REPSWITCH_excgange\data/410101_REPSWITCH1_version1_list1_2023-12-14_13h41.53.845_micRespv1l1_recorded\recording_micRespv1l1_2023-12-14_13h50.01.926.wav,495.18776720017195,495.6877899002284,None,495.18776720017195,495.18776720017195,495.18776720017195,495.18776720017195,495.18776720017195,495.18776720017195,,,,,,410101,001,2023-12-14_13h41.53.845,REPSWITCH1_version1_list1,2022.2.4,143.98412725668175,
REPSWITCH1/PICTURE_320.png,iglesia,speak,gold,filler,1,F,4,1,1,1,Stim8_Set3,0,None,101,100,101,0,100,100,100,,,,,,,,,,,,,,,,,,,,,,,495.6877899002284,496.83377420017496,496.83377420017496,496.83377420017496,496.83377420017496,496.83377420017496,496.83377420017496,496.83377420017496,496.83377420017496,None,0,,,C:\2023\REPSWITCH21092023\REPSWITCH_excgange\REPSWITCH_excgange\data/410101_REPSWITCH1_version1_list1_2023-12-14_13h41.53.845_micRespv1l1_recorded\recording_micRespv1l1_2023-12-14_13h50.06.594.wav,499.86206089984626,,None,499.86206089984626,499.86206089984626,499.86206089984626,499.86206089984626,499.86206089984626,499.86206089984626,,,,,,410101,001,2023-12-14_13h41.53.845,REPSWITCH1_version1_list1,2022.2.4,143.98412725668175,
REPSWITCH1/PICTURE_464.png,goma,type,darkblue,filler,1,F,4,1,1,1,Stim6_Set3,0,None,102,101,102,0,101,101,101,,,,,,,,,,,,,,,,,,,,,,,500.362096699886,501.52895470010117,501.52895470010117,501.52895470010117,501.52895470010117,501.52895470010117,501.52895470010117,501.52895470010117,501.52895470010117,"['g', 'o', 'm', 'a']",0,"[0.841590499971062, 0.9023766000755131, 0.9860915001481771, 1.0618072003126144]",goma,C:\2023\REPSWITCH21092023\REPSWITCH_excgange\REPSWITCH_excgange\data/410101_REPSWITCH1_version1_list1_2023-12-14_13h41.53.845_micRespv1l1_recorded\recording_micRespv1l1_2023-12-14_13h50.11.288.wav,504.5500556998886,505.0501520000398,space,504.5500556998886,504.5500556998886,504.5500556998886,504.5500556998886,504.5500556998886,504.5500556998886,505.0501520000398,505.0501520000398,0.9772470002062619,,,410101,001,2023-12-14_13h41.53.845,REPSWITCH1_version1_list1,2022.2.4,143.98412725668175,
REPSWITCH1/PICTURE_663.png,columna,type,darkblue,filler,1,F,1,2,1,1,Extra6,0,None,103,102,1,0,102,102,102,,,,,,,,,,,,,,,,,,,,,,,506.0363938002847,507.18931540008634,507.18931540008634,507.18931540008634,507.18931540008634,507.18931540008634,507.18931540008634,507.18931540008634,507.18931540008634,"['c', 'o', 'l', 'u', 'm', 'n', 'a']",0,"[0.8777355002239347, 1.0029297000728548, 1.1856260001659393, 1.3951115999370813, 1.5423401999287307, 1.7027718001045287, 1.777527800295502]",columna,C:\2023\REPSWITCH21092023\REPSWITCH_excgange\REPSWITCH_excgange\data/410101_REPSWITCH1_version1_list1_2023-12-14_13h41.53.845_micRespv1l1_recorded\recording_micRespv1l1_2023-12-14_13h50.16.949.wav,510.2175612002611,,None,510.2175612002611,510.2175612002611,510.2175612002611,510.2175612002611,510.2175612002611,510.2175612002611,,,,,,410101,001,2023-12-14_13h41.53.845,REPSWITCH1_version1_list1,2022.2.4,143.98412725668175,
REPSWITCH1/PICTURE_128.png,muñeca,speak,gold,nontarget,2,NT,1,2,1,1,Stim4_Set1,1,switch,104,103,2,0,103,103,103,,,,,,,,,,,,,,,,,,,,,,,510.71756910020486,511.89826609985903,511.89826609985903,511.89826609985903,511.89826609985903,511.89826609985903,511.89826609985903,511.89826609985903,511.89826609985903,None,0,,,C:\2023\REPSWITCH21092023\REPSWITCH_excgange\REPSWITCH_excgange\data/410101_REPSWITCH1_version1_list1_2023-12-14_13h41.53.845_micRespv1l1_recorded\recording_micRespv1l1_2023-12-14_13h50.21.658.wav,514.9264557999559,,None,514.9264557999559,514.9264557999559,514.9264557999559,514.9264557999559,514.9264557999559,514.9264557999559,,,,,,410101,001,2023-12-14_13h41.53.845,REPSWITCH1_version1_list1,2022.2.4,143.98412725668175,
REPSWITCH1/PICTURE_128.png,muñeca,speak,gold,repeat,2,T,1,2,1,1,Stim4_Set1,0,None,105,104,3,0,104,104,104,,,,,,,,,,,,,,,,,,,,,,,515.4265812998638,516.5308337002061,516.5308337002061,516.5308337002061,516.5308337002061,516.5308337002061,516.5308337002061,516.5308337002061,516.5308337002061,None,0,,,C:\2023\REPSWITCH21092023\REPSWITCH_excgange\REPSWITCH_excgange\data/410101_REPSWITCH1_version1_list1_2023-12-14_13h41.53.845_micRespv1l1_recorded\recording_micRespv1l1_2023-12-14_13h50.26.290.wav,519.5520607000217,520.052118500229,None,519.5520607000217,519.5520607000217,519.5520607000217,519.5520607000217,519.5520607000217,519.5520607000217,,,,,,410101,001,2023-12-14_13h41.53.845,REPSWITCH1_version1_list1,2022.2.4,143.98412725668175,
REPSWITCH1/PICTURE_8.png,pierna,type,darkblue,filler,1,F,1,2,1,1,Stim3_Set4,0,None,106,105,4,0,105,105,105,,,,,,,,,,,,,,,,,,,,,,,520.052118500229,521.1147698001005,521.1147698001005,521.1147698001005,521.1147698001005,521.1147698001005,521.1147698001005,521.1147698001005,521.1147698001005,"['p', 'i', 'e', 'r', 'n', 'a']",0,"[1.1986941001378, 1.280415200162679, 1.3926295000128448, 1.4481418998911977, 1.513871599920094, 1.645454800222069]",pierna,C:\2023\REPSWITCH21092023\REPSWITCH_excgange\REPSWITCH_excgange\data/410101_REPSWITCH1_version1_list1_2023-12-14_13h41.53.845_micRespv1l1_recorded\recording_micRespv1l1_2023-12-14_13h50.30.874.wav,524.1359979999252,524.6360642001964,None,524.1359979999252,524.1359979999252,524.1359979999252,524.1359979999252,524.1359979999252,524.1359979999252,,,,,,410101,001,2023-12-14_13h41.53.845,REPSWITCH1_version1_list1,2022.2.4,143.98412725668175,
REPSWITCH1/PICTURE_135.png,traje,speak,gold,nontarget,2,NT,1,2,1,1,Stim3_Set1,1,switch,107,106,5,0,106,106,106,,,,,,,,,,,,,,,,,,,,,,,524.6360642001964,525.7403716002591,525.7403716002591,525.7403716002591,525.7403716002591,525.7403716002591,525.7403716002591,525.7403716002591,525.7403716002591,None,0,,,C:\2023\REPSWITCH21092023\REPSWITCH_excgange\REPSWITCH_excgange\data/410101_REPSWITCH1_version1_list1_2023-12-14_13h41.53.845_micRespv1l1_recorded\recording_micRespv1l1_2023-12-14_13h50.35.500.wav,528.7685369001701,,None,528.7685369001701,528.7685369001701,528.7685369001701,528.7685369001701,528.7685369001701,528.7685369001701,,,,,,410101,001,2023-12-14_13h41.53.845,REPSWITCH1_version1_list1,2022.2.4,143.98412725668175,
REPSWITCH1/PICTURE_135.png,traje,speak,gold,repeat,2,T,1,2,1,1,Stim3_Set1,0,None,108,107,6,0,107,107,107,,,,,,,,,,,,,,,,,,,,,,,529.268595200032,530.3381773000583,530.3381773000583,530.3381773000583,530.3381773000583,530.3381773000583,530.3381773000583,530.3381773000583,530.3381773000583,None,0,,,C:\2023\REPSWITCH21092023\REPSWITCH_excgange\REPSWITCH_excgange\data/410101_REPSWITCH1_version1_list1_2023-12-14_13h41.53.845_micRespv1l1_recorded\recording_micRespv1l1_2023-12-14_13h50.40.097.wav,533.3594125001691,533.8595706000924,None,533.3594125001691,533.3594125001691,533.3594125001691,533.3594125001691,533.3594125001691,533.3594125001691,,,,,,410101,001,2023-12-14_13h41.53.845,REPSWITCH1_version1_list1,2022.2.4,143.98412725668175,
REPSWITCH1/PICTURE_673.png,tenedor,type,darkblue,filler,1,F,1,2,1,1,Extra5,0,None,109,108,7,0,108,108,108,,,,,,,,,,,,,,,,,,,,,,,533.8595706000924,534.9082309999503,534.9082309999503,534.9082309999503,534.9082309999503,534.9082309999503,534.9082309999503,534.9082309999503,534.9082309999503,"['t', 'e', 'n', 'e', 'd', 'o', 'r']",0,"[0.8951441003009677, 0.9788585002534091, 1.0874888002872467, 1.160210800357163, 1.3117460003122687, 1.4004603000357747, 1.478543400298804]",tenedor,C:\2023\REPSWITCH21092023\REPSWITCH_excgange\REPSWITCH_excgange\data/410101_REPSWITCH1_version1_list1_2023-12-14_13h41.53.845_micRespv1l1_recorded\recording_micRespv1l1_2023-12-14_13h50.44.668.wav,537.9294469002634,538.429540600162,None,537.9294469002634,537.9294469002634,537.9294469002634,537.9294469002634,537.9294469002634,537.9294469002634,,,,,,410101,001,2023-12-14_13h41.53.845,REPSWITCH1_version1_list1,2022.2.4,143.98412725668175,
REPSWITCH1/PICTURE_728.png,pulpo,speak,gold,filler,2,F,1,2,1,1,Stim8_Set4,0,None,110,109,8,0,109,109,109,,,,,,,,,,,,,,,,,,,,,,,538.429540600162,539.4644308001734,539.4644308001734,539.4644308001734,539.4644308001734,539.4644308001734,539.4644308001734,539.4644308001734,539.4644308001734,None,0,,,C:\2023\REPSWITCH21092023\REPSWITCH_excgange\REPSWITCH_excgange\data/410101_REPSWITCH1_version1_list1_2023-12-14_13h41.53.845_micRespv1l1_recorded\recording_micRespv1l1_2023-12-14_13h50.49.223.wav,542.4856039001606,542.9857314000838,None,542.4856039001606,542.4856039001606,542.4856039001606,542.4856039001606,542.4856039001606,542.4856039001606,,,,,,410101,001,2023-12-14_13h41.53.845,REPSWITCH1_version1_list1,2022.2.4,143.98412725668175,
REPSWITCH1/PICTURE_16.png,cazador,speak,gold,nontarget,2,NT,1,2,1,1,Stim6_Set1,1,repeat,111,110,9,0,110,110,110,,,,,,,,,,,,,,,,,,,,,,,542.9857314000838,544.1664197999053,544.1664197999053,544.1664197999053,544.1664197999053,544.1664197999053,544.1664197999053,544.1664197999053,544.1664197999053,None,0,,,C:\2023\REPSWITCH21092023\REPSWITCH_excgange\REPSWITCH_excgange\data/410101_REPSWITCH1_version1_list1_2023-12-14_13h41.53.845_micRespv1l1_recorded\recording_micRespv1l1_2023-12-14_13h50.53.925.wav,547.1876608999446,547.6876524998806,None,547.1876608999446,547.1876608999446,547.1876608999446,547.1876608999446,547.1876608999446,547.1876608999446,,,,,,410101,001,2023-12-14_13h41.53.845,REPSWITCH1_version1_list1,2022.2.4,143.98412725668175,
REPSWITCH1/PICTURE_16.png,cazador,type,darkblue,switch,1,T,1,2,1,1,Stim6_Set1,0,None,112,111,10,0,111,111,111,,,,,,,,,,,,,,,,,,,,,,,547.6876524998806,548.7086600000039,548.7086600000039,548.7086600000039,548.7086600000039,548.7086600000039,548.7086600000039,548.7086600000039,548.7086600000039,"['c', 'a', 'z', 'a', 'd', 'o', 'r']",0,"[0.8615689002908766, 0.9522979003377259, 1.1389747001230717, 1.28795070014894, 1.425416000187397, 1.5610211002640426, 1.6167089003138244]",cazador,C:\2023\REPSWITCH21092023\REPSWITCH_excgange\REPSWITCH_excgange\data/410101_REPSWITCH1_version1_list1_2023-12-14_13h41.53.845_micRespv1l1_recorded\recording_micRespv1l1_2023-12-14_13h50.58.467.wav,551.7298961998895,552.2300241999328,None,551.7298961998895,551.7298961998895,551.7298961998895,551.7298961998895,551.7298961998895,551.7298961998895,,,,,,410101,001,2023-12-14_13h41.53.845,REPSWITCH1_version1_list1,2022.2.4,143.98412725668175,
REPSWITCH1/PICTURE_498.png,taza,type,darkblue,filler,1,F,1,2,1,1,Stim4_Set4,1,repeat,113,112,11,0,112,112,112,,,,,,,,,,,,,,,,,,,,,,,552.2300241999328,553.3620633999817,553.3620633999817,553.3620633999817,553.3620633999817,553.3620633999817,553.3620633999817,553.3620633999817,553.3620633999817,"['t', 'a', 'z', 'a']",0,"[0.7812532004900277, 0.853014700114727, 1.1081649004481733, 1.3344305003993213]",taza,C:\2023\REPSWITCH21092023\REPSWITCH_excgange\REPSWITCH_excgange\data/410101_REPSWITCH1_version1_list1_2023-12-14_13h41.53.845_micRespv1l1_recorded\recording_micRespv1l1_2023-12-14_13h51.03.121.wav,556.3902900000103,,None,556.3902900000103,556.3902900000103,556.3902900000103,556.3902900000103,556.3902900000103,556.3902900000103,,,,,,410101,001,2023-12-14_13h41.53.845,REPSWITCH1_version1_list1,2022.2.4,143.98412725668175,
REPSWITCH1/PICTURE_381.png,fresa,type,darkblue,nontarget,1,NT,1,2,1,1,Stim2_Set1,1,repeat,114,113,12,0,113,113,113,,,,,,,,,,,,,,,,,,,,,,,556.8903593001887,557.9529776000418,557.9529776000418,557.9529776000418,557.9529776000418,557.9529776000418,557.9529776000418,557.9529776000418,557.9529776000418,"['f', 'r', 'e', 's', 'a']",0,"[0.7395948003977537, 0.8950039003975689, 0.9777994002215564, 1.148161900229752, 1.209891500417143]",fresa,C:\2023\REPSWITCH21092023\REPSWITCH_excgange\REPSWITCH_excgange\data/410101_REPSWITCH1_version1_list1_2023-12-14_13h41.53.845_micRespv1l1_recorded\recording_micRespv1l1_2023-12-14_13h51.07.712.wav,560.9811117001809,,None,560.9811117001809,560.9811117001809,560.9811117001809,560.9811117001809,560.9811117001809,560.9811117001809,,,,,,410101,001,2023-12-14_13h41.53.845,REPSWITCH1_version1_list1,2022.2.4,143.98412725668175,
REPSWITCH1/PICTURE_381.png,fresa,speak,gold,switch,2,T,1,2,1,1,Stim2_Set1,0,None,115,114,13,0,114,114,114,,,,,,,,,,,,,,,,,,,,,,,561.4812401002273,562.5577238998376,562.5577238998376,562.5577238998376,562.5577238998376,562.5577238998376,562.5577238998376,562.5577238998376,562.5577238998376,None,0,,,C:\2023\REPSWITCH21092023\REPSWITCH_excgange\REPSWITCH_excgange\data/410101_REPSWITCH1_version1_list1_2023-12-14_13h41.53.845_micRespv1l1_recorded\recording_micRespv1l1_2023-12-14_13h51.12.317.wav,565.5788950002752,566.0789974001236,None,565.5788950002752,565.5788950002752,565.5788950002752,565.5788950002752,565.5788950002752,565.5788950002752,,,,,,410101,001,2023-12-14_13h41.53.845,REPSWITCH1_version1_list1,2022.2.4,143.98412725668175,
REPSWITCH1/PICTURE_178.png,puente,speak,gold,nontarget,2,NT,1,2,1,1,Stim1_Set1,0,None,116,115,14,0,115,115,115,,,,,,,,,,,,,,,,,,,,,,,566.0789974001236,567.238875800278,567.238875800278,567.238875800278,567.238875800278,567.238875800278,567.238875800278,567.238875800278,567.238875800278,None,0,,,C:\2023\REPSWITCH21092023\REPSWITCH_excgange\REPSWITCH_excgange\data/410101_REPSWITCH1_version1_list1_2023-12-14_13h41.53.845_micRespv1l1_recorded\recording_micRespv1l1_2023-12-14_13h51.16.998.wav,570.2601224002428,570.7601630999707,None,570.2601224002428,570.2601224002428,570.2601224002428,570.2601224002428,570.2601224002428,570.2601224002428,,,,,,410101,001,2023-12-14_13h41.53.845,REPSWITCH1_version1_list1,2022.2.4,143.98412725668175,
REPSWITCH1/PICTURE_178.png,puente,type,darkblue,switch,1,T,1,2,1,1,Stim1_Set1,0,None,117,116,15,0,116,116,116,,,,,,,,,,,,,,,,,,,,,,,570.7601630999707,571.9062542002648,571.9062542002648,571.9062542002648,571.9062542002648,571.9062542002648,571.9062542002648,571.9062542002648,571.9062542002648,"['p', 'u', 'e', 'n', 't', 'e']",0,"[1.3019448001869023, 1.5084001002833247, 1.6010174001567066, 1.69670130033046, 1.7744339001365006, 1.8333391998894513]",puente,C:\2023\REPSWITCH21092023\REPSWITCH_excgange\REPSWITCH_excgange\data/410101_REPSWITCH1_version1_list1_2023-12-14_13h41.53.845_micRespv1l1_recorded\recording_micRespv1l1_2023-12-14_13h51.21.665.wav,574.9274454000406,575.427448600065,None,574.9274454000406,574.9274454000406,574.9274454000406,574.9274454000406,574.9274454000406,574.9274454000406,,,,,,410101,001,2023-12-14_13h41.53.845,REPSWITCH1_version1_list1,2022.2.4,143.98412725668175,
REPSWITCH1/PICTURE_719.png,baño,speak,gold,filler,2,F,1,2,1,1,Stim2_Set4,0,None,118,117,16,0,117,117,117,,,,,,,,,,,,,,,,,,,,,,,575.427448600065,576.47621180024,576.47621180024,576.47621180024,576.47621180024,576.47621180024,576.47621180024,576.47621180024,576.47621180024,None,0,,,C:\2023\REPSWITCH21092023\REPSWITCH_excgange\REPSWITCH_excgange\data/410101_REPSWITCH1_version1_list1_2023-12-14_13h41.53.845_micRespv1l1_recorded\recording_micRespv1l1_2023-12-14_13h51.26.236.wav,579.5043743001297,,None,579.5043743001297,579.5043743001297,579.5043743001297,579.5043743001297,579.5043743001297,579.5043743001297,,,,,,410101,001,2023-12-14_13h41.53.845,REPSWITCH1_version1_list1,2022.2.4,143.98412725668175,
REPSWITCH1/PICTURE_169.png,espalda,type,darkblue,nontarget,1,NT,1,2,1,1,Stim8_Set1,1,switch,119,118,17,0,118,118,118,,,,,,,,,,,,,,,,,,,,,,,580.004435100127,581.171259699855,581.171259699855,581.171259699855,581.171259699855,581.171259699855,581.171259699855,581.171259699855,581.171259699855,"['e', 's', 'p', 'a', 'l', 'd', 'a']",0,"[0.7834033998660743, 0.8511713999323547, 1.0196098000742495, 1.1057376000098884, 1.250244999770075, 1.3182223998010159, 1.3790132999420166]",espalda,C:\2023\REPSWITCH21092023\REPSWITCH_excgange\REPSWITCH_excgange\data/410101_REPSWITCH1_version1_list1_2023-12-14_13h41.53.845_micRespv1l1_recorded\recording_micRespv1l1_2023-12-14_13h51.30.930.wav,584.1925626001321,584.6925503001548,None,584.1925626001321,584.1925626001321,584.1925626001321,584.1925626001321,584.1925626001321,584.1925626001321,,,,,,410101,001,2023-12-14_13h41.53.845,REPSWITCH1_version1_list1,2022.2.4,143.98412725668175,
REPSWITCH1/PICTURE_169.png,espalda,type,darkblue,repeat,1,T,1,2,1,1,Stim8_Set1,0,None,120,119,18,0,119,119,119,,,,,,,,,,,,,,,,,,,,,,,584.6925503001548,585.7065544999205,585.7065544999205,585.7065544999205,585.7065544999205,585.7065544999205,585.7065544999205,585.7065544999205,585.7065544999205,"['e', 's', 'p', 'a', 'l', 'd', 'a']",0,"[0.6530030001886189, 0.7484718002378941, 0.875119199976325, 0.9777143001556396, 1.0943128000944853, 1.1809922000393271, 1.2278645001351833]",espalda,C:\2023\REPSWITCH21092023\REPSWITCH_excgange\REPSWITCH_excgange\data/410101_REPSWITCH1_version1_list1_2023-12-14_13h41.53.845_micRespv1l1_recorded\recording_micRespv1l1_2023-12-14_13h51.35.466.wav,588.7347258999944,,None,588.7347258999944,588.7347258999944,588.7347258999944,588.7347258999944,588.7347258999944,588.7347258999944,,,,,,410101,001,2023-12-14_13h41.53.845,REPSWITCH1_version1_list1,2022.2.4,143.98412725668175,
