image;correctAns;respModal;frameColor;repSwitch;sequence;target;set;block;list;exp_version;stimulus;baseline;baseline_condition;trial_no;psychopy_trial;Column1;trialsREPSWITCH.thisRepN;trialsREPSWITCH.thisTrialN;trialsREPSWITCH.thisN;trialsREPSWITCH.thisIndex;textWelcome.started;textboxInstrMain1.started;textboxInstrMain1_2.started;textboxInstrMain1_3.started;keyInstrMain.started;keyInstrMain.keys;keyInstrMain.rt;textboxInstrMain2.started;textboxInstrMain2_2.started;textboxInstrMain2_3.started;textboxInstrMain2_4.started;textboxInstrMain2_5.started;textboxInstrMain2_6.started;textboxInstrMain2_7.started;textboxInstrMain2_8.started;textboxInstrMain2_9.started;textboxInstrMain2_10.started;textboxInstrMain2_11.started;textboxInstrMain2_12.started;keyInstrMain2.started;keyInstrMain2.keys;keyInstrMain2.rt;fixationITI.started;fixationITI.stopped;polygonColour.started;polygonWhite.started;imageObject.started;polygonType.started;textInput.started;keyResp.started;micRespv1l1.started;keyResp.keys;keyResp.corr;keyResp.rt;subjResponse;micRespv1l1.clip;textBlankLoop.started;textBlankLoop.stopped;keyPause.keys;polygonColour.stopped;polygonWhite.stopped;imageObject.stopped;polygonType.stopped;textInput.stopped;keyResp.stopped;textboxPause.started;keyPause.started;keyPause.rt;textboxGoodbye.started;textboxGoodbye.stopped;participant;session;date;expName;psychopyVersion;frameRate;Column2
;;;;;;;;;;;;;;;;;;;;;8.9722657;11.4645934;11.4645934;11.4645934;11.4645934;space;9.7484016;;;;;;;;;;;;;;;;;;;;;;;;;;;;;;;;;;;;;;;;;;;;410101;1;2023-12-14_13h41.53.845;REPSWITCH1_version1_list1;2022.2.4;143.9841273;
;;;;;;;;;;;;;;;;;;;;;;;;;;;;21.2297586;21.2297586;21.2297586;21.2297586;21.2297586;21.2297586;21.2297586;21.2297586;21.2297586;21.2297586;21.2297586;21.2297586;21.2297586;space;2.9145528;;;;;;;;;;;;;;;;;;;;;;;;;;;;;410101;1;2023-12-14_13h41.53.845;REPSWITCH1_version1_list1;2022.2.4;143.9841273;
REPSWITCH1/PICTURE_340.png;espejo;type;darkblue;filler;1;F;1;1;1;1;Extra1;0;None;1;0;1;0;0;0;0;;;;;;;;;;;;;;;;;;;;;;;24.2370639;25.3900603;25.3900603;25.3900603;25.3900603;25.3900603;25.3900603;25.3900603;25.3900603;['e', 's', 'p', 'e', 'j', 'o'];0;[1.028886300045997, 1.1215652003884315, 1.3129122001118958, 1.434404100291431, 1.575930300168693, 1.625201300252229];espejo;C:\2023\REPSWITCH21092023\REPSWITCH_excgange\REPSWITCH_excgange\data/410101_REPSWITCH1_version1_list1_2023-12-14_13h41.53.845_micRespv1l1_recorded\recording_micRespv1l1_2023-12-14_13h42.15.146.wav;28.4113239;28.9113076;None;;;;;;;;;;;;410101;1;2023-12-14_13h41.53.845;REPSWITCH1_version1_list1;2022.2.4;143.9841273;
REPSWITCH1/PICTURE_391.png;cadena;speak;gold;filler;2;F;1;1;1;1;Extra2;0;None;2;1;2;0;1;1;1;;;;;;;;;;;;;;;;;;;;;;;28.9113076;30.0434131;30.0434131;30.0434131;30.0434131;30.0434131;30.0434131;30.0434131;30.0434131;None;0;;;C:\2023\REPSWITCH21092023\REPSWITCH_excgange\REPSWITCH_excgange\data/410101_REPSWITCH1_version1_list1_2023-12-14_13h41.53.845_micRespv1l1_recorded\recording_micRespv1l1_2023-12-14_13h42.19.803.wav;33.0715926;33.5716488;None;33.0715926;33.0715926;33.0715926;33.0715926;33.0715926;33.0715926;;;;;;410101;1;2023-12-14_13h41.53.845;REPSWITCH1_version1_list1;2022.2.4;143.9841273;
REPSWITCH1/PICTURE_178.png;puente;speak;gold;nontarget;2;NT;1;1;1;1;Stim1_Set1;1;repeat;3;2;3;0;2;2;2;;;;;;;;;;;;;;;;;;;;;;;33.5716488;34.6134329;34.6134329;34.6134329;34.6134329;34.6134329;34.6134329;34.6134329;34.6134329;None;0;;;C:\2023\REPSWITCH21092023\REPSWITCH_excgange\REPSWITCH_excgange\data/410101_REPSWITCH1_version1_list1_2023-12-14_13h41.53.845_micRespv1l1_recorded\recording_micRespv1l1_2023-12-14_13h42.24.372.wav;37.6346775;38.1347591;None;37.6346775;37.6346775;37.6346775;37.6346775;37.6346775;37.6346775;;;;;;410101;1;2023-12-14_13h41.53.845;REPSWITCH1_version1_list1;2022.2.4;143.9841273;
REPSWITCH1/PICTURE_178.png;puente;speak;gold;repeat;2;T;1;1;1;1;Stim1_Set1;0;None;4;3;4;0;3;3;3;;;;;;;;;;;;;;;;;;;;;;;38.1347591;39.3571491;39.3571491;39.3571491;39.3571491;39.3571491;39.3571491;39.3571491;39.3571491;None;0;;;C:\2023\REPSWITCH21092023\REPSWITCH_excgange\REPSWITCH_excgange\data/410101_REPSWITCH1_version1_list1_2023-12-14_13h41.53.845_micRespv1l1_recorded\recording_micRespv1l1_2023-12-14_13h42.29.117.wav;42.3852719;;None;42.3852719;42.3852719;42.3852719;42.3852719;42.3852719;42.3852719;;;;;;410101;1;2023-12-14_13h41.53.845;REPSWITCH1_version1_list1;2022.2.4;143.9841273;
REPSWITCH1/PICTURE_319.png;vaca;type;darkblue;filler;1;F;1;1;1;1;Stim1_Set4;0;None;5;4;5;0;4;4;4;;;;;;;;;;;;;;;;;;;;;;;42.8853762;44.0105071;44.0105071;44.0105071;44.0105071;44.0105071;44.0105071;44.0105071;44.0105071;['v', 'a', 'c', 'a'];0;[0.7669292003847659, 0.8366971001960337, 1.0234682001173496, 1.071342899929732];vaca;C:\2023\REPSWITCH21092023\REPSWITCH_excgange\REPSWITCH_excgange\data/410101_REPSWITCH1_version1_list1_2023-12-14_13h41.53.845_micRespv1l1_recorded\recording_micRespv1l1_2023-12-14_13h42.33.770.wav;47.031796;47.5317827;None;47.031796;47.031796;47.031796;47.031796;47.031796;47.031796;;;;;;410101;1;2023-12-14_13h41.53.845;REPSWITCH1_version1_list1;2022.2.4;143.9841273;
REPSWITCH1/PICTURE_381.png;fresa;speak;gold;nontarget;2;NT;1;1;1;1;Stim2_Set1;1;switch;6;5;6;0;5;5;5;;;;;;;;;;;;;;;;;;;;;;;47.5317827;48.5944324;48.5944324;48.5944324;48.5944324;48.5944324;48.5944324;48.5944324;48.5944324;None;0;;;C:\2023\REPSWITCH21092023\REPSWITCH_excgange\REPSWITCH_excgange\data/410101_REPSWITCH1_version1_list1_2023-12-14_13h41.53.845_micRespv1l1_recorded\recording_micRespv1l1_2023-12-14_13h42.38.354.wav;51.6226287;;None;51.6226287;51.6226287;51.6226287;51.6226287;51.6226287;51.6226287;;;;;;410101;1;2023-12-14_13h41.53.845;REPSWITCH1_version1_list1;2022.2.4;143.9841273;
REPSWITCH1/PICTURE_381.png;fresa;speak;gold;repeat;2;T;1;1;1;1;Stim2_Set1;0;None;7;6;7;0;6;6;6;;;;;;;;;;;;;;;;;;;;;;;52.1226997;53.1783774;53.1783774;53.1783774;53.1783774;53.1783774;53.1783774;53.1783774;53.1783774;None;0;;;C:\2023\REPSWITCH21092023\REPSWITCH_excgange\REPSWITCH_excgange\data/410101_REPSWITCH1_version1_list1_2023-12-14_13h41.53.845_micRespv1l1_recorded\recording_micRespv1l1_2023-12-14_13h42.42.937.wav;56.1996797;56.6997493;None;56.1996797;56.1996797;56.1996797;56.1996797;56.1996797;56.1996797;;;;;;410101;1;2023-12-14_13h41.53.845;REPSWITCH1_version1_list1;2022.2.4;143.9841273;
REPSWITCH1/PICTURE_719.png;baño;type;darkblue;filler;1;F;1;1;1;1;Stim2_Set4;1;switch;8;7;8;0;7;7;7;;;;;;;;;;;;;;;;;;;;;;;56.6997493;57.7553896;57.7553896;57.7553896;57.7553896;57.7553896;57.7553896;57.7553896;57.7553896;['b', 'a', 'ñ', 'o'];0;[0.7872230000793934, 0.8947811000980437, 1.128993900027126, 1.1633248999714851];baño;C:\2023\REPSWITCH21092023\REPSWITCH_excgange\REPSWITCH_excgange\data/410101_REPSWITCH1_version1_list1_2023-12-14_13h41.53.845_micRespv1l1_recorded\recording_micRespv1l1_2023-12-14_13h42.47.515.wav;60.7835583;61.2836906;None;60.7835583;60.7835583;60.7835583;60.7835583;60.7835583;60.7835583;;;;;;410101;1;2023-12-14_13h41.53.845;REPSWITCH1_version1_list1;2022.2.4;143.9841273;
REPSWITCH1/PICTURE_135.png;traje;speak;gold;nontarget;2;NT;1;1;1;1;Stim3_Set1;0;None;9;8;9;0;8;8;8;;;;;;;;;;;;;;;;;;;;;;;61.2836906;62.3393359;62.3393359;62.3393359;62.3393359;62.3393359;62.3393359;62.3393359;62.3393359;None;0;;;C:\2023\REPSWITCH21092023\REPSWITCH_excgange\REPSWITCH_excgange\data/410101_REPSWITCH1_version1_list1_2023-12-14_13h41.53.845_micRespv1l1_recorded\recording_micRespv1l1_2023-12-14_13h42.52.099.wav;65.3675072;;None;65.3675072;65.3675072;65.3675072;65.3675072;65.3675072;65.3675072;;;;;;410101;1;2023-12-14_13h41.53.845;REPSWITCH1_version1_list1;2022.2.4;143.9841273;
REPSWITCH1/PICTURE_135.png;traje;type;darkblue;switch;1;T;1;1;1;1;Stim3_Set1;0;None;10;9;10;0;9;9;9;;;;;;;;;;;;;;;;;;;;;;;65.8675548;66.9580091;66.9580091;66.9580091;66.9580091;66.9580091;66.9580091;66.9580091;66.9580091;['t', 'r', 'a', 'j', 'e'];0;[0.8382447003386915, 0.9050125000067055, 1.0954332002438605, 1.2448850004002452, 1.3338629002682865];traje;C:\2023\REPSWITCH21092023\REPSWITCH_excgange\REPSWITCH_excgange\data/410101_REPSWITCH1_version1_list1_2023-12-14_13h41.53.845_micRespv1l1_recorded\recording_micRespv1l1_2023-12-14_13h42.56.717.wav;69.9861778;;None;69.9861778;69.9861778;69.9861778;69.9861778;69.9861778;69.9861778;;;;;;410101;1;2023-12-14_13h41.53.845;REPSWITCH1_version1_list1;2022.2.4;143.9841273;
REPSWITCH1/PICTURE_687.png;camisa;speak;gold;filler;2;F;1;1;1;1;Stim5_Set4;0;None;11;10;11;0;10;10;10;;;;;;;;;;;;;;;;;;;;;;;70.4861895;71.7155276;71.7155276;71.7155276;71.7155276;71.7155276;71.7155276;71.7155276;71.7155276;None;0;;;C:\2023\REPSWITCH21092023\REPSWITCH_excgange\REPSWITCH_excgange\data/410101_REPSWITCH1_version1_list1_2023-12-14_13h41.53.845_micRespv1l1_recorded\recording_micRespv1l1_2023-12-14_13h43.01.475.wav;74.7437267;;None;74.7437267;74.7437267;74.7437267;74.7437267;74.7437267;74.7437267;;;;;;410101;1;2023-12-14_13h41.53.845;REPSWITCH1_version1_list1;2022.2.4;143.9841273;
REPSWITCH1/PICTURE_128.png;muñeca;type;darkblue;nontarget;1;NT;1;1;1;1;Stim4_Set1;1;switch;12;11;12;0;11;11;11;;;;;;;;;;;;;;;;;;;;;;;75.243776;76.3481449;76.3481449;76.3481449;76.3481449;76.3481449;76.3481449;76.3481449;76.3481449;['m', 'u', 'ñ', 'e', 'c', 'a'];0;[0.9408978000283241, 1.0834147003479302, 1.2987572001293302, 1.3875064002349973, 1.5679083000868559, 1.623682000208646];muñeca;C:\2023\REPSWITCH21092023\REPSWITCH_excgange\REPSWITCH_excgange\data/410101_REPSWITCH1_version1_list1_2023-12-14_13h41.53.845_micRespv1l1_recorded\recording_micRespv1l1_2023-12-14_13h43.06.107.wav;79.3693519;79.8694643;None;79.3693519;79.3693519;79.3693519;79.3693519;79.3693519;79.3693519;;;;;;410101;1;2023-12-14_13h41.53.845;REPSWITCH1_version1_list1;2022.2.4;143.9841273;
REPSWITCH1/PICTURE_128.png;muñeca;speak;gold;switch;2;T;1;1;1;1;Stim4_Set1;0;None;13;12;13;0;12;12;12;;;;;;;;;;;;;;;;;;;;;;;79.8694643;81.0014732;81.0014732;81.0014732;81.0014732;81.0014732;81.0014732;81.0014732;81.0014732;None;0;;;C:\2023\REPSWITCH21092023\REPSWITCH_excgange\REPSWITCH_excgange\data/410101_REPSWITCH1_version1_list1_2023-12-14_13h41.53.845_micRespv1l1_recorded\recording_micRespv1l1_2023-12-14_13h43.10.762.wav;84.0296804;;None;84.0296804;84.0296804;84.0296804;84.0296804;84.0296804;84.0296804;;;;;;410101;1;2023-12-14_13h41.53.845;REPSWITCH1_version1_list1;2022.2.4;143.9841273;
REPSWITCH1/PICTURE_8.png;pierna;speak;gold;filler;2;F;1;1;1;1;Stim3_Set4;0;None;14;13;14;0;13;13;13;;;;;;;;;;;;;;;;;;;;;;;84.5297148;85.6826378;85.6826378;85.6826378;85.6826378;85.6826378;85.6826378;85.6826378;85.6826378;None;0;;;C:\2023\REPSWITCH21092023\REPSWITCH_excgange\REPSWITCH_excgange\data/410101_REPSWITCH1_version1_list1_2023-12-14_13h41.53.845_micRespv1l1_recorded\recording_micRespv1l1_2023-12-14_13h43.15.442.wav;88.7038571;89.2039188;None;88.7038571;88.7038571;88.7038571;88.7038571;88.7038571;88.7038571;;;;;;410101;1;2023-12-14_13h41.53.845;REPSWITCH1_version1_list1;2022.2.4;143.9841273;
REPSWITCH1/PICTURE_19.png;pavo;speak;gold;nontarget;2;NT;1;1;1;1;Stim5_Set1;0;None;15;14;15;0;14;14;14;;;;;;;;;;;;;;;;;;;;;;;89.2039188;90.2804694;90.2804694;90.2804694;90.2804694;90.2804694;90.2804694;90.2804694;90.2804694;None;0;;;C:\2023\REPSWITCH21092023\REPSWITCH_excgange\REPSWITCH_excgange\data/410101_REPSWITCH1_version1_list1_2023-12-14_13h41.53.845_micRespv1l1_recorded\recording_micRespv1l1_2023-12-14_13h43.20.040.wav;93.3086452;;None;93.3086452;93.3086452;93.3086452;93.3086452;93.3086452;93.3086452;;;;;;410101;1;2023-12-14_13h41.53.845;REPSWITCH1_version1_list1;2022.2.4;143.9841273;
REPSWITCH1/PICTURE_19.png;pavo;type;darkblue;switch;1;T;1;1;1;1;Stim5_Set1;0;None;16;15;16;0;15;15;15;;;;;;;;;;;;;;;;;;;;;;;93.8087307;94.8922438;94.8922438;94.8922438;94.8922438;94.8922438;94.8922438;94.8922438;94.8922438;['p', 'a', 'v', 'o'];0;[0.7812640001066029, 0.8520261002704501, 1.0274236002005637, 1.1005737003870308];pavo;C:\2023\REPSWITCH21092023\REPSWITCH_excgange\REPSWITCH_excgange\data/410101_REPSWITCH1_version1_list1_2023-12-14_13h41.53.845_micRespv1l1_recorded\recording_micRespv1l1_2023-12-14_13h43.24.652.wav;97.9203547;;None;97.9203547;97.9203547;97.9203547;97.9203547;97.9203547;97.9203547;;;;;;410101;1;2023-12-14_13h41.53.845;REPSWITCH1_version1_list1;2022.2.4;143.9841273;
REPSWITCH1/PICTURE_16.png;cazador;type;darkblue;nontarget;1;NT;1;1;1;1;Stim6_Set1;1;switch;17;16;17;0;16;16;16;;;;;;;;;;;;;;;;;;;;;;;98.4204922;99.5316776;99.5316776;99.5316776;99.5316776;99.5316776;99.5316776;99.5316776;99.5316776;['c', 'a', 'z', 'a', 'd', 'o', 'r'];0;[0.9652249002829194, 1.0244599003344774, 1.2317080004140735, 1.3721949001774192, 1.4949272000230849, 1.6090475004166365, 1.683799700345844];cazador;C:\2023\REPSWITCH21092023\REPSWITCH_excgange\REPSWITCH_excgange\data/410101_REPSWITCH1_version1_list1_2023-12-14_13h41.53.845_micRespv1l1_recorded\recording_micRespv1l1_2023-12-14_13h43.29.290.wav;102.5529653;103.0529707;None;102.5529653;102.5529653;102.5529653;102.5529653;102.5529653;102.5529653;;;;;;410101;1;2023-12-14_13h41.53.845;REPSWITCH1_version1_list1;2022.2.4;143.9841273;
REPSWITCH1/PICTURE_16.png;cazador;type;darkblue;repeat;1;T;1;1;1;1;Stim6_Set1;0;None;18;17;18;0;17;17;17;;;;;;;;;;;;;;;;;;;;;;;103.0529707;104.0670125;104.0670125;104.0670125;104.0670125;104.0670125;104.0670125;104.0670125;104.0670125;['c', 'a', 'z', 'a', 'd', 'o', 'r'];0;[0.7738325004465878, 0.8296878002583981, 1.1484302002936602, 1.35294370027259, 1.5452386001124978, 1.7618222003802657, 1.9096438004635274];cazador;C:\2023\REPSWITCH21092023\REPSWITCH_excgange\REPSWITCH_excgange\data/410101_REPSWITCH1_version1_list1_2023-12-14_13h41.53.845_micRespv1l1_recorded\recording_micRespv1l1_2023-12-14_13h43.33.827.wav;107.0951882;;None;107.0951882;107.0951882;107.0951882;107.0951882;107.0951882;107.0951882;;;;;;410101;1;2023-12-14_13h41.53.845;REPSWITCH1_version1_list1;2022.2.4;143.9841273;
REPSWITCH1/PICTURE_498.png;taza;speak;gold;filler;2;F;1;1;1;1;Stim4_Set4;0;None;19;18;19;0;18;18;18;;;;;;;;;;;;;;;;;;;;;;;107.5952442;108.6093177;108.6093177;108.6093177;108.6093177;108.6093177;108.6093177;108.6093177;108.6093177;None;0;;;C:\2023\REPSWITCH21092023\REPSWITCH_excgange\REPSWITCH_excgange\data/410101_REPSWITCH1_version1_list1_2023-12-14_13h41.53.845_micRespv1l1_recorded\recording_micRespv1l1_2023-12-14_13h43.38.369.wav;111.6374662;;None;111.6374662;111.6374662;111.6374662;111.6374662;111.6374662;111.6374662;;;;;;410101;1;2023-12-14_13h41.53.845;REPSWITCH1_version1_list1;2022.2.4;143.9841273;
REPSWITCH1/PICTURE_48.png;bombero;type;darkblue;filler;1;F;1;1;1;1;Stim7_Set4;0;None;20;19;20;0;19;19;19;;;;;;;;;;;;;;;;;;;;;;;112.1375823;113.3390857;113.3390857;113.3390857;113.3390857;113.3390857;113.3390857;113.3390857;113.3390857;['b', 'o', 'm', 'b', 'e', 'r', 'o'];0;[0.9134681997820735, 1.0818603998050094, 1.1915297000668943, 1.3958037002012134, 1.4907522997818887, 1.5366365001536906, 1.6353084999136627];bombero;C:\2023\REPSWITCH21092023\REPSWITCH_excgange\REPSWITCH_excgange\data/410101_REPSWITCH1_version1_list1_2023-12-14_13h41.53.845_micRespv1l1_recorded\recording_micRespv1l1_2023-12-14_13h43.43.099.wav;116.3672353;116.8672902;None;116.3672353;116.3672353;116.3672353;116.3672353;116.3672353;116.3672353;;;;;;410101;1;2023-12-14_13h41.53.845;REPSWITCH1_version1_list1;2022.2.4;143.9841273;
REPSWITCH1/PICTURE_142.png;vaso;type;darkblue;nontarget;1;NT;1;1;1;1;Stim7_Set1;1;repeat;21;20;21;0;20;20;20;;;;;;;;;;;;;;;;;;;;;;;116.8672902;118.0202027;118.0202027;118.0202027;118.0202027;118.0202027;118.0202027;118.0202027;118.0202027;['v', 'a', 's', 'o'];0;[0.8057587002404034, 0.8944693002849817, 0.9193853000178933, 1.0552215999923646];vaso;C:\2023\REPSWITCH21092023\REPSWITCH_excgange\REPSWITCH_excgange\data/410101_REPSWITCH1_version1_list1_2023-12-14_13h41.53.845_micRespv1l1_recorded\recording_micRespv1l1_2023-12-14_13h43.47.779.wav;121.0484149;;None;121.0484149;121.0484149;121.0484149;121.0484149;121.0484149;121.0484149;;;;;;410101;1;2023-12-14_13h41.53.845;REPSWITCH1_version1_list1;2022.2.4;143.9841273;
REPSWITCH1/PICTURE_142.png;vaso;type;darkblue;repeat;1;T;1;1;1;1;Stim7_Set1;0;None;22;21;22;0;21;21;21;;;;;;;;;;;;;;;;;;;;;;;121.5484609;122.6180361;122.6180361;122.6180361;122.6180361;122.6180361;122.6180361;122.6180361;122.6180361;['v', 'a', 's', 'o'];0;[0.6578441001474857, 0.7187655000016093, 0.8426680001430213, 1.0041252998635173];vaso;C:\2023\REPSWITCH21092023\REPSWITCH_excgange\REPSWITCH_excgange\data/410101_REPSWITCH1_version1_list1_2023-12-14_13h41.53.845_micRespv1l1_recorded\recording_micRespv1l1_2023-12-14_13h43.52.377.wav;125.6392737;126.1394083;None;125.6392737;125.6392737;125.6392737;125.6392737;125.6392737;125.6392737;;;;;;410101;1;2023-12-14_13h41.53.845;REPSWITCH1_version1_list1;2022.2.4;143.9841273;
REPSWITCH1/PICTURE_338.png;regalo;speak;gold;filler;2;F;1;1;1;1;Stim6_Set4;1;switch;23;22;23;0;22;22;22;;;;;;;;;;;;;;;;;;;;;;;126.1394083;127.215859;127.215859;127.215859;127.215859;127.215859;127.215859;127.215859;127.215859;None;0;;;C:\2023\REPSWITCH21092023\REPSWITCH_excgange\REPSWITCH_excgange\data/410101_REPSWITCH1_version1_list1_2023-12-14_13h41.53.845_micRespv1l1_recorded\recording_micRespv1l1_2023-12-14_13h43.56.975.wav;130.2440238;;None;130.2440238;130.2440238;130.2440238;130.2440238;130.2440238;130.2440238;;;;;;410101;1;2023-12-14_13h41.53.845;REPSWITCH1_version1_list1;2022.2.4;143.9841273;
REPSWITCH1/PICTURE_728.png;pulpo;type;darkblue;filler;1;F;1;1;1;1;Stim8_Set4;1;switch;24;23;24;0;23;23;23;;;;;;;;;;;;;;;;;;;;;;;130.7441115;131.82765;131.82765;131.82765;131.82765;131.82765;131.82765;131.82765;131.82765;['p', 'u', 'l', 'p', 'o'];0;[0.777216600254178, 0.9646050999872386, 1.1334135001525283, 1.3377386000938714, 1.3835746999830008];pulpo;C:\2023\REPSWITCH21092023\REPSWITCH_excgange\REPSWITCH_excgange\data/410101_REPSWITCH1_version1_list1_2023-12-14_13h41.53.845_micRespv1l1_recorded\recording_micRespv1l1_2023-12-14_13h44.01.586.wav;134.8487868;135.3488645;None;134.8487868;134.8487868;134.8487868;134.8487868;134.8487868;134.8487868;;;;;;410101;1;2023-12-14_13h41.53.845;REPSWITCH1_version1_list1;2022.2.4;143.9841273;
REPSWITCH1/PICTURE_169.png;espalda;type;darkblue;nontarget;1;NT;1;1;1;1;Stim8_Set1;1;repeat;25;24;25;0;24;24;24;;;;;;;;;;;;;;;;;;;;;;;135.3488645;136.4115819;136.4115819;136.4115819;136.4115819;136.4115819;136.4115819;136.4115819;136.4115819;['e', 's', 'p', 'a', 'l', 'd', 'a'];0;[0.889357800129801, 1.0831495998427272, 1.1808205000124872, 1.3014535000547767, 1.397441300097853, 1.4761417000554502, 1.5242010997608304];espalda;C:\2023\REPSWITCH21092023\REPSWITCH_excgange\REPSWITCH_excgange\data/410101_REPSWITCH1_version1_list1_2023-12-14_13h41.53.845_micRespv1l1_recorded\recording_micRespv1l1_2023-12-14_13h44.06.170.wav;139.4327507;139.9327791;None;139.4327507;139.4327507;139.4327507;139.4327507;139.4327507;139.4327507;;;;;;410101;1;2023-12-14_13h41.53.845;REPSWITCH1_version1_list1;2022.2.4;143.9841273;
REPSWITCH1/PICTURE_169.png;espalda;speak;gold;switch;2;T;1;1;1;1;Stim8_Set1;0;None;26;25;26;0;25;25;25;;;;;;;;;;;;;;;;;;;;;;;139.9327791;140.9954351;140.9954351;140.9954351;140.9954351;140.9954351;140.9954351;140.9954351;140.9954351;None;0;;;C:\2023\REPSWITCH21092023\REPSWITCH_excgange\REPSWITCH_excgange\data/410101_REPSWITCH1_version1_list1_2023-12-14_13h41.53.845_micRespv1l1_recorded\recording_micRespv1l1_2023-12-14_13h44.10.755.wav;144.0166882;144.5167458;None;144.0166882;144.0166882;144.0166882;144.0166882;144.0166882;144.0166882;;;;;;410101;1;2023-12-14_13h41.53.845;REPSWITCH1_version1_list1;2022.2.4;143.9841273;
REPSWITCH1/PICTURE_178.png;puente;speak;gold;filler;2;F;2;1;1;1;Stim1_Set1;0;None;27;26;27;0;26;26;26;;;;;;;;;;;;;;;;;;;;;;;144.5167458;145.7113511;145.7113511;145.7113511;145.7113511;145.7113511;145.7113511;145.7113511;145.7113511;None;0;;;C:\2023\REPSWITCH21092023\REPSWITCH_excgange\REPSWITCH_excgange\data/410101_REPSWITCH1_version1_list1_2023-12-14_13h41.53.845_micRespv1l1_recorded\recording_micRespv1l1_2023-12-14_13h44.15.470.wav;148.7325457;149.2326379;None;148.7325457;148.7325457;148.7325457;148.7325457;148.7325457;148.7325457;;;;;;410101;1;2023-12-14_13h41.53.845;REPSWITCH1_version1_list1;2022.2.4;143.9841273;
REPSWITCH1/PICTURE_175.png;pintor;type;darkblue;nontarget;1;NT;2;1;1;1;Stim1_Set2;1;switch;28;27;28;0;27;27;27;;;;;;;;;;;;;;;;;;;;;;;149.2326379;150.4203644;150.4203644;150.4203644;150.4203644;150.4203644;150.4203644;150.4203644;150.4203644;['p', 'i', 'n', 't', 'o', 'r'];0;[0.8701773001812398, 1.0874398997984827, 1.3067184002138674, 1.5030745998956263, 1.6315879002213478, 1.7169508999213576];pintor;C:\2023\REPSWITCH21092023\REPSWITCH_excgange\REPSWITCH_excgange\data/410101_REPSWITCH1_version1_list1_2023-12-14_13h41.53.845_micRespv1l1_recorded\recording_micRespv1l1_2023-12-14_13h44.20.180.wav;153.4484755;;None;153.4484755;153.4484755;153.4484755;153.4484755;153.4484755;153.4484755;;;;;;410101;1;2023-12-14_13h41.53.845;REPSWITCH1_version1_list1;2022.2.4;143.9841273;
REPSWITCH1/PICTURE_175.png;pintor;type;darkblue;repeat;1;T;2;1;1;1;Stim1_Set2;0;None;29;28;29;0;28;28;28;;;;;;;;;;;;;;;;;;;;;;;153.9485342;154.9834087;154.9834087;154.9834087;154.9834087;154.9834087;154.9834087;154.9834087;154.9834087;['p', 'i', 'n', 't', 'o', 'r'];0;[0.6898634000681341, 0.8463308000937104, 0.9190989998169243, 1.005830599926412, 1.1413353998214006, 1.255925899837166];pintor;C:\2023\REPSWITCH21092023\REPSWITCH_excgange\REPSWITCH_excgange\data/410101_REPSWITCH1_version1_list1_2023-12-14_13h41.53.845_micRespv1l1_recorded\recording_micRespv1l1_2023-12-14_13h44.24.743.wav;158.0045977;158.5047;None;158.0045977;158.0045977;158.0045977;158.0045977;158.0045977;158.0045977;;;;;;410101;1;2023-12-14_13h41.53.845;REPSWITCH1_version1_list1;2022.2.4;143.9841273;
REPSWITCH1/PICTURE_381.png;fresa;speak;gold;filler;2;F;2;1;1;1;Stim2_Set1;0;None;30;29;30;0;29;29;29;;;;;;;;;;;;;;;;;;;;;;;158.5047;159.6160254;159.6160254;159.6160254;159.6160254;159.6160254;159.6160254;159.6160254;159.6160254;None;0;;;C:\2023\REPSWITCH21092023\REPSWITCH_excgange\REPSWITCH_excgange\data/410101_REPSWITCH1_version1_list1_2023-12-14_13h41.53.845_micRespv1l1_recorded\recording_micRespv1l1_2023-12-14_13h44.29.375.wav;162.6371816;163.1372514;None;162.6371816;162.6371816;162.6371816;162.6371816;162.6371816;162.6371816;;;;;;410101;1;2023-12-14_13h41.53.845;REPSWITCH1_version1_list1;2022.2.4;143.9841273;
REPSWITCH1/PICTURE_152.png;caracol;type;darkblue;nontarget;1;NT;2;1;1;1;Stim2_Set2;1;switch;31;30;31;0;30;30;30;;;;;;;;;;;;;;;;;;;;;;;163.1372514;164.255435;164.255435;164.255435;164.255435;164.255435;164.255435;164.255435;164.255435;['c', 'a', 'r', 'a', 'c', 'o', 'l'];0;[0.7532121003605425, 0.8757873000577092, 1.0073518003337085, 1.0820965003222227, 1.2418617000803351, 1.3398376004770398, 1.4949801000766456];caracol;C:\2023\REPSWITCH21092023\REPSWITCH_excgange\REPSWITCH_excgange\data/410101_REPSWITCH1_version1_list1_2023-12-14_13h41.53.845_micRespv1l1_recorded\recording_micRespv1l1_2023-12-14_13h44.34.015.wav;167.283617;;None;167.283617;167.283617;167.283617;167.283617;167.283617;167.283617;;;;;;410101;1;2023-12-14_13h41.53.845;REPSWITCH1_version1_list1;2022.2.4;143.9841273;
REPSWITCH1/PICTURE_152.png;caracol;type;darkblue;repeat;1;T;2;1;1;1;Stim2_Set2;0;None;32;31;32;0;31;31;31;;;;;;;;;;;;;;;;;;;;;;;167.7836547;168.8046777;168.8046777;168.8046777;168.8046777;168.8046777;168.8046777;168.8046777;168.8046777;['c', 'a', 'r', 'a', 'c', 'o', 'l'];0;[0.6032058000564575, 0.6689841002225876, 0.8154851999133825, 0.9021960003301501, 1.0920363003388047, 1.1517757000401616, 1.3162259003147483];caracol;C:\2023\REPSWITCH21092023\REPSWITCH_excgange\REPSWITCH_excgange\data/410101_REPSWITCH1_version1_list1_2023-12-14_13h41.53.845_micRespv1l1_recorded\recording_micRespv1l1_2023-12-14_13h44.38.565.wav;171.8328331;;None;171.8328331;171.8328331;171.8328331;171.8328331;171.8328331;171.8328331;;;;;;410101;1;2023-12-14_13h41.53.845;REPSWITCH1_version1_list1;2022.2.4;143.9841273;
REPSWITCH1/PICTURE_128.png;muñeca;speak;gold;filler;2;F;2;1;1;1;Stim4_Set1;0;None;33;32;33;0;32;32;32;;;;;;;;;;;;;;;;;;;;;;;172.3328758;173.367775;173.367775;173.367775;173.367775;173.367775;173.367775;173.367775;173.367775;None;0;;;C:\2023\REPSWITCH21092023\REPSWITCH_excgange\REPSWITCH_excgange\data/410101_REPSWITCH1_version1_list1_2023-12-14_13h41.53.845_micRespv1l1_recorded\recording_micRespv1l1_2023-12-14_13h44.43.127.wav;176.3959648;;None;176.3959648;176.3959648;176.3959648;176.3959648;176.3959648;176.3959648;;;;;;410101;1;2023-12-14_13h41.53.845;REPSWITCH1_version1_list1;2022.2.4;143.9841273;
REPSWITCH1/PICTURE_264.png;mano;type;darkblue;nontarget;1;NT;2;1;1;1;Stim3_Set2;0;None;34;33;34;0;33;33;33;;;;;;;;;;;;;;;;;;;;;;;176.8959699;177.9239185;177.9239185;177.9239185;177.9239185;177.9239185;177.9239185;177.9239185;177.9239185;['m', 'a', 'n', 'o'];0;[0.6436761999502778, 0.7363276001997292, 0.8240451002493501, 0.8779004001989961];mano;C:\2023\REPSWITCH21092023\REPSWITCH_excgange\REPSWITCH_excgange\data/410101_REPSWITCH1_version1_list1_2023-12-14_13h41.53.845_micRespv1l1_recorded\recording_micRespv1l1_2023-12-14_13h44.47.683.wav;180.9451168;181.445203;None;180.9451168;180.9451168;180.9451168;180.9451168;180.9451168;180.9451168;;;;;;410101;1;2023-12-14_13h41.53.845;REPSWITCH1_version1_list1;2022.2.4;143.9841273;
REPSWITCH1/PICTURE_264.png;mano;speak;gold;switch;2;T;2;1;1;1;Stim3_Set2;0;None;35;34;35;0;34;34;34;;;;;;;;;;;;;;;;;;;;;;;181.445203;182.5078309;182.5078309;182.5078309;182.5078309;182.5078309;182.5078309;182.5078309;182.5078309;['m'];0;[0.5624222001060843];m;C:\2023\REPSWITCH21092023\REPSWITCH_excgange\REPSWITCH_excgange\data/410101_REPSWITCH1_version1_list1_2023-12-14_13h41.53.845_micRespv1l1_recorded\recording_micRespv1l1_2023-12-14_13h44.52.267.wav;185.5360523;;None;185.5360523;185.5360523;185.5360523;185.5360523;185.5360523;185.5360523;;;;;;410101;1;2023-12-14_13h41.53.845;REPSWITCH1_version1_list1;2022.2.4;143.9841273;
REPSWITCH1/PICTURE_517.png;cuerda;speak;gold;nontarget;2;NT;2;1;1;1;Stim4_Set2;1;repeat;36;35;36;0;35;35;35;;;;;;;;;;;;;;;;;;;;;;;186.0360851;187.0917544;187.0917544;187.0917544;187.0917544;187.0917544;187.0917544;187.0917544;187.0917544;None;0;;;C:\2023\REPSWITCH21092023\REPSWITCH_excgange\REPSWITCH_excgange\data/410101_REPSWITCH1_version1_list1_2023-12-14_13h41.53.845_micRespv1l1_recorded\recording_micRespv1l1_2023-12-14_13h44.56.851.wav;190.1199252;;None;190.1199252;190.1199252;190.1199252;190.1199252;190.1199252;190.1199252;;;;;;410101;1;2023-12-14_13h41.53.845;REPSWITCH1_version1_list1;2022.2.4;143.9841273;
REPSWITCH1/PICTURE_517.png;cuerda;type;darkblue;switch;1;T;2;1;1;1;Stim4_Set2;0;None;37;36;37;0;36;36;36;;;;;;;;;;;;;;;;;;;;;;;190.6200134;191.7173904;191.7173904;191.7173904;191.7173904;191.7173904;191.7173904;191.7173904;191.7173904;['c', 'u', 'e', 'r', 'd', 'a'];0;[0.7220078003592789, 0.8171739000827074, 0.914851600304246, 0.950727500487119, 1.1371044004336, 1.1759857004508376];cuerda;C:\2023\REPSWITCH21092023\REPSWITCH_excgange\REPSWITCH_excgange\data/410101_REPSWITCH1_version1_list1_2023-12-14_13h41.53.845_micRespv1l1_recorded\recording_micRespv1l1_2023-12-14_13h45.01.476.wav;194.7385999;195.2386995;None;194.7385999;194.7385999;194.7385999;194.7385999;194.7385999;194.7385999;;;;;;410101;1;2023-12-14_13h41.53.845;REPSWITCH1_version1_list1;2022.2.4;143.9841273;
REPSWITCH1/PICTURE_135.png;traje;type;darkblue;filler;1;F;2;1;1;1;Stim3_Set1;0;None;38;37;38;0;37;37;37;;;;;;;;;;;;;;;;;;;;;;;195.2386995;196.384637;196.384637;196.384637;196.384637;196.384637;196.384637;196.384637;196.384637;['t', 'r', 'a', 'j', 'e'];0;[0.9122516000643373, 0.9630435002036393, 1.1016151001676917, 1.1833401001058519, 1.5303958002477884];traje;C:\2023\REPSWITCH21092023\REPSWITCH_excgange\REPSWITCH_excgange\data/410101_REPSWITCH1_version1_list1_2023-12-14_13h41.53.845_micRespv1l1_recorded\recording_micRespv1l1_2023-12-14_13h45.06.144.wav;199.4128094;199.9128794;None;199.4128094;199.4128094;199.4128094;199.4128094;199.4128094;199.4128094;;;;;;410101;1;2023-12-14_13h41.53.845;REPSWITCH1_version1_list1;2022.2.4;143.9841273;
REPSWITCH1/PICTURE_30.png;granja;type;darkblue;nontarget;1;NT;2;1;1;1;Stim5_Set2;1;repeat;39;38;39;0;38;38;38;;;;;;;;;;;;;;;;;;;;;;;199.9128794;201.0727868;201.0727868;201.0727868;201.0727868;201.0727868;201.0727868;201.0727868;201.0727868;['g', 'r', 'a', 'n', 'j', 'a'];0;[0.9419300002045929, 1.0087000001221895, 1.1731208004057407, 1.2977245002985, 1.4173544002696872, 1.524949800223112];granja;C:\2023\REPSWITCH21092023\REPSWITCH_excgange\REPSWITCH_excgange\data/410101_REPSWITCH1_version1_list1_2023-12-14_13h41.53.845_micRespv1l1_recorded\recording_micRespv1l1_2023-12-14_13h45.10.832.wav;204.1009236;;None;204.1009236;204.1009236;204.1009236;204.1009236;204.1009236;204.1009236;;;;;;410101;1;2023-12-14_13h41.53.845;REPSWITCH1_version1_list1;2022.2.4;143.9841273;
REPSWITCH1/PICTURE_30.png;granja;speak;gold;switch;2;T;2;1;1;1;Stim5_Set2;0;None;40;39;40;0;39;39;39;;;;;;;;;;;;;;;;;;;;;;;204.6010176;205.823428;205.823428;205.823428;205.823428;205.823428;205.823428;205.823428;205.823428;None;0;;;C:\2023\REPSWITCH21092023\REPSWITCH_excgange\REPSWITCH_excgange\data/410101_REPSWITCH1_version1_list1_2023-12-14_13h41.53.845_micRespv1l1_recorded\recording_micRespv1l1_2023-12-14_13h45.15.584.wav;208.8515803;209.3516378;None;208.8515803;208.8515803;208.8515803;208.8515803;208.8515803;208.8515803;;;;;;410101;1;2023-12-14_13h41.53.845;REPSWITCH1_version1_list1;2022.2.4;143.9841273;
REPSWITCH1/PICTURE_142.png;vaso;type;darkblue;filler;1;F;2;1;1;1;Stim7_Set1;0;None;41;40;41;0;40;40;40;;;;;;;;;;;;;;;;;;;;;;;209.3516378;210.455957;210.455957;210.455957;210.455957;210.455957;210.455957;210.455957;210.455957;['v', 'a', 's', 'o'];0;[0.8421999998390675, 0.9238988002762198, 0.9677738002501428, 1.13821109989658];vaso;C:\2023\REPSWITCH21092023\REPSWITCH_excgange\REPSWITCH_excgange\data/410101_REPSWITCH1_version1_list1_2023-12-14_13h41.53.845_micRespv1l1_recorded\recording_micRespv1l1_2023-12-14_13h45.20.215.wav;213.4771644;213.9773128;None;213.4771644;213.4771644;213.4771644;213.4771644;213.4771644;213.4771644;;;;;;410101;1;2023-12-14_13h41.53.845;REPSWITCH1_version1_list1;2022.2.4;143.9841273;
REPSWITCH1/PICTURE_19.png;pavo;speak;gold;filler;2;F;2;1;1;1;Stim5_Set1;1;switch;42;41;42;0;41;41;41;;;;;;;;;;;;;;;;;;;;;;;213.9773128;215.144125;215.144125;215.144125;215.144125;215.144125;215.144125;215.144125;215.144125;None;0;;;C:\2023\REPSWITCH21092023\REPSWITCH_excgange\REPSWITCH_excgange\data/410101_REPSWITCH1_version1_list1_2023-12-14_13h41.53.845_micRespv1l1_recorded\recording_micRespv1l1_2023-12-14_13h45.24.904.wav;218.1722501;;None;218.1722501;218.1722501;218.1722501;218.1722501;218.1722501;218.1722501;;;;;;410101;1;2023-12-14_13h41.53.845;REPSWITCH1_version1_list1;2022.2.4;143.9841273;
REPSWITCH1/PICTURE_552.png;manzana;speak;gold;nontarget;2;NT;2;1;1;1;Stim6_Set2;1;repeat;43;42;43;0;42;42;42;;;;;;;;;;;;;;;;;;;;;;;218.6722976;219.7766079;219.7766079;219.7766079;219.7766079;219.7766079;219.7766079;219.7766079;219.7766079;None;0;;;C:\2023\REPSWITCH21092023\REPSWITCH_excgange\REPSWITCH_excgange\data/410101_REPSWITCH1_version1_list1_2023-12-14_13h41.53.845_micRespv1l1_recorded\recording_micRespv1l1_2023-12-14_13h45.29.537.wav;222.8047532;;None;222.8047532;222.8047532;222.8047532;222.8047532;222.8047532;222.8047532;;;;;;410101;1;2023-12-14_13h41.53.845;REPSWITCH1_version1_list1;2022.2.4;143.9841273;
REPSWITCH1/PICTURE_552.png;manzana;speak;gold;repeat;2;T;2;1;1;1;Stim6_Set2;0;None;44;43;44;0;43;43;43;;;;;;;;;;;;;;;;;;;;;;;223.3049031;224.3605722;224.3605722;224.3605722;224.3605722;224.3605722;224.3605722;224.3605722;224.3605722;None;0;;;C:\2023\REPSWITCH21092023\REPSWITCH_excgange\REPSWITCH_excgange\data/410101_REPSWITCH1_version1_list1_2023-12-14_13h41.53.845_micRespv1l1_recorded\recording_micRespv1l1_2023-12-14_13h45.34.121.wav;227.3886932;;None;227.3886932;227.3886932;227.3886932;227.3886932;227.3886932;227.3886932;;;;;;410101;1;2023-12-14_13h41.53.845;REPSWITCH1_version1_list1;2022.2.4;143.9841273;
REPSWITCH1/PICTURE_16.png;cazador;type;darkblue;filler;1;F;2;1;1;1;Stim6_Set1;0;None;45;44;45;0;44;44;44;;;;;;;;;;;;;;;;;;;;;;;227.8888422;228.9444963;228.9444963;228.9444963;228.9444963;228.9444963;228.9444963;228.9444963;228.9444963;['c', 'a', 'z', 'a', 'd', 'o', 'r'];0;[0.7336758999153972, 0.8123564999550581, 1.0376249998807907, 1.2260141000151634, 1.3546418999321759, 1.4899796997196972, 1.5896517997607589];cazador;C:\2023\REPSWITCH21092023\REPSWITCH_excgange\REPSWITCH_excgange\data/410101_REPSWITCH1_version1_list1_2023-12-14_13h41.53.845_micRespv1l1_recorded\recording_micRespv1l1_2023-12-14_13h45.38.703.wav;231.9656949;232.4657579;None;231.9656949;231.9656949;231.9656949;231.9656949;231.9656949;231.9656949;;;;;;410101;1;2023-12-14_13h41.53.845;REPSWITCH1_version1_list1;2022.2.4;143.9841273;
REPSWITCH1/PICTURE_446.png;cerdo;speak;gold;nontarget;2;NT;2;1;1;1;Stim7_Set2;1;switch;46;45;46;0;45;45;45;;;;;;;;;;;;;;;;;;;;;;;232.4657579;233.556202;233.556202;233.556202;233.556202;233.556202;233.556202;233.556202;233.556202;None;0;;;C:\2023\REPSWITCH21092023\REPSWITCH_excgange\REPSWITCH_excgange\data/410101_REPSWITCH1_version1_list1_2023-12-14_13h41.53.845_micRespv1l1_recorded\recording_micRespv1l1_2023-12-14_13h45.43.315.wav;236.5774485;237.0774896;None;236.5774485;236.5774485;236.5774485;236.5774485;236.5774485;236.5774485;;;;;;410101;1;2023-12-14_13h41.53.845;REPSWITCH1_version1_list1;2022.2.4;143.9841273;
REPSWITCH1/PICTURE_446.png;cerdo;speak;gold;repeat;2;T;2;1;1;1;Stim7_Set2;0;None;47;46;47;0;46;46;46;;;;;;;;;;;;;;;;;;;;;;;237.0774896;238.2998666;238.2998666;238.2998666;238.2998666;238.2998666;238.2998666;238.2998666;238.2998666;None;0;;;C:\2023\REPSWITCH21092023\REPSWITCH_excgange\REPSWITCH_excgange\data/410101_REPSWITCH1_version1_list1_2023-12-14_13h41.53.845_micRespv1l1_recorded\recording_micRespv1l1_2023-12-14_13h45.48.058.wav;241.3211185;241.8211773;None;241.3211185;241.3211185;241.3211185;241.3211185;241.3211185;241.3211185;;;;;;410101;1;2023-12-14_13h41.53.845;REPSWITCH1_version1_list1;2022.2.4;143.9841273;
REPSWITCH1/PICTURE_590.png;escoba;type;darkblue;filler;1;F;2;1;1;1;Extra3;0;None;48;47;48;0;47;47;47;;;;;;;;;;;;;;;;;;;;;;;241.8211773;242.890742;242.890742;242.890742;242.890742;242.890742;242.890742;242.890742;242.890742;['e', 's', 'c', 'o', 'b', 'a'];0;[1.6273524002172053, 1.7300021001137793, 1.920385000295937, 1.9901368003338575, 2.1186910001561046, 2.19446980021894];escoba;C:\2023\REPSWITCH21092023\REPSWITCH_excgange\REPSWITCH_excgange\data/410101_REPSWITCH1_version1_list1_2023-12-14_13h41.53.845_micRespv1l1_recorded\recording_micRespv1l1_2023-12-14_13h45.52.650.wav;245.9189154;;None;245.9189154;245.9189154;245.9189154;245.9189154;245.9189154;245.9189154;;;;;;410101;1;2023-12-14_13h41.53.845;REPSWITCH1_version1_list1;2022.2.4;143.9841273;
REPSWITCH1/PICTURE_169.png;espalda;speak;gold;filler;2;F;2;1;1;1;Stim8_Set1;0;None;49;48;49;0;48;48;48;;;;;;;;;;;;;;;;;;;;;;;246.4190002;247.5580501;247.5580501;247.5580501;247.5580501;247.5580501;247.5580501;247.5580501;247.5580501;None;0;;;C:\2023\REPSWITCH21092023\REPSWITCH_excgange\REPSWITCH_excgange\data/410101_REPSWITCH1_version1_list1_2023-12-14_13h41.53.845_micRespv1l1_recorded\recording_micRespv1l1_2023-12-14_13h45.57.317.wav;250.586277;;None;250.586277;250.586277;250.586277;250.586277;250.586277;250.586277;;;;;;410101;1;2023-12-14_13h41.53.845;REPSWITCH1_version1_list1;2022.2.4;143.9841273;
REPSWITCH1/PICTURE_199.png;falda;speak;gold;nontarget;2;NT;2;1;1;1;Stim8_Set2;1;repeat;50;49;50;0;49;49;49;;;;;;;;;;;;;;;;;;;;;;;251.0862799;252.2948368;252.2948368;252.2948368;252.2948368;252.2948368;252.2948368;252.2948368;252.2948368;None;0;;;C:\2023\REPSWITCH21092023\REPSWITCH_excgange\REPSWITCH_excgange\data/410101_REPSWITCH1_version1_list1_2023-12-14_13h41.53.845_micRespv1l1_recorded\recording_micRespv1l1_2023-12-14_13h46.02.054.wav;255.3160719;255.8160529;None;255.3160719;255.3160719;255.3160719;255.3160719;255.3160719;255.3160719;;;;;;410101;1;2023-12-14_13h41.53.845;REPSWITCH1_version1_list1;2022.2.4;143.9841273;
REPSWITCH1/PICTURE_199.png;falda;type;darkblue;switch;1;T;2;1;1;1;Stim8_Set2;0;None;51;50;51;0;50;50;50;;;;;;;;;;;;;;;;;;;;;;;255.8160529;256.9135005;256.9135005;256.9135005;256.9135005;256.9135005;256.9135005;256.9135005;256.9135005;['f', 'a', 'l', 'd', 'a'];0;[0.9612658997066319, 1.0508151999674737, 1.182308599818498, 1.2712441999465227, 1.3425742001272738];falda;C:\2023\REPSWITCH21092023\REPSWITCH_excgange\REPSWITCH_excgange\data/410101_REPSWITCH1_version1_list1_2023-12-14_13h41.53.845_micRespv1l1_recorded\recording_micRespv1l1_2023-12-14_13h46.06.673.wav;259.9416052;;space;259.9416052;259.9416052;259.9416052;259.9416052;259.9416052;259.9416052;260.4417077;260.4417077;7.9432842;;;410101;1;2023-12-14_13h41.53.845;REPSWITCH1_version1_list1;2022.2.4;143.9841273;
REPSWITCH1/PICTURE_576.png;guante;type;darkblue;nontarget;1;NT;3;1;1;1;Stim1_Set3;0;None;52;51;52;0;51;51;51;;;;;;;;;;;;;;;;;;;;;;;268.3940914;269.5609081;269.5609081;269.5609081;269.5609081;269.5609081;269.5609081;269.5609081;269.5609081;['g', 'u', 'a', 'n', 't', 'e'];0;[1.3183906003832817, 1.4239922002889216, 1.4975060001015663, 1.5938794002868235, 1.672643500380218, 1.9497209005057812];guante;C:\2023\REPSWITCH21092023\REPSWITCH_excgange\REPSWITCH_excgange\data/410101_REPSWITCH1_version1_list1_2023-12-14_13h41.53.845_micRespv1l1_recorded\recording_micRespv1l1_2023-12-14_13h46.19.320.wav;272.5891039;;None;272.5891039;272.5891039;272.5891039;272.5891039;272.5891039;272.5891039;;;;;;410101;1;2023-12-14_13h41.53.845;REPSWITCH1_version1_list1;2022.2.4;143.9841273;
REPSWITCH1/PICTURE_576.png;guante;speak;gold;switch;2;T;3;1;1;1;Stim1_Set3;0;None;53;52;53;0;52;52;52;;;;;;;;;;;;;;;;;;;;;;;273.0891572;274.1101518;274.1101518;274.1101518;274.1101518;274.1101518;274.1101518;274.1101518;274.1101518;None;0;;;C:\2023\REPSWITCH21092023\REPSWITCH_excgange\REPSWITCH_excgange\data/410101_REPSWITCH1_version1_list1_2023-12-14_13h41.53.845_micRespv1l1_recorded\recording_micRespv1l1_2023-12-14_13h46.23.869.wav;277.1314454;277.6314293;None;277.1314454;277.1314454;277.1314454;277.1314454;277.1314454;277.1314454;;;;;;410101;1;2023-12-14_13h41.53.845;REPSWITCH1_version1_list1;2022.2.4;143.9841273;
REPSWITCH1/PICTURE_646.png;tronco;speak;gold;filler;2;F;3;1;1;1;Extra4;0;None;54;53;54;0;53;53;53;;;;;;;;;;;;;;;;;;;;;;;277.6314293;278.7773874;278.7773874;278.7773874;278.7773874;278.7773874;278.7773874;278.7773874;278.7773874;None;0;;;C:\2023\REPSWITCH21092023\REPSWITCH_excgange\REPSWITCH_excgange\data/410101_REPSWITCH1_version1_list1_2023-12-14_13h41.53.845_micRespv1l1_recorded\recording_micRespv1l1_2023-12-14_13h46.28.537.wav;281.8056092;;None;281.8056092;281.8056092;281.8056092;281.8056092;281.8056092;281.8056092;;;;;;410101;1;2023-12-14_13h41.53.845;REPSWITCH1_version1_list1;2022.2.4;143.9841273;
REPSWITCH1/PICTURE_610.png;miel;speak;gold;nontarget;2;NT;3;1;1;1;Stim2_Set3;1;repeat;55;54;55;0;54;54;54;;;;;;;;;;;;;;;;;;;;;;;282.3057233;283.340516;283.340516;283.340516;283.340516;283.340516;283.340516;283.340516;283.340516;None;0;;;C:\2023\REPSWITCH21092023\REPSWITCH_excgange\REPSWITCH_excgange\data/410101_REPSWITCH1_version1_list1_2023-12-14_13h41.53.845_micRespv1l1_recorded\recording_micRespv1l1_2023-12-14_13h46.33.100.wav;286.3617457;286.86178;None;286.3617457;286.3617457;286.3617457;286.3617457;286.3617457;286.3617457;;;;;;410101;1;2023-12-14_13h41.53.845;REPSWITCH1_version1_list1;2022.2.4;143.9841273;
REPSWITCH1/PICTURE_610.png;miel;type;darkblue;switch;1;T;3;1;1;1;Stim2_Set3;0;None;56;55;56;0;55;55;55;;;;;;;;;;;;;;;;;;;;;;;286.86178;287.9591605;287.9591605;287.9591605;287.9591605;287.9591605;287.9591605;287.9591605;287.9591605;['m', 'i', 'e', 'l'];0;[0.7603274001739919, 0.8320725001394749, 0.9397792001254857, 1.0316591998562217];miel;C:\2023\REPSWITCH21092023\REPSWITCH_excgange\REPSWITCH_excgange\data/410101_REPSWITCH1_version1_list1_2023-12-14_13h41.53.845_micRespv1l1_recorded\recording_micRespv1l1_2023-12-14_13h46.37.718.wav;290.9803775;291.4804679;None;290.9803775;290.9803775;290.9803775;290.9803775;290.9803775;290.9803775;;;;;;410101;1;2023-12-14_13h41.53.845;REPSWITCH1_version1_list1;2022.2.4;143.9841273;
REPSWITCH1/PICTURE_175.png;pintor;type;darkblue;filler;1;F;3;1;1;1;Stim1_Set2;1;repeat;57;56;57;0;56;56;56;;;;;;;;;;;;;;;;;;;;;;;291.4804679;292.5362175;292.5362175;292.5362175;292.5362175;292.5362175;292.5362175;292.5362175;292.5362175;['p', 'i', 'i', 'n', 't', 'o', 'r'];0;[0.8821531003341079, 1.4554016003385186, 1.5560685000382364, 1.5640342002734542, 1.714579500257969, 1.8354915999807417, 1.918211900163442];piintor;C:\2023\REPSWITCH21092023\REPSWITCH_excgange\REPSWITCH_excgange\data/410101_REPSWITCH1_version1_list1_2023-12-14_13h41.53.845_micRespv1l1_recorded\recording_micRespv1l1_2023-12-14_13h46.42.296.wav;295.557396;296.0575323;None;295.557396;295.557396;295.557396;295.557396;295.557396;295.557396;;;;;;410101;1;2023-12-14_13h41.53.845;REPSWITCH1_version1_list1;2022.2.4;143.9841273;
REPSWITCH1/PICTURE_242.png;cartero;type;darkblue;nontarget;1;NT;3;1;1;1;Stim3_Set3;1;repeat;58;57;58;0;57;57;57;;;;;;;;;;;;;;;;;;;;;;;296.0575323;297.1340813;297.1340813;297.1340813;297.1340813;297.1340813;297.1340813;297.1340813;297.1340813;['c', 'a', 'r', 't', 'e', 'r', 'o'];0;[1.3939589001238346, 1.5952743999660015, 1.7269009998999536, 1.8890275997109711, 1.9607898998074234, 2.136522399727255, 2.216332799755037];cartero;C:\2023\REPSWITCH21092023\REPSWITCH_excgange\REPSWITCH_excgange\data/410101_REPSWITCH1_version1_list1_2023-12-14_13h41.53.845_micRespv1l1_recorded\recording_micRespv1l1_2023-12-14_13h46.46.894.wav;300.162156;;None;300.162156;300.162156;300.162156;300.162156;300.162156;300.162156;;;;;;410101;1;2023-12-14_13h41.53.845;REPSWITCH1_version1_list1;2022.2.4;143.9841273;
REPSWITCH1/PICTURE_242.png;cartero;speak;gold;switch;2;T;3;1;1;1;Stim3_Set3;0;None;59;58;59;0;58;58;58;;;;;;;;;;;;;;;;;;;;;;;300.6622118;301.7526893;301.7526893;301.7526893;301.7526893;301.7526893;301.7526893;301.7526893;301.7526893;None;0;;;C:\2023\REPSWITCH21092023\REPSWITCH_excgange\REPSWITCH_excgange\data/410101_REPSWITCH1_version1_list1_2023-12-14_13h41.53.845_micRespv1l1_recorded\recording_micRespv1l1_2023-12-14_13h46.51.512.wav;304.7738567;305.273918;None;304.7738567;304.7738567;304.7738567;304.7738567;304.7738567;304.7738567;;;;;;410101;1;2023-12-14_13h41.53.845;REPSWITCH1_version1_list1;2022.2.4;143.9841273;
REPSWITCH1/PICTURE_152.png;caracol;speak;gold;filler;2;F;3;1;1;1;Stim2_Set2;0;None;60;59;60;0;59;59;59;;;;;;;;;;;;;;;;;;;;;;;305.273918;306.3644163;306.3644163;306.3644163;306.3644163;306.3644163;306.3644163;306.3644163;306.3644163;None;0;;;C:\2023\REPSWITCH21092023\REPSWITCH_excgange\REPSWITCH_excgange\data/410101_REPSWITCH1_version1_list1_2023-12-14_13h41.53.845_micRespv1l1_recorded\recording_micRespv1l1_2023-12-14_13h46.56.124.wav;309.3925467;;None;309.3925467;309.3925467;309.3925467;309.3925467;309.3925467;309.3925467;;;;;;410101;1;2023-12-14_13h41.53.845;REPSWITCH1_version1_list1;2022.2.4;143.9841273;
REPSWITCH1/PICTURE_517.png;cuerda;type;darkblue;filler;1;F;3;1;1;1;Stim4_Set2;0;None;61;60;61;0;60;60;60;;;;;;;;;;;;;;;;;;;;;;;309.8925891;311.0107902;311.0107902;311.0107902;311.0107902;311.0107902;311.0107902;311.0107902;311.0107902;['c', 'u', 'e', 'r', 'd', 'a'];0;[0.7692291005514562, 0.9017907003872097, 0.9717086004093289, 0.9986124001443386, 1.1945573003031313, 1.254441600292921];cuerda;C:\2023\REPSWITCH21092023\REPSWITCH_excgange\REPSWITCH_excgange\data/410101_REPSWITCH1_version1_list1_2023-12-14_13h41.53.845_micRespv1l1_recorded\recording_micRespv1l1_2023-12-14_13h47.00.770.wav;314.0320769;314.5321748;None;314.0320769;314.0320769;314.0320769;314.0320769;314.0320769;314.0320769;;;;;;410101;1;2023-12-14_13h41.53.845;REPSWITCH1_version1_list1;2022.2.4;143.9841273;
REPSWITCH1/PICTURE_235.png;aguja;speak;gold;nontarget;2;NT;3;1;1;1;Stim4_Set3;1;switch;62;61;62;0;61;61;61;;;;;;;;;;;;;;;;;;;;;;;314.5321748;315.6017035;315.6017035;315.6017035;315.6017035;315.6017035;315.6017035;315.6017035;315.6017035;None;0;;;C:\2023\REPSWITCH21092023\REPSWITCH_excgange\REPSWITCH_excgange\data/410101_REPSWITCH1_version1_list1_2023-12-14_13h41.53.845_micRespv1l1_recorded\recording_micRespv1l1_2023-12-14_13h47.05.362.wav;318.6229046;319.1229841;None;318.6229046;318.6229046;318.6229046;318.6229046;318.6229046;318.6229046;;;;;;410101;1;2023-12-14_13h41.53.845;REPSWITCH1_version1_list1;2022.2.4;143.9841273;
REPSWITCH1/PICTURE_235.png;aguja;speak;gold;repeat;2;T;3;1;1;1;Stim4_Set3;0;None;63;62;63;0;62;62;62;;;;;;;;;;;;;;;;;;;;;;;319.1229841;320.2481257;320.2481257;320.2481257;320.2481257;320.2481257;320.2481257;320.2481257;320.2481257;None;0;;;C:\2023\REPSWITCH21092023\REPSWITCH_excgange\REPSWITCH_excgange\data/410101_REPSWITCH1_version1_list1_2023-12-14_13h41.53.845_micRespv1l1_recorded\recording_micRespv1l1_2023-12-14_13h47.10.007.wav;323.2693647;323.7694263;None;323.2693647;323.2693647;323.2693647;323.2693647;323.2693647;323.2693647;;;;;;410101;1;2023-12-14_13h41.53.845;REPSWITCH1_version1_list1;2022.2.4;143.9841273;
REPSWITCH1/PICTURE_30.png;granja;type;darkblue;filler;1;F;3;1;1;1;Stim5_Set2;0;None;64;63;64;0;63;63;63;;;;;;;;;;;;;;;;;;;;;;;323.7694263;324.9432068;324.9432068;324.9432068;324.9432068;324.9432068;324.9432068;324.9432068;324.9432068;['g', 'r', 'a', 'n', 'j', 'a'];0;[0.8566011004149914, 0.918340100441128, 1.4495696001686156, 1.6080616004765034, 1.7107085003517568, 1.808376300148666];granja;C:\2023\REPSWITCH21092023\REPSWITCH_excgange\REPSWITCH_excgange\data/410101_REPSWITCH1_version1_list1_2023-12-14_13h41.53.845_micRespv1l1_recorded\recording_micRespv1l1_2023-12-14_13h47.14.703.wav;327.971369;;None;327.971369;327.971369;327.971369;327.971369;327.971369;327.971369;;;;;;410101;1;2023-12-14_13h41.53.845;REPSWITCH1_version1_list1;2022.2.4;143.9841273;
REPSWITCH1/PICTURE_552.png;manzana;speak;gold;filler;2;F;3;1;1;1;Stim6_Set2;1;switch;65;64;65;0;64;64;64;;;;;;;;;;;;;;;;;;;;;;;328.4714267;329.6521323;329.6521323;329.6521323;329.6521323;329.6521323;329.6521323;329.6521323;329.6521323;None;0;;;C:\2023\REPSWITCH21092023\REPSWITCH_excgange\REPSWITCH_excgange\data/410101_REPSWITCH1_version1_list1_2023-12-14_13h41.53.845_micRespv1l1_recorded\recording_micRespv1l1_2023-12-14_13h47.19.411.wav;332.6734347;333.1734334;None;332.6734347;332.6734347;332.6734347;332.6734347;332.6734347;332.6734347;;;;;;410101;1;2023-12-14_13h41.53.845;REPSWITCH1_version1_list1;2022.2.4;143.9841273;
REPSWITCH1/PICTURE_35.png;oreja;speak;gold;nontarget;2;NT;3;1;1;1;Stim5_Set3;1;repeat;66;65;66;0;65;65;65;;;;;;;;;;;;;;;;;;;;;;;333.1734334;334.3541363;334.3541363;334.3541363;334.3541363;334.3541363;334.3541363;334.3541363;334.3541363;None;0;;;C:\2023\REPSWITCH21092023\REPSWITCH_excgange\REPSWITCH_excgange\data/410101_REPSWITCH1_version1_list1_2023-12-14_13h41.53.845_micRespv1l1_recorded\recording_micRespv1l1_2023-12-14_13h47.24.113.wav;337.3754301;337.8754279;None;337.3754301;337.3754301;337.3754301;337.3754301;337.3754301;337.3754301;;;;;;410101;1;2023-12-14_13h41.53.845;REPSWITCH1_version1_list1;2022.2.4;143.9841273;
REPSWITCH1/PICTURE_35.png;oreja;speak;gold;repeat;2;T;3;1;1;1;Stim5_Set3;0;None;67;66;67;0;66;66;66;;;;;;;;;;;;;;;;;;;;;;;337.8754279;339.0909106;339.0909106;339.0909106;339.0909106;339.0909106;339.0909106;339.0909106;339.0909106;None;0;;;C:\2023\REPSWITCH21092023\REPSWITCH_excgange\REPSWITCH_excgange\data/410101_REPSWITCH1_version1_list1_2023-12-14_13h41.53.845_micRespv1l1_recorded\recording_micRespv1l1_2023-12-14_13h47.28.849.wav;342.112114;342.6121762;None;342.112114;342.112114;342.112114;342.112114;342.112114;342.112114;;;;;;410101;1;2023-12-14_13h41.53.845;REPSWITCH1_version1_list1;2022.2.4;143.9841273;
REPSWITCH1/PICTURE_673.png;tenedor;type;darkblue;filler;1;F;3;1;1;1;Extra5;0;None;68;67;68;0;67;67;67;;;;;;;;;;;;;;;;;;;;;;;342.6121762;343.6748668;343.6748668;343.6748668;343.6748668;343.6748668;343.6748668;343.6748668;343.6748668;['t', 'e', 'n', 'e', 'd', 'o', 'r'];0;[0.9006382999941707, 0.965451099909842, 1.0481243999674916, 1.145443200133741, 1.27754499996081, 1.3862238000147045, 1.4460330000147223];tenedor;C:\2023\REPSWITCH21092023\REPSWITCH_excgange\REPSWITCH_excgange\data/410101_REPSWITCH1_version1_list1_2023-12-14_13h41.53.845_micRespv1l1_recorded\recording_micRespv1l1_2023-12-14_13h47.33.433.wav;346.6961131;347.1961128;None;346.6961131;346.6961131;346.6961131;346.6961131;346.6961131;346.6961131;;;;;;410101;1;2023-12-14_13h41.53.845;REPSWITCH1_version1_list1;2022.2.4;143.9841273;
REPSWITCH1/PICTURE_464.png;goma;speak;gold;nontarget;2;NT;3;1;1;1;Stim6_Set3;0;None;69;68;69;0;68;68;68;;;;;;;;;;;;;;;;;;;;;;;347.1961128;348.3699013;348.3699013;348.3699013;348.3699013;348.3699013;348.3699013;348.3699013;348.3699013;None;0;;;C:\2023\REPSWITCH21092023\REPSWITCH_excgange\REPSWITCH_excgange\data/410101_REPSWITCH1_version1_list1_2023-12-14_13h41.53.845_micRespv1l1_recorded\recording_micRespv1l1_2023-12-14_13h47.38.128.wav;351.3911061;351.8911662;None;351.3911061;351.3911061;351.3911061;351.3911061;351.3911061;351.3911061;;;;;;410101;1;2023-12-14_13h41.53.845;REPSWITCH1_version1_list1;2022.2.4;143.9841273;
REPSWITCH1/PICTURE_464.png;goma;type;darkblue;switch;1;T;3;1;1;1;Stim6_Set3;0;None;70;69;70;0;69;69;69;;;;;;;;;;;;;;;;;;;;;;;351.8911662;353.0649184;353.0649184;353.0649184;353.0649184;353.0649184;353.0649184;353.0649184;353.0649184;['g', 'o', 'm', 'a'];0;[0.7811863999813795, 0.8300212998874485, 0.9210079000331461, 0.9913571001961827];goma;C:\2023\REPSWITCH21092023\REPSWITCH_excgange\REPSWITCH_excgange\data/410101_REPSWITCH1_version1_list1_2023-12-14_13h41.53.845_micRespv1l1_recorded\recording_micRespv1l1_2023-12-14_13h47.42.824.wav;356.0862505;356.5863038;None;356.0862505;356.0862505;356.0862505;356.0862505;356.0862505;356.0862505;;;;;;410101;1;2023-12-14_13h41.53.845;REPSWITCH1_version1_list1;2022.2.4;143.9841273;
REPSWITCH1/PICTURE_264.png;mano;speak;gold;filler;2;F;3;1;1;1;Stim3_Set2;0;None;71;70;71;0;70;70;70;;;;;;;;;;;;;;;;;;;;;;;356.5863038;357.6489002;357.6489002;357.6489002;357.6489002;357.6489002;357.6489002;357.6489002;357.6489002;None;0;;;C:\2023\REPSWITCH21092023\REPSWITCH_excgange\REPSWITCH_excgange\data/410101_REPSWITCH1_version1_list1_2023-12-14_13h41.53.845_micRespv1l1_recorded\recording_micRespv1l1_2023-12-14_13h47.47.409.wav;360.6770517;;None;360.6770517;360.6770517;360.6770517;360.6770517;360.6770517;360.6770517;;;;;;410101;1;2023-12-14_13h41.53.845;REPSWITCH1_version1_list1;2022.2.4;143.9841273;
REPSWITCH1/PICTURE_271.png;conejo;type;darkblue;nontarget;1;NT;3;1;1;1;Stim7_Set3;1;switch;72;71;72;0;71;71;71;;;;;;;;;;;;;;;;;;;;;;;361.1771153;362.2050486;362.2050486;362.2050486;362.2050486;362.2050486;362.2050486;362.2050486;362.2050486;['c', 'o', 'n', 'e', 'j', 'o'];0;[0.9025833001360297, 0.9593560001812875, 1.0321505004540086, 1.1497475001960993, 1.2683029002510011, 1.2952015004120767];conejo;C:\2023\REPSWITCH21092023\REPSWITCH_excgange\REPSWITCH_excgange\data/410101_REPSWITCH1_version1_list1_2023-12-14_13h41.53.845_micRespv1l1_recorded\recording_micRespv1l1_2023-12-14_13h47.51.965.wav;365.2331989;;None;365.2331989;365.2331989;365.2331989;365.2331989;365.2331989;365.2331989;;;;;;410101;1;2023-12-14_13h41.53.845;REPSWITCH1_version1_list1;2022.2.4;143.9841273;
REPSWITCH1/PICTURE_271.png;conejo;type;darkblue;repeat;1;T;3;1;1;1;Stim7_Set3;0;None;73;72;73;0;72;72;72;;;;;;;;;;;;;;;;;;;;;;;365.7332501;366.9347841;366.9347841;366.9347841;366.9347841;366.9347841;366.9347841;366.9347841;366.9347841;['c', 'o', 'n', 'e', 'j', 'o'];0;[0.7487734998576343, 0.8494178997352719, 0.9233393999747932, 1.0503354999236763, 1.1622715000994503, 1.1991471997462213];conejo;C:\2023\REPSWITCH21092023\REPSWITCH_excgange\REPSWITCH_excgange\data/410101_REPSWITCH1_version1_list1_2023-12-14_13h41.53.845_micRespv1l1_recorded\recording_micRespv1l1_2023-12-14_13h47.56.694.wav;369.956004;370.4561031;None;369.956004;369.956004;369.956004;369.956004;369.956004;369.956004;;;;;;410101;1;2023-12-14_13h41.53.845;REPSWITCH1_version1_list1;2022.2.4;143.9841273;
REPSWITCH1/PICTURE_446.png;cerdo;speak;gold;filler;2;F;3;1;1;1;Stim7_Set2;0;None;74;73;74;0;73;73;73;;;;;;;;;;;;;;;;;;;;;;;370.4561031;371.6229827;371.6229827;371.6229827;371.6229827;371.6229827;371.6229827;371.6229827;371.6229827;None;0;;;C:\2023\REPSWITCH21092023\REPSWITCH_excgange\REPSWITCH_excgange\data/410101_REPSWITCH1_version1_list1_2023-12-14_13h41.53.845_micRespv1l1_recorded\recording_micRespv1l1_2023-12-14_13h48.01.382.wav;374.6441199;375.1442218;None;374.6441199;374.6441199;374.6441199;374.6441199;374.6441199;374.6441199;;;;;;410101;1;2023-12-14_13h41.53.845;REPSWITCH1_version1_list1;2022.2.4;143.9841273;
REPSWITCH1/PICTURE_199.png;falda;type;darkblue;filler;1;F;3;1;1;1;Stim8_Set2;1;switch;75;74;75;0;74;74;74;;;;;;;;;;;;;;;;;;;;;;;375.1442218;376.2971362;376.2971362;376.2971362;376.2971362;376.2971362;376.2971362;376.2971362;376.2971362;['f', 'a', 'l', 'd', 'a'];0;[0.9123196001164615, 1.0106570003554225, 1.0754015003331006, 1.2240147003903985, 1.3426246005110443];falda;C:\2023\REPSWITCH21092023\REPSWITCH_excgange\REPSWITCH_excgange\data/410101_REPSWITCH1_version1_list1_2023-12-14_13h41.53.845_micRespv1l1_recorded\recording_micRespv1l1_2023-12-14_13h48.06.056.wav;379.3184043;379.8185173;None;379.3184043;379.3184043;379.3184043;379.3184043;379.3184043;379.3184043;;;;;;410101;1;2023-12-14_13h41.53.845;REPSWITCH1_version1_list1;2022.2.4;143.9841273;
REPSWITCH1/PICTURE_320.png;iglesia;type;darkblue;nontarget;1;NT;3;1;1;1;Stim8_Set3;1;repeat;76;75;76;0;75;75;75;;;;;;;;;;;;;;;;;;;;;;;379.8185173;380.8741427;380.8741427;380.8741427;380.8741427;380.8741427;380.8741427;380.8741427;380.8741427;['i', 'g', 'l', 'e', 's', 'i', 'a'];0;[1.26919490005821, 1.3499050000682473, 1.486474100034684, 1.5472454000264406, 1.7166943000629544, 1.8073459998704493, 1.9052464002743363];iglesia;C:\2023\REPSWITCH21092023\REPSWITCH_excgange\REPSWITCH_excgange\data/410101_REPSWITCH1_version1_list1_2023-12-14_13h41.53.845_micRespv1l1_recorded\recording_micRespv1l1_2023-12-14_13h48.10.633.wav;383.8953341;384.39543;None;383.8953341;383.8953341;383.8953341;383.8953341;383.8953341;383.8953341;;;;;;410101;1;2023-12-14_13h41.53.845;REPSWITCH1_version1_list1;2022.2.4;143.9841273;
REPSWITCH1/PICTURE_320.png;iglesia;type;darkblue;repeat;1;T;3;1;1;1;Stim8_Set3;0;None;77;76;77;0;76;76;76;;;;;;;;;;;;;;;;;;;;;;;384.39543;385.4719807;385.4719807;385.4719807;385.4719807;385.4719807;385.4719807;385.4719807;385.4719807;['i', 'g', 'l', 'e', 's', 'i', 'a'];0;[0.6458024000748992, 0.7477285000495613, 0.8816308001987636, 0.9832230000756681, 1.0988432001322508, 1.2951906002126634, 1.3559897001832724];iglesia;C:\2023\REPSWITCH21092023\REPSWITCH_excgange\REPSWITCH_excgange\data/410101_REPSWITCH1_version1_list1_2023-12-14_13h41.53.845_micRespv1l1_recorded\recording_micRespv1l1_2023-12-14_13h48.15.232.wav;388.5001108;;None;388.5001108;388.5001108;388.5001108;388.5001108;388.5001108;388.5001108;;;;;;410101;1;2023-12-14_13h41.53.845;REPSWITCH1_version1_list1;2022.2.4;143.9841273;
REPSWITCH1/PICTURE_576.png;guante;speak;gold;filler;2;F;4;1;1;1;Stim1_Set3;0;None;78;77;78;0;77;77;77;;;;;;;;;;;;;;;;;;;;;;;389.0001887;390.0420401;390.0420401;390.0420401;390.0420401;390.0420401;390.0420401;390.0420401;390.0420401;None;0;;;C:\2023\REPSWITCH21092023\REPSWITCH_excgange\REPSWITCH_excgange\data/410101_REPSWITCH1_version1_list1_2023-12-14_13h41.53.845_micRespv1l1_recorded\recording_micRespv1l1_2023-12-14_13h48.19.802.wav;393.0632061;393.563306;None;393.0632061;393.0632061;393.0632061;393.0632061;393.0632061;393.0632061;;;;;;410101;1;2023-12-14_13h41.53.845;REPSWITCH1_version1_list1;2022.2.4;143.9841273;
REPSWITCH1/PICTURE_319.png;vaca;type;darkblue;nontarget;1;NT;4;1;1;1;Stim1_Set4;1;switch;79;78;79;0;78;78;78;;;;;;;;;;;;;;;;;;;;;;;393.563306;394.6051181;394.6051181;394.6051181;394.6051181;394.6051181;394.6051181;394.6051181;394.6051181;['v', 'a', 'c', 'a'];0;[0.8142417003400624, 0.894683700054884, 1.0571878999471664, 1.116979300044477];vaca;C:\2023\REPSWITCH21092023\REPSWITCH_excgange\REPSWITCH_excgange\data/410101_REPSWITCH1_version1_list1_2023-12-14_13h41.53.845_micRespv1l1_recorded\recording_micRespv1l1_2023-12-14_13h48.24.365.wav;397.6332534;;None;397.6332534;397.6332534;397.6332534;397.6332534;397.6332534;397.6332534;;;;;;410101;1;2023-12-14_13h41.53.845;REPSWITCH1_version1_list1;2022.2.4;143.9841273;
REPSWITCH1/PICTURE_319.png;vaca;type;darkblue;repeat;1;T;4;1;1;1;Stim1_Set4;0;None;80;79;80;0;79;79;79;;;;;;;;;;;;;;;;;;;;;;;398.1333454;399.1891031;399.1891031;399.1891031;399.1891031;399.1891031;399.1891031;399.1891031;399.1891031;['v', 'a', 'c', 'a'];0;[0.8208840005099773, 0.8913531000725925, 1.0477678002789617, 1.0975725003518164];vaca;C:\2023\REPSWITCH21092023\REPSWITCH_excgange\REPSWITCH_excgange\data/410101_REPSWITCH1_version1_list1_2023-12-14_13h41.53.845_micRespv1l1_recorded\recording_micRespv1l1_2023-12-14_13h48.28.948.wav;402.2172138;;None;402.2172138;402.2172138;402.2172138;402.2172138;402.2172138;402.2172138;;;;;;410101;1;2023-12-14_13h41.53.845;REPSWITCH1_version1_list1;2022.2.4;143.9841273;
REPSWITCH1/PICTURE_719.png;baño;type;darkblue;nontarget;1;NT;4;1;1;1;Stim2_Set4;0;None;81;80;81;0;80;80;80;;;;;;;;;;;;;;;;;;;;;;;402.7172846;403.7522109;403.7522109;403.7522109;403.7522109;403.7522109;403.7522109;403.7522109;403.7522109;['b', 'a', 'ñ', 'o'];0;[0.8615544000640512, 0.9263565000146627, 1.080848400015384, 1.162541199941188];baño;C:\2023\REPSWITCH21092023\REPSWITCH_excgange\REPSWITCH_excgange\data/410101_REPSWITCH1_version1_list1_2023-12-14_13h41.53.845_micRespv1l1_recorded\recording_micRespv1l1_2023-12-14_13h48.33.512.wav;406.7803098;;None;406.7803098;406.7803098;406.7803098;406.7803098;406.7803098;406.7803098;;;;;;410101;1;2023-12-14_13h41.53.845;REPSWITCH1_version1_list1;2022.2.4;143.9841273;
REPSWITCH1/PICTURE_719.png;baño;speak;gold;switch;2;T;4;1;1;1;Stim2_Set4;0;None;82;81;82;0;81;81;81;;;;;;;;;;;;;;;;;;;;;;;407.2803655;408.3847132;408.3847132;408.3847132;408.3847132;408.3847132;408.3847132;408.3847132;408.3847132;None;0;;;C:\2023\REPSWITCH21092023\REPSWITCH_excgange\REPSWITCH_excgange\data/410101_REPSWITCH1_version1_list1_2023-12-14_13h41.53.845_micRespv1l1_recorded\recording_micRespv1l1_2023-12-14_13h48.38.144.wav;411.4059233;411.9059881;None;411.4059233;411.4059233;411.4059233;411.4059233;411.4059233;411.4059233;;;;;;410101;1;2023-12-14_13h41.53.845;REPSWITCH1_version1_list1;2022.2.4;143.9841273;
REPSWITCH1/PICTURE_242.png;cartero;speak;gold;filler;2;F;4;1;1;1;Stim3_Set3;1;repeat;83;82;83;0;82;82;82;;;;;;;;;;;;;;;;;;;;;;;411.9059881;413.0172541;413.0172541;413.0172541;413.0172541;413.0172541;413.0172541;413.0172541;413.0172541;None;0;;;C:\2023\REPSWITCH21092023\REPSWITCH_excgange\REPSWITCH_excgange\data/410101_REPSWITCH1_version1_list1_2023-12-14_13h41.53.845_micRespv1l1_recorded\recording_micRespv1l1_2023-12-14_13h48.42.776.wav;416.0385469;416.5385259;None;416.0385469;416.0385469;416.0385469;416.0385469;416.0385469;416.0385469;;;;;;410101;1;2023-12-14_13h41.53.845;REPSWITCH1_version1_list1;2022.2.4;143.9841273;
REPSWITCH1/PICTURE_610.png;miel;type;darkblue;filler;1;F;4;1;1;1;Stim2_Set3;0;None;84;83;84;0;83;83;83;;;;;;;;;;;;;;;;;;;;;;;416.5385259;417.6150764;417.6150764;417.6150764;417.6150764;417.6150764;417.6150764;417.6150764;417.6150764;['m', 'i', 'e', 'l'];0;[0.6532668001018465, 0.7330257999710739, 0.8426315002143383, 1.345204799901694];miel;C:\2023\REPSWITCH21092023\REPSWITCH_excgange\REPSWITCH_excgange\data/410101_REPSWITCH1_version1_list1_2023-12-14_13h41.53.845_micRespv1l1_recorded\recording_micRespv1l1_2023-12-14_13h48.47.374.wav;420.6362887;421.1363628;None;420.6362887;420.6362887;420.6362887;420.6362887;420.6362887;420.6362887;;;;;;410101;1;2023-12-14_13h41.53.845;REPSWITCH1_version1_list1;2022.2.4;143.9841273;
REPSWITCH1/PICTURE_8.png;pierna;speak;gold;nontarget;2;NT;4;1;1;1;Stim3_Set4;1;switch;85;84;85;0;84;84;84;;;;;;;;;;;;;;;;;;;;;;;421.1363628;422.247602;422.247602;422.247602;422.247602;422.247602;422.247602;422.247602;422.247602;None;0;;;C:\2023\REPSWITCH21092023\REPSWITCH_excgange\REPSWITCH_excgange\data/410101_REPSWITCH1_version1_list1_2023-12-14_13h41.53.845_micRespv1l1_recorded\recording_micRespv1l1_2023-12-14_13h48.52.007.wav;425.2757752;;None;425.2757752;425.2757752;425.2757752;425.2757752;425.2757752;425.2757752;;;;;;410101;1;2023-12-14_13h41.53.845;REPSWITCH1_version1_list1;2022.2.4;143.9841273;
REPSWITCH1/PICTURE_8.png;pierna;speak;gold;repeat;2;T;4;1;1;1;Stim3_Set4;0;None;86;85;86;0;85;85;85;;;;;;;;;;;;;;;;;;;;;;;425.7758353;426.9912894;426.9912894;426.9912894;426.9912894;426.9912894;426.9912894;426.9912894;426.9912894;None;0;;;C:\2023\REPSWITCH21092023\REPSWITCH_excgange\REPSWITCH_excgange\data/410101_REPSWITCH1_version1_list1_2023-12-14_13h41.53.845_micRespv1l1_recorded\recording_micRespv1l1_2023-12-14_13h48.56.750.wav;430.0125323;430.5125822;None;430.0125323;430.0125323;430.0125323;430.0125323;430.0125323;430.0125323;;;;;;410101;1;2023-12-14_13h41.53.845;REPSWITCH1_version1_list1;2022.2.4;143.9841273;
REPSWITCH1/PICTURE_498.png;taza;speak;gold;nontarget;2;NT;4;1;1;1;Stim4_Set4;1;repeat;87;86;87;0;86;86;86;;;;;;;;;;;;;;;;;;;;;;;430.5125822;431.5474435;431.5474435;431.5474435;431.5474435;431.5474435;431.5474435;431.5474435;431.5474435;None;0;;;C:\2023\REPSWITCH21092023\REPSWITCH_excgange\REPSWITCH_excgange\data/410101_REPSWITCH1_version1_list1_2023-12-14_13h41.53.845_micRespv1l1_recorded\recording_micRespv1l1_2023-12-14_13h49.01.306.wav;434.5686677;435.0687229;None;434.5686677;434.5686677;434.5686677;434.5686677;434.5686677;434.5686677;;;;;;410101;1;2023-12-14_13h41.53.845;REPSWITCH1_version1_list1;2022.2.4;143.9841273;
REPSWITCH1/PICTURE_498.png;taza;type;darkblue;switch;1;T;4;1;1;1;Stim4_Set4;0;None;88;87;88;0;87;87;87;;;;;;;;;;;;;;;;;;;;;;;435.0687229;436.138353;436.138353;436.138353;436.138353;436.138353;436.138353;436.138353;436.138353;['t', 'a', 'z', 'a'];0;[0.8150869999080896, 0.869902899954468, 1.0912346001714468, 1.247651600278914];taza;C:\2023\REPSWITCH21092023\REPSWITCH_excgange\REPSWITCH_excgange\data/410101_REPSWITCH1_version1_list1_2023-12-14_13h41.53.845_micRespv1l1_recorded\recording_micRespv1l1_2023-12-14_13h49.05.897.wav;439.1595559;439.6596187;None;439.1595559;439.1595559;439.1595559;439.1595559;439.1595559;439.1595559;;;;;;410101;1;2023-12-14_13h41.53.845;REPSWITCH1_version1_list1;2022.2.4;143.9841273;
REPSWITCH1/PICTURE_235.png;aguja;speak;gold;filler;2;F;4;1;1;1;Stim4_Set3;0;None;89;88;89;0;88;88;88;;;;;;;;;;;;;;;;;;;;;;;439.6596187;440.8542174;440.8542174;440.8542174;440.8542174;440.8542174;440.8542174;440.8542174;440.8542174;None;0;;;C:\2023\REPSWITCH21092023\REPSWITCH_excgange\REPSWITCH_excgange\data/410101_REPSWITCH1_version1_list1_2023-12-14_13h41.53.845_micRespv1l1_recorded\recording_micRespv1l1_2023-12-14_13h49.10.614.wav;443.8754627;444.3755226;None;443.8754627;443.8754627;443.8754627;443.8754627;443.8754627;443.8754627;;;;;;410101;1;2023-12-14_13h41.53.845;REPSWITCH1_version1_list1;2022.2.4;143.9841273;
REPSWITCH1/PICTURE_35.png;oreja;type;darkblue;filler;1;F;4;1;1;1;Stim5_Set3;0;None;90;89;90;0;89;89;89;;;;;;;;;;;;;;;;;;;;;;;444.3755226;445.5631783;445.5631783;445.5631783;445.5631783;445.5631783;445.5631783;445.5631783;445.5631783;['o', 'r', 'e', 'j', 'a'];0;[0.7421747003681958, 0.7890042001381516, 0.9125544000416994, 0.9983056001365185, 1.1378387003205717];oreja;C:\2023\REPSWITCH21092023\REPSWITCH_excgange\REPSWITCH_excgange\data/410101_REPSWITCH1_version1_list1_2023-12-14_13h41.53.845_micRespv1l1_recorded\recording_micRespv1l1_2023-12-14_13h49.15.323.wav;448.5844232;449.0844821;None;448.5844232;448.5844232;448.5844232;448.5844232;448.5844232;448.5844232;;;;;;410101;1;2023-12-14_13h41.53.845;REPSWITCH1_version1_list1;2022.2.4;143.9841273;
REPSWITCH1/PICTURE_687.png;camisa;type;darkblue;nontarget;1;NT;4;1;1;1;Stim5_Set4;1;repeat;91;90;91;0;90;90;90;;;;;;;;;;;;;;;;;;;;;;;449.0844821;450.1888484;450.1888484;450.1888484;450.1888484;450.1888484;450.1888484;450.1888484;450.1888484;['c', 'a', 'm', 'i', 's', 'a'];0;[0.7588947000913322, 0.8230487001128495, 0.9649201999418437, 1.052083000075072, 1.128789700102061, 1.5424993000924587];camisa;C:\2023\REPSWITCH21092023\REPSWITCH_excgange\REPSWITCH_excgange\data/410101_REPSWITCH1_version1_list1_2023-12-14_13h41.53.845_micRespv1l1_recorded\recording_micRespv1l1_2023-12-14_13h49.19.948.wav;453.2100124;453.7101541;None;453.2100124;453.2100124;453.2100124;453.2100124;453.2100124;453.2100124;;;;;;410101;1;2023-12-14_13h41.53.845;REPSWITCH1_version1_list1;2022.2.4;143.9841273;
REPSWITCH1/PICTURE_687.png;camisa;speak;gold;switch;2;T;4;1;1;1;Stim5_Set4;0;None;92;91;92;0;91;91;91;;;;;;;;;;;;;;;;;;;;;;;453.7101541;454.8629929;454.8629929;454.8629929;454.8629929;454.8629929;454.8629929;454.8629929;454.8629929;None;0;;;C:\2023\REPSWITCH21092023\REPSWITCH_excgange\REPSWITCH_excgange\data/410101_REPSWITCH1_version1_list1_2023-12-14_13h41.53.845_micRespv1l1_recorded\recording_micRespv1l1_2023-12-14_13h49.24.622.wav;457.8842431;458.3842975;None;457.8842431;457.8842431;457.8842431;457.8842431;457.8842431;457.8842431;;;;;;410101;1;2023-12-14_13h41.53.845;REPSWITCH1_version1_list1;2022.2.4;143.9841273;
REPSWITCH1/PICTURE_338.png;regalo;speak;gold;nontarget;2;NT;4;1;1;1;Stim6_Set4;0;None;93;92;93;0;92;92;92;;;;;;;;;;;;;;;;;;;;;;;458.3842975;459.5234128;459.5234128;459.5234128;459.5234128;459.5234128;459.5234128;459.5234128;459.5234128;None;0;;;C:\2023\REPSWITCH21092023\REPSWITCH_excgange\REPSWITCH_excgange\data/410101_REPSWITCH1_version1_list1_2023-12-14_13h41.53.845_micRespv1l1_recorded\recording_micRespv1l1_2023-12-14_13h49.29.283.wav;462.5515857;;None;462.5515857;462.5515857;462.5515857;462.5515857;462.5515857;462.5515857;;;;;;410101;1;2023-12-14_13h41.53.845;REPSWITCH1_version1_list1;2022.2.4;143.9841273;
REPSWITCH1/PICTURE_338.png;regalo;speak;gold;repeat;2;T;4;1;1;1;Stim6_Set4;0;None;94;93;94;0;93;93;93;;;;;;;;;;;;;;;;;;;;;;;463.0515914;464.2392453;464.2392453;464.2392453;464.2392453;464.2392453;464.2392453;464.2392453;464.2392453;None;0;;;C:\2023\REPSWITCH21092023\REPSWITCH_excgange\REPSWITCH_excgange\data/410101_REPSWITCH1_version1_list1_2023-12-14_13h41.53.845_micRespv1l1_recorded\recording_micRespv1l1_2023-12-14_13h49.33.998.wav;467.2605229;467.7605399;None;467.2605229;467.2605229;467.2605229;467.2605229;467.2605229;467.2605229;;;;;;410101;1;2023-12-14_13h41.53.845;REPSWITCH1_version1_list1;2022.2.4;143.9841273;
REPSWITCH1/PICTURE_663.png;columna;type;darkblue;filler;1;F;4;1;1;1;Extra6;0;None;95;94;95;0;94;94;94;;;;;;;;;;;;;;;;;;;;;;;467.7605399;468.8856744;468.8856744;468.8856744;468.8856744;468.8856744;468.8856744;468.8856744;468.8856744;['c', 'o', 'l', 'm', 'backspace', 'u', 'm', 'n', 'a'];0;[1.0871072001755238, 1.1588377002626657, 1.3352163000963628, 1.549576099961996, 2.1638332000002265, 2.450300599914044, 2.602072600275278, 2.7334747998975217, 2.8171918001025915];columna;C:\2023\REPSWITCH21092023\REPSWITCH_excgange\REPSWITCH_excgange\data/410101_REPSWITCH1_version1_list1_2023-12-14_13h41.53.845_micRespv1l1_recorded\recording_micRespv1l1_2023-12-14_13h49.38.645.wav;471.9138341;;None;471.9138341;471.9138341;471.9138341;471.9138341;471.9138341;471.9138341;;;;;;410101;1;2023-12-14_13h41.53.845;REPSWITCH1_version1_list1;2022.2.4;143.9841273;
REPSWITCH1/PICTURE_271.png;conejo;speak;gold;filler;2;F;4;1;1;1;Stim7_Set3;0;None;96;95;96;0;95;95;95;;;;;;;;;;;;;;;;;;;;;;;472.4139369;473.566864;473.566864;473.566864;473.566864;473.566864;473.566864;473.566864;473.566864;None;0;;;C:\2023\REPSWITCH21092023\REPSWITCH_excgange\REPSWITCH_excgange\data/410101_REPSWITCH1_version1_list1_2023-12-14_13h41.53.845_micRespv1l1_recorded\recording_micRespv1l1_2023-12-14_13h49.43.327.wav;476.5950253;;None;476.5950253;476.5950253;476.5950253;476.5950253;476.5950253;476.5950253;;;;;;410101;1;2023-12-14_13h41.53.845;REPSWITCH1_version1_list1;2022.2.4;143.9841273;
REPSWITCH1/PICTURE_48.png;bombero;speak;gold;nontarget;2;NT;4;1;1;1;Stim7_Set4;0;None;97;96;97;0;96;96;96;;;;;;;;;;;;;;;;;;;;;;;477.0951735;478.2688464;478.2688464;478.2688464;478.2688464;478.2688464;478.2688464;478.2688464;478.2688464;None;0;;;C:\2023\REPSWITCH21092023\REPSWITCH_excgange\REPSWITCH_excgange\data/410101_REPSWITCH1_version1_list1_2023-12-14_13h41.53.845_micRespv1l1_recorded\recording_micRespv1l1_2023-12-14_13h49.48.028.wav;481.2900935;481.7902292;None;481.2900935;481.2900935;481.2900935;481.2900935;481.2900935;481.2900935;;;;;;410101;1;2023-12-14_13h41.53.845;REPSWITCH1_version1_list1;2022.2.4;143.9841273;
REPSWITCH1/PICTURE_48.png;bombero;type;darkblue;switch;1;T;4;1;1;1;Stim7_Set4;0;None;98;97;98;0;97;97;97;;;;;;;;;;;;;;;;;;;;;;;481.7902292;482.8737016;482.8737016;482.8737016;482.8737016;482.8737016;482.8737016;482.8737016;482.8737016;['c', 'backspace', 'b', 'o', 'm', 'b', 'e', 'r', 'o'];0;[0.8846819000318646, 1.2557235001586378, 1.4112732000648975, 1.5028973002918065, 1.5716623002663255, 1.668347300030291, 1.7420864002779126, 1.8580094003118575, 1.9548570001497865];bombero;C:\2023\REPSWITCH21092023\REPSWITCH_excgange\REPSWITCH_excgange\data/410101_REPSWITCH1_version1_list1_2023-12-14_13h41.53.845_micRespv1l1_recorded\recording_micRespv1l1_2023-12-14_13h49.52.632.wav;485.8948386;486.3949222;None;485.8948386;485.8948386;485.8948386;485.8948386;485.8948386;485.8948386;;;;;;410101;1;2023-12-14_13h41.53.845;REPSWITCH1_version1_list1;2022.2.4;143.9841273;
REPSWITCH1/PICTURE_728.png;pulpo;type;darkblue;nontarget;1;NT;4;1;1;1;Stim8_Set4;0;None;99;98;99;0;98;98;98;;;;;;;;;;;;;;;;;;;;;;;486.3949222;487.4714724;487.4714724;487.4714724;487.4714724;487.4714724;487.4714724;487.4714724;487.4714724;['p', 'u', 'l', 'p', 'o'];0;[0.7459719004109502, 0.9204011000692844, 1.0898071001283824, 1.3431966002099216, 1.4492438002489507];pulpo;C:\2023\REPSWITCH21092023\REPSWITCH_excgange\REPSWITCH_excgange\data/410101_REPSWITCH1_version1_list1_2023-12-14_13h41.53.845_micRespv1l1_recorded\recording_micRespv1l1_2023-12-14_13h49.57.231.wav;490.492667;490.9927271;None;490.492667;490.492667;490.492667;490.492667;490.492667;490.492667;;;;;;410101;1;2023-12-14_13h41.53.845;REPSWITCH1_version1_list1;2022.2.4;143.9841273;
REPSWITCH1/PICTURE_728.png;pulpo;type;darkblue;repeat;1;T;4;1;1;1;Stim8_Set4;0;None;100;99;100;0;99;99;99;;;;;;;;;;;;;;;;;;;;;;;490.9927271;492.1665067;492.1665067;492.1665067;492.1665067;492.1665067;492.1665067;492.1665067;492.1665067;['p', 'u', 'l', 'p', 'o'];0;[0.7192417001351714, 0.9125918000936508, 1.1636875001713634, 1.3655361998826265, 1.4303128002211452];pulpo;C:\2023\REPSWITCH21092023\REPSWITCH_excgange\REPSWITCH_excgange\data/410101_REPSWITCH1_version1_list1_2023-12-14_13h41.53.845_micRespv1l1_recorded\recording_micRespv1l1_2023-12-14_13h50.01.926.wav;495.1877672;495.6877899;None;495.1877672;495.1877672;495.1877672;495.1877672;495.1877672;495.1877672;;;;;;410101;1;2023-12-14_13h41.53.845;REPSWITCH1_version1_list1;2022.2.4;143.9841273;
REPSWITCH1/PICTURE_320.png;iglesia;speak;gold;filler;1;F;4;1;1;1;Stim8_Set3;0;None;101;100;101;0;100;100;100;;;;;;;;;;;;;;;;;;;;;;;495.6877899;496.8337742;496.8337742;496.8337742;496.8337742;496.8337742;496.8337742;496.8337742;496.8337742;None;0;;;C:\2023\REPSWITCH21092023\REPSWITCH_excgange\REPSWITCH_excgange\data/410101_REPSWITCH1_version1_list1_2023-12-14_13h41.53.845_micRespv1l1_recorded\recording_micRespv1l1_2023-12-14_13h50.06.594.wav;499.8620609;;None;499.8620609;499.8620609;499.8620609;499.8620609;499.8620609;499.8620609;;;;;;410101;1;2023-12-14_13h41.53.845;REPSWITCH1_version1_list1;2022.2.4;143.9841273;
REPSWITCH1/PICTURE_464.png;goma;type;darkblue;filler;1;F;4;1;1;1;Stim6_Set3;0;None;102;101;102;0;101;101;101;;;;;;;;;;;;;;;;;;;;;;;500.3620967;501.5289547;501.5289547;501.5289547;501.5289547;501.5289547;501.5289547;501.5289547;501.5289547;['g', 'o', 'm', 'a'];0;[0.841590499971062, 0.9023766000755131, 0.9860915001481771, 1.0618072003126144];goma;C:\2023\REPSWITCH21092023\REPSWITCH_excgange\REPSWITCH_excgange\data/410101_REPSWITCH1_version1_list1_2023-12-14_13h41.53.845_micRespv1l1_recorded\recording_micRespv1l1_2023-12-14_13h50.11.288.wav;504.5500557;505.050152;space;504.5500557;504.5500557;504.5500557;504.5500557;504.5500557;504.5500557;505.050152;505.050152;0.977247;;;410101;1;2023-12-14_13h41.53.845;REPSWITCH1_version1_list1;2022.2.4;143.9841273;
REPSWITCH1/PICTURE_663.png;columna;type;darkblue;filler;1;F;1;2;1;1;Extra6;0;None;103;102;1;0;102;102;102;;;;;;;;;;;;;;;;;;;;;;;506.0363938;507.1893154;507.1893154;507.1893154;507.1893154;507.1893154;507.1893154;507.1893154;507.1893154;['c', 'o', 'l', 'u', 'm', 'n', 'a'];0;[0.8777355002239347, 1.0029297000728548, 1.1856260001659393, 1.3951115999370813, 1.5423401999287307, 1.7027718001045287, 1.777527800295502];columna;C:\2023\REPSWITCH21092023\REPSWITCH_excgange\REPSWITCH_excgange\data/410101_REPSWITCH1_version1_list1_2023-12-14_13h41.53.845_micRespv1l1_recorded\recording_micRespv1l1_2023-12-14_13h50.16.949.wav;510.2175612;;None;510.2175612;510.2175612;510.2175612;510.2175612;510.2175612;510.2175612;;;;;;410101;1;2023-12-14_13h41.53.845;REPSWITCH1_version1_list1;2022.2.4;143.9841273;
REPSWITCH1/PICTURE_128.png;muñeca;speak;gold;nontarget;2;NT;1;2;1;1;Stim4_Set1;1;switch;104;103;2;0;103;103;103;;;;;;;;;;;;;;;;;;;;;;;510.7175691;511.8982661;511.8982661;511.8982661;511.8982661;511.8982661;511.8982661;511.8982661;511.8982661;None;0;;;C:\2023\REPSWITCH21092023\REPSWITCH_excgange\REPSWITCH_excgange\data/410101_REPSWITCH1_version1_list1_2023-12-14_13h41.53.845_micRespv1l1_recorded\recording_micRespv1l1_2023-12-14_13h50.21.658.wav;514.9264558;;None;514.9264558;514.9264558;514.9264558;514.9264558;514.9264558;514.9264558;;;;;;410101;1;2023-12-14_13h41.53.845;REPSWITCH1_version1_list1;2022.2.4;143.9841273;
REPSWITCH1/PICTURE_128.png;muñeca;speak;gold;repeat;2;T;1;2;1;1;Stim4_Set1;0;None;105;104;3;0;104;104;104;;;;;;;;;;;;;;;;;;;;;;;515.4265813;516.5308337;516.5308337;516.5308337;516.5308337;516.5308337;516.5308337;516.5308337;516.5308337;None;0;;;C:\2023\REPSWITCH21092023\REPSWITCH_excgange\REPSWITCH_excgange\data/410101_REPSWITCH1_version1_list1_2023-12-14_13h41.53.845_micRespv1l1_recorded\recording_micRespv1l1_2023-12-14_13h50.26.290.wav;519.5520607;520.0521185;None;519.5520607;519.5520607;519.5520607;519.5520607;519.5520607;519.5520607;;;;;;410101;1;2023-12-14_13h41.53.845;REPSWITCH1_version1_list1;2022.2.4;143.9841273;
REPSWITCH1/PICTURE_8.png;pierna;type;darkblue;filler;1;F;1;2;1;1;Stim3_Set4;0;None;106;105;4;0;105;105;105;;;;;;;;;;;;;;;;;;;;;;;520.0521185;521.1147698;521.1147698;521.1147698;521.1147698;521.1147698;521.1147698;521.1147698;521.1147698;['p', 'i', 'e', 'r', 'n', 'a'];0;[1.1986941001378, 1.280415200162679, 1.3926295000128448, 1.4481418998911977, 1.513871599920094, 1.645454800222069];pierna;C:\2023\REPSWITCH21092023\REPSWITCH_excgange\REPSWITCH_excgange\data/410101_REPSWITCH1_version1_list1_2023-12-14_13h41.53.845_micRespv1l1_recorded\recording_micRespv1l1_2023-12-14_13h50.30.874.wav;524.135998;524.6360642;None;524.135998;524.135998;524.135998;524.135998;524.135998;524.135998;;;;;;410101;1;2023-12-14_13h41.53.845;REPSWITCH1_version1_list1;2022.2.4;143.9841273;
REPSWITCH1/PICTURE_135.png;traje;speak;gold;nontarget;2;NT;1;2;1;1;Stim3_Set1;1;switch;107;106;5;0;106;106;106;;;;;;;;;;;;;;;;;;;;;;;524.6360642;525.7403716;525.7403716;525.7403716;525.7403716;525.7403716;525.7403716;525.7403716;525.7403716;None;0;;;C:\2023\REPSWITCH21092023\REPSWITCH_excgange\REPSWITCH_excgange\data/410101_REPSWITCH1_version1_list1_2023-12-14_13h41.53.845_micRespv1l1_recorded\recording_micRespv1l1_2023-12-14_13h50.35.500.wav;528.7685369;;None;528.7685369;528.7685369;528.7685369;528.7685369;528.7685369;528.7685369;;;;;;410101;1;2023-12-14_13h41.53.845;REPSWITCH1_version1_list1;2022.2.4;143.9841273;
REPSWITCH1/PICTURE_135.png;traje;speak;gold;repeat;2;T;1;2;1;1;Stim3_Set1;0;None;108;107;6;0;107;107;107;;;;;;;;;;;;;;;;;;;;;;;529.2685952;530.3381773;530.3381773;530.3381773;530.3381773;530.3381773;530.3381773;530.3381773;530.3381773;None;0;;;C:\2023\REPSWITCH21092023\REPSWITCH_excgange\REPSWITCH_excgange\data/410101_REPSWITCH1_version1_list1_2023-12-14_13h41.53.845_micRespv1l1_recorded\recording_micRespv1l1_2023-12-14_13h50.40.097.wav;533.3594125;533.8595706;None;533.3594125;533.3594125;533.3594125;533.3594125;533.3594125;533.3594125;;;;;;410101;1;2023-12-14_13h41.53.845;REPSWITCH1_version1_list1;2022.2.4;143.9841273;
REPSWITCH1/PICTURE_673.png;tenedor;type;darkblue;filler;1;F;1;2;1;1;Extra5;0;None;109;108;7;0;108;108;108;;;;;;;;;;;;;;;;;;;;;;;533.8595706;534.908231;534.908231;534.908231;534.908231;534.908231;534.908231;534.908231;534.908231;['t', 'e', 'n', 'e', 'd', 'o', 'r'];0;[0.8951441003009677, 0.9788585002534091, 1.0874888002872467, 1.160210800357163, 1.3117460003122687, 1.4004603000357747, 1.478543400298804];tenedor;C:\2023\REPSWITCH21092023\REPSWITCH_excgange\REPSWITCH_excgange\data/410101_REPSWITCH1_version1_list1_2023-12-14_13h41.53.845_micRespv1l1_recorded\recording_micRespv1l1_2023-12-14_13h50.44.668.wav;537.9294469;538.4295406;None;537.9294469;537.9294469;537.9294469;537.9294469;537.9294469;537.9294469;;;;;;410101;1;2023-12-14_13h41.53.845;REPSWITCH1_version1_list1;2022.2.4;143.9841273;
REPSWITCH1/PICTURE_728.png;pulpo;speak;gold;filler;2;F;1;2;1;1;Stim8_Set4;0;None;110;109;8;0;109;109;109;;;;;;;;;;;;;;;;;;;;;;;538.4295406;539.4644308;539.4644308;539.4644308;539.4644308;539.4644308;539.4644308;539.4644308;539.4644308;None;0;;;C:\2023\REPSWITCH21092023\REPSWITCH_excgange\REPSWITCH_excgange\data/410101_REPSWITCH1_version1_list1_2023-12-14_13h41.53.845_micRespv1l1_recorded\recording_micRespv1l1_2023-12-14_13h50.49.223.wav;542.4856039;542.9857314;None;542.4856039;542.4856039;542.4856039;542.4856039;542.4856039;542.4856039;;;;;;410101;1;2023-12-14_13h41.53.845;REPSWITCH1_version1_list1;2022.2.4;143.9841273;
REPSWITCH1/PICTURE_16.png;cazador;speak;gold;nontarget;2;NT;1;2;1;1;Stim6_Set1;1;repeat;111;110;9;0;110;110;110;;;;;;;;;;;;;;;;;;;;;;;542.9857314;544.1664198;544.1664198;544.1664198;544.1664198;544.1664198;544.1664198;544.1664198;544.1664198;None;0;;;C:\2023\REPSWITCH21092023\REPSWITCH_excgange\REPSWITCH_excgange\data/410101_REPSWITCH1_version1_list1_2023-12-14_13h41.53.845_micRespv1l1_recorded\recording_micRespv1l1_2023-12-14_13h50.53.925.wav;547.1876609;547.6876525;None;547.1876609;547.1876609;547.1876609;547.1876609;547.1876609;547.1876609;;;;;;410101;1;2023-12-14_13h41.53.845;REPSWITCH1_version1_list1;2022.2.4;143.9841273;
REPSWITCH1/PICTURE_16.png;cazador;type;darkblue;switch;1;T;1;2;1;1;Stim6_Set1;0;None;112;111;10;0;111;111;111;;;;;;;;;;;;;;;;;;;;;;;547.6876525;548.70866;548.70866;548.70866;548.70866;548.70866;548.70866;548.70866;548.70866;['c', 'a', 'z', 'a', 'd', 'o', 'r'];0;[0.8615689002908766, 0.9522979003377259, 1.1389747001230717, 1.28795070014894, 1.425416000187397, 1.5610211002640426, 1.6167089003138244];cazador;C:\2023\REPSWITCH21092023\REPSWITCH_excgange\REPSWITCH_excgange\data/410101_REPSWITCH1_version1_list1_2023-12-14_13h41.53.845_micRespv1l1_recorded\recording_micRespv1l1_2023-12-14_13h50.58.467.wav;551.7298962;552.2300242;None;551.7298962;551.7298962;551.7298962;551.7298962;551.7298962;551.7298962;;;;;;410101;1;2023-12-14_13h41.53.845;REPSWITCH1_version1_list1;2022.2.4;143.9841273;
REPSWITCH1/PICTURE_498.png;taza;type;darkblue;filler;1;F;1;2;1;1;Stim4_Set4;1;repeat;113;112;11;0;112;112;112;;;;;;;;;;;;;;;;;;;;;;;552.2300242;553.3620634;553.3620634;553.3620634;553.3620634;553.3620634;553.3620634;553.3620634;553.3620634;['t', 'a', 'z', 'a'];0;[0.7812532004900277, 0.853014700114727, 1.1081649004481733, 1.3344305003993213];taza;C:\2023\REPSWITCH21092023\REPSWITCH_excgange\REPSWITCH_excgange\data/410101_REPSWITCH1_version1_list1_2023-12-14_13h41.53.845_micRespv1l1_recorded\recording_micRespv1l1_2023-12-14_13h51.03.121.wav;556.39029;;None;556.39029;556.39029;556.39029;556.39029;556.39029;556.39029;;;;;;410101;1;2023-12-14_13h41.53.845;REPSWITCH1_version1_list1;2022.2.4;143.9841273;
REPSWITCH1/PICTURE_381.png;fresa;type;darkblue;nontarget;1;NT;1;2;1;1;Stim2_Set1;1;repeat;114;113;12;0;113;113;113;;;;;;;;;;;;;;;;;;;;;;;556.8903593;557.9529776;557.9529776;557.9529776;557.9529776;557.9529776;557.9529776;557.9529776;557.9529776;['f', 'r', 'e', 's', 'a'];0;[0.7395948003977537, 0.8950039003975689, 0.9777994002215564, 1.148161900229752, 1.209891500417143];fresa;C:\2023\REPSWITCH21092023\REPSWITCH_excgange\REPSWITCH_excgange\data/410101_REPSWITCH1_version1_list1_2023-12-14_13h41.53.845_micRespv1l1_recorded\recording_micRespv1l1_2023-12-14_13h51.07.712.wav;560.9811117;;None;560.9811117;560.9811117;560.9811117;560.9811117;560.9811117;560.9811117;;;;;;410101;1;2023-12-14_13h41.53.845;REPSWITCH1_version1_list1;2022.2.4;143.9841273;
REPSWITCH1/PICTURE_381.png;fresa;speak;gold;switch;2;T;1;2;1;1;Stim2_Set1;0;None;115;114;13;0;114;114;114;;;;;;;;;;;;;;;;;;;;;;;561.4812401;562.5577239;562.5577239;562.5577239;562.5577239;562.5577239;562.5577239;562.5577239;562.5577239;None;0;;;C:\2023\REPSWITCH21092023\REPSWITCH_excgange\REPSWITCH_excgange\data/410101_REPSWITCH1_version1_list1_2023-12-14_13h41.53.845_micRespv1l1_recorded\recording_micRespv1l1_2023-12-14_13h51.12.317.wav;565.578895;566.0789974;None;565.578895;565.578895;565.578895;565.578895;565.578895;565.578895;;;;;;410101;1;2023-12-14_13h41.53.845;REPSWITCH1_version1_list1;2022.2.4;143.9841273;
REPSWITCH1/PICTURE_178.png;puente;speak;gold;nontarget;2;NT;1;2;1;1;Stim1_Set1;0;None;116;115;14;0;115;115;115;;;;;;;;;;;;;;;;;;;;;;;566.0789974;567.2388758;567.2388758;567.2388758;567.2388758;567.2388758;567.2388758;567.2388758;567.2388758;None;0;;;C:\2023\REPSWITCH21092023\REPSWITCH_excgange\REPSWITCH_excgange\data/410101_REPSWITCH1_version1_list1_2023-12-14_13h41.53.845_micRespv1l1_recorded\recording_micRespv1l1_2023-12-14_13h51.16.998.wav;570.2601224;570.7601631;None;570.2601224;570.2601224;570.2601224;570.2601224;570.2601224;570.2601224;;;;;;410101;1;2023-12-14_13h41.53.845;REPSWITCH1_version1_list1;2022.2.4;143.9841273;
REPSWITCH1/PICTURE_178.png;puente;type;darkblue;switch;1;T;1;2;1;1;Stim1_Set1;0;None;117;116;15;0;116;116;116;;;;;;;;;;;;;;;;;;;;;;;570.7601631;571.9062542;571.9062542;571.9062542;571.9062542;571.9062542;571.9062542;571.9062542;571.9062542;['p', 'u', 'e', 'n', 't', 'e'];0;[1.3019448001869023, 1.5084001002833247, 1.6010174001567066, 1.69670130033046, 1.7744339001365006, 1.8333391998894513];puente;C:\2023\REPSWITCH21092023\REPSWITCH_excgange\REPSWITCH_excgange\data/410101_REPSWITCH1_version1_list1_2023-12-14_13h41.53.845_micRespv1l1_recorded\recording_micRespv1l1_2023-12-14_13h51.21.665.wav;574.9274454;575.4274486;None;574.9274454;574.9274454;574.9274454;574.9274454;574.9274454;574.9274454;;;;;;410101;1;2023-12-14_13h41.53.845;REPSWITCH1_version1_list1;2022.2.4;143.9841273;
REPSWITCH1/PICTURE_719.png;baño;speak;gold;filler;2;F;1;2;1;1;Stim2_Set4;0;None;118;117;16;0;117;117;117;;;;;;;;;;;;;;;;;;;;;;;575.4274486;576.4762118;576.4762118;576.4762118;576.4762118;576.4762118;576.4762118;576.4762118;576.4762118;None;0;;;C:\2023\REPSWITCH21092023\REPSWITCH_excgange\REPSWITCH_excgange\data/410101_REPSWITCH1_version1_list1_2023-12-14_13h41.53.845_micRespv1l1_recorded\recording_micRespv1l1_2023-12-14_13h51.26.236.wav;579.5043743;;None;579.5043743;579.5043743;579.5043743;579.5043743;579.5043743;579.5043743;;;;;;410101;1;2023-12-14_13h41.53.845;REPSWITCH1_version1_list1;2022.2.4;143.9841273;
REPSWITCH1/PICTURE_169.png;espalda;type;darkblue;nontarget;1;NT;1;2;1;1;Stim8_Set1;1;switch;119;118;17;0;118;118;118;;;;;;;;;;;;;;;;;;;;;;;580.0044351;581.1712597;581.1712597;581.1712597;581.1712597;581.1712597;581.1712597;581.1712597;581.1712597;['e', 's', 'p', 'a', 'l', 'd', 'a'];0;[0.7834033998660743, 0.8511713999323547, 1.0196098000742495, 1.1057376000098884, 1.250244999770075, 1.3182223998010159, 1.3790132999420166];espalda;C:\2023\REPSWITCH21092023\REPSWITCH_excgange\REPSWITCH_excgange\data/410101_REPSWITCH1_version1_list1_2023-12-14_13h41.53.845_micRespv1l1_recorded\recording_micRespv1l1_2023-12-14_13h51.30.930.wav;584.1925626;584.6925503;None;584.1925626;584.1925626;584.1925626;584.1925626;584.1925626;584.1925626;;;;;;410101;1;2023-12-14_13h41.53.845;REPSWITCH1_version1_list1;2022.2.4;143.9841273;
REPSWITCH1/PICTURE_169.png;espalda;type;darkblue;repeat;1;T;1;2;1;1;Stim8_Set1;0;None;120;119;18;0;119;119;119;;;;;;;;;;;;;;;;;;;;;;;584.6925503;585.7065545;585.7065545;585.7065545;585.7065545;585.7065545;585.7065545;585.7065545;585.7065545;['e', 's', 'p', 'a', 'l', 'd', 'a'];0;[0.6530030001886189, 0.7484718002378941, 0.875119199976325, 0.9777143001556396, 1.0943128000944853, 1.1809922000393271, 1.2278645001351833];espalda;C:\2023\REPSWITCH21092023\REPSWITCH_excgange\REPSWITCH_excgange\data/410101_REPSWITCH1_version1_list1_2023-12-14_13h41.53.845_micRespv1l1_recorded\recording_micRespv1l1_2023-12-14_13h51.35.466.wav;588.7347259;;None;588.7347259;588.7347259;588.7347259;588.7347259;588.7347259;588.7347259;;;;;;410101;1;2023-12-14_13h41.53.845;REPSWITCH1_version1_list1;2022.2.4;143.9841273;
REPSWITCH1/PICTURE_48.png;bombero;speak;gold;filler;2;F;1;2;1;1;Stim7_Set4;1;switch;121;120;19;0;120;120;120;;;;;;;;;;;;;;;;;;;;;;;589.234786;590.2488693;590.2488693;590.2488693;590.2488693;590.2488693;590.2488693;590.2488693;590.2488693;None;0;;;C:\2023\REPSWITCH21092023\REPSWITCH_excgange\REPSWITCH_excgange\data/410101_REPSWITCH1_version1_list1_2023-12-14_13h41.53.845_micRespv1l1_recorded\recording_micRespv1l1_2023-12-14_13h51.40.008.wav;593.2700305;593.7702052;None;593.2700305;593.2700305;593.2700305;593.2700305;593.2700305;593.2700305;;;;;;410101;1;2023-12-14_13h41.53.845;REPSWITCH1_version1_list1;2022.2.4;143.9841273;
REPSWITCH1/PICTURE_19.png;pavo;type;darkblue;nontarget;1;NT;1;2;1;1;Stim5_Set1;1;switch;122;121;20;0;121;121;121;;;;;;;;;;;;;;;;;;;;;;;593.7702052;594.9786775;594.9786775;594.9786775;594.9786775;594.9786775;594.9786775;594.9786775;594.9786775;['p', 'a', 'v', 'o'];0;[0.8911867998540401, 0.9778367998078465, 1.1412824001163244, 1.1642155000008643];pavo;C:\2023\REPSWITCH21092023\REPSWITCH_excgange\REPSWITCH_excgange\data/410101_REPSWITCH1_version1_list1_2023-12-14_13h41.53.845_micRespv1l1_recorded\recording_micRespv1l1_2023-12-14_13h51.44.738.wav;598.0068469;;None;598.0068469;598.0068469;598.0068469;598.0068469;598.0068469;598.0068469;;;;;;410101;1;2023-12-14_13h41.53.845;REPSWITCH1_version1_list1;2022.2.4;143.9841273;
REPSWITCH1/PICTURE_19.png;pavo;type;darkblue;repeat;1;T;1;2;1;1;Stim5_Set1;0;None;123;122;21;0;122;122;122;;;;;;;;;;;;;;;;;;;;;;;598.5068665;599.562568;599.562568;599.562568;599.562568;599.562568;599.562568;599.562568;599.562568;['p', 'a', 'v', 'o'];0;[0.5466498001478612, 0.6134060001932085, 0.7320134001784027, 0.8269575000740588];pavo;C:\2023\REPSWITCH21092023\REPSWITCH_excgange\REPSWITCH_excgange\data/410101_REPSWITCH1_version1_list1_2023-12-14_13h41.53.845_micRespv1l1_recorded\recording_micRespv1l1_2023-12-14_13h51.49.323.wav;602.5907094;;None;602.5907094;602.5907094;602.5907094;602.5907094;602.5907094;602.5907094;;;;;;410101;1;2023-12-14_13h41.53.845;REPSWITCH1_version1_list1;2022.2.4;143.9841273;
REPSWITCH1/PICTURE_319.png;vaca;speak;gold;filler;2;F;1;2;1;1;Stim1_Set4;0;None;124;123;22;0;123;123;123;;;;;;;;;;;;;;;;;;;;;;;603.0908451;604.2229106;604.2229106;604.2229106;604.2229106;604.2229106;604.2229106;604.2229106;604.2229106;None;0;;;C:\2023\REPSWITCH21092023\REPSWITCH_excgange\REPSWITCH_excgange\data/410101_REPSWITCH1_version1_list1_2023-12-14_13h41.53.845_micRespv1l1_recorded\recording_micRespv1l1_2023-12-14_13h51.53.982.wav;607.2441504;607.744183;None;607.2441504;607.2441504;607.2441504;607.2441504;607.2441504;607.2441504;;;;;;410101;1;2023-12-14_13h41.53.845;REPSWITCH1_version1_list1;2022.2.4;143.9841273;
REPSWITCH1/PICTURE_338.png;regalo;type;darkblue;filler;1;F;1;2;1;1;Stim6_Set4;0;None;125;124;23;0;124;124;124;;;;;;;;;;;;;;;;;;;;;;;607.744183;608.8694076;608.8694076;608.8694076;608.8694076;608.8694076;608.8694076;608.8694076;608.8694076;['r', 'e', 'g', 'a', 'l', 'o'];0;[0.8616781001910567, 0.9264442003332078, 1.0852549001574516, 1.1580667002126575, 1.2497379002161324, 1.4291936000809073];regalo;C:\2023\REPSWITCH21092023\REPSWITCH_excgange\REPSWITCH_excgange\data/410101_REPSWITCH1_version1_list1_2023-12-14_13h41.53.845_micRespv1l1_recorded\recording_micRespv1l1_2023-12-14_13h51.58.629.wav;611.8975659;;None;611.8975659;611.8975659;611.8975659;611.8975659;611.8975659;611.8975659;;;;;;410101;1;2023-12-14_13h41.53.845;REPSWITCH1_version1_list1;2022.2.4;143.9841273;
REPSWITCH1/PICTURE_142.png;vaso;type;darkblue;nontarget;1;NT;1;2;1;1;Stim7_Set1;0;None;126;125;24;0;125;125;125;;;;;;;;;;;;;;;;;;;;;;;612.3975532;613.5018949;613.5018949;613.5018949;613.5018949;613.5018949;613.5018949;613.5018949;613.5018949;['v', 'a', 's', 'o'];0;[0.835358299780637, 0.9380418001674116, 0.9739537998102605, 1.1028426000848413];vaso;C:\2023\REPSWITCH21092023\REPSWITCH_excgange\REPSWITCH_excgange\data/410101_REPSWITCH1_version1_list1_2023-12-14_13h41.53.845_micRespv1l1_recorded\recording_micRespv1l1_2023-12-14_13h52.03.261.wav;616.5231043;617.0232527;None;616.5231043;616.5231043;616.5231043;616.5231043;616.5231043;616.5231043;;;;;;410101;1;2023-12-14_13h41.53.845;REPSWITCH1_version1_list1;2022.2.4;143.9841273;
REPSWITCH1/PICTURE_142.png;vaso;speak;gold;switch;2;T;1;2;1;1;Stim7_Set1;0;None;127;126;25;0;126;126;126;;;;;;;;;;;;;;;;;;;;;;;617.0232527;618.1344363;618.1344363;618.1344363;618.1344363;618.1344363;618.1344363;618.1344363;618.1344363;None;0;;;C:\2023\REPSWITCH21092023\REPSWITCH_excgange\REPSWITCH_excgange\data/410101_REPSWITCH1_version1_list1_2023-12-14_13h41.53.845_micRespv1l1_recorded\recording_micRespv1l1_2023-12-14_13h52.07.894.wav;621.162585;;None;621.162585;621.162585;621.162585;621.162585;621.162585;621.162585;;;;;;410101;1;2023-12-14_13h41.53.845;REPSWITCH1_version1_list1;2022.2.4;143.9841273;
REPSWITCH1/PICTURE_687.png;camisa;type;darkblue;filler;1;F;1;2;1;1;Stim5_Set4;1;switch;128;127;26;0;127;127;127;;;;;;;;;;;;;;;;;;;;;;;621.6627204;622.7391925;622.7391925;622.7391925;622.7391925;622.7391925;622.7391925;622.7391925;622.7391925;['c', 'a', 'm', 'i', 's', 'a'];0;[1.1661344999447465, 1.1920406999997795, 1.2913236999884248, 1.3564495001919568, 1.3983796001411974, 1.454237800091505];camisa;C:\2023\REPSWITCH21092023\REPSWITCH_excgange\REPSWITCH_excgange\data/410101_REPSWITCH1_version1_list1_2023-12-14_13h41.53.845_micRespv1l1_recorded\recording_micRespv1l1_2023-12-14_13h52.12.498.wav;625.7604603;626.2605036;None;625.7604603;625.7604603;625.7604603;625.7604603;625.7604603;625.7604603;;;;;;410101;1;2023-12-14_13h41.53.845;REPSWITCH1_version1_list1;2022.2.4;143.9841273;
REPSWITCH1/PICTURE_30.png;granja;type;darkblue;nontarget;1;NT;2;2;1;1;Stim5_Set2;0;None;129;128;27;0;128;128;128;;;;;;;;;;;;;;;;;;;;;;;626.2605036;627.3162647;627.3162647;627.3162647;627.3162647;627.3162647;627.3162647;627.3162647;627.3162647;['g', 'r', 'a', 'n', 'j', 'a'];0;[0.7083101002499461, 0.7680395003408194, 0.9034162000752985, 1.0110803004354239, 1.1481749000959098, 1.247714000288397];granja;C:\2023\REPSWITCH21092023\REPSWITCH_excgange\REPSWITCH_excgange\data/410101_REPSWITCH1_version1_list1_2023-12-14_13h41.53.845_micRespv1l1_recorded\recording_micRespv1l1_2023-12-14_13h52.17.076.wav;630.3444364;;None;630.3444364;630.3444364;630.3444364;630.3444364;630.3444364;630.3444364;;;;;;410101;1;2023-12-14_13h41.53.845;REPSWITCH1_version1_list1;2022.2.4;143.9841273;
REPSWITCH1/PICTURE_30.png;granja;type;darkblue;repeat;1;T;2;2;1;1;Stim5_Set2;0;None;130;129;28;0;129;129;129;;;;;;;;;;;;;;;;;;;;;;;630.8444992;632.0182159;632.0182159;632.0182159;632.0182159;632.0182159;632.0182159;632.0182159;632.0182159;['g', 'r', 'a', 'n', 'j', 'a'];0;[0.6748326998203993, 0.717679999768734, 0.8901047999970615, 1.0256459000520408, 1.2043683999218047, 1.2703359997831285];granja;C:\2023\REPSWITCH21092023\REPSWITCH_excgange\REPSWITCH_excgange\data/410101_REPSWITCH1_version1_list1_2023-12-14_13h41.53.845_micRespv1l1_recorded\recording_micRespv1l1_2023-12-14_13h52.21.778.wav;635.0463773;;None;635.0463773;635.0463773;635.0463773;635.0463773;635.0463773;635.0463773;;;;;;410101;1;2023-12-14_13h41.53.845;REPSWITCH1_version1_list1;2022.2.4;143.9841273;
REPSWITCH1/PICTURE_128.png;muñeca;speak;gold;filler;2;F;2;2;1;1;Stim4_Set1;0;None;131;130;29;0;130;130;130;;;;;;;;;;;;;;;;;;;;;;;635.5464339;636.7827497;636.7827497;636.7827497;636.7827497;636.7827497;636.7827497;636.7827497;636.7827497;None;0;;;C:\2023\REPSWITCH21092023\REPSWITCH_excgange\REPSWITCH_excgange\data/410101_REPSWITCH1_version1_list1_2023-12-14_13h41.53.845_micRespv1l1_recorded\recording_micRespv1l1_2023-12-14_13h52.26.543.wav;639.8109273;;None;639.8109273;639.8109273;639.8109273;639.8109273;639.8109273;639.8109273;;;;;;410101;1;2023-12-14_13h41.53.845;REPSWITCH1_version1_list1;2022.2.4;143.9841273;
REPSWITCH1/PICTURE_264.png;mano;type;darkblue;nontarget;1;NT;2;2;1;1;Stim3_Set2;1;switch;132;131;30;0;131;131;131;;;;;;;;;;;;;;;;;;;;;;;640.3109585;641.4360944;641.4360944;641.4360944;641.4360944;641.4360944;641.4360944;641.4360944;641.4360944;['a', 'backspace', 'm', 'a', 'n', 'o'];0;[1.0226949001662433, 1.370535199996084, 1.5651881000958383, 1.6518970998004079, 1.7376004001125693, 1.8044480998069048];mano;C:\2023\REPSWITCH21092023\REPSWITCH_excgange\REPSWITCH_excgange\data/410101_REPSWITCH1_version1_list1_2023-12-14_13h41.53.845_micRespv1l1_recorded\recording_micRespv1l1_2023-12-14_13h52.31.195.wav;644.457313;644.9573997;None;644.457313;644.457313;644.457313;644.457313;644.457313;644.457313;;;;;;410101;1;2023-12-14_13h41.53.845;REPSWITCH1_version1_list1;2022.2.4;143.9841273;
REPSWITCH1/PICTURE_264.png;mano;type;darkblue;repeat;1;T;2;2;1;1;Stim3_Set2;0;None;133;132;31;0;132;132;132;;;;;;;;;;;;;;;;;;;;;;;644.9573997;646.0339481;646.0339481;646.0339481;646.0339481;646.0339481;646.0339481;646.0339481;646.0339481;['m', 'a', 'n', 'o'];0;[0.5763376001268625, 0.6593573000282049, 0.7769566001370549, 0.8297463003546];mano;C:\2023\REPSWITCH21092023\REPSWITCH_excgange\REPSWITCH_excgange\data/410101_REPSWITCH1_version1_list1_2023-12-14_13h41.53.845_micRespv1l1_recorded\recording_micRespv1l1_2023-12-14_13h52.35.793.wav;649.0551386;649.5552254;None;649.0551386;649.0551386;649.0551386;649.0551386;649.0551386;649.0551386;;;;;;410101;1;2023-12-14_13h41.53.845;REPSWITCH1_version1_list1;2022.2.4;143.9841273;
REPSWITCH1/PICTURE_175.png;pintor;type;darkblue;nontarget;1;NT;2;2;1;1;Stim1_Set2;0;None;134;133;32;0;133;133;133;;;;;;;;;;;;;;;;;;;;;;;649.5552254;650.5761726;650.5761726;650.5761726;650.5761726;650.5761726;650.5761726;650.5761726;650.5761726;['p', 'i', 'n', 't', 'o', 'r'];0;[0.8222598000429571, 0.982716599944979, 1.0584657001309097, 1.1843020003288984, 1.2690102001652122, 1.580178600270301];pintor;C:\2023\REPSWITCH21092023\REPSWITCH_excgange\REPSWITCH_excgange\data/410101_REPSWITCH1_version1_list1_2023-12-14_13h41.53.845_micRespv1l1_recorded\recording_micRespv1l1_2023-12-14_13h52.40.336.wav;653.597431;654.0975339;None;653.597431;653.597431;653.597431;653.597431;653.597431;653.597431;;;;;;410101;1;2023-12-14_13h41.53.845;REPSWITCH1_version1_list1;2022.2.4;143.9841273;
REPSWITCH1/PICTURE_175.png;pintor;speak;gold;switch;2;T;2;2;1;1;Stim1_Set2;0;None;135;134;33;0;134;134;134;;;;;;;;;;;;;;;;;;;;;;;654.0975339;655.2504379;655.2504379;655.2504379;655.2504379;655.2504379;655.2504379;655.2504379;655.2504379;None;0;;;C:\2023\REPSWITCH21092023\REPSWITCH_excgange\REPSWITCH_excgange\data/410101_REPSWITCH1_version1_list1_2023-12-14_13h41.53.845_micRespv1l1_recorded\recording_micRespv1l1_2023-12-14_13h52.45.010.wav;658.2716295;658.7716879;None;658.2716295;658.2716295;658.2716295;658.2716295;658.2716295;658.2716295;;;;;;410101;1;2023-12-14_13h41.53.845;REPSWITCH1_version1_list1;2022.2.4;143.9841273;
REPSWITCH1/PICTURE_135.png;traje;speak;gold;filler;2;F;2;2;1;1;Stim3_Set1;1;repeat;136;135;34;0;135;135;135;;;;;;;;;;;;;;;;;;;;;;;658.7716879;659.9732494;659.9732494;659.9732494;659.9732494;659.9732494;659.9732494;659.9732494;659.9732494;None;0;;;C:\2023\REPSWITCH21092023\REPSWITCH_excgange\REPSWITCH_excgange\data/410101_REPSWITCH1_version1_list1_2023-12-14_13h41.53.845_micRespv1l1_recorded\recording_micRespv1l1_2023-12-14_13h52.49.733.wav;662.9944926;663.4945176;None;662.9944926;662.9944926;662.9944926;662.9944926;662.9944926;662.9944926;;;;;;410101;1;2023-12-14_13h41.53.845;REPSWITCH1_version1_list1;2022.2.4;143.9841273;
REPSWITCH1/PICTURE_446.png;cerdo;speak;gold;nontarget;2;NT;2;2;1;1;Stim7_Set2;1;repeat;137;136;35;0;136;136;136;;;;;;;;;;;;;;;;;;;;;;;663.4945176;664.5502389;664.5502389;664.5502389;664.5502389;664.5502389;664.5502389;664.5502389;664.5502389;None;0;;;C:\2023\REPSWITCH21092023\REPSWITCH_excgange\REPSWITCH_excgange\data/410101_REPSWITCH1_version1_list1_2023-12-14_13h41.53.845_micRespv1l1_recorded\recording_micRespv1l1_2023-12-14_13h52.54.308.wav;667.5714853;668.0715225;None;667.5714853;667.5714853;667.5714853;667.5714853;667.5714853;667.5714853;;;;;;410101;1;2023-12-14_13h41.53.845;REPSWITCH1_version1_list1;2022.2.4;143.9841273;
REPSWITCH1/PICTURE_446.png;cerdo;type;darkblue;switch;1;T;2;2;1;1;Stim7_Set2;0;None;138;137;36;0;137;137;137;;;;;;;;;;;;;;;;;;;;;;;668.0715225;669.1411155;669.1411155;669.1411155;669.1411155;669.1411155;669.1411155;669.1411155;669.1411155;['c', 'e', 'r', 'd', 'o'];0;[0.8700850000604987, 0.9978097002021968, 1.0515703004784882, 1.2180078001692891, 1.2558820000849664];cerdo;C:\2023\REPSWITCH21092023\REPSWITCH_excgange\REPSWITCH_excgange\data/410101_REPSWITCH1_version1_list1_2023-12-14_13h41.53.845_micRespv1l1_recorded\recording_micRespv1l1_2023-12-14_13h52.58.900.wav;672.1623506;672.6624228;None;672.1623506;672.1623506;672.1623506;672.1623506;672.1623506;672.1623506;;;;;;410101;1;2023-12-14_13h41.53.845;REPSWITCH1_version1_list1;2022.2.4;143.9841273;
REPSWITCH1/PICTURE_152.png;caracol;type;darkblue;nontarget;1;NT;2;2;1;1;Stim2_Set2;1;repeat;139;138;37;0;138;138;138;;;;;;;;;;;;;;;;;;;;;;;672.6624228;673.8779376;673.8779376;673.8779376;673.8779376;673.8779376;673.8779376;673.8779376;673.8779376;['c', 'a', 'r', 'a', 'c', 'o', 'l'];0;[0.6969388998113573, 0.7716454998590052, 0.8895314000546932, 0.9802151001058519, 1.143448299728334, 1.233947599772364, 1.405483199749142];caracol;C:\2023\REPSWITCH21092023\REPSWITCH_excgange\REPSWITCH_excgange\data/410101_REPSWITCH1_version1_list1_2023-12-14_13h41.53.845_micRespv1l1_recorded\recording_micRespv1l1_2023-12-14_13h53.03.638.wav;676.9060249;;None;676.9060249;676.9060249;676.9060249;676.9060249;676.9060249;676.9060249;;;;;;410101;1;2023-12-14_13h41.53.845;REPSWITCH1_version1_list1;2022.2.4;143.9841273;
REPSWITCH1/PICTURE_152.png;caracol;speak;gold;switch;2;T;2;2;1;1;Stim2_Set2;0;None;140;139;38;0;139;139;139;;;;;;;;;;;;;;;;;;;;;;;677.4061793;678.4478901;678.4478901;678.4478901;678.4478901;678.4478901;678.4478901;678.4478901;678.4478901;None;0;;;C:\2023\REPSWITCH21092023\REPSWITCH_excgange\REPSWITCH_excgange\data/410101_REPSWITCH1_version1_list1_2023-12-14_13h41.53.845_micRespv1l1_recorded\recording_micRespv1l1_2023-12-14_13h53.08.207.wav;681.4691263;681.969201;None;681.4691263;681.4691263;681.4691263;681.4691263;681.4691263;681.4691263;;;;;;410101;1;2023-12-14_13h41.53.845;REPSWITCH1_version1_list1;2022.2.4;143.9841273;
REPSWITCH1/PICTURE_16.png;cazador;type;darkblue;filler;1;F;2;2;1;1;Stim6_Set1;0;None;141;140;39;0;140;140;140;;;;;;;;;;;;;;;;;;;;;;;681.969201;683.0526855;683.0526855;683.0526855;683.0526855;683.0526855;683.0526855;683.0526855;683.0526855;['c', 'a', 'z', 'a', 'd', 'o', 'r'];0;[0.6230700998567045, 0.7317038998007774, 1.2516116998158395, 1.4193425001576543, 1.5839255000464618, 1.7446367000229657, 1.8153943000361323];cazador;C:\2023\REPSWITCH21092023\REPSWITCH_excgange\REPSWITCH_excgange\data/410101_REPSWITCH1_version1_list1_2023-12-14_13h41.53.845_micRespv1l1_recorded\recording_micRespv1l1_2023-12-14_13h53.12.812.wav;686.073982;686.5739698;None;686.073982;686.073982;686.073982;686.073982;686.073982;686.073982;;;;;;410101;1;2023-12-14_13h41.53.845;REPSWITCH1_version1_list1;2022.2.4;143.9841273;
