image,correctAns,respModal,frameColor,repSwitch,sequence,target,set,block,list,exp_version,stimulus,baseline,baseline_condition,trial_no,psychopy_trial,Column1,trialsREPSWITCH.thisRepN,trialsREPSWITCH.thisTrialN,trialsREPSWITCH.thisN,trialsREPSWITCH.thisIndex,textWelcome.started,textboxInstrMain1.started,textboxInstrMain1_2.started,textboxInstrMain1_3.started,keyInstrMain.started,keyInstrMain.keys,keyInstrMain.rt,textboxInstrMain2.started,textboxInstrMain2_2.started,textboxInstrMain2_3.started,textboxInstrMain2_4.started,textboxInstrMain2_5.started,textboxInstrMain2_6.started,textboxInstrMain2_7.started,textboxInstrMain2_8.started,textboxInstrMain2_9.started,textboxInstrMain2_10.started,textboxInstrMain2_11.started,textboxInstrMain2_12.started,keyInstrMain2.started,keyInstrMain2.keys,keyInstrMain2.rt,fixationITI.started,fixationITI.stopped,polygonColour.started,polygonWhite.started,imageObject.started,polygonType.started,textInput.started,keyResp.started,micRespv2l1.started,keyResp.keys,keyResp.corr,keyResp.rt,subjResponse,micRespv2l1.clip,textBlankLoop.started,textBlankLoop.stopped,keyPause.keys,polygonColour.stopped,polygonWhite.stopped,imageObject.stopped,polygonType.stopped,textInput.stopped,keyResp.stopped,textboxPause.started,keyPause.started,keyPause.rt,textboxGoodbye.started,textboxGoodbye.stopped,participant,session,date,expName,psychopyVersion,frameRate,
,,,,,,,,,,,,,,,,,,,,,10.649582200683653,13.143906800076365,13.143906800076365,13.143906800076365,13.143906800076365,space,13.21303129941225,,,,,,,,,,,,,,,,,,,,,,,,,,,,,,,,,,,,,,,,,,,,420201,001,2024-01-16_15h35.09.580,REPSWITCH1_version2_list1,2022.2.4,144.13437864206355,
,,,,,,,,,,,,,,,,,,,,,,,,,,,,26.37482130061835,26.37482130061835,26.37482130061835,26.37482130061835,26.37482130061835,26.37482130061835,26.37482130061835,26.37482130061835,26.37482130061835,26.37482130061835,26.37482130061835,26.37482130061835,26.37482130061835,space,3.0783553989604115,,,,,,,,,,,,,,,,,,,,,,,,,,,,,420201,001,2024-01-16_15h35.09.580,REPSWITCH1_version2_list1,2022.2.4,144.13437864206355,
REPSWITCH1/PICTURE_340.png,espejo,type,gold,filler,1,F,1,1,1,2,Extra1,0,None,1,0,1,0,0,0,0,,,,,,,,,,,,,,,,,,,,,,,29.555778600275517,30.660156600177288,30.660156600177288,30.660156600177288,30.660156600177288,30.660156600177288,30.660156600177288,30.660156600177288,30.660156600177288,"['e', 's', 'p', 'e', 'j', 'o']",0,"[1.0302760992199183, 1.246497699059546, 1.4957270994782448, 1.6422318993136287, 1.936571299098432, 2.0582074988633394]",espejo,C:\2023\REPSWITCH21092023\REPSWITCH_excgange\REPSWITCH_excgange\data/420201_REPSWITCH1_version2_list1_2024-01-16_15h35.09.580_micRespv2l1_recorded\recording_micRespv2l1_2024-01-16_15h35.34.475.wav,33.68137070070952,34.18139690067619,None,,,,,,,,,,,,420201,001,2024-01-16_15h35.09.580,REPSWITCH1_version2_list1,2022.2.4,144.13437864206355,
REPSWITCH1/PICTURE_391.png,cadena,speak,darkblue,filler,2,F,1,1,1,2,Extra2,0,None,2,1,2,0,1,1,1,,,,,,,,,,,,,,,,,,,,,,,34.18139690067619,35.250998000614345,35.250998000614345,35.250998000614345,35.250998000614345,35.250998000614345,35.250998000614345,35.250998000614345,35.250998000614345,None,0,,,C:\2023\REPSWITCH21092023\REPSWITCH_excgange\REPSWITCH_excgange\data/420201_REPSWITCH1_version2_list1_2024-01-16_15h35.09.580_micRespv2l1_recorded\recording_micRespv2l1_2024-01-16_15h35.39.068.wav,38.279169199988246,,None,38.279169199988246,38.279169199988246,38.279169199988246,38.279169199988246,38.279169199988246,38.279169199988246,,,,,,420201,001,2024-01-16_15h35.09.580,REPSWITCH1_version2_list1,2022.2.4,144.13437864206355,
REPSWITCH1/PICTURE_178.png,puente,speak,darkblue,nontarget,2,NT,1,1,1,2,Stim1_Set1,1,repeat,3,2,3,0,2,2,2,,,,,,,,,,,,,,,,,,,,,,,38.77929050009698,39.83493440039456,39.83493440039456,39.83493440039456,39.83493440039456,39.83493440039456,39.83493440039456,39.83493440039456,39.83493440039456,None,0,,,C:\2023\REPSWITCH21092023\REPSWITCH_excgange\REPSWITCH_excgange\data/420201_REPSWITCH1_version2_list1_2024-01-16_15h35.09.580_micRespv2l1_recorded\recording_micRespv2l1_2024-01-16_15h35.43.653.wav,42.863127400167286,,None,42.863127400167286,42.863127400167286,42.863127400167286,42.863127400167286,42.863127400167286,42.863127400167286,,,,,,420201,001,2024-01-16_15h35.09.580,REPSWITCH1_version2_list1,2022.2.4,144.13437864206355,
REPSWITCH1/PICTURE_178.png,puente,speak,darkblue,repeat,2,T,1,1,1,2,Stim1_Set1,0,None,4,3,4,0,3,3,3,,,,,,,,,,,,,,,,,,,,,,,43.36316170077771,44.418855000287294,44.418855000287294,44.418855000287294,44.418855000287294,44.418855000287294,44.418855000287294,44.418855000287294,44.418855000287294,None,0,,,C:\2023\REPSWITCH21092023\REPSWITCH_excgange\REPSWITCH_excgange\data/420201_REPSWITCH1_version2_list1_2024-01-16_15h35.09.580_micRespv2l1_recorded\recording_micRespv2l1_2024-01-16_15h35.48.237.wav,47.44703290052712,47.947093800641596,None,47.44703290052712,47.44703290052712,47.44703290052712,47.44703290052712,47.44703290052712,47.44703290052712,,,,,,420201,001,2024-01-16_15h35.09.580,REPSWITCH1_version2_list1,2022.2.4,144.13437864206355,
REPSWITCH1/PICTURE_319.png,vaca,type,gold,filler,1,F,1,1,1,2,Stim1_Set4,0,None,5,4,5,0,4,4,4,,,,,,,,,,,,,,,,,,,,,,,47.947093800641596,49.07917129993439,49.07917129993439,49.07917129993439,49.07917129993439,49.07917129993439,49.07917129993439,49.07917129993439,49.07917129993439,"['v', 'a', 'c', 'a']",0,"[1.5268949996680021, 1.6953202998265624, 1.8827296998351812, 1.9733926998451352]",vaca,C:\2023\REPSWITCH21092023\REPSWITCH_excgange\REPSWITCH_excgange\data/420201_REPSWITCH1_version2_list1_2024-01-16_15h35.09.580_micRespv2l1_recorded\recording_micRespv2l1_2024-01-16_15h35.52.897.wav,52.10736090037972,,None,52.10736090037972,52.10736090037972,52.10736090037972,52.10736090037972,52.10736090037972,52.10736090037972,,,,,,420201,001,2024-01-16_15h35.09.580,REPSWITCH1_version2_list1,2022.2.4,144.13437864206355,
REPSWITCH1/PICTURE_381.png,fresa,speak,darkblue,nontarget,2,NT,1,1,1,2,Stim2_Set1,1,switch,6,5,6,0,5,5,5,,,,,,,,,,,,,,,,,,,,,,,52.60740939993411,53.64231550041586,53.64231550041586,53.64231550041586,53.64231550041586,53.64231550041586,53.64231550041586,53.64231550041586,53.64231550041586,None,0,,,C:\2023\REPSWITCH21092023\REPSWITCH_excgange\REPSWITCH_excgange\data/420201_REPSWITCH1_version2_list1_2024-01-16_15h35.09.580_micRespv2l1_recorded\recording_micRespv2l1_2024-01-16_15h35.57.460.wav,56.67045480012894,,None,56.67045480012894,56.67045480012894,56.67045480012894,56.67045480012894,56.67045480012894,56.67045480012894,,,,,,420201,001,2024-01-16_15h35.09.580,REPSWITCH1_version2_list1,2022.2.4,144.13437864206355,
REPSWITCH1/PICTURE_381.png,fresa,speak,darkblue,repeat,2,T,1,1,1,2,Stim2_Set1,0,None,7,6,7,0,6,6,6,,,,,,,,,,,,,,,,,,,,,,,57.17051460035145,58.35121160000563,58.35121160000563,58.35121160000563,58.35121160000563,58.35121160000563,58.35121160000563,58.35121160000563,58.35121160000563,None,0,,,C:\2023\REPSWITCH21092023\REPSWITCH_excgange\REPSWITCH_excgange\data/420201_REPSWITCH1_version2_list1_2024-01-16_15h35.09.580_micRespv2l1_recorded\recording_micRespv2l1_2024-01-16_15h36.02.169.wav,61.372454300522804,61.87252370081842,None,61.372454300522804,61.372454300522804,61.372454300522804,61.372454300522804,61.372454300522804,61.372454300522804,,,,,,420201,001,2024-01-16_15h35.09.580,REPSWITCH1_version2_list1,2022.2.4,144.13437864206355,
REPSWITCH1/PICTURE_719.png,baño,type,gold,filler,1,F,1,1,1,2,Stim2_Set4,1,switch,8,7,8,0,7,7,7,,,,,,,,,,,,,,,,,,,,,,,61.87252370081842,62.89348710048944,62.89348710048944,62.89348710048944,62.89348710048944,62.89348710048944,62.89348710048944,62.89348710048944,62.89348710048944,"['b', 'a', 'ñ', 'o']",0,"[1.3687439998611808, 1.682252500206232, 2.025047999806702, 2.2263740999624133]",baño,C:\2023\REPSWITCH21092023\REPSWITCH_excgange\REPSWITCH_excgange\data/420201_REPSWITCH1_version2_list1_2024-01-16_15h35.09.580_micRespv2l1_recorded\recording_micRespv2l1_2024-01-16_15h36.06.711.wav,65.92162950057536,,None,65.92162950057536,65.92162950057536,65.92162950057536,65.92162950057536,65.92162950057536,65.92162950057536,,,,,,420201,001,2024-01-16_15h35.09.580,REPSWITCH1_version2_list1,2022.2.4,144.13437864206355,
REPSWITCH1/PICTURE_135.png,traje,speak,darkblue,nontarget,2,NT,1,1,1,2,Stim3_Set1,0,None,9,8,9,0,8,8,8,,,,,,,,,,,,,,,,,,,,,,,66.42177010048181,67.49827850051224,67.49827850051224,67.49827850051224,67.49827850051224,67.49827850051224,67.49827850051224,67.49827850051224,67.49827850051224,None,0,,,C:\2023\REPSWITCH21092023\REPSWITCH_excgange\REPSWITCH_excgange\data/420201_REPSWITCH1_version2_list1_2024-01-16_15h35.09.580_micRespv2l1_recorded\recording_micRespv2l1_2024-01-16_15h36.11.316.wav,70.52646630071104,,None,70.52646630071104,70.52646630071104,70.52646630071104,70.52646630071104,70.52646630071104,70.52646630071104,,,,,,420201,001,2024-01-16_15h35.09.580,REPSWITCH1_version2_list1,2022.2.4,144.13437864206355,
REPSWITCH1/PICTURE_135.png,traje,type,gold,switch,1,T,1,1,1,2,Stim3_Set1,0,None,10,9,10,0,9,9,9,,,,,,,,,,,,,,,,,,,,,,,71.02649180032313,72.23499430064112,72.23499430064112,72.23499430064112,72.23499430064112,72.23499430064112,72.23499430064112,72.23499430064112,72.23499430064112,"['t', 'r', 'a', 'j', 'e']",0,"[1.0873662997037172, 1.2817189991474152, 1.4566657990217209, 1.8306643990799785, 2.0740730995312333]",traje,C:\2023\REPSWITCH21092023\REPSWITCH_excgange\REPSWITCH_excgange\data/420201_REPSWITCH1_version2_list1_2024-01-16_15h35.09.580_micRespv2l1_recorded\recording_micRespv2l1_2024-01-16_15h36.16.052.wav,75.25617410056293,75.75626560021192,None,75.25617410056293,75.25617410056293,75.25617410056293,75.25617410056293,75.25617410056293,75.25617410056293,,,,,,420201,001,2024-01-16_15h35.09.580,REPSWITCH1_version2_list1,2022.2.4,144.13437864206355,
REPSWITCH1/PICTURE_687.png,camisa,speak,darkblue,filler,2,F,1,1,1,2,Stim5_Set4,0,None,11,10,11,0,10,10,10,,,,,,,,,,,,,,,,,,,,,,,75.75626560021192,76.83279480040073,76.83279480040073,76.83279480040073,76.83279480040073,76.83279480040073,76.83279480040073,76.83279480040073,76.83279480040073,None,0,,,C:\2023\REPSWITCH21092023\REPSWITCH_excgange\REPSWITCH_excgange\data/420201_REPSWITCH1_version2_list1_2024-01-16_15h35.09.580_micRespv2l1_recorded\recording_micRespv2l1_2024-01-16_15h36.20.650.wav,79.85404100082815,80.35408650059253,None,79.85404100082815,79.85404100082815,79.85404100082815,79.85404100082815,79.85404100082815,79.85404100082815,,,,,,420201,001,2024-01-16_15h35.09.580,REPSWITCH1_version2_list1,2022.2.4,144.13437864206355,
REPSWITCH1/PICTURE_128.png,muñeca,type,gold,nontarget,1,NT,1,1,1,2,Stim4_Set1,1,switch,12,11,12,0,11,11,11,,,,,,,,,,,,,,,,,,,,,,,80.35408650059253,81.5209386004135,81.5209386004135,81.5209386004135,81.5209386004135,81.5209386004135,81.5209386004135,81.5209386004135,81.5209386004135,"['m', 'u', 'ñ', 'e', 'c', 'a']",0,"[1.4565171990543604, 1.6680827988311648, 2.169399599544704, 2.3956181993708014, 2.6202002987265587, 2.836476399563253]",muñeca,C:\2023\REPSWITCH21092023\REPSWITCH_excgange\REPSWITCH_excgange\data/420201_REPSWITCH1_version2_list1_2024-01-16_15h35.09.580_micRespv2l1_recorded\recording_micRespv2l1_2024-01-16_15h36.25.338.wav,84.54217569995672,85.04221850074828,None,84.54217569995672,84.54217569995672,84.54217569995672,84.54217569995672,84.54217569995672,84.54217569995672,,,,,,420201,001,2024-01-16_15h35.09.580,REPSWITCH1_version2_list1,2022.2.4,144.13437864206355,
REPSWITCH1/PICTURE_128.png,muñeca,speak,darkblue,switch,2,T,1,1,1,2,Stim4_Set1,0,None,13,12,13,0,12,12,12,,,,,,,,,,,,,,,,,,,,,,,85.04221850074828,86.13268470019102,86.13268470019102,86.13268470019102,86.13268470019102,86.13268470019102,86.13268470019102,86.13268470019102,86.13268470019102,None,0,,,C:\2023\REPSWITCH21092023\REPSWITCH_excgange\REPSWITCH_excgange\data/420201_REPSWITCH1_version2_list1_2024-01-16_15h35.09.580_micRespv2l1_recorded\recording_micRespv2l1_2024-01-16_15h36.29.951.wav,89.16080380044878,,None,89.16080380044878,89.16080380044878,89.16080380044878,89.16080380044878,89.16080380044878,89.16080380044878,,,,,,420201,001,2024-01-16_15h35.09.580,REPSWITCH1_version2_list1,2022.2.4,144.13437864206355,
REPSWITCH1/PICTURE_8.png,pierna,speak,darkblue,filler,2,F,1,1,1,2,Stim3_Set4,0,None,14,13,14,0,13,13,13,,,,,,,,,,,,,,,,,,,,,,,89.66084720008075,90.70268170069903,90.70268170069903,90.70268170069903,90.70268170069903,90.70268170069903,90.70268170069903,90.70268170069903,90.70268170069903,None,0,,,C:\2023\REPSWITCH21092023\REPSWITCH_excgange\REPSWITCH_excgange\data/420201_REPSWITCH1_version2_list1_2024-01-16_15h35.09.580_micRespv2l1_recorded\recording_micRespv2l1_2024-01-16_15h36.34.519.wav,93.72388110030442,94.22403730079532,None,93.72388110030442,93.72388110030442,93.72388110030442,93.72388110030442,93.72388110030442,93.72388110030442,,,,,,420201,001,2024-01-16_15h35.09.580,REPSWITCH1_version2_list1,2022.2.4,144.13437864206355,
REPSWITCH1/PICTURE_19.png,pavo,speak,darkblue,nontarget,2,NT,1,1,1,2,Stim5_Set1,0,None,15,14,15,0,14,14,14,,,,,,,,,,,,,,,,,,,,,,,94.22403730079532,95.33520460035652,95.33520460035652,95.33520460035652,95.33520460035652,95.33520460035652,95.33520460035652,95.33520460035652,95.33520460035652,None,0,,,C:\2023\REPSWITCH21092023\REPSWITCH_excgange\REPSWITCH_excgange\data/420201_REPSWITCH1_version2_list1_2024-01-16_15h35.09.580_micRespv2l1_recorded\recording_micRespv2l1_2024-01-16_15h36.39.152.wav,98.35641750041395,98.85651650000364,None,98.35641750041395,98.35641750041395,98.35641750041395,98.35641750041395,98.35641750041395,98.35641750041395,,,,,,420201,001,2024-01-16_15h35.09.580,REPSWITCH1_version2_list1,2022.2.4,144.13437864206355,
REPSWITCH1/PICTURE_19.png,pavo,type,gold,switch,1,T,1,1,1,2,Stim5_Set1,0,None,16,15,16,0,15,15,15,,,,,,,,,,,,,,,,,,,,,,,98.85651650000364,100.0233159000054,100.0233159000054,100.0233159000054,100.0233159000054,100.0233159000054,100.0233159000054,100.0233159000054,100.0233159000054,"['p', 'a', 'v', 'o']",0,"[1.028113898821175, 1.2318012993782759, 1.5754012987017632, 1.8157635992392898]",pavo,C:\2023\REPSWITCH21092023\REPSWITCH_excgange\REPSWITCH_excgange\data/420201_REPSWITCH1_version2_list1_2024-01-16_15h35.09.580_micRespv2l1_recorded\recording_micRespv2l1_2024-01-16_15h36.43.841.wav,103.05151300039142,,None,103.05151300039142,103.05151300039142,103.05151300039142,103.05151300039142,103.05151300039142,103.05151300039142,,,,,,420201,001,2024-01-16_15h35.09.580,REPSWITCH1_version2_list1,2022.2.4,144.13437864206355,
REPSWITCH1/PICTURE_16.png,cazador,type,gold,nontarget,1,NT,1,1,1,2,Stim6_Set1,1,switch,17,16,17,0,16,16,16,,,,,,,,,,,,,,,,,,,,,,,103.55156549997628,104.60031260084361,104.60031260084361,104.60031260084361,104.60031260084361,104.60031260084361,104.60031260084361,104.60031260084361,104.60031260084361,"['c', 'a', 'z', 'a']",0,"[2.307643199339509, 2.4264501994475722, 2.6616913992911577, 2.757327899336815]",caza,C:\2023\REPSWITCH21092023\REPSWITCH_excgange\REPSWITCH_excgange\data/420201_REPSWITCH1_version2_list1_2024-01-16_15h35.09.580_micRespv2l1_recorded\recording_micRespv2l1_2024-01-16_15h36.48.418.wav,107.62162220012397,108.12162470072508,None,107.62162220012397,107.62162220012397,107.62162220012397,107.62162220012397,107.62162220012397,107.62162220012397,,,,,,420201,001,2024-01-16_15h35.09.580,REPSWITCH1_version2_list1,2022.2.4,144.13437864206355,
REPSWITCH1/PICTURE_16.png,cazador,type,gold,repeat,1,T,1,1,1,2,Stim6_Set1,0,None,18,17,18,0,17,17,17,,,,,,,,,,,,,,,,,,,,,,,108.12162470072508,109.21207110024989,109.21207110024989,109.21207110024989,109.21207110024989,109.21207110024989,109.21207110024989,109.21207110024989,109.21207110024989,"['c', 'a', 'z', 'a', 'd', 'o', 'r']",0,"[1.183491699397564, 1.3014252996072173, 1.5116874994710088, 1.6963762994855642, 2.2291048988699913, 2.395474599674344, 2.498132299631834]",cazador,C:\2023\REPSWITCH21092023\REPSWITCH_excgange\REPSWITCH_excgange\data/420201_REPSWITCH1_version2_list1_2024-01-16_15h35.09.580_micRespv2l1_recorded\recording_micRespv2l1_2024-01-16_15h36.53.029.wav,112.2402419000864,,None,112.2402419000864,112.2402419000864,112.2402419000864,112.2402419000864,112.2402419000864,112.2402419000864,,,,,,420201,001,2024-01-16_15h35.09.580,REPSWITCH1_version2_list1,2022.2.4,144.13437864206355,
REPSWITCH1/PICTURE_498.png,taza,speak,darkblue,filler,2,F,1,1,1,2,Stim4_Set4,0,None,19,18,19,0,18,18,18,,,,,,,,,,,,,,,,,,,,,,,112.74027630034834,113.85849840007722,113.85849840007722,113.85849840007722,113.85849840007722,113.85849840007722,113.85849840007722,113.85849840007722,113.85849840007722,None,0,,,C:\2023\REPSWITCH21092023\REPSWITCH_excgange\REPSWITCH_excgange\data/420201_REPSWITCH1_version2_list1_2024-01-16_15h35.09.580_micRespv2l1_recorded\recording_micRespv2l1_2024-01-16_15h36.57.676.wav,116.8866581004113,117.38669500034302,None,116.8866581004113,116.8866581004113,116.8866581004113,116.8866581004113,116.8866581004113,116.8866581004113,,,,,,420201,001,2024-01-16_15h35.09.580,REPSWITCH1_version2_list1,2022.2.4,144.13437864206355,
REPSWITCH1/PICTURE_48.png,bombero,type,gold,filler,1,F,1,1,1,2,Stim7_Set4,0,None,20,19,20,0,19,19,19,,,,,,,,,,,,,,,,,,,,,,,117.38669500034302,118.44239580072463,118.44239580072463,118.44239580072463,118.44239580072463,118.44239580072463,118.44239580072463,118.44239580072463,118.44239580072463,"['b', 'o', 'm', 'b', 'e', 'r', 'o']",0,"[1.3569560991600156, 1.6509614996612072, 1.8926522992551327, 2.1228759996593, 2.2916168989613652, 2.469280899502337, 2.615791198797524]",bombero,C:\2023\REPSWITCH21092023\REPSWITCH_excgange\REPSWITCH_excgange\data/420201_REPSWITCH1_version2_list1_2024-01-16_15h35.09.580_micRespv2l1_recorded\recording_micRespv2l1_2024-01-16_15h37.02.260.wav,121.47058540023863,121.97063160035759,None,121.47058540023863,121.47058540023863,121.47058540023863,121.47058540023863,121.47058540023863,121.47058540023863,,,,,,420201,001,2024-01-16_15h35.09.580,REPSWITCH1_version2_list1,2022.2.4,144.13437864206355,
REPSWITCH1/PICTURE_142.png,vaso,type,gold,nontarget,1,NT,1,1,1,2,Stim7_Set1,1,repeat,21,20,21,0,20,20,20,,,,,,,,,,,,,,,,,,,,,,,121.97063160035759,123.0957762002945,123.0957762002945,123.0957762002945,123.0957762002945,123.0957762002945,123.0957762002945,123.0957762002945,123.0957762002945,"['v', 'a', 's', 'o']",0,"[1.2205894002690911, 1.3660618998110294, 1.572397300042212, 1.7460601003840566]",vaso,C:\2023\REPSWITCH21092023\REPSWITCH_excgange\REPSWITCH_excgange\data/420201_REPSWITCH1_version2_list1_2024-01-16_15h35.09.580_micRespv2l1_recorded\recording_micRespv2l1_2024-01-16_15h37.06.913.wav,126.11700380034745,126.61709650047123,None,126.11700380034745,126.11700380034745,126.11700380034745,126.11700380034745,126.11700380034745,126.11700380034745,,,,,,420201,001,2024-01-16_15h35.09.580,REPSWITCH1_version2_list1,2022.2.4,144.13437864206355,
REPSWITCH1/PICTURE_142.png,vaso,type,gold,repeat,1,T,1,1,1,2,Stim7_Set1,0,None,22,21,22,0,21,21,21,,,,,,,,,,,,,,,,,,,,,,,126.61709650047123,127.69360060058534,127.69360060058534,127.69360060058534,127.69360060058534,127.69360060058534,127.69360060058534,127.69360060058534,127.69360060058534,"['v', 'a', 's', 'o']",0,"[1.13099529966712, 1.4638361996039748, 1.6591790998354554, 1.7827631998807192]",vaso,C:\2023\REPSWITCH21092023\REPSWITCH_excgange\REPSWITCH_excgange\data/420201_REPSWITCH1_version2_list1_2024-01-16_15h35.09.580_micRespv2l1_recorded\recording_micRespv2l1_2024-01-16_15h37.11.512.wav,130.72175260074437,,None,130.72175260074437,130.72175260074437,130.72175260074437,130.72175260074437,130.72175260074437,130.72175260074437,,,,,,420201,001,2024-01-16_15h35.09.580,REPSWITCH1_version2_list1,2022.2.4,144.13437864206355,
REPSWITCH1/PICTURE_338.png,regalo,speak,darkblue,filler,2,F,1,1,1,2,Stim6_Set4,1,switch,23,22,23,0,22,22,22,,,,,,,,,,,,,,,,,,,,,,,131.221835100092,132.29837980028242,132.29837980028242,132.29837980028242,132.29837980028242,132.29837980028242,132.29837980028242,132.29837980028242,132.29837980028242,None,0,,,C:\2023\REPSWITCH21092023\REPSWITCH_excgange\REPSWITCH_excgange\data/420201_REPSWITCH1_version2_list1_2024-01-16_15h35.09.580_micRespv2l1_recorded\recording_micRespv2l1_2024-01-16_15h37.16.116.wav,135.32656690012664,,None,135.32656690012664,135.32656690012664,135.32656690012664,135.32656690012664,135.32656690012664,135.32656690012664,,,,,,420201,001,2024-01-16_15h35.09.580,REPSWITCH1_version2_list1,2022.2.4,144.13437864206355,
REPSWITCH1/PICTURE_728.png,pulpo,type,gold,filler,1,F,1,1,1,2,Stim8_Set4,1,switch,24,23,24,0,23,23,23,,,,,,,,,,,,,,,,,,,,,,,135.82663280051202,136.91703330073506,136.91703330073506,136.91703330073506,136.91703330073506,136.91703330073506,136.91703330073506,136.91703330073506,136.91703330073506,"['p', 'u', 'l', 'p', 'o']",0,"[1.1909396992996335, 1.5727176992222667, 1.846132199279964, 2.1948653990402818, 2.3692825995385647]",pulpo,C:\2023\REPSWITCH21092023\REPSWITCH_excgange\REPSWITCH_excgange\data/420201_REPSWITCH1_version2_list1_2024-01-16_15h35.09.580_micRespv2l1_recorded\recording_micRespv2l1_2024-01-16_15h37.20.734.wav,139.93825690075755,140.43841530010104,None,139.93825690075755,139.93825690075755,139.93825690075755,139.93825690075755,139.93825690075755,139.93825690075755,,,,,,420201,001,2024-01-16_15h35.09.580,REPSWITCH1_version2_list1,2022.2.4,144.13437864206355,
REPSWITCH1/PICTURE_169.png,espalda,type,gold,nontarget,1,NT,1,1,1,2,Stim8_Set1,1,repeat,25,24,25,0,24,24,24,,,,,,,,,,,,,,,,,,,,,,,140.43841530010104,141.51487040054053,141.51487040054053,141.51487040054053,141.51487040054053,141.51487040054053,141.51487040054053,141.51487040054053,141.51487040054053,"['e', 's', 'p', 'a', 'l', 'd', 'a']",0,"[1.1657759994268417, 1.3571366993710399, 1.5228250995278358, 1.6177674997597933, 1.7503765998408198, 2.0026944000273943, 2.2325114998966455]",espalda,C:\2023\REPSWITCH21092023\REPSWITCH_excgange\REPSWITCH_excgange\data/420201_REPSWITCH1_version2_list1_2024-01-16_15h35.09.580_micRespv2l1_recorded\recording_micRespv2l1_2024-01-16_15h37.25.332.wav,144.54304959997535,,None,144.54304959997535,144.54304959997535,144.54304959997535,144.54304959997535,144.54304959997535,144.54304959997535,,,,,,420201,001,2024-01-16_15h35.09.580,REPSWITCH1_version2_list1,2022.2.4,144.13437864206355,
REPSWITCH1/PICTURE_169.png,espalda,speak,darkblue,switch,2,T,1,1,1,2,Stim8_Set1,0,None,26,25,26,0,25,25,25,,,,,,,,,,,,,,,,,,,,,,,145.04318450018764,146.1822009999305,146.1822009999305,146.1822009999305,146.1822009999305,146.1822009999305,146.1822009999305,146.1822009999305,146.1822009999305,None,0,,,C:\2023\REPSWITCH21092023\REPSWITCH_excgange\REPSWITCH_excgange\data/420201_REPSWITCH1_version2_list1_2024-01-16_15h35.09.580_micRespv2l1_recorded\recording_micRespv2l1_2024-01-16_15h37.30.000.wav,149.21030290052295,,None,149.21030290052295,149.21030290052295,149.21030290052295,149.21030290052295,149.21030290052295,149.21030290052295,,,,,,420201,001,2024-01-16_15h35.09.580,REPSWITCH1_version2_list1,2022.2.4,144.13437864206355,
REPSWITCH1/PICTURE_178.png,puente,speak,darkblue,filler,2,F,2,1,1,2,Stim1_Set1,0,None,27,26,27,0,26,26,26,,,,,,,,,,,,,,,,,,,,,,,149.7104059001431,150.77300970070064,150.77300970070064,150.77300970070064,150.77300970070064,150.77300970070064,150.77300970070064,150.77300970070064,150.77300970070064,None,0,,,C:\2023\REPSWITCH21092023\REPSWITCH_excgange\REPSWITCH_excgange\data/420201_REPSWITCH1_version2_list1_2024-01-16_15h35.09.580_micRespv2l1_recorded\recording_micRespv2l1_2024-01-16_15h37.34.589.wav,153.79425690043718,154.29432500060648,None,153.79425690043718,153.79425690043718,153.79425690043718,153.79425690043718,153.79425690043718,153.79425690043718,,,,,,420201,001,2024-01-16_15h35.09.580,REPSWITCH1_version2_list1,2022.2.4,144.13437864206355,
REPSWITCH1/PICTURE_175.png,pintor,type,gold,nontarget,1,NT,2,1,1,2,Stim1_Set2,1,switch,28,27,28,0,27,27,27,,,,,,,,,,,,,,,,,,,,,,,154.29432500060648,155.3917507007718,155.3917507007718,155.3917507007718,155.3917507007718,155.3917507007718,155.3917507007718,155.3917507007718,155.3917507007718,"['p', 'i', 'n', 't', 'o', 'r']",0,"[1.3074002992361784, 1.5166805991902947, 1.7123807994648814, 1.9093884993344545, 2.0628131991252303, 2.1784863993525505]",pintor,C:\2023\REPSWITCH21092023\REPSWITCH_excgange\REPSWITCH_excgange\data/420201_REPSWITCH1_version2_list1_2024-01-16_15h35.09.580_micRespv2l1_recorded\recording_micRespv2l1_2024-01-16_15h37.39.209.wav,158.41288419999182,158.91297380067408,None,158.41288419999182,158.41288419999182,158.41288419999182,158.41288419999182,158.41288419999182,158.41288419999182,,,,,,420201,001,2024-01-16_15h35.09.580,REPSWITCH1_version2_list1,2022.2.4,144.13437864206355,
REPSWITCH1/PICTURE_175.png,pintor,type,gold,repeat,1,T,2,1,1,2,Stim1_Set2,0,None,29,28,29,0,28,28,28,,,,,,,,,,,,,,,,,,,,,,,158.91297380067408,159.97564129997045,159.97564129997045,159.97564129997045,159.97564129997045,159.97564129997045,159.97564129997045,159.97564129997045,159.97564129997045,"['p', 'i', 'n', 't', 'r']",0,"[0.9736194992437959, 1.2217673994600773, 1.9259327994659543, 2.156146098859608, 2.4678438995033503]",pintr,C:\2023\REPSWITCH21092023\REPSWITCH_excgange\REPSWITCH_excgange\data/420201_REPSWITCH1_version2_list1_2024-01-16_15h35.09.580_micRespv2l1_recorded\recording_micRespv2l1_2024-01-16_15h37.43.793.wav,162.99689760059118,163.49687780067325,None,162.99689760059118,162.99689760059118,162.99689760059118,162.99689760059118,162.99689760059118,162.99689760059118,,,,,,420201,001,2024-01-16_15h35.09.580,REPSWITCH1_version2_list1,2022.2.4,144.13437864206355,
REPSWITCH1/PICTURE_381.png,fresa,speak,darkblue,filler,2,F,2,1,1,2,Stim2_Set1,0,None,30,29,30,0,29,29,29,,,,,,,,,,,,,,,,,,,,,,,163.49687780067325,164.55953330080956,164.55953330080956,164.55953330080956,164.55953330080956,164.55953330080956,164.55953330080956,164.55953330080956,164.55953330080956,None,0,,,C:\2023\REPSWITCH21092023\REPSWITCH_excgange\REPSWITCH_excgange\data/420201_REPSWITCH1_version2_list1_2024-01-16_15h35.09.580_micRespv2l1_recorded\recording_micRespv2l1_2024-01-16_15h37.48.377.wav,167.58078100066632,168.08082209993154,None,167.58078100066632,167.58078100066632,167.58078100066632,167.58078100066632,167.58078100066632,167.58078100066632,,,,,,420201,001,2024-01-16_15h35.09.580,REPSWITCH1_version2_list1,2022.2.4,144.13437864206355,
REPSWITCH1/PICTURE_152.png,caracol,type,gold,nontarget,1,NT,2,1,1,2,Stim2_Set2,1,switch,31,30,31,0,30,30,30,,,,,,,,,,,,,,,,,,,,,,,168.08082209993154,169.30320830084383,169.30320830084383,169.30320830084383,169.30320830084383,169.30320830084383,169.30320830084383,169.30320830084383,169.30320830084383,"['c', 'a', 'r', 'a', 'c', 'o', 'l']",0,"[1.2073870990425348, 1.286086299456656, 1.4057226991280913, 1.4764643991366029, 1.7336311992257833, 1.9300414994359016, 2.097381799481809]",caracol,C:\2023\REPSWITCH21092023\REPSWITCH_excgange\REPSWITCH_excgange\data/420201_REPSWITCH1_version2_list1_2024-01-16_15h35.09.580_micRespv2l1_recorded\recording_micRespv2l1_2024-01-16_15h37.53.121.wav,172.33140309993178,,None,172.33140309993178,172.33140309993178,172.33140309993178,172.33140309993178,172.33140309993178,172.33140309993178,,,,,,420201,001,2024-01-16_15h35.09.580,REPSWITCH1_version2_list1,2022.2.4,144.13437864206355,
REPSWITCH1/PICTURE_152.png,caracol,type,gold,repeat,1,T,2,1,1,2,Stim2_Set2,0,None,32,31,32,0,31,31,31,,,,,,,,,,,,,,,,,,,,,,,172.831536100246,173.89409480057657,173.89409480057657,173.89409480057657,173.89409480057657,173.89409480057657,173.89409480057657,173.89409480057657,173.89409480057657,"['c', 'a', 'r', 'a', 'c', 'o', 'l']",0,"[0.9429682986810803, 1.207074599340558, 1.3815803993493319, 1.447275498881936, 1.6967213992029428, 1.8612417988479137, 2.031501499004662]",caracol,C:\2023\REPSWITCH21092023\REPSWITCH_excgange\REPSWITCH_excgange\data/420201_REPSWITCH1_version2_list1_2024-01-16_15h35.09.580_micRespv2l1_recorded\recording_micRespv2l1_2024-01-16_15h37.57.712.wav,176.92235419992357,,None,176.92235419992357,176.92235419992357,176.92235419992357,176.92235419992357,176.92235419992357,176.92235419992357,,,,,,420201,001,2024-01-16_15h35.09.580,REPSWITCH1_version2_list1,2022.2.4,144.13437864206355,
REPSWITCH1/PICTURE_128.png,muñeca,speak,darkblue,filler,2,F,2,1,1,2,Stim4_Set1,0,None,33,32,33,0,32,32,32,,,,,,,,,,,,,,,,,,,,,,,177.42235870007426,178.609982999973,178.609982999973,178.609982999973,178.609982999973,178.609982999973,178.609982999973,178.609982999973,178.609982999973,None,0,,,C:\2023\REPSWITCH21092023\REPSWITCH_excgange\REPSWITCH_excgange\data/420201_REPSWITCH1_version2_list1_2024-01-16_15h35.09.580_micRespv2l1_recorded\recording_micRespv2l1_2024-01-16_15h38.02.427.wav,181.63121470063925,182.13128970004618,None,181.63121470063925,181.63121470063925,181.63121470063925,181.63121470063925,181.63121470063925,181.63121470063925,,,,,,420201,001,2024-01-16_15h35.09.580,REPSWITCH1_version2_list1,2022.2.4,144.13437864206355,
REPSWITCH1/PICTURE_264.png,mano,type,gold,nontarget,1,NT,2,1,1,2,Stim3_Set2,0,None,34,33,34,0,33,33,33,,,,,,,,,,,,,,,,,,,,,,,182.13128970004618,183.37452429998666,183.37452429998666,183.37452429998666,183.37452429998666,183.37452429998666,183.37452429998666,183.37452429998666,183.37452429998666,"['m', 'a', 'n', 'o']",0,"[0.9528937991708517, 1.0565444994717836, 1.2110142996534705, 1.3944011991843581]",mano,C:\2023\REPSWITCH21092023\REPSWITCH_excgange\REPSWITCH_excgange\data/420201_REPSWITCH1_version2_list1_2024-01-16_15h35.09.580_micRespv2l1_recorded\recording_micRespv2l1_2024-01-16_15h38.07.192.wav,186.40266960021108,,None,186.40266960021108,186.40266960021108,186.40266960021108,186.40266960021108,186.40266960021108,186.40266960021108,,,,,,420201,001,2024-01-16_15h35.09.580,REPSWITCH1_version2_list1,2022.2.4,144.13437864206355,
REPSWITCH1/PICTURE_264.png,mano,speak,darkblue,switch,2,T,2,1,1,2,Stim3_Set2,0,None,35,34,35,0,34,34,34,,,,,,,,,,,,,,,,,,,,,,,186.902798300609,188.00009930040687,188.00009930040687,188.00009930040687,188.00009930040687,188.00009930040687,188.00009930040687,188.00009930040687,188.00009930040687,None,0,,,C:\2023\REPSWITCH21092023\REPSWITCH_excgange\REPSWITCH_excgange\data/420201_REPSWITCH1_version2_list1_2024-01-16_15h35.09.580_micRespv2l1_recorded\recording_micRespv2l1_2024-01-16_15h38.11.817.wav,191.02132620010525,191.5213961005211,None,191.02132620010525,191.02132620010525,191.02132620010525,191.02132620010525,191.02132620010525,191.02132620010525,,,,,,420201,001,2024-01-16_15h35.09.580,REPSWITCH1_version2_list1,2022.2.4,144.13437864206355,
REPSWITCH1/PICTURE_517.png,cuerda,speak,darkblue,nontarget,2,NT,2,1,1,2,Stim4_Set2,1,repeat,36,35,36,0,35,35,35,,,,,,,,,,,,,,,,,,,,,,,191.5213961005211,192.60490570031106,192.60490570031106,192.60490570031106,192.60490570031106,192.60490570031106,192.60490570031106,192.60490570031106,192.60490570031106,None,0,,,C:\2023\REPSWITCH21092023\REPSWITCH_excgange\REPSWITCH_excgange\data/420201_REPSWITCH1_version2_list1_2024-01-16_15h35.09.580_micRespv2l1_recorded\recording_micRespv2l1_2024-01-16_15h38.16.423.wav,195.63306090049446,,None,195.63306090049446,195.63306090049446,195.63306090049446,195.63306090049446,195.63306090049446,195.63306090049446,,,,,,420201,001,2024-01-16_15h35.09.580,REPSWITCH1_version2_list1,2022.2.4,144.13437864206355,
REPSWITCH1/PICTURE_517.png,cuerda,type,gold,switch,1,T,2,1,1,2,Stim4_Set2,0,None,37,36,37,0,36,36,36,,,,,,,,,,,,,,,,,,,,,,,196.13311060052365,197.2166084004566,197.2166084004566,197.2166084004566,197.2166084004566,197.2166084004566,197.2166084004566,197.2166084004566,197.2166084004566,"['c', 'u', 'e', 'r', 'd', 'a']",0,"[1.2985987989231944, 1.5028463993221521, 1.6712849996984005, 2.000259199179709, 2.2176036993041635, 2.448405599221587]",cuerda,C:\2023\REPSWITCH21092023\REPSWITCH_excgange\REPSWITCH_excgange\data/420201_REPSWITCH1_version2_list1_2024-01-16_15h35.09.580_micRespv2l1_recorded\recording_micRespv2l1_2024-01-16_15h38.21.033.wav,200.23782660067081,200.73794820066541,None,200.23782660067081,200.23782660067081,200.23782660067081,200.23782660067081,200.23782660067081,200.23782660067081,,,,,,420201,001,2024-01-16_15h35.09.580,REPSWITCH1_version2_list1,2022.2.4,144.13437864206355,
REPSWITCH1/PICTURE_135.png,traje,type,gold,filler,1,F,2,1,1,2,Stim3_Set1,0,None,38,37,38,0,37,37,37,,,,,,,,,,,,,,,,,,,,,,,200.73794820066541,201.9811950000003,201.9811950000003,201.9811950000003,201.9811950000003,201.9811950000003,201.9811950000003,201.9811950000003,201.9811950000003,"['t', 'r', 'a', 'j', 'e']",0,"[1.344781099818647, 1.5231675999239087, 1.6700179995968938, 2.0853625992313027, 2.2380582997575402]",traje,C:\2023\REPSWITCH21092023\REPSWITCH_excgange\REPSWITCH_excgange\data/420201_REPSWITCH1_version2_list1_2024-01-16_15h35.09.580_micRespv2l1_recorded\recording_micRespv2l1_2024-01-16_15h38.25.799.wav,205.00928590074182,,None,205.00928590074182,205.00928590074182,205.00928590074182,205.00928590074182,205.00928590074182,205.00928590074182,,,,,,420201,001,2024-01-16_15h35.09.580,REPSWITCH1_version2_list1,2022.2.4,144.13437864206355,
REPSWITCH1/PICTURE_30.png,granja,type,gold,nontarget,1,NT,2,1,1,2,Stim5_Set2,1,repeat,39,38,39,0,38,38,38,,,,,,,,,,,,,,,,,,,,,,,205.5093490006402,206.55807280074805,206.55807280074805,206.55807280074805,206.55807280074805,206.55807280074805,206.55807280074805,206.55807280074805,206.55807280074805,"['g', 'r', 'a', 'n', 'j', 'a']",0,"[1.5244769994169474, 1.760827099904418, 1.925539999268949, 2.271342199295759, 2.446104899980128, 2.5478463992476463]",granja,C:\2023\REPSWITCH21092023\REPSWITCH_excgange\REPSWITCH_excgange\data/420201_REPSWITCH1_version2_list1_2024-01-16_15h35.09.580_micRespv2l1_recorded\recording_micRespv2l1_2024-01-16_15h38.30.376.wav,209.586350700818,210.08640980068594,None,209.586350700818,209.586350700818,209.586350700818,209.586350700818,209.586350700818,209.586350700818,,,,,,420201,001,2024-01-16_15h35.09.580,REPSWITCH1_version2_list1,2022.2.4,144.13437864206355,
REPSWITCH1/PICTURE_30.png,granja,speak,darkblue,switch,2,T,2,1,1,2,Stim5_Set2,0,None,40,39,40,0,39,39,39,,,,,,,,,,,,,,,,,,,,,,,210.08640980068594,211.16979600023478,211.16979600023478,211.16979600023478,211.16979600023478,211.16979600023478,211.16979600023478,211.16979600023478,211.16979600023478,None,0,,,C:\2023\REPSWITCH21092023\REPSWITCH_excgange\REPSWITCH_excgange\data/420201_REPSWITCH1_version2_list1_2024-01-16_15h35.09.580_micRespv2l1_recorded\recording_micRespv2l1_2024-01-16_15h38.34.988.wav,214.1979968007654,,None,214.1979968007654,214.1979968007654,214.1979968007654,214.1979968007654,214.1979968007654,214.1979968007654,,,,,,420201,001,2024-01-16_15h35.09.580,REPSWITCH1_version2_list1,2022.2.4,144.13437864206355,
REPSWITCH1/PICTURE_142.png,vaso,type,gold,filler,1,F,2,1,1,2,Stim7_Set1,0,None,41,40,41,0,40,40,40,,,,,,,,,,,,,,,,,,,,,,,214.6980475001037,215.77459990046918,215.77459990046918,215.77459990046918,215.77459990046918,215.77459990046918,215.77459990046918,215.77459990046918,215.77459990046918,"['v', 'a', 's', 'o']",0,"[1.0604772996157408, 1.2318895999342203, 1.4192735003307462, 1.59292250033468]",vaso,C:\2023\REPSWITCH21092023\REPSWITCH_excgange\REPSWITCH_excgange\data/420201_REPSWITCH1_version2_list1_2024-01-16_15h35.09.580_micRespv2l1_recorded\recording_micRespv2l1_2024-01-16_15h38.39.592.wav,218.80278930068016,,None,218.80278930068016,218.80278930068016,218.80278930068016,218.80278930068016,218.80278930068016,218.80278930068016,,,,,,420201,001,2024-01-16_15h35.09.580,REPSWITCH1_version2_list1,2022.2.4,144.13437864206355,
REPSWITCH1/PICTURE_19.png,pavo,speak,darkblue,filler,2,F,2,1,1,2,Stim5_Set1,1,switch,42,41,42,0,41,41,41,,,,,,,,,,,,,,,,,,,,,,,219.30279770027846,220.4211119003594,220.4211119003594,220.4211119003594,220.4211119003594,220.4211119003594,220.4211119003594,220.4211119003594,220.4211119003594,None,0,,,C:\2023\REPSWITCH21092023\REPSWITCH_excgange\REPSWITCH_excgange\data/420201_REPSWITCH1_version2_list1_2024-01-16_15h35.09.580_micRespv2l1_recorded\recording_micRespv2l1_2024-01-16_15h38.44.239.wav,223.44920360017568,,None,223.44920360017568,223.44920360017568,223.44920360017568,223.44920360017568,223.44920360017568,223.44920360017568,,,,,,420201,001,2024-01-16_15h35.09.580,REPSWITCH1_version2_list1,2022.2.4,144.13437864206355,
REPSWITCH1/PICTURE_552.png,manzana,speak,darkblue,nontarget,2,NT,2,1,1,2,Stim6_Set2,1,repeat,43,42,43,0,42,42,42,,,,,,,,,,,,,,,,,,,,,,,223.94922470021993,225.0743925003335,225.0743925003335,225.0743925003335,225.0743925003335,225.0743925003335,225.0743925003335,225.0743925003335,225.0743925003335,None,0,,,C:\2023\REPSWITCH21092023\REPSWITCH_excgange\REPSWITCH_excgange\data/420201_REPSWITCH1_version2_list1_2024-01-16_15h35.09.580_micRespv2l1_recorded\recording_micRespv2l1_2024-01-16_15h38.48.892.wav,228.10258640069515,,None,228.10258640069515,228.10258640069515,228.10258640069515,228.10258640069515,228.10258640069515,228.10258640069515,,,,,,420201,001,2024-01-16_15h35.09.580,REPSWITCH1_version2_list1,2022.2.4,144.13437864206355,
REPSWITCH1/PICTURE_552.png,manzana,speak,darkblue,repeat,2,T,2,1,1,2,Stim6_Set2,0,None,44,43,44,0,43,43,43,,,,,,,,,,,,,,,,,,,,,,,228.6026246007532,229.86675980035216,229.86675980035216,229.86675980035216,229.86675980035216,229.86675980035216,229.86675980035216,229.86675980035216,229.86675980035216,None,0,,,C:\2023\REPSWITCH21092023\REPSWITCH_excgange\REPSWITCH_excgange\data/420201_REPSWITCH1_version2_list1_2024-01-16_15h35.09.580_micRespv2l1_recorded\recording_micRespv2l1_2024-01-16_15h38.53.685.wav,232.89486570004374,,None,232.89486570004374,232.89486570004374,232.89486570004374,232.89486570004374,232.89486570004374,232.89486570004374,,,,,,420201,001,2024-01-16_15h35.09.580,REPSWITCH1_version2_list1,2022.2.4,144.13437864206355,
REPSWITCH1/PICTURE_16.png,cazador,type,gold,filler,1,F,2,1,1,2,Stim6_Set1,0,None,45,44,45,0,44,44,44,,,,,,,,,,,,,,,,,,,,,,,233.39494600053877,234.45757090020925,234.45757090020925,234.45757090020925,234.45757090020925,234.45757090020925,234.45757090020925,234.45757090020925,234.45757090020925,"['c', 'a', 'z', 'a', 'd', 'o', 'r']",0,"[1.1238980991765857, 1.2504321988672018, 1.4547919994220138, 1.5613964991644025, 1.8487776992842555, 2.0539565989747643, 2.3658920992165804]",cazador,C:\2023\REPSWITCH21092023\REPSWITCH_excgange\REPSWITCH_excgange\data/420201_REPSWITCH1_version2_list1_2024-01-16_15h35.09.580_micRespv2l1_recorded\recording_micRespv2l1_2024-01-16_15h38.58.275.wav,237.48574300017208,,None,237.48574300017208,237.48574300017208,237.48574300017208,237.48574300017208,237.48574300017208,237.48574300017208,,,,,,420201,001,2024-01-16_15h35.09.580,REPSWITCH1_version2_list1,2022.2.4,144.13437864206355,
REPSWITCH1/PICTURE_446.png,cerdo,speak,darkblue,nontarget,2,NT,2,1,1,2,Stim7_Set2,1,switch,46,45,46,0,45,45,45,,,,,,,,,,,,,,,,,,,,,,,237.98579300008714,239.0832673003897,239.0832673003897,239.0832673003897,239.0832673003897,239.0832673003897,239.0832673003897,239.0832673003897,239.0832673003897,None,0,,,C:\2023\REPSWITCH21092023\REPSWITCH_excgange\REPSWITCH_excgange\data/420201_REPSWITCH1_version2_list1_2024-01-16_15h35.09.580_micRespv2l1_recorded\recording_micRespv2l1_2024-01-16_15h39.02.902.wav,242.111361999996,,None,242.111361999996,242.111361999996,242.111361999996,242.111361999996,242.111361999996,242.111361999996,,,,,,420201,001,2024-01-16_15h35.09.580,REPSWITCH1_version2_list1,2022.2.4,144.13437864206355,
REPSWITCH1/PICTURE_446.png,cerdo,speak,darkblue,repeat,2,T,2,1,1,2,Stim7_Set2,0,None,47,46,47,0,46,46,46,,,,,,,,,,,,,,,,,,,,,,,242.6114279003814,243.6671538008377,243.6671538008377,243.6671538008377,243.6671538008377,243.6671538008377,243.6671538008377,243.6671538008377,243.6671538008377,None,0,,,C:\2023\REPSWITCH21092023\REPSWITCH_excgange\REPSWITCH_excgange\data/420201_REPSWITCH1_version2_list1_2024-01-16_15h35.09.580_micRespv2l1_recorded\recording_micRespv2l1_2024-01-16_15h39.07.484.wav,246.68831290025264,247.18840600084513,None,246.68831290025264,246.68831290025264,246.68831290025264,246.68831290025264,246.68831290025264,246.68831290025264,,,,,,420201,001,2024-01-16_15h35.09.580,REPSWITCH1_version2_list1,2022.2.4,144.13437864206355,
REPSWITCH1/PICTURE_590.png,escoba,type,gold,filler,1,F,2,1,1,2,Extra3,0,None,48,47,48,0,47,47,47,,,,,,,,,,,,,,,,,,,,,,,247.18840600084513,248.38299490045756,248.38299490045756,248.38299490045756,248.38299490045756,248.38299490045756,248.38299490045756,248.38299490045756,248.38299490045756,"['e', 's', 'c', 'o', 'b', 'a']",0,"[1.025994699448347, 1.2130790995433927, 1.4424028992652893, 1.634125399403274, 1.9400732992216945, 2.096543299034238]",escoba,C:\2023\REPSWITCH21092023\REPSWITCH_excgange\REPSWITCH_excgange\data/420201_REPSWITCH1_version2_list1_2024-01-16_15h35.09.580_micRespv2l1_recorded\recording_micRespv2l1_2024-01-16_15h39.12.200.wav,251.41125790029764,,None,251.41125790029764,251.41125790029764,251.41125790029764,251.41125790029764,251.41125790029764,251.41125790029764,,,,,,420201,001,2024-01-16_15h35.09.580,REPSWITCH1_version2_list1,2022.2.4,144.13437864206355,
REPSWITCH1/PICTURE_169.png,espalda,speak,darkblue,filler,2,F,2,1,1,2,Stim8_Set1,0,None,49,48,49,0,48,48,48,,,,,,,,,,,,,,,,,,,,,,,251.91125280037522,253.02946330048144,253.02946330048144,253.02946330048144,253.02946330048144,253.02946330048144,253.02946330048144,253.02946330048144,253.02946330048144,None,0,,,C:\2023\REPSWITCH21092023\REPSWITCH_excgange\REPSWITCH_excgange\data/420201_REPSWITCH1_version2_list1_2024-01-16_15h35.09.580_micRespv2l1_recorded\recording_micRespv2l1_2024-01-16_15h39.16.847.wav,256.0506434002891,256.5507222004235,None,256.0506434002891,256.0506434002891,256.0506434002891,256.0506434002891,256.0506434002891,256.0506434002891,,,,,,420201,001,2024-01-16_15h35.09.580,REPSWITCH1_version2_list1,2022.2.4,144.13437864206355,
REPSWITCH1/PICTURE_199.png,falda,speak,darkblue,nontarget,2,NT,2,1,1,2,Stim8_Set2,1,repeat,50,49,50,0,49,49,49,,,,,,,,,,,,,,,,,,,,,,,256.5507222004235,257.71754970028996,257.71754970028996,257.71754970028996,257.71754970028996,257.71754970028996,257.71754970028996,257.71754970028996,257.71754970028996,None,0,,,C:\2023\REPSWITCH21092023\REPSWITCH_excgange\REPSWITCH_excgange\data/420201_REPSWITCH1_version2_list1_2024-01-16_15h35.09.580_micRespv2l1_recorded\recording_micRespv2l1_2024-01-16_15h39.21.535.wav,260.73884470015764,261.23883560020477,None,260.73884470015764,260.73884470015764,260.73884470015764,260.73884470015764,260.73884470015764,260.73884470015764,,,,,,420201,001,2024-01-16_15h35.09.580,REPSWITCH1_version2_list1,2022.2.4,144.13437864206355,
REPSWITCH1/PICTURE_199.png,falda,type,gold,switch,1,T,2,1,1,2,Stim8_Set2,0,None,51,50,51,0,50,50,50,,,,,,,,,,,,,,,,,,,,,,,261.23883560020477,262.294582400471,262.294582400471,262.294582400471,262.294582400471,262.294582400471,262.294582400471,262.294582400471,262.294582400471,"['f', 'a', 'l', 'd', 'a']",0,"[1.1655035996809602, 1.3040316998958588, 1.7089543994516134, 1.9032928002998233, 2.181541499681771]",falda,C:\2023\REPSWITCH21092023\REPSWITCH_excgange\REPSWITCH_excgange\data/420201_REPSWITCH1_version2_list1_2024-01-16_15h35.09.580_micRespv2l1_recorded\recording_micRespv2l1_2024-01-16_15h39.26.112.wav,265.32277470082045,,space,265.32277470082045,265.32277470082045,265.32277470082045,265.32277470082045,265.32277470082045,265.32277470082045,265.8227582005784,265.8227582005784,3.371811299584806,,,420201,001,2024-01-16_15h35.09.580,REPSWITCH1_version2_list1,2022.2.4,144.13437864206355,
REPSWITCH1/PICTURE_576.png,guante,type,gold,nontarget,1,NT,3,1,1,2,Stim1_Set3,0,None,52,51,52,0,51,51,51,,,,,,,,,,,,,,,,,,,,,,,269.20517900027335,270.28867940045893,270.28867940045893,270.28867940045893,270.28867940045893,270.28867940045893,270.28867940045893,270.28867940045893,270.28867940045893,"['g', 'i', 'a', 'n', 't', 'e']",0,"[1.234256699681282, 1.4717015996575356, 2.133561199530959, 2.3238979997113347, 2.532620199956, 2.6346531994640827]",giante,C:\2023\REPSWITCH21092023\REPSWITCH_excgange\REPSWITCH_excgange\data/420201_REPSWITCH1_version2_list1_2024-01-16_15h35.09.580_micRespv2l1_recorded\recording_micRespv2l1_2024-01-16_15h39.34.106.wav,273.3167890002951,,None,273.3167890002951,273.3167890002951,273.3167890002951,273.3167890002951,273.3167890002951,273.3167890002951,,,,,,420201,001,2024-01-16_15h35.09.580,REPSWITCH1_version2_list1,2022.2.4,144.13437864206355,
REPSWITCH1/PICTURE_576.png,guante,speak,darkblue,switch,2,T,3,1,1,2,Stim1_Set3,0,None,53,52,53,0,52,52,52,,,,,,,,,,,,,,,,,,,,,,,273.81689950078726,274.9142697006464,274.9142697006464,274.9142697006464,274.9142697006464,274.9142697006464,274.9142697006464,274.9142697006464,274.9142697006464,None,0,,,C:\2023\REPSWITCH21092023\REPSWITCH_excgange\REPSWITCH_excgange\data/420201_REPSWITCH1_version2_list1_2024-01-16_15h35.09.580_micRespv2l1_recorded\recording_micRespv2l1_2024-01-16_15h39.38.731.wav,277.93550360016525,278.4355585006997,None,277.93550360016525,277.93550360016525,277.93550360016525,277.93550360016525,277.93550360016525,277.93550360016525,,,,,,420201,001,2024-01-16_15h35.09.580,REPSWITCH1_version2_list1,2022.2.4,144.13437864206355,
REPSWITCH1/PICTURE_646.png,tronco,speak,darkblue,filler,2,F,3,1,1,2,Extra4,0,None,54,53,54,0,53,53,53,,,,,,,,,,,,,,,,,,,,,,,278.4355585006997,279.5398497004062,279.5398497004062,279.5398497004062,279.5398497004062,279.5398497004062,279.5398497004062,279.5398497004062,279.5398497004062,None,0,,,C:\2023\REPSWITCH21092023\REPSWITCH_excgange\REPSWITCH_excgange\data/420201_REPSWITCH1_version2_list1_2024-01-16_15h35.09.580_micRespv2l1_recorded\recording_micRespv2l1_2024-01-16_15h39.43.357.wav,282.56803770083934,,None,282.56803770083934,282.56803770083934,282.56803770083934,282.56803770083934,282.56803770083934,282.56803770083934,,,,,,420201,001,2024-01-16_15h35.09.580,REPSWITCH1_version2_list1,2022.2.4,144.13437864206355,
REPSWITCH1/PICTURE_610.png,miel,speak,darkblue,nontarget,2,NT,3,1,1,2,Stim2_Set3,1,repeat,55,54,55,0,54,54,54,,,,,,,,,,,,,,,,,,,,,,,283.0681048007682,284.1099056005478,284.1099056005478,284.1099056005478,284.1099056005478,284.1099056005478,284.1099056005478,284.1099056005478,284.1099056005478,None,0,,,C:\2023\REPSWITCH21092023\REPSWITCH_excgange\REPSWITCH_excgange\data/420201_REPSWITCH1_version2_list1_2024-01-16_15h35.09.580_micRespv2l1_recorded\recording_micRespv2l1_2024-01-16_15h39.47.927.wav,287.13110230024904,287.6312760999426,None,287.13110230024904,287.13110230024904,287.13110230024904,287.13110230024904,287.13110230024904,287.13110230024904,,,,,,420201,001,2024-01-16_15h35.09.580,REPSWITCH1_version2_list1,2022.2.4,144.13437864206355,
REPSWITCH1/PICTURE_610.png,miel,type,gold,switch,1,T,3,1,1,2,Stim2_Set3,0,None,56,55,56,0,55,55,55,,,,,,,,,,,,,,,,,,,,,,,287.6312760999426,288.72859230078757,288.72859230078757,288.72859230078757,288.72859230078757,288.72859230078757,288.72859230078757,288.72859230078757,288.72859230078757,"['i', 'e', 'l']",0,"[1.3047623001039028, 1.4969079000875354, 1.7357441000640392]",iel,C:\2023\REPSWITCH21092023\REPSWITCH_excgange\REPSWITCH_excgange\data/420201_REPSWITCH1_version2_list1_2024-01-16_15h35.09.580_micRespv2l1_recorded\recording_micRespv2l1_2024-01-16_15h39.52.546.wav,291.74984380044043,292.24993130005896,None,291.74984380044043,291.74984380044043,291.74984380044043,291.74984380044043,291.74984380044043,291.74984380044043,,,,,,420201,001,2024-01-16_15h35.09.580,REPSWITCH1_version2_list1,2022.2.4,144.13437864206355,
REPSWITCH1/PICTURE_175.png,pintor,type,gold,filler,1,F,3,1,1,2,Stim1_Set2,1,repeat,57,56,57,0,56,56,56,,,,,,,,,,,,,,,,,,,,,,,292.24993130005896,293.2916729003191,293.2916729003191,293.2916729003191,293.2916729003191,293.2916729003191,293.2916729003191,293.2916729003191,293.2916729003191,"['p', 'i', 'n', 't', 'o', 'r']",0,"[1.2467847997322679, 1.4560412000864744, 1.633717400021851, 1.8230830002576113, 1.9965047994628549, 2.172030200250447]",pintor,C:\2023\REPSWITCH21092023\REPSWITCH_excgange\REPSWITCH_excgange\data/420201_REPSWITCH1_version2_list1_2024-01-16_15h35.09.580_micRespv2l1_recorded\recording_micRespv2l1_2024-01-16_15h39.57.109.wav,296.3128981003538,296.81296360027045,None,296.3128981003538,296.3128981003538,296.3128981003538,296.3128981003538,296.3128981003538,296.3128981003538,,,,,,420201,001,2024-01-16_15h35.09.580,REPSWITCH1_version2_list1,2022.2.4,144.13437864206355,
REPSWITCH1/PICTURE_242.png,cartero,type,gold,nontarget,1,NT,3,1,1,2,Stim3_Set3,1,repeat,58,57,58,0,57,57,57,,,,,,,,,,,,,,,,,,,,,,,296.81296360027045,297.93114470038563,297.93114470038563,297.93114470038563,297.93114470038563,297.93114470038563,297.93114470038563,297.93114470038563,297.93114470038563,"['c', 'a', 'r', 't', 'e', 'r', 'o']",0,"[1.610713499598205, 1.6994083998724818, 1.797116399742663, 1.968108699657023, 2.072060499340296, 2.2489153994247317, 2.385461699217558]",cartero,C:\2023\REPSWITCH21092023\REPSWITCH_excgange\REPSWITCH_excgange\data/420201_REPSWITCH1_version2_list1_2024-01-16_15h35.09.580_micRespv2l1_recorded\recording_micRespv2l1_2024-01-16_15h40.01.748.wav,300.9523916002363,301.45251050032675,None,300.9523916002363,300.9523916002363,300.9523916002363,300.9523916002363,300.9523916002363,300.9523916002363,,,,,,420201,001,2024-01-16_15h35.09.580,REPSWITCH1_version2_list1,2022.2.4,144.13437864206355,
REPSWITCH1/PICTURE_242.png,cartero,speak,darkblue,switch,2,T,3,1,1,2,Stim3_Set3,0,None,59,58,59,0,58,58,58,,,,,,,,,,,,,,,,,,,,,,,301.45251050032675,302.57762410026044,302.57762410026044,302.57762410026044,302.57762410026044,302.57762410026044,302.57762410026044,302.57762410026044,302.57762410026044,None,0,,,C:\2023\REPSWITCH21092023\REPSWITCH_excgange\REPSWITCH_excgange\data/420201_REPSWITCH1_version2_list1_2024-01-16_15h35.09.580_micRespv2l1_recorded\recording_micRespv2l1_2024-01-16_15h40.06.394.wav,305.5988773005083,306.0989020001143,None,305.5988773005083,305.5988773005083,305.5988773005083,305.5988773005083,305.5988773005083,305.5988773005083,,,,,,420201,001,2024-01-16_15h35.09.580,REPSWITCH1_version2_list1,2022.2.4,144.13437864206355,
REPSWITCH1/PICTURE_152.png,caracol,speak,darkblue,filler,2,F,3,1,1,2,Stim2_Set2,0,None,60,59,60,0,59,59,59,,,,,,,,,,,,,,,,,,,,,,,306.0989020001143,307.1824316000566,307.1824316000566,307.1824316000566,307.1824316000566,307.1824316000566,307.1824316000566,307.1824316000566,307.1824316000566,None,0,,,C:\2023\REPSWITCH21092023\REPSWITCH_excgange\REPSWITCH_excgange\data/420201_REPSWITCH1_version2_list1_2024-01-16_15h35.09.580_micRespv2l1_recorded\recording_micRespv2l1_2024-01-16_15h40.10.999.wav,310.20363660063595,310.7037104004994,None,310.20363660063595,310.20363660063595,310.20363660063595,310.20363660063595,310.20363660063595,310.20363660063595,,,,,,420201,001,2024-01-16_15h35.09.580,REPSWITCH1_version2_list1,2022.2.4,144.13437864206355,
REPSWITCH1/PICTURE_517.png,cuerda,type,gold,filler,1,F,3,1,1,2,Stim4_Set2,0,None,61,60,61,0,60,60,60,,,,,,,,,,,,,,,,,,,,,,,310.7037104004994,311.75248770043254,311.75248770043254,311.75248770043254,311.75248770043254,311.75248770043254,311.75248770043254,311.75248770043254,311.75248770043254,"['c', 'u', 'e', 'r', 'd', 'a']",0,"[0.9579870002344251, 1.1493311999365687, 1.3021200001239777, 1.4735856000334024, 1.6852676002308726, 1.8509702999144793]",cuerda,C:\2023\REPSWITCH21092023\REPSWITCH_excgange\REPSWITCH_excgange\data/420201_REPSWITCH1_version2_list1_2024-01-16_15h35.09.580_micRespv2l1_recorded\recording_micRespv2l1_2024-01-16_15h40.15.570.wav,314.7736062007025,315.2736832005903,None,314.7736062007025,314.7736062007025,314.7736062007025,314.7736062007025,314.7736062007025,314.7736062007025,,,,,,420201,001,2024-01-16_15h35.09.580,REPSWITCH1_version2_list1,2022.2.4,144.13437864206355,
REPSWITCH1/PICTURE_235.png,aguja,speak,darkblue,nontarget,2,NT,3,1,1,2,Stim4_Set3,1,switch,62,61,62,0,61,61,61,,,,,,,,,,,,,,,,,,,,,,,315.2736832005903,316.34334060084075,316.34334060084075,316.34334060084075,316.34334060084075,316.34334060084075,316.34334060084075,316.34334060084075,316.34334060084075,None,0,,,C:\2023\REPSWITCH21092023\REPSWITCH_excgange\REPSWITCH_excgange\data/420201_REPSWITCH1_version2_list1_2024-01-16_15h35.09.580_micRespv2l1_recorded\recording_micRespv2l1_2024-01-16_15h40.20.161.wav,319.37142490036786,,None,319.37142490036786,319.37142490036786,319.37142490036786,319.37142490036786,319.37142490036786,319.37142490036786,,,,,,420201,001,2024-01-16_15h35.09.580,REPSWITCH1_version2_list1,2022.2.4,144.13437864206355,
REPSWITCH1/PICTURE_235.png,aguja,speak,darkblue,repeat,2,T,3,1,1,2,Stim4_Set3,0,None,63,62,63,0,62,62,62,,,,,,,,,,,,,,,,,,,,,,,319.87152190040797,320.92723229993135,320.92723229993135,320.92723229993135,320.92723229993135,320.92723229993135,320.92723229993135,320.92723229993135,320.92723229993135,None,0,,,C:\2023\REPSWITCH21092023\REPSWITCH_excgange\REPSWITCH_excgange\data/420201_REPSWITCH1_version2_list1_2024-01-16_15h35.09.580_micRespv2l1_recorded\recording_micRespv2l1_2024-01-16_15h40.24.745.wav,323.94844450056553,324.448521300219,None,323.94844450056553,323.94844450056553,323.94844450056553,323.94844450056553,323.94844450056553,323.94844450056553,,,,,,420201,001,2024-01-16_15h35.09.580,REPSWITCH1_version2_list1,2022.2.4,144.13437864206355,
REPSWITCH1/PICTURE_30.png,granja,type,gold,filler,1,F,3,1,1,2,Stim5_Set2,0,None,64,63,64,0,63,63,63,,,,,,,,,,,,,,,,,,,,,,,324.448521300219,325.476428700611,325.476428700611,325.476428700611,325.476428700611,325.476428700611,325.476428700611,325.476428700611,325.476428700611,"['g', 'r', 'a', 'n', 'j', 'a']",0,"[1.3559753997251391, 1.6564555000513792, 1.8936641998589039, 2.1269018994644284, 2.3013138994574547, 2.4009814001619816]",granja,C:\2023\REPSWITCH21092023\REPSWITCH_excgange\REPSWITCH_excgange\data/420201_REPSWITCH1_version2_list1_2024-01-16_15h35.09.580_micRespv2l1_recorded\recording_micRespv2l1_2024-01-16_15h40.29.294.wav,328.504584800452,,None,328.504584800452,328.504584800452,328.504584800452,328.504584800452,328.504584800452,328.504584800452,,,,,,420201,001,2024-01-16_15h35.09.580,REPSWITCH1_version2_list1,2022.2.4,144.13437864206355,
REPSWITCH1/PICTURE_552.png,manzana,speak,darkblue,filler,2,F,3,1,1,2,Stim6_Set2,1,switch,65,64,65,0,64,64,64,,,,,,,,,,,,,,,,,,,,,,,329.0046449005604,330.12286949995905,330.12286949995905,330.12286949995905,330.12286949995905,330.12286949995905,330.12286949995905,330.12286949995905,330.12286949995905,None,0,,,C:\2023\REPSWITCH21092023\REPSWITCH_excgange\REPSWITCH_excgange\data/420201_REPSWITCH1_version2_list1_2024-01-16_15h35.09.580_micRespv2l1_recorded\recording_micRespv2l1_2024-01-16_15h40.33.940.wav,333.15103800036013,,None,333.15103800036013,333.15103800036013,333.15103800036013,333.15103800036013,333.15103800036013,333.15103800036013,,,,,,420201,001,2024-01-16_15h35.09.580,REPSWITCH1_version2_list1,2022.2.4,144.13437864206355,
REPSWITCH1/PICTURE_35.png,oreja,speak,darkblue,nontarget,2,NT,3,1,1,2,Stim5_Set3,1,repeat,66,65,66,0,65,65,65,,,,,,,,,,,,,,,,,,,,,,,333.6510964008048,334.7276317002252,334.7276317002252,334.7276317002252,334.7276317002252,334.7276317002252,334.7276317002252,334.7276317002252,334.7276317002252,None,0,,,C:\2023\REPSWITCH21092023\REPSWITCH_excgange\REPSWITCH_excgange\data/420201_REPSWITCH1_version2_list1_2024-01-16_15h35.09.580_micRespv2l1_recorded\recording_micRespv2l1_2024-01-16_15h40.38.546.wav,337.7558075999841,,None,337.7558075999841,337.7558075999841,337.7558075999841,337.7558075999841,337.7558075999841,337.7558075999841,,,,,,420201,001,2024-01-16_15h35.09.580,REPSWITCH1_version2_list1,2022.2.4,144.13437864206355,
REPSWITCH1/PICTURE_35.png,oreja,speak,darkblue,repeat,2,T,3,1,1,2,Stim5_Set3,0,None,67,66,67,0,66,66,66,,,,,,,,,,,,,,,,,,,,,,,338.25588420033455,339.39494220074266,339.39494220074266,339.39494220074266,339.39494220074266,339.39494220074266,339.39494220074266,339.39494220074266,339.39494220074266,None,0,,,C:\2023\REPSWITCH21092023\REPSWITCH_excgange\REPSWITCH_excgange\data/420201_REPSWITCH1_version2_list1_2024-01-16_15h35.09.580_micRespv2l1_recorded\recording_micRespv2l1_2024-01-16_15h40.43.212.wav,342.4161517005414,342.9162167003378,None,342.4161517005414,342.4161517005414,342.4161517005414,342.4161517005414,342.4161517005414,342.4161517005414,,,,,,420201,001,2024-01-16_15h35.09.580,REPSWITCH1_version2_list1,2022.2.4,144.13437864206355,
REPSWITCH1/PICTURE_673.png,tenedor,type,gold,filler,1,F,3,1,1,2,Extra5,0,None,68,67,68,0,67,67,67,,,,,,,,,,,,,,,,,,,,,,,342.9162167003378,344.00666640046984,344.00666640046984,344.00666640046984,344.00666640046984,344.00666640046984,344.00666640046984,344.00666640046984,344.00666640046984,"['t', 'e', 'n', 'e', 'd', 'o', 'r']",0,"[1.150381999090314, 1.236815799959004, 1.4125065999105573, 1.527434199117124, 1.7995095998048782, 1.9539646999910474, 2.0907244998961687]",tenedor,C:\2023\REPSWITCH21092023\REPSWITCH_excgange\REPSWITCH_excgange\data/420201_REPSWITCH1_version2_list1_2024-01-16_15h35.09.580_micRespv2l1_recorded\recording_micRespv2l1_2024-01-16_15h40.47.825.wav,347.03485890012234,,None,347.03485890012234,347.03485890012234,347.03485890012234,347.03485890012234,347.03485890012234,347.03485890012234,,,,,,420201,001,2024-01-16_15h35.09.580,REPSWITCH1_version2_list1,2022.2.4,144.13437864206355,
REPSWITCH1/PICTURE_464.png,goma,speak,darkblue,nontarget,2,NT,3,1,1,2,Stim6_Set3,0,None,69,68,69,0,68,68,68,,,,,,,,,,,,,,,,,,,,,,,347.5348598007113,348.5419818004593,348.5419818004593,348.5419818004593,348.5419818004593,348.5419818004593,348.5419818004593,348.5419818004593,348.5419818004593,None,0,,,C:\2023\REPSWITCH21092023\REPSWITCH_excgange\REPSWITCH_excgange\data/420201_REPSWITCH1_version2_list1_2024-01-16_15h35.09.580_micRespv2l1_recorded\recording_micRespv2l1_2024-01-16_15h40.52.360.wav,351.57011790014803,,None,351.57011790014803,351.57011790014803,351.57011790014803,351.57011790014803,351.57011790014803,351.57011790014803,,,,,,420201,001,2024-01-16_15h35.09.580,REPSWITCH1_version2_list1,2022.2.4,144.13437864206355,
REPSWITCH1/PICTURE_464.png,goma,type,gold,switch,1,T,3,1,1,2,Stim6_Set3,0,None,70,69,70,0,69,69,69,,,,,,,,,,,,,,,,,,,,,,,352.0701938001439,353.2231005001813,353.2231005001813,353.2231005001813,353.2231005001813,353.2231005001813,353.2231005001813,353.2231005001813,353.2231005001813,"['g', 'o', 'm', 'a']",0,"[1.1074245991185308, 1.3077856991440058, 1.5611998997628689, 1.7547948993742466]",goma,C:\2023\REPSWITCH21092023\REPSWITCH_excgange\REPSWITCH_excgange\data/420201_REPSWITCH1_version2_list1_2024-01-16_15h35.09.580_micRespv2l1_recorded\recording_micRespv2l1_2024-01-16_15h40.57.040.wav,356.2443532999605,356.74440910015255,None,356.2443532999605,356.2443532999605,356.2443532999605,356.2443532999605,356.2443532999605,356.2443532999605,,,,,,420201,001,2024-01-16_15h35.09.580,REPSWITCH1_version2_list1,2022.2.4,144.13437864206355,
REPSWITCH1/PICTURE_264.png,mano,speak,darkblue,filler,2,F,3,1,1,2,Stim3_Set2,0,None,71,70,71,0,70,70,70,,,,,,,,,,,,,,,,,,,,,,,356.74440910015255,357.86953440029174,357.86953440029174,357.86953440029174,357.86953440029174,357.86953440029174,357.86953440029174,357.86953440029174,357.86953440029174,None,0,,,C:\2023\REPSWITCH21092023\REPSWITCH_excgange\REPSWITCH_excgange\data/420201_REPSWITCH1_version2_list1_2024-01-16_15h35.09.580_micRespv2l1_recorded\recording_micRespv2l1_2024-01-16_15h41.01.687.wav,360.89079190045595,361.39085080008954,None,360.89079190045595,360.89079190045595,360.89079190045595,360.89079190045595,360.89079190045595,360.89079190045595,,,,,,420201,001,2024-01-16_15h35.09.580,REPSWITCH1_version2_list1,2022.2.4,144.13437864206355,
REPSWITCH1/PICTURE_271.png,conejo,type,gold,nontarget,1,NT,3,1,1,2,Stim7_Set3,1,switch,72,71,72,0,71,71,71,,,,,,,,,,,,,,,,,,,,,,,361.39085080008954,362.5785327004269,362.5785327004269,362.5785327004269,362.5785327004269,362.5785327004269,362.5785327004269,362.5785327004269,362.5785327004269,"['c', 'o', 'n', 'e', 'j', 'o']",0,"[0.9869393995031714, 1.2181416992098093, 1.6536362990736961, 1.8230493990704417, 1.965243399143219, 2.0792254991829395]",conejo,C:\2023\REPSWITCH21092023\REPSWITCH_excgange\REPSWITCH_excgange\data/420201_REPSWITCH1_version2_list1_2024-01-16_15h35.09.580_micRespv2l1_recorded\recording_micRespv2l1_2024-01-16_15h41.06.395.wav,365.60664980020374,,None,365.60664980020374,365.60664980020374,365.60664980020374,365.60664980020374,365.60664980020374,365.60664980020374,,,,,,420201,001,2024-01-16_15h35.09.580,REPSWITCH1_version2_list1,2022.2.4,144.13437864206355,
REPSWITCH1/PICTURE_271.png,conejo,type,gold,repeat,1,T,3,1,1,2,Stim7_Set3,0,None,73,72,73,0,72,72,72,,,,,,,,,,,,,,,,,,,,,,,366.10672290064394,367.2874640999362,367.2874640999362,367.2874640999362,367.2874640999362,367.2874640999362,367.2874640999362,367.2874640999362,367.2874640999362,"['c', 'o', 'n', 'e', 'j', 'o']",0,"[0.8508767997846007, 1.068385699763894, 1.2943857992067933, 1.4711408000439405, 1.5927725993096828, 1.7262937994673848]",conejo,C:\2023\REPSWITCH21092023\REPSWITCH_excgange\REPSWITCH_excgange\data/420201_REPSWITCH1_version2_list1_2024-01-16_15h35.09.580_micRespv2l1_recorded\recording_micRespv2l1_2024-01-16_15h41.11.105.wav,370.3086799001321,370.80879699997604,None,370.3086799001321,370.3086799001321,370.3086799001321,370.3086799001321,370.3086799001321,370.3086799001321,,,,,,420201,001,2024-01-16_15h35.09.580,REPSWITCH1_version2_list1,2022.2.4,144.13437864206355,
REPSWITCH1/PICTURE_446.png,cerdo,speak,darkblue,filler,2,F,3,1,1,2,Stim7_Set2,0,None,74,73,74,0,73,73,73,,,,,,,,,,,,,,,,,,,,,,,370.80879699997604,371.86442420072854,371.86442420072854,371.86442420072854,371.86442420072854,371.86442420072854,371.86442420072854,371.86442420072854,371.86442420072854,None,0,,,C:\2023\REPSWITCH21092023\REPSWITCH_excgange\REPSWITCH_excgange\data/420201_REPSWITCH1_version2_list1_2024-01-16_15h35.09.580_micRespv2l1_recorded\recording_micRespv2l1_2024-01-16_15h41.15.682.wav,374.8925973000005,,None,374.8925973000005,374.8925973000005,374.8925973000005,374.8925973000005,374.8925973000005,374.8925973000005,,,,,,420201,001,2024-01-16_15h35.09.580,REPSWITCH1_version2_list1,2022.2.4,144.13437864206355,
REPSWITCH1/PICTURE_199.png,falda,type,gold,filler,1,F,3,1,1,2,Stim8_Set2,1,switch,75,74,75,0,74,74,74,,,,,,,,,,,,,,,,,,,,,,,375.39264690037817,376.4344987999648,376.4344987999648,376.4344987999648,376.4344987999648,376.4344987999648,376.4344987999648,376.4344987999648,376.4344987999648,"['f', 'a', 'l', 'd', 'a']",0,"[1.2468768991529942, 1.367590899579227, 1.6020944993942976, 1.8128417991101742, 2.054920299910009]",falda,C:\2023\REPSWITCH21092023\REPSWITCH_excgange\REPSWITCH_excgange\data/420201_REPSWITCH1_version2_list1_2024-01-16_15h35.09.580_micRespv2l1_recorded\recording_micRespv2l1_2024-01-16_15h41.20.251.wav,379.45569710060954,379.9558274000883,None,379.45569710060954,379.45569710060954,379.45569710060954,379.45569710060954,379.45569710060954,379.45569710060954,,,,,,420201,001,2024-01-16_15h35.09.580,REPSWITCH1_version2_list1,2022.2.4,144.13437864206355,
REPSWITCH1/PICTURE_320.png,iglesia,type,gold,nontarget,1,NT,3,1,1,2,Stim8_Set3,1,repeat,76,75,76,0,75,75,75,,,,,,,,,,,,,,,,,,,,,,,379.9558274000883,381.0948377000168,381.0948377000168,381.0948377000168,381.0948377000168,381.0948377000168,381.0948377000168,381.0948377000168,381.0948377000168,"['i', 'g', 'l', 'e', 's', 'i', 'a']",0,"[1.4464213997125626, 1.704849598929286, 2.1866268990561366, 2.385883799754083, 2.563244399614632, 2.725697198882699, 2.826404099352658]",iglesia,C:\2023\REPSWITCH21092023\REPSWITCH_excgange\REPSWITCH_excgange\data/420201_REPSWITCH1_version2_list1_2024-01-16_15h35.09.580_micRespv2l1_recorded\recording_micRespv2l1_2024-01-16_15h41.24.912.wav,384.1160532999784,384.6161235999316,None,384.1160532999784,384.1160532999784,384.1160532999784,384.1160532999784,384.1160532999784,384.1160532999784,,,,,,420201,001,2024-01-16_15h35.09.580,REPSWITCH1_version2_list1,2022.2.4,144.13437864206355,
REPSWITCH1/PICTURE_320.png,iglesia,type,gold,repeat,1,T,3,1,1,2,Stim8_Set3,0,None,77,76,77,0,76,76,76,,,,,,,,,,,,,,,,,,,,,,,384.6161235999316,385.7273542005569,385.7273542005569,385.7273542005569,385.7273542005569,385.7273542005569,385.7273542005569,385.7273542005569,385.7273542005569,"['i', 'g', 'l', 'e', 's', 'i', 'a']",0,"[1.0263816993683577, 1.2746718991547823, 1.7204769998788834, 1.873981699347496, 2.061696599237621, 2.193475599400699, 2.2941268999129534]",iglesia,C:\2023\REPSWITCH21092023\REPSWITCH_excgange\REPSWITCH_excgange\data/420201_REPSWITCH1_version2_list1_2024-01-16_15h35.09.580_micRespv2l1_recorded\recording_micRespv2l1_2024-01-16_15h41.29.545.wav,388.75553580000997,,None,388.75553580000997,388.75553580000997,388.75553580000997,388.75553580000997,388.75553580000997,388.75553580000997,,,,,,420201,001,2024-01-16_15h35.09.580,REPSWITCH1_version2_list1,2022.2.4,144.13437864206355,
REPSWITCH1/PICTURE_576.png,guante,speak,darkblue,filler,2,F,4,1,1,2,Stim1_Set3,0,None,78,77,78,0,77,77,77,,,,,,,,,,,,,,,,,,,,,,,389.25559200067073,390.3807796007022,390.3807796007022,390.3807796007022,390.3807796007022,390.3807796007022,390.3807796007022,390.3807796007022,390.3807796007022,None,0,,,C:\2023\REPSWITCH21092023\REPSWITCH_excgange\REPSWITCH_excgange\data/420201_REPSWITCH1_version2_list1_2024-01-16_15h35.09.580_micRespv2l1_recorded\recording_micRespv2l1_2024-01-16_15h41.34.199.wav,393.4089184999466,,None,393.4089184999466,393.4089184999466,393.4089184999466,393.4089184999466,393.4089184999466,393.4089184999466,,,,,,420201,001,2024-01-16_15h35.09.580,REPSWITCH1_version2_list1,2022.2.4,144.13437864206355,
REPSWITCH1/PICTURE_319.png,vaca,type,gold,nontarget,1,NT,4,1,1,2,Stim1_Set4,1,switch,79,78,79,0,78,78,78,,,,,,,,,,,,,,,,,,,,,,,393.90900320000947,394.9577704006806,394.9577704006806,394.9577704006806,394.9577704006806,394.9577704006806,394.9577704006806,394.9577704006806,394.9577704006806,"['v', 'a', 'c', 'a']",0,"[1.3598707998171449, 1.4800073001533747, 1.5930324997752905, 1.6777370003983378]",vaca,C:\2023\REPSWITCH21092023\REPSWITCH_excgange\REPSWITCH_excgange\data/420201_REPSWITCH1_version2_list1_2024-01-16_15h35.09.580_micRespv2l1_recorded\recording_micRespv2l1_2024-01-16_15h41.38.774.wav,397.97897680010647,398.4790350003168,None,397.97897680010647,397.97897680010647,397.97897680010647,397.97897680010647,397.97897680010647,397.97897680010647,,,,,,420201,001,2024-01-16_15h35.09.580,REPSWITCH1_version2_list1,2022.2.4,144.13437864206355,
REPSWITCH1/PICTURE_319.png,vaca,type,gold,repeat,1,T,4,1,1,2,Stim1_Set4,0,None,80,79,80,0,79,79,79,,,,,,,,,,,,,,,,,,,,,,,398.4790350003168,399.5486387005076,399.5486387005076,399.5486387005076,399.5486387005076,399.5486387005076,399.5486387005076,399.5486387005076,399.5486387005076,"['v', 'a', 'c', 'a']",0,"[1.0376276997849345, 1.138582699932158, 1.2674476997926831, 1.34120349958539]",vaca,C:\2023\REPSWITCH21092023\REPSWITCH_excgange\REPSWITCH_excgange\data/420201_REPSWITCH1_version2_list1_2024-01-16_15h35.09.580_micRespv2l1_recorded\recording_micRespv2l1_2024-01-16_15h41.43.366.wav,402.5698548005894,403.0699051003903,None,402.5698548005894,402.5698548005894,402.5698548005894,402.5698548005894,402.5698548005894,402.5698548005894,,,,,,420201,001,2024-01-16_15h35.09.580,REPSWITCH1_version2_list1,2022.2.4,144.13437864206355,
REPSWITCH1/PICTURE_719.png,baño,type,gold,nontarget,1,NT,4,1,1,2,Stim2_Set4,0,None,81,80,81,0,80,80,80,,,,,,,,,,,,,,,,,,,,,,,403.0699051003903,404.09788800030947,404.09788800030947,404.09788800030947,404.09788800030947,404.09788800030947,404.09788800030947,404.09788800030947,404.09788800030947,"['b', 'a', 'ñ', 'o']",0,"[1.06714169960469, 1.1920515997335315, 1.5884880991652608, 1.7469625994563103]",baño,C:\2023\REPSWITCH21092023\REPSWITCH_excgange\REPSWITCH_excgange\data/420201_REPSWITCH1_version2_list1_2024-01-16_15h35.09.580_micRespv2l1_recorded\recording_micRespv2l1_2024-01-16_15h41.47.915.wav,407.126069300808,,None,407.126069300808,407.126069300808,407.126069300808,407.126069300808,407.126069300808,407.126069300808,,,,,,420201,001,2024-01-16_15h35.09.580,REPSWITCH1_version2_list1,2022.2.4,144.13437864206355,
REPSWITCH1/PICTURE_719.png,baño,speak,darkblue,switch,2,T,4,1,1,2,Stim2_Set4,0,None,82,81,82,0,81,81,81,,,,,,,,,,,,,,,,,,,,,,,407.6260727001354,408.6609089002013,408.6609089002013,408.6609089002013,408.6609089002013,408.6609089002013,408.6609089002013,408.6609089002013,408.6609089002013,None,0,,,C:\2023\REPSWITCH21092023\REPSWITCH_excgange\REPSWITCH_excgange\data/420201_REPSWITCH1_version2_list1_2024-01-16_15h35.09.580_micRespv2l1_recorded\recording_micRespv2l1_2024-01-16_15h41.52.478.wav,411.6891636000946,,None,411.6891636000946,411.6891636000946,411.6891636000946,411.6891636000946,411.6891636000946,411.6891636000946,,,,,,420201,001,2024-01-16_15h35.09.580,REPSWITCH1_version2_list1,2022.2.4,144.13437864206355,
REPSWITCH1/PICTURE_242.png,cartero,speak,darkblue,filler,2,F,4,1,1,2,Stim3_Set3,1,repeat,83,82,83,0,82,82,82,,,,,,,,,,,,,,,,,,,,,,,412.18916490022093,413.26569030061364,413.26569030061364,413.26569030061364,413.26569030061364,413.26569030061364,413.26569030061364,413.26569030061364,413.26569030061364,None,0,,,C:\2023\REPSWITCH21092023\REPSWITCH_excgange\REPSWITCH_excgange\data/420201_REPSWITCH1_version2_list1_2024-01-16_15h35.09.580_micRespv2l1_recorded\recording_micRespv2l1_2024-01-16_15h41.57.083.wav,416.28691820055246,416.78706160001457,None,416.28691820055246,416.28691820055246,416.28691820055246,416.28691820055246,416.28691820055246,416.28691820055246,,,,,,420201,001,2024-01-16_15h35.09.580,REPSWITCH1_version2_list1,2022.2.4,144.13437864206355,
REPSWITCH1/PICTURE_610.png,miel,type,gold,filler,1,F,4,1,1,2,Stim2_Set3,0,None,84,83,84,0,83,83,83,,,,,,,,,,,,,,,,,,,,,,,416.78706160001457,417.8565851999447,417.8565851999447,417.8565851999447,417.8565851999447,417.8565851999447,417.8565851999447,417.8565851999447,417.8565851999447,"['m', 'i', 'e', 'l']",0,"[0.9015023997053504, 1.0753587000072002, 1.2844724003225565, 1.4658345002681017]",miel,C:\2023\REPSWITCH21092023\REPSWITCH_excgange\REPSWITCH_excgange\data/420201_REPSWITCH1_version2_list1_2024-01-16_15h35.09.580_micRespv2l1_recorded\recording_micRespv2l1_2024-01-16_15h42.01.674.wav,420.87780870031565,421.3778752004728,None,420.87780870031565,420.87780870031565,420.87780870031565,420.87780870031565,420.87780870031565,420.87780870031565,,,,,,420201,001,2024-01-16_15h35.09.580,REPSWITCH1_version2_list1,2022.2.4,144.13437864206355,
REPSWITCH1/PICTURE_8.png,pierna,speak,darkblue,nontarget,2,NT,4,1,1,2,Stim3_Set4,1,switch,85,84,85,0,84,84,84,,,,,,,,,,,,,,,,,,,,,,,421.3778752004728,422.49609730020165,422.49609730020165,422.49609730020165,422.49609730020165,422.49609730020165,422.49609730020165,422.49609730020165,422.49609730020165,None,0,,,C:\2023\REPSWITCH21092023\REPSWITCH_excgange\REPSWITCH_excgange\data/420201_REPSWITCH1_version2_list1_2024-01-16_15h35.09.580_micRespv2l1_recorded\recording_micRespv2l1_2024-01-16_15h42.06.313.wav,425.5173027003184,426.01737650018185,None,425.5173027003184,425.5173027003184,425.5173027003184,425.5173027003184,425.5173027003184,425.5173027003184,,,,,,420201,001,2024-01-16_15h35.09.580,REPSWITCH1_version2_list1,2022.2.4,144.13437864206355,
REPSWITCH1/PICTURE_8.png,pierna,speak,darkblue,repeat,2,T,4,1,1,2,Stim3_Set4,0,None,86,85,86,0,85,85,85,,,,,,,,,,,,,,,,,,,,,,,426.01737650018185,427.121693700552,427.121693700552,427.121693700552,427.121693700552,427.121693700552,427.121693700552,427.121693700552,427.121693700552,None,0,,,C:\2023\REPSWITCH21092023\REPSWITCH_excgange\REPSWITCH_excgange\data/420201_REPSWITCH1_version2_list1_2024-01-16_15h35.09.580_micRespv2l1_recorded\recording_micRespv2l1_2024-01-16_15h42.10.939.wav,430.1429445007816,430.6429767003283,None,430.1429445007816,430.1429445007816,430.1429445007816,430.1429445007816,430.1429445007816,430.1429445007816,,,,,,420201,001,2024-01-16_15h35.09.580,REPSWITCH1_version2_list1,2022.2.4,144.13437864206355,
REPSWITCH1/PICTURE_498.png,taza,speak,darkblue,nontarget,2,NT,4,1,1,2,Stim4_Set4,1,repeat,87,86,87,0,86,86,86,,,,,,,,,,,,,,,,,,,,,,,430.6429767003283,431.726507300511,431.726507300511,431.726507300511,431.726507300511,431.726507300511,431.726507300511,431.726507300511,431.726507300511,None,0,,,C:\2023\REPSWITCH21092023\REPSWITCH_excgange\REPSWITCH_excgange\data/420201_REPSWITCH1_version2_list1_2024-01-16_15h35.09.580_micRespv2l1_recorded\recording_micRespv2l1_2024-01-16_15h42.15.543.wav,434.74765040073544,435.2477049008012,None,434.74765040073544,434.74765040073544,434.74765040073544,434.74765040073544,434.74765040073544,434.74765040073544,,,,,,420201,001,2024-01-16_15h35.09.580,REPSWITCH1_version2_list1,2022.2.4,144.13437864206355,
REPSWITCH1/PICTURE_498.png,taza,type,gold,switch,1,T,4,1,1,2,Stim4_Set4,0,None,88,87,88,0,87,87,87,,,,,,,,,,,,,,,,,,,,,,,435.2477049008012,436.2617543004453,436.2617543004453,436.2617543004453,436.2617543004453,436.2617543004453,436.2617543004453,436.2617543004453,436.2617543004453,"['t', 'a', 'z', 'a']",0,"[1.0213728994131088, 1.128028699196875, 1.4838346987962723, 1.6084475992247462]",taza,C:\2023\REPSWITCH21092023\REPSWITCH_excgange\REPSWITCH_excgange\data/420201_REPSWITCH1_version2_list1_2024-01-16_15h35.09.580_micRespv2l1_recorded\recording_micRespv2l1_2024-01-16_15h42.20.078.wav,439.28300070017576,439.7831286005676,None,439.28300070017576,439.28300070017576,439.28300070017576,439.28300070017576,439.28300070017576,439.28300070017576,,,,,,420201,001,2024-01-16_15h35.09.580,REPSWITCH1_version2_list1,2022.2.4,144.13437864206355,
REPSWITCH1/PICTURE_235.png,aguja,speak,darkblue,filler,2,F,4,1,1,2,Stim4_Set3,0,None,89,88,89,0,88,88,88,,,,,,,,,,,,,,,,,,,,,,,439.7831286005676,440.9290916007012,440.9290916007012,440.9290916007012,440.9290916007012,440.9290916007012,440.9290916007012,440.9290916007012,440.9290916007012,None,0,,,C:\2023\REPSWITCH21092023\REPSWITCH_excgange\REPSWITCH_excgange\data/420201_REPSWITCH1_version2_list1_2024-01-16_15h35.09.580_micRespv2l1_recorded\recording_micRespv2l1_2024-01-16_15h42.24.747.wav,443.95721400063485,,None,443.95721400063485,443.95721400063485,443.95721400063485,443.95721400063485,443.95721400063485,443.95721400063485,,,,,,420201,001,2024-01-16_15h35.09.580,REPSWITCH1_version2_list1,2022.2.4,144.13437864206355,
REPSWITCH1/PICTURE_35.png,oreja,type,gold,filler,1,F,4,1,1,2,Stim5_Set3,0,None,90,89,90,0,89,89,89,,,,,,,,,,,,,,,,,,,,,,,444.45723860058933,445.5546767003834,445.5546767003834,445.5546767003834,445.5546767003834,445.5546767003834,445.5546767003834,445.5546767003834,445.5546767003834,"['o', 'r', 'e', 'j', 'a']",0,"[1.259290399029851, 1.513736699707806, 1.6742745991796255, 1.8340424988418818, 2.073195199482143]",oreja,C:\2023\REPSWITCH21092023\REPSWITCH_excgange\REPSWITCH_excgange\data/420201_REPSWITCH1_version2_list1_2024-01-16_15h35.09.580_micRespv2l1_recorded\recording_micRespv2l1_2024-01-16_15h42.29.372.wav,448.57594380062073,449.07592390011996,None,448.57594380062073,448.57594380062073,448.57594380062073,448.57594380062073,448.57594380062073,448.57594380062073,,,,,,420201,001,2024-01-16_15h35.09.580,REPSWITCH1_version2_list1,2022.2.4,144.13437864206355,
REPSWITCH1/PICTURE_687.png,camisa,type,gold,nontarget,1,NT,4,1,1,2,Stim5_Set4,1,repeat,91,90,91,0,90,90,90,,,,,,,,,,,,,,,,,,,,,,,449.07592390011996,450.2150055002421,450.2150055002421,450.2150055002421,450.2150055002421,450.2150055002421,450.2150055002421,450.2150055002421,450.2150055002421,"['c', 'a', 'm', 'i', 's', 'a']",0,"[1.0133224986493587, 1.1289314990863204, 1.4860596992075443, 1.6434782994911075, 1.8119469992816448, 2.0026478990912437]",camisa,C:\2023\REPSWITCH21092023\REPSWITCH_excgange\REPSWITCH_excgange\data/420201_REPSWITCH1_version2_list1_2024-01-16_15h35.09.580_micRespv2l1_recorded\recording_micRespv2l1_2024-01-16_15h42.34.032.wav,453.2362826000899,453.73626890033484,None,453.2362826000899,453.2362826000899,453.2362826000899,453.2362826000899,453.2362826000899,453.2362826000899,,,,,,420201,001,2024-01-16_15h35.09.580,REPSWITCH1_version2_list1,2022.2.4,144.13437864206355,
REPSWITCH1/PICTURE_687.png,camisa,speak,darkblue,switch,2,T,4,1,1,2,Stim5_Set4,0,None,92,91,92,0,91,91,91,,,,,,,,,,,,,,,,,,,,,,,453.73626890033484,454.8822976006195,454.8822976006195,454.8822976006195,454.8822976006195,454.8822976006195,454.8822976006195,454.8822976006195,454.8822976006195,None,0,,,C:\2023\REPSWITCH21092023\REPSWITCH_excgange\REPSWITCH_excgange\data/420201_REPSWITCH1_version2_list1_2024-01-16_15h35.09.580_micRespv2l1_recorded\recording_micRespv2l1_2024-01-16_15h42.38.700.wav,457.90348720084876,458.4035216001794,None,457.90348720084876,457.90348720084876,457.90348720084876,457.90348720084876,457.90348720084876,457.90348720084876,,,,,,420201,001,2024-01-16_15h35.09.580,REPSWITCH1_version2_list1,2022.2.4,144.13437864206355,
REPSWITCH1/PICTURE_338.png,regalo,speak,darkblue,nontarget,2,NT,4,1,1,2,Stim6_Set4,0,None,93,92,93,0,92,92,92,,,,,,,,,,,,,,,,,,,,,,,458.4035216001794,459.5495760003105,459.5495760003105,459.5495760003105,459.5495760003105,459.5495760003105,459.5495760003105,459.5495760003105,459.5495760003105,None,0,,,C:\2023\REPSWITCH21092023\REPSWITCH_excgange\REPSWITCH_excgange\data/420201_REPSWITCH1_version2_list1_2024-01-16_15h35.09.580_micRespv2l1_recorded\recording_micRespv2l1_2024-01-16_15h42.43.367.wav,462.5707653006539,463.07082790043205,None,462.5707653006539,462.5707653006539,462.5707653006539,462.5707653006539,462.5707653006539,462.5707653006539,,,,,,420201,001,2024-01-16_15h35.09.580,REPSWITCH1_version2_list1,2022.2.4,144.13437864206355,
REPSWITCH1/PICTURE_338.png,regalo,speak,darkblue,repeat,2,T,4,1,1,2,Stim6_Set4,0,None,94,93,94,0,93,93,93,,,,,,,,,,,,,,,,,,,,,,,463.07082790043205,464.20992520079017,464.20992520079017,464.20992520079017,464.20992520079017,464.20992520079017,464.20992520079017,464.20992520079017,464.20992520079017,None,0,,,C:\2023\REPSWITCH21092023\REPSWITCH_excgange\REPSWITCH_excgange\data/420201_REPSWITCH1_version2_list1_2024-01-16_15h35.09.580_micRespv2l1_recorded\recording_micRespv2l1_2024-01-16_15h42.48.027.wav,467.2311006002128,467.7311570001766,None,467.2311006002128,467.2311006002128,467.2311006002128,467.2311006002128,467.2311006002128,467.2311006002128,,,,,,420201,001,2024-01-16_15h35.09.580,REPSWITCH1_version2_list1,2022.2.4,144.13437864206355,
REPSWITCH1/PICTURE_663.png,columna,type,gold,filler,1,F,4,1,1,2,Extra6,0,None,95,94,95,0,94,94,94,,,,,,,,,,,,,,,,,,,,,,,467.7311570001766,468.8910190006718,468.8910190006718,468.8910190006718,468.8910190006718,468.8910190006718,468.8910190006718,468.8910190006718,468.8910190006718,"['c', 'o', 'l', 'u', 'm', 'n', 'a']",0,"[1.4629695992916822, 1.6503297993913293, 1.8227571994066238, 2.0998279992491007, 2.404815599322319, 2.6120102992281318, 2.764785598963499]",columna,C:\2023\REPSWITCH21092023\REPSWITCH_excgange\REPSWITCH_excgange\data/420201_REPSWITCH1_version2_list1_2024-01-16_15h35.09.580_micRespv2l1_recorded\recording_micRespv2l1_2024-01-16_15h42.52.708.wav,471.91226040013134,472.41232390049845,None,471.91226040013134,471.91226040013134,471.91226040013134,471.91226040013134,471.91226040013134,471.91226040013134,,,,,,420201,001,2024-01-16_15h35.09.580,REPSWITCH1_version2_list1,2022.2.4,144.13437864206355,
REPSWITCH1/PICTURE_271.png,conejo,speak,darkblue,filler,2,F,4,1,1,2,Stim7_Set3,0,None,96,95,96,0,95,95,95,,,,,,,,,,,,,,,,,,,,,,,472.41232390049845,473.4819860002026,473.4819860002026,473.4819860002026,473.4819860002026,473.4819860002026,473.4819860002026,473.4819860002026,473.4819860002026,None,0,,,C:\2023\REPSWITCH21092023\REPSWITCH_excgange\REPSWITCH_excgange\data/420201_REPSWITCH1_version2_list1_2024-01-16_15h35.09.580_micRespv2l1_recorded\recording_micRespv2l1_2024-01-16_15h42.57.301.wav,476.5100856004283,,None,476.5100856004283,476.5100856004283,476.5100856004283,476.5100856004283,476.5100856004283,476.5100856004283,,,,,,420201,001,2024-01-16_15h35.09.580,REPSWITCH1_version2_list1,2022.2.4,144.13437864206355,
REPSWITCH1/PICTURE_48.png,bombero,speak,darkblue,nontarget,2,NT,4,1,1,2,Stim7_Set4,0,None,97,96,97,0,96,96,96,,,,,,,,,,,,,,,,,,,,,,,477.01015520002693,478.08675500005484,478.08675500005484,478.08675500005484,478.08675500005484,478.08675500005484,478.08675500005484,478.08675500005484,478.08675500005484,None,0,,,C:\2023\REPSWITCH21092023\REPSWITCH_excgange\REPSWITCH_excgange\data/420201_REPSWITCH1_version2_list1_2024-01-16_15h35.09.580_micRespv2l1_recorded\recording_micRespv2l1_2024-01-16_15h43.01.904.wav,481.10790860001,481.60797020047903,None,481.10790860001,481.10790860001,481.10790860001,481.10790860001,481.10790860001,481.10790860001,,,,,,420201,001,2024-01-16_15h35.09.580,REPSWITCH1_version2_list1,2022.2.4,144.13437864206355,
REPSWITCH1/PICTURE_48.png,bombero,type,gold,switch,1,T,4,1,1,2,Stim7_Set4,0,None,98,97,98,0,97,97,97,,,,,,,,,,,,,,,,,,,,,,,481.60797020047903,482.76785940025,482.76785940025,482.76785940025,482.76785940025,482.76785940025,482.76785940025,482.76785940025,482.76785940025,"['b', 'o', 'm', 'b', 'e']",0,"[0.9718845002353191, 1.1972124995663762, 2.3477744003757834, 2.6716809002682567, 2.8311778996139765]",bombe,C:\2023\REPSWITCH21092023\REPSWITCH_excgange\REPSWITCH_excgange\data/420201_REPSWITCH1_version2_list1_2024-01-16_15h35.09.580_micRespv2l1_recorded\recording_micRespv2l1_2024-01-16_15h43.06.585.wav,485.7890888005495,486.2891448000446,None,485.7890888005495,485.7890888005495,485.7890888005495,485.7890888005495,485.7890888005495,485.7890888005495,,,,,,420201,001,2024-01-16_15h35.09.580,REPSWITCH1_version2_list1,2022.2.4,144.13437864206355,
REPSWITCH1/PICTURE_728.png,pulpo,type,gold,nontarget,1,NT,4,1,1,2,Stim8_Set4,0,None,99,98,99,0,98,98,98,,,,,,,,,,,,,,,,,,,,,,,486.2891448000446,487.4351027002558,487.4351027002558,487.4351027002558,487.4351027002558,487.4351027002558,487.4351027002558,487.4351027002558,487.4351027002558,"['p', 'u', 'l', 'p', 'o']",0,"[1.1653050994500518, 1.6210133992135525, 1.8582111988216639, 2.082430299371481, 2.258958399295807]",pulpo,C:\2023\REPSWITCH21092023\REPSWITCH_excgange\REPSWITCH_excgange\data/420201_REPSWITCH1_version2_list1_2024-01-16_15h35.09.580_micRespv2l1_recorded\recording_micRespv2l1_2024-01-16_15h43.11.253.wav,490.4563588006422,490.95642430055887,None,490.4563588006422,490.4563588006422,490.4563588006422,490.4563588006422,490.4563588006422,490.4563588006422,,,,,,420201,001,2024-01-16_15h35.09.580,REPSWITCH1_version2_list1,2022.2.4,144.13437864206355,
REPSWITCH1/PICTURE_728.png,pulpo,type,gold,repeat,1,T,4,1,1,2,Stim8_Set4,0,None,100,99,100,0,99,99,99,,,,,,,,,,,,,,,,,,,,,,,490.95642430055887,492.06775400042534,492.06775400042534,492.06775400042534,492.06775400042534,492.06775400042534,492.06775400042534,492.06775400042534,492.06775400042534,"['p', 'u', 'l', 'p', 'o']",0,"[0.9815775994211435, 1.2769977990537882, 1.5161364991217852, 1.7102306997403502, 1.8540071994066238]",pulpo,C:\2023\REPSWITCH21092023\REPSWITCH_excgange\REPSWITCH_excgange\data/420201_REPSWITCH1_version2_list1_2024-01-16_15h35.09.580_micRespv2l1_recorded\recording_micRespv2l1_2024-01-16_15h43.15.886.wav,495.0958361001685,,None,495.0958361001685,495.0958361001685,495.0958361001685,495.0958361001685,495.0958361001685,495.0958361001685,,,,,,420201,001,2024-01-16_15h35.09.580,REPSWITCH1_version2_list1,2022.2.4,144.13437864206355,
REPSWITCH1/PICTURE_320.png,iglesia,speak,darkblue,filler,1,F,4,1,1,2,Stim8_Set3,0,None,101,100,101,0,100,100,100,,,,,,,,,,,,,,,,,,,,,,,495.5959308007732,496.72104390058666,496.72104390058666,496.72104390058666,496.72104390058666,496.72104390058666,496.72104390058666,496.72104390058666,496.72104390058666,None,0,,,C:\2023\REPSWITCH21092023\REPSWITCH_excgange\REPSWITCH_excgange\data/420201_REPSWITCH1_version2_list1_2024-01-16_15h35.09.580_micRespv2l1_recorded\recording_micRespv2l1_2024-01-16_15h43.20.538.wav,499.74235319998115,500.24235980026424,None,499.74235319998115,499.74235319998115,499.74235319998115,499.74235319998115,499.74235319998115,499.74235319998115,,,,,,420201,001,2024-01-16_15h35.09.580,REPSWITCH1_version2_list1,2022.2.4,144.13437864206355,
REPSWITCH1/PICTURE_464.png,goma,type,gold,filler,1,F,4,1,1,2,Stim6_Set3,0,None,102,101,102,0,101,101,101,,,,,,,,,,,,,,,,,,,,,,,500.24235980026424,501.3674904005602,501.3674904005602,501.3674904005602,501.3674904005602,501.3674904005602,501.3674904005602,501.3674904005602,501.3674904005602,"['g', 'o', 'a']",0,"[1.233109699562192, 1.4902315000072122, 1.8403291003778577]",goa,C:\2023\REPSWITCH21092023\REPSWITCH_excgange\REPSWITCH_excgange\data/420201_REPSWITCH1_version2_list1_2024-01-16_15h35.09.580_micRespv2l1_recorded\recording_micRespv2l1_2024-01-16_15h43.25.185.wav,504.38873900007457,504.88880160078406,space,504.38873900007457,504.38873900007457,504.38873900007457,504.38873900007457,504.38873900007457,504.38873900007457,504.88880160078406,504.88880160078406,11.274088399484754,,,420201,001,2024-01-16_15h35.09.580,REPSWITCH1_version2_list1,2022.2.4,144.13437864206355,
REPSWITCH1/PICTURE_663.png,columna,type,gold,filler,1,F,1,2,1,2,Extra6,0,None,103,102,1,0,102,102,102,,,,,,,,,,,,,,,,,,,,,,,516.1750793000683,517.2029118007049,517.2029118007049,517.2029118007049,517.2029118007049,517.2029118007049,517.2029118007049,517.2029118007049,517.2029118007049,"['c', 'o', 'l', 'u']",0,"[1.2479244992136955, 2.041230999864638, 2.2087452998384833, 2.4528038995340466]",colu,C:\2023\REPSWITCH21092023\REPSWITCH_excgange\REPSWITCH_excgange\data/420201_REPSWITCH1_version2_list1_2024-01-16_15h35.09.580_micRespv2l1_recorded\recording_micRespv2l1_2024-01-16_15h43.41.020.wav,520.2241471000016,520.7242808006704,None,520.2241471000016,520.2241471000016,520.2241471000016,520.2241471000016,520.2241471000016,520.2241471000016,,,,,,420201,001,2024-01-16_15h35.09.580,REPSWITCH1_version2_list1,2022.2.4,144.13437864206355,
REPSWITCH1/PICTURE_128.png,muñeca,speak,darkblue,nontarget,2,NT,1,2,1,2,Stim4_Set1,1,switch,104,103,2,0,103,103,103,,,,,,,,,,,,,,,,,,,,,,,520.7242808006704,521.7591095007956,521.7591095007956,521.7591095007956,521.7591095007956,521.7591095007956,521.7591095007956,521.7591095007956,521.7591095007956,None,0,,,C:\2023\REPSWITCH21092023\REPSWITCH_excgange\REPSWITCH_excgange\data/420201_REPSWITCH1_version2_list1_2024-01-16_15h35.09.580_micRespv2l1_recorded\recording_micRespv2l1_2024-01-16_15h43.45.577.wav,524.7872427003458,,None,524.7872427003458,524.7872427003458,524.7872427003458,524.7872427003458,524.7872427003458,524.7872427003458,,,,,,420201,001,2024-01-16_15h35.09.580,REPSWITCH1_version2_list1,2022.2.4,144.13437864206355,
REPSWITCH1/PICTURE_128.png,muñeca,speak,darkblue,repeat,2,T,1,2,1,2,Stim4_Set1,0,None,105,104,3,0,104,104,104,,,,,,,,,,,,,,,,,,,,,,,525.287280600518,526.3777993004769,526.3777993004769,526.3777993004769,526.3777993004769,526.3777993004769,526.3777993004769,526.3777993004769,526.3777993004769,None,0,,,C:\2023\REPSWITCH21092023\REPSWITCH_excgange\REPSWITCH_excgange\data/420201_REPSWITCH1_version2_list1_2024-01-16_15h35.09.580_micRespv2l1_recorded\recording_micRespv2l1_2024-01-16_15h43.50.195.wav,529.4058964001015,,None,529.4058964001015,529.4058964001015,529.4058964001015,529.4058964001015,529.4058964001015,529.4058964001015,,,,,,420201,001,2024-01-16_15h35.09.580,REPSWITCH1_version2_list1,2022.2.4,144.13437864206355,
REPSWITCH1/PICTURE_8.png,pierna,type,gold,filler,1,F,1,2,1,2,Stim3_Set4,0,None,106,105,4,0,105,105,105,,,,,,,,,,,,,,,,,,,,,,,529.9060216005892,531.0241694003344,531.0241694003344,531.0241694003344,531.0241694003344,531.0241694003344,531.0241694003344,531.0241694003344,531.0241694003344,"['p', 'i', 'e', 'r', 'n', 'a']",0,"[1.3060143999755383, 1.515437699854374, 1.8073726994916797, 2.0568669997155666, 2.2492518993094563, 2.4704725993797183]",pierna,C:\2023\REPSWITCH21092023\REPSWITCH_excgange\REPSWITCH_excgange\data/420201_REPSWITCH1_version2_list1_2024-01-16_15h35.09.580_micRespv2l1_recorded\recording_micRespv2l1_2024-01-16_15h43.54.841.wav,534.0454751001671,534.5454607000574,None,534.0454751001671,534.0454751001671,534.0454751001671,534.0454751001671,534.0454751001671,534.0454751001671,,,,,,420201,001,2024-01-16_15h35.09.580,REPSWITCH1_version2_list1,2022.2.4,144.13437864206355,
REPSWITCH1/PICTURE_135.png,traje,speak,darkblue,nontarget,2,NT,1,2,1,2,Stim3_Set1,1,switch,107,106,5,0,106,106,106,,,,,,,,,,,,,,,,,,,,,,,534.5454607000574,535.7192392004654,535.7192392004654,535.7192392004654,535.7192392004654,535.7192392004654,535.7192392004654,535.7192392004654,535.7192392004654,None,0,,,C:\2023\REPSWITCH21092023\REPSWITCH_excgange\REPSWITCH_excgange\data/420201_REPSWITCH1_version2_list1_2024-01-16_15h35.09.580_micRespv2l1_recorded\recording_micRespv2l1_2024-01-16_15h43.59.536.wav,538.7404575003311,539.2404844006523,None,538.7404575003311,538.7404575003311,538.7404575003311,538.7404575003311,538.7404575003311,538.7404575003311,,,,,,420201,001,2024-01-16_15h35.09.580,REPSWITCH1_version2_list1,2022.2.4,144.13437864206355,
REPSWITCH1/PICTURE_135.png,traje,speak,darkblue,repeat,2,T,1,2,1,2,Stim3_Set1,0,None,108,107,6,0,107,107,107,,,,,,,,,,,,,,,,,,,,,,,539.2404844006523,540.2753771999851,540.2753771999851,540.2753771999851,540.2753771999851,540.2753771999851,540.2753771999851,540.2753771999851,540.2753771999851,None,0,,,C:\2023\REPSWITCH21092023\REPSWITCH_excgange\REPSWITCH_excgange\data/420201_REPSWITCH1_version2_list1_2024-01-16_15h35.09.580_micRespv2l1_recorded\recording_micRespv2l1_2024-01-16_15h44.04.092.wav,543.2966163000092,543.7966613005847,None,543.2966163000092,543.2966163000092,543.2966163000092,543.2966163000092,543.2966163000092,543.2966163000092,,,,,,420201,001,2024-01-16_15h35.09.580,REPSWITCH1_version2_list1,2022.2.4,144.13437864206355,
REPSWITCH1/PICTURE_673.png,tenedor,type,gold,filler,1,F,1,2,1,2,Extra5,0,None,109,108,7,0,108,108,108,,,,,,,,,,,,,,,,,,,,,,,543.7966613005847,544.9218487003818,544.9218487003818,544.9218487003818,544.9218487003818,544.9218487003818,544.9218487003818,544.9218487003818,544.9218487003818,"['t', 'e', 'n', 'e', 'd', 'o', 'r']",0,"[1.0648485999554396, 1.1665445994585752, 1.3569037998095155, 1.4796690996736288, 1.6909070992842317, 1.8583436999469995, 1.991924399510026]",tenedor,C:\2023\REPSWITCH21092023\REPSWITCH_excgange\REPSWITCH_excgange\data/420201_REPSWITCH1_version2_list1_2024-01-16_15h35.09.580_micRespv2l1_recorded\recording_micRespv2l1_2024-01-16_15h44.08.739.wav,547.9430517004803,548.4431098001078,None,547.9430517004803,547.9430517004803,547.9430517004803,547.9430517004803,547.9430517004803,547.9430517004803,,,,,,420201,001,2024-01-16_15h35.09.580,REPSWITCH1_version2_list1,2022.2.4,144.13437864206355,
REPSWITCH1/PICTURE_728.png,pulpo,speak,darkblue,filler,2,F,1,2,1,2,Stim8_Set4,0,None,110,109,8,0,109,109,109,,,,,,,,,,,,,,,,,,,,,,,548.4431098001078,549.5543528003618,549.5543528003618,549.5543528003618,549.5543528003618,549.5543528003618,549.5543528003618,549.5543528003618,549.5543528003618,None,0,,,C:\2023\REPSWITCH21092023\REPSWITCH_excgange\REPSWITCH_excgange\data/420201_REPSWITCH1_version2_list1_2024-01-16_15h35.09.580_micRespv2l1_recorded\recording_micRespv2l1_2024-01-16_15h44.13.371.wav,552.5755734005943,553.0756427003071,None,552.5755734005943,552.5755734005943,552.5755734005943,552.5755734005943,552.5755734005943,552.5755734005943,,,,,,420201,001,2024-01-16_15h35.09.580,REPSWITCH1_version2_list1,2022.2.4,144.13437864206355,
REPSWITCH1/PICTURE_16.png,cazador,speak,darkblue,nontarget,2,NT,1,2,1,2,Stim6_Set1,1,repeat,111,110,9,0,110,110,110,,,,,,,,,,,,,,,,,,,,,,,553.0756427003071,554.1105774007738,554.1105774007738,554.1105774007738,554.1105774007738,554.1105774007738,554.1105774007738,554.1105774007738,554.1105774007738,None,0,,,C:\2023\REPSWITCH21092023\REPSWITCH_excgange\REPSWITCH_excgange\data/420201_REPSWITCH1_version2_list1_2024-01-16_15h35.09.580_micRespv2l1_recorded\recording_micRespv2l1_2024-01-16_15h44.17.927.wav,557.1317313006148,557.6318028001115,None,557.1317313006148,557.1317313006148,557.1317313006148,557.1317313006148,557.1317313006148,557.1317313006148,,,,,,420201,001,2024-01-16_15h35.09.580,REPSWITCH1_version2_list1,2022.2.4,144.13437864206355,
REPSWITCH1/PICTURE_16.png,cazador,type,gold,switch,1,T,1,2,1,2,Stim6_Set1,0,None,112,111,10,0,111,111,111,,,,,,,,,,,,,,,,,,,,,,,557.6318028001115,558.7570401001722,558.7570401001722,558.7570401001722,558.7570401001722,558.7570401001722,558.7570401001722,558.7570401001722,558.7570401001722,"['c', 'a', 'z', 'a', 'd', 'o', 'r']",0,"[0.929904199205339, 1.0235837996006012, 1.2142327995970845, 1.313230799511075, 1.5674433996900916, 1.8993133995682001, 2.051630599424243]",cazador,C:\2023\REPSWITCH21092023\REPSWITCH_excgange\REPSWITCH_excgange\data/420201_REPSWITCH1_version2_list1_2024-01-16_15h35.09.580_micRespv2l1_recorded\recording_micRespv2l1_2024-01-16_15h44.22.575.wav,561.7851431006566,,None,561.7851431006566,561.7851431006566,561.7851431006566,561.7851431006566,561.7851431006566,561.7851431006566,,,,,,420201,001,2024-01-16_15h35.09.580,REPSWITCH1_version2_list1,2022.2.4,144.13437864206355,
REPSWITCH1/PICTURE_498.png,taza,type,gold,filler,1,F,1,2,1,2,Stim4_Set4,1,repeat,113,112,11,0,112,112,112,,,,,,,,,,,,,,,,,,,,,,,562.2852007001638,563.3686781004071,563.3686781004071,563.3686781004071,563.3686781004071,563.3686781004071,563.3686781004071,563.3686781004071,563.3686781004071,"['t', 'a', 'z', 'a']",0,"[1.3073105998337269, 1.4558163993060589, 1.68737639952451, 1.7853623991832137]",taza,C:\2023\REPSWITCH21092023\REPSWITCH_excgange\REPSWITCH_excgange\data/420201_REPSWITCH1_version2_list1_2024-01-16_15h35.09.580_micRespv2l1_recorded\recording_micRespv2l1_2024-01-16_15h44.27.186.wav,566.3898748001084,566.8899728003889,None,566.3898748001084,566.3898748001084,566.3898748001084,566.3898748001084,566.3898748001084,566.3898748001084,,,,,,420201,001,2024-01-16_15h35.09.580,REPSWITCH1_version2_list1,2022.2.4,144.13437864206355,
REPSWITCH1/PICTURE_381.png,fresa,type,gold,nontarget,1,NT,1,2,1,2,Stim2_Set1,1,repeat,114,113,12,0,113,113,113,,,,,,,,,,,,,,,,,,,,,,,566.8899728003889,568.0428827004507,568.0428827004507,568.0428827004507,568.0428827004507,568.0428827004507,568.0428827004507,568.0428827004507,568.0428827004507,"['f', 'r', 'e', 's', 'a']",0,"[1.0881162993609905, 1.2595387995243073, 1.4080461990088224, 1.6093645989894867, 1.8017226988449693]",fresa,C:\2023\REPSWITCH21092023\REPSWITCH_excgange\REPSWITCH_excgange\data/420201_REPSWITCH1_version2_list1_2024-01-16_15h35.09.580_micRespv2l1_recorded\recording_micRespv2l1_2024-01-16_15h44.31.860.wav,571.0641937004402,571.5642633000389,None,571.0641937004402,571.0641937004402,571.0641937004402,571.0641937004402,571.0641937004402,571.0641937004402,,,,,,420201,001,2024-01-16_15h35.09.580,REPSWITCH1_version2_list1,2022.2.4,144.13437864206355,
REPSWITCH1/PICTURE_381.png,fresa,speak,darkblue,switch,2,T,1,2,1,2,Stim2_Set1,0,None,115,114,13,0,114,114,114,,,,,,,,,,,,,,,,,,,,,,,571.5642633000389,572.6546237999573,572.6546237999573,572.6546237999573,572.6546237999573,572.6546237999573,572.6546237999573,572.6546237999573,572.6546237999573,None,0,,,C:\2023\REPSWITCH21092023\REPSWITCH_excgange\REPSWITCH_excgange\data/420201_REPSWITCH1_version2_list1_2024-01-16_15h35.09.580_micRespv2l1_recorded\recording_micRespv2l1_2024-01-16_15h44.36.472.wav,575.6827899999917,,None,575.6827899999917,575.6827899999917,575.6827899999917,575.6827899999917,575.6827899999917,575.6827899999917,,,,,,420201,001,2024-01-16_15h35.09.580,REPSWITCH1_version2_list1,2022.2.4,144.13437864206355,
REPSWITCH1/PICTURE_178.png,puente,speak,darkblue,nontarget,2,NT,1,2,1,2,Stim1_Set1,0,None,116,115,14,0,115,115,115,,,,,,,,,,,,,,,,,,,,,,,576.1828468004242,577.3149628005922,577.3149628005922,577.3149628005922,577.3149628005922,577.3149628005922,577.3149628005922,577.3149628005922,577.3149628005922,None,0,,,C:\2023\REPSWITCH21092023\REPSWITCH_excgange\REPSWITCH_excgange\data/420201_REPSWITCH1_version2_list1_2024-01-16_15h35.09.580_micRespv2l1_recorded\recording_micRespv2l1_2024-01-16_15h44.41.132.wav,580.3431851007044,,None,580.3431851007044,580.3431851007044,580.3431851007044,580.3431851007044,580.3431851007044,580.3431851007044,,,,,,420201,001,2024-01-16_15h35.09.580,REPSWITCH1_version2_list1,2022.2.4,144.13437864206355,
REPSWITCH1/PICTURE_178.png,puente,type,gold,switch,1,T,1,2,1,2,Stim1_Set1,0,None,117,116,15,0,116,116,116,,,,,,,,,,,,,,,,,,,,,,,580.8431735001504,581.850274800323,581.850274800323,581.850274800323,581.850274800323,581.850274800323,581.850274800323,581.850274800323,581.850274800323,"['p', 'u', 'e', 'n', 't', 'e']",0,"[1.1265006987378001, 1.408504399470985, 1.669311799108982, 1.7979346988722682, 1.9877704987302423, 2.070457698777318]",puente,C:\2023\REPSWITCH21092023\REPSWITCH_excgange\REPSWITCH_excgange\data/420201_REPSWITCH1_version2_list1_2024-01-16_15h35.09.580_micRespv2l1_recorded\recording_micRespv2l1_2024-01-16_15h44.45.667.wav,584.87145980075,585.3715419005603,None,584.87145980075,584.87145980075,584.87145980075,584.87145980075,584.87145980075,584.87145980075,,,,,,420201,001,2024-01-16_15h35.09.580,REPSWITCH1_version2_list1,2022.2.4,144.13437864206355,
REPSWITCH1/PICTURE_719.png,baño,speak,darkblue,filler,2,F,1,2,1,2,Stim2_Set4,0,None,118,117,16,0,117,117,117,,,,,,,,,,,,,,,,,,,,,,,585.3715419005603,586.5383614003658,586.5383614003658,586.5383614003658,586.5383614003658,586.5383614003658,586.5383614003658,586.5383614003658,586.5383614003658,None,0,,,C:\2023\REPSWITCH21092023\REPSWITCH_excgange\REPSWITCH_excgange\data/420201_REPSWITCH1_version2_list1_2024-01-16_15h35.09.580_micRespv2l1_recorded\recording_micRespv2l1_2024-01-16_15h44.50.356.wav,589.5665324004367,,None,589.5665324004367,589.5665324004367,589.5665324004367,589.5665324004367,589.5665324004367,589.5665324004367,,,,,,420201,001,2024-01-16_15h35.09.580,REPSWITCH1_version2_list1,2022.2.4,144.13437864206355,
REPSWITCH1/PICTURE_169.png,espalda,type,gold,nontarget,1,NT,1,2,1,2,Stim8_Set1,1,switch,119,118,17,0,118,118,118,,,,,,,,,,,,,,,,,,,,,,,590.0666700005531,591.1432084999979,591.1432084999979,591.1432084999979,591.1432084999979,591.1432084999979,591.1432084999979,591.1432084999979,591.1432084999979,"['e', 's', 'p', 'a', 'l', 'd', 'a']",0,"[1.28439199924469, 1.4441257994621992, 1.625479699112475, 1.7630452988669276, 1.8477353993803263, 2.2037477986887097, 2.4349781991913915]",espalda,C:\2023\REPSWITCH21092023\REPSWITCH_excgange\REPSWITCH_excgange\data/420201_REPSWITCH1_version2_list1_2024-01-16_15h35.09.580_micRespv2l1_recorded\recording_micRespv2l1_2024-01-16_15h44.54.960.wav,594.1643623001873,594.6644318001345,None,594.1643623001873,594.1643623001873,594.1643623001873,594.1643623001873,594.1643623001873,594.1643623001873,,,,,,420201,001,2024-01-16_15h35.09.580,REPSWITCH1_version2_list1,2022.2.4,144.13437864206355,
REPSWITCH1/PICTURE_169.png,espalda,type,gold,repeat,1,T,1,2,1,2,Stim8_Set1,0,None,120,119,18,0,119,119,119,,,,,,,,,,,,,,,,,,,,,,,594.6644318001345,595.7687495006248,595.7687495006248,595.7687495006248,595.7687495006248,595.7687495006248,595.7687495006248,595.7687495006248,595.7687495006248,"['e', 's', 'p', 'a', 'l', 'd', 'a']",0,"[1.0720322001725435, 1.2318890001624823, 1.3898122003301978, 1.5084186000749469, 1.6093137999996543, 1.901285999454558, 2.111543499864638]",espalda,C:\2023\REPSWITCH21092023\REPSWITCH_excgange\REPSWITCH_excgange\data/420201_REPSWITCH1_version2_list1_2024-01-16_15h35.09.580_micRespv2l1_recorded\recording_micRespv2l1_2024-01-16_15h44.59.587.wav,598.7969562001526,,None,598.7969562001526,598.7969562001526,598.7969562001526,598.7969562001526,598.7969562001526,598.7969562001526,,,,,,420201,001,2024-01-16_15h35.09.580,REPSWITCH1_version2_list1,2022.2.4,144.13437864206355,
REPSWITCH1/PICTURE_48.png,bombero,speak,darkblue,filler,2,F,1,2,1,2,Stim7_Set4,1,switch,121,120,19,0,120,120,120,,,,,,,,,,,,,,,,,,,,,,,599.2969698002562,600.4152692006901,600.4152692006901,600.4152692006901,600.4152692006901,600.4152692006901,600.4152692006901,600.4152692006901,600.4152692006901,None,0,,,C:\2023\REPSWITCH21092023\REPSWITCH_excgange\REPSWITCH_excgange\data/420201_REPSWITCH1_version2_list1_2024-01-16_15h35.09.580_micRespv2l1_recorded\recording_micRespv2l1_2024-01-16_15h45.04.232.wav,603.436401700601,603.9364656005055,None,603.436401700601,603.436401700601,603.436401700601,603.436401700601,603.436401700601,603.436401700601,,,,,,420201,001,2024-01-16_15h35.09.580,REPSWITCH1_version2_list1,2022.2.4,144.13437864206355,
