image,correctAns,respModal,frameColor,repSwitch,sequence,target,set,block,list,exp_version,stimulus,baseline,baseline_condition,trial_no,psychopy_trial,Column1,trialsREPSWITCH.thisRepN,trialsREPSWITCH.thisTrialN,trialsREPSWITCH.thisN,trialsREPSWITCH.thisIndex,textWelcome.started,textboxInstrMain1.started,textboxInstrMain1_2.started,textboxInstrMain1_3.started,keyInstrMain.started,keyInstrMain.keys,keyInstrMain.rt,textboxInstrMain2.started,textboxInstrMain2_2.started,textboxInstrMain2_3.started,textboxInstrMain2_4.started,textboxInstrMain2_5.started,textboxInstrMain2_6.started,textboxInstrMain2_7.started,textboxInstrMain2_8.started,textboxInstrMain2_9.started,textboxInstrMain2_10.started,textboxInstrMain2_11.started,textboxInstrMain2_12.started,keyInstrMain2.started,keyInstrMain2.keys,keyInstrMain2.rt,fixationITI.started,fixationITI.stopped,polygonColour.started,polygonWhite.started,imageObject.started,polygonType.started,textInput.started,keyResp.started,micRespv2l2.started,keyResp.keys,keyResp.corr,subjResponse,micRespv2l2.clip,textBlankLoop.started,textBlankLoop.stopped,keyPause.keys,polygonColour.stopped,polygonWhite.stopped,imageObject.stopped,polygonType.stopped,textInput.stopped,keyResp.stopped,keyResp.rt,textboxPause.started,keyPause.started,keyPause.rt,textboxGoodbye.started,textboxGoodbye.stopped,participant,session,date,expName,psychopyVersion,frameRate,
,,,,,,,,,,,,,,,,,,,,,9.757078900001943,12.253851599991322,12.253851599991322,12.253851599991322,12.253851599991322,space,7.312341699376702,,,,,,,,,,,,,,,,,,,,,,,,,,,,,,,,,,,,,,,,,,,,440202,001,2024-01-19_14h56.06.787,REPSWITCH1_version2_list2,2022.2.4,143.9924194035269,
,,,,,,,,,,,,,,,,,,,,,,,,,,,,19.581145300529897,19.581145300529897,19.581145300529897,19.581145300529897,19.581145300529897,19.581145300529897,19.581145300529897,19.581145300529897,19.581145300529897,19.581145300529897,19.581145300529897,19.581145300529897,19.581145300529897,space,1.7946309000253677,,,,,,,,,,,,,,,,,,,,,,,,,,,,,440202,001,2024-01-19_14h56.06.787,REPSWITCH1_version2_list2,2022.2.4,143.9924194035269,
REPSWITCH1/PICTURE_646.png,tronco,speak,darkblue,filler,2,F,1,3,2,2,Extra4,0,None,1,0,1,0,0,0,0,,,,,,,,,,,,,,,,,,,,,,,21.470291499979794,22.53990980051458,22.53990980051458,22.53990980051458,22.53990980051458,22.53990980051458,22.53990980051458,22.53990980051458,22.53990980051458,None,0,,C:\2023\REPSWITCH21092023\REPSWITCH_excgange\REPSWITCH_excgange\data/440202_REPSWITCH1_version2_list2_2024-01-19_14h56.06.787_micRespv2l2_recorded\recording_micRespv2l2_2024-01-19_14h56.24.350.wav,25.561127699911594,26.061155100353062,None,,,,,,,,,,,,,440202,001,2024-01-19_14h56.06.787,REPSWITCH1_version2_list2,2022.2.4,143.9924194035269,
REPSWITCH1/PICTURE_340.png,espejo,type,gold,filler,1,F,1,3,2,2,Extra1,0,None,2,1,2,0,1,1,1,,,,,,,,,,,,,,,,,,,,,,,26.061155100353062,27.14461289998144,27.14461289998144,27.14461289998144,27.14461289998144,27.14461289998144,27.14461289998144,27.14461289998144,27.14461289998144,"['e', 's', 'p', 'e', 'j', 'o']",0,espejo,C:\2023\REPSWITCH21092023\REPSWITCH_excgange\REPSWITCH_excgange\data/440202_REPSWITCH1_version2_list2_2024-01-19_14h56.06.787_micRespv2l2_recorded\recording_micRespv2l2_2024-01-19_14h56.28.958.wav,30.172779699787498,,None,30.172779699787498,30.172779699787498,30.172779699787498,30.172779699787498,30.172779699787498,30.172779699787498,"[0.9729004995897412, 1.1925350995734334, 1.3584231995046139, 1.4869884988293052, 1.6946178991347551, 1.9019171996042132]",,,,,,440202,001,2024-01-19_14h56.06.787,REPSWITCH1_version2_list2,2022.2.4,143.9924194035269,
REPSWITCH1/PICTURE_338.png,regalo,speak,darkblue,filler,2,F,1,3,2,2,Stim6_Set4,0,None,3,2,3,0,2,2,2,,,,,,,,,,,,,,,,,,,,,,,30.67284350004047,31.756320300512016,31.756320300512016,31.756320300512016,31.756320300512016,31.756320300512016,31.756320300512016,31.756320300512016,31.756320300512016,None,0,,C:\2023\REPSWITCH21092023\REPSWITCH_excgange\REPSWITCH_excgange\data/440202_REPSWITCH1_version2_list2_2024-01-19_14h56.06.787_micRespv2l2_recorded\recording_micRespv2l2_2024-01-19_14h56.33.570.wav,34.784512400627136,35.284576799720526,None,34.784512400627136,34.784512400627136,34.784512400627136,34.784512400627136,34.784512400627136,34.784512400627136,,,,,,,440202,001,2024-01-19_14h56.06.787,REPSWITCH1_version2_list2,2022.2.4,143.9924194035269,
REPSWITCH1/PICTURE_142.png,vaso,speak,darkblue,nontarget,2,NT,1,3,2,2,Stim7_Set1,1,repeat,4,3,4,0,3,3,3,,,,,,,,,,,,,,,,,,,,,,,35.284576799720526,36.465295599773526,36.465295599773526,36.465295599773526,36.465295599773526,36.465295599773526,36.465295599773526,36.465295599773526,36.465295599773526,None,0,,C:\2023\REPSWITCH21092023\REPSWITCH_excgange\REPSWITCH_excgange\data/440202_REPSWITCH1_version2_list2_2024-01-19_14h56.06.787_micRespv2l2_recorded\recording_micRespv2l2_2024-01-19_14h56.38.278.wav,39.48658700007945,39.98656340036541,None,39.48658700007945,39.48658700007945,39.48658700007945,39.48658700007945,39.48658700007945,39.48658700007945,,,,,,,440202,001,2024-01-19_14h56.06.787,REPSWITCH1_version2_list2,2022.2.4,143.9924194035269,
REPSWITCH1/PICTURE_142.png,vaso,speak,darkblue,repeat,2,T,1,3,2,2,Stim7_Set1,0,None,5,4,5,0,4,4,4,,,,,,,,,,,,,,,,,,,,,,,39.98656340036541,41.06313300039619,41.06313300039619,41.06313300039619,41.06313300039619,41.06313300039619,41.06313300039619,41.06313300039619,41.06313300039619,None,0,,C:\2023\REPSWITCH21092023\REPSWITCH_excgange\REPSWITCH_excgange\data/440202_REPSWITCH1_version2_list2_2024-01-19_14h56.06.787_micRespv2l2_recorded\recording_micRespv2l2_2024-01-19_14h56.42.876.wav,44.0843349006027,44.58439590036869,None,44.0843349006027,44.0843349006027,44.0843349006027,44.0843349006027,44.0843349006027,44.0843349006027,,,,,,,440202,001,2024-01-19_14h56.06.787,REPSWITCH1_version2_list2,2022.2.4,143.9924194035269,
REPSWITCH1/PICTURE_498.png,taza,type,gold,filler,1,F,1,3,2,2,Stim4_Set4,0,None,6,5,6,0,5,5,5,,,,,,,,,,,,,,,,,,,,,,,44.58439590036869,45.67480710055679,45.67480710055679,45.67480710055679,45.67480710055679,45.67480710055679,45.67480710055679,45.67480710055679,45.67480710055679,"['t', 'a', 'z', 'a']",0,taza,C:\2023\REPSWITCH21092023\REPSWITCH_excgange\REPSWITCH_excgange\data/440202_REPSWITCH1_version2_list2_2024-01-19_14h56.06.787_micRespv2l2_recorded\recording_micRespv2l2_2024-01-19_14h56.47.488.wav,48.702959400601685,,None,48.702959400601685,48.702959400601685,48.702959400601685,48.702959400601685,48.702959400601685,48.702959400601685,"[0.9748220993205905, 1.158660899847746, 1.4008109997957945, 1.4776298990473151]",,,,,,440202,001,2024-01-19_14h56.06.787,REPSWITCH1_version2_list2,2022.2.4,143.9924194035269,
REPSWITCH1/PICTURE_16.png,cazador,speak,darkblue,nontarget,2,NT,1,3,2,2,Stim6_Set1,1,switch,7,6,7,0,6,6,6,,,,,,,,,,,,,,,,,,,,,,,49.20305080059916,50.30743569973856,50.30743569973856,50.30743569973856,50.30743569973856,50.30743569973856,50.30743569973856,50.30743569973856,50.30743569973856,None,0,,C:\2023\REPSWITCH21092023\REPSWITCH_excgange\REPSWITCH_excgange\data/440202_REPSWITCH1_version2_list2_2024-01-19_14h56.06.787_micRespv2l2_recorded\recording_micRespv2l2_2024-01-19_14h56.52.121.wav,53.335524399764836,,None,53.335524399764836,53.335524399764836,53.335524399764836,53.335524399764836,53.335524399764836,53.335524399764836,,,,,,,440202,001,2024-01-19_14h56.06.787,REPSWITCH1_version2_list2,2022.2.4,143.9924194035269,
REPSWITCH1/PICTURE_16.png,cazador,speak,darkblue,repeat,2,T,1,3,2,2,Stim6_Set1,0,None,8,7,8,0,7,7,7,,,,,,,,,,,,,,,,,,,,,,,53.83559560030699,54.91908579971641,54.91908579971641,54.91908579971641,54.91908579971641,54.91908579971641,54.91908579971641,54.91908579971641,54.91908579971641,None,0,,C:\2023\REPSWITCH21092023\REPSWITCH_excgange\REPSWITCH_excgange\data/440202_REPSWITCH1_version2_list2_2024-01-19_14h56.06.787_micRespv2l2_recorded\recording_micRespv2l2_2024-01-19_14h56.56.732.wav,57.94724620040506,,None,57.94724620040506,57.94724620040506,57.94724620040506,57.94724620040506,57.94724620040506,57.94724620040506,,,,,,,440202,001,2024-01-19_14h56.06.787,REPSWITCH1_version2_list2,2022.2.4,143.9924194035269,
REPSWITCH1/PICTURE_719.png,baño,type,gold,filler,1,F,1,3,2,2,Stim2_Set4,0,None,9,8,9,0,8,8,8,,,,,,,,,,,,,,,,,,,,,,,58.4473136998713,59.58642200008035,59.58642200008035,59.58642200008035,59.58642200008035,59.58642200008035,59.58642200008035,59.58642200008035,59.58642200008035,"['b', 'a', 'ñ', 'o']",0,baño,C:\2023\REPSWITCH21092023\REPSWITCH_excgange\REPSWITCH_excgange\data/440202_REPSWITCH1_version2_list2_2024-01-19_14h56.06.787_micRespv2l2_recorded\recording_micRespv2l2_2024-01-19_14h57.01.399.wav,62.60757960006595,63.10763300023973,None,62.60757960006595,62.60757960006595,62.60757960006595,62.60757960006595,62.60757960006595,62.60757960006595,"[1.110941999591887, 1.2454539993777871, 1.6069826995953918, 1.7734319996088743]",,,,,,440202,001,2024-01-19_14h56.06.787,REPSWITCH1_version2_list2,2022.2.4,143.9924194035269,
REPSWITCH1/PICTURE_169.png,espalda,speak,darkblue,nontarget,2,NT,1,3,2,2,Stim8_Set1,0,None,10,9,10,0,9,9,9,,,,,,,,,,,,,,,,,,,,,,,63.10763300023973,64.23276040051132,64.23276040051132,64.23276040051132,64.23276040051132,64.23276040051132,64.23276040051132,64.23276040051132,64.23276040051132,None,0,,C:\2023\REPSWITCH21092023\REPSWITCH_excgange\REPSWITCH_excgange\data/440202_REPSWITCH1_version2_list2_2024-01-19_14h56.06.787_micRespv2l2_recorded\recording_micRespv2l2_2024-01-19_14h57.06.047.wav,67.26093150023371,,None,67.26093150023371,67.26093150023371,67.26093150023371,67.26093150023371,67.26093150023371,67.26093150023371,,,,,,,440202,001,2024-01-19_14h56.06.787,REPSWITCH1_version2_list2,2022.2.4,143.9924194035269,
REPSWITCH1/PICTURE_169.png,espalda,type,gold,switch,1,T,1,3,2,2,Stim8_Set1,0,None,11,10,11,0,10,10,10,,,,,,,,,,,,,,,,,,,,,,,67.76103200018406,68.79586029984057,68.79586029984057,68.79586029984057,68.79586029984057,68.79586029984057,68.79586029984057,68.79586029984057,68.79586029984057,"['e', 's', 'p', 'a', 'l', 'd', 'a']",0,espalda,C:\2023\REPSWITCH21092023\REPSWITCH_excgange\REPSWITCH_excgange\data/440202_REPSWITCH1_version2_list2_2024-01-19_14h56.06.787_micRespv2l2_recorded\recording_micRespv2l2_2024-01-19_14h57.10.608.wav,71.81710720062256,72.31716870050877,None,71.81710720062256,71.81710720062256,71.81710720062256,71.81710720062256,71.81710720062256,71.81710720062256,"[1.1821571998298168, 1.393669799901545, 1.533797299489379, 1.66954099945724, 1.7592426994815469, 2.0711618000641465, 2.165734499692917]",,,,,,440202,001,2024-01-19_14h56.06.787,REPSWITCH1_version2_list2,2022.2.4,143.9924194035269,
REPSWITCH1/PICTURE_687.png,camisa,type,gold,filler,1,F,1,3,2,2,Stim5_Set4,0,None,12,11,12,0,11,11,11,,,,,,,,,,,,,,,,,,,,,,,72.31716870050877,73.48396230023354,73.48396230023354,73.48396230023354,73.48396230023354,73.48396230023354,73.48396230023354,73.48396230023354,73.48396230023354,"['c', 'a', 'm', 'i', 's', 'a']",0,camisa,C:\2023\REPSWITCH21092023\REPSWITCH_excgange\REPSWITCH_excgange\data/440202_REPSWITCH1_version2_list2_2024-01-19_14h56.06.787_micRespv2l2_recorded\recording_micRespv2l2_2024-01-19_14h57.15.297.wav,76.51215020008385,,None,76.51215020008385,76.51215020008385,76.51215020008385,76.51215020008385,76.51215020008385,76.51215020008385,"[1.4421211993321776, 1.5756712993606925, 1.8155511990189552, 1.958118898794055, 2.0861340994015336, 2.2847009990364313]",,,,,,440202,001,2024-01-19_14h56.06.787,REPSWITCH1_version2_list2,2022.2.4,143.9924194035269,
REPSWITCH1/PICTURE_178.png,puente,type,gold,nontarget,1,NT,1,3,2,2,Stim1_Set1,1,repeat,13,12,13,0,12,12,12,,,,,,,,,,,,,,,,,,,,,,,77.0122202001512,78.03320890013129,78.03320890013129,78.03320890013129,78.03320890013129,78.03320890013129,78.03320890013129,78.03320890013129,78.03320890013129,"['p', 'u', 'e', 'n', 't', 'e']",0,puente,C:\2023\REPSWITCH21092023\REPSWITCH_excgange\REPSWITCH_excgange\data/440202_REPSWITCH1_version2_list2_2024-01-19_14h56.06.787_micRespv2l2_recorded\recording_micRespv2l2_2024-01-19_14h57.19.847.wav,81.06136350054294,,None,81.06136350054294,81.06136350054294,81.06136350054294,81.06136350054294,81.06136350054294,81.06136350054294,"[1.4224725998938084, 1.8094178000465035, 2.120376699604094, 2.233996099792421, 2.4257554998621345, 2.5213991003111005]",,,,,,440202,001,2024-01-19_14h56.06.787,REPSWITCH1_version2_list2,2022.2.4,143.9924194035269,
REPSWITCH1/PICTURE_178.png,puente,speak,darkblue,switch,2,T,1,3,2,2,Stim1_Set1,0,None,14,13,14,0,13,13,13,,,,,,,,,,,,,,,,,,,,,,,81.56144290044904,82.73516959976405,82.73516959976405,82.73516959976405,82.73516959976405,82.73516959976405,82.73516959976405,82.73516959976405,82.73516959976405,None,0,,C:\2023\REPSWITCH21092023\REPSWITCH_excgange\REPSWITCH_excgange\data/440202_REPSWITCH1_version2_list2_2024-01-19_14h56.06.787_micRespv2l2_recorded\recording_micRespv2l2_2024-01-19_14h57.24.548.wav,85.76337070018053,,None,85.76337070018053,85.76337070018053,85.76337070018053,85.76337070018053,85.76337070018053,85.76337070018053,,,,,,,440202,001,2024-01-19_14h56.06.787,REPSWITCH1_version2_list2,2022.2.4,143.9924194035269,
REPSWITCH1/PICTURE_128.png,muñeca,speak,darkblue,nontarget,2,NT,1,3,2,2,Stim4_Set1,1,repeat,15,14,15,0,14,14,14,,,,,,,,,,,,,,,,,,,,,,,86.26342049986124,87.32612220011652,87.32612220011652,87.32612220011652,87.32612220011652,87.32612220011652,87.32612220011652,87.32612220011652,87.32612220011652,None,0,,C:\2023\REPSWITCH21092023\REPSWITCH_excgange\REPSWITCH_excgange\data/440202_REPSWITCH1_version2_list2_2024-01-19_14h56.06.787_micRespv2l2_recorded\recording_micRespv2l2_2024-01-19_14h57.29.141.wav,90.35422820039093,,None,90.35422820039093,90.35422820039093,90.35422820039093,90.35422820039093,90.35422820039093,90.35422820039093,,,,,,,440202,001,2024-01-19_14h56.06.787,REPSWITCH1_version2_list2,2022.2.4,143.9924194035269,
REPSWITCH1/PICTURE_128.png,muñeca,type,gold,switch,1,T,1,3,2,2,Stim4_Set1,0,None,16,15,16,0,15,15,15,,,,,,,,,,,,,,,,,,,,,,,90.85428049974144,91.972482400015,91.972482400015,91.972482400015,91.972482400015,91.972482400015,91.972482400015,91.972482400015,91.972482400015,"['m', 'u', 'e', 'backspace', 'ñ', 'e']",0,muñe,C:\2023\REPSWITCH21092023\REPSWITCH_excgange\REPSWITCH_excgange\data/440202_REPSWITCH1_version2_list2_2024-01-19_14h56.06.787_micRespv2l2_recorded\recording_micRespv2l2_2024-01-19_14h57.33.785.wav,94.99379430059344,95.49375709984452,None,94.99379430059344,94.99379430059344,94.99379430059344,94.99379430059344,94.99379430059344,94.99379430059344,"[0.985576999373734, 1.1703524999320507, 1.5722966995090246, 2.5109660997986794, 2.7885321993380785, 2.917054600082338]",,,,,,440202,001,2024-01-19_14h56.06.787,REPSWITCH1_version2_list2,2022.2.4,143.9924194035269,
REPSWITCH1/PICTURE_319.png,vaca,speak,darkblue,filler,2,F,1,3,2,2,Stim1_Set4,1,switch,17,16,17,0,16,16,16,,,,,,,,,,,,,,,,,,,,,,,95.49375709984452,96.59807709977031,96.59807709977031,96.59807709977031,96.59807709977031,96.59807709977031,96.59807709977031,96.59807709977031,96.59807709977031,None,0,,C:\2023\REPSWITCH21092023\REPSWITCH_excgange\REPSWITCH_excgange\data/440202_REPSWITCH1_version2_list2_2024-01-19_14h56.06.787_micRespv2l2_recorded\recording_micRespv2l2_2024-01-19_14h57.38.411.wav,99.6193002006039,100.11938729975373,None,99.6193002006039,99.6193002006039,99.6193002006039,99.6193002006039,99.6193002006039,99.6193002006039,,,,,,,440202,001,2024-01-19_14h56.06.787,REPSWITCH1_version2_list2,2022.2.4,143.9924194035269,
REPSWITCH1/PICTURE_728.png,pulpo,speak,darkblue,filler,2,F,1,3,2,2,Stim8_Set4,0,None,18,17,18,0,17,17,17,,,,,,,,,,,,,,,,,,,,,,,100.11938729975373,101.27232880052179,101.27232880052179,101.27232880052179,101.27232880052179,101.27232880052179,101.27232880052179,101.27232880052179,101.27232880052179,None,0,,C:\2023\REPSWITCH21092023\REPSWITCH_excgange\REPSWITCH_excgange\data/440202_REPSWITCH1_version2_list2_2024-01-19_14h56.06.787_micRespv2l2_recorded\recording_micRespv2l2_2024-01-19_14h57.43.085.wav,104.2935407999903,104.79365130048245,None,104.2935407999903,104.2935407999903,104.2935407999903,104.2935407999903,104.2935407999903,104.2935407999903,,,,,,,440202,001,2024-01-19_14h56.06.787,REPSWITCH1_version2_list2,2022.2.4,143.9924194035269,
REPSWITCH1/PICTURE_381.png,fresa,type,gold,nontarget,1,NT,1,3,2,2,Stim2_Set1,1,switch,19,18,19,0,18,18,18,,,,,,,,,,,,,,,,,,,,,,,104.79365130048245,105.96742449980229,105.96742449980229,105.96742449980229,105.96742449980229,105.96742449980229,105.96742449980229,105.96742449980229,105.96742449980229,"['f', 'r', 'e', 's', 'a']",0,fresa,C:\2023\REPSWITCH21092023\REPSWITCH_excgange\REPSWITCH_excgange\data/440202_REPSWITCH1_version2_list2_2024-01-19_14h56.06.787_micRespv2l2_recorded\recording_micRespv2l2_2024-01-19_14h57.47.780.wav,108.98859480023384,109.48865700047463,None,108.98859480023384,108.98859480023384,108.98859480023384,108.98859480023384,108.98859480023384,108.98859480023384,"[1.034019399434328, 1.1762466989457607, 1.3352150991559029, 1.5095673995092511, 1.643109398894012]",,,,,,440202,001,2024-01-19_14h56.06.787,REPSWITCH1_version2_list2,2022.2.4,143.9924194035269,
REPSWITCH1/PICTURE_381.png,fresa,type,gold,repeat,1,T,1,3,2,2,Stim2_Set1,0,None,20,19,20,0,19,19,19,,,,,,,,,,,,,,,,,,,,,,,109.48865700047463,110.57907710038126,110.57907710038126,110.57907710038126,110.57907710038126,110.57907710038126,110.57907710038126,110.57907710038126,110.57907710038126,"['f', 'r', 'e', 's', 'a']",0,fresa,C:\2023\REPSWITCH21092023\REPSWITCH_excgange\REPSWITCH_excgange\data/440202_REPSWITCH1_version2_list2_2024-01-19_14h56.06.787_micRespv2l2_recorded\recording_micRespv2l2_2024-01-19_14h57.52.392.wav,113.60731509979814,,None,113.60731509979814,113.60731509979814,113.60731509979814,113.60731509979814,113.60731509979814,113.60731509979814,"[1.0381699996069074, 1.1887170001864433, 1.3162771994248033, 1.4906864995136857, 1.6650996999815106]",,,,,,440202,001,2024-01-19_14h56.06.787,REPSWITCH1_version2_list2,2022.2.4,143.9924194035269,
REPSWITCH1/PICTURE_8.png,pierna,speak,darkblue,filler,2,F,1,3,2,2,Stim3_Set4,0,None,21,20,21,0,20,20,20,,,,,,,,,,,,,,,,,,,,,,,114.10730999987572,115.18388430029154,115.18388430029154,115.18388430029154,115.18388430029154,115.18388430029154,115.18388430029154,115.18388430029154,115.18388430029154,None,0,,C:\2023\REPSWITCH21092023\REPSWITCH_excgange\REPSWITCH_excgange\data/440202_REPSWITCH1_version2_list2_2024-01-19_14h56.06.787_micRespv2l2_recorded\recording_micRespv2l2_2024-01-19_14h57.56.998.wav,118.21201749984175,,None,118.21201749984175,118.21201749984175,118.21201749984175,118.21201749984175,118.21201749984175,118.21201749984175,,,,,,,440202,001,2024-01-19_14h56.06.787,REPSWITCH1_version2_list2,2022.2.4,143.9924194035269,
REPSWITCH1/PICTURE_48.png,bombero,speak,darkblue,filler,2,F,1,3,2,2,Stim7_Set4,0,None,22,21,22,0,21,21,21,,,,,,,,,,,,,,,,,,,,,,,118.71207880042493,119.76782820001245,119.76782820001245,119.76782820001245,119.76782820001245,119.76782820001245,119.76782820001245,119.76782820001245,119.76782820001245,None,0,,C:\2023\REPSWITCH21092023\REPSWITCH_excgange\REPSWITCH_excgange\data/440202_REPSWITCH1_version2_list2_2024-01-19_14h56.06.787_micRespv2l2_recorded\recording_micRespv2l2_2024-01-19_14h58.01.581.wav,122.789068300277,123.28905330039561,None,122.789068300277,122.789068300277,122.789068300277,122.789068300277,122.789068300277,122.789068300277,,,,,,,440202,001,2024-01-19_14h56.06.787,REPSWITCH1_version2_list2,2022.2.4,143.9924194035269,
REPSWITCH1/PICTURE_135.png,traje,type,gold,nontarget,1,NT,1,3,2,2,Stim3_Set1,1,switch,23,22,23,0,22,22,22,,,,,,,,,,,,,,,,,,,,,,,123.28905330039561,124.31002750061452,124.31002750061452,124.31002750061452,124.31002750061452,124.31002750061452,124.31002750061452,124.31002750061452,124.31002750061452,"['t', 'r', 'a', 'j', 'e']",0,traje,C:\2023\REPSWITCH21092023\REPSWITCH_excgange\REPSWITCH_excgange\data/440202_REPSWITCH1_version2_list2_2024-01-19_14h56.06.787_micRespv2l2_recorded\recording_micRespv2l2_2024-01-19_14h58.06.122.wav,127.33126000035554,127.83131910022348,None,127.33126000035554,127.33126000035554,127.33126000035554,127.33126000035554,127.33126000035554,127.33126000035554,"[1.0454802000895143, 1.185050799511373, 1.330090499483049, 1.6011797999963164, 1.7456586994230747]",,,,,,440202,001,2024-01-19_14h56.06.787,REPSWITCH1_version2_list2,2022.2.4,143.9924194035269,
REPSWITCH1/PICTURE_135.png,traje,type,gold,repeat,1,T,1,3,2,2,Stim3_Set1,0,None,24,23,24,0,23,23,23,,,,,,,,,,,,,,,,,,,,,,,127.83131910022348,128.93564769998193,128.93564769998193,128.93564769998193,128.93564769998193,128.93564769998193,128.93564769998193,128.93564769998193,128.93564769998193,"['t', 'r', 'a', 'j', 'e']",0,traje,C:\2023\REPSWITCH21092023\REPSWITCH_excgange\REPSWITCH_excgange\data/440202_REPSWITCH1_version2_list2_2024-01-19_14h56.06.787_micRespv2l2_recorded\recording_micRespv2l2_2024-01-19_14h58.10.749.wav,131.95682420022786,132.45688990037888,None,131.95682420022786,131.95682420022786,131.95682420022786,131.95682420022786,131.95682420022786,131.95682420022786,"[0.8310495996847749, 0.960606299340725, 1.103094699792564, 1.3562481999397278, 1.4848563997074962]",,,,,,440202,001,2024-01-19_14h56.06.787,REPSWITCH1_version2_list2,2022.2.4,143.9924194035269,
REPSWITCH1/PICTURE_19.png,pavo,type,gold,nontarget,1,NT,1,3,2,2,Stim5_Set1,1,repeat,25,24,25,0,24,24,24,,,,,,,,,,,,,,,,,,,,,,,132.45688990037888,133.62374570034444,133.62374570034444,133.62374570034444,133.62374570034444,133.62374570034444,133.62374570034444,133.62374570034444,133.62374570034444,"['p', 'a', 'v', 'o']",0,pavo,C:\2023\REPSWITCH21092023\REPSWITCH_excgange\REPSWITCH_excgange\data/440202_REPSWITCH1_version2_list2_2024-01-19_14h56.06.787_micRespv2l2_recorded\recording_micRespv2l2_2024-01-19_14h58.15.438.wav,136.65194930043072,137.1519317002967,None,136.65194930043072,136.65194930043072,136.65194930043072,136.65194930043072,136.65194930043072,136.65194930043072,"[1.3949497994035482, 1.6151513997465372, 1.802917799912393, 2.086828399449587]",,,,,,440202,001,2024-01-19_14h56.06.787,REPSWITCH1_version2_list2,2022.2.4,143.9924194035269,
REPSWITCH1/PICTURE_19.png,pavo,speak,darkblue,switch,2,T,1,3,2,2,Stim5_Set1,0,None,26,25,26,0,25,25,25,,,,,,,,,,,,,,,,,,,,,,,137.1519317002967,138.1660636002198,138.1660636002198,138.1660636002198,138.1660636002198,138.1660636002198,138.1660636002198,138.1660636002198,138.1660636002198,None,0,,C:\2023\REPSWITCH21092023\REPSWITCH_excgange\REPSWITCH_excgange\data/440202_REPSWITCH1_version2_list2_2024-01-19_14h56.06.787_micRespv2l2_recorded\recording_micRespv2l2_2024-01-19_14h58.19.980.wav,141.1872626002878,141.68727410025895,None,141.1872626002878,141.1872626002878,141.1872626002878,141.1872626002878,141.1872626002878,141.1872626002878,,,,,,,440202,001,2024-01-19_14h56.06.787,REPSWITCH1_version2_list2,2022.2.4,143.9924194035269,
REPSWITCH1/PICTURE_142.png,vaso,speak,darkblue,filler,2,F,2,3,2,2,Stim7_Set1,0,None,27,26,27,0,26,26,26,,,,,,,,,,,,,,,,,,,,,,,141.68727410025895,142.82638110034168,142.82638110034168,142.82638110034168,142.82638110034168,142.82638110034168,142.82638110034168,142.82638110034168,142.82638110034168,None,0,,C:\2023\REPSWITCH21092023\REPSWITCH_excgange\REPSWITCH_excgange\data/440202_REPSWITCH1_version2_list2_2024-01-19_14h56.06.787_micRespv2l2_recorded\recording_micRespv2l2_2024-01-19_14h58.24.639.wav,145.84754410013556,146.34760079998523,None,145.84754410013556,145.84754410013556,145.84754410013556,145.84754410013556,145.84754410013556,145.84754410013556,,,,,,,440202,001,2024-01-19_14h56.06.787,REPSWITCH1_version2_list2,2022.2.4,143.9924194035269,
REPSWITCH1/PICTURE_135.png,traje,type,gold,filler,1,F,2,3,2,2,Stim3_Set1,0,None,28,27,28,0,27,27,27,,,,,,,,,,,,,,,,,,,,,,,146.34760079998523,147.40331720001996,147.40331720001996,147.40331720001996,147.40331720001996,147.40331720001996,147.40331720001996,147.40331720001996,147.40331720001996,"['t', 'r', 'a', 'j', 'e']",0,traje,C:\2023\REPSWITCH21092023\REPSWITCH_excgange\REPSWITCH_excgange\data/440202_REPSWITCH1_version2_list2_2024-01-19_14h56.06.787_micRespv2l2_recorded\recording_micRespv2l2_2024-01-19_14h58.29.216.wav,150.42459379974753,150.9246609006077,None,150.42459379974753,150.42459379974753,150.42459379974753,150.42459379974753,150.42459379974753,150.42459379974753,"[0.8210049998015165, 0.9534932998940349, 1.0681130001321435, 1.3836714997887611, 1.4885851992294192]",,,,,,440202,001,2024-01-19_14h56.06.787,REPSWITCH1_version2_list2,2022.2.4,143.9924194035269,
REPSWITCH1/PICTURE_446.png,cerdo,type,gold,nontarget,1,NT,2,3,2,2,Stim7_Set2,0,None,29,28,29,0,28,28,28,,,,,,,,,,,,,,,,,,,,,,,150.9246609006077,151.9802999002859,151.9802999002859,151.9802999002859,151.9802999002859,151.9802999002859,151.9802999002859,151.9802999002859,151.9802999002859,"['c', 'e', 'r', 'd', 'o']",0,cerdo,C:\2023\REPSWITCH21092023\REPSWITCH_excgange\REPSWITCH_excgange\data/440202_REPSWITCH1_version2_list2_2024-01-19_14h56.06.787_micRespv2l2_recorded\recording_micRespv2l2_2024-01-19_14h58.33.793.wav,155.00159549992532,155.50158150028437,None,155.00159549992532,155.00159549992532,155.00159549992532,155.00159549992532,155.00159549992532,155.00159549992532,"[0.8894567992538214, 1.0207568993791938, 1.05958469863981, 1.2211076989769936, 1.578986898995936]",,,,,,440202,001,2024-01-19_14h56.06.787,REPSWITCH1_version2_list2,2022.2.4,143.9924194035269,
REPSWITCH1/PICTURE_446.png,cerdo,type,gold,repeat,1,T,2,3,2,2,Stim7_Set2,0,None,30,29,30,0,29,29,29,,,,,,,,,,,,,,,,,,,,,,,155.50158150028437,156.6406291006133,156.6406291006133,156.6406291006133,156.6406291006133,156.6406291006133,156.6406291006133,156.6406291006133,156.6406291006133,"['c', 'e', 'r', 'd', 'o']",0,cerdo,C:\2023\REPSWITCH21092023\REPSWITCH_excgange\REPSWITCH_excgange\data/440202_REPSWITCH1_version2_list2_2024-01-19_14h56.06.787_micRespv2l2_recorded\recording_micRespv2l2_2024-01-19_14h58.38.454.wav,159.6687472006306,,None,159.6687472006306,159.6687472006306,159.6687472006306,159.6687472006306,159.6687472006306,159.6687472006306,"[0.8398837987333536, 0.9709908990189433, 1.0028631994500756, 1.3461724994704127, 1.56848259922117]",,,,,,440202,001,2024-01-19_14h56.06.787,REPSWITCH1_version2_list2,2022.2.4,143.9924194035269,
REPSWITCH1/PICTURE_16.png,cazador,speak,darkblue,filler,2,F,2,3,2,2,Stim6_Set1,0,None,31,30,31,0,30,30,30,,,,,,,,,,,,,,,,,,,,,,,160.16881920024753,161.32179039996117,161.32179039996117,161.32179039996117,161.32179039996117,161.32179039996117,161.32179039996117,161.32179039996117,161.32179039996117,None,0,,C:\2023\REPSWITCH21092023\REPSWITCH_excgange\REPSWITCH_excgange\data/440202_REPSWITCH1_version2_list2_2024-01-19_14h56.06.787_micRespv2l2_recorded\recording_micRespv2l2_2024-01-19_14h58.43.136.wav,164.34991629980505,,None,164.34991629980505,164.34991629980505,164.34991629980505,164.34991629980505,164.34991629980505,164.34991629980505,,,,,,,440202,001,2024-01-19_14h56.06.787,REPSWITCH1_version2_list2,2022.2.4,143.9924194035269,
REPSWITCH1/PICTURE_552.png,manzana,type,gold,nontarget,1,NT,2,3,2,2,Stim6_Set2,1,switch,32,31,32,0,31,31,31,,,,,,,,,,,,,,,,,,,,,,,164.85000890027732,165.90576620027423,165.90576620027423,165.90576620027423,165.90576620027423,165.90576620027423,165.90576620027423,165.90576620027423,165.90576620027423,"['m', 'a', 'n', 'z', 'a', 'n', 'a']",0,manzana,C:\2023\REPSWITCH21092023\REPSWITCH_excgange\REPSWITCH_excgange\data/440202_REPSWITCH1_version2_list2_2024-01-19_14h56.06.787_micRespv2l2_recorded\recording_micRespv2l2_2024-01-19_14h58.47.719.wav,168.9269379004836,169.42698790039867,None,168.9269379004836,168.9269379004836,168.9269379004836,168.9269379004836,168.9269379004836,168.9269379004836,"[1.0532734990119934, 1.1558777987957, 1.2615564987063408, 1.4193106992170215, 1.6146549992263317, 1.7790773995220661, 1.8747803987935185]",,,,,,440202,001,2024-01-19_14h56.06.787,REPSWITCH1_version2_list2,2022.2.4,143.9924194035269,
REPSWITCH1/PICTURE_552.png,manzana,type,gold,repeat,1,T,2,3,2,2,Stim6_Set2,0,None,33,32,33,0,32,32,32,,,,,,,,,,,,,,,,,,,,,,,169.42698790039867,170.62158950045705,170.62158950045705,170.62158950045705,170.62158950045705,170.62158950045705,170.62158950045705,170.62158950045705,170.62158950045705,"['m', 'a', 'n', 'z', 'a', 'n', 'a']",0,manzana,C:\2023\REPSWITCH21092023\REPSWITCH_excgange\REPSWITCH_excgange\data/440202_REPSWITCH1_version2_list2_2024-01-19_14h56.06.787_micRespv2l2_recorded\recording_micRespv2l2_2024-01-19_14h58.52.435.wav,173.6497208001092,,None,173.6497208001092,173.6497208001092,173.6497208001092,173.6497208001092,173.6497208001092,173.6497208001092,"[0.7117384998127818, 0.8412982001900673, 0.9868454001843929, 1.1572383996099234, 1.335155500099063, 1.4129135999828577, 1.5374686000868678]",,,,,,440202,001,2024-01-19_14h56.06.787,REPSWITCH1_version2_list2,2022.2.4,143.9924194035269,
REPSWITCH1/PICTURE_517.png,cuerda,type,gold,nontarget,1,NT,2,3,2,2,Stim4_Set2,0,None,34,33,34,0,33,33,33,,,,,,,,,,,,,,,,,,,,,,,174.14979619998485,175.25417720060796,175.25417720060796,175.25417720060796,175.25417720060796,175.25417720060796,175.25417720060796,175.25417720060796,175.25417720060796,"['c', 'u', 'e', 'r', 'd', 'a']",0,cuerda,C:\2023\REPSWITCH21092023\REPSWITCH_excgange\REPSWITCH_excgange\data/440202_REPSWITCH1_version2_list2_2024-01-19_14h56.06.787_micRespv2l2_recorded\recording_micRespv2l2_2024-01-19_14h58.57.067.wav,178.28236510045826,,None,178.28236510045826,178.28236510045826,178.28236510045826,178.28236510045826,178.28236510045826,178.28236510045826,"[1.0000953990966082, 1.3080996992066503, 1.623531699180603, 1.74017099943012, 1.8760336991399527, 1.9989764988422394]",,,,,,440202,001,2024-01-19_14h56.06.787,REPSWITCH1_version2_list2,2022.2.4,143.9924194035269,
REPSWITCH1/PICTURE_517.png,cuerda,speak,darkblue,switch,2,T,2,3,2,2,Stim4_Set2,0,None,35,34,35,0,34,34,34,,,,,,,,,,,,,,,,,,,,,,,178.78236710000783,179.86586220003664,179.86586220003664,179.86586220003664,179.86586220003664,179.86586220003664,179.86586220003664,179.86586220003664,179.86586220003664,None,0,,C:\2023\REPSWITCH21092023\REPSWITCH_excgange\REPSWITCH_excgange\data/440202_REPSWITCH1_version2_list2_2024-01-19_14h56.06.787_micRespv2l2_recorded\recording_micRespv2l2_2024-01-19_14h59.01.678.wav,182.88707089982927,183.38712800014764,None,182.88707089982927,182.88707089982927,182.88707089982927,182.88707089982927,182.88707089982927,182.88707089982927,,,,,,,440202,001,2024-01-19_14h56.06.787,REPSWITCH1_version2_list2,2022.2.4,143.9924194035269,
REPSWITCH1/PICTURE_169.png,espalda,speak,darkblue,filler,2,F,2,3,2,2,Stim8_Set1,1,repeat,36,35,36,0,35,35,35,,,,,,,,,,,,,,,,,,,,,,,183.38712800014764,184.4914524005726,184.4914524005726,184.4914524005726,184.4914524005726,184.4914524005726,184.4914524005726,184.4914524005726,184.4914524005726,None,0,,C:\2023\REPSWITCH21092023\REPSWITCH_excgange\REPSWITCH_excgange\data/440202_REPSWITCH1_version2_list2_2024-01-19_14h56.06.787_micRespv2l2_recorded\recording_micRespv2l2_2024-01-19_14h59.06.304.wav,187.5127357998863,188.01270479988307,None,187.5127357998863,187.5127357998863,187.5127357998863,187.5127357998863,187.5127357998863,187.5127357998863,,,,,,,440202,001,2024-01-19_14h56.06.787,REPSWITCH1_version2_list2,2022.2.4,143.9924194035269,
REPSWITCH1/PICTURE_30.png,granja,speak,darkblue,nontarget,2,NT,2,3,2,2,Stim5_Set2,1,repeat,37,36,37,0,36,36,36,,,,,,,,,,,,,,,,,,,,,,,188.01270479988307,189.06849069986492,189.06849069986492,189.06849069986492,189.06849069986492,189.06849069986492,189.06849069986492,189.06849069986492,189.06849069986492,None,0,,C:\2023\REPSWITCH21092023\REPSWITCH_excgange\REPSWITCH_excgange\data/440202_REPSWITCH1_version2_list2_2024-01-19_14h56.06.787_micRespv2l2_recorded\recording_micRespv2l2_2024-01-19_14h59.10.882.wav,192.09659039974213,,None,192.09659039974213,192.09659039974213,192.09659039974213,192.09659039974213,192.09659039974213,192.09659039974213,,,,,,,440202,001,2024-01-19_14h56.06.787,REPSWITCH1_version2_list2,2022.2.4,143.9924194035269,
REPSWITCH1/PICTURE_30.png,granja,type,gold,switch,1,T,2,3,2,2,Stim5_Set2,0,None,38,37,38,0,37,37,37,,,,,,,,,,,,,,,,,,,,,,,192.59663460031152,193.7565826997161,193.7565826997161,193.7565826997161,193.7565826997161,193.7565826997161,193.7565826997161,193.7565826997161,193.7565826997161,"['g', 'r', 'a', 'n', 'j', 'a']",0,granja,C:\2023\REPSWITCH21092023\REPSWITCH_excgange\REPSWITCH_excgange\data/440202_REPSWITCH1_version2_list2_2024-01-19_14h56.06.787_micRespv2l2_recorded\recording_micRespv2l2_2024-01-19_14h59.15.570.wav,196.7846753001213,,None,196.7846753001213,196.7846753001213,196.7846753001213,196.7846753001213,196.7846753001213,196.7846753001213,"[1.0560280000790954, 1.2361373994499445, 1.3826751997694373, 1.5830017002299428, 1.750742799602449, 1.8523848000913858]",,,,,,440202,001,2024-01-19_14h56.06.787,REPSWITCH1_version2_list2,2022.2.4,143.9924194035269,
REPSWITCH1/PICTURE_128.png,muñeca,type,gold,filler,1,F,2,3,2,2,Stim4_Set1,1,repeat,39,38,39,0,38,38,38,,,,,,,,,,,,,,,,,,,,,,,197.28473910037428,198.3752377005294,198.3752377005294,198.3752377005294,198.3752377005294,198.3752377005294,198.3752377005294,198.3752377005294,198.3752377005294,"['m', 'u', 'ñ', 'e', 'c', 'a']",0,muñeca,C:\2023\REPSWITCH21092023\REPSWITCH_excgange\REPSWITCH_excgange\data/440202_REPSWITCH1_version2_list2_2024-01-19_14h56.06.787_micRespv2l2_recorded\recording_micRespv2l2_2024-01-19_14h59.20.189.wav,201.40331480000168,201.9034222997725,None,201.40331480000168,201.40331480000168,201.40331480000168,201.40331480000168,201.40331480000168,201.40331480000168,"[0.9560113996267319, 1.1144810998812318, 1.6234860001131892, 1.844098700210452, 2.0267410995438695, 2.1457428000867367]",,,,,,440202,001,2024-01-19_14h56.06.787,REPSWITCH1_version2_list2,2022.2.4,143.9924194035269,
REPSWITCH1/PICTURE_199.png,falda,type,gold,nontarget,1,NT,2,3,2,2,Stim8_Set2,0,None,40,39,40,0,39,39,39,,,,,,,,,,,,,,,,,,,,,,,201.9034222997725,203.03552170004696,203.03552170004696,203.03552170004696,203.03552170004696,203.03552170004696,203.03552170004696,203.03552170004696,203.03552170004696,"['f', 'a', 'l', 'd', 'a']",0,falda,C:\2023\REPSWITCH21092023\REPSWITCH_excgange\REPSWITCH_excgange\data/440202_REPSWITCH1_version2_list2_2024-01-19_14h56.06.787_micRespv2l2_recorded\recording_micRespv2l2_2024-01-19_14h59.24.849.wav,206.06367830000818,,None,206.06367830000818,206.06367830000818,206.06367830000818,206.06367830000818,206.06367830000818,206.06367830000818,"[0.9325615996494889, 1.0810586996376514, 1.3298533000051975, 1.628214799799025, 1.7141301995143294]",,,,,,440202,001,2024-01-19_14h56.06.787,REPSWITCH1_version2_list2,2022.2.4,143.9924194035269,
REPSWITCH1/PICTURE_199.png,falda,speak,darkblue,switch,2,T,2,3,2,2,Stim8_Set2,0,None,41,40,41,0,40,40,40,,,,,,,,,,,,,,,,,,,,,,,206.5637151002884,207.6055351998657,207.6055351998657,207.6055351998657,207.6055351998657,207.6055351998657,207.6055351998657,207.6055351998657,207.6055351998657,None,0,,C:\2023\REPSWITCH21092023\REPSWITCH_excgange\REPSWITCH_excgange\data/440202_REPSWITCH1_version2_list2_2024-01-19_14h56.06.787_micRespv2l2_recorded\recording_micRespv2l2_2024-01-19_14h59.29.419.wav,210.6267534000799,211.12681910023093,None,210.6267534000799,210.6267534000799,210.6267534000799,210.6267534000799,210.6267534000799,210.6267534000799,,,,,,,440202,001,2024-01-19_14h56.06.787,REPSWITCH1_version2_list2,2022.2.4,143.9924194035269,
REPSWITCH1/PICTURE_152.png,caracol,speak,darkblue,nontarget,2,NT,2,3,2,2,Stim2_Set2,1,switch,42,41,42,0,41,41,41,,,,,,,,,,,,,,,,,,,,,,,211.12681910023093,212.23811050038785,212.23811050038785,212.23811050038785,212.23811050038785,212.23811050038785,212.23811050038785,212.23811050038785,212.23811050038785,None,0,,C:\2023\REPSWITCH21092023\REPSWITCH_excgange\REPSWITCH_excgange\data/440202_REPSWITCH1_version2_list2_2024-01-19_14h56.06.787_micRespv2l2_recorded\recording_micRespv2l2_2024-01-19_14h59.34.052.wav,215.26625850051641,,None,215.26625850051641,215.26625850051641,215.26625850051641,215.26625850051641,215.26625850051641,215.26625850051641,,,,,,,440202,001,2024-01-19_14h56.06.787,REPSWITCH1_version2_list2,2022.2.4,143.9924194035269,
REPSWITCH1/PICTURE_152.png,caracol,speak,darkblue,repeat,2,T,2,3,2,2,Stim2_Set2,0,None,43,42,43,0,42,42,42,,,,,,,,,,,,,,,,,,,,,,,215.7662885999307,216.94013349991292,216.94013349991292,216.94013349991292,216.94013349991292,216.94013349991292,216.94013349991292,216.94013349991292,216.94013349991292,None,0,,C:\2023\REPSWITCH21092023\REPSWITCH_excgange\REPSWITCH_excgange\data/440202_REPSWITCH1_version2_list2_2024-01-19_14h56.06.787_micRespv2l2_recorded\recording_micRespv2l2_2024-01-19_14h59.38.754.wav,219.96826179977506,,None,219.96826179977506,219.96826179977506,219.96826179977506,219.96826179977506,219.96826179977506,219.96826179977506,,,,,,,440202,001,2024-01-19_14h56.06.787,REPSWITCH1_version2_list2,2022.2.4,143.9924194035269,
REPSWITCH1/PICTURE_381.png,fresa,type,gold,filler,1,F,2,3,2,2,Stim2_Set1,0,None,44,43,44,0,43,43,43,,,,,,,,,,,,,,,,,,,,,,,220.46832470037043,221.60042580030859,221.60042580030859,221.60042580030859,221.60042580030859,221.60042580030859,221.60042580030859,221.60042580030859,221.60042580030859,"['f', 'r', 'e', 's', 'a']",0,fresa,C:\2023\REPSWITCH21092023\REPSWITCH_excgange\REPSWITCH_excgange\data/440202_REPSWITCH1_version2_list2_2024-01-19_14h56.06.787_micRespv2l2_recorded\recording_micRespv2l2_2024-01-19_14h59.43.413.wav,224.62162260059267,225.1216770997271,None,224.62162260059267,224.62162260059267,224.62162260059267,224.62162260059267,224.62162260059267,224.62162260059267,"[1.075387299992144, 1.2131008999422193, 1.3775434996932745, 1.5120997997000813, 1.6555048003792763]",,,,,,440202,001,2024-01-19_14h56.06.787,REPSWITCH1_version2_list2,2022.2.4,143.9924194035269,
REPSWITCH1/PICTURE_175.png,pintor,speak,darkblue,nontarget,2,NT,2,3,2,2,Stim1_Set2,1,switch,45,44,45,0,44,44,44,,,,,,,,,,,,,,,,,,,,,,,225.1216770997271,226.25376829970628,226.25376829970628,226.25376829970628,226.25376829970628,226.25376829970628,226.25376829970628,226.25376829970628,226.25376829970628,None,0,,C:\2023\REPSWITCH21092023\REPSWITCH_excgange\REPSWITCH_excgange\data/440202_REPSWITCH1_version2_list2_2024-01-19_14h56.06.787_micRespv2l2_recorded\recording_micRespv2l2_2024-01-19_14h59.48.067.wav,229.2819821005687,,None,229.2819821005687,229.2819821005687,229.2819821005687,229.2819821005687,229.2819821005687,229.2819821005687,,,,,,,440202,001,2024-01-19_14h56.06.787,REPSWITCH1_version2_list2,2022.2.4,143.9924194035269,
REPSWITCH1/PICTURE_175.png,pintor,speak,darkblue,repeat,2,T,2,3,2,2,Stim1_Set2,0,None,46,45,46,0,45,45,45,,,,,,,,,,,,,,,,,,,,,,,229.782015199773,230.91412710025907,230.91412710025907,230.91412710025907,230.91412710025907,230.91412710025907,230.91412710025907,230.91412710025907,230.91412710025907,None,0,,C:\2023\REPSWITCH21092023\REPSWITCH_excgange\REPSWITCH_excgange\data/440202_REPSWITCH1_version2_list2_2024-01-19_14h56.06.787_micRespv2l2_recorded\recording_micRespv2l2_2024-01-19_14h59.52.728.wav,233.94235379993916,,None,233.94235379993916,233.94235379993916,233.94235379993916,233.94235379993916,233.94235379993916,233.94235379993916,,,,,,,440202,001,2024-01-19_14h56.06.787,REPSWITCH1_version2_list2,2022.2.4,143.9924194035269,
REPSWITCH1/PICTURE_178.png,puente,type,gold,filler,1,F,2,3,2,2,Stim1_Set1,0,None,47,46,47,0,46,46,46,,,,,,,,,,,,,,,,,,,,,,,234.44234000053257,235.59526440035552,235.59526440035552,235.59526440035552,235.59526440035552,235.59526440035552,235.59526440035552,235.59526440035552,235.59526440035552,"['p', 'u', 'e', 'n', 't', 'e']",0,puente,C:\2023\REPSWITCH21092023\REPSWITCH_excgange\REPSWITCH_excgange\data/440202_REPSWITCH1_version2_list2_2024-01-19_14h56.06.787_micRespv2l2_recorded\recording_micRespv2l2_2024-01-19_14h59.57.408.wav,238.61651210021228,239.11656269989908,None,238.61651210021228,238.61651210021228,238.61651210021228,238.61651210021228,238.61651210021228,238.61651210021228,"[1.0151124997064471, 1.2921821996569633, 1.4915052996948361, 1.6180834993720055, 1.820351899601519, 1.9230488995090127]",,,,,,440202,001,2024-01-19_14h56.06.787,REPSWITCH1_version2_list2,2022.2.4,143.9924194035269,
REPSWITCH1/PICTURE_19.png,pavo,speak,darkblue,filler,2,F,2,3,2,2,Stim5_Set1,0,None,48,47,48,0,47,47,47,,,,,,,,,,,,,,,,,,,,,,,239.11656269989908,240.318143799901,240.318143799901,240.318143799901,240.318143799901,240.318143799901,240.318143799901,240.318143799901,240.318143799901,None,0,,C:\2023\REPSWITCH21092023\REPSWITCH_excgange\REPSWITCH_excgange\data/440202_REPSWITCH1_version2_list2_2024-01-19_14h56.06.787_micRespv2l2_recorded\recording_micRespv2l2_2024-01-19_15h00.02.132.wav,243.34628599975258,,None,243.34628599975258,243.34628599975258,243.34628599975258,243.34628599975258,243.34628599975258,243.34628599975258,,,,,,,440202,001,2024-01-19_14h56.06.787,REPSWITCH1_version2_list2,2022.2.4,143.9924194035269,
REPSWITCH1/PICTURE_264.png,mano,speak,darkblue,nontarget,2,NT,2,3,2,2,Stim3_Set2,1,repeat,49,48,49,0,48,48,48,,,,,,,,,,,,,,,,,,,,,,,243.84642999991775,244.90896920021623,244.90896920021623,244.90896920021623,244.90896920021623,244.90896920021623,244.90896920021623,244.90896920021623,244.90896920021623,None,0,,C:\2023\REPSWITCH21092023\REPSWITCH_excgange\REPSWITCH_excgange\data/440202_REPSWITCH1_version2_list2_2024-01-19_14h56.06.787_micRespv2l2_recorded\recording_micRespv2l2_2024-01-19_15h00.06.722.wav,247.93017579987645,248.43027400039136,None,247.93017579987645,247.93017579987645,247.93017579987645,247.93017579987645,247.93017579987645,247.93017579987645,,,,,,,440202,001,2024-01-19_14h56.06.787,REPSWITCH1_version2_list2,2022.2.4,143.9924194035269,
REPSWITCH1/PICTURE_264.png,mano,type,gold,switch,1,T,2,3,2,2,Stim3_Set2,0,None,50,49,50,0,49,49,49,,,,,,,,,,,,,,,,,,,,,,,248.43027400039136,249.5554509004578,249.5554509004578,249.5554509004578,249.5554509004578,249.5554509004578,249.5554509004578,249.5554509004578,249.5554509004578,"['m', 'a', 'n', 'o']",0,mano,C:\2023\REPSWITCH21092023\REPSWITCH_excgange\REPSWITCH_excgange\data/440202_REPSWITCH1_version2_list2_2024-01-19_14h56.06.787_micRespv2l2_recorded\recording_micRespv2l2_2024-01-19_15h00.11.368.wav,252.57664209976792,253.07669440004975,None,252.57664209976792,252.57664209976792,252.57664209976792,252.57664209976792,252.57664209976792,252.57664209976792,"[0.8891533995047212, 1.02771329972893, 1.1044163992628455, 1.2709052991122007]",,,,,,440202,001,2024-01-19_14h56.06.787,REPSWITCH1_version2_list2,2022.2.4,143.9924194035269,
REPSWITCH1/PICTURE_446.png,cerdo,type,gold,filler,1,F,3,3,2,2,Stim7_Set2,0,None,51,50,51,0,50,50,50,,,,,,,,,,,,,,,,,,,,,,,253.07669440004975,254.19496429990977,254.19496429990977,254.19496429990977,254.19496429990977,254.19496429990977,254.19496429990977,254.19496429990977,254.19496429990977,"['c', 'e', 'r', 'd', 'o']",0,cerdo,C:\2023\REPSWITCH21092023\REPSWITCH_excgange\REPSWITCH_excgange\data/440202_REPSWITCH1_version2_list2_2024-01-19_14h56.06.787_micRespv2l2_recorded\recording_micRespv2l2_2024-01-19_15h00.16.008.wav,257.2230882002041,,space,257.2230882002041,257.2230882002041,257.2230882002041,257.2230882002041,257.2230882002041,257.2230882002041,"[0.9616228993982077, 1.0741736991330981, 1.1120111988857388, 1.3283311994746327, 1.5425778990611434]",257.72314629983157,257.72314629983157,16.751181099563837,,,440202,001,2024-01-19_14h56.06.787,REPSWITCH1_version2_list2,2022.2.4,143.9924194035269,
REPSWITCH1/PICTURE_235.png,aguja,type,gold,nontarget,1,NT,3,3,2,2,Stim4_Set3,1,repeat,52,51,52,0,51,51,51,,,,,,,,,,,,,,,,,,,,,,,274.4822559999302,275.5796843999997,275.5796843999997,275.5796843999997,275.5796843999997,275.5796843999997,275.5796843999997,275.5796843999997,275.5796843999997,"['a', 'g', 'u', 'j', 'a']",0,aguja,C:\2023\REPSWITCH21092023\REPSWITCH_excgange\REPSWITCH_excgange\data/440202_REPSWITCH1_version2_list2_2024-01-19_14h56.06.787_micRespv2l2_recorded\recording_micRespv2l2_2024-01-19_15h00.37.393.wav,278.60082930047065,279.1008922001347,None,278.60082930047065,278.60082930047065,278.60082930047065,278.60082930047065,278.60082930047065,278.60082930047065,"[0.9803980998694897, 1.2507964000105858, 1.468792200088501, 1.643479099497199, 1.7633900996297598]",,,,,,440202,001,2024-01-19_14h56.06.787,REPSWITCH1_version2_list2,2022.2.4,143.9924194035269,
REPSWITCH1/PICTURE_235.png,aguja,speak,darkblue,switch,2,T,3,3,2,2,Stim4_Set3,0,None,53,52,53,0,52,52,52,,,,,,,,,,,,,,,,,,,,,,,279.1008922001347,280.16361260041595,280.16361260041595,280.16361260041595,280.16361260041595,280.16361260041595,280.16361260041595,280.16361260041595,280.16361260041595,None,0,,C:\2023\REPSWITCH21092023\REPSWITCH_excgange\REPSWITCH_excgange\data/440202_REPSWITCH1_version2_list2_2024-01-19_14h56.06.787_micRespv2l2_recorded\recording_micRespv2l2_2024-01-19_15h00.41.977.wav,283.1847427999601,283.6848157001659,None,283.1847427999601,283.1847427999601,283.1847427999601,283.1847427999601,283.1847427999601,283.1847427999601,,,,,,,440202,001,2024-01-19_14h56.06.787,REPSWITCH1_version2_list2,2022.2.4,143.9924194035269,
REPSWITCH1/PICTURE_552.png,manzana,speak,darkblue,filler,2,F,3,3,2,2,Stim6_Set2,0,None,54,53,54,0,53,53,53,,,,,,,,,,,,,,,,,,,,,,,283.6848157001659,284.7822187002748,284.7822187002748,284.7822187002748,284.7822187002748,284.7822187002748,284.7822187002748,284.7822187002748,284.7822187002748,None,0,,C:\2023\REPSWITCH21092023\REPSWITCH_excgange\REPSWITCH_excgange\data/440202_REPSWITCH1_version2_list2_2024-01-19_14h56.06.787_micRespv2l2_recorded\recording_micRespv2l2_2024-01-19_15h00.46.596.wav,287.8103815000504,,None,287.8103815000504,287.8103815000504,287.8103815000504,287.8103815000504,287.8103815000504,287.8103815000504,,,,,,,440202,001,2024-01-19_14h56.06.787,REPSWITCH1_version2_list2,2022.2.4,143.9924194035269,
REPSWITCH1/PICTURE_271.png,conejo,speak,darkblue,nontarget,2,NT,3,3,2,2,Stim7_Set3,1,repeat,55,54,55,0,54,54,54,,,,,,,,,,,,,,,,,,,,,,,288.3104352997616,289.39389200042933,289.39389200042933,289.39389200042933,289.39389200042933,289.39389200042933,289.39389200042933,289.39389200042933,289.39389200042933,None,0,,C:\2023\REPSWITCH21092023\REPSWITCH_excgange\REPSWITCH_excgange\data/440202_REPSWITCH1_version2_list2_2024-01-19_14h56.06.787_micRespv2l2_recorded\recording_micRespv2l2_2024-01-19_15h00.51.207.wav,292.4151130001992,292.91520230006427,None,292.4151130001992,292.4151130001992,292.4151130001992,292.4151130001992,292.4151130001992,292.4151130001992,,,,,,,440202,001,2024-01-19_14h56.06.787,REPSWITCH1_version2_list2,2022.2.4,143.9924194035269,
REPSWITCH1/PICTURE_271.png,conejo,type,gold,switch,1,T,3,3,2,2,Stim7_Set3,0,None,56,55,56,0,55,55,55,,,,,,,,,,,,,,,,,,,,,,,292.91520230006427,293.998656200245,293.998656200245,293.998656200245,293.998656200245,293.998656200245,293.998656200245,293.998656200245,293.998656200245,"['c', 'o', 'n', 'e', 'j', 'o']",0,conejo,C:\2023\REPSWITCH21092023\REPSWITCH_excgange\REPSWITCH_excgange\data/440202_REPSWITCH1_version2_list2_2024-01-19_14h56.06.787_micRespv2l2_recorded\recording_micRespv2l2_2024-01-19_15h00.55.812.wav,297.02682030014694,,None,297.02682030014694,297.02682030014694,297.02682030014694,297.02682030014694,297.02682030014694,297.02682030014694,"[0.8630538992583752, 1.0842966986820102, 1.293584299273789, 1.5032896995544434, 1.7036076989024878, 1.9338450990617275]",,,,,,440202,001,2024-01-19_14h56.06.787,REPSWITCH1_version2_list2,2022.2.4,143.9924194035269,
REPSWITCH1/PICTURE_610.png,miel,type,gold,nontarget,1,NT,3,3,2,2,Stim2_Set3,1,repeat,57,56,57,0,56,56,56,,,,,,,,,,,,,,,,,,,,,,,297.52689759992063,298.65212630014867,298.65212630014867,298.65212630014867,298.65212630014867,298.65212630014867,298.65212630014867,298.65212630014867,298.65212630014867,"['m', 'i', 'e', 'l']",0,miel,C:\2023\REPSWITCH21092023\REPSWITCH_excgange\REPSWITCH_excgange\data/440202_REPSWITCH1_version2_list2_2024-01-19_14h56.06.787_micRespv2l2_recorded\recording_micRespv2l2_2024-01-19_15h01.00.465.wav,301.68022389989346,,None,301.68022389989346,301.68022389989346,301.68022389989346,301.68022389989346,301.68022389989346,301.68022389989346,"[0.9548814995214343, 1.0815492989495397, 1.3006342994049191, 1.4820086993277073]",,,,,,440202,001,2024-01-19_14h56.06.787,REPSWITCH1_version2_list2,2022.2.4,143.9924194035269,
REPSWITCH1/PICTURE_610.png,miel,speak,darkblue,switch,2,T,3,3,2,2,Stim2_Set3,0,None,58,57,58,0,57,57,57,,,,,,,,,,,,,,,,,,,,,,,302.1802650997415,303.3054947005585,303.3054947005585,303.3054947005585,303.3054947005585,303.3054947005585,303.3054947005585,303.3054947005585,303.3054947005585,None,0,,C:\2023\REPSWITCH21092023\REPSWITCH_excgange\REPSWITCH_excgange\data/440202_REPSWITCH1_version2_list2_2024-01-19_14h56.06.787_micRespv2l2_recorded\recording_micRespv2l2_2024-01-19_15h01.05.118.wav,306.32663669995964,306.82669949997216,None,306.32663669995964,306.32663669995964,306.32663669995964,306.32663669995964,306.32663669995964,306.32663669995964,,,,,,,440202,001,2024-01-19_14h56.06.787,REPSWITCH1_version2_list2,2022.2.4,143.9924194035269,
REPSWITCH1/PICTURE_199.png,falda,type,gold,filler,1,F,3,3,2,2,Stim8_Set2,0,None,59,58,59,0,58,58,58,,,,,,,,,,,,,,,,,,,,,,,306.82669949997216,307.91715670004487,307.91715670004487,307.91715670004487,307.91715670004487,307.91715670004487,307.91715670004487,307.91715670004487,307.91715670004487,"['f', 'a', 'l', 'd', 'a']",0,falda,C:\2023\REPSWITCH21092023\REPSWITCH_excgange\REPSWITCH_excgange\data/440202_REPSWITCH1_version2_list2_2024-01-19_14h56.06.787_micRespv2l2_recorded\recording_micRespv2l2_2024-01-19_15h01.09.731.wav,310.94538869988173,,None,310.94538869988173,310.94538869988173,310.94538869988173,310.94538869988173,310.94538869988173,310.94538869988173,"[1.1026081992313266, 1.2756816996261477, 1.5405718991532922, 1.7324629994109273, 1.9799187993630767]",,,,,,440202,001,2024-01-19_14h56.06.787,REPSWITCH1_version2_list2,2022.2.4,143.9924194035269,
REPSWITCH1/PICTURE_464.png,goma,speak,darkblue,nontarget,2,NT,3,3,2,2,Stim6_Set3,1,switch,60,59,60,0,59,59,59,,,,,,,,,,,,,,,,,,,,,,,311.4454586999491,312.6469176998362,312.6469176998362,312.6469176998362,312.6469176998362,312.6469176998362,312.6469176998362,312.6469176998362,312.6469176998362,None,0,,C:\2023\REPSWITCH21092023\REPSWITCH_excgange\REPSWITCH_excgange\data/440202_REPSWITCH1_version2_list2_2024-01-19_14h56.06.787_micRespv2l2_recorded\recording_micRespv2l2_2024-01-19_15h01.14.461.wav,315.67506780009717,,None,315.67506780009717,315.67506780009717,315.67506780009717,315.67506780009717,315.67506780009717,315.67506780009717,,,,,,,440202,001,2024-01-19_14h56.06.787,REPSWITCH1_version2_list2,2022.2.4,143.9924194035269,
REPSWITCH1/PICTURE_464.png,goma,speak,darkblue,repeat,2,T,3,3,2,2,Stim6_Set3,0,None,61,60,61,0,60,60,60,,,,,,,,,,,,,,,,,,,,,,,316.17514219973236,317.2864904003218,317.2864904003218,317.2864904003218,317.2864904003218,317.2864904003218,317.2864904003218,317.2864904003218,317.2864904003218,None,0,,C:\2023\REPSWITCH21092023\REPSWITCH_excgange\REPSWITCH_excgange\data/440202_REPSWITCH1_version2_list2_2024-01-19_14h56.06.787_micRespv2l2_recorded\recording_micRespv2l2_2024-01-19_15h01.19.100.wav,320.30765330046415,320.8076756997034,None,320.30765330046415,320.30765330046415,320.30765330046415,320.30765330046415,320.30765330046415,320.30765330046415,,,,,,,440202,001,2024-01-19_14h56.06.787,REPSWITCH1_version2_list2,2022.2.4,143.9924194035269,
REPSWITCH1/PICTURE_152.png,caracol,type,gold,filler,1,F,3,3,2,2,Stim2_Set2,0,None,62,61,62,0,61,61,61,,,,,,,,,,,,,,,,,,,,,,,320.8076756997034,321.96762830019,321.96762830019,321.96762830019,321.96762830019,321.96762830019,321.96762830019,321.96762830019,321.96762830019,"['c', 'a', 'r', 'c', 'o', 'l']",0,carcol,C:\2023\REPSWITCH21092023\REPSWITCH_excgange\REPSWITCH_excgange\data/440202_REPSWITCH1_version2_list2_2024-01-19_14h56.06.787_micRespv2l2_recorded\recording_micRespv2l2_2024-01-19_15h01.23.780.wav,324.98885140009224,325.48884010035545,None,324.98885140009224,324.98885140009224,324.98885140009224,324.98885140009224,324.98885140009224,324.98885140009224,"[0.9381742998957634, 1.0946805998682976, 1.1694232998415828, 1.3548011993989348, 1.7674228996038437, 1.9108436992391944]",,,,,,440202,001,2024-01-19_14h56.06.787,REPSWITCH1_version2_list2,2022.2.4,143.9924194035269,
REPSWITCH1/PICTURE_320.png,iglesia,speak,darkblue,nontarget,2,NT,3,3,2,2,Stim8_Set3,1,switch,63,62,63,0,62,62,62,,,,,,,,,,,,,,,,,,,,,,,325.48884010035545,326.5306628998369,326.5306628998369,326.5306628998369,326.5306628998369,326.5306628998369,326.5306628998369,326.5306628998369,326.5306628998369,None,0,,C:\2023\REPSWITCH21092023\REPSWITCH_excgange\REPSWITCH_excgange\data/440202_REPSWITCH1_version2_list2_2024-01-19_14h56.06.787_micRespv2l2_recorded\recording_micRespv2l2_2024-01-19_15h01.28.344.wav,329.55879489984363,,None,329.55879489984363,329.55879489984363,329.55879489984363,329.55879489984363,329.55879489984363,329.55879489984363,,,,,,,440202,001,2024-01-19_14h56.06.787,REPSWITCH1_version2_list2,2022.2.4,143.9924194035269,
REPSWITCH1/PICTURE_320.png,iglesia,speak,darkblue,repeat,2,T,3,3,2,2,Stim8_Set3,0,None,64,63,64,0,63,63,63,,,,,,,,,,,,,,,,,,,,,,,330.0589644005522,331.2118485001847,331.2118485001847,331.2118485001847,331.2118485001847,331.2118485001847,331.2118485001847,331.2118485001847,331.2118485001847,None,0,,C:\2023\REPSWITCH21092023\REPSWITCH_excgange\REPSWITCH_excgange\data/440202_REPSWITCH1_version2_list2_2024-01-19_14h56.06.787_micRespv2l2_recorded\recording_micRespv2l2_2024-01-19_15h01.33.025.wav,334.23301590047777,334.7331130998209,None,334.23301590047777,334.23301590047777,334.23301590047777,334.23301590047777,334.23301590047777,334.23301590047777,,,,,,,440202,001,2024-01-19_14h56.06.787,REPSWITCH1_version2_list2,2022.2.4,143.9924194035269,
REPSWITCH1/PICTURE_35.png,oreja,speak,darkblue,nontarget,2,NT,3,3,2,2,Stim5_Set3,0,None,65,64,65,0,64,64,64,,,,,,,,,,,,,,,,,,,,,,,334.7331130998209,335.8374297004193,335.8374297004193,335.8374297004193,335.8374297004193,335.8374297004193,335.8374297004193,335.8374297004193,335.8374297004193,None,0,,C:\2023\REPSWITCH21092023\REPSWITCH_excgange\REPSWITCH_excgange\data/440202_REPSWITCH1_version2_list2_2024-01-19_14h56.06.787_micRespv2l2_recorded\recording_micRespv2l2_2024-01-19_15h01.37.651.wav,338.8655861001462,,None,338.8655861001462,338.8655861001462,338.8655861001462,338.8655861001462,338.8655861001462,338.8655861001462,,,,,,,440202,001,2024-01-19_14h56.06.787,REPSWITCH1_version2_list2,2022.2.4,143.9924194035269,
REPSWITCH1/PICTURE_35.png,oreja,type,gold,switch,1,T,3,3,2,2,Stim5_Set3,0,None,66,65,66,0,65,65,65,,,,,,,,,,,,,,,,,,,,,,,339.36562940012664,340.4977548997849,340.4977548997849,340.4977548997849,340.4977548997849,340.4977548997849,340.4977548997849,340.4977548997849,340.4977548997849,"['o', 'r', 'e', 'j', 'a']",0,oreja,C:\2023\REPSWITCH21092023\REPSWITCH_excgange\REPSWITCH_excgange\data/440202_REPSWITCH1_version2_list2_2024-01-19_14h56.06.787_micRespv2l2_recorded\recording_micRespv2l2_2024-01-19_15h01.42.311.wav,343.52591570001096,,None,343.52591570001096,343.52591570001096,343.52591570001096,343.52591570001096,343.52591570001096,343.52591570001096,"[0.919090399518609, 1.2463595997542143, 1.413022800348699, 1.675149000249803, 1.8425831999629736]",,,,,,440202,001,2024-01-19_14h56.06.787,REPSWITCH1_version2_list2,2022.2.4,143.9924194035269,
REPSWITCH1/PICTURE_517.png,cuerda,speak,darkblue,filler,2,F,3,3,2,2,Stim4_Set2,0,None,67,66,67,0,66,66,66,,,,,,,,,,,,,,,,,,,,,,,344.02604939974844,345.26924190018326,345.26924190018326,345.26924190018326,345.26924190018326,345.26924190018326,345.26924190018326,345.26924190018326,345.26924190018326,None,0,,C:\2023\REPSWITCH21092023\REPSWITCH_excgange\REPSWITCH_excgange\data/440202_REPSWITCH1_version2_list2_2024-01-19_14h56.06.787_micRespv2l2_recorded\recording_micRespv2l2_2024-01-19_15h01.47.083.wav,348.2973688002676,,None,348.2973688002676,348.2973688002676,348.2973688002676,348.2973688002676,348.2973688002676,348.2973688002676,,,,,,,440202,001,2024-01-19_14h56.06.787,REPSWITCH1_version2_list2,2022.2.4,143.9924194035269,
REPSWITCH1/PICTURE_30.png,granja,type,gold,filler,1,F,3,3,2,2,Stim5_Set2,1,switch,68,67,68,0,67,67,67,,,,,,,,,,,,,,,,,,,,,,,348.79743050038815,349.9295324999839,349.9295324999839,349.9295324999839,349.9295324999839,349.9295324999839,349.9295324999839,349.9295324999839,349.9295324999839,"['g', 'r', 'a', 'n', 'j', 'a']",0,granja,C:\2023\REPSWITCH21092023\REPSWITCH_excgange\REPSWITCH_excgange\data/440202_REPSWITCH1_version2_list2_2024-01-19_14h56.06.787_micRespv2l2_recorded\recording_micRespv2l2_2024-01-19_15h01.51.743.wav,352.95766909979284,,None,352.95766909979284,352.95766909979284,352.95766909979284,352.95766909979284,352.95766909979284,352.95766909979284,"[1.0261062001809478, 1.191589799709618, 1.3678211001679301, 1.5600354997441173, 1.7033436000347137, 1.7750987000763416]",,,,,,440202,001,2024-01-19_14h56.06.787,REPSWITCH1_version2_list2,2022.2.4,143.9924194035269,
REPSWITCH1/PICTURE_242.png,cartero,type,gold,nontarget,1,NT,3,3,2,2,Stim3_Set3,0,None,69,68,69,0,68,68,68,,,,,,,,,,,,,,,,,,,,,,,353.4577294001356,354.5898478999734,354.5898478999734,354.5898478999734,354.5898478999734,354.5898478999734,354.5898478999734,354.5898478999734,354.5898478999734,"['c', 'a', 'r', 't', 'e', 'r', 'o']",0,cartero,C:\2023\REPSWITCH21092023\REPSWITCH_excgange\REPSWITCH_excgange\data/440202_REPSWITCH1_version2_list2_2024-01-19_14h56.06.787_micRespv2l2_recorded\recording_micRespv2l2_2024-01-19_15h01.56.403.wav,357.6110733002424,358.11113820038736,None,357.6110733002424,357.6110733002424,357.6110733002424,357.6110733002424,357.6110733002424,357.6110733002424,"[0.890332099981606, 1.0218183994293213, 1.0806348994374275, 1.2281372994184494, 1.353710100054741, 1.4623400000855327, 1.7733153998851776]",,,,,,440202,001,2024-01-19_14h56.06.787,REPSWITCH1_version2_list2,2022.2.4,143.9924194035269,
REPSWITCH1/PICTURE_242.png,cartero,type,gold,repeat,1,T,3,3,2,2,Stim3_Set3,0,None,70,69,70,0,69,69,69,,,,,,,,,,,,,,,,,,,,,,,358.11113820038736,359.2154676001519,359.2154676001519,359.2154676001519,359.2154676001519,359.2154676001519,359.2154676001519,359.2154676001519,359.2154676001519,"['c', 'a', 'r', 't', 'e', 'r', 'o']",0,cartero,C:\2023\REPSWITCH21092023\REPSWITCH_excgange\REPSWITCH_excgange\data/440202_REPSWITCH1_version2_list2_2024-01-19_14h56.06.787_micRespv2l2_recorded\recording_micRespv2l2_2024-01-19_15h02.01.028.wav,362.236633900553,362.7367059998214,None,362.236633900553,362.236633900553,362.236633900553,362.236633900553,362.236633900553,362.236633900553,"[0.7639071997255087, 0.87041449919343, 0.9281603991985321, 1.0785773992538452, 1.2110325992107391, 1.4582471996545792, 1.6724916994571686]",,,,,,440202,001,2024-01-19_14h56.06.787,REPSWITCH1_version2_list2,2022.2.4,143.9924194035269,
REPSWITCH1/PICTURE_264.png,mano,speak,darkblue,filler,2,F,3,3,2,2,Stim3_Set2,1,switch,71,70,71,0,70,70,70,,,,,,,,,,,,,,,,,,,,,,,362.7367059998214,363.7785694003105,363.7785694003105,363.7785694003105,363.7785694003105,363.7785694003105,363.7785694003105,363.7785694003105,363.7785694003105,None,0,,C:\2023\REPSWITCH21092023\REPSWITCH_excgange\REPSWITCH_excgange\data/440202_REPSWITCH1_version2_list2_2024-01-19_14h56.06.787_micRespv2l2_recorded\recording_micRespv2l2_2024-01-19_15h02.05.592.wav,366.79973470047116,367.29978400003165,None,366.79973470047116,366.79973470047116,366.79973470047116,366.79973470047116,366.79973470047116,366.79973470047116,,,,,,,440202,001,2024-01-19_14h56.06.787,REPSWITCH1_version2_list2,2022.2.4,143.9924194035269,
REPSWITCH1/PICTURE_576.png,guante,type,gold,nontarget,1,NT,3,3,2,2,Stim1_Set3,1,switch,72,71,72,0,71,71,71,,,,,,,,,,,,,,,,,,,,,,,367.29978400003165,368.5014315005392,368.5014315005392,368.5014315005392,368.5014315005392,368.5014315005392,368.5014315005392,368.5014315005392,368.5014315005392,"['g', 'u', 'a', 'n', 't', 'e']",0,guante,C:\2023\REPSWITCH21092023\REPSWITCH_excgange\REPSWITCH_excgange\data/440202_REPSWITCH1_version2_list2_2024-01-19_14h56.06.787_micRespv2l2_recorded\recording_micRespv2l2_2024-01-19_15h02.10.315.wav,371.5225935000926,372.02270390000194,None,371.5225935000926,371.5225935000926,371.5225935000926,371.5225935000926,371.5225935000926,371.5225935000926,"[1.1048700995743275, 1.3502864995971322, 1.4659334989264607, 1.5715921996161342, 1.764028899371624, 1.8796355994418263]",,,,,,440202,001,2024-01-19_14h56.06.787,REPSWITCH1_version2_list2,2022.2.4,143.9924194035269,
REPSWITCH1/PICTURE_576.png,guante,type,gold,repeat,1,T,3,3,2,2,Stim1_Set3,0,None,73,72,73,0,72,72,72,,,,,,,,,,,,,,,,,,,,,,,372.02270390000194,373.07142050005496,373.07142050005496,373.07142050005496,373.07142050005496,373.07142050005496,373.07142050005496,373.07142050005496,373.07142050005496,"['g', 'u', 'a', 'n', 't', 'e']",0,guante,C:\2023\REPSWITCH21092023\REPSWITCH_excgange\REPSWITCH_excgange\data/440202_REPSWITCH1_version2_list2_2024-01-19_14h56.06.787_micRespv2l2_recorded\recording_micRespv2l2_2024-01-19_15h02.14.884.wav,376.099577200599,,None,376.099577200599,376.099577200599,376.099577200599,376.099577200599,376.099577200599,376.099577200599,"[0.8451908994466066, 1.0036660991609097, 1.1296322997659445, 1.648348799906671, 1.8267570994794369, 1.9431968992576003]",,,,,,440202,001,2024-01-19_14h56.06.787,REPSWITCH1_version2_list2,2022.2.4,143.9924194035269,
REPSWITCH1/PICTURE_175.png,pintor,speak,darkblue,filler,2,F,3,3,2,2,Stim1_Set2,0,None,74,73,74,0,73,73,73,,,,,,,,,,,,,,,,,,,,,,,376.5995982000604,377.77339840028435,377.77339840028435,377.77339840028435,377.77339840028435,377.77339840028435,377.77339840028435,377.77339840028435,377.77339840028435,None,0,,C:\2023\REPSWITCH21092023\REPSWITCH_excgange\REPSWITCH_excgange\data/440202_REPSWITCH1_version2_list2_2024-01-19_14h56.06.787_micRespv2l2_recorded\recording_micRespv2l2_2024-01-19_15h02.19.587.wav,380.8015673002228,,None,380.8015673002228,380.8015673002228,380.8015673002228,380.8015673002228,380.8015673002228,380.8015673002228,,,,,,,440202,001,2024-01-19_14h56.06.787,REPSWITCH1_version2_list2,2022.2.4,143.9924194035269,
REPSWITCH1/PICTURE_498.png,taza,type,gold,nontarget,1,NT,4,3,2,2,Stim4_Set4,0,None,75,74,75,0,74,74,74,,,,,,,,,,,,,,,,,,,,,,,381.30161179974675,382.392040300183,382.392040300183,382.392040300183,382.392040300183,382.392040300183,382.392040300183,382.392040300183,382.392040300183,"['t', 'a', 'z', 'a']",0,taza,C:\2023\REPSWITCH21092023\REPSWITCH_excgange\REPSWITCH_excgange\data/440202_REPSWITCH1_version2_list2_2024-01-19_14h56.06.787_micRespv2l2_recorded\recording_micRespv2l2_2024-01-19_15h02.24.205.wav,385.4132548002526,385.91334099974483,None,385.4132548002526,385.4132548002526,385.4132548002526,385.4132548002526,385.4132548002526,385.4132548002526,"[0.8436447000131011, 0.9651985000818968, 1.1786040998995304, 1.3642301000654697]",,,,,,440202,001,2024-01-19_14h56.06.787,REPSWITCH1_version2_list2,2022.2.4,143.9924194035269,
REPSWITCH1/PICTURE_498.png,taza,type,gold,repeat,1,T,4,3,2,2,Stim4_Set4,0,None,76,75,76,0,75,75,75,,,,,,,,,,,,,,,,,,,,,,,385.91334099974483,387.05934150051326,387.05934150051326,387.05934150051326,387.05934150051326,387.05934150051326,387.05934150051326,387.05934150051326,387.05934150051326,"['t', 'a', 'x', 'backspace', 'z', 'a']",0,taza,C:\2023\REPSWITCH21092023\REPSWITCH_excgange\REPSWITCH_excgange\data/440202_REPSWITCH1_version2_list2_2024-01-19_14h56.06.787_micRespv2l2_recorded\recording_micRespv2l2_2024-01-19_15h02.28.873.wav,390.0874914005399,,None,390.0874914005399,390.0874914005399,390.0874914005399,390.0874914005399,390.0874914005399,390.0874914005399,"[0.8935842998325825, 1.032121499069035, 1.1606522994115949, 1.8045317996293306, 1.9521311996504664, 2.131509899161756]",,,,,,440202,001,2024-01-19_14h56.06.787,REPSWITCH1_version2_list2,2022.2.4,143.9924194035269,
REPSWITCH1/PICTURE_235.png,aguja,speak,darkblue,filler,2,F,4,3,2,2,Stim4_Set3,0,None,77,76,77,0,76,76,76,,,,,,,,,,,,,,,,,,,,,,,390.5875417003408,391.7404688997194,391.7404688997194,391.7404688997194,391.7404688997194,391.7404688997194,391.7404688997194,391.7404688997194,391.7404688997194,None,0,,C:\2023\REPSWITCH21092023\REPSWITCH_excgange\REPSWITCH_excgange\data/440202_REPSWITCH1_version2_list2_2024-01-19_14h56.06.787_micRespv2l2_recorded\recording_micRespv2l2_2024-01-19_15h02.33.554.wav,394.76861559972167,,None,394.76861559972167,394.76861559972167,394.76861559972167,394.76861559972167,394.76861559972167,394.76861559972167,,,,,,,440202,001,2024-01-19_14h56.06.787,REPSWITCH1_version2_list2,2022.2.4,143.9924194035269,
REPSWITCH1/PICTURE_338.png,regalo,type,gold,nontarget,1,NT,4,3,2,2,Stim6_Set4,1,switch,78,77,78,0,77,77,77,,,,,,,,,,,,,,,,,,,,,,,395.26876839995384,396.34525869973004,396.34525869973004,396.34525869973004,396.34525869973004,396.34525869973004,396.34525869973004,396.34525869973004,396.34525869973004,"['r', 'e', 'g', 'a', 'l', 'o']",0,regalo,C:\2023\REPSWITCH21092023\REPSWITCH_excgange\REPSWITCH_excgange\data/440202_REPSWITCH1_version2_list2_2024-01-19_14h56.06.787_micRespv2l2_recorded\recording_micRespv2l2_2024-01-19_15h02.38.158.wav,399.3664327999577,399.8665335997939,None,399.3664327999577,399.3664327999577,399.3664327999577,399.3664327999577,399.3664327999577,399.3664327999577,"[0.8925794996321201, 1.0400773994624615, 1.1636749003082514, 1.3638043003156781, 1.597371299751103, 1.7211755001917481]",,,,,,440202,001,2024-01-19_14h56.06.787,REPSWITCH1_version2_list2,2022.2.4,143.9924194035269,
REPSWITCH1/PICTURE_338.png,regalo,speak,darkblue,switch,2,T,4,3,2,2,Stim6_Set4,0,None,79,78,79,0,78,78,78,,,,,,,,,,,,,,,,,,,,,,,399.8665335997939,400.9430870003998,400.9430870003998,400.9430870003998,400.9430870003998,400.9430870003998,400.9430870003998,400.9430870003998,400.9430870003998,None,0,,C:\2023\REPSWITCH21092023\REPSWITCH_excgange\REPSWITCH_excgange\data/440202_REPSWITCH1_version2_list2_2024-01-19_14h56.06.787_micRespv2l2_recorded\recording_micRespv2l2_2024-01-19_15h02.42.756.wav,403.96435889974236,404.46442230045795,None,403.96435889974236,403.96435889974236,403.96435889974236,403.96435889974236,403.96435889974236,403.96435889974236,,,,,,,440202,001,2024-01-19_14h56.06.787,REPSWITCH1_version2_list2,2022.2.4,143.9924194035269,
REPSWITCH1/PICTURE_719.png,baño,speak,darkblue,nontarget,2,NT,4,3,2,2,Stim2_Set4,1,repeat,80,79,80,0,79,79,79,,,,,,,,,,,,,,,,,,,,,,,404.46442230045795,405.54094590060413,405.54094590060413,405.54094590060413,405.54094590060413,405.54094590060413,405.54094590060413,405.54094590060413,405.54094590060413,None,0,,C:\2023\REPSWITCH21092023\REPSWITCH_excgange\REPSWITCH_excgange\data/440202_REPSWITCH1_version2_list2_2024-01-19_14h56.06.787_micRespv2l2_recorded\recording_micRespv2l2_2024-01-19_15h02.47.355.wav,408.5690508997068,,None,408.5690508997068,408.5690508997068,408.5690508997068,408.5690508997068,408.5690508997068,408.5690508997068,,,,,,,440202,001,2024-01-19_14h56.06.787,REPSWITCH1_version2_list2,2022.2.4,143.9924194035269,
REPSWITCH1/PICTURE_719.png,baño,speak,darkblue,repeat,2,T,4,3,2,2,Stim2_Set4,0,None,81,80,81,0,80,80,80,,,,,,,,,,,,,,,,,,,,,,,409.06910930015147,410.1665342999622,410.1665342999622,410.1665342999622,410.1665342999622,410.1665342999622,410.1665342999622,410.1665342999622,410.1665342999622,None,0,,C:\2023\REPSWITCH21092023\REPSWITCH_excgange\REPSWITCH_excgange\data/440202_REPSWITCH1_version2_list2_2024-01-19_14h56.06.787_micRespv2l2_recorded\recording_micRespv2l2_2024-01-19_15h02.51.980.wav,413.1877465005964,413.6877420004457,None,413.1877465005964,413.1877465005964,413.1877465005964,413.1877465005964,413.1877465005964,413.1877465005964,,,,,,,440202,001,2024-01-19_14h56.06.787,REPSWITCH1_version2_list2,2022.2.4,143.9924194035269,
REPSWITCH1/PICTURE_271.png,conejo,type,gold,filler,1,F,4,3,2,2,Stim7_Set3,0,None,82,81,82,0,81,81,81,,,,,,,,,,,,,,,,,,,,,,,413.6877420004457,414.7782605001703,414.7782605001703,414.7782605001703,414.7782605001703,414.7782605001703,414.7782605001703,414.7782605001703,414.7782605001703,"['c', 'o', 'n', 'e', 'j', 'o']",0,conejo,C:\2023\REPSWITCH21092023\REPSWITCH_excgange\REPSWITCH_excgange\data/440202_REPSWITCH1_version2_list2_2024-01-19_14h56.06.787_micRespv2l2_recorded\recording_micRespv2l2_2024-01-19_15h02.56.592.wav,417.7993855001405,418.29945710022,None,417.7993855001405,417.7993855001405,417.7993855001405,417.7993855001405,417.7993855001405,417.7993855001405,"[1.094951699487865, 1.2753809001296759, 1.4747641002759337, 1.6162268994376063, 1.7278402000665665, 1.9511000998318195]",,,,,,440202,001,2024-01-19_14h56.06.787,REPSWITCH1_version2_list2,2022.2.4,143.9924194035269,
REPSWITCH1/PICTURE_610.png,miel,speak,darkblue,filler,2,F,4,3,2,2,Stim2_Set3,0,None,83,82,83,0,82,82,82,,,,,,,,,,,,,,,,,,,,,,,418.29945710022,419.3412520997226,419.3412520997226,419.3412520997226,419.3412520997226,419.3412520997226,419.3412520997226,419.3412520997226,419.3412520997226,None,0,,C:\2023\REPSWITCH21092023\REPSWITCH_excgange\REPSWITCH_excgange\data/440202_REPSWITCH1_version2_list2_2024-01-19_14h56.06.787_micRespv2l2_recorded\recording_micRespv2l2_2024-01-19_15h03.01.154.wav,422.36946179997176,,None,422.36946179997176,422.36946179997176,422.36946179997176,422.36946179997176,422.36946179997176,422.36946179997176,,,,,,,440202,001,2024-01-19_14h56.06.787,REPSWITCH1_version2_list2,2022.2.4,143.9924194035269,
REPSWITCH1/PICTURE_687.png,camisa,speak,darkblue,nontarget,2,NT,4,3,2,2,Stim5_Set4,1,repeat,84,83,84,0,83,83,83,,,,,,,,,,,,,,,,,,,,,,,422.8695769999176,424.0016218004748,424.0016218004748,424.0016218004748,424.0016218004748,424.0016218004748,424.0016218004748,424.0016218004748,424.0016218004748,None,0,,C:\2023\REPSWITCH21092023\REPSWITCH_excgange\REPSWITCH_excgange\data/440202_REPSWITCH1_version2_list2_2024-01-19_14h56.06.787_micRespv2l2_recorded\recording_micRespv2l2_2024-01-19_15h03.05.815.wav,427.02278240025043,427.52288770023733,None,427.02278240025043,427.02278240025043,427.02278240025043,427.02278240025043,427.02278240025043,427.02278240025043,,,,,,,440202,001,2024-01-19_14h56.06.787,REPSWITCH1_version2_list2,2022.2.4,143.9924194035269,
REPSWITCH1/PICTURE_687.png,camisa,type,gold,switch,1,T,4,3,2,2,Stim5_Set4,0,None,85,84,85,0,84,84,84,,,,,,,,,,,,,,,,,,,,,,,427.52288770023733,428.58554999995977,428.58554999995977,428.58554999995977,428.58554999995977,428.58554999995977,428.58554999995977,428.58554999995977,428.58554999995977,"['c', 'a', 'm', 'i', 's', 'a']",0,camisa,C:\2023\REPSWITCH21092023\REPSWITCH_excgange\REPSWITCH_excgange\data/440202_REPSWITCH1_version2_list2_2024-01-19_14h56.06.787_micRespv2l2_recorded\recording_micRespv2l2_2024-01-19_15h03.10.398.wav,431.6067980006337,432.1067866003141,None,431.6067980006337,431.6067980006337,431.6067980006337,431.6067980006337,431.6067980006337,431.6067980006337,"[0.8399108992889524, 0.9695983994752169, 1.1662555998191237, 1.2902593994513154, 1.4401178993284702, 1.646905600093305]",,,,,,440202,001,2024-01-19_14h56.06.787,REPSWITCH1_version2_list2,2022.2.4,143.9924194035269,
REPSWITCH1/PICTURE_319.png,vaca,type,gold,nontarget,1,NT,4,3,2,2,Stim1_Set4,0,None,86,85,86,0,85,85,85,,,,,,,,,,,,,,,,,,,,,,,432.1067866003141,433.1833492005244,433.1833492005244,433.1833492005244,433.1833492005244,433.1833492005244,433.1833492005244,433.1833492005244,433.1833492005244,"['v', 'a', 'x', 'backspace', 'c', 'a']",0,vaca,C:\2023\REPSWITCH21092023\REPSWITCH_excgange\REPSWITCH_excgange\data/440202_REPSWITCH1_version2_list2_2024-01-19_14h56.06.787_micRespv2l2_recorded\recording_micRespv2l2_2024-01-19_15h03.14.996.wav,436.2115221004933,,None,436.2115221004933,436.2115221004933,436.2115221004933,436.2115221004933,436.2115221004933,436.2115221004933,"[1.0246841991320252, 1.1585691990330815, 1.3161671990528703, 1.8441134989261627, 2.1522848987951875, 2.247914998792112]",,,,,,440202,001,2024-01-19_14h56.06.787,REPSWITCH1_version2_list2,2022.2.4,143.9924194035269,
REPSWITCH1/PICTURE_319.png,vaca,speak,darkblue,switch,2,T,4,3,2,2,Stim1_Set4,0,None,87,86,87,0,86,86,86,,,,,,,,,,,,,,,,,,,,,,,436.71156620047987,437.8506169002503,437.8506169002503,437.8506169002503,437.8506169002503,437.8506169002503,437.8506169002503,437.8506169002503,437.8506169002503,None,0,,C:\2023\REPSWITCH21092023\REPSWITCH_excgange\REPSWITCH_excgange\data/440202_REPSWITCH1_version2_list2_2024-01-19_14h56.06.787_micRespv2l2_recorded\recording_micRespv2l2_2024-01-19_15h03.19.663.wav,440.871799800545,441.37190240062773,None,440.871799800545,440.871799800545,440.871799800545,440.871799800545,440.871799800545,440.871799800545,,,,,,,440202,001,2024-01-19_14h56.06.787,REPSWITCH1_version2_list2,2022.2.4,143.9924194035269,
REPSWITCH1/PICTURE_464.png,goma,type,gold,filler,1,F,4,3,2,2,Stim6_Set3,1,switch,88,87,88,0,87,87,87,,,,,,,,,,,,,,,,,,,,,,,441.37190240062773,442.4831798002124,442.4831798002124,442.4831798002124,442.4831798002124,442.4831798002124,442.4831798002124,442.4831798002124,442.4831798002124,"['g', 'o', 'm', 'a']",0,goma,C:\2023\REPSWITCH21092023\REPSWITCH_excgange\REPSWITCH_excgange\data/440202_REPSWITCH1_version2_list2_2024-01-19_14h56.06.787_micRespv2l2_recorded\recording_micRespv2l2_2024-01-19_15h03.24.296.wav,445.5043791998178,446.00442790053785,None,445.5043791998178,445.5043791998178,445.5043791998178,445.5043791998178,445.5043791998178,445.5043791998178,"[0.830757999792695, 1.173591298982501, 1.316423799842596, 1.4399956995621324]",,,,,,440202,001,2024-01-19_14h56.06.787,REPSWITCH1_version2_list2,2022.2.4,143.9924194035269,
REPSWITCH1/PICTURE_728.png,pulpo,speak,darkblue,nontarget,2,NT,4,3,2,2,Stim8_Set4,1,switch,89,88,89,0,88,88,88,,,,,,,,,,,,,,,,,,,,,,,446.00442790053785,447.12966310046613,447.12966310046613,447.12966310046613,447.12966310046613,447.12966310046613,447.12966310046613,447.12966310046613,447.12966310046613,None,0,,C:\2023\REPSWITCH21092023\REPSWITCH_excgange\REPSWITCH_excgange\data/440202_REPSWITCH1_version2_list2_2024-01-19_14h56.06.787_micRespv2l2_recorded\recording_micRespv2l2_2024-01-19_15h03.28.943.wav,450.15779630001634,,None,450.15779630001634,450.15779630001634,450.15779630001634,450.15779630001634,450.15779630001634,450.15779630001634,,,,,,,440202,001,2024-01-19_14h56.06.787,REPSWITCH1_version2_list2,2022.2.4,143.9924194035269,
REPSWITCH1/PICTURE_728.png,pulpo,speak,darkblue,repeat,2,T,4,3,2,2,Stim8_Set4,0,None,90,89,90,0,89,89,89,,,,,,,,,,,,,,,,,,,,,,,450.65781170036644,451.77607950009406,451.77607950009406,451.77607950009406,451.77607950009406,451.77607950009406,451.77607950009406,451.77607950009406,451.77607950009406,None,0,,C:\2023\REPSWITCH21092023\REPSWITCH_excgange\REPSWITCH_excgange\data/440202_REPSWITCH1_version2_list2_2024-01-19_14h56.06.787_micRespv2l2_recorded\recording_micRespv2l2_2024-01-19_15h03.33.589.wav,454.7972077000886,455.29728389997035,None,454.7972077000886,454.7972077000886,454.7972077000886,454.7972077000886,454.7972077000886,454.7972077000886,,,,,,,440202,001,2024-01-19_14h56.06.787,REPSWITCH1_version2_list2,2022.2.4,143.9924194035269,
REPSWITCH1/PICTURE_320.png,iglesia,type,gold,filler,1,F,4,3,2,2,Stim8_Set3,0,None,91,90,91,0,90,90,90,,,,,,,,,,,,,,,,,,,,,,,455.29728389997035,456.33911809977144,456.33911809977144,456.33911809977144,456.33911809977144,456.33911809977144,456.33911809977144,456.33911809977144,456.33911809977144,"['i', 'g', 'l', 'e', 's', 'i']",0,iglesi,C:\2023\REPSWITCH21092023\REPSWITCH_excgange\REPSWITCH_excgange\data/440202_REPSWITCH1_version2_list2_2024-01-19_14h56.06.787_micRespv2l2_recorded\recording_micRespv2l2_2024-01-19_15h03.38.152.wav,459.3602955006063,459.8603787003085,None,459.3602955006063,459.3602955006063,459.3602955006063,459.3602955006063,459.3602955006063,459.3602955006063,"[1.7245494993403554, 2.0230546994134784, 2.3801276991143823, 2.5335538992658257, 2.734876899048686, 2.866959899663925]",,,,,,440202,001,2024-01-19_14h56.06.787,REPSWITCH1_version2_list2,2022.2.4,143.9924194035269,
REPSWITCH1/PICTURE_576.png,guante,speak,darkblue,filler,2,F,4,3,2,2,Stim1_Set3,0,None,92,91,92,0,91,91,91,,,,,,,,,,,,,,,,,,,,,,,459.8603787003085,461.0202846005559,461.0202846005559,461.0202846005559,461.0202846005559,461.0202846005559,461.0202846005559,461.0202846005559,461.0202846005559,None,0,,C:\2023\REPSWITCH21092023\REPSWITCH_excgange\REPSWITCH_excgange\data/440202_REPSWITCH1_version2_list2_2024-01-19_14h56.06.787_micRespv2l2_recorded\recording_micRespv2l2_2024-01-19_15h03.42.833.wav,464.04149920027703,464.5415459005162,None,464.04149920027703,464.04149920027703,464.04149920027703,464.04149920027703,464.04149920027703,464.04149920027703,,,,,,,440202,001,2024-01-19_14h56.06.787,REPSWITCH1_version2_list2,2022.2.4,143.9924194035269,
REPSWITCH1/PICTURE_8.png,pierna,speak,darkblue,nontarget,2,NT,4,3,2,2,Stim3_Set4,1,repeat,93,92,93,0,92,92,92,,,,,,,,,,,,,,,,,,,,,,,464.5415459005162,465.61112940032035,465.61112940032035,465.61112940032035,465.61112940032035,465.61112940032035,465.61112940032035,465.61112940032035,465.61112940032035,None,0,,C:\2023\REPSWITCH21092023\REPSWITCH_excgange\REPSWITCH_excgange\data/440202_REPSWITCH1_version2_list2_2024-01-19_14h56.06.787_micRespv2l2_recorded\recording_micRespv2l2_2024-01-19_15h03.47.423.wav,468.63243620004505,469.13242280017585,None,468.63243620004505,468.63243620004505,468.63243620004505,468.63243620004505,468.63243620004505,468.63243620004505,,,,,,,440202,001,2024-01-19_14h56.06.787,REPSWITCH1_version2_list2,2022.2.4,143.9924194035269,
REPSWITCH1/PICTURE_8.png,pierna,type,gold,switch,1,T,4,3,2,2,Stim3_Set4,0,None,94,93,94,0,93,93,93,,,,,,,,,,,,,,,,,,,,,,,469.13242280017585,470.1881538005546,470.1881538005546,470.1881538005546,470.1881538005546,470.1881538005546,470.1881538005546,470.1881538005546,470.1881538005546,"['p', 'i', 'e', 'r', 'n', 'a']",0,pierna,C:\2023\REPSWITCH21092023\REPSWITCH_excgange\REPSWITCH_excgange\data/440202_REPSWITCH1_version2_list2_2024-01-19_14h56.06.787_micRespv2l2_recorded\recording_micRespv2l2_2024-01-19_15h03.52.001.wav,473.20933429989964,473.7094157002866,None,473.20933429989964,473.20933429989964,473.20933429989964,473.20933429989964,473.20933429989964,473.20933429989964,"[1.025366399437189, 1.2335652988404036, 1.432892899028957, 1.5325187994167209, 1.8495017988607287, 1.9960007993504405]",,,,,,440202,001,2024-01-19_14h56.06.787,REPSWITCH1_version2_list2,2022.2.4,143.9924194035269,
REPSWITCH1/PICTURE_673.png,tenedor,speak,darkblue,filler,2,F,4,3,2,2,Extra5,0,None,95,94,95,0,94,94,94,,,,,,,,,,,,,,,,,,,,,,,473.7094157002866,474.8137677004561,474.8137677004561,474.8137677004561,474.8137677004561,474.8137677004561,474.8137677004561,474.8137677004561,474.8137677004561,None,0,,C:\2023\REPSWITCH21092023\REPSWITCH_excgange\REPSWITCH_excgange\data/440202_REPSWITCH1_version2_list2_2024-01-19_14h56.06.787_micRespv2l2_recorded\recording_micRespv2l2_2024-01-19_15h03.56.627.wav,477.83493810053915,478.33500509988517,None,477.83493810053915,477.83493810053915,477.83493810053915,477.83493810053915,477.83493810053915,477.83493810053915,,,,,,,440202,001,2024-01-19_14h56.06.787,REPSWITCH1_version2_list2,2022.2.4,143.9924194035269,
REPSWITCH1/PICTURE_35.png,oreja,type,gold,filler,1,F,4,3,2,2,Stim5_Set3,1,switch,96,95,96,0,95,95,95,,,,,,,,,,,,,,,,,,,,,,,478.33500509988517,479.50184210017323,479.50184210017323,479.50184210017323,479.50184210017323,479.50184210017323,479.50184210017323,479.50184210017323,479.50184210017323,"['o', 'r', 'e', 'j', 'a']",0,oreja,C:\2023\REPSWITCH21092023\REPSWITCH_excgange\REPSWITCH_excgange\data/440202_REPSWITCH1_version2_list2_2024-01-19_14h56.06.787_micRespv2l2_recorded\recording_micRespv2l2_2024-01-19_15h04.01.315.wav,482.52303399983793,483.02311460021883,None,482.52303399983793,482.52303399983793,482.52303399983793,482.52303399983793,482.52303399983793,482.52303399983793,"[0.8542269999161363, 1.1539040999487042, 1.3084223996847868, 1.6555824000388384, 1.82799799926579]",,,,,,440202,001,2024-01-19_14h56.06.787,REPSWITCH1_version2_list2,2022.2.4,143.9924194035269,
REPSWITCH1/PICTURE_663.png,columna,speak,darkblue,filler,2,F,4,3,2,2,Extra6,0,None,97,96,97,0,96,96,96,,,,,,,,,,,,,,,,,,,,,,,483.02311460021883,484.16908970009536,484.16908970009536,484.16908970009536,484.16908970009536,484.16908970009536,484.16908970009536,484.16908970009536,484.16908970009536,None,0,,C:\2023\REPSWITCH21092023\REPSWITCH_excgange\REPSWITCH_excgange\data/440202_REPSWITCH1_version2_list2_2024-01-19_14h56.06.787_micRespv2l2_recorded\recording_micRespv2l2_2024-01-19_15h04.05.982.wav,487.1903164004907,487.6904188003391,None,487.1903164004907,487.1903164004907,487.1903164004907,487.1903164004907,487.1903164004907,487.1903164004907,,,,,,,440202,001,2024-01-19_14h56.06.787,REPSWITCH1_version2_list2,2022.2.4,143.9924194035269,
REPSWITCH1/PICTURE_242.png,cartero,type,gold,filler,1,F,4,3,2,2,Stim3_Set3,1,switch,98,97,98,0,97,97,97,,,,,,,,,,,,,,,,,,,,,,,487.6904188003391,488.7530772006139,488.7530772006139,488.7530772006139,488.7530772006139,488.7530772006139,488.7530772006139,488.7530772006139,488.7530772006139,"['c', 'a', 'r', 't', 'e', 'r', 'o']",0,cartero,C:\2023\REPSWITCH21092023\REPSWITCH_excgange\REPSWITCH_excgange\data/440202_REPSWITCH1_version2_list2_2024-01-19_14h56.06.787_micRespv2l2_recorded\recording_micRespv2l2_2024-01-19_15h04.10.566.wav,491.77423830050975,492.27430239971727,None,491.77423830050975,491.77423830050975,491.77423830050975,491.77423830050975,491.77423830050975,491.77423830050975,"[1.0651776995509863, 1.182787898927927, 1.2614892991259694, 1.4169621989130974, 1.546637699007988, 1.6754656992852688, 1.9727505994960666]",,,,,,440202,001,2024-01-19_14h56.06.787,REPSWITCH1_version2_list2,2022.2.4,143.9924194035269,
REPSWITCH1/PICTURE_48.png,bombero,type,gold,nontarget,1,NT,4,3,2,2,Stim7_Set4,1,repeat,99,98,99,0,98,98,98,,,,,,,,,,,,,,,,,,,,,,,492.27430239971727,493.3299965998158,493.3299965998158,493.3299965998158,493.3299965998158,493.3299965998158,493.3299965998158,493.3299965998158,493.3299965998158,"['b', 'o', 'm', 'b', 'e', 'r', 'o']",0,bombero,C:\2023\REPSWITCH21092023\REPSWITCH_excgange\REPSWITCH_excgange\data/440202_REPSWITCH1_version2_list2_2024-01-19_14h56.06.787_micRespv2l2_recorded\recording_micRespv2l2_2024-01-19_15h04.15.144.wav,496.3581643002108,,None,496.3581643002108,496.3581643002108,496.3581643002108,496.3581643002108,496.3581643002108,496.3581643002108,"[1.0899000000208616, 1.3659065999090672, 1.950959799811244, 2.206909700296819, 2.3454269003123045, 2.4798213001340628, 2.7413809997960925]",,,,,,440202,001,2024-01-19_14h56.06.787,REPSWITCH1_version2_list2,2022.2.4,143.9924194035269,
REPSWITCH1/PICTURE_48.png,bombero,type,gold,repeat,1,T,4,3,2,2,Stim7_Set4,0,None,100,99,100,0,99,99,99,,,,,,,,,,,,,,,,,,,,,,,496.8583011003211,498.00420110020787,498.00420110020787,498.00420110020787,498.00420110020787,498.00420110020787,498.00420110020787,498.00420110020787,498.00420110020787,"['b', 'o', 'm', 'b', 'e', 'r', 'o']",0,bombero,C:\2023\REPSWITCH21092023\REPSWITCH_excgange\REPSWITCH_excgange\data/440202_REPSWITCH1_version2_list2_2024-01-19_14h56.06.787_micRespv2l2_recorded\recording_micRespv2l2_2024-01-19_15h04.19.817.wav,501.02550069987774,501.52549900021404,None,501.02550069987774,501.02550069987774,501.02550069987774,501.02550069987774,501.02550069987774,501.02550069987774,"[0.8449339997023344, 1.139937199652195, 1.3502388997003436, 1.6983503000810742, 1.8578516002744436, 1.9963515000417829, 2.273733399808407]",,,,,,440202,001,2024-01-19_14h56.06.787,REPSWITCH1_version2_list2,2022.2.4,143.9924194035269,
REPSWITCH1/PICTURE_391.png,cadena,speak,darkblue,filler,2,F,4,3,2,2,Extra2,0,None,101,100,101,0,100,100,100,,,,,,,,,,,,,,,,,,,,,,,501.52549900021404,502.6784409005195,502.6784409005195,502.6784409005195,502.6784409005195,502.6784409005195,502.6784409005195,502.6784409005195,502.6784409005195,None,0,,C:\2023\REPSWITCH21092023\REPSWITCH_excgange\REPSWITCH_excgange\data/440202_REPSWITCH1_version2_list2_2024-01-19_14h56.06.787_micRespv2l2_recorded\recording_micRespv2l2_2024-01-19_15h04.24.492.wav,505.69962340034544,506.19968899991363,None,505.69962340034544,505.69962340034544,505.69962340034544,505.69962340034544,505.69962340034544,505.69962340034544,,,,,,,440202,001,2024-01-19_14h56.06.787,REPSWITCH1_version2_list2,2022.2.4,143.9924194035269,
REPSWITCH1/PICTURE_590.png,escoba,type,gold,filler,1,F,4,3,2,2,Extra3,0,None,102,101,102,0,101,101,101,,,,,,,,,,,,,,,,,,,,,,,506.19968899991363,507.27622910030186,507.27622910030186,507.27622910030186,507.27622910030186,507.27622910030186,507.27622910030186,507.27622910030186,507.27622910030186,"['e', 's', 'c', 'o', 'b', 'a']",0,escoba,C:\2023\REPSWITCH21092023\REPSWITCH_excgange\REPSWITCH_excgange\data/440202_REPSWITCH1_version2_list2_2024-01-19_14h56.06.787_micRespv2l2_recorded\recording_micRespv2l2_2024-01-19_15h04.29.089.wav,510.2974525997415,510.7974909003824,space,510.2974525997415,510.2974525997415,510.2974525997415,510.2974525997415,510.2974525997415,510.2974525997415,"[0.9555718991905451, 1.1718789990991354, 1.3493554992601275, 1.6536108991131186, 2.0037975991144776, 2.135360999032855]",510.7974909003824,510.7974909003824,37.341271199285984,,,440202,001,2024-01-19_14h56.06.787,REPSWITCH1_version2_list2,2022.2.4,143.9924194035269,
REPSWITCH1/PICTURE_340.png,espejo,type,gold,filler,1,F,1,1,2,2,Extra1,0,None,103,102,1,0,102,102,102,,,,,,,,,,,,,,,,,,,,,,,548.149547399953,549.2191746998578,549.2191746998578,549.2191746998578,549.2191746998578,549.2191746998578,549.2191746998578,549.2191746998578,549.2191746998578,"['e', 's', 'p', 'e', 'j', 'o']",0,espejo,C:\2023\REPSWITCH21092023\REPSWITCH_excgange\REPSWITCH_excgange\data/440202_REPSWITCH1_version2_list2_2024-01-19_14h56.06.787_micRespv2l2_recorded\recording_micRespv2l2_2024-01-19_15h05.11.033.wav,552.2472844002768,,None,552.2472844002768,552.2472844002768,552.2472844002768,552.2472844002768,552.2472844002768,552.2472844002768,"[0.8243707995861769, 1.0535230999812484, 1.2520080003887415, 1.3755443999543786, 1.5759204998612404, 1.7393354997038841]",,,,,,440202,001,2024-01-19_14h56.06.787,REPSWITCH1_version2_list2,2022.2.4,143.9924194035269,
REPSWITCH1/PICTURE_391.png,cadena,speak,darkblue,filler,2,F,1,1,2,2,Extra2,0,None,104,103,2,0,103,103,103,,,,,,,,,,,,,,,,,,,,,,,552.7473926004022,553.8378614997491,553.8378614997491,553.8378614997491,553.8378614997491,553.8378614997491,553.8378614997491,553.8378614997491,553.8378614997491,None,0,,C:\2023\REPSWITCH21092023\REPSWITCH_excgange\REPSWITCH_excgange\data/440202_REPSWITCH1_version2_list2_2024-01-19_14h56.06.787_micRespv2l2_recorded\recording_micRespv2l2_2024-01-19_15h05.15.652.wav,556.8590232999995,557.3590687997639,None,556.8590232999995,556.8590232999995,556.8590232999995,556.8590232999995,556.8590232999995,556.8590232999995,,,,,,,440202,001,2024-01-19_14h56.06.787,REPSWITCH1_version2_list2,2022.2.4,143.9924194035269,
REPSWITCH1/PICTURE_178.png,puente,speak,darkblue,nontarget,2,NT,1,1,2,2,Stim1_Set1,1,repeat,105,104,3,0,104,104,104,,,,,,,,,,,,,,,,,,,,,,,557.3590687997639,558.4425793997943,558.4425793997943,558.4425793997943,558.4425793997943,558.4425793997943,558.4425793997943,558.4425793997943,558.4425793997943,None,0,,C:\2023\REPSWITCH21092023\REPSWITCH_excgange\REPSWITCH_excgange\data/440202_REPSWITCH1_version2_list2_2024-01-19_14h56.06.787_micRespv2l2_recorded\recording_micRespv2l2_2024-01-19_15h05.20.255.wav,561.4638494998217,561.9638542002067,None,561.4638494998217,561.4638494998217,561.4638494998217,561.4638494998217,561.4638494998217,561.4638494998217,,,,,,,440202,001,2024-01-19_14h56.06.787,REPSWITCH1_version2_list2,2022.2.4,143.9924194035269,
REPSWITCH1/PICTURE_178.png,puente,speak,darkblue,repeat,2,T,1,1,2,2,Stim1_Set1,0,None,106,105,4,0,105,105,105,,,,,,,,,,,,,,,,,,,,,,,561.9638542002067,563.1793491002172,563.1793491002172,563.1793491002172,563.1793491002172,563.1793491002172,563.1793491002172,563.1793491002172,563.1793491002172,None,0,,C:\2023\REPSWITCH21092023\REPSWITCH_excgange\REPSWITCH_excgange\data/440202_REPSWITCH1_version2_list2_2024-01-19_14h56.06.787_micRespv2l2_recorded\recording_micRespv2l2_2024-01-19_15h05.24.993.wav,566.2074631005526,,None,566.2074631005526,566.2074631005526,566.2074631005526,566.2074631005526,566.2074631005526,566.2074631005526,,,,,,,440202,001,2024-01-19_14h56.06.787,REPSWITCH1_version2_list2,2022.2.4,143.9924194035269,
REPSWITCH1/PICTURE_319.png,vaca,type,gold,filler,1,F,1,1,2,2,Stim1_Set4,0,None,107,106,5,0,106,106,106,,,,,,,,,,,,,,,,,,,,,,,566.7075176006183,567.81876150053,567.81876150053,567.81876150053,567.81876150053,567.81876150053,567.81876150053,567.81876150053,567.81876150053,"['v', 'a', 'c', 'x', 'a']",0,vaxa,C:\2023\REPSWITCH21092023\REPSWITCH_excgange\REPSWITCH_excgange\data/440202_REPSWITCH1_version2_list2_2024-01-19_14h56.06.787_micRespv2l2_recorded\recording_micRespv2l2_2024-01-19_15h05.29.631.wav,570.840000600554,571.3400638997555,None,570.840000600554,570.840000600554,570.840000600554,570.840000600554,570.840000600554,570.840000600554,"[1.09393369872123, 1.2436680989339948, 1.3825062988325953, 1.3855288987979293, 1.4851640993729234]",,,,,,440202,001,2024-01-19_14h56.06.787,REPSWITCH1_version2_list2,2022.2.4,143.9924194035269,
REPSWITCH1/PICTURE_381.png,fresa,speak,darkblue,nontarget,2,NT,1,1,2,2,Stim2_Set1,1,switch,108,107,6,0,107,107,107,,,,,,,,,,,,,,,,,,,,,,,571.3400638997555,572.4443907001987,572.4443907001987,572.4443907001987,572.4443907001987,572.4443907001987,572.4443907001987,572.4443907001987,572.4443907001987,None,0,,C:\2023\REPSWITCH21092023\REPSWITCH_excgange\REPSWITCH_excgange\data/440202_REPSWITCH1_version2_list2_2024-01-19_14h56.06.787_micRespv2l2_recorded\recording_micRespv2l2_2024-01-19_15h05.34.257.wav,575.465638499707,575.9656221000478,None,575.465638499707,575.465638499707,575.465638499707,575.465638499707,575.465638499707,575.465638499707,,,,,,,440202,001,2024-01-19_14h56.06.787,REPSWITCH1_version2_list2,2022.2.4,143.9924194035269,
REPSWITCH1/PICTURE_381.png,fresa,speak,darkblue,repeat,2,T,1,1,2,2,Stim2_Set1,0,None,109,108,7,0,108,108,108,,,,,,,,,,,,,,,,,,,,,,,575.9656221000478,577.0144498003647,577.0144498003647,577.0144498003647,577.0144498003647,577.0144498003647,577.0144498003647,577.0144498003647,577.0144498003647,None,0,,C:\2023\REPSWITCH21092023\REPSWITCH_excgange\REPSWITCH_excgange\data/440202_REPSWITCH1_version2_list2_2024-01-19_14h56.06.787_micRespv2l2_recorded\recording_micRespv2l2_2024-01-19_15h05.38.828.wav,580.0426168004051,,None,580.0426168004051,580.0426168004051,580.0426168004051,580.0426168004051,580.0426168004051,580.0426168004051,,,,,,,440202,001,2024-01-19_14h56.06.787,REPSWITCH1_version2_list2,2022.2.4,143.9924194035269,
REPSWITCH1/PICTURE_719.png,baño,type,gold,filler,1,F,1,1,2,2,Stim2_Set4,1,switch,110,109,8,0,109,109,109,,,,,,,,,,,,,,,,,,,,,,,580.5426136003807,581.7094523003325,581.7094523003325,581.7094523003325,581.7094523003325,581.7094523003325,581.7094523003325,581.7094523003325,581.7094523003325,"['b', 'a', 'ñ', 'o']",0,baño,C:\2023\REPSWITCH21092023\REPSWITCH_excgange\REPSWITCH_excgange\data/440202_REPSWITCH1_version2_list2_2024-01-19_14h56.06.787_micRespv2l2_recorded\recording_micRespv2l2_2024-01-19_15h05.43.523.wav,584.7306412002072,585.2307473002002,None,584.7306412002072,584.7306412002072,584.7306412002072,584.7306412002072,584.7306412002072,584.7306412002072,"[0.861014299094677, 1.0434848992154002, 1.417280599474907, 1.5963534992188215]",,,,,,440202,001,2024-01-19_14h56.06.787,REPSWITCH1_version2_list2,2022.2.4,143.9924194035269,
REPSWITCH1/PICTURE_135.png,traje,speak,darkblue,nontarget,2,NT,1,1,2,2,Stim3_Set1,0,None,111,110,9,0,110,110,110,,,,,,,,,,,,,,,,,,,,,,,585.2307473002002,586.2934161005542,586.2934161005542,586.2934161005542,586.2934161005542,586.2934161005542,586.2934161005542,586.2934161005542,586.2934161005542,None,0,,C:\2023\REPSWITCH21092023\REPSWITCH_excgange\REPSWITCH_excgange\data/440202_REPSWITCH1_version2_list2_2024-01-19_14h56.06.787_micRespv2l2_recorded\recording_micRespv2l2_2024-01-19_15h05.48.106.wav,589.3215334005654,,None,589.3215334005654,589.3215334005654,589.3215334005654,589.3215334005654,589.3215334005654,589.3215334005654,,,,,,,440202,001,2024-01-19_14h56.06.787,REPSWITCH1_version2_list2,2022.2.4,143.9924194035269,
REPSWITCH1/PICTURE_135.png,traje,type,gold,switch,1,T,1,1,2,2,Stim3_Set1,0,None,112,111,10,0,111,111,111,,,,,,,,,,,,,,,,,,,,,,,589.8215878000483,590.8425591997802,590.8425591997802,590.8425591997802,590.8425591997802,590.8425591997802,590.8425591997802,590.8425591997802,590.8425591997802,"['t', 'r', 'a', 'j', 'e']",0,traje,C:\2023\REPSWITCH21092023\REPSWITCH_excgange\REPSWITCH_excgange\data/440202_REPSWITCH1_version2_list2_2024-01-19_14h56.06.787_micRespv2l2_recorded\recording_micRespv2l2_2024-01-19_15h05.52.655.wav,593.8638043999672,594.3638506997377,None,593.8638043999672,593.8638043999672,593.8638043999672,593.8638043999672,593.8638043999672,593.8638043999672,"[0.7597736995667219, 0.895312299951911, 1.031852599233389, 1.322146499529481, 1.4361311998218298]",,,,,,440202,001,2024-01-19_14h56.06.787,REPSWITCH1_version2_list2,2022.2.4,143.9924194035269,
REPSWITCH1/PICTURE_687.png,camisa,speak,darkblue,filler,2,F,1,1,2,2,Stim5_Set4,0,None,113,112,11,0,112,112,112,,,,,,,,,,,,,,,,,,,,,,,594.3638506997377,595.4334577005357,595.4334577005357,595.4334577005357,595.4334577005357,595.4334577005357,595.4334577005357,595.4334577005357,595.4334577005357,None,0,,C:\2023\REPSWITCH21092023\REPSWITCH_excgange\REPSWITCH_excgange\data/440202_REPSWITCH1_version2_list2_2024-01-19_14h56.06.787_micRespv2l2_recorded\recording_micRespv2l2_2024-01-19_15h05.57.247.wav,598.4615882001817,,None,598.4615882001817,598.4615882001817,598.4615882001817,598.4615882001817,598.4615882001817,598.4615882001817,,,,,,,440202,001,2024-01-19_14h56.06.787,REPSWITCH1_version2_list2,2022.2.4,143.9924194035269,
REPSWITCH1/PICTURE_128.png,muñeca,type,gold,nontarget,1,NT,1,1,2,2,Stim4_Set1,1,switch,114,113,12,0,113,113,113,,,,,,,,,,,,,,,,,,,,,,,598.9616593997926,600.0312489997596,600.0312489997596,600.0312489997596,600.0312489997596,600.0312489997596,600.0312489997596,600.0312489997596,600.0312489997596,"['m', 'u', 'ñ', 'e', 'c', 'a']",0,muñeca,C:\2023\REPSWITCH21092023\REPSWITCH_excgange\REPSWITCH_excgange\data/440202_REPSWITCH1_version2_list2_2024-01-19_14h56.06.787_micRespv2l2_recorded\recording_micRespv2l2_2024-01-19_15h06.01.844.wav,603.052508899942,603.5525101004168,None,603.052508899942,603.052508899942,603.052508899942,603.052508899942,603.052508899942,603.052508899942,"[0.9114293996244669, 1.0758640002459288, 1.4625803995877504, 1.651795799843967, 1.835224200040102, 1.966784999705851]",,,,,,440202,001,2024-01-19_14h56.06.787,REPSWITCH1_version2_list2,2022.2.4,143.9924194035269,
REPSWITCH1/PICTURE_128.png,muñeca,speak,darkblue,switch,2,T,1,1,2,2,Stim4_Set1,0,None,115,114,13,0,114,114,114,,,,,,,,,,,,,,,,,,,,,,,603.5525101004168,604.6985506005585,604.6985506005585,604.6985506005585,604.6985506005585,604.6985506005585,604.6985506005585,604.6985506005585,604.6985506005585,None,0,,C:\2023\REPSWITCH21092023\REPSWITCH_excgange\REPSWITCH_excgange\data/440202_REPSWITCH1_version2_list2_2024-01-19_14h56.06.787_micRespv2l2_recorded\recording_micRespv2l2_2024-01-19_15h06.06.512.wav,607.7266830001026,,None,607.7266830001026,607.7266830001026,607.7266830001026,607.7266830001026,607.7266830001026,607.7266830001026,,,,,,,440202,001,2024-01-19_14h56.06.787,REPSWITCH1_version2_list2,2022.2.4,143.9924194035269,
REPSWITCH1/PICTURE_8.png,pierna,speak,darkblue,filler,2,F,1,1,2,2,Stim3_Set4,0,None,116,115,14,0,115,115,115,,,,,,,,,,,,,,,,,,,,,,,608.2267246004194,609.3658535005525,609.3658535005525,609.3658535005525,609.3658535005525,609.3658535005525,609.3658535005525,609.3658535005525,609.3658535005525,None,0,,C:\2023\REPSWITCH21092023\REPSWITCH_excgange\REPSWITCH_excgange\data/440202_REPSWITCH1_version2_list2_2024-01-19_14h56.06.787_micRespv2l2_recorded\recording_micRespv2l2_2024-01-19_15h06.11.180.wav,612.3939610002562,,None,612.3939610002562,612.3939610002562,612.3939610002562,612.3939610002562,612.3939610002562,612.3939610002562,,,,,,,440202,001,2024-01-19_14h56.06.787,REPSWITCH1_version2_list2,2022.2.4,143.9924194035269,
REPSWITCH1/PICTURE_19.png,pavo,speak,darkblue,nontarget,2,NT,1,1,2,2,Stim5_Set1,0,None,117,116,15,0,116,116,116,,,,,,,,,,,,,,,,,,,,,,,612.8940329002216,614.0261062998325,614.0261062998325,614.0261062998325,614.0261062998325,614.0261062998325,614.0261062998325,614.0261062998325,614.0261062998325,None,0,,C:\2023\REPSWITCH21092023\REPSWITCH_excgange\REPSWITCH_excgange\data/440202_REPSWITCH1_version2_list2_2024-01-19_14h56.06.787_micRespv2l2_recorded\recording_micRespv2l2_2024-01-19_15h06.15.840.wav,617.047310099937,617.5474110003561,None,617.047310099937,617.047310099937,617.047310099937,617.047310099937,617.047310099937,617.047310099937,,,,,,,440202,001,2024-01-19_14h56.06.787,REPSWITCH1_version2_list2,2022.2.4,143.9924194035269,
REPSWITCH1/PICTURE_19.png,pavo,type,gold,switch,1,T,1,1,2,2,Stim5_Set1,0,None,118,117,16,0,117,117,117,,,,,,,,,,,,,,,,,,,,,,,617.5474110003561,618.7211560001597,618.7211560001597,618.7211560001597,618.7211560001597,618.7211560001597,618.7211560001597,618.7211560001597,618.7211560001597,"['p', 'a', 'v', 'o']",0,pavo,C:\2023\REPSWITCH21092023\REPSWITCH_excgange\REPSWITCH_excgange\data/440202_REPSWITCH1_version2_list2_2024-01-19_14h56.06.787_micRespv2l2_recorded\recording_micRespv2l2_2024-01-19_15h06.20.534.wav,621.7423660997301,622.2424581004307,None,621.7423660997301,621.7423660997301,621.7423660997301,621.7423660997301,621.7423660997301,621.7423660997301,"[0.9022206999361515, 1.1485043996945024, 1.3956714998930693, 1.6578257996588945]",,,,,,440202,001,2024-01-19_14h56.06.787,REPSWITCH1_version2_list2,2022.2.4,143.9924194035269,
REPSWITCH1/PICTURE_16.png,cazador,type,gold,nontarget,1,NT,1,1,2,2,Stim6_Set1,1,switch,119,118,17,0,118,118,118,,,,,,,,,,,,,,,,,,,,,,,622.2424581004307,623.4509950000793,623.4509950000793,623.4509950000793,623.4509950000793,623.4509950000793,623.4509950000793,623.4509950000793,623.4509950000793,"['c', 'a', 'z', 'a', 'd', 'o', 'r']",0,cazador,C:\2023\REPSWITCH21092023\REPSWITCH_excgange\REPSWITCH_excgange\data/440202_REPSWITCH1_version2_list2_2024-01-19_14h56.06.787_micRespv2l2_recorded\recording_micRespv2l2_2024-01-19_15h06.25.265.wav,626.4791016001254,,None,626.4791016001254,626.4791016001254,626.4791016001254,626.4791016001254,626.4791016001254,626.4791016001254,"[0.9064822997897863, 1.0081423996016383, 1.238370099104941, 1.7577587999403477, 1.9550984995439649, 2.2800273997709155, 2.4221336990594864]",,,,,,440202,001,2024-01-19_14h56.06.787,REPSWITCH1_version2_list2,2022.2.4,143.9924194035269,
REPSWITCH1/PICTURE_16.png,cazador,type,gold,repeat,1,T,1,1,2,2,Stim6_Set1,0,None,120,119,18,0,119,119,119,,,,,,,,,,,,,,,,,,,,,,,626.9791839998215,628.0765390004963,628.0765390004963,628.0765390004963,628.0765390004963,628.0765390004963,628.0765390004963,628.0765390004963,628.0765390004963,"['c', 'a', 'z', 'a', 'd', 'o', 'r']",0,cazador,C:\2023\REPSWITCH21092023\REPSWITCH_excgange\REPSWITCH_excgange\data/440202_REPSWITCH1_version2_list2_2024-01-19_14h56.06.787_micRespv2l2_recorded\recording_micRespv2l2_2024-01-19_15h06.29.890.wav,631.0977463005111,631.5978354001418,None,631.0977463005111,631.0977463005111,631.0977463005111,631.0977463005111,631.0977463005111,631.0977463005111,"[0.8738571992143989, 1.0003616996109486, 1.207974899560213, 1.3854677993804216, 1.5254050996154547, 1.9072943991050124, 2.1075622998178005]",,,,,,440202,001,2024-01-19_14h56.06.787,REPSWITCH1_version2_list2,2022.2.4,143.9924194035269,
REPSWITCH1/PICTURE_498.png,taza,speak,darkblue,filler,2,F,1,1,2,2,Stim4_Set4,0,None,121,120,19,0,120,120,120,,,,,,,,,,,,,,,,,,,,,,,631.5978354001418,632.7021676003933,632.7021676003933,632.7021676003933,632.7021676003933,632.7021676003933,632.7021676003933,632.7021676003933,632.7021676003933,None,0,,C:\2023\REPSWITCH21092023\REPSWITCH_excgange\REPSWITCH_excgange\data/440202_REPSWITCH1_version2_list2_2024-01-19_14h56.06.787_micRespv2l2_recorded\recording_micRespv2l2_2024-01-19_15h06.34.516.wav,635.730289099738,,None,635.730289099738,635.730289099738,635.730289099738,635.730289099738,635.730289099738,635.730289099738,,,,,,,440202,001,2024-01-19_14h56.06.787,REPSWITCH1_version2_list2,2022.2.4,143.9924194035269,
