image,correctAns,respModal,frameColor,repSwitch,sequence,target,set,block,list,exp_version,stimulus,baseline,baseline_condition,trial_no,psychopy_trial,Column1,trialsREPSWITCH.thisRepN,trialsREPSWITCH.thisTrialN,trialsREPSWITCH.thisN,trialsREPSWITCH.thisIndex,textWelcome.started,textboxInstrMain1.started,textboxInstrMain1_2.started,textboxInstrMain1_3.started,keyInstrMain.started,keyInstrMain.keys,keyInstrMain.rt,textboxInstrMain2.started,textboxInstrMain2_2.started,textboxInstrMain2_3.started,textboxInstrMain2_4.started,textboxInstrMain2_5.started,textboxInstrMain2_6.started,textboxInstrMain2_7.started,textboxInstrMain2_8.started,textboxInstrMain2_9.started,textboxInstrMain2_10.started,textboxInstrMain2_11.started,textboxInstrMain2_12.started,keyInstrMain2.started,keyInstrMain2.keys,keyInstrMain2.rt,fixationITI.started,fixationITI.stopped,polygonColour.started,polygonWhite.started,imageObject.started,polygonType.started,textInput.started,keyResp.started,micRespv2l3.started,keyResp.keys,keyResp.corr,keyResp.rt,subjResponse,micRespv2l3.clip,textBlankLoop.started,textBlankLoop.stopped,keyPause.keys,polygonColour.stopped,polygonWhite.stopped,imageObject.stopped,polygonType.stopped,textInput.stopped,keyResp.stopped,textboxPause.started,keyPause.started,keyPause.rt,textboxGoodbye.started,textboxGoodbye.stopped,participant,session,date,expName,psychopyVersion,frameRate,
,,,,,,,,,,,,,,,,,,,,,10.256973199546337,12.754934899508953,12.754934899508953,12.754934899508953,12.754934899508953,space,5.034193300642073,,,,,,,,,,,,,,,,,,,,,,,,,,,,,,,,,,,,,,,,,,,,460203,001,2024-01-24_16h38.36.496,REPSWITCH1_version2_list3,2022.2.4,144.01585381510324,
,,,,,,,,,,,,,,,,,,,,,,,,,,,,17.804205499589443,17.804205499589443,17.804205499589443,17.804205499589443,17.804205499589443,17.804205499589443,17.804205499589443,17.804205499589443,17.804205499589443,17.804205499589443,17.804205499589443,17.804205499589443,17.804205499589443,space,0.7304498003795743,,,,,,,,,,,,,,,,,,,,,,,,,,,,,460203,001,2024-01-24_16h38.36.496,REPSWITCH1_version2_list3,2022.2.4,144.01585381510324,
REPSWITCH1/PICTURE_663.png,columna,type,gold,filler,1,F,1,2,3,2,Extra6,0,None,1,0,1,0,0,0,0,,,,,,,,,,,,,,,,,,,,,,,18.63771429937333,19.728109899908304,19.728109899908304,19.728109899908304,19.728109899908304,19.728109899908304,19.728109899908304,19.728109899908304,19.728109899908304,"['c', 'o']",0,"[2.1249543000012636, 2.4562029000371695]",co,C:\2023\REPSWITCH21092023\REPSWITCH_excgange\REPSWITCH_excgange\data/460203_REPSWITCH1_version2_list3_2024-01-24_16h38.36.496_micRespv2l3_recorded\recording_micRespv2l3_2024-01-24_16h38.50.839.wav,22.749281900003552,23.249378900043666,None,,,,,,,,,,,,460203,001,2024-01-24_16h38.36.496,REPSWITCH1_version2_list3,2022.2.4,144.01585381510324,
REPSWITCH1/PICTURE_128.png,muñeca,speak,darkblue,nontarget,2,NT,1,2,3,2,Stim4_Set1,1,switch,2,1,2,0,1,1,1,,,,,,,,,,,,,,,,,,,,,,,23.249378900043666,24.45095739979297,24.45095739979297,24.45095739979297,24.45095739979297,24.45095739979297,24.45095739979297,24.45095739979297,24.45095739979297,None,0,,,C:\2023\REPSWITCH21092023\REPSWITCH_excgange\REPSWITCH_excgange\data/460203_REPSWITCH1_version2_list3_2024-01-24_16h38.36.496_micRespv2l3_recorded\recording_micRespv2l3_2024-01-24_16h38.55.565.wav,27.479065000079572,,None,27.479065000079572,27.479065000079572,27.479065000079572,27.479065000079572,27.479065000079572,27.479065000079572,,,,,,460203,001,2024-01-24_16h38.36.496,REPSWITCH1_version2_list3,2022.2.4,144.01585381510324,
REPSWITCH1/PICTURE_128.png,muñeca,speak,darkblue,repeat,2,T,1,2,3,2,Stim4_Set1,0,None,3,2,3,0,2,2,2,,,,,,,,,,,,,,,,,,,,,,,27.979166800156236,29.034916299395263,29.034916299395263,29.034916299395263,29.034916299395263,29.034916299395263,29.034916299395263,29.034916299395263,29.034916299395263,None,0,,,C:\2023\REPSWITCH21092023\REPSWITCH_excgange\REPSWITCH_excgange\data/460203_REPSWITCH1_version2_list3_2024-01-24_16h38.36.496_micRespv2l3_recorded\recording_micRespv2l3_2024-01-24_16h39.00.150.wav,32.06303089950234,32.563099700026214,None,32.06303089950234,32.06303089950234,32.06303089950234,32.06303089950234,32.06303089950234,32.06303089950234,,,,,,460203,001,2024-01-24_16h38.36.496,REPSWITCH1_version2_list3,2022.2.4,144.01585381510324,
REPSWITCH1/PICTURE_8.png,pierna,type,gold,filler,1,F,1,2,3,2,Stim3_Set4,0,None,4,3,4,0,3,3,3,,,,,,,,,,,,,,,,,,,,,,,32.563099700026214,33.653523500077426,33.653523500077426,33.653523500077426,33.653523500077426,33.653523500077426,33.653523500077426,33.653523500077426,33.653523500077426,"['p', 'i', 'e', 'r']",0,"[1.2637969003990293, 2.2940194001421332, 2.4614645997062325, 2.608949400484562]",pier,C:\2023\REPSWITCH21092023\REPSWITCH_excgange\REPSWITCH_excgange\data/460203_REPSWITCH1_version2_list3_2024-01-24_16h38.36.496_micRespv2l3_recorded\recording_micRespv2l3_2024-01-24_16h39.04.768.wav,36.67475179955363,37.174804399721324,None,36.67475179955363,36.67475179955363,36.67475179955363,36.67475179955363,36.67475179955363,36.67475179955363,,,,,,460203,001,2024-01-24_16h38.36.496,REPSWITCH1_version2_list3,2022.2.4,144.01585381510324,
REPSWITCH1/PICTURE_135.png,traje,speak,darkblue,nontarget,2,NT,1,2,3,2,Stim3_Set1,1,switch,5,4,5,0,4,4,4,,,,,,,,,,,,,,,,,,,,,,,37.174804399721324,38.20271770004183,38.20271770004183,38.20271770004183,38.20271770004183,38.20271770004183,38.20271770004183,38.20271770004183,38.20271770004183,None,0,,,C:\2023\REPSWITCH21092023\REPSWITCH_excgange\REPSWITCH_excgange\data/460203_REPSWITCH1_version2_list3_2024-01-24_16h38.36.496_micRespv2l3_recorded\recording_micRespv2l3_2024-01-24_16h39.09.318.wav,41.223967699334025,41.72402250021696,None,41.223967699334025,41.223967699334025,41.223967699334025,41.223967699334025,41.223967699334025,41.223967699334025,,,,,,460203,001,2024-01-24_16h38.36.496,REPSWITCH1_version2_list3,2022.2.4,144.01585381510324,
REPSWITCH1/PICTURE_135.png,traje,speak,darkblue,repeat,2,T,1,2,3,2,Stim3_Set1,0,None,6,5,6,0,5,5,5,,,,,,,,,,,,,,,,,,,,,,,41.72402250021696,42.81449539959431,42.81449539959431,42.81449539959431,42.81449539959431,42.81449539959431,42.81449539959431,42.81449539959431,42.81449539959431,None,0,,,C:\2023\REPSWITCH21092023\REPSWITCH_excgange\REPSWITCH_excgange\data/460203_REPSWITCH1_version2_list3_2024-01-24_16h38.36.496_micRespv2l3_recorded\recording_micRespv2l3_2024-01-24_16h39.13.930.wav,45.84259669948369,,None,45.84259669948369,45.84259669948369,45.84259669948369,45.84259669948369,45.84259669948369,45.84259669948369,,,,,,460203,001,2024-01-24_16h38.36.496,REPSWITCH1_version2_list3,2022.2.4,144.01585381510324,
REPSWITCH1/PICTURE_673.png,tenedor,type,gold,filler,1,F,1,2,3,2,Extra5,0,None,7,6,7,0,6,6,6,,,,,,,,,,,,,,,,,,,,,,,46.34267049934715,47.41919879987836,47.41919879987836,47.41919879987836,47.41919879987836,47.41919879987836,47.41919879987836,47.41919879987836,47.41919879987836,"['t', 'e', 'n', 'e', 'd', 'o', 'r']",0,"[1.0170782003551722, 1.249223600141704, 1.3668298004195094, 1.4710980001837015, 1.6825769003480673, 1.758624100126326, 1.8845589002594352]",tenedor,C:\2023\REPSWITCH21092023\REPSWITCH_excgange\REPSWITCH_excgange\data/460203_REPSWITCH1_version2_list3_2024-01-24_16h38.36.496_micRespv2l3_recorded\recording_micRespv2l3_2024-01-24_16h39.18.534.wav,50.44044610019773,50.940553199499846,None,50.44044610019773,50.44044610019773,50.44044610019773,50.44044610019773,50.44044610019773,50.44044610019773,,,,,,460203,001,2024-01-24_16h38.36.496,REPSWITCH1_version2_list3,2022.2.4,144.01585381510324,
REPSWITCH1/PICTURE_728.png,pulpo,speak,darkblue,filler,2,F,1,2,3,2,Stim8_Set4,0,None,8,7,8,0,7,7,7,,,,,,,,,,,,,,,,,,,,,,,50.940553199499846,52.051824799738824,52.051824799738824,52.051824799738824,52.051824799738824,52.051824799738824,52.051824799738824,52.051824799738824,52.051824799738824,None,0,,,C:\2023\REPSWITCH21092023\REPSWITCH_excgange\REPSWITCH_excgange\data/460203_REPSWITCH1_version2_list3_2024-01-24_16h38.36.496_micRespv2l3_recorded\recording_micRespv2l3_2024-01-24_16h39.23.166.wav,55.07302179932594,55.57312879990786,None,55.07302179932594,55.07302179932594,55.07302179932594,55.07302179932594,55.07302179932594,55.07302179932594,,,,,,460203,001,2024-01-24_16h38.36.496,REPSWITCH1_version2_list3,2022.2.4,144.01585381510324,
REPSWITCH1/PICTURE_16.png,cazador,speak,darkblue,nontarget,2,NT,1,2,3,2,Stim6_Set1,1,repeat,9,8,9,0,8,8,8,,,,,,,,,,,,,,,,,,,,,,,55.57312879990786,56.656592699699104,56.656592699699104,56.656592699699104,56.656592699699104,56.656592699699104,56.656592699699104,56.656592699699104,56.656592699699104,None,0,,,C:\2023\REPSWITCH21092023\REPSWITCH_excgange\REPSWITCH_excgange\data/460203_REPSWITCH1_version2_list3_2024-01-24_16h38.36.496_micRespv2l3_recorded\recording_micRespv2l3_2024-01-24_16h39.27.771.wav,59.68470859993249,,None,59.68470859993249,59.68470859993249,59.68470859993249,59.68470859993249,59.68470859993249,59.68470859993249,,,,,,460203,001,2024-01-24_16h38.36.496,REPSWITCH1_version2_list3,2022.2.4,144.01585381510324,
REPSWITCH1/PICTURE_16.png,cazador,type,gold,switch,1,T,1,2,3,2,Stim6_Set1,0,None,10,9,10,0,9,9,9,,,,,,,,,,,,,,,,,,,,,,,60.18477699998766,61.219640099443495,61.219640099443495,61.219640099443495,61.219640099443495,61.219640099443495,61.219640099443495,61.219640099443495,61.219640099443495,"['c', 'a', 'z', 'a', 'd', 'p', 'r']",0,"[1.3903806004673243, 1.6415948001667857, 1.8613184001296759, 2.0317351007834077, 2.493379699997604, 2.629874600097537, 2.7896107006818056]",cazadpr,C:\2023\REPSWITCH21092023\REPSWITCH_excgange\REPSWITCH_excgange\data/460203_REPSWITCH1_version2_list3_2024-01-24_16h38.36.496_micRespv2l3_recorded\recording_micRespv2l3_2024-01-24_16h39.32.334.wav,64.24778059963137,,None,64.24778059963137,64.24778059963137,64.24778059963137,64.24778059963137,64.24778059963137,64.24778059963137,,,,,,460203,001,2024-01-24_16h38.36.496,REPSWITCH1_version2_list3,2022.2.4,144.01585381510324,
REPSWITCH1/PICTURE_498.png,taza,type,gold,filler,1,F,1,2,3,2,Stim4_Set4,1,repeat,11,10,11,0,10,10,10,,,,,,,,,,,,,,,,,,,,,,,64.74795180000365,65.78274459950626,65.78274459950626,65.78274459950626,65.78274459950626,65.78274459950626,65.78274459950626,65.78274459950626,65.78274459950626,"['t', 'a', 'z', 'a']",0,"[1.153344999998808, 1.578651400282979, 1.7690118998289108, 1.9386978996917605]",taza,C:\2023\REPSWITCH21092023\REPSWITCH_excgange\REPSWITCH_excgange\data/460203_REPSWITCH1_version2_list3_2024-01-24_16h38.36.496_micRespv2l3_recorded\recording_micRespv2l3_2024-01-24_16h39.36.898.wav,68.81090429984033,,None,68.81090429984033,68.81090429984033,68.81090429984033,68.81090429984033,68.81090429984033,68.81090429984033,,,,,,460203,001,2024-01-24_16h38.36.496,REPSWITCH1_version2_list3,2022.2.4,144.01585381510324,
REPSWITCH1/PICTURE_381.png,fresa,type,gold,nontarget,1,NT,1,2,3,2,Stim2_Set1,1,repeat,12,11,12,0,11,11,11,,,,,,,,,,,,,,,,,,,,,,,69.31104560010135,70.4916751999408,70.4916751999408,70.4916751999408,70.4916751999408,70.4916751999408,70.4916751999408,70.4916751999408,70.4916751999408,"['f', 'r', 'e', 's', 'a']",0,"[1.0927761998027563, 1.3004147000610828, 1.5325929000973701, 1.7370926002040505, 2.886811699718237]",fresa,C:\2023\REPSWITCH21092023\REPSWITCH_excgange\REPSWITCH_excgange\data/460203_REPSWITCH1_version2_list3_2024-01-24_16h38.36.496_micRespv2l3_recorded\recording_micRespv2l3_2024-01-24_16h39.41.607.wav,73.51290199998766,74.01297849975526,None,73.51290199998766,73.51290199998766,73.51290199998766,73.51290199998766,73.51290199998766,73.51290199998766,,,,,,460203,001,2024-01-24_16h38.36.496,REPSWITCH1_version2_list3,2022.2.4,144.01585381510324,
REPSWITCH1/PICTURE_381.png,fresa,speak,darkblue,switch,2,T,1,2,3,2,Stim2_Set1,0,None,13,12,13,0,12,12,12,,,,,,,,,,,,,,,,,,,,,,,74.01297849975526,75.20064780022949,75.20064780022949,75.20064780022949,75.20064780022949,75.20064780022949,75.20064780022949,75.20064780022949,75.20064780022949,None,0,,,C:\2023\REPSWITCH21092023\REPSWITCH_excgange\REPSWITCH_excgange\data/460203_REPSWITCH1_version2_list3_2024-01-24_16h38.36.496_micRespv2l3_recorded\recording_micRespv2l3_2024-01-24_16h39.46.316.wav,78.22880139946938,,None,78.22880139946938,78.22880139946938,78.22880139946938,78.22880139946938,78.22880139946938,78.22880139946938,,,,,,460203,001,2024-01-24_16h38.36.496,REPSWITCH1_version2_list3,2022.2.4,144.01585381510324,
REPSWITCH1/PICTURE_178.png,puente,speak,darkblue,nontarget,2,NT,1,2,3,2,Stim1_Set1,0,None,14,13,14,0,13,13,13,,,,,,,,,,,,,,,,,,,,,,,78.72887550015002,79.74985300004482,79.74985300004482,79.74985300004482,79.74985300004482,79.74985300004482,79.74985300004482,79.74985300004482,79.74985300004482,None,0,,,C:\2023\REPSWITCH21092023\REPSWITCH_excgange\REPSWITCH_excgange\data/460203_REPSWITCH1_version2_list3_2024-01-24_16h38.36.496_micRespv2l3_recorded\recording_micRespv2l3_2024-01-24_16h39.50.865.wav,82.77801429945976,,None,82.77801429945976,82.77801429945976,82.77801429945976,82.77801429945976,82.77801429945976,82.77801429945976,,,,,,460203,001,2024-01-24_16h38.36.496,REPSWITCH1_version2_list3,2022.2.4,144.01585381510324,
REPSWITCH1/PICTURE_178.png,puente,type,gold,switch,1,T,1,2,3,2,Stim1_Set1,0,None,15,14,15,0,14,14,14,,,,,,,,,,,,,,,,,,,,,,,83.27808349952102,84.33377890009433,84.33377890009433,84.33377890009433,84.33377890009433,84.33377890009433,84.33377890009433,84.33377890009433,84.33377890009433,"['p', 'e', 'n', 't', 'e']",0,"[1.285093099810183, 1.982036099769175, 2.0766725996509194, 2.3737073997035623, 2.4474724996834993]",pente,C:\2023\REPSWITCH21092023\REPSWITCH_excgange\REPSWITCH_excgange\data/460203_REPSWITCH1_version2_list3_2024-01-24_16h38.36.496_micRespv2l3_recorded\recording_micRespv2l3_2024-01-24_16h39.55.448.wav,87.36194979958236,,None,87.36194979958236,87.36194979958236,87.36194979958236,87.36194979958236,87.36194979958236,87.36194979958236,,,,,,460203,001,2024-01-24_16h38.36.496,REPSWITCH1_version2_list3,2022.2.4,144.01585381510324,
REPSWITCH1/PICTURE_719.png,baño,speak,darkblue,filler,2,F,1,2,3,2,Stim2_Set4,0,None,16,15,16,0,15,15,15,,,,,,,,,,,,,,,,,,,,,,,87.86209580022842,88.88994969986379,88.88994969986379,88.88994969986379,88.88994969986379,88.88994969986379,88.88994969986379,88.88994969986379,88.88994969986379,None,0,,,C:\2023\REPSWITCH21092023\REPSWITCH_excgange\REPSWITCH_excgange\data/460203_REPSWITCH1_version2_list3_2024-01-24_16h38.36.496_micRespv2l3_recorded\recording_micRespv2l3_2024-01-24_16h40.00.005.wav,91.91810719948262,,None,91.91810719948262,91.91810719948262,91.91810719948262,91.91810719948262,91.91810719948262,91.91810719948262,,,,,,460203,001,2024-01-24_16h38.36.496,REPSWITCH1_version2_list3,2022.2.4,144.01585381510324,
REPSWITCH1/PICTURE_169.png,espalda,type,gold,nontarget,1,NT,1,2,3,2,Stim8_Set1,1,switch,17,16,17,0,16,16,16,,,,,,,,,,,,,,,,,,,,,,,92.4181663999334,93.4738480001688,93.4738480001688,93.4738480001688,93.4738480001688,93.4738480001688,93.4738480001688,93.4738480001688,93.4738480001688,"['e', 's', 'p', 'a', 'l', 'd', 'a']",0,"[1.0413103001192212, 1.248287900350988, 1.6210492001846433, 1.7934581004083157, 1.9050543997436762, 2.074856400489807, 2.1367172999307513]",espalda,C:\2023\REPSWITCH21092023\REPSWITCH_excgange\REPSWITCH_excgange\data/460203_REPSWITCH1_version2_list3_2024-01-24_16h38.36.496_micRespv2l3_recorded\recording_micRespv2l3_2024-01-24_16h40.04.588.wav,96.49509510025382,96.99515829980373,None,96.49509510025382,96.49509510025382,96.49509510025382,96.49509510025382,96.49509510025382,96.49509510025382,,,,,,460203,001,2024-01-24_16h38.36.496,REPSWITCH1_version2_list3,2022.2.4,144.01585381510324,
REPSWITCH1/PICTURE_169.png,espalda,type,gold,repeat,1,T,1,2,3,2,Stim8_Set1,0,None,18,17,18,0,17,17,17,,,,,,,,,,,,,,,,,,,,,,,96.99515829980373,98.14816700015217,98.14816700015217,98.14816700015217,98.14816700015217,98.14816700015217,98.14816700015217,98.14816700015217,98.14816700015217,"['e', 's', 'p', 'a', 'l', 'd', 'a']",0,"[1.419179799966514, 1.6205025995150208, 2.3204680997878313, 2.540727799758315, 2.6632793992757797, 2.8825781997293234, 2.9433924993500113]",espalda,C:\2023\REPSWITCH21092023\REPSWITCH_excgange\REPSWITCH_excgange\data/460203_REPSWITCH1_version2_list3_2024-01-24_16h38.36.496_micRespv2l3_recorded\recording_micRespv2l3_2024-01-24_16h40.09.263.wav,101.17626459989697,,None,101.17626459989697,101.17626459989697,101.17626459989697,101.17626459989697,101.17626459989697,101.17626459989697,,,,,,460203,001,2024-01-24_16h38.36.496,REPSWITCH1_version2_list3,2022.2.4,144.01585381510324,
REPSWITCH1/PICTURE_48.png,bombero,speak,darkblue,filler,2,F,1,2,3,2,Stim7_Set4,1,switch,19,18,19,0,18,18,18,,,,,,,,,,,,,,,,,,,,,,,101.6763295000419,102.77371970005333,102.77371970005333,102.77371970005333,102.77371970005333,102.77371970005333,102.77371970005333,102.77371970005333,102.77371970005333,None,0,,,C:\2023\REPSWITCH21092023\REPSWITCH_excgange\REPSWITCH_excgange\data/460203_REPSWITCH1_version2_list3_2024-01-24_16h38.36.496_micRespv2l3_recorded\recording_micRespv2l3_2024-01-24_16h40.13.889.wav,105.79493709933013,106.29501669947058,None,105.79493709933013,105.79493709933013,105.79493709933013,105.79493709933013,105.79493709933013,105.79493709933013,,,,,,460203,001,2024-01-24_16h38.36.496,REPSWITCH1_version2_list3,2022.2.4,144.01585381510324,
REPSWITCH1/PICTURE_19.png,pavo,type,gold,nontarget,1,NT,1,2,3,2,Stim5_Set1,1,switch,20,19,20,0,19,19,19,,,,,,,,,,,,,,,,,,,,,,,106.29501669947058,107.35759819950908,107.35759819950908,107.35759819950908,107.35759819950908,107.35759819950908,107.35759819950908,107.35759819950908,107.35759819950908,"['p', 'a', 'v', 'o']",0,"[1.0285384999588132, 1.2218712996691465, 1.607047200202942, 1.710967100225389]",pavo,C:\2023\REPSWITCH21092023\REPSWITCH_excgange\REPSWITCH_excgange\data/460203_REPSWITCH1_version2_list3_2024-01-24_16h38.36.496_micRespv2l3_recorded\recording_micRespv2l3_2024-01-24_16h40.18.473.wav,110.38585579954088,,None,110.38585579954088,110.38585579954088,110.38585579954088,110.38585579954088,110.38585579954088,110.38585579954088,,,,,,460203,001,2024-01-24_16h38.36.496,REPSWITCH1_version2_list3,2022.2.4,144.01585381510324,
REPSWITCH1/PICTURE_19.png,pavo,type,gold,repeat,1,T,1,2,3,2,Stim5_Set1,0,None,21,20,21,0,20,20,20,,,,,,,,,,,,,,,,,,,,,,,110.88585279975086,112.06655390001833,112.06655390001833,112.06655390001833,112.06655390001833,112.06655390001833,112.06655390001833,112.06655390001833,112.06655390001833,"['p', 'a', 'v', 'p', 'backspace']",0,"[0.8489584000781178, 0.9675878006964922, 1.2320185005664825, 1.4074496002867818, 2.1229530004784465]",pav,C:\2023\REPSWITCH21092023\REPSWITCH_excgange\REPSWITCH_excgange\data/460203_REPSWITCH1_version2_list3_2024-01-24_16h38.36.496_micRespv2l3_recorded\recording_micRespv2l3_2024-01-24_16h40.23.182.wav,115.09482329990715,115.59481329936534,None,115.09482329990715,115.09482329990715,115.09482329990715,115.09482329990715,115.09482329990715,115.09482329990715,,,,,,460203,001,2024-01-24_16h38.36.496,REPSWITCH1_version2_list3,2022.2.4,144.01585381510324,
REPSWITCH1/PICTURE_319.png,vaca,speak,darkblue,filler,2,F,1,2,3,2,Stim1_Set4,0,None,22,21,22,0,21,21,21,,,,,,,,,,,,,,,,,,,,,,,115.59481329936534,116.67835189960897,116.67835189960897,116.67835189960897,116.67835189960897,116.67835189960897,116.67835189960897,116.67835189960897,116.67835189960897,"['v', 'a', 'c', 'a']",0,"[1.0339611005038023, 1.2960688006132841, 1.742526300251484, 1.90498820040375]",vaca,C:\2023\REPSWITCH21092023\REPSWITCH_excgange\REPSWITCH_excgange\data/460203_REPSWITCH1_version2_list3_2024-01-24_16h38.36.496_micRespv2l3_recorded\recording_micRespv2l3_2024-01-24_16h40.27.794.wav,119.70646829996258,,None,119.70646829996258,119.70646829996258,119.70646829996258,119.70646829996258,119.70646829996258,119.70646829996258,,,,,,460203,001,2024-01-24_16h38.36.496,REPSWITCH1_version2_list3,2022.2.4,144.01585381510324,
REPSWITCH1/PICTURE_338.png,regalo,type,gold,filler,1,F,1,2,3,2,Stim6_Set4,0,None,23,22,23,0,22,22,22,,,,,,,,,,,,,,,,,,,,,,,120.20650860015303,121.27613149955869,121.27613149955869,121.27613149955869,121.27613149955869,121.27613149955869,121.27613149955869,121.27613149955869,121.27613149955869,"['r', 'e', 'g']",0,"[2.4162711007520556, 2.5058911005035043, 2.7872243002057076]",reg,C:\2023\REPSWITCH21092023\REPSWITCH_excgange\REPSWITCH_excgange\data/460203_REPSWITCH1_version2_list3_2024-01-24_16h38.36.496_micRespv2l3_recorded\recording_micRespv2l3_2024-01-24_16h40.32.391.wav,124.29734459985048,124.79739839956164,None,124.29734459985048,124.29734459985048,124.29734459985048,124.29734459985048,124.29734459985048,124.29734459985048,,,,,,460203,001,2024-01-24_16h38.36.496,REPSWITCH1_version2_list3,2022.2.4,144.01585381510324,
REPSWITCH1/PICTURE_142.png,vaso,type,gold,nontarget,1,NT,1,2,3,2,Stim7_Set1,0,None,24,23,24,0,23,23,23,,,,,,,,,,,,,,,,,,,,,,,124.79739839956164,125.89484039973468,125.89484039973468,125.89484039973468,125.89484039973468,125.89484039973468,125.89484039973468,125.89484039973468,125.89484039973468,"['v', 'a', 's', 'o']",0,"[1.1900327000766993, 1.3803981002420187, 1.4541463004425168, 2.256731200031936]",vaso,C:\2023\REPSWITCH21092023\REPSWITCH_excgange\REPSWITCH_excgange\data/460203_REPSWITCH1_version2_list3_2024-01-24_16h38.36.496_micRespv2l3_recorded\recording_micRespv2l3_2024-01-24_16h40.37.009.wav,128.92294619977474,,None,128.92294619977474,128.92294619977474,128.92294619977474,128.92294619977474,128.92294619977474,128.92294619977474,,,,,,460203,001,2024-01-24_16h38.36.496,REPSWITCH1_version2_list3,2022.2.4,144.01585381510324,
REPSWITCH1/PICTURE_142.png,vaso,speak,darkblue,switch,2,T,1,2,3,2,Stim7_Set1,0,None,25,24,25,0,24,24,24,,,,,,,,,,,,,,,,,,,,,,,129.42301899939775,130.562043200247,130.562043200247,130.562043200247,130.562043200247,130.562043200247,130.562043200247,130.562043200247,130.562043200247,None,0,,,C:\2023\REPSWITCH21092023\REPSWITCH_excgange\REPSWITCH_excgange\data/460203_REPSWITCH1_version2_list3_2024-01-24_16h38.36.496_micRespv2l3_recorded\recording_micRespv2l3_2024-01-24_16h40.41.677.wav,133.58326550014317,134.08333559986204,None,133.58326550014317,133.58326550014317,133.58326550014317,133.58326550014317,133.58326550014317,133.58326550014317,,,,,,460203,001,2024-01-24_16h38.36.496,REPSWITCH1_version2_list3,2022.2.4,144.01585381510324,
REPSWITCH1/PICTURE_687.png,camisa,type,gold,filler,1,F,1,2,3,2,Stim5_Set4,1,switch,26,25,26,0,25,25,25,,,,,,,,,,,,,,,,,,,,,,,134.08333559986204,135.1043408997357,135.1043408997357,135.1043408997357,135.1043408997357,135.1043408997357,135.1043408997357,135.1043408997357,135.1043408997357,"['c', 'a', 'm', 'i', 's', 'a']",0,"[1.1810599006712437, 1.3016842007637024, 1.5373841002583504, 1.6609085006639361, 1.8163906000554562, 1.9184215003624558]",camisa,C:\2023\REPSWITCH21092023\REPSWITCH_excgange\REPSWITCH_excgange\data/460203_REPSWITCH1_version2_list3_2024-01-24_16h38.36.496_micRespv2l3_recorded\recording_micRespv2l3_2024-01-24_16h40.46.219.wav,138.1255152998492,138.62559279985726,None,138.1255152998492,138.1255152998492,138.1255152998492,138.1255152998492,138.1255152998492,138.1255152998492,,,,,,460203,001,2024-01-24_16h38.36.496,REPSWITCH1_version2_list3,2022.2.4,144.01585381510324,
REPSWITCH1/PICTURE_30.png,granja,type,gold,nontarget,1,NT,2,2,3,2,Stim5_Set2,0,None,27,26,27,0,26,26,26,,,,,,,,,,,,,,,,,,,,,,,138.62559279985726,139.67432809993625,139.67432809993625,139.67432809993625,139.67432809993625,139.67432809993625,139.67432809993625,139.67432809993625,139.67432809993625,"['g', 'r', 'a', 'n', 'j', 'a']",0,"[1.2378100007772446, 1.3304994003847241, 1.573135000653565, 1.6816897001117468, 2.0535629000514746, 2.1721456004306674]",granja,C:\2023\REPSWITCH21092023\REPSWITCH_excgange\REPSWITCH_excgange\data/460203_REPSWITCH1_version2_list3_2024-01-24_16h38.36.496_micRespv2l3_recorded\recording_micRespv2l3_2024-01-24_16h40.50.790.wav,142.70251639932394,,None,142.70251639932394,142.70251639932394,142.70251639932394,142.70251639932394,142.70251639932394,142.70251639932394,,,,,,460203,001,2024-01-24_16h38.36.496,REPSWITCH1_version2_list3,2022.2.4,144.01585381510324,
REPSWITCH1/PICTURE_30.png,granja,type,gold,repeat,1,T,2,2,3,2,Stim5_Set2,0,None,28,27,28,0,27,27,27,,,,,,,,,,,,,,,,,,,,,,,143.20258789975196,144.32079449947923,144.32079449947923,144.32079449947923,144.32079449947923,144.32079449947923,144.32079449947923,144.32079449947923,144.32079449947923,"['g', 'r', 'a', 'j', 'a']",0,"[1.0141880000010133, 1.0610518008470535, 1.2802985003218055, 1.587283200584352, 1.7070363005623221]",graja,C:\2023\REPSWITCH21092023\REPSWITCH_excgange\REPSWITCH_excgange\data/460203_REPSWITCH1_version2_list3_2024-01-24_16h38.36.496_micRespv2l3_recorded\recording_micRespv2l3_2024-01-24_16h40.55.436.wav,147.3489800002426,,None,147.3489800002426,147.3489800002426,147.3489800002426,147.3489800002426,147.3489800002426,147.3489800002426,,,,,,460203,001,2024-01-24_16h38.36.496,REPSWITCH1_version2_list3,2022.2.4,144.01585381510324,
REPSWITCH1/PICTURE_128.png,muñeca,speak,darkblue,filler,2,F,2,2,3,2,Stim4_Set1,0,None,29,28,29,0,28,28,28,,,,,,,,,,,,,,,,,,,,,,,147.84905060008168,148.93254300020635,148.93254300020635,148.93254300020635,148.93254300020635,148.93254300020635,148.93254300020635,148.93254300020635,148.93254300020635,None,0,,,C:\2023\REPSWITCH21092023\REPSWITCH_excgange\REPSWITCH_excgange\data/460203_REPSWITCH1_version2_list3_2024-01-24_16h38.36.496_micRespv2l3_recorded\recording_micRespv2l3_2024-01-24_16h41.00.048.wav,151.96070509962738,,None,151.96070509962738,151.96070509962738,151.96070509962738,151.96070509962738,151.96070509962738,151.96070509962738,,,,,,460203,001,2024-01-24_16h38.36.496,REPSWITCH1_version2_list3,2022.2.4,144.01585381510324,
REPSWITCH1/PICTURE_264.png,mano,type,gold,nontarget,1,NT,2,2,3,2,Stim3_Set2,1,switch,30,29,30,0,29,29,29,,,,,,,,,,,,,,,,,,,,,,,152.46074789948761,153.5581457996741,153.5581457996741,153.5581457996741,153.5581457996741,153.5581457996741,153.5581457996741,153.5581457996741,153.5581457996741,"['m', 'a', 'n', 'o']",0,"[0.9279098995029926, 1.0511365998536348, 1.151800099760294, 1.5478322999551892]",mano,C:\2023\REPSWITCH21092023\REPSWITCH_excgange\REPSWITCH_excgange\data/460203_REPSWITCH1_version2_list3_2024-01-24_16h38.36.496_micRespv2l3_recorded\recording_micRespv2l3_2024-01-24_16h41.04.673.wav,156.58636409975588,,None,156.58636409975588,156.58636409975588,156.58636409975588,156.58636409975588,156.58636409975588,156.58636409975588,,,,,,460203,001,2024-01-24_16h38.36.496,REPSWITCH1_version2_list3,2022.2.4,144.01585381510324,
REPSWITCH1/PICTURE_264.png,mano,type,gold,repeat,1,T,2,2,3,2,Stim3_Set2,0,None,31,30,31,0,30,30,30,,,,,,,,,,,,,,,,,,,,,,,157.08635109942406,158.13516819942743,158.13516819942743,158.13516819942743,158.13516819942743,158.13516819942743,158.13516819942743,158.13516819942743,158.13516819942743,"['m', 'a', 'n', 'o']",0,"[0.8486345000565052, 0.9752038000151515, 1.098035299219191, 1.5210737995803356]",mano,C:\2023\REPSWITCH21092023\REPSWITCH_excgange\REPSWITCH_excgange\data/460203_REPSWITCH1_version2_list3_2024-01-24_16h38.36.496_micRespv2l3_recorded\recording_micRespv2l3_2024-01-24_16h41.09.250.wav,161.16329549998045,,None,161.16329549998045,161.16329549998045,161.16329549998045,161.16329549998045,161.16329549998045,161.16329549998045,,,,,,460203,001,2024-01-24_16h38.36.496,REPSWITCH1_version2_list3,2022.2.4,144.01585381510324,
REPSWITCH1/PICTURE_175.png,pintor,type,gold,nontarget,1,NT,2,2,3,2,Stim1_Set2,0,None,32,31,32,0,31,31,31,,,,,,,,,,,,,,,,,,,,,,,161.66333559993654,162.75385469943285,162.75385469943285,162.75385469943285,162.75385469943285,162.75385469943285,162.75385469943285,162.75385469943285,162.75385469943285,"['p', 'i', 'n', 't', 'o', 'r']",0,"[1.5273055005818605, 1.8392460998147726, 1.9986776998266578, 2.1864287005737424, 2.2674668999388814, 2.363150800578296]",pintor,C:\2023\REPSWITCH21092023\REPSWITCH_excgange\REPSWITCH_excgange\data/460203_REPSWITCH1_version2_list3_2024-01-24_16h38.36.496_micRespv2l3_recorded\recording_micRespv2l3_2024-01-24_16h41.13.869.wav,165.77505540009588,166.27507689967752,None,165.77505540009588,165.77505540009588,165.77505540009588,165.77505540009588,165.77505540009588,165.77505540009588,,,,,,460203,001,2024-01-24_16h38.36.496,REPSWITCH1_version2_list3,2022.2.4,144.01585381510324,
REPSWITCH1/PICTURE_175.png,pintor,speak,darkblue,switch,2,T,2,2,3,2,Stim1_Set2,0,None,33,32,33,0,32,32,32,,,,,,,,,,,,,,,,,,,,,,,166.27507689967752,167.31685830000788,167.31685830000788,167.31685830000788,167.31685830000788,167.31685830000788,167.31685830000788,167.31685830000788,167.31685830000788,None,0,,,C:\2023\REPSWITCH21092023\REPSWITCH_excgange\REPSWITCH_excgange\data/460203_REPSWITCH1_version2_list3_2024-01-24_16h38.36.496_micRespv2l3_recorded\recording_micRespv2l3_2024-01-24_16h41.18.431.wav,170.34507779963315,,None,170.34507779963315,170.34507779963315,170.34507779963315,170.34507779963315,170.34507779963315,170.34507779963315,,,,,,460203,001,2024-01-24_16h38.36.496,REPSWITCH1_version2_list3,2022.2.4,144.01585381510324,
REPSWITCH1/PICTURE_135.png,traje,speak,darkblue,filler,2,F,2,2,3,2,Stim3_Set1,1,repeat,34,33,34,0,33,33,33,,,,,,,,,,,,,,,,,,,,,,,170.8451172998175,171.95637239981443,171.95637239981443,171.95637239981443,171.95637239981443,171.95637239981443,171.95637239981443,171.95637239981443,171.95637239981443,None,0,,,C:\2023\REPSWITCH21092023\REPSWITCH_excgange\REPSWITCH_excgange\data/460203_REPSWITCH1_version2_list3_2024-01-24_16h38.36.496_micRespv2l3_recorded\recording_micRespv2l3_2024-01-24_16h41.23.070.wav,174.9775933995843,175.47773479949683,None,174.9775933995843,174.9775933995843,174.9775933995843,174.9775933995843,174.9775933995843,174.9775933995843,,,,,,460203,001,2024-01-24_16h38.36.496,REPSWITCH1_version2_list3,2022.2.4,144.01585381510324,
REPSWITCH1/PICTURE_446.png,cerdo,speak,darkblue,nontarget,2,NT,2,2,3,2,Stim7_Set2,1,repeat,35,34,35,0,34,34,34,,,,,,,,,,,,,,,,,,,,,,,175.47773479949683,176.54723889939487,176.54723889939487,176.54723889939487,176.54723889939487,176.54723889939487,176.54723889939487,176.54723889939487,176.54723889939487,None,0,,,C:\2023\REPSWITCH21092023\REPSWITCH_excgange\REPSWITCH_excgange\data/460203_REPSWITCH1_version2_list3_2024-01-24_16h38.36.496_micRespv2l3_recorded\recording_micRespv2l3_2024-01-24_16h41.27.661.wav,179.5684621995315,180.06852409988642,None,179.5684621995315,179.5684621995315,179.5684621995315,179.5684621995315,179.5684621995315,179.5684621995315,,,,,,460203,001,2024-01-24_16h38.36.496,REPSWITCH1_version2_list3,2022.2.4,144.01585381510324,
REPSWITCH1/PICTURE_446.png,cerdo,type,gold,switch,1,T,2,2,3,2,Stim7_Set2,0,None,36,35,36,0,35,35,35,,,,,,,,,,,,,,,,,,,,,,,180.06852409988642,181.12425460014492,181.12425460014492,181.12425460014492,181.12425460014492,181.12425460014492,181.12425460014492,181.12425460014492,181.12425460014492,"['c', 'e', 'r', 'd', 'o']",0,"[1.218911100178957, 1.3784233005717397, 1.4730906998738647, 1.6928989998996258, 1.7845846004784107]",cerdo,C:\2023\REPSWITCH21092023\REPSWITCH_excgange\REPSWITCH_excgange\data/460203_REPSWITCH1_version2_list3_2024-01-24_16h38.36.496_micRespv2l3_recorded\recording_micRespv2l3_2024-01-24_16h41.32.238.wav,184.14545040018857,184.64552209991962,None,184.14545040018857,184.14545040018857,184.14545040018857,184.14545040018857,184.14545040018857,184.14545040018857,,,,,,460203,001,2024-01-24_16h38.36.496,REPSWITCH1_version2_list3,2022.2.4,144.01585381510324,
REPSWITCH1/PICTURE_152.png,caracol,type,gold,nontarget,1,NT,2,2,3,2,Stim2_Set2,1,repeat,37,36,37,0,36,36,36,,,,,,,,,,,,,,,,,,,,,,,184.64552209991962,185.6734612993896,185.6734612993896,185.6734612993896,185.6734612993896,185.6734612993896,185.6734612993896,185.6734612993896,185.6734612993896,"['c', 'a', 'r', 'a', 'c']",0,"[1.778295699506998, 1.929879899136722, 2.0133615992963314, 2.130654599517584, 2.318032699637115]",carac,C:\2023\REPSWITCH21092023\REPSWITCH_excgange\REPSWITCH_excgange\data/460203_REPSWITCH1_version2_list3_2024-01-24_16h38.36.496_micRespv2l3_recorded\recording_micRespv2l3_2024-01-24_16h41.36.788.wav,188.70163009967655,,None,188.70163009967655,188.70163009967655,188.70163009967655,188.70163009967655,188.70163009967655,188.70163009967655,,,,,,460203,001,2024-01-24_16h38.36.496,REPSWITCH1_version2_list3,2022.2.4,144.01585381510324,
REPSWITCH1/PICTURE_152.png,caracol,speak,darkblue,switch,2,T,2,2,3,2,Stim2_Set2,0,None,38,37,38,0,37,37,37,,,,,,,,,,,,,,,,,,,,,,,189.20168690010905,190.26432910002768,190.26432910002768,190.26432910002768,190.26432910002768,190.26432910002768,190.26432910002768,190.26432910002768,190.26432910002768,None,0,,,C:\2023\REPSWITCH21092023\REPSWITCH_excgange\REPSWITCH_excgange\data/460203_REPSWITCH1_version2_list3_2024-01-24_16h38.36.496_micRespv2l3_recorded\recording_micRespv2l3_2024-01-24_16h41.41.379.wav,193.28552869986743,193.7856259997934,None,193.28552869986743,193.28552869986743,193.28552869986743,193.28552869986743,193.28552869986743,193.28552869986743,,,,,,460203,001,2024-01-24_16h38.36.496,REPSWITCH1_version2_list3,2022.2.4,144.01585381510324,
REPSWITCH1/PICTURE_16.png,cazador,type,gold,filler,1,F,2,2,3,2,Stim6_Set1,0,None,39,38,39,0,38,38,38,,,,,,,,,,,,,,,,,,,,,,,193.7856259997934,195.04967129975557,195.04967129975557,195.04967129975557,195.04967129975557,195.04967129975557,195.04967129975557,195.04967129975557,195.04967129975557,"['c', 'a', 'z', 'a', 'd', 'o', 'r']",0,"[1.0396000994369388, 1.173208199441433, 1.5524505991488695, 1.7364231999963522, 1.8709466997534037, 2.01968149933964, 2.1223340993747115]",cazador,C:\2023\REPSWITCH21092023\REPSWITCH_excgange\REPSWITCH_excgange\data/460203_REPSWITCH1_version2_list3_2024-01-24_16h38.36.496_micRespv2l3_recorded\recording_micRespv2l3_2024-01-24_16h41.46.165.wav,198.07785260025412,,None,198.07785260025412,198.07785260025412,198.07785260025412,198.07785260025412,198.07785260025412,198.07785260025412,,,,,,460203,001,2024-01-24_16h38.36.496,REPSWITCH1_version2_list3,2022.2.4,144.01585381510324,
REPSWITCH1/PICTURE_381.png,fresa,speak,darkblue,filler,2,F,2,2,3,2,Stim2_Set1,0,None,40,39,40,0,39,39,39,,,,,,,,,,,,,,,,,,,,,,,198.57799729984254,199.68918459955603,199.68918459955603,199.68918459955603,199.68918459955603,199.68918459955603,199.68918459955603,199.68918459955603,199.68918459955603,None,0,,,C:\2023\REPSWITCH21092023\REPSWITCH_excgange\REPSWITCH_excgange\data/460203_REPSWITCH1_version2_list3_2024-01-24_16h38.36.496_micRespv2l3_recorded\recording_micRespv2l3_2024-01-24_16h41.50.804.wav,202.71731369942427,,None,202.71731369942427,202.71731369942427,202.71731369942427,202.71731369942427,202.71731369942427,202.71731369942427,,,,,,460203,001,2024-01-24_16h38.36.496,REPSWITCH1_version2_list3,2022.2.4,144.01585381510324,
REPSWITCH1/PICTURE_19.png,pavo,type,gold,filler,1,F,2,2,3,2,Stim5_Set1,0,None,41,40,41,0,40,40,40,,,,,,,,,,,,,,,,,,,,,,,203.21739559993148,204.28703199978918,204.28703199978918,204.28703199978918,204.28703199978918,204.28703199978918,204.28703199978918,204.28703199978918,204.28703199978918,"['p', 'a', 'v', 'o']",0,"[1.0284973001107574, 1.1332773994654417, 1.3300304999575019, 1.3951731994748116]",pavo,C:\2023\REPSWITCH21092023\REPSWITCH_excgange\REPSWITCH_excgange\data/460203_REPSWITCH1_version2_list3_2024-01-24_16h38.36.496_micRespv2l3_recorded\recording_micRespv2l3_2024-01-24_16h41.55.402.wav,207.3152558999136,,None,207.3152558999136,207.3152558999136,207.3152558999136,207.3152558999136,207.3152558999136,207.3152558999136,,,,,,460203,001,2024-01-24_16h38.36.496,REPSWITCH1_version2_list3,2022.2.4,144.01585381510324,
REPSWITCH1/PICTURE_517.png,cuerda,speak,darkblue,nontarget,2,NT,2,2,3,2,Stim4_Set2,1,switch,42,41,42,0,41,41,41,,,,,,,,,,,,,,,,,,,,,,,207.81530679948628,208.83623189944774,208.83623189944774,208.83623189944774,208.83623189944774,208.83623189944774,208.83623189944774,208.83623189944774,208.83623189944774,None,0,,,C:\2023\REPSWITCH21092023\REPSWITCH_excgange\REPSWITCH_excgange\data/460203_REPSWITCH1_version2_list3_2024-01-24_16h38.36.496_micRespv2l3_recorded\recording_micRespv2l3_2024-01-24_16h41.59.951.wav,211.8643635995686,,None,211.8643635995686,211.8643635995686,211.8643635995686,211.8643635995686,211.8643635995686,211.8643635995686,,,,,,460203,001,2024-01-24_16h38.36.496,REPSWITCH1_version2_list3,2022.2.4,144.01585381510324,
REPSWITCH1/PICTURE_517.png,cuerda,speak,darkblue,repeat,2,T,2,2,3,2,Stim4_Set2,0,None,43,42,43,0,42,42,42,,,,,,,,,,,,,,,,,,,,,,,212.36441219970584,213.5243317997083,213.5243317997083,213.5243317997083,213.5243317997083,213.5243317997083,213.5243317997083,213.5243317997083,213.5243317997083,None,0,,,C:\2023\REPSWITCH21092023\REPSWITCH_excgange\REPSWITCH_excgange\data/460203_REPSWITCH1_version2_list3_2024-01-24_16h38.36.496_micRespv2l3_recorded\recording_micRespv2l3_2024-01-24_16h42.04.640.wav,216.55254479963332,,None,216.55254479963332,216.55254479963332,216.55254479963332,216.55254479963332,216.55254479963332,216.55254479963332,,,,,,460203,001,2024-01-24_16h38.36.496,REPSWITCH1_version2_list3,2022.2.4,144.01585381510324,
REPSWITCH1/PICTURE_178.png,puente,type,gold,filler,1,F,2,2,3,2,Stim1_Set1,0,None,44,43,44,0,43,43,43,,,,,,,,,,,,,,,,,,,,,,,217.05253989994526,218.0597102995962,218.0597102995962,218.0597102995962,218.0597102995962,218.0597102995962,218.0597102995962,218.0597102995962,218.0597102995962,"['p', 'u', 'e', 'n', 't', 'e']",0,"[1.229670099914074, 1.5595974000170827, 1.8239943999797106, 1.8369377003982663, 2.3603725004941225, 2.4580300003290176]",puente,C:\2023\REPSWITCH21092023\REPSWITCH_excgange\REPSWITCH_excgange\data/460203_REPSWITCH1_version2_list3_2024-01-24_16h38.36.496_micRespv2l3_recorded\recording_micRespv2l3_2024-01-24_16h42.09.174.wav,221.08087859954685,221.5809372998774,None,221.08087859954685,221.08087859954685,221.08087859954685,221.08087859954685,221.08087859954685,221.08087859954685,,,,,,460203,001,2024-01-24_16h38.36.496,REPSWITCH1_version2_list3,2022.2.4,144.01585381510324,
REPSWITCH1/PICTURE_199.png,falda,speak,darkblue,nontarget,2,NT,2,2,3,2,Stim8_Set2,1,switch,45,44,45,0,44,44,44,,,,,,,,,,,,,,,,,,,,,,,221.5809372998774,222.7060851994902,222.7060851994902,222.7060851994902,222.7060851994902,222.7060851994902,222.7060851994902,222.7060851994902,222.7060851994902,None,0,,,C:\2023\REPSWITCH21092023\REPSWITCH_excgange\REPSWITCH_excgange\data/460203_REPSWITCH1_version2_list3_2024-01-24_16h38.36.496_micRespv2l3_recorded\recording_micRespv2l3_2024-01-24_16h42.13.822.wav,225.7342608999461,,None,225.7342608999461,225.7342608999461,225.7342608999461,225.7342608999461,225.7342608999461,225.7342608999461,,,,,,460203,001,2024-01-24_16h38.36.496,REPSWITCH1_version2_list3,2022.2.4,144.01585381510324,
REPSWITCH1/PICTURE_199.png,falda,speak,darkblue,repeat,2,T,2,2,3,2,Stim8_Set2,0,None,46,45,46,0,45,45,45,,,,,,,,,,,,,,,,,,,,,,,226.23432669974864,227.31781399995089,227.31781399995089,227.31781399995089,227.31781399995089,227.31781399995089,227.31781399995089,227.31781399995089,227.31781399995089,None,0,,,C:\2023\REPSWITCH21092023\REPSWITCH_excgange\REPSWITCH_excgange\data/460203_REPSWITCH1_version2_list3_2024-01-24_16h38.36.496_micRespv2l3_recorded\recording_micRespv2l3_2024-01-24_16h42.18.432.wav,230.3460408002138,,None,230.3460408002138,230.3460408002138,230.3460408002138,230.3460408002138,230.3460408002138,230.3460408002138,,,,,,460203,001,2024-01-24_16h38.36.496,REPSWITCH1_version2_list3,2022.2.4,144.01585381510324,
REPSWITCH1/PICTURE_169.png,espalda,type,gold,filler,1,F,2,2,3,2,Stim8_Set1,0,None,47,46,47,0,46,46,46,,,,,,,,,,,,,,,,,,,,,,,230.84604069963098,231.94343560002744,231.94343560002744,231.94343560002744,231.94343560002744,231.94343560002744,231.94343560002744,231.94343560002744,231.94343560002744,"['e', 's', 'p', 'a', 'd']",0,"[1.6610187003389, 1.833576699718833, 1.9236409002915025, 2.638272199779749, 2.8784609995782375]",espad,C:\2023\REPSWITCH21092023\REPSWITCH_excgange\REPSWITCH_excgange\data/460203_REPSWITCH1_version2_list3_2024-01-24_16h38.36.496_micRespv2l3_recorded\recording_micRespv2l3_2024-01-24_16h42.23.058.wav,234.96469159983099,235.46469189971685,None,234.96469159983099,234.96469159983099,234.96469159983099,234.96469159983099,234.96469159983099,234.96469159983099,,,,,,460203,001,2024-01-24_16h38.36.496,REPSWITCH1_version2_list3,2022.2.4,144.01585381510324,
REPSWITCH1/PICTURE_142.png,vaso,speak,darkblue,filler,2,F,2,2,3,2,Stim7_Set1,0,None,48,47,48,0,47,47,47,,,,,,,,,,,,,,,,,,,,,,,235.46469189971685,236.52732549980283,236.52732549980283,236.52732549980283,236.52732549980283,236.52732549980283,236.52732549980283,236.52732549980283,236.52732549980283,None,0,,,C:\2023\REPSWITCH21092023\REPSWITCH_excgange\REPSWITCH_excgange\data/460203_REPSWITCH1_version2_list3_2024-01-24_16h38.36.496_micRespv2l3_recorded\recording_micRespv2l3_2024-01-24_16h42.27.642.wav,239.5486154993996,240.04863439965993,None,239.5486154993996,239.5486154993996,239.5486154993996,239.5486154993996,239.5486154993996,239.5486154993996,,,,,,460203,001,2024-01-24_16h38.36.496,REPSWITCH1_version2_list3,2022.2.4,144.01585381510324,
REPSWITCH1/PICTURE_552.png,manzana,speak,darkblue,nontarget,2,NT,2,2,3,2,Stim6_Set2,0,None,49,48,49,0,48,48,48,,,,,,,,,,,,,,,,,,,,,,,240.04863439965993,241.0765450997278,241.0765450997278,241.0765450997278,241.0765450997278,241.0765450997278,241.0765450997278,241.0765450997278,241.0765450997278,None,0,,,C:\2023\REPSWITCH21092023\REPSWITCH_excgange\REPSWITCH_excgange\data/460203_REPSWITCH1_version2_list3_2024-01-24_16h38.36.496_micRespv2l3_recorded\recording_micRespv2l3_2024-01-24_16h42.32.191.wav,244.10473489947617,,None,244.10473489947617,244.10473489947617,244.10473489947617,244.10473489947617,244.10473489947617,244.10473489947617,,,,,,460203,001,2024-01-24_16h38.36.496,REPSWITCH1_version2_list3,2022.2.4,144.01585381510324,
REPSWITCH1/PICTURE_552.png,manzana,type,gold,switch,1,T,2,2,3,2,Stim6_Set2,0,None,50,49,50,0,49,49,49,,,,,,,,,,,,,,,,,,,,,,,244.60479339957237,245.695251500234,245.695251500234,245.695251500234,245.695251500234,245.695251500234,245.695251500234,245.695251500234,245.695251500234,None,0,,,C:\2023\REPSWITCH21092023\REPSWITCH_excgange\REPSWITCH_excgange\data/460203_REPSWITCH1_version2_list3_2024-01-24_16h38.36.496_micRespv2l3_recorded\recording_micRespv2l3_2024-01-24_16h42.36.810.wav,248.7233587000519,,None,248.7233587000519,248.7233587000519,248.7233587000519,248.7233587000519,248.7233587000519,248.7233587000519,,,,,,460203,001,2024-01-24_16h38.36.496,REPSWITCH1_version2_list3,2022.2.4,144.01585381510324,
REPSWITCH1/PICTURE_590.png,escoba,speak,darkblue,filler,2,F,1,2,3,2,Extra3,0,None,51,50,51,0,50,50,50,,,,,,,,,,,,,,,,,,,,,,,249.2234987001866,250.32084059994668,250.32084059994668,250.32084059994668,250.32084059994668,250.32084059994668,250.32084059994668,250.32084059994668,250.32084059994668,"['e', 's', 'c', 'o']",0,"[1.8529705004766583, 2.039496200159192, 2.2506820000708103, 2.4454104006290436]",esco,C:\2023\REPSWITCH21092023\REPSWITCH_excgange\REPSWITCH_excgange\data/460203_REPSWITCH1_version2_list3_2024-01-24_16h38.36.496_micRespv2l3_recorded\recording_micRespv2l3_2024-01-24_16h42.41.435.wav,253.3420609999448,253.8421169994399,space,253.3420609999448,253.3420609999448,253.3420609999448,253.3420609999448,253.3420609999448,253.3420609999448,253.8421169994399,253.8421169994399,4.316984300501645,,,460203,001,2024-01-24_16h38.36.496,REPSWITCH1_version2_list3,2022.2.4,144.01585381510324,
REPSWITCH1/PICTURE_552.png,manzana,type,gold,filler,1,F,3,2,3,2,Stim6_Set2,0,None,52,51,52,0,51,51,51,,,,,,,,,,,,,,,,,,,,,,,258.169077700004,259.19697169959545,259.19697169959545,259.19697169959545,259.19697169959545,259.19697169959545,259.19697169959545,259.19697169959545,259.19697169959545,"['f', 'r', 'e', 's', 'a']",0,"[2.013014200143516, 2.185256900265813, 2.2879016995429993, 2.669524699449539, 2.7741676000878215]",fresa,C:\2023\REPSWITCH21092023\REPSWITCH_excgange\REPSWITCH_excgange\data/460203_REPSWITCH1_version2_list3_2024-01-24_16h38.36.496_micRespv2l3_recorded\recording_micRespv2l3_2024-01-24_16h42.50.312.wav,262.2251667995006,,None,262.2251667995006,262.2251667995006,262.2251667995006,262.2251667995006,262.2251667995006,262.2251667995006,,,,,,460203,001,2024-01-24_16h38.36.496,REPSWITCH1_version2_list3,2022.2.4,144.01585381510324,
REPSWITCH1/PICTURE_464.png,goma,type,gold,nontarget,1,NT,3,2,3,2,Stim6_Set3,1,repeat,53,52,53,0,52,52,52,,,,,,,,,,,,,,,,,,,,,,,262.7252243999392,263.82952099945396,263.82952099945396,263.82952099945396,263.82952099945396,263.82952099945396,263.82952099945396,263.82952099945396,263.82952099945396,"['g', 'o', 'm', 'a']",0,"[1.0063431998714805, 1.1295019993558526, 1.3527571000158787, 1.4095604997128248]",goma,C:\2023\REPSWITCH21092023\REPSWITCH_excgange\REPSWITCH_excgange\data/460203_REPSWITCH1_version2_list3_2024-01-24_16h38.36.496_micRespv2l3_recorded\recording_micRespv2l3_2024-01-24_16h42.54.944.wav,266.8576989993453,,None,266.8576989993453,266.8576989993453,266.8576989993453,266.8576989993453,266.8576989993453,266.8576989993453,,,,,,460203,001,2024-01-24_16h38.36.496,REPSWITCH1_version2_list3,2022.2.4,144.01585381510324,
REPSWITCH1/PICTURE_464.png,goma,speak,darkblue,switch,2,T,3,2,3,2,Stim6_Set3,0,None,54,53,54,0,53,53,53,,,,,,,,,,,,,,,,,,,,,,,267.3578471997753,268.42734349984676,268.42734349984676,268.42734349984676,268.42734349984676,268.42734349984676,268.42734349984676,268.42734349984676,268.42734349984676,None,0,,,C:\2023\REPSWITCH21092023\REPSWITCH_excgange\REPSWITCH_excgange\data/460203_REPSWITCH1_version2_list3_2024-01-24_16h38.36.496_micRespv2l3_recorded\recording_micRespv2l3_2024-01-24_16h42.59.542.wav,271.45552179962397,,None,271.45552179962397,271.45552179962397,271.45552179962397,271.45552179962397,271.45552179962397,271.45552179962397,,,,,,460203,001,2024-01-24_16h38.36.496,REPSWITCH1_version2_list3,2022.2.4,144.01585381510324,
REPSWITCH1/PICTURE_30.png,granja,speak,darkblue,filler,2,F,3,2,3,2,Stim5_Set2,0,None,55,54,55,0,54,54,54,,,,,,,,,,,,,,,,,,,,,,,271.9555999999866,273.03909029997885,273.03909029997885,273.03909029997885,273.03909029997885,273.03909029997885,273.03909029997885,273.03909029997885,273.03909029997885,None,0,,,C:\2023\REPSWITCH21092023\REPSWITCH_excgange\REPSWITCH_excgange\data/460203_REPSWITCH1_version2_list3_2024-01-24_16h38.36.496_micRespv2l3_recorded\recording_micRespv2l3_2024-01-24_16h43.04.154.wav,276.06725979968905,,None,276.06725979968905,276.06725979968905,276.06725979968905,276.06725979968905,276.06725979968905,276.06725979968905,,,,,,460203,001,2024-01-24_16h38.36.496,REPSWITCH1_version2_list3,2022.2.4,144.01585381510324,
REPSWITCH1/PICTURE_235.png,aguja,speak,darkblue,nontarget,2,NT,3,2,3,2,Stim4_Set3,1,repeat,56,55,56,0,55,55,55,,,,,,,,,,,,,,,,,,,,,,,276.56729539949447,277.6578091001138,277.6578091001138,277.6578091001138,277.6578091001138,277.6578091001138,277.6578091001138,277.6578091001138,277.6578091001138,None,0,,,C:\2023\REPSWITCH21092023\REPSWITCH_excgange\REPSWITCH_excgange\data/460203_REPSWITCH1_version2_list3_2024-01-24_16h38.36.496_micRespv2l3_recorded\recording_micRespv2l3_2024-01-24_16h43.08.773.wav,280.6789395995438,281.17899989988655,None,280.6789395995438,280.6789395995438,280.6789395995438,280.6789395995438,280.6789395995438,280.6789395995438,,,,,,460203,001,2024-01-24_16h38.36.496,REPSWITCH1_version2_list3,2022.2.4,144.01585381510324,
REPSWITCH1/PICTURE_235.png,aguja,type,gold,switch,1,T,3,2,3,2,Stim4_Set3,0,None,57,56,57,0,56,56,56,,,,,,,,,,,,,,,,,,,,,,,281.17899989988655,282.22777699958533,282.22777699958533,282.22777699958533,282.22777699958533,282.22777699958533,282.22777699958533,282.22777699958533,282.22777699958533,"['a', 'g', 'u', 'j', 'a']",0,"[1.1038228003308177, 1.2911275001242757, 1.5143302995711565, 1.7250522999092937, 1.801830600015819]",aguja,C:\2023\REPSWITCH21092023\REPSWITCH_excgange\REPSWITCH_excgange\data/460203_REPSWITCH1_version2_list3_2024-01-24_16h38.36.496_micRespv2l3_recorded\recording_micRespv2l3_2024-01-24_16h43.13.342.wav,285.2490146001801,285.7490753000602,None,285.2490146001801,285.2490146001801,285.2490146001801,285.2490146001801,285.2490146001801,285.2490146001801,,,,,,460203,001,2024-01-24_16h38.36.496,REPSWITCH1_version2_list3,2022.2.4,144.01585381510324,
REPSWITCH1/PICTURE_391.png,cadena,type,gold,filler,1,F,3,2,3,2,Extra2,0,None,58,57,58,0,57,57,57,,,,,,,,,,,,,,,,,,,,,,,285.7490753000602,286.8325640000403,286.8325640000403,286.8325640000403,286.8325640000403,286.8325640000403,286.8325640000403,286.8325640000403,286.8325640000403,"['c', 'a', 'd', 'e', 'n', 'a']",0,"[1.5663082003593445, 1.71779889985919, 1.8753513004630804, 2.006821599788964, 2.270570100285113, 2.6073866998776793]",cadena,C:\2023\REPSWITCH21092023\REPSWITCH_excgange\REPSWITCH_excgange\data/460203_REPSWITCH1_version2_list3_2024-01-24_16h38.36.496_micRespv2l3_recorded\recording_micRespv2l3_2024-01-24_16h43.17.948.wav,289.8607361000031,,None,289.8607361000031,289.8607361000031,289.8607361000031,289.8607361000031,289.8607361000031,289.8607361000031,,,,,,460203,001,2024-01-24_16h38.36.496,REPSWITCH1_version2_list3,2022.2.4,144.01585381510324,
REPSWITCH1/PICTURE_320.png,iglesia,type,gold,nontarget,1,NT,3,2,3,2,Stim8_Set3,0,None,59,58,59,0,58,58,58,,,,,,,,,,,,,,,,,,,,,,,290.3607927002013,291.4303601998836,291.4303601998836,291.4303601998836,291.4303601998836,291.4303601998836,291.4303601998836,291.4303601998836,291.4303601998836,"['i', 'g', 'l', 'e', 's', 'i', 'a']",0,"[1.0998056000098586, 1.2873529000207782, 1.4175952998921275, 1.5371921993792057, 1.8341951994225383, 2.380531999282539, 2.5426802998408675]",iglesia,C:\2023\REPSWITCH21092023\REPSWITCH_excgange\REPSWITCH_excgange\data/460203_REPSWITCH1_version2_list3_2024-01-24_16h38.36.496_micRespv2l3_recorded\recording_micRespv2l3_2024-01-24_16h43.22.545.wav,294.45163169968873,294.95166219957173,None,294.45163169968873,294.45163169968873,294.45163169968873,294.45163169968873,294.45163169968873,294.45163169968873,,,,,,460203,001,2024-01-24_16h38.36.496,REPSWITCH1_version2_list3,2022.2.4,144.01585381510324,
REPSWITCH1/PICTURE_320.png,iglesia,speak,darkblue,switch,2,T,3,2,3,2,Stim8_Set3,0,None,60,59,60,0,59,59,59,,,,,,,,,,,,,,,,,,,,,,,294.95166219957173,296.00040179956704,296.00040179956704,296.00040179956704,296.00040179956704,296.00040179956704,296.00040179956704,296.00040179956704,296.00040179956704,None,0,,,C:\2023\REPSWITCH21092023\REPSWITCH_excgange\REPSWITCH_excgange\data/460203_REPSWITCH1_version2_list3_2024-01-24_16h38.36.496_micRespv2l3_recorded\recording_micRespv2l3_2024-01-24_16h43.27.115.wav,299.02168149966747,299.5217901999131,None,299.02168149966747,299.02168149966747,299.02168149966747,299.02168149966747,299.02168149966747,299.02168149966747,,,,,,460203,001,2024-01-24_16h38.36.496,REPSWITCH1_version2_list3,2022.2.4,144.01585381510324,
REPSWITCH1/PICTURE_175.png,pintor,type,gold,filler,1,F,3,2,3,2,Stim1_Set2,0,None,61,60,61,0,60,60,60,,,,,,,,,,,,,,,,,,,,,,,299.5217901999131,300.62603699974716,300.62603699974716,300.62603699974716,300.62603699974716,300.62603699974716,300.62603699974716,300.62603699974716,300.62603699974716,"['p', 'i', 'n', 't', 'o', 'r']",0,"[0.9160777004435658, 1.2596372002735734, 1.451953100040555, 1.6526264008134604, 1.7154217008501291, 1.871046000160277]",pintor,C:\2023\REPSWITCH21092023\REPSWITCH_excgange\REPSWITCH_excgange\data/460203_REPSWITCH1_version2_list3_2024-01-24_16h38.36.496_micRespv2l3_recorded\recording_micRespv2l3_2024-01-24_16h43.31.740.wav,303.64727269951254,304.1472929995507,None,303.64727269951254,303.64727269951254,303.64727269951254,303.64727269951254,303.64727269951254,303.64727269951254,,,,,,460203,001,2024-01-24_16h38.36.496,REPSWITCH1_version2_list3,2022.2.4,144.01585381510324,
REPSWITCH1/PICTURE_271.png,conejo,speak,darkblue,nontarget,2,NT,3,2,3,2,Stim7_Set3,1,switch,62,61,62,0,61,61,61,,,,,,,,,,,,,,,,,,,,,,,304.1472929995507,305.2655481994152,305.2655481994152,305.2655481994152,305.2655481994152,305.2655481994152,305.2655481994152,305.2655481994152,305.2655481994152,None,0,,,C:\2023\REPSWITCH21092023\REPSWITCH_excgange\REPSWITCH_excgange\data/460203_REPSWITCH1_version2_list3_2024-01-24_16h38.36.496_micRespv2l3_recorded\recording_micRespv2l3_2024-01-24_16h43.36.381.wav,308.2937827995047,,None,308.2937827995047,308.2937827995047,308.2937827995047,308.2937827995047,308.2937827995047,308.2937827995047,,,,,,460203,001,2024-01-24_16h38.36.496,REPSWITCH1_version2_list3,2022.2.4,144.01585381510324,
REPSWITCH1/PICTURE_271.png,conejo,speak,darkblue,repeat,2,T,3,2,3,2,Stim7_Set3,0,None,63,62,63,0,62,62,62,,,,,,,,,,,,,,,,,,,,,,,308.79375160019845,309.9814871000126,309.9814871000126,309.9814871000126,309.9814871000126,309.9814871000126,309.9814871000126,309.9814871000126,309.9814871000126,None,0,,,C:\2023\REPSWITCH21092023\REPSWITCH_excgange\REPSWITCH_excgange\data/460203_REPSWITCH1_version2_list3_2024-01-24_16h38.36.496_micRespv2l3_recorded\recording_micRespv2l3_2024-01-24_16h43.41.096.wav,313.00958659965545,,None,313.00958659965545,313.00958659965545,313.00958659965545,313.00958659965545,313.00958659965545,313.00958659965545,,,,,,460203,001,2024-01-24_16h38.36.496,REPSWITCH1_version2_list3,2022.2.4,144.01585381510324,
REPSWITCH1/PICTURE_446.png,cerdo,speak,darkblue,filler,2,F,3,2,3,2,Stim7_Set2,0,None,64,63,64,0,63,63,63,,,,,,,,,,,,,,,,,,,,,,,313.5096586002037,314.65567060001194,314.65567060001194,314.65567060001194,314.65567060001194,314.65567060001194,314.65567060001194,314.65567060001194,314.65567060001194,None,0,,,C:\2023\REPSWITCH21092023\REPSWITCH_excgange\REPSWITCH_excgange\data/460203_REPSWITCH1_version2_list3_2024-01-24_16h38.36.496_micRespv2l3_recorded\recording_micRespv2l3_2024-01-24_16h43.45.770.wav,317.6838223999366,,None,317.6838223999366,317.6838223999366,317.6838223999366,317.6838223999366,317.6838223999366,317.6838223999366,,,,,,460203,001,2024-01-24_16h38.36.496,REPSWITCH1_version2_list3,2022.2.4,144.01585381510324,
REPSWITCH1/PICTURE_152.png,caracol,type,gold,filler,1,F,3,2,3,2,Stim2_Set2,0,None,65,64,65,0,64,64,64,,,,,,,,,,,,,,,,,,,,,,,318.1838964000344,319.27431199979037,319.27431199979037,319.27431199979037,319.27431199979037,319.27431199979037,319.27431199979037,319.27431199979037,319.27431199979037,"['c', 'a', 'r', 'a', 'c', 'o', 'l']",0,"[0.9141292003914714, 1.0668584005907178, 1.1505725998431444, 1.2651826003566384, 1.454560900107026, 1.611014200374484, 1.8562861001119018]",caracol,C:\2023\REPSWITCH21092023\REPSWITCH_excgange\REPSWITCH_excgange\data/460203_REPSWITCH1_version2_list3_2024-01-24_16h38.36.496_micRespv2l3_recorded\recording_micRespv2l3_2024-01-24_16h43.50.389.wav,322.29560529999435,322.79561039991677,None,322.29560529999435,322.29560529999435,322.29560529999435,322.29560529999435,322.29560529999435,322.29560529999435,,,,,,460203,001,2024-01-24_16h38.36.496,REPSWITCH1_version2_list3,2022.2.4,144.01585381510324,
REPSWITCH1/PICTURE_576.png,guante,speak,darkblue,nontarget,2,NT,3,2,3,2,Stim1_Set3,1,switch,66,65,66,0,65,65,65,,,,,,,,,,,,,,,,,,,,,,,322.79561039991677,323.9276716001332,323.9276716001332,323.9276716001332,323.9276716001332,323.9276716001332,323.9276716001332,323.9276716001332,323.9276716001332,None,0,,,C:\2023\REPSWITCH21092023\REPSWITCH_excgange\REPSWITCH_excgange\data/460203_REPSWITCH1_version2_list3_2024-01-24_16h38.36.496_micRespv2l3_recorded\recording_micRespv2l3_2024-01-24_16h43.55.043.wav,326.9558774996549,,None,326.9558774996549,326.9558774996549,326.9558774996549,326.9558774996549,326.9558774996549,326.9558774996549,,,,,,460203,001,2024-01-24_16h38.36.496,REPSWITCH1_version2_list3,2022.2.4,144.01585381510324,
REPSWITCH1/PICTURE_576.png,guante,speak,darkblue,repeat,2,T,3,2,3,2,Stim1_Set3,0,None,67,66,67,0,66,66,66,,,,,,,,,,,,,,,,,,,,,,,327.45594679936767,328.56723049934953,328.56723049934953,328.56723049934953,328.56723049934953,328.56723049934953,328.56723049934953,328.56723049934953,328.56723049934953,None,0,,,C:\2023\REPSWITCH21092023\REPSWITCH_excgange\REPSWITCH_excgange\data/460203_REPSWITCH1_version2_list3_2024-01-24_16h38.36.496_micRespv2l3_recorded\recording_micRespv2l3_2024-01-24_16h43.59.681.wav,331.5884902998805,332.0884949993342,None,331.5884902998805,331.5884902998805,331.5884902998805,331.5884902998805,331.5884902998805,331.5884902998805,,,,,,460203,001,2024-01-24_16h38.36.496,REPSWITCH1_version2_list3,2022.2.4,144.01585381510324,
REPSWITCH1/PICTURE_242.png,cartero,speak,darkblue,nontarget,2,NT,3,2,3,2,Stim3_Set3,0,None,68,67,68,0,67,67,67,,,,,,,,,,,,,,,,,,,,,,,332.0884949993342,333.2414127998054,333.2414127998054,333.2414127998054,333.2414127998054,333.2414127998054,333.2414127998054,333.2414127998054,333.2414127998054,None,0,,,C:\2023\REPSWITCH21092023\REPSWITCH_excgange\REPSWITCH_excgange\data/460203_REPSWITCH1_version2_list3_2024-01-24_16h38.36.496_micRespv2l3_recorded\recording_micRespv2l3_2024-01-24_16h44.04.355.wav,336.2626582002267,336.76272149942815,None,336.2626582002267,336.2626582002267,336.2626582002267,336.2626582002267,336.2626582002267,336.2626582002267,,,,,,460203,001,2024-01-24_16h38.36.496,REPSWITCH1_version2_list3,2022.2.4,144.01585381510324,
REPSWITCH1/PICTURE_242.png,cartero,type,gold,switch,1,T,3,2,3,2,Stim3_Set3,0,None,69,68,69,0,68,68,68,,,,,,,,,,,,,,,,,,,,,,,336.76272149942815,337.83923759963363,337.83923759963363,337.83923759963363,337.83923759963363,337.83923759963363,337.83923759963363,337.83923759963363,337.83923759963363,"['c', 'a', 'r', 't', 'e', 'r', 'o']",0,"[0.8146577998995781, 0.9113767994567752, 1.0548329995945096, 1.2940317001193762, 1.373772899620235, 1.4877787996083498, 1.6362199997529387]",cartero,C:\2023\REPSWITCH21092023\REPSWITCH_excgange\REPSWITCH_excgange\data/460203_REPSWITCH1_version2_list3_2024-01-24_16h38.36.496_micRespv2l3_recorded\recording_micRespv2l3_2024-01-24_16h44.08.954.wav,340.8604497993365,341.36052760016173,None,340.8604497993365,340.8604497993365,340.8604497993365,340.8604497993365,340.8604497993365,340.8604497993365,,,,,,460203,001,2024-01-24_16h38.36.496,REPSWITCH1_version2_list3,2022.2.4,144.01585381510324,
REPSWITCH1/PICTURE_517.png,cuerda,speak,darkblue,filler,2,F,3,2,3,2,Stim4_Set2,0,None,70,69,70,0,69,69,69,,,,,,,,,,,,,,,,,,,,,,,341.36052760016173,342.45101619977504,342.45101619977504,342.45101619977504,342.45101619977504,342.45101619977504,342.45101619977504,342.45101619977504,342.45101619977504,None,0,,,C:\2023\REPSWITCH21092023\REPSWITCH_excgange\REPSWITCH_excgange\data/460203_REPSWITCH1_version2_list3_2024-01-24_16h38.36.496_micRespv2l3_recorded\recording_micRespv2l3_2024-01-24_16h44.13.566.wav,345.4791720993817,,None,345.4791720993817,345.4791720993817,345.4791720993817,345.4791720993817,345.4791720993817,345.4791720993817,,,,,,460203,001,2024-01-24_16h38.36.496,REPSWITCH1_version2_list3,2022.2.4,144.01585381510324,
REPSWITCH1/PICTURE_646.png,tronco,type,gold,filler,1,F,3,2,3,2,Extra4,0,None,71,70,71,0,70,70,70,,,,,,,,,,,,,,,,,,,,,,,345.9792063999921,347.0279434993863,347.0279434993863,347.0279434993863,347.0279434993863,347.0279434993863,347.0279434993863,347.0279434993863,347.0279434993863,"['t', 'r', 'n', 'c', 'o']",0,"[1.2704851999878883, 1.280401300638914, 1.8399612000212073, 2.0435095001012087, 2.136251199990511]",trnco,C:\2023\REPSWITCH21092023\REPSWITCH_excgange\REPSWITCH_excgange\data/460203_REPSWITCH1_version2_list3_2024-01-24_16h38.36.496_micRespv2l3_recorded\recording_micRespv2l3_2024-01-24_16h44.18.143.wav,350.0561279999092,,None,350.0561279999092,350.0561279999092,350.0561279999092,350.0561279999092,350.0561279999092,350.0561279999092,,,,,,460203,001,2024-01-24_16h38.36.496,REPSWITCH1_version2_list3,2022.2.4,144.01585381510324,
REPSWITCH1/PICTURE_35.png,oreja,type,gold,nontarget,1,NT,3,2,3,2,Stim5_Set3,1,repeat,72,71,72,0,71,71,71,,,,,,,,,,,,,,,,,,,,,,,350.5561961000785,351.59107379987836,351.59107379987836,351.59107379987836,351.59107379987836,351.59107379987836,351.59107379987836,351.59107379987836,351.59107379987836,"['o', 'r', 'e', 'j', 'a']",0,"[1.4592369999736547, 1.6137108001857996, 1.6616153996437788, 1.9080870002508163, 2.0037494003772736]",oreja,C:\2023\REPSWITCH21092023\REPSWITCH_excgange\REPSWITCH_excgange\data/460203_REPSWITCH1_version2_list3_2024-01-24_16h38.36.496_micRespv2l3_recorded\recording_micRespv2l3_2024-01-24_16h44.22.707.wav,354.61919299978763,,None,354.61919299978763,354.61919299978763,354.61919299978763,354.61919299978763,354.61919299978763,354.61919299978763,,,,,,460203,001,2024-01-24_16h38.36.496,REPSWITCH1_version2_list3,2022.2.4,144.01585381510324,
REPSWITCH1/PICTURE_35.png,oreja,type,gold,repeat,1,T,3,2,3,2,Stim5_Set3,0,None,73,72,73,0,72,72,72,,,,,,,,,,,,,,,,,,,,,,,355.1192568000406,356.1611318998039,356.1611318998039,356.1611318998039,356.1611318998039,356.1611318998039,356.1611318998039,356.1611318998039,356.1611318998039,"['o', 'r', 'e', 'j', 'a']",0,"[1.0769164003431797, 1.2254170002415776, 1.2752446997910738, 1.603867500089109, 2.08888310007751]",oreja,C:\2023\REPSWITCH21092023\REPSWITCH_excgange\REPSWITCH_excgange\data/460203_REPSWITCH1_version2_list3_2024-01-24_16h38.36.496_micRespv2l3_recorded\recording_micRespv2l3_2024-01-24_16h44.27.276.wav,359.1893277000636,,None,359.1893277000636,359.1893277000636,359.1893277000636,359.1893277000636,359.1893277000636,359.1893277000636,,,,,,460203,001,2024-01-24_16h38.36.496,REPSWITCH1_version2_list3,2022.2.4,144.01585381510324,
REPSWITCH1/PICTURE_199.png,falda,speak,darkblue,filler,2,F,3,2,3,2,Stim8_Set2,0,None,74,73,74,0,73,73,73,,,,,,,,,,,,,,,,,,,,,,,359.68930420000106,360.83530269935727,360.83530269935727,360.83530269935727,360.83530269935727,360.83530269935727,360.83530269935727,360.83530269935727,360.83530269935727,None,0,,,C:\2023\REPSWITCH21092023\REPSWITCH_excgange\REPSWITCH_excgange\data/460203_REPSWITCH1_version2_list3_2024-01-24_16h38.36.496_micRespv2l3_recorded\recording_micRespv2l3_2024-01-24_16h44.31.951.wav,363.86354259960353,,None,363.86354259960353,363.86354259960353,363.86354259960353,363.86354259960353,363.86354259960353,363.86354259960353,,,,,,460203,001,2024-01-24_16h38.36.496,REPSWITCH1_version2_list3,2022.2.4,144.01585381510324,
REPSWITCH1/PICTURE_610.png,miel,type,gold,nontarget,1,NT,3,2,3,2,Stim2_Set3,1,switch,75,74,75,0,74,74,74,,,,,,,,,,,,,,,,,,,,,,,364.3635686999187,365.4400845998898,365.4400845998898,365.4400845998898,365.4400845998898,365.4400845998898,365.4400845998898,365.4400845998898,365.4400845998898,"['m', 'i', 'l', 'backspace', 'e', 'l']",0,"[1.398262900300324, 1.6752388002350926, 1.9523079004138708, 2.3733861995860934, 2.6087119998410344, 2.759745099581778]",miel,C:\2023\REPSWITCH21092023\REPSWITCH_excgange\REPSWITCH_excgange\data/460203_REPSWITCH1_version2_list3_2024-01-24_16h38.36.496_micRespv2l3_recorded\recording_micRespv2l3_2024-01-24_16h44.36.555.wav,368.4612994994968,368.9613688001409,None,368.4612994994968,368.4612994994968,368.4612994994968,368.4612994994968,368.4612994994968,368.4612994994968,,,,,,460203,001,2024-01-24_16h38.36.496,REPSWITCH1_version2_list3,2022.2.4,144.01585381510324,
REPSWITCH1/PICTURE_610.png,miel,type,gold,repeat,1,T,3,2,3,2,Stim2_Set3,0,None,76,75,76,0,75,75,75,,,,,,,,,,,,,,,,,,,,,,,368.9613688001409,370.037897599861,370.037897599861,370.037897599861,370.037897599861,370.037897599861,370.037897599861,370.037897599861,370.037897599861,"['m', 'i', 'e', 'l']",0,"[1.1182859996333718, 1.3006720999255776, 1.4131568996235728, 1.5447051003575325]",miel,C:\2023\REPSWITCH21092023\REPSWITCH_excgange\REPSWITCH_excgange\data/460203_REPSWITCH1_version2_list3_2024-01-24_16h38.36.496_micRespv2l3_recorded\recording_micRespv2l3_2024-01-24_16h44.41.152.wav,373.0591184999794,373.5592158995569,None,373.0591184999794,373.0591184999794,373.0591184999794,373.0591184999794,373.0591184999794,373.0591184999794,,,,,,460203,001,2024-01-24_16h38.36.496,REPSWITCH1_version2_list3,2022.2.4,144.01585381510324,
REPSWITCH1/PICTURE_264.png,mano,type,gold,filler,1,F,3,2,3,2,Stim3_Set2,1,repeat,77,76,77,0,76,76,76,,,,,,,,,,,,,,,,,,,,,,,373.5592158995569,374.64274210017174,374.64274210017174,374.64274210017174,374.64274210017174,374.64274210017174,374.64274210017174,374.64274210017174,374.64274210017174,"['m', 'a', 'n', 'o']",0,"[0.6874957997351885, 0.8200715994462371, 0.94664999935776, 1.1531143998727202]",mano,C:\2023\REPSWITCH21092023\REPSWITCH_excgange\REPSWITCH_excgange\data/460203_REPSWITCH1_version2_list3_2024-01-24_16h38.36.496_micRespv2l3_recorded\recording_micRespv2l3_2024-01-24_16h44.45.758.wav,377.67087229993194,,None,377.67087229993194,377.67087229993194,377.67087229993194,377.67087229993194,377.67087229993194,377.67087229993194,,,,,,460203,001,2024-01-24_16h38.36.496,REPSWITCH1_version2_list3,2022.2.4,144.01585381510324,
REPSWITCH1/PICTURE_464.png,goma,speak,darkblue,filler,2,F,4,2,3,2,Stim6_Set3,0,None,78,77,78,0,77,77,77,,,,,,,,,,,,,,,,,,,,,,,378.1709335995838,379.4072186993435,379.4072186993435,379.4072186993435,379.4072186993435,379.4072186993435,379.4072186993435,379.4072186993435,379.4072186993435,None,0,,,C:\2023\REPSWITCH21092023\REPSWITCH_excgange\REPSWITCH_excgange\data/460203_REPSWITCH1_version2_list3_2024-01-24_16h38.36.496_micRespv2l3_recorded\recording_micRespv2l3_2024-01-24_16h44.50.522.wav,382.4284125994891,382.9284793995321,None,382.4284125994891,382.4284125994891,382.4284125994891,382.4284125994891,382.4284125994891,382.4284125994891,,,,,,460203,001,2024-01-24_16h38.36.496,REPSWITCH1_version2_list3,2022.2.4,144.01585381510324,
REPSWITCH1/PICTURE_8.png,pierna,type,gold,nontarget,1,NT,4,2,3,2,Stim3_Set4,1,switch,79,78,79,0,78,78,78,,,,,,,,,,,,,,,,,,,,,,,382.9284793995321,384.0605907002464,384.0605907002464,384.0605907002464,384.0605907002464,384.0605907002464,384.0605907002464,384.0605907002464,384.0605907002464,"['p', 'i', 'e', 'r', 'n', 'a']",0,"[1.033377700485289, 1.2990365996956825, 1.4324652003124356, 1.50465780030936, 1.7036318005993962, 1.8541555004194379]",pierna,C:\2023\REPSWITCH21092023\REPSWITCH_excgange\REPSWITCH_excgange\data/460203_REPSWITCH1_version2_list3_2024-01-24_16h38.36.496_micRespv2l3_recorded\recording_micRespv2l3_2024-01-24_16h44.55.175.wav,387.08189690019935,387.58189229946584,None,387.08189690019935,387.08189690019935,387.08189690019935,387.08189690019935,387.08189690019935,387.08189690019935,,,,,,460203,001,2024-01-24_16h38.36.496,REPSWITCH1_version2_list3,2022.2.4,144.01585381510324,
REPSWITCH1/PICTURE_8.png,pierna,type,gold,repeat,1,T,4,2,3,2,Stim3_Set4,0,None,80,79,80,0,79,79,79,,,,,,,,,,,,,,,,,,,,,,,387.58189229946584,388.6654578996822,388.6654578996822,388.6654578996822,388.6654578996822,388.6654578996822,388.6654578996822,388.6654578996822,388.6654578996822,"['p', 'i', 'e', 'r', 'n', 'a']",0,"[0.755057199858129, 1.1447636997327209, 1.2603639997541904, 1.3132547000423074, 1.5368683999404311, 1.7306925999000669]",pierna,C:\2023\REPSWITCH21092023\REPSWITCH_excgange\REPSWITCH_excgange\data/460203_REPSWITCH1_version2_list3_2024-01-24_16h38.36.496_micRespv2l3_recorded\recording_micRespv2l3_2024-01-24_16h44.59.780.wav,391.68658339977264,392.1866605002433,None,391.68658339977264,391.68658339977264,391.68658339977264,391.68658339977264,391.68658339977264,391.68658339977264,,,,,,460203,001,2024-01-24_16h38.36.496,REPSWITCH1_version2_list3,2022.2.4,144.01585381510324,
REPSWITCH1/PICTURE_728.png,pulpo,type,gold,nontarget,1,NT,4,2,3,2,Stim8_Set4,1,repeat,81,80,81,0,80,80,80,,,,,,,,,,,,,,,,,,,,,,,392.1866605002433,393.31881919968873,393.31881919968873,393.31881919968873,393.31881919968873,393.31881919968873,393.31881919968873,393.31881919968873,393.31881919968873,"['p', 'u', 'l', 'p', 'o']",0,"[0.9639128996059299, 1.6539340997114778, 2.1059086993336678, 2.403349899686873, 2.661691799759865]",pulpo,C:\2023\REPSWITCH21092023\REPSWITCH_excgange\REPSWITCH_excgange\data/460203_REPSWITCH1_version2_list3_2024-01-24_16h38.36.496_micRespv2l3_recorded\recording_micRespv2l3_2024-01-24_16h45.04.434.wav,396.3469429994002,,None,396.3469429994002,396.3469429994002,396.3469429994002,396.3469429994002,396.3469429994002,396.3469429994002,,,,,,460203,001,2024-01-24_16h38.36.496,REPSWITCH1_version2_list3,2022.2.4,144.01585381510324,
REPSWITCH1/PICTURE_728.png,pulpo,speak,darkblue,switch,2,T,4,2,3,2,Stim8_Set4,0,None,82,81,82,0,81,81,81,,,,,,,,,,,,,,,,,,,,,,,396.8469580998644,398.00686419941485,398.00686419941485,398.00686419941485,398.00686419941485,398.00686419941485,398.00686419941485,398.00686419941485,398.00686419941485,None,0,,,C:\2023\REPSWITCH21092023\REPSWITCH_excgange\REPSWITCH_excgange\data/460203_REPSWITCH1_version2_list3_2024-01-24_16h38.36.496_micRespv2l3_recorded\recording_micRespv2l3_2024-01-24_16h45.09.122.wav,401.0351153993979,,None,401.0351153993979,401.0351153993979,401.0351153993979,401.0351153993979,401.0351153993979,401.0351153993979,,,,,,460203,001,2024-01-24_16h38.36.496,REPSWITCH1_version2_list3,2022.2.4,144.01585381510324,
REPSWITCH1/PICTURE_235.png,aguja,type,gold,filler,1,F,4,2,3,2,Stim4_Set3,0,None,83,82,83,0,82,82,82,,,,,,,,,,,,,,,,,,,,,,,401.5351094994694,402.61162710003555,402.61162710003555,402.61162710003555,402.61162710003555,402.61162710003555,402.61162710003555,402.61162710003555,402.61162710003555,"['a', 'g', 'u', 'j', 'a']",0,"[0.7969041001051664, 1.0964118000119925, 1.3391610998660326, 1.577016499824822, 1.6298719998449087]",aguja,C:\2023\REPSWITCH21092023\REPSWITCH_excgange\REPSWITCH_excgange\data/460203_REPSWITCH1_version2_list3_2024-01-24_16h38.36.496_micRespv2l3_recorded\recording_micRespv2l3_2024-01-24_16h45.13.726.wav,405.6328510995954,406.13292359933257,None,405.6328510995954,405.6328510995954,405.6328510995954,405.6328510995954,405.6328510995954,405.6328510995954,,,,,,460203,001,2024-01-24_16h38.36.496,REPSWITCH1_version2_list3,2022.2.4,144.01585381510324,
REPSWITCH1/PICTURE_498.png,taza,speak,darkblue,nontarget,2,NT,4,2,3,2,Stim4_Set4,1,switch,84,83,84,0,83,83,83,,,,,,,,,,,,,,,,,,,,,,,406.13292359933257,407.3692263998091,407.3692263998091,407.3692263998091,407.3692263998091,407.3692263998091,407.3692263998091,407.3692263998091,407.3692263998091,None,0,,,C:\2023\REPSWITCH21092023\REPSWITCH_excgange\REPSWITCH_excgange\data/460203_REPSWITCH1_version2_list3_2024-01-24_16h38.36.496_micRespv2l3_recorded\recording_micRespv2l3_2024-01-24_16h45.18.484.wav,410.3904005996883,410.89057799987495,None,410.3904005996883,410.3904005996883,410.3904005996883,410.3904005996883,410.3904005996883,410.3904005996883,,,,,,460203,001,2024-01-24_16h38.36.496,REPSWITCH1_version2_list3,2022.2.4,144.01585381510324,
REPSWITCH1/PICTURE_498.png,taza,speak,darkblue,repeat,2,T,4,2,3,2,Stim4_Set4,0,None,85,84,85,0,84,84,84,,,,,,,,,,,,,,,,,,,,,,,410.89057799987495,411.973993900232,411.973993900232,411.973993900232,411.973993900232,411.973993900232,411.973993900232,411.973993900232,411.973993900232,None,0,,,C:\2023\REPSWITCH21092023\REPSWITCH_excgange\REPSWITCH_excgange\data/460203_REPSWITCH1_version2_list3_2024-01-24_16h38.36.496_micRespv2l3_recorded\recording_micRespv2l3_2024-01-24_16h45.23.088.wav,414.99521529953927,415.4952593995258,None,414.99521529953927,414.99521529953927,414.99521529953927,414.99521529953927,414.99521529953927,414.99521529953927,,,,,,460203,001,2024-01-24_16h38.36.496,REPSWITCH1_version2_list3,2022.2.4,144.01585381510324,
REPSWITCH1/PICTURE_719.png,baño,speak,darkblue,nontarget,2,NT,4,2,3,2,Stim2_Set4,0,None,86,85,86,0,85,85,85,,,,,,,,,,,,,,,,,,,,,,,415.4952593995258,416.55103299953043,416.55103299953043,416.55103299953043,416.55103299953043,416.55103299953043,416.55103299953043,416.55103299953043,416.55103299953043,None,0,,,C:\2023\REPSWITCH21092023\REPSWITCH_excgange\REPSWITCH_excgange\data/460203_REPSWITCH1_version2_list3_2024-01-24_16h38.36.496_micRespv2l3_recorded\recording_micRespv2l3_2024-01-24_16h45.27.665.wav,419.5722067998722,420.07230350002646,None,419.5722067998722,419.5722067998722,419.5722067998722,419.5722067998722,419.5722067998722,419.5722067998722,,,,,,460203,001,2024-01-24_16h38.36.496,REPSWITCH1_version2_list3,2022.2.4,144.01585381510324,
REPSWITCH1/PICTURE_719.png,baño,type,gold,switch,1,T,4,2,3,2,Stim2_Set4,0,None,87,86,87,0,86,86,86,,,,,,,,,,,,,,,,,,,,,,,420.07230350002646,421.2390780001879,421.2390780001879,421.2390780001879,421.2390780001879,421.2390780001879,421.2390780001879,421.2390780001879,421.2390780001879,"['b', 'ñ', 'o', 'backspace', 'backspace', 'a']",0,"[0.7027328992262483, 1.3429640997201204, 1.5742031000554562, 2.2020630994811654, 2.4033800000324845, 2.535026199184358]",ba,C:\2023\REPSWITCH21092023\REPSWITCH_excgange\REPSWITCH_excgange\data/460203_REPSWITCH1_version2_list3_2024-01-24_16h38.36.496_micRespv2l3_recorded\recording_micRespv2l3_2024-01-24_16h45.32.354.wav,424.26029280014336,424.7604195000604,None,424.26029280014336,424.26029280014336,424.26029280014336,424.26029280014336,424.26029280014336,424.26029280014336,,,,,,460203,001,2024-01-24_16h38.36.496,REPSWITCH1_version2_list3,2022.2.4,144.01585381510324,
REPSWITCH1/PICTURE_320.png,iglesia,speak,darkblue,filler,2,F,4,2,3,2,Stim8_Set3,0,None,88,87,88,0,87,87,87,,,,,,,,,,,,,,,,,,,,,,,424.7604195000604,425.83690600004047,425.83690600004047,425.83690600004047,425.83690600004047,425.83690600004047,425.83690600004047,425.83690600004047,425.83690600004047,None,0,,,C:\2023\REPSWITCH21092023\REPSWITCH_excgange\REPSWITCH_excgange\data/460203_REPSWITCH1_version2_list3_2024-01-24_16h38.36.496_micRespv2l3_recorded\recording_micRespv2l3_2024-01-24_16h45.36.951.wav,428.8581309998408,429.3582029994577,None,428.8581309998408,428.8581309998408,428.8581309998408,428.8581309998408,428.8581309998408,428.8581309998408,,,,,,460203,001,2024-01-24_16h38.36.496,REPSWITCH1_version2_list3,2022.2.4,144.01585381510324,
REPSWITCH1/PICTURE_48.png,bombero,type,gold,nontarget,1,NT,4,2,3,2,Stim7_Set4,1,switch,89,88,89,0,88,88,88,,,,,,,,,,,,,,,,,,,,,,,429.3582029994577,430.4695255998522,430.4695255998522,430.4695255998522,430.4695255998522,430.4695255998522,430.4695255998522,430.4695255998522,430.4695255998522,"['b', 'o', 'm', 'b', 'e', 'r', 'o']",0,"[1.5522063001990318, 1.7018905002623796, 1.9321595001965761, 2.2772096004337072, 2.4878756999969482, 2.544625099748373, 2.733233300037682]",bombero,C:\2023\REPSWITCH21092023\REPSWITCH_excgange\REPSWITCH_excgange\data/460203_REPSWITCH1_version2_list3_2024-01-24_16h38.36.496_micRespv2l3_recorded\recording_micRespv2l3_2024-01-24_16h45.41.583.wav,433.49076869990677,433.9907692996785,None,433.49076869990677,433.49076869990677,433.49076869990677,433.49076869990677,433.49076869990677,433.49076869990677,,,,,,460203,001,2024-01-24_16h38.36.496,REPSWITCH1_version2_list3,2022.2.4,144.01585381510324,
REPSWITCH1/PICTURE_48.png,bombero,speak,darkblue,switch,2,T,4,2,3,2,Stim7_Set4,0,None,90,89,90,0,89,89,89,,,,,,,,,,,,,,,,,,,,,,,433.9907692996785,435.18540049996227,435.18540049996227,435.18540049996227,435.18540049996227,435.18540049996227,435.18540049996227,435.18540049996227,435.18540049996227,None,0,,,C:\2023\REPSWITCH21092023\REPSWITCH_excgange\REPSWITCH_excgange\data/460203_REPSWITCH1_version2_list3_2024-01-24_16h38.36.496_micRespv2l3_recorded\recording_micRespv2l3_2024-01-24_16h45.46.299.wav,438.2066321000457,438.70666159968823,None,438.2066321000457,438.2066321000457,438.2066321000457,438.2066321000457,438.2066321000457,438.2066321000457,,,,,,460203,001,2024-01-24_16h38.36.496,REPSWITCH1_version2_list3,2022.2.4,144.01585381510324,
REPSWITCH1/PICTURE_576.png,guante,type,gold,filler,1,F,4,2,3,2,Stim1_Set3,0,None,91,90,91,0,90,90,90,,,,,,,,,,,,,,,,,,,,,,,438.70666159968823,439.84576439950615,439.84576439950615,439.84576439950615,439.84576439950615,439.84576439950615,439.84576439950615,439.84576439950615,439.84576439950615,"['g', 'u', 'a', 'n', 't', 'e']",0,"[1.0313053000718355, 1.1510077994316816, 1.3034079996868968, 1.553545099683106, 1.6791423996910453, 1.7180337002500892]",guante,C:\2023\REPSWITCH21092023\REPSWITCH_excgange\REPSWITCH_excgange\data/460203_REPSWITCH1_version2_list3_2024-01-24_16h38.36.496_micRespv2l3_recorded\recording_micRespv2l3_2024-01-24_16h45.50.960.wav,442.86691529955715,443.36707239970565,None,442.86691529955715,442.86691529955715,442.86691529955715,442.86691529955715,442.86691529955715,442.86691529955715,,,,,,460203,001,2024-01-24_16h38.36.496,REPSWITCH1_version2_list3,2022.2.4,144.01585381510324,
REPSWITCH1/PICTURE_271.png,conejo,speak,darkblue,filler,2,F,4,2,3,2,Stim7_Set3,0,None,92,91,92,0,91,91,91,,,,,,,,,,,,,,,,,,,,,,,443.36707239970565,444.4504622993991,444.4504622993991,444.4504622993991,444.4504622993991,444.4504622993991,444.4504622993991,444.4504622993991,444.4504622993991,None,0,,,C:\2023\REPSWITCH21092023\REPSWITCH_excgange\REPSWITCH_excgange\data/460203_REPSWITCH1_version2_list3_2024-01-24_16h38.36.496_micRespv2l3_recorded\recording_micRespv2l3_2024-01-24_16h45.55.566.wav,447.47865420021117,,None,447.47865420021117,447.47865420021117,447.47865420021117,447.47865420021117,447.47865420021117,447.47865420021117,,,,,,460203,001,2024-01-24_16h38.36.496,REPSWITCH1_version2_list3,2022.2.4,144.01585381510324,
REPSWITCH1/PICTURE_319.png,vaca,speak,darkblue,nontarget,2,NT,4,2,3,2,Stim1_Set4,1,repeat,93,92,93,0,92,92,92,,,,,,,,,,,,,,,,,,,,,,,447.9787111999467,449.0413552997634,449.0413552997634,449.0413552997634,449.0413552997634,449.0413552997634,449.0413552997634,449.0413552997634,449.0413552997634,None,0,,,C:\2023\REPSWITCH21092023\REPSWITCH_excgange\REPSWITCH_excgange\data/460203_REPSWITCH1_version2_list3_2024-01-24_16h38.36.496_micRespv2l3_recorded\recording_micRespv2l3_2024-01-24_16h46.00.156.wav,452.06952410005033,,None,452.06952410005033,452.06952410005033,452.06952410005033,452.06952410005033,452.06952410005033,452.06952410005033,,,,,,460203,001,2024-01-24_16h38.36.496,REPSWITCH1_version2_list3,2022.2.4,144.01585381510324,
REPSWITCH1/PICTURE_319.png,vaca,speak,darkblue,repeat,2,T,4,2,3,2,Stim1_Set4,0,None,94,93,94,0,93,93,93,,,,,,,,,,,,,,,,,,,,,,,452.5695995995775,453.59054609946907,453.59054609946907,453.59054609946907,453.59054609946907,453.59054609946907,453.59054609946907,453.59054609946907,453.59054609946907,None,0,,,C:\2023\REPSWITCH21092023\REPSWITCH_excgange\REPSWITCH_excgange\data/460203_REPSWITCH1_version2_list3_2024-01-24_16h38.36.496_micRespv2l3_recorded\recording_micRespv2l3_2024-01-24_16h46.04.706.wav,456.61178679950535,457.11185359954834,None,456.61178679950535,456.61178679950535,456.61178679950535,456.61178679950535,456.61178679950535,456.61178679950535,,,,,,460203,001,2024-01-24_16h38.36.496,REPSWITCH1_version2_list3,2022.2.4,144.01585381510324,
REPSWITCH1/PICTURE_242.png,cartero,type,gold,filler,1,F,4,2,3,2,Stim3_Set3,0,None,95,94,95,0,94,94,94,,,,,,,,,,,,,,,,,,,,,,,457.11185359954834,458.26478139963,458.26478139963,458.26478139963,458.26478139963,458.26478139963,458.26478139963,458.26478139963,458.26478139963,"['c', 'a', 'r', 't', 'e', 'r', 'o']",0,"[1.3865169007331133, 1.5061420006677508, 1.6436846004799008, 1.8440175000578165, 1.903813499957323, 2.0134425004944205, 2.2440490005537868]",cartero,C:\2023\REPSWITCH21092023\REPSWITCH_excgange\REPSWITCH_excgange\data/460203_REPSWITCH1_version2_list3_2024-01-24_16h38.36.496_micRespv2l3_recorded\recording_micRespv2l3_2024-01-24_16h46.09.379.wav,461.28601599950343,461.7860559001565,None,461.28601599950343,461.28601599950343,461.28601599950343,461.28601599950343,461.28601599950343,461.28601599950343,,,,,,460203,001,2024-01-24_16h38.36.496,REPSWITCH1_version2_list3,2022.2.4,144.01585381510324,
REPSWITCH1/PICTURE_35.png,oreja,speak,darkblue,filler,2,F,4,2,3,2,Stim5_Set3,1,switch,96,95,96,0,95,95,95,,,,,,,,,,,,,,,,,,,,,,,461.7860559001565,462.8903693994507,462.8903693994507,462.8903693994507,462.8903693994507,462.8903693994507,462.8903693994507,462.8903693994507,462.8903693994507,None,0,,,C:\2023\REPSWITCH21092023\REPSWITCH_excgange\REPSWITCH_excgange\data/460203_REPSWITCH1_version2_list3_2024-01-24_16h38.36.496_micRespv2l3_recorded\recording_micRespv2l3_2024-01-24_16h46.14.005.wav,465.91159989964217,466.411681599915,None,465.91159989964217,465.91159989964217,465.91159989964217,465.91159989964217,465.91159989964217,465.91159989964217,,,,,,460203,001,2024-01-24_16h38.36.496,REPSWITCH1_version2_list3,2022.2.4,144.01585381510324,
REPSWITCH1/PICTURE_338.png,regalo,speak,darkblue,nontarget,2,NT,4,2,3,2,Stim6_Set4,1,repeat,97,96,97,0,96,96,96,,,,,,,,,,,,,,,,,,,,,,,466.411681599915,467.48125000018626,467.48125000018626,467.48125000018626,467.48125000018626,467.48125000018626,467.48125000018626,467.48125000018626,467.48125000018626,None,0,,,C:\2023\REPSWITCH21092023\REPSWITCH_excgange\REPSWITCH_excgange\data/460203_REPSWITCH1_version2_list3_2024-01-24_16h38.36.496_micRespv2l3_recorded\recording_micRespv2l3_2024-01-24_16h46.18.595.wav,470.5025725001469,471.0025666002184,None,470.5025725001469,470.5025725001469,470.5025725001469,470.5025725001469,470.5025725001469,470.5025725001469,,,,,,460203,001,2024-01-24_16h38.36.496,REPSWITCH1_version2_list3,2022.2.4,144.01585381510324,
REPSWITCH1/PICTURE_338.png,regalo,type,gold,switch,1,T,4,2,3,2,Stim6_Set4,0,None,98,97,98,0,97,97,97,,,,,,,,,,,,,,,,,,,,,,,471.0025666002184,472.1138429995626,472.1138429995626,472.1138429995626,472.1138429995626,472.1138429995626,472.1138429995626,472.1138429995626,472.1138429995626,"['r', 'e', 'g', 'a', 'l', 'o']",0,"[0.8073847992345691, 0.8402745993807912, 1.0708348993211985, 1.2040781993418932, 1.3479289999231696, 1.5563608994707465]",regalo,C:\2023\REPSWITCH21092023\REPSWITCH_excgange\REPSWITCH_excgange\data/460203_REPSWITCH1_version2_list3_2024-01-24_16h38.36.496_micRespv2l3_recorded\recording_micRespv2l3_2024-01-24_16h46.23.228.wav,475.1350288996473,475.63510229997337,None,475.1350288996473,475.1350288996473,475.1350288996473,475.1350288996473,475.1350288996473,475.1350288996473,,,,,,460203,001,2024-01-24_16h38.36.496,REPSWITCH1_version2_list3,2022.2.4,144.01585381510324,
REPSWITCH1/PICTURE_687.png,camisa,type,gold,nontarget,1,NT,4,2,3,2,Stim5_Set4,0,None,99,98,99,0,98,98,98,,,,,,,,,,,,,,,,,,,,,,,475.63510229997337,476.7533689001575,476.7533689001575,476.7533689001575,476.7533689001575,476.7533689001575,476.7533689001575,476.7533689001575,476.7533689001575,"['c', 'a', 'm', 'o', 's', 'a', 'backspace', 'backspace', 'backspace', 'o']",0,"[0.9601151002570987, 1.0427879001945257, 1.2243972001597285, 1.440353499725461, 1.588819400407374, 1.6366908997297287, 2.204122300259769, 2.3608742002397776, 2.5627905996516347, 2.9266133001074195]",camo,C:\2023\REPSWITCH21092023\REPSWITCH_excgange\REPSWITCH_excgange\data/460203_REPSWITCH1_version2_list3_2024-01-24_16h38.36.496_micRespv2l3_recorded\recording_micRespv2l3_2024-01-24_16h46.27.868.wav,479.77457689959556,480.2746180994436,None,479.77457689959556,479.77457689959556,479.77457689959556,479.77457689959556,479.77457689959556,479.77457689959556,,,,,,460203,001,2024-01-24_16h38.36.496,REPSWITCH1_version2_list3,2022.2.4,144.01585381510324,
REPSWITCH1/PICTURE_687.png,camisa,type,gold,repeat,1,T,4,2,3,2,Stim5_Set4,0,None,100,99,100,0,99,99,99,,,,,,,,,,,,,,,,,,,,,,,480.2746180994436,481.3789225993678,481.3789225993678,481.3789225993678,481.3789225993678,481.3789225993678,481.3789225993678,481.3789225993678,481.3789225993678,"['c', 'a', 'm', 'i', 's', 'a']",0,"[0.8402938991785049, 0.9512423994019628, 1.1598368994891644, 1.3413629997521639, 1.4680385999381542, 1.587626799941063]",camisa,C:\2023\REPSWITCH21092023\REPSWITCH_excgange\REPSWITCH_excgange\data/460203_REPSWITCH1_version2_list3_2024-01-24_16h38.36.496_micRespv2l3_recorded\recording_micRespv2l3_2024-01-24_16h46.32.493.wav,484.4001286001876,484.90020370017737,None,484.4001286001876,484.4001286001876,484.4001286001876,484.4001286001876,484.4001286001876,484.4001286001876,,,,,,460203,001,2024-01-24_16h38.36.496,REPSWITCH1_version2_list3,2022.2.4,144.01585381510324,
REPSWITCH1/PICTURE_340.png,espejo,speak,darkblue,filler,2,F,4,2,3,2,Extra1,0,None,101,100,101,0,100,100,100,,,,,,,,,,,,,,,,,,,,,,,484.90020370017737,486.09485379979014,486.09485379979014,486.09485379979014,486.09485379979014,486.09485379979014,486.09485379979014,486.09485379979014,486.09485379979014,None,0,,,C:\2023\REPSWITCH21092023\REPSWITCH_excgange\REPSWITCH_excgange\data/460203_REPSWITCH1_version2_list3_2024-01-24_16h38.36.496_micRespv2l3_recorded\recording_micRespv2l3_2024-01-24_16h46.37.210.wav,489.1160161998123,489.616113900207,None,489.1160161998123,489.1160161998123,489.1160161998123,489.1160161998123,489.1160161998123,489.1160161998123,,,,,,460203,001,2024-01-24_16h38.36.496,REPSWITCH1_version2_list3,2022.2.4,144.01585381510324,
REPSWITCH1/PICTURE_610.png,miel,type,gold,filler,1,F,4,2,3,2,Stim2_Set3,0,None,102,101,102,0,101,101,101,,,,,,,,,,,,,,,,,,,,,,,489.616113900207,490.70657549984753,490.70657549984753,490.70657549984753,490.70657549984753,490.70657549984753,490.70657549984753,490.70657549984753,490.70657549984753,"['m', 'i', 'e', 'l']",0,"[0.8342043999582529, 0.991894899867475, 1.1375222001224756, 1.262092899531126]",miel,C:\2023\REPSWITCH21092023\REPSWITCH_excgange\REPSWITCH_excgange\data/460203_REPSWITCH1_version2_list3_2024-01-24_16h38.36.496_micRespv2l3_recorded\recording_micRespv2l3_2024-01-24_16h46.41.821.wav,493.72775609977543,494.22784269973636,space,493.72775609977543,493.72775609977543,493.72775609977543,493.72775609977543,493.72775609977543,493.72775609977543,494.22784269973636,494.22784269973636,9.140345700085163,,,460203,001,2024-01-24_16h38.36.496,REPSWITCH1_version2_list3,2022.2.4,144.01585381510324,
REPSWITCH1/PICTURE_8.png,pierna,type,gold,filler,1,F,1,4,3,2,Stim3_Set4,0,None,103,102,1,0,102,102,102,,,,,,,,,,,,,,,,,,,,,,,503.3818180998787,504.4375777002424,504.4375777002424,504.4375777002424,504.4375777002424,504.4375777002424,504.4375777002424,504.4375777002424,504.4375777002424,"['p', 'i', 'e', 'r', 'n', 'a']",0,"[1.2453458001837134, 1.5084759006276727, 1.5936566004529595, 1.6425298005342484, 1.7591327000409365, 1.8757129004225135]",pierna,C:\2023\REPSWITCH21092023\REPSWITCH_excgange\REPSWITCH_excgange\data/460203_REPSWITCH1_version2_list3_2024-01-24_16h38.36.496_micRespv2l3_recorded\recording_micRespv2l3_2024-01-24_16h46.55.552.wav,507.4587498996407,507.9588129995391,None,507.4587498996407,507.4587498996407,507.4587498996407,507.4587498996407,507.4587498996407,507.4587498996407,,,,,,460203,001,2024-01-24_16h38.36.496,REPSWITCH1_version2_list3,2022.2.4,144.01585381510324,
REPSWITCH1/PICTURE_498.png,taza,speak,darkblue,filler,2,F,1,4,3,2,Stim4_Set4,0,None,104,103,2,0,103,103,103,,,,,,,,,,,,,,,,,,,,,,,507.9588129995391,509.0076155997813,509.0076155997813,509.0076155997813,509.0076155997813,509.0076155997813,509.0076155997813,509.0076155997813,509.0076155997813,None,0,,,C:\2023\REPSWITCH21092023\REPSWITCH_excgange\REPSWITCH_excgange\data/460203_REPSWITCH1_version2_list3_2024-01-24_16h38.36.496_micRespv2l3_recorded\recording_micRespv2l3_2024-01-24_16h47.00.122.wav,512.0287979999557,512.528835600242,None,512.0287979999557,512.0287979999557,512.0287979999557,512.0287979999557,512.0287979999557,512.0287979999557,,,,,,460203,001,2024-01-24_16h38.36.496,REPSWITCH1_version2_list3,2022.2.4,144.01585381510324,
REPSWITCH1/PICTURE_19.png,pavo,speak,darkblue,nontarget,2,NT,1,4,3,2,Stim5_Set1,1,repeat,105,104,3,0,104,104,104,,,,,,,,,,,,,,,,,,,,,,,512.528835600242,513.6331604002044,513.6331604002044,513.6331604002044,513.6331604002044,513.6331604002044,513.6331604002044,513.6331604002044,513.6331604002044,None,0,,,C:\2023\REPSWITCH21092023\REPSWITCH_excgange\REPSWITCH_excgange\data/460203_REPSWITCH1_version2_list3_2024-01-24_16h38.36.496_micRespv2l3_recorded\recording_micRespv2l3_2024-01-24_16h47.04.748.wav,516.6613788995892,,None,516.6613788995892,516.6613788995892,516.6613788995892,516.6613788995892,516.6613788995892,516.6613788995892,,,,,,460203,001,2024-01-24_16h38.36.496,REPSWITCH1_version2_list3,2022.2.4,144.01585381510324,
REPSWITCH1/PICTURE_19.png,pavo,speak,darkblue,repeat,2,T,1,4,3,2,Stim5_Set1,0,None,106,105,4,0,105,105,105,,,,,,,,,,,,,,,,,,,,,,,517.161375399679,518.2726878998801,518.2726878998801,518.2726878998801,518.2726878998801,518.2726878998801,518.2726878998801,518.2726878998801,518.2726878998801,None,0,,,C:\2023\REPSWITCH21092023\REPSWITCH_excgange\REPSWITCH_excgange\data/460203_REPSWITCH1_version2_list3_2024-01-24_16h38.36.496_micRespv2l3_recorded\recording_micRespv2l3_2024-01-24_16h47.09.387.wav,521.2938904995099,521.7939574001357,None,521.2938904995099,521.2938904995099,521.2938904995099,521.2938904995099,521.2938904995099,521.2938904995099,,,,,,460203,001,2024-01-24_16h38.36.496,REPSWITCH1_version2_list3,2022.2.4,144.01585381510324,
REPSWITCH1/PICTURE_319.png,vaca,type,gold,filler,1,F,1,4,3,2,Stim1_Set4,1,repeat,107,106,5,0,106,106,106,,,,,,,,,,,,,,,,,,,,,,,521.7939574001357,523.0024590995163,523.0024590995163,523.0024590995163,523.0024590995163,523.0024590995163,523.0024590995163,523.0024590995163,523.0024590995163,"['v', 'a', 'c', 'a']",0,"[0.983092600479722, 1.1864071004092693, 1.3827531998977065, 1.497647000476718]",vaca,C:\2023\REPSWITCH21092023\REPSWITCH_excgange\REPSWITCH_excgange\data/460203_REPSWITCH1_version2_list3_2024-01-24_16h38.36.496_micRespv2l3_recorded\recording_micRespv2l3_2024-01-24_16h47.14.117.wav,526.0306319994852,,None,526.0306319994852,526.0306319994852,526.0306319994852,526.0306319994852,526.0306319994852,526.0306319994852,,,,,,460203,001,2024-01-24_16h38.36.496,REPSWITCH1_version2_list3,2022.2.4,144.01585381510324,
REPSWITCH1/PICTURE_169.png,espalda,speak,darkblue,nontarget,2,NT,1,4,3,2,Stim8_Set1,1,switch,108,107,6,0,107,107,107,,,,,,,,,,,,,,,,,,,,,,,526.5307586994022,527.6350581999868,527.6350581999868,527.6350581999868,527.6350581999868,527.6350581999868,527.6350581999868,527.6350581999868,527.6350581999868,None,0,,,C:\2023\REPSWITCH21092023\REPSWITCH_excgange\REPSWITCH_excgange\data/460203_REPSWITCH1_version2_list3_2024-01-24_16h38.36.496_micRespv2l3_recorded\recording_micRespv2l3_2024-01-24_16h47.18.749.wav,530.6562072997913,531.1562898000702,None,530.6562072997913,530.6562072997913,530.6562072997913,530.6562072997913,530.6562072997913,530.6562072997913,,,,,,460203,001,2024-01-24_16h38.36.496,REPSWITCH1_version2_list3,2022.2.4,144.01585381510324,
REPSWITCH1/PICTURE_169.png,espalda,speak,darkblue,repeat,2,T,1,4,3,2,Stim8_Set1,0,None,109,108,7,0,108,108,108,,,,,,,,,,,,,,,,,,,,,,,531.1562898000702,532.2536597000435,532.2536597000435,532.2536597000435,532.2536597000435,532.2536597000435,532.2536597000435,532.2536597000435,532.2536597000435,None,0,,,C:\2023\REPSWITCH21092023\REPSWITCH_excgange\REPSWITCH_excgange\data/460203_REPSWITCH1_version2_list3_2024-01-24_16h38.36.496_micRespv2l3_recorded\recording_micRespv2l3_2024-01-24_16h47.23.368.wav,535.2748735994101,535.774953099899,None,535.2748735994101,535.2748735994101,535.2748735994101,535.2748735994101,535.2748735994101,535.2748735994101,,,,,,460203,001,2024-01-24_16h38.36.496,REPSWITCH1_version2_list3,2022.2.4,144.01585381510324,
REPSWITCH1/PICTURE_728.png,pulpo,type,gold,filler,1,F,1,4,3,2,Stim8_Set4,0,None,110,109,8,0,109,109,109,,,,,,,,,,,,,,,,,,,,,,,535.774953099899,536.9139924999326,536.9139924999326,536.9139924999326,536.9139924999326,536.9139924999326,536.9139924999326,536.9139924999326,536.9139924999326,"['p', 'u', 'l', 'p', 'o']",0,"[1.0933416998013854, 1.4502335004508495, 1.7259411998093128, 1.9993137000128627, 2.2245919005945325]",pulpo,C:\2023\REPSWITCH21092023\REPSWITCH_excgange\REPSWITCH_excgange\data/460203_REPSWITCH1_version2_list3_2024-01-24_16h38.36.496_micRespv2l3_recorded\recording_micRespv2l3_2024-01-24_16h47.28.028.wav,539.9351990995929,540.4352747993544,None,539.9351990995929,539.9351990995929,539.9351990995929,539.9351990995929,539.9351990995929,539.9351990995929,,,,,,460203,001,2024-01-24_16h38.36.496,REPSWITCH1_version2_list3,2022.2.4,144.01585381510324,
REPSWITCH1/PICTURE_142.png,vaso,speak,darkblue,nontarget,2,NT,1,4,3,2,Stim7_Set1,1,switch,111,110,9,0,110,110,110,,,,,,,,,,,,,,,,,,,,,,,540.4352747993544,541.5257390001789,541.5257390001789,541.5257390001789,541.5257390001789,541.5257390001789,541.5257390001789,541.5257390001789,541.5257390001789,None,0,,,C:\2023\REPSWITCH21092023\REPSWITCH_excgange\REPSWITCH_excgange\data/460203_REPSWITCH1_version2_list3_2024-01-24_16h38.36.496_micRespv2l3_recorded\recording_micRespv2l3_2024-01-24_16h47.32.641.wav,544.5538737000898,,None,544.5538737000898,544.5538737000898,544.5538737000898,544.5538737000898,544.5538737000898,544.5538737000898,,,,,,460203,001,2024-01-24_16h38.36.496,REPSWITCH1_version2_list3,2022.2.4,144.01585381510324,
REPSWITCH1/PICTURE_142.png,vaso,type,gold,switch,1,T,1,4,3,2,Stim7_Set1,0,None,112,111,10,0,111,111,111,,,,,,,,,,,,,,,,,,,,,,,545.0539528997615,546.1651989994571,546.1651989994571,546.1651989994571,546.1651989994571,546.1651989994571,546.1651989994571,546.1651989994571,546.1651989994571,"['v', 'a', 's', 'o']",0,"[0.8636086005717516, 1.0265894001349807, 1.119672100059688, 1.2049230998381972]",vaso,C:\2023\REPSWITCH21092023\REPSWITCH_excgange\REPSWITCH_excgange\data/460203_REPSWITCH1_version2_list3_2024-01-24_16h38.36.496_micRespv2l3_recorded\recording_micRespv2l3_2024-01-24_16h47.37.280.wav,549.1864058999345,549.686506099999,None,549.1864058999345,549.1864058999345,549.1864058999345,549.1864058999345,549.1864058999345,549.1864058999345,,,,,,460203,001,2024-01-24_16h38.36.496,REPSWITCH1_version2_list3,2022.2.4,144.01585381510324,
REPSWITCH1/PICTURE_338.png,regalo,type,gold,filler,1,F,1,4,3,2,Stim6_Set4,1,repeat,113,112,11,0,112,112,112,,,,,,,,,,,,,,,,,,,,,,,549.686506099999,550.7908792002127,550.7908792002127,550.7908792002127,550.7908792002127,550.7908792002127,550.7908792002127,550.7908792002127,550.7908792002127,"['r', 'e', 'g', 'a', 'l', 'o']",0,"[1.2413150006905198, 1.304130100645125, 1.5164323998615146, 1.6563217006623745, 1.7459515007212758, 1.985610700212419]",regalo,C:\2023\REPSWITCH21092023\REPSWITCH_excgange\REPSWITCH_excgange\data/460203_REPSWITCH1_version2_list3_2024-01-24_16h38.36.496_micRespv2l3_recorded\recording_micRespv2l3_2024-01-24_16h47.41.906.wav,553.8190246000886,,None,553.8190246000886,553.8190246000886,553.8190246000886,553.8190246000886,553.8190246000886,553.8190246000886,,,,,,460203,001,2024-01-24_16h38.36.496,REPSWITCH1_version2_list3,2022.2.4,144.01585381510324,
REPSWITCH1/PICTURE_135.png,traje,type,gold,nontarget,1,NT,1,4,3,2,Stim3_Set1,1,repeat,114,113,12,0,113,113,113,,,,,,,,,,,,,,,,,,,,,,,554.3190613994375,555.4372440995649,555.4372440995649,555.4372440995649,555.4372440995649,555.4372440995649,555.4372440995649,555.4372440995649,555.4372440995649,"['t', 'r', 'a', 'j', 'e']",0,"[0.8456673994660378, 1.0236875992268324, 1.2140093995258212, 1.550870900042355, 1.7243554992601275]",traje,C:\2023\REPSWITCH21092023\REPSWITCH_excgange\REPSWITCH_excgange\data/460203_REPSWITCH1_version2_list3_2024-01-24_16h38.36.496_micRespv2l3_recorded\recording_micRespv2l3_2024-01-24_16h47.46.552.wav,558.458497799933,558.9585704999045,None,558.458497799933,558.458497799933,558.458497799933,558.458497799933,558.458497799933,558.458497799933,,,,,,460203,001,2024-01-24_16h38.36.496,REPSWITCH1_version2_list3,2022.2.4,144.01585381510324,
REPSWITCH1/PICTURE_135.png,traje,speak,darkblue,switch,2,T,1,4,3,2,Stim3_Set1,0,None,115,114,13,0,114,114,114,,,,,,,,,,,,,,,,,,,,,,,558.9585704999045,560.0004230001941,560.0004230001941,560.0004230001941,560.0004230001941,560.0004230001941,560.0004230001941,560.0004230001941,560.0004230001941,None,0,,,C:\2023\REPSWITCH21092023\REPSWITCH_excgange\REPSWITCH_excgange\data/460203_REPSWITCH1_version2_list3_2024-01-24_16h38.36.496_micRespv2l3_recorded\recording_micRespv2l3_2024-01-24_16h47.51.115.wav,563.0285337995738,,None,563.0285337995738,563.0285337995738,563.0285337995738,563.0285337995738,563.0285337995738,563.0285337995738,,,,,,460203,001,2024-01-24_16h38.36.496,REPSWITCH1_version2_list3,2022.2.4,144.01585381510324,
REPSWITCH1/PICTURE_381.png,fresa,speak,darkblue,nontarget,2,NT,1,4,3,2,Stim2_Set1,1,repeat,116,115,14,0,115,115,115,,,,,,,,,,,,,,,,,,,,,,,563.5285973995924,564.5495783993974,564.5495783993974,564.5495783993974,564.5495783993974,564.5495783993974,564.5495783993974,564.5495783993974,564.5495783993974,None,0,,,C:\2023\REPSWITCH21092023\REPSWITCH_excgange\REPSWITCH_excgange\data/460203_REPSWITCH1_version2_list3_2024-01-24_16h38.36.496_micRespv2l3_recorded\recording_micRespv2l3_2024-01-24_16h47.55.665.wav,567.5708353994414,568.0708355000243,None,567.5708353994414,567.5708353994414,567.5708353994414,567.5708353994414,567.5708353994414,567.5708353994414,,,,,,460203,001,2024-01-24_16h38.36.496,REPSWITCH1_version2_list3,2022.2.4,144.01585381510324,
REPSWITCH1/PICTURE_381.png,fresa,type,gold,switch,1,T,1,4,3,2,Stim2_Set1,0,None,117,116,15,0,116,116,116,,,,,,,,,,,,,,,,,,,,,,,568.0708355000243,569.0987863000482,569.0987863000482,569.0987863000482,569.0987863000482,569.0987863000482,569.0987863000482,569.0987863000482,569.0987863000482,"['f', 'r', 'e', 's', 'a']",0,"[0.895248600281775, 1.0925633003935218, 1.21311470028013, 1.5351203000172973, 1.6298473002389073]",fresa,C:\2023\REPSWITCH21092023\REPSWITCH_excgange\REPSWITCH_excgange\data/460203_REPSWITCH1_version2_list3_2024-01-24_16h38.36.496_micRespv2l3_recorded\recording_micRespv2l3_2024-01-24_16h48.00.213.wav,572.1199767999351,572.6200720993802,None,572.1199767999351,572.1199767999351,572.1199767999351,572.1199767999351,572.1199767999351,572.1199767999351,,,,,,460203,001,2024-01-24_16h38.36.496,REPSWITCH1_version2_list3,2022.2.4,144.01585381510324,
REPSWITCH1/PICTURE_48.png,bombero,type,gold,filler,1,F,1,4,3,2,Stim7_Set4,0,None,118,117,16,0,117,117,117,,,,,,,,,,,,,,,,,,,,,,,572.6200720993802,573.7174744000658,573.7174744000658,573.7174744000658,573.7174744000658,573.7174744000658,573.7174744000658,573.7174744000658,573.7174744000658,"['b', 'o', 'm', 'b', 'e', 'r', 'o']",0,"[1.3353957002982497, 1.4812030997127295, 1.8154103001579642, 2.2452739998698235, 2.4539276994764805, 2.497778800316155, 2.677568200044334]",bombero,C:\2023\REPSWITCH21092023\REPSWITCH_excgange\REPSWITCH_excgange\data/460203_REPSWITCH1_version2_list3_2024-01-24_16h38.36.496_micRespv2l3_recorded\recording_micRespv2l3_2024-01-24_16h48.04.832.wav,576.7456064000726,,None,576.7456064000726,576.7456064000726,576.7456064000726,576.7456064000726,576.7456064000726,576.7456064000726,,,,,,460203,001,2024-01-24_16h38.36.496,REPSWITCH1_version2_list3,2022.2.4,144.01585381510324,
REPSWITCH1/PICTURE_687.png,camisa,speak,darkblue,filler,2,F,1,4,3,2,Stim5_Set4,0,None,119,118,17,0,118,118,118,,,,,,,,,,,,,,,,,,,,,,,577.2456791000441,578.3360860999674,578.3360860999674,578.3360860999674,578.3360860999674,578.3360860999674,578.3360860999674,578.3360860999674,578.3360860999674,None,0,,,C:\2023\REPSWITCH21092023\REPSWITCH_excgange\REPSWITCH_excgange\data/460203_REPSWITCH1_version2_list3_2024-01-24_16h38.36.496_micRespv2l3_recorded\recording_micRespv2l3_2024-01-24_16h48.09.451.wav,581.3573088999838,581.8573743002489,None,581.3573088999838,581.3573088999838,581.3573088999838,581.3573088999838,581.3573088999838,581.3573088999838,,,,,,460203,001,2024-01-24_16h38.36.496,REPSWITCH1_version2_list3,2022.2.4,144.01585381510324,
REPSWITCH1/PICTURE_128.png,muñeca,type,gold,nontarget,1,NT,1,4,3,2,Stim4_Set1,0,None,120,119,18,0,119,119,119,,,,,,,,,,,,,,,,,,,,,,,581.8573743002489,582.892256599851,582.892256599851,582.892256599851,582.892256599851,582.892256599851,582.892256599851,582.892256599851,582.892256599851,"['m', 'u', 'ñ', 'e', 'r', 'backspace', 'c']",0,"[1.1013302998617291, 1.5303445998579264, 1.9580455999821424, 2.0781704001128674, 2.159861800260842, 2.827251499518752, 2.959282400086522]",muñec,C:\2023\REPSWITCH21092023\REPSWITCH_excgange\REPSWITCH_excgange\data/460203_REPSWITCH1_version2_list3_2024-01-24_16h38.36.496_micRespv2l3_recorded\recording_micRespv2l3_2024-01-24_16h48.14.007.wav,585.9134925995022,586.4135347995907,None,585.9134925995022,585.9134925995022,585.9134925995022,585.9134925995022,585.9134925995022,585.9134925995022,,,,,,460203,001,2024-01-24_16h38.36.496,REPSWITCH1_version2_list3,2022.2.4,144.01585381510324,
