image,correctAns,famTrials.thisRepN,famTrials.thisTrialN,famTrials.thisN,famTrials.thisIndex,textWelcomeFam.started,textBlank500.started,textboxInstrFam.started,keyInstrFam.started,keyInstrFam.keys,keyInstrFam.rt,textBlank500.stopped,fixationITI.started,fixationITI.stopped,polygonWhiteFam.started,imageFam.started,micFam.started,textFam.started,textFam.stopped,micFam.clip,textboxEndFam.started,keyEndFam.started,textboxEndFam.stopped,keyEndFam.keys,keyEndFam.rt,participant,session,date,expName,psychopyVersion,frameRate,
,,,,,,11.550307899946347,13.564827899914235,14.064524299930781,14.064524299930781,space,4.791579100070521,,,,,,,,,,,,,,,51,001,2023-07-03_15h05.36.013,Fam,2022.2.4,59.973108049072366,
REPSWITCH1_Fam/PICTURE_19.png,pavo,0,0,0,8,,26.760830799816176,,,,,19.395171199925244,19.395171199925244,20.879153599962592,20.879153599962592,20.879153599962592,0.11130110011436045,24.212706099962816,26.712243699934334,D:\GitHub\experiment1\data/51_Fam_2023-07-03_15h05.36.013_micFam_recorded\recording_micFam_2023-07-03_15h05.56.290.wav,,,,,,51,001,2023-07-03_15h05.36.013,Fam,2022.2.4,59.973108049072366,
REPSWITCH1_Fam/PICTURE_319.png,vaca,0,1,1,15,,34.55834360001609,,,,,,27.24482429982163,28.660396700026467,28.660396700026467,28.660396700026467,0.13775129988789558,32.01076689991169,34.510380499996245,D:\GitHub\experiment1\data/51_Fam_2023-07-03_15h05.36.013_micFam_recorded\recording_micFam_2023-07-03_15h06.04.090.wav,,,,,,51,001,2023-07-03_15h05.36.013,Fam,2022.2.4,59.973108049072366,
REPSWITCH1_Fam/PICTURE_728.png,pulpo,0,2,2,30,,42.273102399893105,,,,,,35.04280289984308,36.3752521998249,36.3752521998249,36.3752521998249,0.13540659984573722,39.72577259992249,42.22536839987151,D:\GitHub\experiment1\data/51_Fam_2023-07-03_15h05.36.013_micFam_recorded\recording_micFam_2023-07-03_15h06.11.803.wav,,,,,,51,001,2023-07-03_15h05.36.013,Fam,2022.2.4,59.973108049072366,
REPSWITCH1_Practice/PICTURE_599.png,nube,0,3,3,33,,49.98793249996379,,,,,,42.75761299999431,44.106594499899074,44.106594499899074,44.106594499899074,0.14554099994711578,47.4404649999924,49.939870100002736,D:\GitHub\experiment1\data/51_Fam_2023-07-03_15h05.36.013_micFam_recorded\recording_micFam_2023-07-03_15h06.19.517.wav,,,,,,51,001,2023-07-03_15h05.36.013,Fam,2022.2.4,59.973108049072366,
REPSWITCH1_Fam/PICTURE_128.png,muñeca,0,4,4,0,,57.58640889986418,,,,,,50.472411799943075,51.55629099998623,51.55629099998623,51.55629099998623,0.0021871000062674284,55.05537860002369,57.55476069985889,D:\GitHub\experiment1\data/51_Fam_2023-07-03_15h05.36.013_micFam_recorded\recording_micFam_2023-07-03_15h06.27.122.wav,,,,,,51,001,2023-07-03_15h05.36.013,Fam,2022.2.4,59.973108049072366,
REPSWITCH1_Fam/PICTURE_576.png,guante,0,5,5,26,,65.30116409994662,,,,,,58.07074659992941,59.386378899915144,59.386378899915144,59.386378899915144,0.12049379991367459,62.753427299903706,65.25274779996835,D:\GitHub\experiment1\data/51_Fam_2023-07-03_15h05.36.013_micFam_recorded\recording_micFam_2023-07-03_15h06.34.837.wav,,,,,,51,001,2023-07-03_15h05.36.013,Fam,2022.2.4,59.973108049072366,
REPSWITCH1_Fam/PICTURE_199.png,falda,0,6,6,9,,73.06574689992703,,,,,,65.78559589991346,67.20114229992032,67.20114229992032,67.20114229992032,0.16146559990011156,70.51822039997205,73.01765789999627,D:\GitHub\experiment1\data/51_Fam_2023-07-03_15h05.36.013_micFam_recorded\recording_micFam_2023-07-03_15h06.42.601.wav,,,,,,51,001,2023-07-03_15h05.36.013,Fam,2022.2.4,59.973108049072366,
REPSWITCH1_Fam/PICTURE_446.png,cerdo,0,7,7,20,,80.76384679996409,,,,,,73.55031819990836,74.86625509988517,74.86625509988517,74.86625509988517,0.1389685000758618,78.2164467999246,80.71586769982241,D:\GitHub\experiment1\data/51_Fam_2023-07-03_15h05.36.013_micFam_recorded\recording_micFam_2023-07-03_15h06.50.298.wav,,,,,,51,001,2023-07-03_15h05.36.013,Fam,2022.2.4,59.973108049072366,
REPSWITCH1_Fam/PICTURE_264.png,mano,0,8,8,12,,88.2955823999364,,,,,,81.24852050002664,82.28114299988374,82.28114299988374,82.28114299988374,0.009344000136479735,85.74802919989452,88.24728559982032,D:\GitHub\experiment1\data/51_Fam_2023-07-03_15h05.36.013_micFam_recorded\recording_micFam_2023-07-03_15h06.57.829.wav,,,,,,51,001,2023-07-03_15h05.36.013,Fam,2022.2.4,59.973108049072366,
REPSWITCH1_Fam/PICTURE_16.png,cazador,0,9,9,4,,96.04369349987246,,,,,,88.77990179997869,90.12897049984895,90.12897049984895,90.12897049984895,0.11770799988880754,93.49614019994624,95.99552419991232,D:\GitHub\experiment1\data/51_Fam_2023-07-03_15h05.36.013_micFam_recorded\recording_micFam_2023-07-03_15h07.05.576.wav,,,,,,51,001,2023-07-03_15h05.36.013,Fam,2022.2.4,59.973108049072366,
REPSWITCH1_Fam/PICTURE_464.png,goma,0,10,10,21,,103.89244570001028,,,,,,96.52825489989482,97.97716060001403,97.97716060001403,97.97716060001403,0.11592489993199706,101.34449990000576,103.84349119989201,D:\GitHub\experiment1\data/51_Fam_2023-07-03_15h05.36.013_micFam_recorded\recording_micFam_2023-07-03_15h07.13.422.wav,,,,,,51,001,2023-07-03_15h05.36.013,Fam,2022.2.4,59.973108049072366,
REPSWITCH1_Fam/PICTURE_338.png,regalo,0,11,11,17,,111.5064786998555,,,,,,104.37655869987793,105.47502929996699,105.47502929996699,105.47502929996699,0.010823599994182587,108.9588414998725,111.45855009998195,D:\GitHub\experiment1\data/51_Fam_2023-07-03_15h05.36.013_micFam_recorded\recording_micFam_2023-07-03_15h07.21.025.wav,,,,,,51,001,2023-07-03_15h05.36.013,Fam,2022.2.4,59.973108049072366,
REPSWITCH1_Fam/PICTURE_135.png,traje,0,12,12,1,,119.37138050002977,,,,,,111.97436909982935,113.44008479989134,113.44008479989134,113.44008479989134,0.11072410014458,116.82359919999726,119.3232519000303,D:\GitHub\experiment1\data/51_Fam_2023-07-03_15h05.36.013_micFam_recorded\recording_micFam_2023-07-03_15h07.28.890.wav,,,,,,51,001,2023-07-03_15h05.36.013,Fam,2022.2.4,59.973108049072366,
REPSWITCH1_Fam/PICTURE_242.png,cartero,0,13,13,11,,126.95246629999019,,,,,,119.83925940003246,120.98833279986866,120.98833279986866,120.98833279986866,0.060432499973103404,124.40534749999642,126.90430279984139,D:\GitHub\experiment1\data/51_Fam_2023-07-03_15h05.36.013_micFam_recorded\recording_micFam_2023-07-03_15h07.36.487.wav,,,,,,51,001,2023-07-03_15h05.36.013,Fam,2022.2.4,59.973108049072366,
REPSWITCH1_Fam/PICTURE_320.png,iglesia,0,14,14,16,,134.65091289998963,,,,,,127.43774149985984,128.63657259987667,128.63657259987667,128.63657259987667,0.009536799974739552,132.10354529996403,134.60280949994922,D:\GitHub\experiment1\data/51_Fam_2023-07-03_15h05.36.013_micFam_recorded\recording_micFam_2023-07-03_15h07.44.185.wav,,,,,,51,001,2023-07-03_15h05.36.013,Fam,2022.2.4,59.973108049072366,
REPSWITCH1_Practice/PICTURE_612.png,rana,0,15,15,32,,142.39900649990886,,,,,,135.13549360004254,136.50084210000932,136.50084210000932,136.50084210000932,0.12777219992130995,139.85165089997463,142.35094439983368,D:\GitHub\experiment1\data/51_Fam_2023-07-03_15h05.36.013_micFam_recorded\recording_micFam_2023-07-03_15h07.51.930.wav,,,,,,51,001,2023-07-03_15h05.36.013,Fam,2022.2.4,59.973108049072366,
REPSWITCH1_Fam/PICTURE_175.png,pintor,0,16,16,6,,150.11349419993348,,,,,,142.88362709991634,144.16592099983245,144.16592099983245,144.16592099983245,0.0982421999797225,147.54965479997918,150.04899349994957,D:\GitHub\experiment1\data/51_Fam_2023-07-03_15h05.36.013_micFam_recorded\recording_micFam_2023-07-03_15h07.59.628.wav,,,,,,51,001,2023-07-03_15h05.36.013,Fam,2022.2.4,59.973108049072366,
REPSWITCH1_Fam/PICTURE_498.png,taza,0,17,17,23,,157.79504899983294,,,,,,150.58142789988779,151.76409729989246,151.76409729989246,151.76409729989246,0.009410900063812733,155.23113249987364,157.73123209993355,D:\GitHub\experiment1\data/51_Fam_2023-07-03_15h05.36.013_micFam_recorded\recording_micFam_2023-07-03_15h08.07.311.wav,,,,,,51,001,2023-07-03_15h05.36.013,Fam,2022.2.4,59.973108049072366,
REPSWITCH1_Fam/PICTURE_142.png,vaso,0,18,18,2,,165.49381809984334,,,,,,158.26284859981388,159.4785957999993,159.4785957999993,159.4785957999993,0.010077700018882751,162.94647189998068,165.46188579988666,D:\GitHub\experiment1\data/51_Fam_2023-07-03_15h05.36.013_micFam_recorded\recording_micFam_2023-07-03_15h08.15.029.wav,,,,,,51,001,2023-07-03_15h05.36.013,Fam,2022.2.4,59.973108049072366,
REPSWITCH1_Practice/PICTURE_12.png,sirena,0,19,19,38,,173.20847469987348,,,,,,165.9781199998688,167.3102835000027,167.3102835000027,167.3102835000027,0.13037030003033578,170.6777657000348,173.17689639981836,D:\GitHub\experiment1\data/51_Fam_2023-07-03_15h05.36.013_micFam_recorded\recording_micFam_2023-07-03_15h08.22.743.wav,,,,,,51,001,2023-07-03_15h05.36.013,Fam,2022.2.4,59.973108049072366,
REPSWITCH1_Fam/PICTURE_610.png,miel,0,20,20,27,,180.8897967999801,,,,,,173.69285440002568,174.8918008999899,174.8918008999899,174.8918008999899,0.03944699978455901,178.35916989995167,180.8584459000267,D:\GitHub\experiment1\data/51_Fam_2023-07-03_15h05.36.013_micFam_recorded\recording_micFam_2023-07-03_15h08.30.424.wav,,,,,,51,001,2023-07-03_15h05.36.013,Fam,2022.2.4,59.973108049072366,
REPSWITCH1_Fam/PICTURE_271.png,conejo,0,21,21,13,,188.62152649997734,,,,,,181.37444149982184,182.72338099987246,182.72338099987246,182.72338099987246,0.12470349995419383,186.07382719987072,188.57349470001645,D:\GitHub\experiment1\data/51_Fam_2023-07-03_15h05.36.013_micFam_recorded\recording_micFam_2023-07-03_15h08.38.151.wav,,,,,,51,001,2023-07-03_15h05.36.013,Fam,2022.2.4,59.973108049072366,
REPSWITCH1_Fam/PICTURE_687.png,camisa,0,22,22,28,,196.31909110001288,,,,,,189.10605019982904,190.30494789988734,190.30494789988734,190.30494789988734,0.026279300218448043,193.75525429984555,196.2547343999613,D:\GitHub\experiment1\data/51_Fam_2023-07-03_15h05.36.013_micFam_recorded\recording_micFam_2023-07-03_15h08.45.833.wav,,,,,,51,001,2023-07-03_15h05.36.013,Fam,2022.2.4,59.973108049072366,
REPSWITCH1_Fam/PICTURE_235.png,aguja,0,23,23,10,,204.13419779995456,,,,,,196.7873478999827,198.11965280002914,198.11965280002914,198.11965280002914,0.017298300052061677,201.5870584999211,204.08613829989918,D:\GitHub\experiment1\data/51_Fam_2023-07-03_15h05.36.013_micFam_recorded\recording_micFam_2023-07-03_15h08.53.666.wav,,,,,,51,001,2023-07-03_15h05.36.013,Fam,2022.2.4,59.973108049072366,
REPSWITCH1_Practice/PICTURE_110.png,mesa,0,24,24,37,,211.8156716998201,,,,,,204.6185164998751,205.9012282998301,205.9012282998301,205.9012282998301,0.11467670020647347,209.26830859994516,211.76768970000558,D:\GitHub\experiment1\data/51_Fam_2023-07-03_15h05.36.013_micFam_recorded\recording_micFam_2023-07-03_15h09.01.345.wav,,,,,,51,001,2023-07-03_15h05.36.013,Fam,2022.2.4,59.973108049072366,
REPSWITCH1_Fam/PICTURE_719.png,baño,0,25,25,29,,219.49695359985344,,,,,,212.3002968998626,213.5658108999487,213.5658108999487,213.5658108999487,0.11250570020638406,216.9331967998296,219.43234659987502,D:\GitHub\experiment1\data/51_Fam_2023-07-03_15h05.36.013_micFam_recorded\recording_micFam_2023-07-03_15h09.09.018.wav,,,,,,51,001,2023-07-03_15h05.36.013,Fam,2022.2.4,59.973108049072366,
REPSWITCH1_Fam/PICTURE_152.png,caracol,0,26,26,3,,227.19567979988642,,,,,,219.96525139990263,221.28071599989198,221.28071599989198,221.28071599989198,0.1189623000100255,224.6479664000217,227.14730719989166,D:\GitHub\experiment1\data/51_Fam_2023-07-03_15h05.36.013_micFam_recorded\recording_micFam_2023-07-03_15h09.16.729.wav,,,,,,51,001,2023-07-03_15h05.36.013,Fam,2022.2.4,59.973108049072366,
REPSWITCH1_Fam/PICTURE_381.png,fresa,0,27,27,19,,234.7769041999709,,,,,,227.67995799984783,228.84583989996463,228.84583989996463,228.84583989996463,0.11140940012410283,232.21270029991865,234.7121776000131,D:\GitHub\experiment1\data/51_Fam_2023-07-03_15h05.36.013_micFam_recorded\recording_micFam_2023-07-03_15h09.24.296.wav,,,,,,51,001,2023-07-03_15h05.36.013,Fam,2022.2.4,59.973108049072366,
REPSWITCH1_Practice/PICTURE_570.png,toro,0,28,28,34,,242.44196749990806,,,,,,235.2448440999724,236.52712409989908,236.52712409989908,236.52712409989908,0.12067339988425374,239.89442959986627,242.3934394000098,D:\GitHub\experiment1\data/51_Fam_2023-07-03_15h05.36.013_micFam_recorded\recording_micFam_2023-07-03_15h09.31.975.wav,,,,,,51,001,2023-07-03_15h05.36.013,Fam,2022.2.4,59.973108049072366,
REPSWITCH1_Fam/PICTURE_35.png,oreja,0,29,29,18,,250.0065468000248,,,,,,242.926270699827,244.09188069985248,244.09188069985248,244.09188069985248,0.10793260019272566,247.4590567999985,249.95844369987026,D:\GitHub\experiment1\data/51_Fam_2023-07-03_15h05.36.013_micFam_recorded\recording_micFam_2023-07-03_15h09.39.539.wav,,,,,,51,001,2023-07-03_15h05.36.013,Fam,2022.2.4,59.973108049072366,
REPSWITCH1_Fam/PICTURE_178.png,puente,0,30,30,7,,257.67170049995184,,,,,,250.49121410003863,251.64138929988258,251.64138929988258,251.64138929988258,0.008022500202059746,255.12399269989692,257.6231253000442,D:\GitHub\experiment1\data/51_Fam_2023-07-03_15h05.36.013_micFam_recorded\recording_micFam_2023-07-03_15h09.47.204.wav,,,,,,51,001,2023-07-03_15h05.36.013,Fam,2022.2.4,59.973108049072366,
REPSWITCH1_Fam/PICTURE_48.png,bombero,0,31,31,22,,265.23618440004066,,,,,,258.15618309983984,259.221894999966,259.221894999966,259.221894999966,0.01770800002850592,262.68858859990723,265.1881371999625,D:\GitHub\experiment1\data/51_Fam_2023-07-03_15h05.36.013_micFam_recorded\recording_micFam_2023-07-03_15h09.54.767.wav,,,,,,51,001,2023-07-03_15h05.36.013,Fam,2022.2.4,59.973108049072366,
REPSWITCH1_Fam/PICTURE_30.png,granja,0,32,32,14,,272.884910200024,,,,,,265.7209037998691,266.97099589998834,266.97099589998834,266.97099589998834,0.10907270014286041,270.3369769998826,272.83616840001196,D:\GitHub\experiment1\data/51_Fam_2023-07-03_15h05.36.013_micFam_recorded\recording_micFam_2023-07-03_15h10.02.417.wav,,,,,,51,001,2023-07-03_15h05.36.013,Fam,2022.2.4,59.973108049072366,
REPSWITCH1_Fam/PICTURE_517.png,cuerda,0,33,33,24,,280.54947369988076,,,,,,273.3688383998815,274.6179035999812,274.6179035999812,274.6179035999812,0.09774270001798868,278.0017399999779,280.50090670003556,D:\GitHub\experiment1\data/51_Fam_2023-07-03_15h05.36.013_micFam_recorded\recording_micFam_2023-07-03_15h10.10.081.wav,,,,,,51,001,2023-07-03_15h05.36.013,Fam,2022.2.4,59.973108049072366,
REPSWITCH1_Fam/PICTURE_8.png,pierna,0,34,34,31,,288.2639607999008,,,,,,281.0336656998843,282.34952379995957,282.34952379995957,282.34952379995957,0.1103318000677973,285.71656519989483,288.21571779996157,D:\GitHub\experiment1\data/51_Fam_2023-07-03_15h05.36.013_micFam_recorded\recording_micFam_2023-07-03_15h10.17.799.wav,,,,,,51,001,2023-07-03_15h05.36.013,Fam,2022.2.4,59.973108049072366,
REPSWITCH1_Practice/PICTURE_733.png,gafas,0,35,35,35,,295.7954635999631,,,,,,288.74839970003814,289.89749609981664,289.89749609981664,289.89749609981664,0.13053039996884763,293.2483613998629,295.74742289981805,D:\GitHub\experiment1\data/51_Fam_2023-07-03_15h05.36.013_micFam_recorded\recording_micFam_2023-07-03_15h10.25.331.wav,,,,,,51,001,2023-07-03_15h05.36.013,Fam,2022.2.4,59.973108049072366,
REPSWITCH1_Fam/PICTURE_552.png,manzana,0,36,36,25,,303.3940969998948,,,,,,296.28005119995214,297.49592849984765,297.49592849984765,297.49592849984765,0.12832870008423924,300.8464936998207,303.34577719983645,D:\GitHub\experiment1\data/51_Fam_2023-07-03_15h05.36.013_micFam_recorded\recording_micFam_2023-07-03_15h10.32.926.wav,,,,,,51,001,2023-07-03_15h05.36.013,Fam,2022.2.4,59.973108049072366,
REPSWITCH1_Practice/PICTURE_614.png,reina,0,37,37,36,,311.1255077000242,,,,,,303.8784355998505,305.21046409988776,305.21046409988776,305.21046409988776,0.11638320004567504,308.5776682998985,311.0771706998348,D:\GitHub\experiment1\data/51_Fam_2023-07-03_15h05.36.013_micFam_recorded\recording_micFam_2023-07-03_15h10.40.656.wav,,,,,,51,001,2023-07-03_15h05.36.013,Fam,2022.2.4,59.973108049072366,
REPSWITCH1_Fam/PICTURE_169.png,espalda,0,38,38,5,,318.94021589984186,,,,,,311.60972649999894,313.02534179994836,313.02534179994836,313.02534179994836,0.1208281998988241,316.3925286999438,318.8921878999099,D:\GitHub\experiment1\data/51_Fam_2023-07-03_15h05.36.013_micFam_recorded\recording_micFam_2023-07-03_15h10.48.475.wav,,,,,,51,001,2023-07-03_15h05.36.013,Fam,2022.2.4,59.973108049072366,
,,,,,,,319.42454589996487,,,,,,,,,,,,,,319.9247438998427,319.9247438998427,320.9241408999078,space,3.332306600175798,51,001,2023-07-03_15h05.36.013,Fam,2022.2.4,59.973108049072366,
