image,correctAns,respModal,repSwitch,sequence,target,stimulus,trialsREPSWITCH.thisRepN,trialsREPSWITCH.thisTrialN,trialsREPSWITCH.thisN,trialsREPSWITCH.thisIndex,textWelcome.started,textBlank500.started,textInstructions.started,keyInstructions.started,keyInstructions.keys,keyInstructions.rt,fixationITI.started,fixationITI.stopped,polygon.started,imageObject.started,textbox.started,participant,session,date,expName,psychopyVersion,frameRate,
,,,,,,,,,,,23.748136113514192,25.661971638473915,26.16559738101205,26.16559738101205,space,1.374893166241236,,,,,,807526,001,2023-04-26_13h02.04.795,REPSWITCH_1,2022.2.5,None,
REPSWITCH1/PICTURE_1.png,ratón,speak,nontarget,2,NT,Stim1_Set1,0,0,0,0,,32.60886991265579,,,,,28.32154824625468,29.93070960472687,29.93070960472687,29.93070960472687,29.93070960472687,807526,001,2023-04-26_13h02.04.795,REPSWITCH_1,2022.2.5,None,
REPSWITCH1/PICTURE_1.png,ratón,speak,repeat,2,T,Stim1_Set1,0,1,1,1,,37.39489789144136,,,,,33.07508953296929,34.38849438200123,34.38849438200123,34.38849438200123,34.38849438200123,807526,001,2023-04-26_13h02.04.795,REPSWITCH_1,2022.2.5,None,
REPSWITCH1/PICTURE_599.png,nube,type,filler,1,F,Stim1_Set3,0,2,2,2,,42.206275312346406,,,,,37.838796763157006,39.23560296584037,39.23560296584037,39.23560296584037,39.23560296584037,807526,001,2023-04-26_13h02.04.795,REPSWITCH_1,2022.2.5,None,
REPSWITCH1/PICTURE_110.png,mesa,speak,nontarget,2,NT,Stim2_Set1,0,3,3,3,,47.05901949221152,,,,,42.70764808575041,44.07005245049368,44.07005245049368,44.07005245049368,44.07005245049368,807526,001,2023-04-26_13h02.04.795,REPSWITCH_1,2022.2.5,None,
REPSWITCH1/PICTURE_110.png,mesa,speak,repeat,2,T,Stim2_Set1,0,4,4,4,,51.89414462354034,,,,,47.55686757716467,48.91771658771904,48.91771658771904,48.91771658771904,48.91771658771904,807526,001,2023-04-26_13h02.04.795,REPSWITCH_1,2022.2.5,None,
REPSWITCH1/PICTURE_610.png,miel,type,filler,1,F,Stim2_Set3,0,5,5,5,,56.804114707629196,,,,,52.42380765941925,53.84617078240262,53.84617078240262,53.84617078240262,53.84617078240262,807526,001,2023-04-26_13h02.04.795,REPSWITCH_1,2022.2.5,None,
REPSWITCH1/PICTURE_12.png,sirena,speak,nontarget,2,NT,Stim3_Set1,0,6,6,6,,61.61343443300575,,,,,57.30780781953945,58.62987793449429,58.62987793449429,58.62987793449429,58.62987793449429,807526,001,2023-04-26_13h02.04.795,REPSWITCH_1,2022.2.5,None,
REPSWITCH1/PICTURE_12.png,sirena,type,switch,1,T,Stim3_Set1,0,7,7,7,,66.6277919242857,,,,,62.11478133263881,63.60358580909087,63.60358580909087,63.60358580909087,63.60358580909087,807526,001,2023-04-26_13h02.04.795,REPSWITCH_1,2022.2.5,None,
REPSWITCH1/PICTURE_128.png,muñeca,type,nontarget,1,NT,Stim4_Set1,0,8,8,8,,71.27863687314675,,,,,67.12073717737803,68.29029128962429,68.29029128962429,68.29029128962429,68.29029128962429,807526,001,2023-04-26_13h02.04.795,REPSWITCH_1,2022.2.5,None,
REPSWITCH1/PICTURE_128.png,muñeca,speak,switch,2,T,Stim4_Set1,0,9,9,9,,76.10180637842859,,,,,71.76998088273103,73.05136379081523,73.05136379081523,73.05136379081523,73.05136379081523,807526,001,2023-04-26_13h02.04.795,REPSWITCH_1,2022.2.5,None,
REPSWITCH1/PICTURE_614.png,reina,speak,filler,2,F,Stim3_Set3,0,10,10,10,,81.0627213914413,,,,,76.5729561689077,78.07665025719325,78.07665025719325,78.07665025719325,78.07665025719325,807526,001,2023-04-26_13h02.04.795,REPSWITCH_1,2022.2.5,None,
REPSWITCH1/PICTURE_141.png,girasol,speak,nontarget,2,NT,Stim5_Set1,0,11,11,11,,85.79487436098862,,,,,81.55481525167124,82.8288143768441,82.8288143768441,82.8288143768441,82.8288143768441,807526,001,2023-04-26_13h02.04.795,REPSWITCH_1,2022.2.5,None,
REPSWITCH1/PICTURE_141.png,girasol,type,switch,1,T,Stim5_Set1,0,12,12,12,,90.80548650465789,,,,,86.29070526966825,87.84086422238033,87.84086422238033,87.84086422238033,87.84086422238033,807526,001,2023-04-26_13h02.04.795,REPSWITCH_1,2022.2.5,None,
REPSWITCH1/PICTURE_631.png,ladrón,speak,filler,2,F,Stim4_Set3,0,13,13,13,,95.6688345290604,,,,,91.31480349617777,92.71485807516729,92.71485807516729,92.71485807516729,92.71485807516729,807526,001,2023-04-26_13h02.04.795,REPSWITCH_1,2022.2.5,None,
REPSWITCH1/PICTURE_16.png,cazador,type,nontarget,1,NT,Stim6_Set1,0,14,14,14,,100.50272113760002,,,,,96.13047937717056,97.63211430536467,97.63211430536467,97.63211430536467,97.63211430536467,807526,001,2023-04-26_13h02.04.795,REPSWITCH_1,2022.2.5,None,
REPSWITCH1/PICTURE_16.png,cazador,type,repeat,1,T,Stim6_Set1,0,15,15,15,,105.1963563899626,,,,,100.99882347657694,102.18192323014955,102.18192323014955,102.18192323014955,102.18192323014955,807526,001,2023-04-26_13h02.04.795,REPSWITCH_1,2022.2.5,None,
REPSWITCH1/PICTURE_66.png,tejado,speak,filler,2,F,Stim5_Set3,0,16,16,16,,109.91006235088571,,,,,105.69543030491332,106.99253322582808,106.99253322582808,106.99253322582808,106.99253322582808,807526,001,2023-04-26_13h02.04.795,REPSWITCH_1,2022.2.5,None,
REPSWITCH1/PICTURE_184.png,bruja,type,nontarget,1,NT,Stim7_Set1,0,17,17,17,,114.59984290238936,,,,,110.40864612910082,111.64185211149743,111.64185211149743,111.64185211149743,111.64185211149743,807526,001,2023-04-26_13h02.04.795,REPSWITCH_1,2022.2.5,None,
REPSWITCH1/PICTURE_184.png,bruja,type,repeat,1,T,Stim7_Set1,0,18,18,18,,119.19639251555782,,,,,115.09651836939156,116.20930302949273,116.20930302949273,116.20930302949273,116.20930302949273,807526,001,2023-04-26_13h02.04.795,REPSWITCH_1,2022.2.5,None,
REPSWITCH1/PICTURE_661.png,cajón,speak,filler,2,F,Stim6_Set3,0,19,19,19,,123.85062057949835,,,,,119.69659218282322,120.96169269015081,120.96169269015081,120.96169269015081,120.96169269015081,807526,001,2023-04-26_13h02.04.795,REPSWITCH_1,2022.2.5,None,
REPSWITCH1/PICTURE_199.png,falda,type,nontarget,1,NT,Stim8_Set1,0,20,20,20,,128.6547679954383,,,,,124.3457997625519,125.74000785002136,125.74000785002136,125.74000785002136,125.74000785002136,807526,001,2023-04-26_13h02.04.795,REPSWITCH_1,2022.2.5,None,
REPSWITCH1/PICTURE_199.png,falda,speak,switch,2,T,Stim8_Set1,0,21,21,21,,133.36976666760165,,,,,129.14821119621047,130.42490509705385,130.42490509705385,130.42490509705385,130.42490509705385,807526,001,2023-04-26_13h02.04.795,REPSWITCH_1,2022.2.5,None,
REPSWITCH1/PICTURE_675.png,molino,type,filler,1,F,Stim7_Set3,0,22,22,22,,137.9835560103529,,,,,133.86370391055243,135.22416530302144,135.22416530302144,135.22416530302144,135.22416530302144,807526,001,2023-04-26_13h02.04.795,REPSWITCH_1,2022.2.5,None,
REPSWITCH1/PICTURE_678.png,cuerno,type,filler,1,F,Stim8_Set3,0,23,23,23,,142.54392289038515,,,,,138.48494928746368,139.7175894646207,139.7175894646207,139.7175894646207,139.7175894646207,807526,001,2023-04-26_13h02.04.795,REPSWITCH_1,2022.2.5,None,
REPSWITCH1/PICTURE_128.png,muñeca,speak,nontarget,2,NT,Stim4_Set1,0,24,24,24,,147.12403241934953,,,,,143.0391352699371,144.1483381240687,144.1483381240687,144.1483381240687,144.1483381240687,807526,001,2023-04-26_13h02.04.795,REPSWITCH_1,2022.2.5,None,
REPSWITCH1/PICTURE_128.png,muñeca,speak,repeat,2,T,Stim4_Set1,0,25,25,25,,151.8557015985134,,,,,147.6499730522628,148.8263290321047,148.8263290321047,148.8263290321047,148.8263290321047,807526,001,2023-04-26_13h02.04.795,REPSWITCH_1,2022.2.5,None,
REPSWITCH1/PICTURE_12.png,sirena,speak,nontarget,2,NT,Stim3_Set1,0,26,26,26,,156.6575296523224,,,,,152.34606582284323,153.67532884076354,153.67532884076354,153.67532884076354,153.67532884076354,807526,001,2023-04-26_13h02.04.795,REPSWITCH_1,2022.2.5,None,
REPSWITCH1/PICTURE_12.png,sirena,speak,repeat,2,T,Stim3_Set1,0,27,27,27,,161.28178761265008,,,,,157.1540034993086,158.29442425534944,158.29442425534944,158.29442425534944,158.29442425534944,807526,001,2023-04-26_13h02.04.795,REPSWITCH_1,2022.2.5,None,
REPSWITCH1/PICTURE_661.png,cajón,type,filler,1,F,Stim6_Set3,0,28,28,28,,166.1172779055778,,,,,161.77827805790002,163.1403919531731,163.1403919531731,163.1403919531731,163.1403919531731,807526,001,2023-04-26_13h02.04.795,REPSWITCH_1,2022.2.5,None,
REPSWITCH1/PICTURE_631.png,ladrón,type,filler,1,F,Stim4_Set3,0,29,29,29,,170.8617282299383,,,,,166.6442198038858,167.87855202675564,167.87855202675564,167.87855202675564,167.87855202675564,807526,001,2023-04-26_13h02.04.795,REPSWITCH_1,2022.2.5,None,
REPSWITCH1/PICTURE_16.png,cazador,speak,nontarget,2,NT,Stim6_Set1,0,30,30,30,,175.63489158410812,,,,,171.3642116219271,172.65658403991256,172.65658403991256,172.65658403991256,172.65658403991256,807526,001,2023-04-26_13h02.04.795,REPSWITCH_1,2022.2.5,None,
REPSWITCH1/PICTURE_16.png,cazador,type,switch,1,T,Stim6_Set1,0,31,31,31,,180.3186835825909,,,,,176.16028349823318,177.34601016985835,177.34601016985835,177.34601016985835,177.34601016985835,807526,001,2023-04-26_13h02.04.795,REPSWITCH_1,2022.2.5,None,
REPSWITCH1/PICTURE_678.png,cuerno,speak,filler,2,F,Stim8_Set3,0,32,32,32,,185.0031702668639,,,,,180.81538345877198,182.02283822363825,182.02283822363825,182.02283822363825,182.02283822363825,807526,001,2023-04-26_13h02.04.795,REPSWITCH_1,2022.2.5,None,
REPSWITCH1/PICTURE_110.png,mesa,type,nontarget,1,NT,Stim2_Set1,0,33,33,33,,189.6167340686079,,,,,185.52995496991207,186.6682877629937,186.6682877629937,186.6682877629937,186.6682877629937,807526,001,2023-04-26_13h02.04.795,REPSWITCH_1,2022.2.5,None,
REPSWITCH1/PICTURE_110.png,mesa,speak,switch,2,T,Stim2_Set1,0,34,34,34,,194.4845909604046,,,,,190.11567129206378,191.5045601267193,191.5045601267193,191.5045601267193,191.5045601267193,807526,001,2023-04-26_13h02.04.795,REPSWITCH_1,2022.2.5,None,
REPSWITCH1/PICTURE_1.png,ratón,speak,nontarget,2,NT,Stim1_Set1,0,35,35,35,,199.2870897790126,,,,,195.0098847495392,196.31365724018542,196.31365724018542,196.31365724018542,196.31365724018542,807526,001,2023-04-26_13h02.04.795,REPSWITCH_1,2022.2.5,None,
REPSWITCH1/PICTURE_1.png,ratón,type,switch,1,T,Stim1_Set1,0,36,36,36,,203.90593133791117,,,,,199.81378319163923,200.9257135297521,200.9257135297521,200.9257135297521,200.9257135297521,807526,001,2023-04-26_13h02.04.795,REPSWITCH_1,2022.2.5,None,
REPSWITCH1/PICTURE_675.png,molino,speak,filler,2,F,Stim7_Set3,0,37,37,37,,208.56290153134614,,,,,204.39993448572932,205.5728360756475,205.5728360756475,205.5728360756475,205.5728360756475,807526,001,2023-04-26_13h02.04.795,REPSWITCH_1,2022.2.5,None,
REPSWITCH1/PICTURE_199.png,falda,type,nontarget,1,NT,Stim8_Set1,0,38,38,38,,213.2801766054472,,,,,209.05567347913166,210.29280738995294,210.29280738995294,210.29280738995294,210.29280738995294,807526,001,2023-04-26_13h02.04.795,REPSWITCH_1,2022.2.5,None,
REPSWITCH1/PICTURE_199.png,falda,type,repeat,1,T,Stim8_Set1,0,39,39,39,,218.0464228806086,,,,,213.76977291633375,215.0658775009797,215.0658775009797,215.0658775009797,215.0658775009797,807526,001,2023-04-26_13h02.04.795,REPSWITCH_1,2022.2.5,None,
REPSWITCH1/PICTURE_599.png,nube,speak,filler,2,F,Stim1_Set3,0,40,40,40,,222.94982493724092,,,,,218.54186910029966,219.96302445608308,219.96302445608308,219.96302445608308,219.96302445608308,807526,001,2023-04-26_13h02.04.795,REPSWITCH_1,2022.2.5,None,
REPSWITCH1/PICTURE_141.png,girasol,type,nontarget,1,NT,Stim5_Set1,0,41,41,41,,227.71832174059818,,,,,223.4764846651815,224.73857893544482,224.73857893544482,224.73857893544482,224.73857893544482,807526,001,2023-04-26_13h02.04.795,REPSWITCH_1,2022.2.5,None,
REPSWITCH1/PICTURE_141.png,girasol,type,repeat,1,T,Stim5_Set1,0,42,42,42,,232.58986637429916,,,,,228.24500343683758,229.60329729234218,229.60329729234218,229.60329729234218,229.60329729234218,807526,001,2023-04-26_13h02.04.795,REPSWITCH_1,2022.2.5,None,
REPSWITCH1/PICTURE_614.png,reina,type,filler,1,F,Stim3_Set3,0,43,43,43,,237.45866302028298,,,,,233.0872082124406,234.47757868550252,234.47757868550252,234.47757868550252,234.47757868550252,807526,001,2023-04-26_13h02.04.795,REPSWITCH_1,2022.2.5,None,
REPSWITCH1/PICTURE_66.png,tejado,speak,filler,2,F,Stim5_Set3,0,44,44,44,,242.2693335507647,,,,,237.95670442609116,239.28499205238768,239.28499205238768,239.28499205238768,239.28499205238768,807526,001,2023-04-26_13h02.04.795,REPSWITCH_1,2022.2.5,None,
REPSWITCH1/PICTURE_184.png,bruja,type,nontarget,1,NT,Stim7_Set1,0,45,45,45,,246.98023391826428,,,,,242.76268106745556,244.00645818607882,244.00645818607882,244.00645818607882,244.00645818607882,807526,001,2023-04-26_13h02.04.795,REPSWITCH_1,2022.2.5,None,
,,,,,,,,,,,,,,,,,247.47588761616498,,,,,,,,,,,
