image,correctAns,respModal,frameColor,repSwitch,sequence,target,set,block,list,exp_version,stimulus,baseline,baseline_condition,trial_no,psychopy_trial,Column1,trialsREPSWITCH.thisRepN,trialsREPSWITCH.thisTrialN,trialsREPSWITCH.thisN,trialsREPSWITCH.thisIndex,textWelcome.started,textboxInstrMain1.started,textboxInstrMain1_2.started,textboxInstrMain1_3.started,keyInstrMain.started,keyInstrMain.keys,keyInstrMain.rt,textboxInstrMain2.started,textboxInstrMain2_2.started,textboxInstrMain2_3.started,textboxInstrMain2_4.started,textboxInstrMain2_5.started,textboxInstrMain2_6.started,textboxInstrMain2_7.started,textboxInstrMain2_8.started,textboxInstrMain2_9.started,textboxInstrMain2_10.started,textboxInstrMain2_11.started,textboxInstrMain2_12.started,keyInstrMain2.started,keyInstrMain2.keys,keyInstrMain2.rt,textBlank500.started,fixationITI.started,fixationITI.stopped,polygonColour.started,polygonWhite.started,imageObject.started,polygonType.started,textInput.started,keyResp.started,micRespv2l2.started,keyResp.keys,keyResp.corr,subjResponse,micRespv2l2.clip,textBlankLoop.started,keyPause.keys,polygonColour.stopped,polygonWhite.stopped,imageObject.stopped,polygonType.stopped,textInput.stopped,keyResp.stopped,keyResp.rt,textBlankLoop.stopped,textboxPause.started,keyPause.started,participant,session,date,expName,psychopyVersion,frameRate,
,,,,,,,,,,,,,,,,,,,,,5.083350399999745,7.5787938999997095,7.5787938999997095,7.5787938999997095,7.5787938999997095,space,2.046887500000139,,,,,,,,,,,,,,,,,,,,,,,,,,,,,,,,,,,,,,,,,,818706,001,2023-09-15_12h42.15.779,REPSWITCH1_version2_list2,2022.2.4,359.99971200065676,
,,,,,,,,,,,,,,,,,,,,,,,,,,,,9.644507900000008,9.644507900000008,9.644507900000008,9.644507900000008,9.644507900000008,9.644507900000008,9.644507900000008,9.644507900000008,9.644507900000008,9.644507900000008,9.644507900000008,9.644507900000008,9.644507900000008,space,1.9172124000001531,,,,,,,,,,,,,,,,,,,,,,,,,,,818706,001,2023-09-15_12h42.15.779,REPSWITCH1_version2_list2,2022.2.4,359.99971200065676,
REPSWITCH1/PICTURE_646.png,tronco,speak,darkblue,filler,2,F,1,3,2,2,Extra4,0,None,1,0,1,0,0,0,0,,,,,,,,,,,,,,,,,,,,,,,11.5701282,12.160938499999702,13.28776949999974,13.28776949999974,13.28776949999974,13.28776949999974,13.28776949999974,13.28776949999974,13.28776949999974,0.005312899999807996,None,0,,C:\2023\REPSWITCH12092023\REPSWITCH_excgange\REPSWITCH_excgange\data/818706_REPSWITCH1_version2_list2_2023-09-15_12h42.15.779_micRespv2l2_recorded\recording_micRespv2l2_2023-09-15_12h42.28.787.wav,16.311822799999845,None,,,,,,,,,,,818706,001,2023-09-15_12h42.15.779,REPSWITCH1_version2_list2,2022.2.4,359.99971200065676,
REPSWITCH1/PICTURE_340.png,espejo,type,gold,filler,1,F,1,3,2,2,Extra1,0,None,2,1,2,0,1,1,1,,,,,,,,,,,,,,,,,,,,,,,,16.811624200000097,17.886261399999967,17.886261399999967,17.886261399999967,17.886261399999967,17.886261399999967,17.886261399999967,17.886261399999967,0.0016746999999668333,"['e', 's', 'p', 'e', 'j', 'o']",0,espejo,C:\2023\REPSWITCH12092023\REPSWITCH_excgange\REPSWITCH_excgange\data/818706_REPSWITCH1_version2_list2_2023-09-15_12h42.15.779_micRespv2l2_recorded\recording_micRespv2l2_2023-09-15_12h42.33.388.wav,20.910487799999828,None,20.910487799999828,20.910487799999828,20.910487799999828,20.910487799999828,20.910487799999828,20.910487799999828,"[0.8110295000001315, 1.0990697000002, 1.3228042000000642, 1.722778400000152, 1.8045821999999134, 1.8988161000002037]",21.410160099999757,,,818706,001,2023-09-15_12h42.15.779,REPSWITCH1_version2_list2,2022.2.4,359.99971200065676,
REPSWITCH1/PICTURE_338.png,regalo,speak,darkblue,filler,2,F,1,3,2,2,Stim6_Set4,0,None,3,2,3,0,2,2,2,,,,,,,,,,,,,,,,,,,,,,,,21.410160099999757,22.545906999999715,22.545906999999715,22.545906999999715,22.545906999999715,22.545906999999715,22.545906999999715,22.545906999999715,0.0015118000001166365,None,0,,C:\2023\REPSWITCH12092023\REPSWITCH_excgange\REPSWITCH_excgange\data/818706_REPSWITCH1_version2_list2_2023-09-15_12h42.15.779_micRespv2l2_recorded\recording_micRespv2l2_2023-09-15_12h42.38.046.wav,25.569958900000074,None,25.569958900000074,25.569958900000074,25.569958900000074,25.569958900000074,25.569958900000074,25.569958900000074,,26.069786199999726,,,818706,001,2023-09-15_12h42.15.779,REPSWITCH1_version2_list2,2022.2.4,359.99971200065676,
REPSWITCH1/PICTURE_142.png,vaso,speak,darkblue,nontarget,2,NT,1,3,2,2,Stim7_Set1,1,repeat,4,3,4,0,3,3,3,,,,,,,,,,,,,,,,,,,,,,,,26.069786199999726,27.18886059999977,27.18886059999977,27.18886059999977,27.18886059999977,27.18886059999977,27.18886059999977,27.18886059999977,0.0015680000001339067,None,0,,C:\2023\REPSWITCH12092023\REPSWITCH_excgange\REPSWITCH_excgange\data/818706_REPSWITCH1_version2_list2_2023-09-15_12h42.15.779_micRespv2l2_recorded\recording_micRespv2l2_2023-09-15_12h42.42.690.wav,30.215693999999985,None,30.215693999999985,30.215693999999985,30.215693999999985,30.215693999999985,30.215693999999985,30.215693999999985,,30.715521199999785,,,818706,001,2023-09-15_12h42.15.779,REPSWITCH1_version2_list2,2022.2.4,359.99971200065676,
REPSWITCH1/PICTURE_142.png,vaso,speak,darkblue,repeat,2,T,1,3,2,2,Stim7_Set1,0,None,5,4,5,0,4,4,4,,,,,,,,,,,,,,,,,,,,,,,,30.715521199999785,31.815163599999778,31.815163599999778,31.815163599999778,31.815163599999778,31.815163599999778,31.815163599999778,31.815163599999778,0.0012722000001303968,None,0,,C:\2023\REPSWITCH12092023\REPSWITCH_excgange\REPSWITCH_excgange\data/818706_REPSWITCH1_version2_list2_2023-09-15_12h42.15.779_micRespv2l2_recorded\recording_micRespv2l2_2023-09-15_12h42.47.316.wav,34.83923619999996,None,34.83923619999996,34.83923619999996,34.83923619999996,34.83923619999996,34.83923619999996,34.83923619999996,,35.339053499999864,,,818706,001,2023-09-15_12h42.15.779,REPSWITCH1_version2_list2,2022.2.4,359.99971200065676,
REPSWITCH1/PICTURE_498.png,taza,type,gold,filler,1,F,1,3,2,2,Stim4_Set4,0,None,6,5,6,0,5,5,5,,,,,,,,,,,,,,,,,,,,,,,,35.339053499999864,36.42815990000008,36.42815990000008,36.42815990000008,36.42815990000008,36.42815990000008,36.42815990000008,36.42815990000008,0.0013265000002320448,"['t', 'z', 'a']",0,tza,C:\2023\REPSWITCH12092023\REPSWITCH_excgange\REPSWITCH_excgange\data/818706_REPSWITCH1_version2_list2_2023-09-15_12h42.15.779_micRespv2l2_recorded\recording_micRespv2l2_2023-09-15_12h42.51.925.wav,39.448891699999876,None,,,,,,,"[0.8770615999997062, 1.6454220000000532, 2.0933027999999467]",39.94869489999974,,,818706,001,2023-09-15_12h42.15.779,REPSWITCH1_version2_list2,2022.2.4,359.99971200065676,
REPSWITCH1/PICTURE_16.png,cazador,speak,darkblue,nontarget,2,NT,1,3,2,2,Stim6_Set1,1,switch,7,6,7,0,6,6,6,,,,,,,,,,,,,,,,,,,,,,,,39.94869489999974,41.02683109999998,41.02683109999998,41.02683109999998,41.02683109999998,41.02683109999998,41.02683109999998,41.02683109999998,0.0015490000000681903,None,0,,C:\2023\REPSWITCH12092023\REPSWITCH_excgange\REPSWITCH_excgange\data/818706_REPSWITCH1_version2_list2_2023-09-15_12h42.15.779_micRespv2l2_recorded\recording_micRespv2l2_2023-09-15_12h42.56.521.wav,44.044583299999886,None,,,,,,,,44.544443299999784,,,818706,001,2023-09-15_12h42.15.779,REPSWITCH1_version2_list2,2022.2.4,359.99971200065676,
REPSWITCH1/PICTURE_16.png,cazador,speak,darkblue,repeat,2,T,1,3,2,2,Stim6_Set1,0,None,8,7,8,0,7,7,7,,,,,,,,,,,,,,,,,,,,,,,,44.544443299999784,45.614318399999775,45.614318399999775,45.614318399999775,45.614318399999775,45.614318399999775,45.614318399999775,45.614318399999775,0.0016209000000344531,None,0,,C:\2023\REPSWITCH12092023\REPSWITCH_excgange\REPSWITCH_excgange\data/818706_REPSWITCH1_version2_list2_2023-09-15_12h42.15.779_micRespv2l2_recorded\recording_micRespv2l2_2023-09-15_12h43.01.111.wav,48.634968299999855,None,,,,,,,,49.13465529999985,,,818706,001,2023-09-15_12h42.15.779,REPSWITCH1_version2_list2,2022.2.4,359.99971200065676,
REPSWITCH1/PICTURE_719.png,baño,type,gold,filler,1,F,1,3,2,2,Stim2_Set4,0,None,9,8,9,0,8,8,8,,,,,,,,,,,,,,,,,,,,,,,,49.13465529999985,50.237235600000076,50.237235600000076,50.237235600000076,50.237235600000076,50.237235600000076,50.237235600000076,50.237235600000076,0.0018471000003046356,"['b', 'a', 'n', 'o']",0,bano,C:\2023\REPSWITCH12092023\REPSWITCH_excgange\REPSWITCH_excgange\data/818706_REPSWITCH1_version2_list2_2023-09-15_12h42.15.779_micRespv2l2_recorded\recording_micRespv2l2_2023-09-15_12h43.05.737.wav,53.260998299999756,None,,,,,,,"[1.0367371000002095, 1.147859800000333, 1.3244763000002422, 1.6286901000003127]",53.76095829999986,,,818706,001,2023-09-15_12h42.15.779,REPSWITCH1_version2_list2,2022.2.4,359.99971200065676,
REPSWITCH1/PICTURE_169.png,espalda,speak,darkblue,nontarget,2,NT,1,3,2,2,Stim8_Set1,0,None,10,9,10,0,9,9,9,,,,,,,,,,,,,,,,,,,,,,,,53.76095829999986,54.827709700000014,54.827709700000014,54.827709700000014,54.827709700000014,54.827709700000014,54.827709700000014,54.827709700000014,0.0013663000004271453,None,0,,C:\2023\REPSWITCH12092023\REPSWITCH_excgange\REPSWITCH_excgange\data/818706_REPSWITCH1_version2_list2_2023-09-15_12h42.15.779_micRespv2l2_recorded\recording_micRespv2l2_2023-09-15_12h43.10.326.wav,57.84855440000001,None,,,,,,,,58.348387,,,818706,001,2023-09-15_12h42.15.779,REPSWITCH1_version2_list2,2022.2.4,359.99971200065676,
REPSWITCH1/PICTURE_169.png,espalda,type,gold,switch,1,T,1,3,2,2,Stim8_Set1,0,None,11,10,11,0,10,10,10,,,,,,,,,,,,,,,,,,,,,,,,58.348387,59.45640749999984,59.45640749999984,59.45640749999984,59.45640749999984,59.45640749999984,59.45640749999984,59.45640749999984,0.001287300000058167,"['e', 's', 'p', 'a', 'k', 'backspace', 'l', 'd', 'a']",0,espalda,C:\2023\REPSWITCH12092023\REPSWITCH_excgange\REPSWITCH_excgange\data/818706_REPSWITCH1_version2_list2_2023-09-15_12h42.15.779_micRespv2l2_recorded\recording_micRespv2l2_2023-09-15_12h43.14.957.wav,62.480418599999666,None,62.480418599999666,62.480418599999666,62.480418599999666,62.480418599999666,62.480418599999666,62.480418599999666,"[0.6334488000002239, 0.8414628999998968, 1.048995300000115, 1.1930551000000378, 1.3853828999999678, 1.897187699999904, 2.13720850000027, 2.2651905000002444, 2.3451820999998745]",62.980247299999974,,,818706,001,2023-09-15_12h42.15.779,REPSWITCH1_version2_list2,2022.2.4,359.99971200065676,
REPSWITCH1/PICTURE_687.png,camisa,type,gold,filler,1,F,1,3,2,2,Stim5_Set4,0,None,12,11,12,0,11,11,11,,,,,,,,,,,,,,,,,,,,,,,,62.980247299999974,64.04380429999992,64.04380429999992,64.04380429999992,64.04380429999992,64.04380429999992,64.04380429999992,64.04380429999992,0.0013503999998647487,"['c', 'a', 'm', 'i', 's', 'a']",0,camisa,C:\2023\REPSWITCH12092023\REPSWITCH_excgange\REPSWITCH_excgange\data/818706_REPSWITCH1_version2_list2_2023-09-15_12h42.15.779_micRespv2l2_recorded\recording_micRespv2l2_2023-09-15_12h43.19.554.wav,67.07912880000003,None,67.07912880000003,67.07912880000003,67.07912880000003,67.07912880000003,67.07912880000003,67.07912880000003,"[1.1017066000003979, 1.3419143000000986, 1.5817367000004197, 1.6618254000004526, 1.757805400000052, 1.8217665000001944]",,,,818706,001,2023-09-15_12h42.15.779,REPSWITCH1_version2_list2,2022.2.4,359.99971200065676,
REPSWITCH1/PICTURE_178.png,puente,type,gold,nontarget,1,NT,1,3,2,2,Stim1_Set1,1,repeat,13,12,13,0,12,12,12,,,,,,,,,,,,,,,,,,,,,,,,67.57878829999981,68.68953839999995,68.68953839999995,68.68953839999995,68.68953839999995,68.68953839999995,68.68953839999995,68.68953839999995,0.0013379000001805252,"['p', 'u', 'e', 'n', 't', 'e']",0,puente,C:\2023\REPSWITCH12092023\REPSWITCH_excgange\REPSWITCH_excgange\data/818706_REPSWITCH1_version2_list2_2023-09-15_12h42.15.779_micRespv2l2_recorded\recording_micRespv2l2_2023-09-15_12h43.24.190.wav,71.71375809999972,None,71.71375809999972,71.71375809999972,71.71375809999972,71.71375809999972,71.71375809999972,71.71375809999972,"[1.3675660000003518, 1.5917654000004404, 1.7362083000002713, 1.8321126000000731, 1.9440854000004038, 2.008094600000277]",72.21341660000007,,,818706,001,2023-09-15_12h42.15.779,REPSWITCH1_version2_list2,2022.2.4,359.99971200065676,
REPSWITCH1/PICTURE_178.png,puente,speak,darkblue,switch,2,T,1,3,2,2,Stim1_Set1,0,None,14,13,14,0,13,13,13,,,,,,,,,,,,,,,,,,,,,,,,72.21341660000007,73.30469489999996,73.30469489999996,73.30469489999996,73.30469489999996,73.30469489999996,73.30469489999996,73.30469489999996,0.0013630999997076287,None,0,,C:\2023\REPSWITCH12092023\REPSWITCH_excgange\REPSWITCH_excgange\data/818706_REPSWITCH1_version2_list2_2023-09-15_12h42.15.779_micRespv2l2_recorded\recording_micRespv2l2_2023-09-15_12h43.28.804.wav,76.32880470000009,None,76.32880470000009,76.32880470000009,76.32880470000009,76.32880470000009,76.32880470000009,76.32880470000009,,76.82860630000005,,,818706,001,2023-09-15_12h42.15.779,REPSWITCH1_version2_list2,2022.2.4,359.99971200065676,
REPSWITCH1/PICTURE_128.png,muñeca,speak,darkblue,nontarget,2,NT,1,3,2,2,Stim4_Set1,1,repeat,15,14,15,0,14,14,14,,,,,,,,,,,,,,,,,,,,,,,,76.82860630000005,77.90935379999974,77.90935379999974,77.90935379999974,77.90935379999974,77.90935379999974,77.90935379999974,77.90935379999974,0.0014736999996785016,None,0,,C:\2023\REPSWITCH12092023\REPSWITCH_excgange\REPSWITCH_excgange\data/818706_REPSWITCH1_version2_list2_2023-09-15_12h42.15.779_micRespv2l2_recorded\recording_micRespv2l2_2023-09-15_12h43.33.407.wav,80.9300774999997,None,,,,,,,,81.42992529999992,,,818706,001,2023-09-15_12h42.15.779,REPSWITCH1_version2_list2,2022.2.4,359.99971200065676,
REPSWITCH1/PICTURE_128.png,muñeca,type,gold,switch,1,T,1,3,2,2,Stim4_Set1,0,None,16,15,16,0,15,15,15,,,,,,,,,,,,,,,,,,,,,,,,81.42992529999992,82.45491579999998,82.45491579999998,82.45491579999998,82.45491579999998,82.45491579999998,82.45491579999998,82.45491579999998,0.0014427000000978296,"['m', 'u', 'ñ', 'e', 'c', 'a']",0,muñeca,C:\2023\REPSWITCH12092023\REPSWITCH_excgange\REPSWITCH_excgange\data/818706_REPSWITCH1_version2_list2_2023-09-15_12h42.15.779_micRespv2l2_recorded\recording_micRespv2l2_2023-09-15_12h43.37.953.wav,85.47603639999988,None,,,,,,,"[0.802255999999943, 1.2182956000001468, 1.778950899999927, 1.954912499999864, 2.322534899999937, 2.4189958000001752]",85.9756924999997,,,818706,001,2023-09-15_12h42.15.779,REPSWITCH1_version2_list2,2022.2.4,359.99971200065676,
REPSWITCH1/PICTURE_319.png,vaca,speak,darkblue,filler,2,F,1,3,2,2,Stim1_Set4,1,switch,17,16,17,0,16,16,16,,,,,,,,,,,,,,,,,,,,,,,,85.9756924999997,87.07072849999986,87.07072849999986,87.07072849999986,87.07072849999986,87.07072849999986,87.07072849999986,87.07072849999986,0.0013791999999739346,None,0,,C:\2023\REPSWITCH12092023\REPSWITCH_excgange\REPSWITCH_excgange\data/818706_REPSWITCH1_version2_list2_2023-09-15_12h42.15.779_micRespv2l2_recorded\recording_micRespv2l2_2023-09-15_12h43.42.565.wav,90.08831269999973,None,,,,,,,,90.58811590000005,,,818706,001,2023-09-15_12h42.15.779,REPSWITCH1_version2_list2,2022.2.4,359.99971200065676,
REPSWITCH1/PICTURE_728.png,pulpo,speak,darkblue,filler,2,F,1,3,2,2,Stim8_Set4,0,None,18,17,18,0,17,17,17,,,,,,,,,,,,,,,,,,,,,,,,90.58811590000005,91.63298450000002,91.63298450000002,91.63298450000002,91.63298450000002,91.63298450000002,91.63298450000002,91.63298450000002,0.0013152999999874737,None,0,,C:\2023\REPSWITCH12092023\REPSWITCH_excgange\REPSWITCH_excgange\data/818706_REPSWITCH1_version2_list2_2023-09-15_12h42.15.779_micRespv2l2_recorded\recording_micRespv2l2_2023-09-15_12h43.47.130.wav,94.65349379999998,None,,,,,,,,95.1533273,,,818706,001,2023-09-15_12h42.15.779,REPSWITCH1_version2_list2,2022.2.4,359.99971200065676,
REPSWITCH1/PICTURE_381.png,fresa,type,gold,nontarget,1,NT,1,3,2,2,Stim2_Set1,1,switch,19,18,19,0,18,18,18,,,,,,,,,,,,,,,,,,,,,,,,95.1533273,96.2704647999999,96.2704647999999,96.2704647999999,96.2704647999999,96.2704647999999,96.2704647999999,96.2704647999999,0.001665199999933975,"['f', 'r', 'e', 's', 'a']",0,fresa,C:\2023\REPSWITCH12092023\REPSWITCH_excgange\REPSWITCH_excgange\data/818706_REPSWITCH1_version2_list2_2023-09-15_12h42.15.779_micRespv2l2_recorded\recording_micRespv2l2_2023-09-15_12h43.51.765.wav,99.28815899999972,None,,,,,,,"[0.9067228000003524, 1.0834334000001036, 1.162588400000459, 1.3545786000004227, 1.563365600000452]",99.78795999999966,,,818706,001,2023-09-15_12h42.15.779,REPSWITCH1_version2_list2,2022.2.4,359.99971200065676,
REPSWITCH1/PICTURE_381.png,fresa,type,gold,repeat,1,T,1,3,2,2,Stim2_Set1,0,None,20,19,20,0,19,19,19,,,,,,,,,,,,,,,,,,,,,,,,99.78795999999966,100.82926799999996,100.82926799999996,100.82926799999996,100.82926799999996,100.82926799999996,100.82926799999996,100.82926799999996,0.001611299999694893,"['f', 'r', 'e', 's', 'a']",0,fresa,C:\2023\REPSWITCH12092023\REPSWITCH_excgange\REPSWITCH_excgange\data/818706_REPSWITCH1_version2_list2_2023-09-15_12h42.15.779_micRespv2l2_recorded\recording_micRespv2l2_2023-09-15_12h43.56.330.wav,103.8533026,None,103.8533026,103.8533026,103.8533026,103.8533026,103.8533026,103.8533026,"[0.8122984999999971, 0.9883685999998306, 1.0683109999999942, 1.2922414999998182, 1.3562504000001354]",104.35315629999968,,,818706,001,2023-09-15_12h42.15.779,REPSWITCH1_version2_list2,2022.2.4,359.99971200065676,
REPSWITCH1/PICTURE_8.png,pierna,speak,darkblue,filler,2,F,1,3,2,2,Stim3_Set4,0,None,21,20,21,0,20,20,20,,,,,,,,,,,,,,,,,,,,,,,,104.35315629999968,105.38339479999968,105.38339479999968,105.38339479999968,105.38339479999968,105.38339479999968,105.38339479999968,105.38339479999968,0.0012120999999751803,None,0,,C:\2023\REPSWITCH12092023\REPSWITCH_excgange\REPSWITCH_excgange\data/818706_REPSWITCH1_version2_list2_2023-09-15_12h42.15.779_micRespv2l2_recorded\recording_micRespv2l2_2023-09-15_12h44.00.893.wav,108.4192963999999,None,108.4192963999999,108.4192963999999,108.4192963999999,108.4192963999999,108.4192963999999,108.4192963999999,,,,,818706,001,2023-09-15_12h42.15.779,REPSWITCH1_version2_list2,2022.2.4,359.99971200065676,
REPSWITCH1/PICTURE_48.png,bombero,speak,darkblue,filler,2,F,1,3,2,2,Stim7_Set4,0,None,22,21,22,0,21,21,21,,,,,,,,,,,,,,,,,,,,,,,,108.91837940000005,109.9791554999997,109.9791554999997,109.9791554999997,109.9791554999997,109.9791554999997,109.9791554999997,109.9791554999997,0.0015311000001929642,None,0,,C:\2023\REPSWITCH12092023\REPSWITCH_excgange\REPSWITCH_excgange\data/818706_REPSWITCH1_version2_list2_2023-09-15_12h42.15.779_micRespv2l2_recorded\recording_micRespv2l2_2023-09-15_12h44.05.479.wav,113.00320009999996,None,113.00320009999996,113.00320009999996,113.00320009999996,113.00320009999996,113.00320009999996,113.00320009999996,,113.50303669999994,,,818706,001,2023-09-15_12h42.15.779,REPSWITCH1_version2_list2,2022.2.4,359.99971200065676,
REPSWITCH1/PICTURE_135.png,traje,type,gold,nontarget,1,NT,1,3,2,2,Stim3_Set1,1,switch,23,22,23,0,22,22,22,,,,,,,,,,,,,,,,,,,,,,,,113.50303669999994,114.5701638999999,114.5701638999999,114.5701638999999,114.5701638999999,114.5701638999999,114.5701638999999,114.5701638999999,0.0013550000003306195,"['t', 'r', 'a', 'j', 'e']",0,traje,C:\2023\REPSWITCH12092023\REPSWITCH_excgange\REPSWITCH_excgange\data/818706_REPSWITCH1_version2_list2_2023-09-15_12h42.15.779_micRespv2l2_recorded\recording_micRespv2l2_2023-09-15_12h44.10.065.wav,117.59065759999976,None,,,,,,,"[1.0552824000001237, 1.1352445000002263, 1.487420700000257, 1.6473981000003732, 1.7433671000003415]",,,,818706,001,2023-09-15_12h42.15.779,REPSWITCH1_version2_list2,2022.2.4,359.99971200065676,
REPSWITCH1/PICTURE_135.png,traje,type,gold,repeat,1,T,1,3,2,2,Stim3_Set1,0,None,24,23,24,0,23,23,23,,,,,,,,,,,,,,,,,,,,,,,,118.09044429999994,119.13179289999971,119.13179289999971,119.13179289999971,119.13179289999971,119.13179289999971,119.13179289999971,119.13179289999971,0.0012980000001334702,"['t', 'r', 'a', 'j', 'e']",0,traje,C:\2023\REPSWITCH12092023\REPSWITCH_excgange\REPSWITCH_excgange\data/818706_REPSWITCH1_version2_list2_2023-09-15_12h42.15.779_micRespv2l2_recorded\recording_micRespv2l2_2023-09-15_12h44.14.632.wav,122.15579669999988,None,122.15579669999988,122.15579669999988,122.15579669999988,122.15579669999988,122.15579669999988,122.15579669999988,"[1.0213998000003812, 1.1177261000002545, 1.53325040000027, 1.6612458000004153, 1.7572454000001017]",122.65565190000007,,,818706,001,2023-09-15_12h42.15.779,REPSWITCH1_version2_list2,2022.2.4,359.99971200065676,
REPSWITCH1/PICTURE_19.png,pavo,type,gold,nontarget,1,NT,1,3,2,2,Stim5_Set1,1,repeat,25,24,25,0,24,24,24,,,,,,,,,,,,,,,,,,,,,,,,122.65565190000007,123.81467729999986,123.81467729999986,123.81467729999986,123.81467729999986,123.81467729999986,123.81467729999986,123.81467729999986,0.0018316000000595523,"['p', 'a', 'v', 'o']",0,pavo,C:\2023\REPSWITCH12092023\REPSWITCH_excgange\REPSWITCH_excgange\data/818706_REPSWITCH1_version2_list2_2023-09-15_12h42.15.779_micRespv2l2_recorded\recording_micRespv2l2_2023-09-15_12h44.19.309.wav,126.83209940000006,None,,,,,,,"[0.9146215000000666, 1.0429328000000169, 1.331155200000012, 1.491133699999864]",127.33194479999975,,,818706,001,2023-09-15_12h42.15.779,REPSWITCH1_version2_list2,2022.2.4,359.99971200065676,
REPSWITCH1/PICTURE_19.png,pavo,speak,darkblue,switch,2,T,1,3,2,2,Stim5_Set1,0,None,26,25,26,0,25,25,25,,,,,,,,,,,,,,,,,,,,,,,,127.33194479999975,128.4065903999999,128.4065903999999,128.4065903999999,128.4065903999999,128.4065903999999,128.4065903999999,128.4065903999999,0.0017869999996946717,None,0,,C:\2023\REPSWITCH12092023\REPSWITCH_excgange\REPSWITCH_excgange\data/818706_REPSWITCH1_version2_list2_2023-09-15_12h42.15.779_micRespv2l2_recorded\recording_micRespv2l2_2023-09-15_12h44.23.907.wav,131.43064479999975,None,131.43064479999975,131.43064479999975,131.43064479999975,131.43064479999975,131.43064479999975,131.43064479999975,,131.93049560000009,,,818706,001,2023-09-15_12h42.15.779,REPSWITCH1_version2_list2,2022.2.4,359.99971200065676,
REPSWITCH1/PICTURE_142.png,vaso,speak,darkblue,filler,2,F,2,3,2,2,Stim7_Set1,0,None,27,26,27,0,26,26,26,,,,,,,,,,,,,,,,,,,,,,,,131.93049560000009,132.97458149999966,132.97458149999966,132.97458149999966,132.97458149999966,132.97458149999966,132.97458149999966,132.97458149999966,0.0012676000001192733,None,0,,C:\2023\REPSWITCH12092023\REPSWITCH_excgange\REPSWITCH_excgange\data/818706_REPSWITCH1_version2_list2_2023-09-15_12h42.15.779_micRespv2l2_recorded\recording_micRespv2l2_2023-09-15_12h44.28.485.wav,136.00978179999993,None,136.00978179999993,136.00978179999993,136.00978179999993,136.00978179999993,136.00978179999993,136.00978179999993,,,,,818706,001,2023-09-15_12h42.15.779,REPSWITCH1_version2_list2,2022.2.4,359.99971200065676,
REPSWITCH1/PICTURE_135.png,traje,type,gold,filler,1,F,2,3,2,2,Stim3_Set1,0,None,28,27,28,0,27,27,27,,,,,,,,,,,,,,,,,,,,,,,,136.50958730000002,137.6708834000001,137.6708834000001,137.6708834000001,137.6708834000001,137.6708834000001,137.6708834000001,137.6708834000001,0.0012693999997281935,"['t', 'r', 'a', 'j', 'e']",0,traje,C:\2023\REPSWITCH12092023\REPSWITCH_excgange\REPSWITCH_excgange\data/818706_REPSWITCH1_version2_list2_2023-09-15_12h42.15.779_micRespv2l2_recorded\recording_micRespv2l2_2023-09-15_12h44.33.169.wav,140.6916038999998,None,,,,,,,"[0.8990117000003011, 0.9790061000003334, 1.1863398000004963, 1.2661775000001398, 1.4109252000002925]",141.19142809999994,,,818706,001,2023-09-15_12h42.15.779,REPSWITCH1_version2_list2,2022.2.4,359.99971200065676,
REPSWITCH1/PICTURE_446.png,cerdo,type,gold,nontarget,1,NT,2,3,2,2,Stim7_Set2,0,None,29,28,29,0,28,28,28,,,,,,,,,,,,,,,,,,,,,,,,141.19142809999994,142.27788229999987,142.27788229999987,142.27788229999987,142.27788229999987,142.27788229999987,142.27788229999987,142.27788229999987,0.0015209000002869288,"['c', 'e', 'r', 'd', 'o']",0,cerdo,C:\2023\REPSWITCH12092023\REPSWITCH_excgange\REPSWITCH_excgange\data/818706_REPSWITCH1_version2_list2_2023-09-15_12h42.15.779_micRespv2l2_recorded\recording_micRespv2l2_2023-09-15_12h44.37.773.wav,145.29567629999974,None,,,,,,,"[1.812025000000176, 2.1479804999999033, 2.2913453999999547, 2.4675952000002326, 2.6590480999998363]",145.79551189999984,,,818706,001,2023-09-15_12h42.15.779,REPSWITCH1_version2_list2,2022.2.4,359.99971200065676,
REPSWITCH1/PICTURE_446.png,cerdo,type,gold,repeat,1,T,2,3,2,2,Stim7_Set2,0,None,30,29,30,0,29,29,29,,,,,,,,,,,,,,,,,,,,,,,,145.79551189999984,146.92108979999966,146.92108979999966,146.92108979999966,146.92108979999966,146.92108979999966,146.92108979999966,146.92108979999966,0.0014941999997972744,"['c', 'e', 'r', 'd', 'o']",0,cerdo,C:\2023\REPSWITCH12092023\REPSWITCH_excgange\REPSWITCH_excgange\data/818706_REPSWITCH1_version2_list2_2023-09-15_12h42.15.779_micRespv2l2_recorded\recording_micRespv2l2_2023-09-15_12h44.42.426.wav,149.95307569999977,None,,,,,,,"[0.9448970000003101, 1.0718772000000172, 1.2482187000000522, 1.4238546999999926, 1.6806209000001218]",,,,818706,001,2023-09-15_12h42.15.779,REPSWITCH1_version2_list2,2022.2.4,359.99971200065676,
REPSWITCH1/PICTURE_16.png,cazador,speak,darkblue,filler,2,F,2,3,2,2,Stim6_Set1,0,None,31,30,31,0,30,30,30,,,,,,,,,,,,,,,,,,,,,,,,150.4523661999997,151.47996609999973,151.47996609999973,151.47996609999973,151.47996609999973,151.47996609999973,151.47996609999973,151.47996609999973,0.0015967999997883453,None,0,,C:\2023\REPSWITCH12092023\REPSWITCH_excgange\REPSWITCH_excgange\data/818706_REPSWITCH1_version2_list2_2023-09-15_12h42.15.779_micRespv2l2_recorded\recording_micRespv2l2_2023-09-15_12h44.46.981.wav,154.50386019999996,None,,,,,,,,155.00369499999988,,,818706,001,2023-09-15_12h42.15.779,REPSWITCH1_version2_list2,2022.2.4,359.99971200065676,
REPSWITCH1/PICTURE_552.png,manzana,type,gold,nontarget,1,NT,2,3,2,2,Stim6_Set2,1,switch,32,31,32,0,31,31,31,,,,,,,,,,,,,,,,,,,,,,,,155.00369499999988,156.05702840000004,156.05702840000004,156.05702840000004,156.05702840000004,156.05702840000004,156.05702840000004,156.05702840000004,0.0016098999999485386,"['m', 'a', 'n', 'z', 'a', 'n', 'a']",0,manzana,C:\2023\REPSWITCH12092023\REPSWITCH_excgange\REPSWITCH_excgange\data/818706_REPSWITCH1_version2_list2_2023-09-15_12h42.15.779_micRespv2l2_recorded\recording_micRespv2l2_2023-09-15_12h44.51.552.wav,159.07462719999967,None,,,,,,,"[0.9280235999999604, 1.0568473000002996, 1.1840808000001743, 1.3763880000001336, 1.5999288000002707, 1.7123616000003494, 2.5119220000001405]",159.57445819999975,,,818706,001,2023-09-15_12h42.15.779,REPSWITCH1_version2_list2,2022.2.4,359.99971200065676,
REPSWITCH1/PICTURE_552.png,manzana,type,gold,repeat,1,T,2,3,2,2,Stim6_Set2,0,None,33,32,33,0,32,32,32,,,,,,,,,,,,,,,,,,,,,,,,159.57445819999975,160.64631310000004,160.64631310000004,160.64631310000004,160.64631310000004,160.64631310000004,160.64631310000004,160.64631310000004,0.0015118999999685911,"['m', 'a', 'n', 'z', 'a', 'n', 'a']",0,manzana,C:\2023\REPSWITCH12092023\REPSWITCH_excgange\REPSWITCH_excgange\data/818706_REPSWITCH1_version2_list2_2023-09-15_12h42.15.779_micRespv2l2_recorded\recording_micRespv2l2_2023-09-15_12h44.56.147.wav,163.67038269999966,None,163.67038269999966,163.67038269999966,163.67038269999966,163.67038269999966,163.67038269999966,163.67038269999966,"[0.6748354999999719, 0.7547960000001694, 0.9473262999999861, 1.0912660000003598, 1.2669841000001725, 1.3630852000001141, 1.8428504000003159]",164.17351849999977,,,818706,001,2023-09-15_12h42.15.779,REPSWITCH1_version2_list2,2022.2.4,359.99971200065676,
REPSWITCH1/PICTURE_517.png,cuerda,type,gold,nontarget,1,NT,2,3,2,2,Stim4_Set2,0,None,34,33,34,0,33,33,33,,,,,,,,,,,,,,,,,,,,,,,,164.17351849999977,165.26707110000007,165.26707110000007,165.26707110000007,165.26707110000007,165.26707110000007,165.26707110000007,165.26707110000007,0.0015252999996846484,"['c', 'u', 'e', 'r', 'd', 'a']",0,cuerda,C:\2023\REPSWITCH12092023\REPSWITCH_excgange\REPSWITCH_excgange\data/818706_REPSWITCH1_version2_list2_2023-09-15_12h42.15.779_micRespv2l2_recorded\recording_micRespv2l2_2023-09-15_12h45.00.778.wav,168.302866,None,168.302866,168.302866,168.302866,168.302866,168.302866,168.302866,"[0.9185848000001897, 1.1105729000000792, 1.22254410000005, 1.3187701000001653, 1.4940968999999313, 1.5903545000001031]",,,,818706,001,2023-09-15_12h42.15.779,REPSWITCH1_version2_list2,2022.2.4,359.99971200065676,
REPSWITCH1/PICTURE_517.png,cuerda,speak,darkblue,switch,2,T,2,3,2,2,Stim4_Set2,0,None,35,34,35,0,34,34,34,,,,,,,,,,,,,,,,,,,,,,,,168.8020779999997,169.88781549999976,169.88781549999976,169.88781549999976,169.88781549999976,169.88781549999976,169.88781549999976,169.88781549999976,0.0015229000000545057,None,0,,C:\2023\REPSWITCH12092023\REPSWITCH_excgange\REPSWITCH_excgange\data/818706_REPSWITCH1_version2_list2_2023-09-15_12h42.15.779_micRespv2l2_recorded\recording_micRespv2l2_2023-09-15_12h45.05.389.wav,172.91189349999968,None,172.91189349999968,172.91189349999968,172.91189349999968,172.91189349999968,172.91189349999968,172.91189349999968,,173.4117210999998,,,818706,001,2023-09-15_12h42.15.779,REPSWITCH1_version2_list2,2022.2.4,359.99971200065676,
REPSWITCH1/PICTURE_169.png,espalda,speak,darkblue,filler,2,F,2,3,2,2,Stim8_Set1,1,repeat,36,35,36,0,35,35,35,,,,,,,,,,,,,,,,,,,,,,,,173.4117210999998,174.5280419999999,174.5280419999999,174.5280419999999,174.5280419999999,174.5280419999999,174.5280419999999,174.5280419999999,0.0012574999996104452,None,0,,C:\2023\REPSWITCH12092023\REPSWITCH_excgange\REPSWITCH_excgange\data/818706_REPSWITCH1_version2_list2_2023-09-15_12h42.15.779_micRespv2l2_recorded\recording_micRespv2l2_2023-09-15_12h45.10.038.wav,177.56338689999984,None,177.56338689999984,177.56338689999984,177.56338689999984,177.56338689999984,177.56338689999984,177.56338689999984,,,,,818706,001,2023-09-15_12h42.15.779,REPSWITCH1_version2_list2,2022.2.4,359.99971200065676,
REPSWITCH1/PICTURE_30.png,granja,speak,darkblue,nontarget,2,NT,2,3,2,2,Stim5_Set2,1,repeat,37,36,37,0,36,36,36,,,,,,,,,,,,,,,,,,,,,,,,178.0630142,179.0738068999999,179.0738068999999,179.0738068999999,179.0738068999999,179.0738068999999,179.0738068999999,179.0738068999999,0.0020883000001958862,None,0,,C:\2023\REPSWITCH12092023\REPSWITCH_excgange\REPSWITCH_excgange\data/818706_REPSWITCH1_version2_list2_2023-09-15_12h42.15.779_micRespv2l2_recorded\recording_micRespv2l2_2023-09-15_12h45.14.575.wav,182.0980113999999,None,182.0980113999999,182.0980113999999,182.0980113999999,182.0980113999999,182.0980113999999,182.0980113999999,,182.5976753,,,818706,001,2023-09-15_12h42.15.779,REPSWITCH1_version2_list2,2022.2.4,359.99971200065676,
REPSWITCH1/PICTURE_30.png,granja,type,gold,switch,1,T,2,3,2,2,Stim5_Set2,0,None,38,37,38,0,37,37,37,,,,,,,,,,,,,,,,,,,,,,,,182.5976753,183.70658439999988,183.70658439999988,183.70658439999988,183.70658439999988,183.70658439999988,183.70658439999988,183.70658439999988,0.0020481999999901745,"['g', 'r', 'a', 'n', 'j', 'a']",0,granja,C:\2023\REPSWITCH12092023\REPSWITCH_excgange\REPSWITCH_excgange\data/818706_REPSWITCH1_version2_list2_2023-09-15_12h42.15.779_micRespv2l2_recorded\recording_micRespv2l2_2023-09-15_12h45.19.201.wav,186.72414309999976,None,,,,,,,"[0.7345902000001843, 0.8145816999999624, 1.1666505000002871, 1.3910624000000098, 1.5031017000001157, 1.6309509000002436]",187.22398729999986,,,818706,001,2023-09-15_12h42.15.779,REPSWITCH1_version2_list2,2022.2.4,359.99971200065676,
REPSWITCH1/PICTURE_128.png,muñeca,type,gold,filler,1,F,2,3,2,2,Stim4_Set1,1,repeat,39,38,39,0,38,38,38,,,,,,,,,,,,,,,,,,,,,,,,187.22398729999986,188.30141729999968,188.30141729999968,188.30141729999968,188.30141729999968,188.30141729999968,188.30141729999968,188.30141729999968,0.0014355000002979068,"['m', 'u', 'ñ', 'e', 'c', 'a']",0,muñeca,C:\2023\REPSWITCH12092023\REPSWITCH_excgange\REPSWITCH_excgange\data/818706_REPSWITCH1_version2_list2_2023-09-15_12h42.15.779_micRespv2l2_recorded\recording_micRespv2l2_2023-09-15_12h45.23.802.wav,191.32546079999975,None,191.32546079999975,191.32546079999975,191.32546079999975,191.32546079999975,191.32546079999975,191.32546079999975,"[0.9235908000000563, 1.1321272000000135, 1.6437779000002593, 1.7877751999999418, 2.124037800000224, 2.348149299999932]",191.82527879999998,,,818706,001,2023-09-15_12h42.15.779,REPSWITCH1_version2_list2,2022.2.4,359.99971200065676,
REPSWITCH1/PICTURE_199.png,falda,type,gold,nontarget,1,NT,2,3,2,2,Stim8_Set2,0,None,40,39,40,0,39,39,39,,,,,,,,,,,,,,,,,,,,,,,,191.82527879999998,192.89159429999972,192.89159429999972,192.89159429999972,192.89159429999972,192.89159429999972,192.89159429999972,192.89159429999972,0.001461700000163546,"['f', 'a', 'l', 'd', 'a']",0,falda,C:\2023\REPSWITCH12092023\REPSWITCH_excgange\REPSWITCH_excgange\data/818706_REPSWITCH1_version2_list2_2023-09-15_12h42.15.779_micRespv2l2_recorded\recording_micRespv2l2_2023-09-15_12h45.28.392.wav,195.91566809999995,None,195.91566809999995,195.91566809999995,195.91566809999995,195.91566809999995,195.91566809999995,195.91566809999995,"[0.893547099999978, 0.9576539999998204, 1.0859246999998504, 1.2458738000000267, 1.293944499999725]",196.41549729999997,,,818706,001,2023-09-15_12h42.15.779,REPSWITCH1_version2_list2,2022.2.4,359.99971200065676,
REPSWITCH1/PICTURE_199.png,falda,speak,darkblue,switch,2,T,2,3,2,2,Stim8_Set2,0,None,41,40,41,0,40,40,40,,,,,,,,,,,,,,,,,,,,,,,,196.41549729999997,197.4318327000001,197.4318327000001,197.4318327000001,197.4318327000001,197.4318327000001,197.4318327000001,197.4318327000001,0.0014417000002140412,None,0,,C:\2023\REPSWITCH12092023\REPSWITCH_excgange\REPSWITCH_excgange\data/818706_REPSWITCH1_version2_list2_2023-09-15_12h42.15.779_micRespv2l2_recorded\recording_micRespv2l2_2023-09-15_12h45.32.932.wav,200.45610239999996,None,200.45610239999996,200.45610239999996,200.45610239999996,200.45610239999996,200.45610239999996,200.45610239999996,,,,,818706,001,2023-09-15_12h42.15.779,REPSWITCH1_version2_list2,2022.2.4,359.99971200065676,
REPSWITCH1/PICTURE_152.png,caracol,speak,darkblue,nontarget,2,NT,2,3,2,2,Stim2_Set2,1,switch,42,41,42,0,41,41,41,,,,,,,,,,,,,,,,,,,,,,,,200.95905219999986,201.99982120000004,201.99982120000004,201.99982120000004,201.99982120000004,201.99982120000004,201.99982120000004,201.99982120000004,0.0015371999998023966,None,0,,C:\2023\REPSWITCH12092023\REPSWITCH_excgange\REPSWITCH_excgange\data/818706_REPSWITCH1_version2_list2_2023-09-15_12h42.15.779_micRespv2l2_recorded\recording_micRespv2l2_2023-09-15_12h45.37.501.wav,205.02394939999976,None,205.02394939999976,205.02394939999976,205.02394939999976,205.02394939999976,205.02394939999976,205.02394939999976,,,,,818706,001,2023-09-15_12h42.15.779,REPSWITCH1_version2_list2,2022.2.4,359.99971200065676,
REPSWITCH1/PICTURE_152.png,caracol,speak,darkblue,repeat,2,T,2,3,2,2,Stim2_Set2,0,None,43,42,43,0,42,42,42,,,,,,,,,,,,,,,,,,,,,,,,205.52371249999987,206.61501169999974,206.61501169999974,206.61501169999974,206.61501169999974,206.61501169999974,206.61501169999974,206.61501169999974,0.0015769000001455424,None,0,,C:\2023\REPSWITCH12092023\REPSWITCH_excgange\REPSWITCH_excgange\data/818706_REPSWITCH1_version2_list2_2023-09-15_12h42.15.779_micRespv2l2_recorded\recording_micRespv2l2_2023-09-15_12h45.42.115.wav,209.63906769999994,None,209.63906769999994,209.63906769999994,209.63906769999994,209.63906769999994,209.63906769999994,209.63906769999994,,210.13890409999976,,,818706,001,2023-09-15_12h42.15.779,REPSWITCH1_version2_list2,2022.2.4,359.99971200065676,
REPSWITCH1/PICTURE_381.png,fresa,type,gold,filler,1,F,2,3,2,2,Stim2_Set1,0,None,44,43,44,0,43,43,43,,,,,,,,,,,,,,,,,,,,,,,,210.13890409999976,211.15802349999967,211.15802349999967,211.15802349999967,211.15802349999967,211.15802349999967,211.15802349999967,211.15802349999967,0.00158659999988231,"['f', 'r', 'e', 's', 'a']",0,fresa,C:\2023\REPSWITCH12092023\REPSWITCH_excgange\REPSWITCH_excgange\data/818706_REPSWITCH1_version2_list2_2023-09-15_12h42.15.779_micRespv2l2_recorded\recording_micRespv2l2_2023-09-15_12h45.46.669.wav,214.19661629999973,None,214.19661629999973,214.19661629999973,214.19661629999973,214.19661629999973,214.19661629999973,214.19661629999973,"[0.9630342999998902, 1.1566146999998637, 1.2672108000001572, 1.524020500000006, 1.6829886999998962]",,,,818706,001,2023-09-15_12h42.15.779,REPSWITCH1_version2_list2,2022.2.4,359.99971200065676,
REPSWITCH1/PICTURE_175.png,pintor,speak,darkblue,nontarget,2,NT,2,3,2,2,Stim1_Set2,1,switch,45,44,45,0,44,44,44,,,,,,,,,,,,,,,,,,,,,,,,214.69578180000008,215.75655310000002,215.75655310000002,215.75655310000002,215.75655310000002,215.75655310000002,215.75655310000002,215.75655310000002,0.0015375000002677552,None,0,,C:\2023\REPSWITCH12092023\REPSWITCH_excgange\REPSWITCH_excgange\data/818706_REPSWITCH1_version2_list2_2023-09-15_12h42.15.779_micRespv2l2_recorded\recording_micRespv2l2_2023-09-15_12h45.51.257.wav,218.78062499999987,None,218.78062499999987,218.78062499999987,218.78062499999987,218.78062499999987,218.78062499999987,218.78062499999987,,219.28043489999982,,,818706,001,2023-09-15_12h42.15.779,REPSWITCH1_version2_list2,2022.2.4,359.99971200065676,
REPSWITCH1/PICTURE_175.png,pintor,speak,darkblue,repeat,2,T,2,3,2,2,Stim1_Set2,0,None,46,45,46,0,45,45,45,,,,,,,,,,,,,,,,,,,,,,,,219.28043489999982,220.29399829999966,220.29399829999966,220.29399829999966,220.29399829999966,220.29399829999966,220.29399829999966,220.29399829999966,0.0015261000003192748,None,0,,C:\2023\REPSWITCH12092023\REPSWITCH_excgange\REPSWITCH_excgange\data/818706_REPSWITCH1_version2_list2_2023-09-15_12h42.15.779_micRespv2l2_recorded\recording_micRespv2l2_2023-09-15_12h45.55.794.wav,223.3182237000001,None,223.3182237000001,223.3182237000001,223.3182237000001,223.3182237000001,223.3182237000001,223.3182237000001,,223.81786220000004,,,818706,001,2023-09-15_12h42.15.779,REPSWITCH1_version2_list2,2022.2.4,359.99971200065676,
REPSWITCH1/PICTURE_178.png,puente,type,gold,filler,1,F,2,3,2,2,Stim1_Set1,0,None,47,46,47,0,46,46,46,,,,,,,,,,,,,,,,,,,,,,,,223.81786220000004,224.84849989999975,224.84849989999975,224.84849989999975,224.84849989999975,224.84849989999975,224.84849989999975,224.84849989999975,0.0013930999998592597,"['p', 'u', 'e', 'n', 't', 'e']",0,puente,C:\2023\REPSWITCH12092023\REPSWITCH_excgange\REPSWITCH_excgange\data/818706_REPSWITCH1_version2_list2_2023-09-15_12h42.15.779_micRespv2l2_recorded\recording_micRespv2l2_2023-09-15_12h46.00.346.wav,227.86934500000007,None,,,,,,,"[0.7768228999998428, 1.0655431000000135, 1.1605069000002004, 1.3365527000000839, 1.4808066999999028, 1.528805899999952]",228.3692043000001,,,818706,001,2023-09-15_12h42.15.779,REPSWITCH1_version2_list2,2022.2.4,359.99971200065676,
REPSWITCH1/PICTURE_19.png,pavo,speak,darkblue,filler,2,F,2,3,2,2,Stim5_Set1,0,None,48,47,48,0,47,47,47,,,,,,,,,,,,,,,,,,,,,,,,228.3692043000001,229.48620699999992,229.48620699999992,229.48620699999992,229.48620699999992,229.48620699999992,229.48620699999992,229.48620699999992,0.0017096999999921536,None,0,,C:\2023\REPSWITCH12092023\REPSWITCH_excgange\REPSWITCH_excgange\data/818706_REPSWITCH1_version2_list2_2023-09-15_12h42.15.779_micRespv2l2_recorded\recording_micRespv2l2_2023-09-15_12h46.04.981.wav,232.50386449999996,None,,,,,,,,233.00650079999969,,,818706,001,2023-09-15_12h42.15.779,REPSWITCH1_version2_list2,2022.2.4,359.99971200065676,
REPSWITCH1/PICTURE_264.png,mano,speak,darkblue,nontarget,2,NT,2,3,2,2,Stim3_Set2,1,repeat,49,48,49,0,48,48,48,,,,,,,,,,,,,,,,,,,,,,,,233.00650079999969,234.06185770000002,234.06185770000002,234.06185770000002,234.06185770000002,234.06185770000002,234.06185770000002,234.06185770000002,0.0014974000000620435,None,0,,C:\2023\REPSWITCH12092023\REPSWITCH_excgange\REPSWITCH_excgange\data/818706_REPSWITCH1_version2_list2_2023-09-15_12h42.15.779_micRespv2l2_recorded\recording_micRespv2l2_2023-09-15_12h46.09.571.wav,237.09765049999987,None,237.09765049999987,237.09765049999987,237.09765049999987,237.09765049999987,237.09765049999987,237.09765049999987,,,,,818706,001,2023-09-15_12h42.15.779,REPSWITCH1_version2_list2,2022.2.4,359.99971200065676,
REPSWITCH1/PICTURE_264.png,mano,type,gold,switch,1,T,2,3,2,2,Stim3_Set2,0,None,50,49,50,0,49,49,49,,,,,,,,,,,,,,,,,,,,,,,,237.59684759999982,238.65206739999985,238.65206739999985,238.65206739999985,238.65206739999985,238.65206739999985,238.65206739999985,238.65206739999985,0.00147530000003826,"['m', 'a', 'n', 'o']",0,mano,C:\2023\REPSWITCH12092023\REPSWITCH_excgange\REPSWITCH_excgange\data/818706_REPSWITCH1_version2_list2_2023-09-15_12h42.15.779_micRespv2l2_recorded\recording_micRespv2l2_2023-09-15_12h46.14.152.wav,241.67628479999985,None,241.67628479999985,241.67628479999985,241.67628479999985,241.67628479999985,241.67628479999985,241.67628479999985,"[1.2449302999998508, 1.325110499999937, 1.469075900000007, 2.1415829000002304]",,,,818706,001,2023-09-15_12h42.15.779,REPSWITCH1_version2_list2,2022.2.4,359.99971200065676,
,,,,,,,,,,,,,,,,,,,,,,,,,,,,,,,,,,,,,,,,,,,,242.17591689999972,243.2588992000001,243.2588992000001,243.2588992000001,243.2588992000001,243.2588992000001,243.2588992000001,243.2588992000001,0.0014326000000437489,"['c', 'e', 'r', 'd', 'o']",0,cerdo,C:\2023\REPSWITCH12092023\REPSWITCH_excgange\REPSWITCH_excgange\data/818706_REPSWITCH1_version2_list2_2023-09-15_12h42.15.779_micRespv2l2_recorded\recording_micRespv2l2_2023-09-15_12h46.18.759.wav,246.28294359999973,,246.28294359999973,246.28294359999973,246.28294359999973,246.28294359999973,246.28294359999973,246.28294359999973,"[1.0708080999997946, 1.2945189000001847, 1.4060688999998092, 1.6300814999999602, 1.7422845000000962]",246.78264760000002,246.78264760000002,246.78264760000002,,,,,,,
