image,correctAns,respModal,frameColor,repSwitch,sequence,target,set,stimulus,order,psychopy_order,trialsREPSWITCH.thisRepN,trialsREPSWITCH.thisTrialN,trialsREPSWITCH.thisN,trialsREPSWITCH.thisIndex,textWelcome.started,textBlank500.started,textboxInstrMain1.started,textboxInstrMain1_2.started,textboxInstrMain1_3.started,keyInstrMain.started,keyInstrMain.keys,keyInstrMain.rt,textboxInstrMain2.started,textboxInstrMain2_2.started,textboxInstrMain2_3.started,textboxInstrMain2_4.started,textboxInstrMain2_5.started,textboxInstrMain2_6.started,textboxInstrMain2_7.started,textboxInstrMain2_8.started,textboxInstrMain2_9.started,textboxInstrMain2_10.started,textboxInstrMain2_11.started,textboxInstrMain2_12.started,keyInstrMain2.started,keyInstrMain2.keys,keyInstrMain2.rt,fixationITI.started,fixationITI.stopped,polygonColour.started,polygonWhite.started,imageObject.started,polygonType.started,textInput.started,keyResp.started,micResp.started,keyResp.keys,keyResp.corr,subjResponse,micResp.clip,keyPause.keys,polygonColour.stopped,polygonWhite.stopped,imageObject.stopped,polygonType.stopped,textInput.stopped,keyResp.stopped,keyResp.rt,textBlank500.stopped,participant,session,date,expName,psychopyVersion,frameRate,
,,,,,,,,,,,,,,,22.006225600023754,24.50667449994944,25.01907239994034,25.01907239994034,25.01907239994034,25.01907239994034,space,1.5082896000239998,,,,,,,,,,,,,,,,,,,,,,,,,,,,,,,,,,,,,,837976,001,2023-07-17_10h34.27.142,REPSWITCH1_v2022.2.4,2022.2.4,60.044156459386414,
,,,,,,,,,,,,,,,,,,,,,,,26.584860599949025,26.584860599949025,26.584860599949025,26.584860599949025,26.584860599949025,26.584860599949025,26.584860599949025,26.584860599949025,26.584860599949025,26.584860599949025,26.584860599949025,26.584860599949025,26.584860599949025,space,5.63315730006434,,,,,,,,,,,,,,,,,,,,,,,837976,001,2023-07-17_10h34.27.142,REPSWITCH1_v2022.2.4,2022.2.4,60.044156459386414,
REPSWITCH1/PICTURE_178.png,puente,speak,gold,nontarget,2,NT,1,Stim1_Set1,1,0,0,0,0,0,,38.26511419995222,,,,,,,,,,,,,,,,,,,,,,33.11645450000651,34.73440009995829,34.73440009995829,34.73440009995829,34.73440009995829,34.73440009995829,34.73440009995829,34.73440009995829,0.26050680002663285,None,0,,D:\GitHub\experiment1\data/837976_REPSWITCH1_v2022.2.4_2023-07-17_10h34.27.142_micResp_recorded\recording_micResp_2023-07-17_10h34.53.918.wav,None,,,,,,,,,837976,001,2023-07-17_10h34.27.142,REPSWITCH1_v2022.2.4,2022.2.4,60.044156459386414,
REPSWITCH1/PICTURE_178.png,puente,speak,gold,repeat,2,T,1,Stim1_Set1,2,1,0,1,1,1,,42.99767359998077,,,,,,,,,,,,,,,,,,,,,,38.75564210000448,39.9160868000472,39.9160868000472,39.9160868000472,39.9160868000472,39.9160868000472,39.9160868000472,39.9160868000472,0.003818199969828129,None,0,,D:\GitHub\experiment1\data/837976_REPSWITCH1_v2022.2.4_2023-07-17_10h34.27.142_micResp_recorded\recording_micResp_2023-07-17_10h34.59.316.wav,None,,,,,,,,,837976,001,2023-07-17_10h34.27.142,REPSWITCH1_v2022.2.4,2022.2.4,60.044156459386414,
REPSWITCH1/PICTURE_319.png,vaca,type,darkblue,filler,1,F,1,Stim1_Set4,3,2,0,2,2,2,,47.91669109999202,,,,,,,,,,,,,,,,,,,,,,43.50231599994004,44.6985114000272,44.6985114000272,44.6985114000272,44.6985114000272,44.6985114000272,44.6985114000272,44.6985114000272,0.060979199944995344,None,0,,D:\GitHub\experiment1\data/837976_REPSWITCH1_v2022.2.4_2023-07-17_10h34.27.142_micResp_recorded\recording_micResp_2023-07-17_10h35.04.142.wav,None,,,,,,,,,837976,001,2023-07-17_10h34.27.142,REPSWITCH1_v2022.2.4,2022.2.4,60.044156459386414,
REPSWITCH1/PICTURE_142.png,vaso,speak,gold,nontarget,2,NT,1,Stim2_Set1,4,3,0,3,3,3,,53.133233699947596,,,,,,,,,,,,,,,,,,,,,,48.41966599994339,49.93061050004326,49.93061050004326,49.93061050004326,49.93061050004326,49.93061050004326,49.93061050004326,49.93061050004326,0.2809030000353232,None,0,,D:\GitHub\experiment1\data/837976_REPSWITCH1_v2022.2.4_2023-07-17_10h34.27.142_micResp_recorded\recording_micResp_2023-07-17_10h35.09.167.wav,None,,,,,,,,,837976,001,2023-07-17_10h34.27.142,REPSWITCH1_v2022.2.4,2022.2.4,60.044156459386414,
REPSWITCH1/PICTURE_142.png,vaso,speak,gold,repeat,2,T,1,Stim2_Set1,5,4,0,4,4,4,,58.04413679998834,,,,,,,,,,,,,,,,,,,,,,53.64735580002889,54.77967990003526,54.77967990003526,54.77967990003526,54.77967990003526,54.77967990003526,54.77967990003526,54.77967990003526,0.0036320999497547746,None,0,,D:\GitHub\experiment1\data/837976_REPSWITCH1_v2022.2.4_2023-07-17_10h34.27.142_micResp_recorded\recording_micResp_2023-07-17_10h35.14.388.wav,None,,,,,,,,,837976,001,2023-07-17_10h34.27.142,REPSWITCH1_v2022.2.4,2022.2.4,60.044156459386414,
REPSWITCH1/PICTURE_719.png,baño,type,darkblue,filler,1,F,1,Stim2_Set4,6,5,0,5,5,5,,62.81262510002125,,,,,,,,,,,,,,,,,,,,,,58.55057079996914,59.93091929994989,59.93091929994989,59.93091929994989,59.93091929994989,59.93091929994989,59.93091929994989,59.93091929994989,0.29005599999800324,None,0,,D:\GitHub\experiment1\data/837976_REPSWITCH1_v2022.2.4_2023-07-17_10h34.27.142_micResp_recorded\recording_micResp_2023-07-17_10h35.19.131.wav,None,,,,,,,,,837976,001,2023-07-17_10h34.27.142,REPSWITCH1_v2022.2.4,2022.2.4,60.044156459386414,
REPSWITCH1/PICTURE_135.png,traje,speak,gold,nontarget,2,NT,1,Stim3_Set1,7,6,0,6,6,6,,67.7611422999762,,,,,,,,,,,,,,,,,,,,,,63.33785909996368,64.66397200000938,64.66397200000938,64.66397200000938,64.66397200000938,64.66397200000938,64.66397200000938,64.66397200000938,0.13273760001175106,None,0,,D:\GitHub\experiment1\data/837976_REPSWITCH1_v2022.2.4_2023-07-17_10h34.27.142_micResp_recorded\recording_micResp_2023-07-17_10h35.24.014.wav,None,,,,,,,,,837976,001,2023-07-17_10h34.27.142,REPSWITCH1_v2022.2.4,2022.2.4,60.044156459386414,
REPSWITCH1/PICTURE_135.png,traje,type,darkblue,switch,1,T,1,Stim3_Set1,8,7,0,7,7,7,,72.59314010001253,,,,,,,,,,,,,,,,,,,,,,68.27686650003307,69.42930019996129,69.42930019996129,69.42930019996129,69.42930019996129,69.42930019996129,69.42930019996129,69.42930019996129,0.0034494000719860196,"['t', 'r', 'a', 'j', 'e']",0,traje,D:\GitHub\experiment1\data/837976_REPSWITCH1_v2022.2.4_2023-07-17_10h34.27.142_micResp_recorded\recording_micResp_2023-07-17_10h35.28.919.wav,None,72.59314010001253,72.59314010001253,72.59314010001253,72.59314010001253,72.59314010001253,72.59314010001253,"[0.9118968000402674, 1.0171784000704065, 1.2153626000508666, 1.3048038000706583, 1.4122032000450417]",73.09973829996306,837976,001,2023-07-17_10h34.27.142,REPSWITCH1_v2022.2.4,2022.2.4,60.044156459386414,
REPSWITCH1/PICTURE_128.png,muñeca,type,darkblue,nontarget,1,NT,1,Stim4_Set1,9,8,0,8,8,8,,77.67478869995102,,,,,,,,,,,,,,,,,,,,,,73.09973829996306,74.89417929993942,74.89417929993942,74.89417929993942,74.89417929993942,74.89417929993942,74.89417929993942,74.89417929993942,0.6292188999941573,"['m', 'u', 'n', 'e', 'c']",0,munec,D:\GitHub\experiment1\data/837976_REPSWITCH1_v2022.2.4_2023-07-17_10h34.27.142_micResp_recorded\recording_micResp_2023-07-17_10h35.33.768.wav,None,,,,,,,"[1.4226141000399366, 1.687012100010179, 1.951311600045301, 2.119873500079848, 2.2995193999959156]",,837976,001,2023-07-17_10h34.27.142,REPSWITCH1_v2022.2.4,2022.2.4,60.044156459386414,
REPSWITCH1/PICTURE_128.png,muñeca,speak,gold,switch,2,T,1,Stim4_Set1,10,9,0,9,9,9,,82.59091659996193,,,,,,,,,,,,,,,,,,,,,,78.17963749996852,79.40894009999465,79.40894009999465,79.40894009999465,79.40894009999465,79.40894009999465,79.40894009999465,79.40894009999465,0.0036808999720960855,None,0,,D:\GitHub\experiment1\data/837976_REPSWITCH1_v2022.2.4_2023-07-17_10h34.27.142_micResp_recorded\recording_micResp_2023-07-17_10h35.38.899.wav,None,82.59091659996193,82.59091659996193,82.59091659996193,82.59091659996193,82.59091659996193,82.59091659996193,,83.09553159994539,837976,001,2023-07-17_10h34.27.142,REPSWITCH1_v2022.2.4,2022.2.4,60.044156459386414,
REPSWITCH1/PICTURE_8.png,pierna,speak,gold,filler,2,F,1,Stim3_Set4,11,10,0,10,10,10,,87.62273409997579,,,,,,,,,,,,,,,,,,,,,,83.09553159994539,84.713326600031,84.713326600031,84.713326600031,84.713326600031,84.713326600031,84.713326600031,84.713326600031,0.2442871000384912,None,0,,D:\GitHub\experiment1\data/837976_REPSWITCH1_v2022.2.4_2023-07-17_10h34.27.142_micResp_recorded\recording_micResp_2023-07-17_10h35.43.972.wav,None,,,,,,,,,837976,001,2023-07-17_10h34.27.142,REPSWITCH1_v2022.2.4,2022.2.4,60.044156459386414,
REPSWITCH1/PICTURE_19.png,pavo,speak,gold,nontarget,2,NT,1,Stim5_Set1,12,11,0,11,11,11,,92.46895300003234,,,,,,,,,,,,,,,,,,,,,,88.12674420000985,89.3415771999862,89.3415771999862,89.3415771999862,89.3415771999862,89.3415771999862,89.3415771999862,89.3415771999862,0.04329010006040335,None,0,,D:\GitHub\experiment1\data/837976_REPSWITCH1_v2022.2.4_2023-07-17_10h34.27.142_micResp_recorded\recording_micResp_2023-07-17_10h35.48.803.wav,None,,,,,,,,,837976,001,2023-07-17_10h34.27.142,REPSWITCH1_v2022.2.4,2022.2.4,60.044156459386414,
REPSWITCH1/PICTURE_19.png,pavo,type,darkblue,switch,1,T,1,Stim5_Set1,13,12,0,12,12,12,,97.2680441000266,,,,,,,,,,,,,,,,,,,,,,92.97317020001356,94.11982419993728,94.11982419993728,94.11982419993728,94.11982419993728,94.11982419993728,94.11982419993728,94.11982419993728,0.0031778999837115407,None,0,,D:\GitHub\experiment1\data/837976_REPSWITCH1_v2022.2.4_2023-07-17_10h34.27.142_micResp_recorded\recording_micResp_2023-07-17_10h35.53.618.wav,None,97.2680441000266,97.2680441000266,97.2680441000266,97.2680441000266,97.2680441000266,97.2680441000266,,,837976,001,2023-07-17_10h34.27.142,REPSWITCH1_v2022.2.4,2022.2.4,60.044156459386414,
REPSWITCH1/PICTURE_498.png,taza,speak,gold,filler,2,F,1,Stim4_Set4,14,13,0,13,13,13,,101.9861980000278,,,,,,,,,,,,,,,,,,,,,,97.77422360004857,99.03802660002839,99.03802660002839,99.03802660002839,99.03802660002839,99.03802660002839,99.03802660002839,99.03802660002839,0.18374540004879236,None,0,,D:\GitHub\experiment1\data/837976_REPSWITCH1_v2022.2.4_2023-07-17_10h34.27.142_micResp_recorded\recording_micResp_2023-07-17_10h35.58.368.wav,None,,,,,,,,,837976,001,2023-07-17_10h34.27.142,REPSWITCH1_v2022.2.4,2022.2.4,60.044156459386414,
REPSWITCH1/PICTURE_16.png,cazador,type,darkblue,nontarget,1,NT,1,Stim6_Set1,15,14,0,14,14,14,,106.95184610004071,,,,,,,,,,,,,,,,,,,,,,102.4902636000188,103.8202001999598,103.8202001999598,103.8202001999598,103.8202001999598,103.8202001999598,103.8202001999598,103.8202001999598,0.014375100028701127,"['c', 'a', 'z', 'a', 'd', 'o', 'r']",0,cazador,D:\GitHub\experiment1\data/837976_REPSWITCH1_v2022.2.4_2023-07-17_10h34.27.142_micResp_recorded\recording_micResp_2023-07-17_10h36.03.298.wav,None,,,,,,,"[1.027472500107251, 1.1051761000417173, 1.3517114000860602, 1.5634551000548527, 1.6842345000477508, 1.7993502001045272, 1.9169274000450969]",107.45653379999567,837976,001,2023-07-17_10h34.27.142,REPSWITCH1_v2022.2.4,2022.2.4,60.044156459386414,
REPSWITCH1/PICTURE_16.png,cazador,type,darkblue,repeat,1,T,1,Stim6_Set1,16,15,0,15,15,15,,111.85051290004048,,,,,,,,,,,,,,,,,,,,,,107.45653379999567,108.48614359996282,108.48614359996282,108.48614359996282,108.48614359996282,108.48614359996282,108.48614359996282,108.48614359996282,0.003652899991720915,"['c', 'a', 'z', 'a', 'd', 'o', 'r']",0,cazador,D:\GitHub\experiment1\data/837976_REPSWITCH1_v2022.2.4_2023-07-17_10h34.27.142_micResp_recorded\recording_micResp_2023-07-17_10h36.07.984.wav,None,111.85051290004048,111.85051290004048,111.85051290004048,111.85051290004048,111.85051290004048,111.85051290004048,"[1.0819962000241503, 1.1414573000511155, 1.6355748999631032, 1.735071900067851, 1.9533970999764279, 2.019544600043446, 2.1219528999645263]",,837976,001,2023-07-17_10h34.27.142,REPSWITCH1_v2022.2.4,2022.2.4,60.044156459386414,
REPSWITCH1/PICTURE_687.png,camisa,speak,gold,filler,2,F,1,Stim5_Set4,17,16,0,16,16,16,,117.0320905999979,,,,,,,,,,,,,,,,,,,,,,112.35439360002056,113.80073270003777,113.80073270003777,113.80073270003777,113.80073270003777,113.80073270003777,113.80073270003777,113.80073270003777,0.12126689997967333,None,0,,D:\GitHub\experiment1\data/837976_REPSWITCH1_v2022.2.4_2023-07-17_10h34.27.142_micResp_recorded\recording_micResp_2023-07-17_10h36.13.164.wav,None,,,,,,,,,837976,001,2023-07-17_10h34.27.142,REPSWITCH1_v2022.2.4,2022.2.4,60.044156459386414,
REPSWITCH1/PICTURE_142.png,vaso,type,darkblue,nontarget,1,NT,1,Stim7_Set1,18,17,0,17,17,17,,122.88117069995496,,,,,,,,,,,,,,,,,,,,,,117.53640300000552,118.73301860003266,118.73301860003266,118.73301860003266,118.73301860003266,118.73301860003266,118.73301860003266,118.73301860003266,0.003950400045141578,"['v', 'a', 's', 'o']",0,vaso,D:\GitHub\experiment1\data/837976_REPSWITCH1_v2022.2.4_2023-07-17_10h34.27.142_micResp_recorded\recording_micResp_2023-07-17_10h36.18.230.wav,None,122.88117069995496,122.88117069995496,122.88117069995496,122.88117069995496,122.88117069995496,122.88117069995496,"[0.8011588999070227, 0.9008916999446228, 1.1390077999094501, 1.2848667999496683]",,837976,001,2023-07-17_10h34.27.142,REPSWITCH1_v2022.2.4,2022.2.4,60.044156459386414,
,,,,,,,,,,,,,,,,,,,,,,,,,,,,,,,,,,,,,,123.40959599998314,124.54906210000627,124.54906210000627,124.54906210000627,124.54906210000627,124.54906210000627,124.54906210000627,124.54906210000627,0.0032985000871121883,,,,,,,,,,,,,,,,,,,,
