image,correctAns,respModal,frameColour,repSwitch,sequence,target,set,stimulus,trialsREPSWITCH.thisRepN,trialsREPSWITCH.thisTrialN,trialsREPSWITCH.thisN,trialsREPSWITCH.thisIndex,textWelcome.started,textBlank500.started,textInstrMain.started,keyInstrMain.started,keyInstrMain.keys,keyInstrMain.rt,textBlank500.stopped,fixationITI.started,fixationITI.stopped,polygonColour.started,polygonWhite.started,imageObject.started,polygonType.started,textInput.started,keyResp.started,micResp.started,micResp.stopped,keyResp.keys,keyResp.corr,subjResponse,micResp.clip,keyPause.keys,keyResp.rt,textPause.started,keyPause.started,keyPause.rt,participant,session,date,expName,psychopyVersion,frameRate,
,,,,,,,,,,,,,58.195517499989364,60.16031559999101,60.65198960000998,60.65198960000998,space,1.703884199989261,,,,,,,,,,,,,,,,,,,,,9,001,2023-06-21_10h45.17.402,REPSWITCH_1,2022.2.5,60.383775119087794,
REPSWITCH1/PICTURE_128.png,muñeca,speak,yellow,nontarget,2,NT,1,Stim1_Set1,0,0,0,0,,67.56455680000363,,,,,63.365116200002376,63.365116200002376,64.79830789999687,64.79830789999687,64.79830789999687,64.79830789999687,64.79830789999687,64.79830789999687,64.79830789999687,0.0763775999948848,2.266071499994723,None,0,,D:\GitHub\experiment1\data/9_REPSWITCH_1_2023-06-21_10h45.17.402_micResp_recorded\recording_micResp_2023-06-21_10h45.42.703.wav,None,,,,,9,001,2023-06-21_10h45.17.402,REPSWITCH_1,2022.2.5,60.383775119087794,
REPSWITCH1/PICTURE_128.png,muñeca,speak,yellow,repeat,2,T,1,Stim1_Set1,0,1,1,1,,72.13047989999177,,,,,,68.04946400001063,69.1150856000022,69.1150856000022,69.1150856000022,69.1150856000022,69.1150856000022,69.1150856000022,69.1150856000022,0.010118399979546666,2.0154081999789923,None,0,,D:\GitHub\experiment1\data/9_REPSWITCH_1_2023-06-21_10h45.17.402_micResp_recorded\recording_micResp_2023-06-21_10h45.47.248.wav,None,,,,,9,001,2023-06-21_10h45.17.402,REPSWITCH_1,2022.2.5,60.383775119087794,
REPSWITCH1/PICTURE_135.png,traje,type,indigo,filler,1,F,1,Stim1_Set4,0,2,2,2,,76.84537809999892,,,,,,72.61497039999813,73.94720180000877,73.94720180000877,73.94720180000877,73.94720180000877,73.94720180000877,73.94720180000877,73.94720180000877,0.13732470001559705,2.149252700008219,"['t', 'r', 'a', 'j', 'e']",0,traje,D:\GitHub\experiment1\data/9_REPSWITCH_1_2023-06-21_10h45.17.402_micResp_recorded\recording_micResp_2023-06-21_10h45.51.964.wav,None,"[0.361691800004337, 0.4337291000119876, 0.627465099998517, 0.7409929000132252, 0.8504896000085864]",,,,9,001,2023-06-21_10h45.17.402,REPSWITCH_1,2022.2.5,60.383775119087794,
REPSWITCH1/PICTURE_142.png,vaso,speak,yellow,nontarget,2,NT,1,Stim2_Set1,0,3,3,3,,81.56117749999976,,,,,,77.31382450001547,78.56291659999988,78.56291659999988,78.56291659999988,78.56291659999988,78.56291659999988,78.56291659999988,78.56291659999988,0.029594199993880466,2.0489989000197966,None,0,,D:\GitHub\experiment1\data/9_REPSWITCH_1_2023-06-21_10h45.17.402_micResp_recorded\recording_micResp_2023-06-21_10h45.56.679.wav,None,,,,,9,001,2023-06-21_10h45.17.402,REPSWITCH_1,2022.2.5,60.383775119087794,
REPSWITCH1/PICTURE_142.png,vaso,speak,yellow,repeat,2,T,1,Stim2_Set1,0,4,4,4,,86.15999980000197,,,,,,82.02962330001174,83.14529640000546,83.14529640000546,83.14529640000546,83.14529640000546,83.14529640000546,83.14529640000546,83.14529640000546,0.00865399997564964,2.0160704999871086,None,0,,D:\GitHub\experiment1\data/9_REPSWITCH_1_2023-06-21_10h45.17.402_micResp_recorded\recording_micResp_2023-06-21_10h46.01.279.wav,None,,,,,9,001,2023-06-21_10h45.17.402,REPSWITCH_1,2022.2.5,60.383775119087794,
REPSWITCH1/PICTURE_464.png,goma,type,indigo,filler,1,F,1,Stim2_Set4,0,5,5,5,,90.77520790000563,,,,,,86.64633899999899,87.79404060001252,87.79404060001252,87.79404060001252,87.79404060001252,87.79404060001252,87.79404060001252,87.79404060001252,0.05219940000097267,2.0652225999801885,"['g', 'o', 'm', 'a']",0,goma,D:\GitHub\experiment1\data/9_REPSWITCH_1_2023-06-21_10h45.17.402_micResp_recorded\recording_micResp_2023-06-21_10h46.05.895.wav,None,"[0.5039034000074025, 0.7793150000215974, 0.9369563999935053, 1.0532409000152256]",,,,9,001,2023-06-21_10h45.17.402,REPSWITCH_1,2022.2.5,60.383775119087794,
REPSWITCH1/PICTURE_152.png,caracol,speak,yellow,nontarget,2,NT,1,Stim3_Set1,0,6,6,6,,95.52417920000153,,,,,,91.24369969998952,92.55972560000373,92.55972560000373,92.55972560000373,92.55972560000373,92.55972560000373,92.55972560000373,92.55972560000373,0.06971069998689927,2.0822735999827273,None,0,,D:\GitHub\experiment1\data/9_REPSWITCH_1_2023-06-21_10h45.17.402_micResp_recorded\recording_micResp_2023-06-21_10h46.10.642.wav,None,,,,,9,001,2023-06-21_10h45.17.402,REPSWITCH_1,2022.2.5,60.383775119087794,
REPSWITCH1/PICTURE_152.png,caracol,type,indigo,switch,1,T,1,Stim3_Set1,0,7,7,7,,100.17300189999514,,,,,,95.99251899999217,97.17523829999845,97.17523829999845,97.17523829999845,97.17523829999845,97.17523829999845,97.17523829999845,97.17523829999845,0.011343999998643994,2.0330413000192493,"['c', 'a', 'r', 'a', 'c', 'o', 'l']",0,caracol,D:\GitHub\experiment1\data/9_REPSWITCH_1_2023-06-21_10h45.17.402_micResp_recorded\recording_micResp_2023-06-21_10h46.15.292.wav,None,"[0.37116579999565147, 0.48581679997732863, 0.6682586999959312, 0.7639213999791536, 1.081868699984625, 1.261995199980447, 1.5054737000027671]",,,,9,001,2023-06-21_10h45.17.402,REPSWITCH_1,2022.2.5,60.383775119087794,
REPSWITCH1/PICTURE_19.png,pavo,type,indigo,nontarget,1,NT,1,Stim4_Set1,0,8,8,8,,104.78862279999885,,,,,,100.65859780000756,101.87444370001322,101.87444370001322,101.87444370001322,101.87444370001322,101.87444370001322,101.87444370001322,101.87444370001322,0.1325879999785684,2.148281500005396,"['p', 'a', 'v', 'o']",0,pavo,D:\GitHub\experiment1\data/9_REPSWITCH_1_2023-06-21_10h45.17.402_micResp_recorded\recording_micResp_2023-06-21_10h46.19.905.wav,None,"[0.41722619999200106, 0.5963020999915898, 0.8028449999983422, 1.171084499976132]",,,,9,001,2023-06-21_10h45.17.402,REPSWITCH_1,2022.2.5,60.383775119087794,
REPSWITCH1/PICTURE_19.png,pavo,speak,yellow,switch,2,T,1,Stim4_Set1,0,9,9,9,,109.47153710000566,,,,,,105.2401332000154,106.45601819999865,106.45601819999865,106.45601819999865,106.45601819999865,106.45601819999865,106.45601819999865,106.45601819999865,0.011618099990300834,2.0146256999869365,None,0,,D:\GitHub\experiment1\data/9_REPSWITCH_1_2023-06-21_10h45.17.402_micResp_recorded\recording_micResp_2023-06-21_10h46.24.605.wav,None,,,,,9,001,2023-06-21_10h45.17.402,REPSWITCH_1,2022.2.5,60.383775119087794,
REPSWITCH1/PICTURE_381.png,fresa,speak,yellow,filler,2,F,1,Stim3_Set4,0,10,10,10,,114.30311850001453,,,,,,109.95583590000751,111.4053411000059,111.4053411000059,111.4053411000059,111.4053411000059,111.4053411000059,111.4053411000059,111.4053411000059,0.12797960001626052,2.1331807000096887,None,0,,D:\GitHub\experiment1\data/9_REPSWITCH_1_2023-06-21_10h45.17.402_micResp_recorded\recording_micResp_2023-06-21_10h46.29.421.wav,None,,,,,9,001,2023-06-21_10h45.17.402,REPSWITCH_1,2022.2.5,60.383775119087794,
REPSWITCH1/PICTURE_199.png,falda,speak,yellow,nontarget,2,NT,1,Stim5_Set1,0,11,11,11,,118.88482830001158,,,,,,114.7872306999925,116.00235110000358,116.00235110000358,116.00235110000358,116.00235110000358,116.00235110000358,116.00235110000358,116.00235110000358,0.12952869999571703,2.132700799993472,None,0,,D:\GitHub\experiment1\data/9_REPSWITCH_1_2023-06-21_10h45.17.402_micResp_recorded\recording_micResp_2023-06-21_10h46.34.019.wav,None,,,,,9,001,2023-06-21_10h45.17.402,REPSWITCH_1,2022.2.5,60.383775119087794,
REPSWITCH1/PICTURE_199.png,falda,type,indigo,switch,1,T,1,Stim5_Set1,0,12,12,12,,123.68393279999145,,,,,,119.38659529999131,120.65297339999233,120.65297339999233,120.65297339999233,120.65297339999233,120.65297339999233,120.65297339999233,120.65297339999233,0.008260900009190664,2.0158487999869976,"['f', 'a', 'l', 's', 'backspace', 'd', 'a']",0,falda,D:\GitHub\experiment1\data/9_REPSWITCH_1_2023-06-21_10h45.17.402_micResp_recorded\recording_micResp_2023-06-21_10h46.38.803.wav,None,"[0.3107875999994576, 0.41562539999722503, 0.5346946999779902, 0.6820484999916516, 1.388452099985443, 1.5394568999763578, 1.6571279999916442]",,,,9,001,2023-06-21_10h45.17.402,REPSWITCH_1,2022.2.5,60.383775119087794,
REPSWITCH1/PICTURE_546.png,puerta,speak,yellow,filler,2,F,1,Stim4_Set4,0,13,13,13,,128.31616170000052,,,,,,124.15250409999862,125.46860540000489,125.46860540000489,125.46860540000489,125.46860540000489,125.46860540000489,125.46860540000489,125.46860540000489,0.15171429998008534,2.1714567999879364,None,0,,D:\GitHub\experiment1\data/9_REPSWITCH_1_2023-06-21_10h45.17.402_micResp_recorded\recording_micResp_2023-06-21_10h46.43.450.wav,None,,,,,9,001,2023-06-21_10h45.17.402,REPSWITCH_1,2022.2.5,60.383775119087794,
REPSWITCH1/PICTURE_235.png,aguja,type,indigo,nontarget,1,NT,1,Stim6_Set1,0,14,14,14,,133.14870670001255,,,,,,128.80114279998816,130.250644499989,130.250644499989,130.250644499989,130.250644499989,130.250644499989,130.250644499989,130.250644499989,0.12369720000424422,2.132461200002581,"['a', 'g', 'i', 'j', 'a']",0,agija,D:\GitHub\experiment1\data/9_REPSWITCH_1_2023-06-21_10h45.17.402_micResp_recorded\recording_micResp_2023-06-21_10h46.48.281.wav,None,"[0.7258656999911182, 1.1005196999758482, 1.1863073999993503, 1.3219507999892812, 1.4283801999990828]",,,,9,001,2023-06-21_10h45.17.402,REPSWITCH_1,2022.2.5,60.383775119087794,
REPSWITCH1/PICTURE_235.png,aguja,type,indigo,repeat,1,T,1,Stim6_Set1,0,15,15,15,,137.8305873000063,,,,,,133.63354489998892,134.8165488000086,134.8165488000086,134.8165488000086,134.8165488000086,134.8165488000086,134.8165488000086,134.8165488000086,0.012487699976190925,2.0312315999763086,"['a', 'g', 'i', 'j', 'a']",0,agija,D:\GitHub\experiment1\data/9_REPSWITCH_1_2023-06-21_10h45.17.402_micResp_recorded\recording_micResp_2023-06-21_10h46.52.947.wav,None,"[0.37187810000614263, 0.5072880000225268, 0.8084807000122964, 1.4886803000117652, 1.6138845999957994]",,,,9,001,2023-06-21_10h45.17.402,REPSWITCH_1,2022.2.5,60.383775119087794,
REPSWITCH1/PICTURE_636.png,oveja,speak,yellow,filler,2,F,1,Stim5_Set4,0,16,16,16,,142.5128498999984,,,,,,138.29914290001034,139.56472339999164,139.56472339999164,139.56472339999164,139.56472339999164,139.56472339999164,139.56472339999164,139.56472339999164,0.06718879999243654,2.0827681999944616,None,0,,D:\GitHub\experiment1\data/9_REPSWITCH_1_2023-06-21_10h45.17.402_micResp_recorded\recording_micResp_2023-06-21_10h46.57.632.wav,None,,,,,9,001,2023-06-21_10h45.17.402,REPSWITCH_1,2022.2.5,60.383775119087794,
REPSWITCH1/PICTURE_264.png,mano,type,indigo,nontarget,1,NT,1,Stim7_Set1,0,17,17,17,,147.21178189999773,,,,,,142.99901410000166,144.31399090000195,144.31399090000195,144.31399090000195,144.31399090000195,144.31399090000195,144.31399090000195,144.31399090000195,0.1433600999880582,2.1492988000100013,None,0,,D:\GitHub\experiment1\data/9_REPSWITCH_1_2023-06-21_10h45.17.402_micResp_recorded\recording_micResp_2023-06-21_10h47.02.329.wav,None,,,,,9,001,2023-06-21_10h45.17.402,REPSWITCH_1,2022.2.5,60.383775119087794,
REPSWITCH1/PICTURE_264.png,mano,type,indigo,repeat,1,T,1,Stim7_Set1,0,18,18,18,,152.0273470999964,,,,,,147.68015850000666,149.01300040000933,149.01300040000933,149.01300040000933,149.01300040000933,149.01300040000933,149.01300040000933,149.01300040000933,0.010152700007893145,2.0156648000120185,"['m', 'a', 'n', 'o']",0,mano,D:\GitHub\experiment1\data/9_REPSWITCH_1_2023-06-21_10h45.17.402_micResp_recorded\recording_micResp_2023-06-21_10h47.07.161.wav,None,"[0.3714576000056695, 0.46255170000949875, 0.570934599993052, 0.7053535000013653]",,,,9,001,2023-06-21_10h45.17.402,REPSWITCH_1,2022.2.5,60.383775119087794,
REPSWITCH1/PICTURE_545.png,braga,speak,yellow,filler,2,F,1,Stim6_Set4,0,19,19,19,,156.643018200004,,,,,,152.51251289999345,153.72828800001298,153.72828800001298,153.72828800001298,153.72828800001298,153.72828800001298,153.72828800001298,153.72828800001298,0.1280426999728661,2.1325699999870267,"['b', 'r', 'a', 'g', 'a']",0,braga,D:\GitHub\experiment1\data/9_REPSWITCH_1_2023-06-21_10h45.17.402_micResp_recorded\recording_micResp_2023-06-21_10h47.11.761.wav,None,"[1.3564163999981247, 1.4771177000075113, 1.8092217999801505, 2.086402699991595, 2.1811903000052553]",,,,9,001,2023-06-21_10h45.17.402,REPSWITCH_1,2022.2.5,60.383775119087794,
REPSWITCH1/PICTURE_271.png,conejo,type,indigo,nontarget,1,NT,1,Stim8_Set1,0,20,20,20,,161.34156190001522,,,,,,157.1116183999984,158.44375140001648,158.44375140001648,158.44375140001648,158.44375140001648,158.44375140001648,158.44375140001648,158.44375140001648,0.1385710000176914,2.1488251000118908,"['c', 'o', 'n', 'e', 'j', 'o']",0,conejo,D:\GitHub\experiment1\data/9_REPSWITCH_1_2023-06-21_10h45.17.402_micResp_recorded\recording_micResp_2023-06-21_10h47.16.460.wav,None,"[0.9145813999930397, 1.1487485999823548, 1.3442830999847502, 1.5136060999939218, 1.6188601999892853, 1.7256940999941435]",,,,9,001,2023-06-21_10h45.17.402,REPSWITCH_1,2022.2.5,60.383775119087794,
REPSWITCH1/PICTURE_271.png,conejo,speak,yellow,switch,2,T,1,Stim8_Set1,0,21,21,21,,165.99089600000298,,,,,,161.8101786999905,162.99238859998877,162.99238859998877,162.99238859998877,162.99238859998877,162.99238859998877,162.99238859998877,162.99238859998877,0.017549100011819974,2.030647500010673,None,0,,D:\GitHub\experiment1\data/9_REPSWITCH_1_2023-06-21_10h45.17.402_micResp_recorded\recording_micResp_2023-06-21_10h47.21.125.wav,None,,,,,9,001,2023-06-21_10h45.17.402,REPSWITCH_1,2022.2.5,60.383775119087794,
REPSWITCH1/PICTURE_8.png,pierna,type,indigo,filler,1,F,1,Stim7_Set4,0,22,22,22,,170.5727649999899,,,,,,166.4756355000136,167.6749400999979,167.6749400999979,167.6749400999979,167.6749400999979,167.6749400999979,167.6749400999979,167.6749400999979,0.13904060001368634,2.1490381000039633,"['p', 'i', 'e', 'r', 'n', 'a']",0,pierna,D:\GitHub\experiment1\data/9_REPSWITCH_1_2023-06-21_10h45.17.402_micResp_recorded\recording_micResp_2023-06-21_10h47.25.691.wav,None,"[0.49871439998969436, 0.6676435999979731, 1.1612965999811422, 1.385779200005345, 1.5134452999918722, 1.6222252000006847]",,,,9,001,2023-06-21_10h45.17.402,REPSWITCH_1,2022.2.5,60.383775119087794,
REPSWITCH1/PICTURE_91.png,boca,type,indigo,filler,1,F,1,Stim8_Set4,0,23,23,23,,175.42174700001488,,,,,,171.04123249999247,172.52396809999482,172.52396809999482,172.52396809999482,172.52396809999482,172.52396809999482,172.52396809999482,172.52396809999482,0.12145550001878291,2.1322606000176165,"['b', 'o', 'v', 'a', 'backspace', 'backspace', 'c', 'a']",0,boca,D:\GitHub\experiment1\data/9_REPSWITCH_1_2023-06-21_10h45.17.402_micResp_recorded\recording_micResp_2023-06-21_10h47.30.556.wav,None,"[0.369041699974332, 0.4419399999896996, 0.577339999988908, 0.7397478999919258, 1.261084199999459, 1.4354919999896083, 1.5686500999727286, 1.6588004999794066]",,,,9,001,2023-06-21_10h45.17.402,REPSWITCH_1,2022.2.5,60.383775119087794,
REPSWITCH1/PICTURE_128.png,muñeca,speak,yellow,filler,2,F,2,Stim1_Set1,0,24,24,24,,180.12597680001636,,,,,,175.90693420000025,177.1057667999994,177.1057667999994,177.1057667999994,177.1057667999994,177.1057667999994,177.1057667999994,177.1057667999994,0.010277000023052096,2.033446300018113,None,0,,D:\GitHub\experiment1\data/9_REPSWITCH_1_2023-06-21_10h45.17.402_micResp_recorded\recording_micResp_2023-06-21_10h47.35.240.wav,None,,,,,9,001,2023-06-21_10h45.17.402,REPSWITCH_1,2022.2.5,60.383775119087794,
REPSWITCH1/PICTURE_16.png,cazador,type,indigo,nontarget,1,NT,2,Stim1_Set2,0,25,25,25,,184.81962980001117,,,,,,180.58954380001524,181.92133330000797,181.92133330000797,181.92133330000797,181.92133330000797,181.92133330000797,181.92133330000797,181.92133330000797,0.12778120001894422,2.1322928000008687,None,0,,D:\GitHub\experiment1\data/9_REPSWITCH_1_2023-06-21_10h45.17.402_micResp_recorded\recording_micResp_2023-06-21_10h47.39.938.wav,None,,,,,9,001,2023-06-21_10h45.17.402,REPSWITCH_1,2022.2.5,60.383775119087794,
REPSWITCH1/PICTURE_16.png,cazador,type,indigo,repeat,1,T,2,Stim1_Set2,0,26,26,26,,189.51836290000938,,,,,,185.304146999988,186.50340519999736,186.50340519999736,186.50340519999736,186.50340519999736,186.50340519999736,186.50340519999736,186.50340519999736,0.01004090000060387,2.0175849000224844,"['c', 'a', 'z', 'a', 'd', 'o', 'r']",0,cazador,D:\GitHub\experiment1\data/9_REPSWITCH_1_2023-06-21_10h45.17.402_micResp_recorded\recording_micResp_2023-06-21_10h47.44.637.wav,None,"[0.2942811000102665, 0.3956146000127774, 0.6473074000095949, 0.8984349000093061, 1.5999156000034418, 1.7351991000177804, 1.8384036000061315]",,,,9,001,2023-06-21_10h45.17.402,REPSWITCH_1,2022.2.5,60.383775119087794,
REPSWITCH1/PICTURE_142.png,vaso,speak,yellow,filler,2,F,2,Stim2_Set1,0,27,27,27,,194.28433080000104,,,,,,190.00387819999014,191.26915860001463,191.26915860001463,191.26915860001463,191.26915860001463,191.26915860001463,191.26915860001463,191.26915860001463,0.009403799980646,2.03203279999434,None,0,,D:\GitHub\experiment1\data/9_REPSWITCH_1_2023-06-21_10h45.17.402_micResp_recorded\recording_micResp_2023-06-21_10h47.49.402.wav,None,,,,,9,001,2023-06-21_10h45.17.402,REPSWITCH_1,2022.2.5,60.383775119087794,
REPSWITCH1/PICTURE_175.png,pintor,type,indigo,nontarget,1,NT,2,Stim2_Set2,0,28,28,28,,198.9658044000098,,,,,,194.7521795000066,196.0684501999931,196.0684501999931,196.0684501999931,196.0684501999931,196.0684501999931,196.0684501999931,196.0684501999931,0.1354554999852553,2.1492320999968797,"['p', 'i', 't', 'n', 'o', 'r']",0,pitnor,D:\GitHub\experiment1\data/9_REPSWITCH_1_2023-06-21_10h45.17.402_micResp_recorded\recording_micResp_2023-06-21_10h47.54.084.wav,None,"[0.4399320999800693, 0.6443559000035748, 0.825961800001096, 0.888205499999458, 1.063112000003457, 1.1912375999963842]",,,,9,001,2023-06-21_10h45.17.402,REPSWITCH_1,2022.2.5,60.383775119087794,
REPSWITCH1/PICTURE_175.png,pintor,type,indigo,repeat,1,T,2,Stim2_Set2,0,29,29,29,,203.5983186000085,,,,,,199.43458679999458,200.58380180000677,200.58380180000677,200.58380180000677,200.58380180000677,200.58380180000677,200.58380180000677,200.58380180000677,0.010648800001945347,2.0331673999899067,"['p', 'i', 'n', 't', 'o', 'r']",0,pintor,D:\GitHub\experiment1\data/9_REPSWITCH_1_2023-06-21_10h45.17.402_micResp_recorded\recording_micResp_2023-06-21_10h47.58.717.wav,None,"[0.3917399999918416, 0.5753392999758944, 0.7977162999741267, 0.9024509999726433, 1.0117030999972485, 1.1250850999786053]",,,,9,001,2023-06-21_10h45.17.402,REPSWITCH_1,2022.2.5,60.383775119087794,
REPSWITCH1/PICTURE_30.png,granja,type,indigo,nontarget,1,NT,2,Stim3_Set2,0,30,30,30,,208.19683940001414,,,,,,204.06777510000393,205.29919769999105,205.29919769999105,205.29919769999105,205.29919769999105,205.29919769999105,205.29919769999105,205.29919769999105,0.13872430002084002,2.163931400020374,"['g', 'r', 'a', 'n', 'j', 'a']",0,granja,D:\GitHub\experiment1\data/9_REPSWITCH_1_2023-06-21_10h45.17.402_micResp_recorded\recording_micResp_2023-06-21_10h48.03.316.wav,None,"[0.4013787999865599, 0.49415750001207925, 0.7615532999916468, 1.3231297000020277, 1.4390180000045802, 1.5942310999962501]",,,,9,001,2023-06-21_10h45.17.402,REPSWITCH_1,2022.2.5,60.383775119087794,
REPSWITCH1/PICTURE_30.png,granja,speak,yellow,switch,2,T,2,Stim3_Set2,0,31,31,31,,212.81290479999734,,,,,,208.6658674000064,209.7980719000043,209.7980719000043,209.7980719000043,209.7980719000043,209.7980719000043,209.7980719000043,209.7980719000043,0.016824099991936237,2.032572900003288,None,0,,D:\GitHub\experiment1\data/9_REPSWITCH_1_2023-06-21_10h45.17.402_micResp_recorded\recording_micResp_2023-06-21_10h48.07.931.wav,None,,,,,9,001,2023-06-21_10h45.17.402,REPSWITCH_1,2022.2.5,60.383775119087794,
REPSWITCH1/PICTURE_319.png,vaca,speak,yellow,nontarget,2,NT,2,Stim4_Set2,0,32,32,32,,217.51175530001638,,,,,,213.2815583999909,214.61368889998994,214.61368889998994,214.61368889998994,214.61368889998994,214.61368889998994,214.61368889998994,214.61368889998994,0.12843809998594224,2.130784999986645,None,0,,D:\GitHub\experiment1\data/9_REPSWITCH_1_2023-06-21_10h45.17.402_micResp_recorded\recording_micResp_2023-06-21_10h48.12.646.wav,None,,,,,9,001,2023-06-21_10h45.17.402,REPSWITCH_1,2022.2.5,60.383775119087794,
REPSWITCH1/PICTURE_319.png,vaca,type,indigo,switch,1,T,2,Stim4_Set2,0,33,33,33,,222.20969409999088,,,,,,217.99639590000152,219.19606970000314,219.19606970000314,219.19606970000314,219.19606970000314,219.19606970000314,219.19606970000314,219.19606970000314,0.009529100003419444,2.0152368000126444,"['v', 'a', 'c', 'a']",0,vaca,D:\GitHub\experiment1\data/9_REPSWITCH_1_2023-06-21_10h45.17.402_micResp_recorded\recording_micResp_2023-06-21_10h48.17.343.wav,None,"[0.3977242000109982, 0.5337392000074033, 0.7346476000093389, 0.8645291000138968]",,,,9,001,2023-06-21_10h45.17.402,REPSWITCH_1,2022.2.5,60.383775119087794,
REPSWITCH1/PICTURE_152.png,caracol,speak,yellow,filler,2,F,2,Stim3_Set1,0,34,34,34,,226.87513540001237,,,,,,222.6943903999927,223.87785540000186,223.87785540000186,223.87785540000186,223.87785540000186,223.87785540000186,223.87785540000186,223.87785540000186,0.014731400005985051,2.03182299999753,None,0,,D:\GitHub\experiment1\data/9_REPSWITCH_1_2023-06-21_10h45.17.402_micResp_recorded\recording_micResp_2023-06-21_10h48.22.010.wav,None,,,,,9,001,2023-06-21_10h45.17.402,REPSWITCH_1,2022.2.5,60.383775119087794,
REPSWITCH1/PICTURE_320.png,iglesia,type,indigo,nontarget,1,NT,2,Stim5_Set2,0,35,35,35,,231.44074069999624,,,,,,227.36054970000987,228.54293080000207,228.54293080000207,228.54293080000207,228.54293080000207,228.54293080000207,228.54293080000207,228.54293080000207,0.12778480001725256,2.131742400000803,"['i', 'g', 'e', 'backspace', 'l', 'e', 's', 'i', 'a']",0,iglesia,D:\GitHub\experiment1\data/9_REPSWITCH_1_2023-06-21_10h45.17.402_micResp_recorded\recording_micResp_2023-06-21_10h48.26.575.wav,None,"[0.4611258000077214, 0.5713514000235591, 0.6711087000148837, 1.2142573000164703, 1.4562732000194956, 1.5183428000018466, 1.6890860999992583, 1.7589257000072394, 1.8958299000223633]",,,,9,001,2023-06-21_10h45.17.402,REPSWITCH_1,2022.2.5,60.383775119087794,
REPSWITCH1/PICTURE_320.png,iglesia,speak,yellow,switch,2,T,2,Stim5_Set2,0,36,36,36,,236.09655610000482,,,,,,231.9256047999952,233.02499639999587,233.02499639999587,233.02499639999587,233.02499639999587,233.02499639999587,233.02499639999587,233.02499639999587,0.008329200005391613,2.0168253000010736,None,0,,D:\GitHub\experiment1\data/9_REPSWITCH_1_2023-06-21_10h45.17.402_micResp_recorded\recording_micResp_2023-06-21_10h48.31.205.wav,None,,,,,9,001,2023-06-21_10h45.17.402,REPSWITCH_1,2022.2.5,60.383775119087794,
REPSWITCH1/PICTURE_19.png,pavo,type,indigo,filler,1,F,2,Stim4_Set1,0,37,37,37,,240.7556534000032,,,,,,236.53202600000077,237.74965469999006,237.74965469999006,237.74965469999006,237.74965469999006,237.74965469999006,237.74965469999006,237.74965469999006,0.0074001000029966235,2.026471900026081,None,0,,D:\GitHub\experiment1\data/9_REPSWITCH_1_2023-06-21_10h45.17.402_micResp_recorded\recording_micResp_2023-06-21_10h48.35.890.wav,None,,,,,9,001,2023-06-21_10h45.17.402,REPSWITCH_1,2022.2.5,60.383775119087794,
REPSWITCH1/PICTURE_199.png,falda,type,indigo,filler,1,F,2,Stim5_Set1,0,38,38,38,,245.38793120000628,,,,,,241.2401485000155,242.37239920001593,242.37239920001593,242.37239920001593,242.37239920001593,242.37239920001593,242.37239920001593,242.37239920001593,0.005584900005487725,2.016038000001572,None,0,,D:\GitHub\experiment1\data/9_REPSWITCH_1_2023-06-21_10h45.17.402_micResp_recorded\recording_micResp_2023-06-21_10h48.40.522.wav,None,,,,,9,001,2023-06-21_10h45.17.402,REPSWITCH_1,2022.2.5,60.383775119087794,
REPSWITCH1/PICTURE_517.png,cuerda,speak,yellow,nontarget,2,NT,2,Stim6_Set2,0,39,39,39,,250.21950800000923,,,,,,245.87195719999727,247.222511400003,247.222511400003,247.222511400003,247.222511400003,247.222511400003,247.222511400003,247.222511400003,0.02418440001201816,2.0336716000165325,None,0,,D:\GitHub\experiment1\data/9_REPSWITCH_1_2023-06-21_10h45.17.402_micResp_recorded\recording_micResp_2023-06-21_10h48.45.353.wav,None,,,,,9,001,2023-06-21_10h45.17.402,REPSWITCH_1,2022.2.5,60.383775119087794,
REPSWITCH1/PICTURE_517.png,cuerda,speak,yellow,repeat,2,T,2,Stim6_Set2,0,40,40,40,,254.95181289999164,,,,,,250.70482620000257,251.93708910001442,251.93708910001442,251.93708910001442,251.93708910001442,251.93708910001442,251.93708910001442,251.93708910001442,0.005860600009327754,2.016531400004169,None,0,,D:\GitHub\experiment1\data/9_REPSWITCH_1_2023-06-21_10h45.17.402_micResp_recorded\recording_micResp_2023-06-21_10h48.50.086.wav,None,,,,,9,001,2023-06-21_10h45.17.402,REPSWITCH_1,2022.2.5,60.383775119087794,
REPSWITCH1/PICTURE_235.png,aguja,type,indigo,filler,1,F,2,Stim6_Set1,0,41,41,41,,259.56818880001083,,,,,,255.43644429999404,256.55256989999907,256.55256989999907,256.55256989999907,256.55256989999907,256.55256989999907,256.55256989999907,256.55256989999907,0.004860100016230717,2.017352700000629,None,0,,D:\GitHub\experiment1\data/9_REPSWITCH_1_2023-06-21_10h45.17.402_micResp_recorded\recording_micResp_2023-06-21_10h48.54.685.wav,None,,,,,9,001,2023-06-21_10h45.17.402,REPSWITCH_1,2022.2.5,60.383775119087794,
REPSWITCH1/PICTURE_610.png,miel,speak,yellow,nontarget,2,NT,2,Stim7_Set2,0,42,42,42,,264.2689643999911,,,,,,260.0524002999882,261.2352327000117,261.2352327000117,261.2352327000117,261.2352327000117,261.2352327000117,261.2352327000117,261.2352327000117,0.02993280001101084,2.03322680000565,None,0,,D:\GitHub\experiment1\data/9_REPSWITCH_1_2023-06-21_10h45.17.402_micResp_recorded\recording_micResp_2023-06-21_10h48.59.370.wav,None,,,,,9,001,2023-06-21_10h45.17.402,REPSWITCH_1,2022.2.5,60.383775119087794,
REPSWITCH1/PICTURE_610.png,miel,speak,yellow,repeat,2,T,2,Stim7_Set2,0,43,43,43,,268.89918790000957,,,,,,264.7184638000035,265.884432699997,265.884432699997,265.884432699997,265.884432699997,265.884432699997,265.884432699997,265.884432699997,0.009196700004395097,2.0153424000018276,None,0,,D:\GitHub\experiment1\data/9_REPSWITCH_1_2023-06-21_10h45.17.402_micResp_recorded\recording_micResp_2023-06-21_10h49.04.033.wav,None,,,,,9,001,2023-06-21_10h45.17.402,REPSWITCH_1,2022.2.5,60.383775119087794,
REPSWITCH1/PICTURE_264.png,mano,speak,yellow,filler,2,F,2,Stim7_Set1,0,44,44,44,,273.53173469999456,,,,,,269.3848141999915,270.51684810000006,270.51684810000006,270.51684810000006,270.51684810000006,270.51684810000006,270.51684810000006,270.51684810000006,0.009201399981975555,2.0152482999837957,None,0,,D:\GitHub\experiment1\data/9_REPSWITCH_1_2023-06-21_10h45.17.402_micResp_recorded\recording_micResp_2023-06-21_10h49.08.665.wav,None,,,,,9,001,2023-06-21_10h45.17.402,REPSWITCH_1,2022.2.5,60.383775119087794,
REPSWITCH1/PICTURE_271.png,conejo,type,indigo,filler,1,F,2,Stim8_Set1,0,45,45,45,,278.14704000001075,,,,,,274.0167064999987,275.14870150000206,275.14870150000206,275.14870150000206,275.14870150000206,275.14870150000206,275.14870150000206,275.14870150000206,0.013962500001071021,2.031852899992373,None,0,,D:\GitHub\experiment1\data/9_REPSWITCH_1_2023-06-21_10h45.17.402_micResp_recorded\recording_micResp_2023-06-21_10h49.13.281.wav,None,,,,,9,001,2023-06-21_10h45.17.402,REPSWITCH_1,2022.2.5,60.383775119087794,
REPSWITCH1/PICTURE_35.png,oreja,speak,yellow,nontarget,2,NT,2,Stim8_Set2,0,46,46,46,,282.72910769999726,,,,,,278.6328629000054,279.7310793999932,279.7310793999932,279.7310793999932,279.7310793999932,279.7310793999932,279.7310793999932,279.7310793999932,0.026887300016824156,2.032780100009404,None,0,,D:\GitHub\experiment1\data/9_REPSWITCH_1_2023-06-21_10h45.17.402_micResp_recorded\recording_micResp_2023-06-21_10h49.17.863.wav,None,,,,,9,001,2023-06-21_10h45.17.402,REPSWITCH_1,2022.2.5,60.383775119087794,
REPSWITCH1/PICTURE_35.png,oreja,type,indigo,switch,1,T,2,Stim8_Set2,0,47,47,47,,287.4289110999962,,,,,,283.21409130000393,284.4144750999985,284.4144750999985,284.4144750999985,284.4144750999985,284.4144750999985,284.4144750999985,284.4144750999985,0.007711000012932345,2.0164959999965504,None,0,,D:\GitHub\experiment1\data/9_REPSWITCH_1_2023-06-21_10h45.17.402_micResp_recorded\recording_micResp_2023-06-21_10h49.22.546.wav,None,,,,,9,001,2023-06-21_10h45.17.402,REPSWITCH_1,2022.2.5,60.383775119087794,
REPSWITCH1/PICTURE_178.png,puente,type,indigo,nontarget,1,NT,3,Stim1_Set3,0,48,48,48,,292.06019560000277,,,,,,287.91349060001085,289.1127953999967,289.1127953999967,289.1127953999967,289.1127953999967,289.1127953999967,289.1127953999967,289.1127953999967,0.07067369998549111,2.082920299988473,None,0,,D:\GitHub\experiment1\data/9_REPSWITCH_1_2023-06-21_10h45.17.402_micResp_recorded\recording_micResp_2023-06-21_10h49.27.194.wav,None,,,,,9,001,2023-06-21_10h45.17.402,REPSWITCH_1,2022.2.5,60.383775119087794,
REPSWITCH1/PICTURE_178.png,puente,speak,yellow,switch,2,T,3,Stim1_Set3,0,49,49,49,,296.8262904000003,,,,,,292.5452207000053,293.7950361999974,293.7950361999974,293.7950361999974,293.7950361999974,293.7950361999974,293.7950361999974,293.7950361999974,0.009812100004637614,2.016627699980745,None,0,,D:\GitHub\experiment1\data/9_REPSWITCH_1_2023-06-21_10h45.17.402_micResp_recorded\recording_micResp_2023-06-21_10h49.31.943.wav,None,,,,,9,001,2023-06-21_10h45.17.402,REPSWITCH_1,2022.2.5,60.383775119087794,
REPSWITCH1/PICTURE_242.png,cartero,speak,yellow,nontarget,2,NT,3,Stim2_Set3,0,50,50,50,,301.39165770000545,,,,,,297.29451870001503,298.37644510000246,298.37644510000246,298.37644510000246,298.37644510000246,298.37644510000246,298.37644510000246,298.37644510000246,0.029482799989636987,2.0326506000128575,None,0,,D:\GitHub\experiment1\data/9_REPSWITCH_1_2023-06-21_10h45.17.402_micResp_recorded\recording_micResp_2023-06-21_10h49.36.509.wav,None,,,,,9,001,2023-06-21_10h45.17.402,REPSWITCH_1,2022.2.5,60.383775119087794,
REPSWITCH1/PICTURE_242.png,cartero,type,indigo,switch,1,T,3,Stim2_Set3,0,51,51,51,,306.1402861000097,,,,,,301.859520900005,303.10920390000683,303.10920390000683,303.10920390000683,303.10920390000683,303.10920390000683,303.10920390000683,303.10920390000683,0.00813390000257641,2.0160834999987856,None,0,,D:\GitHub\experiment1\data/9_REPSWITCH_1_2023-06-21_10h45.17.402_micResp_recorded\recording_micResp_2023-06-21_10h49.41.259.wav,None,,,,,9,001,2023-06-21_10h45.17.402,REPSWITCH_1,2022.2.5,60.383775119087794,
REPSWITCH1/PICTURE_16.png,cazador,type,indigo,filler,1,F,3,Stim1_Set2,0,52,52,52,,310.7223262999905,,,,,,306.6096392000036,307.69166559999576,307.69166559999576,307.69166559999576,307.69166559999576,307.69166559999576,307.69166559999576,307.69166559999576,0.010735199990449473,2.0155979999981355,None,0,,D:\GitHub\experiment1\data/9_REPSWITCH_1_2023-06-21_10h45.17.402_micResp_recorded\recording_micResp_2023-06-21_10h49.45.840.wav,None,,,,,9,001,2023-06-21_10h45.17.402,REPSWITCH_1,2022.2.5,60.383775119087794,
REPSWITCH1/PICTURE_48.png,bombero,type,indigo,nontarget,1,NT,3,Stim3_Set3,0,53,53,53,,315.454710799997,,,,,,311.1905523999885,312.4398586000025,312.4398586000025,312.4398586000025,312.4398586000025,312.4398586000025,312.4398586000025,312.4398586000025,0.028207099996507168,2.0321506000182126,None,0,,D:\GitHub\experiment1\data/9_REPSWITCH_1_2023-06-21_10h45.17.402_micResp_recorded\recording_micResp_2023-06-21_10h49.50.572.wav,None,,,,,9,001,2023-06-21_10h45.17.402,REPSWITCH_1,2022.2.5,60.383775119087794,
REPSWITCH1/PICTURE_48.png,bombero,speak,yellow,switch,2,T,3,Stim3_Set3,0,54,54,54,,320.2369667000021,,,,,,315.92281399999047,317.2225027999957,317.2225027999957,317.2225027999957,317.2225027999957,317.2225027999957,317.2225027999957,317.2225027999957,0.010677500016754493,2.0152106000168715,None,0,,D:\GitHub\experiment1\data/9_REPSWITCH_1_2023-06-21_10h45.17.402_micResp_recorded\recording_micResp_2023-06-21_10h49.55.371.wav,None,,,,,9,001,2023-06-21_10h45.17.402,REPSWITCH_1,2022.2.5,60.383775119087794,
REPSWITCH1/PICTURE_175.png,pintor,type,indigo,filler,1,F,3,Stim2_Set2,0,55,55,55,,324.8688472000067,,,,,,320.7224195000017,321.85486349998973,321.85486349998973,321.85486349998973,321.85486349998973,321.85486349998973,321.85486349998973,321.85486349998973,0.00862439998309128,2.016059799992945,None,0,,D:\GitHub\experiment1\data/9_REPSWITCH_1_2023-06-21_10h45.17.402_micResp_recorded\recording_micResp_2023-06-21_10h49.59.988.wav,None,,,,,9,001,2023-06-21_10h45.17.402,REPSWITCH_1,2022.2.5,60.383775119087794,
REPSWITCH1/PICTURE_728.png,pulpo,speak,yellow,nontarget,2,NT,3,Stim4_Set3,0,56,56,56,,329.51801470000646,,,,,,325.3539800000144,326.5201773000008,326.5201773000008,326.5201773000008,326.5201773000008,326.5201773000008,326.5201773000008,326.5201773000008,0.02715799998259172,2.0346237999910954,None,0,,D:\GitHub\experiment1\data/9_REPSWITCH_1_2023-06-21_10h45.17.402_micResp_recorded\recording_micResp_2023-06-21_10h50.04.653.wav,None,,,,,9,001,2023-06-21_10h45.17.402,REPSWITCH_1,2022.2.5,60.383775119087794,
REPSWITCH1/PICTURE_728.png,pulpo,speak,yellow,repeat,2,T,3,Stim4_Set3,0,57,57,57,,334.1011637999909,,,,,,330.0033432999917,331.08583749999525,331.08583749999525,331.08583749999525,331.08583749999525,331.08583749999525,331.08583749999525,331.08583749999525,0.007609899999806657,2.0161183000018355,None,0,,D:\GitHub\experiment1\data/9_REPSWITCH_1_2023-06-21_10h45.17.402_micResp_recorded\recording_micResp_2023-06-21_10h50.09.234.wav,None,,,,,9,001,2023-06-21_10h45.17.402,REPSWITCH_1,2022.2.5,60.383775119087794,
REPSWITCH1/PICTURE_30.png,granja,speak,yellow,filler,2,F,3,Stim3_Set2,0,58,58,58,,338.71567780000623,,,,,,334.5846939999901,335.7013578999904,335.7013578999904,335.7013578999904,335.7013578999904,335.7013578999904,335.7013578999904,335.7013578999904,0.0112809999845922,2.016121099994052,None,0,,D:\GitHub\experiment1\data/9_REPSWITCH_1_2023-06-21_10h45.17.402_micResp_recorded\recording_micResp_2023-06-21_10h50.13.834.wav,None,,,,,9,001,2023-06-21_10h45.17.402,REPSWITCH_1,2022.2.5,60.383775119087794,
REPSWITCH1/PICTURE_319.png,vaca,type,indigo,filler,1,F,3,Stim4_Set2,0,59,59,59,,343.56486390001373,,,,,,339.1999108000018,340.53348089999054,340.53348089999054,340.53348089999054,340.53348089999054,340.53348089999054,340.53348089999054,340.53348089999054,0.007635299989487976,2.0163126999977976,None,0,,D:\GitHub\experiment1\data/9_REPSWITCH_1_2023-06-21_10h45.17.402_micResp_recorded\recording_micResp_2023-06-21_10h50.18.682.wav,None,,,,,9,001,2023-06-21_10h45.17.402,REPSWITCH_1,2022.2.5,60.383775119087794,
REPSWITCH1/PICTURE_320.png,iglesia,type,indigo,filler,1,F,3,Stim5_Set2,0,60,60,60,,348.2303458999959,,,,,,344.03222339999047,345.2157450999948,345.2157450999948,345.2157450999948,345.2157450999948,345.2157450999948,345.2157450999948,345.2157450999948,0.010819499992066994,2.016093699989142,None,0,,D:\GitHub\experiment1\data/9_REPSWITCH_1_2023-06-21_10h45.17.402_micResp_recorded\recording_micResp_2023-06-21_10h50.23.364.wav,None,,,,,9,001,2023-06-21_10h45.17.402,REPSWITCH_1,2022.2.5,60.383775119087794,
REPSWITCH1/PICTURE_552.png,manzana,speak,yellow,nontarget,2,NT,3,Stim5_Set3,0,61,61,61,,353.14533289999235,,,,,,348.7146017999912,350.16362639999716,350.16362639999716,350.16362639999716,350.16362639999716,350.16362639999716,350.16362639999716,350.16362639999716,0.03240720002213493,2.0504384000087157,None,0,,D:\GitHub\experiment1\data/9_REPSWITCH_1_2023-06-21_10h45.17.402_micResp_recorded\recording_micResp_2023-06-21_10h50.28.264.wav,None,,,,,9,001,2023-06-21_10h45.17.402,REPSWITCH_1,2022.2.5,60.383775119087794,
REPSWITCH1/PICTURE_552.png,manzana,speak,yellow,repeat,2,T,3,Stim5_Set3,0,62,62,62,,357.7612267000077,,,,,,353.6310527000169,354.73014679999324,354.73014679999324,354.73014679999324,354.73014679999324,354.73014679999324,354.73014679999324,354.73014679999324,0.009524499997496605,2.0162334000051487,None,0,,D:\GitHub\experiment1\data/9_REPSWITCH_1_2023-06-21_10h45.17.402_micResp_recorded\recording_micResp_2023-06-21_10h50.32.880.wav,None,,,,,9,001,2023-06-21_10h45.17.402,REPSWITCH_1,2022.2.5,60.383775119087794,
REPSWITCH1/PICTURE_576.png,guante,speak,yellow,nontarget,2,NT,3,Stim6_Set3,0,63,63,63,,362.5597528000071,,,,,,358.2298287000158,359.5789006999985,359.5789006999985,359.5789006999985,359.5789006999985,359.5789006999985,359.5789006999985,359.5789006999985,0.0403222999884747,2.050016399996821,None,0,,D:\GitHub\experiment1\data/9_REPSWITCH_1_2023-06-21_10h45.17.402_micResp_recorded\recording_micResp_2023-06-21_10h50.37.695.wav,None,,,,,9,001,2023-06-21_10h45.17.402,REPSWITCH_1,2022.2.5,60.383775119087794,
REPSWITCH1/PICTURE_576.png,guante,type,indigo,switch,1,T,3,Stim6_Set3,0,64,64,64,,367.30800530000124,,,,,,363.04620559999603,364.2942083000089,364.2942083000089,364.2942083000089,364.2942083000089,364.2942083000089,364.2942083000089,364.2942083000089,0.007645200006663799,2.0160215999931097,None,0,,D:\GitHub\experiment1\data/9_REPSWITCH_1_2023-06-21_10h45.17.402_micResp_recorded\recording_micResp_2023-06-21_10h50.42.443.wav,None,,,,,9,001,2023-06-21_10h45.17.402,REPSWITCH_1,2022.2.5,60.383775119087794,
REPSWITCH1/PICTURE_517.png,cuerda,speak,yellow,filler,2,F,3,Stim6_Set2,0,65,65,65,,372.0073325000121,,,,,,367.7933975000051,368.99332010000944,368.99332010000944,368.99332010000944,368.99332010000944,368.99332010000944,368.99332010000944,368.99332010000944,0.009861700003966689,2.016101899993373,None,0,,D:\GitHub\experiment1\data/9_REPSWITCH_1_2023-06-21_10h45.17.402_micResp_recorded\recording_micResp_2023-06-21_10h50.47.140.wav,None,,,,,9,001,2023-06-21_10h45.17.402,REPSWITCH_1,2022.2.5,60.383775119087794,
REPSWITCH1/PICTURE_687.png,camisa,type,indigo,nontarget,1,NT,3,Stim7_Set3,0,66,66,66,,376.72323390000383,,,,,,372.4916521999985,373.7083013000083,373.7083013000083,373.7083013000083,373.7083013000083,373.7083013000083,373.7083013000083,373.7083013000083,0.02592350001214072,2.032601600018097,None,0,,D:\GitHub\experiment1\data/9_REPSWITCH_1_2023-06-21_10h45.17.402_micResp_recorded\recording_micResp_2023-06-21_10h50.51.841.wav,None,,,,,9,001,2023-06-21_10h45.17.402,REPSWITCH_1,2022.2.5,60.383775119087794,
REPSWITCH1/PICTURE_687.png,camisa,type,indigo,repeat,1,T,3,Stim7_Set3,0,67,67,67,,381.37221209998825,,,,,,377.1916096000059,378.3760558000067,378.3760558000067,378.3760558000067,378.3760558000067,378.3760558000067,378.3760558000067,378.3760558000067,0.007337499991990626,2.0164576999959536,None,0,,D:\GitHub\experiment1\data/9_REPSWITCH_1_2023-06-21_10h45.17.402_micResp_recorded\recording_micResp_2023-06-21_10h50.56.507.wav,None,,,,,9,001,2023-06-21_10h45.17.402,REPSWITCH_1,2022.2.5,60.383775119087794,
REPSWITCH1/PICTURE_610.png,miel,speak,yellow,filler,2,F,3,Stim7_Set2,0,68,68,68,,386.02120690001175,,,,,,381.87478720000945,383.0066022000101,383.0066022000101,383.0066022000101,383.0066022000101,383.0066022000101,383.0066022000101,383.0066022000101,0.008063700021011755,2.0161274000129197,None,0,,D:\GitHub\experiment1\data/9_REPSWITCH_1_2023-06-21_10h45.17.402_micResp_recorded\recording_micResp_2023-06-21_10h51.01.156.wav,None,,,,,9,001,2023-06-21_10h45.17.402,REPSWITCH_1,2022.2.5,60.383775119087794,
REPSWITCH1/PICTURE_35.png,oreja,speak,yellow,filler,2,F,3,Stim8_Set2,0,69,69,69,,390.8197487000143,,,,,,386.5061621000059,387.80537429999094,387.80537429999094,387.80537429999094,387.80537429999094,387.80537429999094,387.80537429999094,387.80537429999094,0.008112999988952652,2.016405400005169,None,0,,D:\GitHub\experiment1\data/9_REPSWITCH_1_2023-06-21_10h45.17.402_micResp_recorded\recording_micResp_2023-06-21_10h51.05.955.wav,None,,,,,9,001,2023-06-21_10h45.17.402,REPSWITCH_1,2022.2.5,60.383775119087794,
REPSWITCH1/PICTURE_719.png,baño,type,indigo,nontarget,1,NT,3,Stim8_Set3,0,70,70,70,,395.4856742999982,,,,,,391.3046706999885,392.48725420000846,392.48725420000846,392.48725420000846,392.48725420000846,392.48725420000846,392.48725420000846,392.48725420000846,0.028259399987291545,2.0344298999989405,None,0,,D:\GitHub\experiment1\data/9_REPSWITCH_1_2023-06-21_10h45.17.402_micResp_recorded\recording_micResp_2023-06-21_10h51.10.620.wav,None,,,,,9,001,2023-06-21_10h45.17.402,REPSWITCH_1,2022.2.5,60.383775119087794,
REPSWITCH1/PICTURE_719.png,baño,type,indigo,repeat,1,T,3,Stim8_Set3,0,71,71,71,,400.20101160000195,,,,,,395.970576599997,397.2031508999935,397.2031508999935,397.2031508999935,397.2031508999935,397.2031508999935,397.2031508999935,397.2031508999935,0.012407300004269928,2.0324133000103757,None,0,,D:\GitHub\experiment1\data/9_REPSWITCH_1_2023-06-21_10h45.17.402_micResp_recorded\recording_micResp_2023-06-21_10h51.15.335.wav,None,,,,,9,001,2023-06-21_10h45.17.402,REPSWITCH_1,2022.2.5,60.383775119087794,
REPSWITCH1/PICTURE_178.png,puente,speak,yellow,filler,2,F,4,Stim1_Set3,0,72,72,72,,404.8498096000112,,,,,,400.68619279999984,401.8358095000149,401.8358095000149,401.8358095000149,401.8358095000149,401.8358095000149,401.8358095000149,401.8358095000149,0.011007599998265505,2.015584700013278,None,0,,D:\GitHub\experiment1\data/9_REPSWITCH_1_2023-06-21_10h45.17.402_micResp_recorded\recording_micResp_2023-06-21_10h51.19.983.wav,None,,,,,9,001,2023-06-21_10h45.17.402,REPSWITCH_1,2022.2.5,60.383775119087794,
REPSWITCH1/PICTURE_135.png,traje,type,indigo,nontarget,1,NT,4,Stim1_Set4,0,73,73,73,,409.66558760000044,,,,,,405.3347797000024,406.6506767999963,406.6506767999963,406.6506767999963,406.6506767999963,406.6506767999963,406.6506767999963,406.6506767999963,0.007556500000646338,2.016562700009672,None,0,,D:\GitHub\experiment1\data/9_REPSWITCH_1_2023-06-21_10h45.17.402_micResp_recorded\recording_micResp_2023-06-21_10h51.24.799.wav,None,,,,,9,001,2023-06-21_10h45.17.402,REPSWITCH_1,2022.2.5,60.383775119087794,
REPSWITCH1/PICTURE_135.png,traje,type,indigo,repeat,1,T,4,Stim1_Set4,0,74,74,74,,414.31412419999833,,,,,,410.14997649998986,411.28335539999534,411.28335539999534,411.28335539999534,411.28335539999534,411.28335539999534,411.28335539999534,411.28335539999534,0.007533600000897422,2.0159417999966536,None,0,,D:\GitHub\experiment1\data/9_REPSWITCH_1_2023-06-21_10h45.17.402_micResp_recorded\recording_micResp_2023-06-21_10h51.29.432.wav,None,,,,,9,001,2023-06-21_10h45.17.402,REPSWITCH_1,2022.2.5,60.383775119087794,
REPSWITCH1/PICTURE_464.png,goma,type,indigo,nontarget,1,NT,4,Stim2_Set4,0,75,75,75,,418.84662540000863,,,,,,414.782471500017,415.8323764000088,415.8323764000088,415.8323764000088,415.8323764000088,415.8323764000088,415.8323764000088,415.8323764000088,0.0075480999948922545,2.0162890999927185,None,0,,D:\GitHub\experiment1\data/9_REPSWITCH_1_2023-06-21_10h45.17.402_micResp_recorded\recording_micResp_2023-06-21_10h51.33.965.wav,None,,,,,9,001,2023-06-21_10h45.17.402,REPSWITCH_1,2022.2.5,60.383775119087794,
REPSWITCH1/PICTURE_464.png,goma,speak,yellow,switch,2,T,4,Stim2_Set4,0,76,76,76,,423.4286601000058,,,,,,419.33192299999064,420.41428590001306,420.41428590001306,420.41428590001306,420.41428590001306,420.41428590001306,420.41428590001306,420.41428590001306,0.008312299993121997,2.015480200003367,None,0,,D:\GitHub\experiment1\data/9_REPSWITCH_1_2023-06-21_10h45.17.402_micResp_recorded\recording_micResp_2023-06-21_10h51.38.563.wav,None,,,,,9,001,2023-06-21_10h45.17.402,REPSWITCH_1,2022.2.5,60.383775119087794,
REPSWITCH1/PICTURE_242.png,cartero,type,indigo,filler,1,F,4,Stim2_Set3,0,77,77,77,,428.17773610001314,,,,,,423.9138336000033,425.1470978000143,425.1470978000143,425.1470978000143,425.1470978000143,425.1470978000143,425.1470978000143,425.1470978000143,0.009982899995520711,2.0157479999761563,None,0,,D:\GitHub\experiment1\data/9_REPSWITCH_1_2023-06-21_10h45.17.402_micResp_recorded\recording_micResp_2023-06-21_10h51.43.298.wav,None,,,,,9,001,2023-06-21_10h45.17.402,REPSWITCH_1,2022.2.5,60.383775119087794,
REPSWITCH1/PICTURE_48.png,bombero,type,indigo,filler,1,F,4,Stim3_Set3,0,78,78,78,,432.74330480000935,,,,,,428.6458971000102,429.7451209000137,429.7451209000137,429.7451209000137,429.7451209000137,429.7451209000137,429.7451209000137,429.7451209000137,0.015344500017818063,2.0319362000154797,None,0,,D:\GitHub\experiment1\data/9_REPSWITCH_1_2023-06-21_10h45.17.402_micResp_recorded\recording_micResp_2023-06-21_10h51.47.878.wav,None,,,,,9,001,2023-06-21_10h45.17.402,REPSWITCH_1,2022.2.5,60.383775119087794,
REPSWITCH1/PICTURE_381.png,fresa,speak,yellow,nontarget,2,NT,4,Stim3_Set4,0,79,79,79,,437.5079825000139,,,,,,433.22700710000936,434.5106275000144,434.5106275000144,434.5106275000144,434.5106275000144,434.5106275000144,434.5106275000144,434.5106275000144,0.013255300000309944,2.032048900000518,None,0,,D:\GitHub\experiment1\data/9_REPSWITCH_1_2023-06-21_10h45.17.402_micResp_recorded\recording_micResp_2023-06-21_10h51.52.641.wav,None,,,,,9,001,2023-06-21_10h45.17.402,REPSWITCH_1,2022.2.5,60.383775119087794,
REPSWITCH1/PICTURE_381.png,fresa,speak,yellow,repeat,2,T,4,Stim3_Set4,0,80,80,80,,442.05761459999485,,,,,,437.99343989999034,439.0429252999893,439.0429252999893,439.0429252999893,439.0429252999893,439.0429252999893,439.0429252999893,439.0429252999893,0.010221900010947138,2.0171596000145655,None,0,,D:\GitHub\experiment1\data/9_REPSWITCH_1_2023-06-21_10h45.17.402_micResp_recorded\recording_micResp_2023-06-21_10h51.57.192.wav,None,,,,,9,001,2023-06-21_10h45.17.402,REPSWITCH_1,2022.2.5,60.383775119087794,
REPSWITCH1/PICTURE_546.png,puerta,speak,yellow,nontarget,2,NT,4,Stim4_Set4,0,81,81,81,,446.840114599996,,,,,,442.54280560000916,443.8264576999936,443.8264576999936,443.8264576999936,443.8264576999936,443.8264576999936,443.8264576999936,443.8264576999936,0.008933000004617497,2.015917500015348,None,0,,D:\GitHub\experiment1\data/9_REPSWITCH_1_2023-06-21_10h45.17.402_micResp_recorded\recording_micResp_2023-06-21_10h52.01.974.wav,None,,,,,9,001,2023-06-21_10h45.17.402,REPSWITCH_1,2022.2.5,60.383775119087794,
REPSWITCH1/PICTURE_546.png,puerta,type,indigo,switch,1,T,4,Stim4_Set4,0,82,82,82,,451.53827089999686,,,,,,447.32596139999805,448.52453769999556,448.52453769999556,448.52453769999556,448.52453769999556,448.52453769999556,448.52453769999556,448.52453769999556,0.0077732999925501645,2.0158788999833632,None,0,,D:\GitHub\experiment1\data/9_REPSWITCH_1_2023-06-21_10h45.17.402_micResp_recorded\recording_micResp_2023-06-21_10h52.06.672.wav,None,,,,,9,001,2023-06-21_10h45.17.402,REPSWITCH_1,2022.2.5,60.383775119087794,
REPSWITCH1/PICTURE_728.png,pulpo,speak,yellow,filler,2,F,4,Stim4_Set3,0,83,83,83,,456.20436420000624,,,,,,452.0240082000091,453.1896461000142,453.1896461000142,453.1896461000142,453.1896461000142,453.1896461000142,453.1896461000142,453.1896461000142,0.009228099981555715,2.0155272999836598,None,0,,D:\GitHub\experiment1\data/9_REPSWITCH_1_2023-06-21_10h45.17.402_micResp_recorded\recording_micResp_2023-06-21_10h52.11.339.wav,None,,,,,9,001,2023-06-21_10h45.17.402,REPSWITCH_1,2022.2.5,60.383775119087794,
REPSWITCH1/PICTURE_636.png,oveja,type,indigo,nontarget,1,NT,4,Stim5_Set4,0,84,84,84,,460.93544219998876,,,,,,456.6892797999899,457.92180889999145,457.92180889999145,457.92180889999145,457.92180889999145,457.92180889999145,457.92180889999145,457.92180889999145,0.008398900012252852,2.0316167999990284,None,0,,D:\GitHub\experiment1\data/9_REPSWITCH_1_2023-06-21_10h45.17.402_micResp_recorded\recording_micResp_2023-06-21_10h52.16.072.wav,None,,,,,9,001,2023-06-21_10h45.17.402,REPSWITCH_1,2022.2.5,60.383775119087794,
REPSWITCH1/PICTURE_636.png,oveja,speak,yellow,switch,2,T,4,Stim5_Set4,0,85,85,85,,465.568680700002,,,,,,461.421502400015,462.5387235000089,462.5387235000089,462.5387235000089,462.5387235000089,462.5387235000089,462.5387235000089,462.5387235000089,0.010135299991816282,2.016060199995991,None,0,,D:\GitHub\experiment1\data/9_REPSWITCH_1_2023-06-21_10h45.17.402_micResp_recorded\recording_micResp_2023-06-21_10h52.20.687.wav,None,,,,,9,001,2023-06-21_10h45.17.402,REPSWITCH_1,2022.2.5,60.383775119087794,
REPSWITCH1/PICTURE_545.png,braga,speak,yellow,nontarget,2,NT,4,Stim6_Set4,0,86,86,86,,470.13415830000304,,,,,,466.03730279998854,467.1039499999897,467.1039499999897,467.1039499999897,467.1039499999897,467.1039499999897,467.1039499999897,467.1039499999897,0.011424399999668822,2.0163131000008434,None,0,,D:\GitHub\experiment1\data/9_REPSWITCH_1_2023-06-21_10h45.17.402_micResp_recorded\recording_micResp_2023-06-21_10h52.25.252.wav,None,,,,,9,001,2023-06-21_10h45.17.402,REPSWITCH_1,2022.2.5,60.383775119087794,
REPSWITCH1/PICTURE_545.png,braga,speak,yellow,repeat,2,T,4,Stim6_Set4,0,87,87,87,,474.8000538999913,,,,,,470.60353849999956,471.76843200001167,471.76843200001167,471.76843200001167,471.76843200001167,471.76843200001167,471.76843200001167,471.76843200001167,0.008201299991924316,2.017267199989874,None,0,,D:\GitHub\experiment1\data/9_REPSWITCH_1_2023-06-21_10h45.17.402_micResp_recorded\recording_micResp_2023-06-21_10h52.29.918.wav,None,,,,,9,001,2023-06-21_10h45.17.402,REPSWITCH_1,2022.2.5,60.383775119087794,
REPSWITCH1/PICTURE_552.png,manzana,type,indigo,filler,1,F,4,Stim5_Set3,0,88,88,88,,479.51572910000687,,,,,,475.2680548999924,476.48423669999465,476.48423669999465,476.48423669999465,476.48423669999465,476.48423669999465,476.48423669999465,476.48423669999465,0.01103049999801442,2.017115199996624,None,0,,D:\GitHub\experiment1\data/9_REPSWITCH_1_2023-06-21_10h45.17.402_micResp_recorded\recording_micResp_2023-06-21_10h52.34.633.wav,None,,,,,9,001,2023-06-21_10h45.17.402,REPSWITCH_1,2022.2.5,60.383775119087794,
REPSWITCH1/PICTURE_576.png,guante,speak,yellow,filler,2,F,4,Stim6_Set3,0,89,89,89,,484.2141105000046,,,,,,479.9840231999988,481.199494600005,481.199494600005,481.199494600005,481.199494600005,481.199494600005,481.199494600005,481.199494600005,0.009288000001106411,2.015504899987718,None,0,,D:\GitHub\experiment1\data/9_REPSWITCH_1_2023-06-21_10h45.17.402_micResp_recorded\recording_micResp_2023-06-21_10h52.39.348.wav,None,,,,,9,001,2023-06-21_10h45.17.402,REPSWITCH_1,2022.2.5,60.383775119087794,
REPSWITCH1/PICTURE_687.png,camisa,type,indigo,filler,1,F,4,Stim7_Set3,0,90,90,90,,488.9961861000047,,,,,,484.69920860001,485.9651729000034,485.9651729000034,485.9651729000034,485.9651729000034,485.9651729000034,485.9651729000034,485.9651729000034,0.007930299994768575,2.0156912000093143,None,0,,D:\GitHub\experiment1\data/9_REPSWITCH_1_2023-06-21_10h45.17.402_micResp_recorded\recording_micResp_2023-06-21_10h52.44.114.wav,None,,,,,9,001,2023-06-21_10h45.17.402,REPSWITCH_1,2022.2.5,60.383775119087794,
REPSWITCH1/PICTURE_8.png,pierna,speak,yellow,nontarget,2,NT,4,Stim7_Set4,0,91,91,91,,493.72854270000244,,,,,,489.4643391999998,490.69782979998854,490.69782979998854,490.69782979998854,490.69782979998854,490.69782979998854,490.69782979998854,490.69782979998854,0.007952400017529726,2.016130800009705,None,0,,D:\GitHub\experiment1\data/9_REPSWITCH_1_2023-06-21_10h45.17.402_micResp_recorded\recording_micResp_2023-06-21_10h52.48.846.wav,None,,,,,9,001,2023-06-21_10h45.17.402,REPSWITCH_1,2022.2.5,60.383775119087794,
REPSWITCH1/PICTURE_8.png,pierna,type,indigo,switch,1,T,4,Stim7_Set4,0,92,92,92,,498.3940042000031,,,,,,494.19689399999334,495.36311790000764,495.36311790000764,495.36311790000764,495.36311790000764,495.36311790000764,495.36311790000764,495.36311790000764,0.009495000005699694,2.0157997999922372,None,0,,D:\GitHub\experiment1\data/9_REPSWITCH_1_2023-06-21_10h45.17.402_micResp_recorded\recording_micResp_2023-06-21_10h52.53.512.wav,None,,,,,9,001,2023-06-21_10h45.17.402,REPSWITCH_1,2022.2.5,60.383775119087794,
REPSWITCH1/PICTURE_719.png,baño,speak,yellow,filler,1,F,4,Stim8_Set3,0,93,93,93,,502.9268183000095,,,,,,498.8623343000072,499.9116387999966,499.9116387999966,499.9116387999966,499.9116387999966,499.9116387999966,499.9116387999966,499.9116387999966,0.01020079999580048,2.0164892000029795,None,0,,D:\GitHub\experiment1\data/9_REPSWITCH_1_2023-06-21_10h45.17.402_micResp_recorded\recording_micResp_2023-06-21_10h52.58.061.wav,None,,,,,9,001,2023-06-21_10h45.17.402,REPSWITCH_1,2022.2.5,60.383775119087794,
REPSWITCH1/PICTURE_91.png,boca,type,indigo,nontarget,1,NT,4,Stim8_Set4,0,94,94,94,,507.5750071000075,,,,,,503.41108439999516,504.5448548000131,504.5448548000131,504.5448548000131,504.5448548000131,504.5448548000131,504.5448548000131,504.5448548000131,0.008550099999411032,2.0164069999882486,None,0,,D:\GitHub\experiment1\data/9_REPSWITCH_1_2023-06-21_10h45.17.402_micResp_recorded\recording_micResp_2023-06-21_10h53.02.694.wav,None,,,,,9,001,2023-06-21_10h45.17.402,REPSWITCH_1,2022.2.5,60.383775119087794,
REPSWITCH1/PICTURE_91.png,boca,type,indigo,repeat,1,T,4,Stim8_Set4,0,95,95,95,,512.1740381999989,,,,,,508.04347649999545,509.1594463000074,509.1594463000074,509.1594463000074,509.1594463000074,509.1594463000074,509.1594463000074,509.1594463000074,0.00921550000202842,2.0157745000033174,None,0,,D:\GitHub\experiment1\data/9_REPSWITCH_1_2023-06-21_10h45.17.402_micResp_recorded\recording_micResp_2023-06-21_10h53.07.308.wav,space,,512.6589678000018,512.6589678000018,2.865365200006636,9,001,2023-06-21_10h45.17.402,REPSWITCH_1,2022.2.5,60.383775119087794,
REPSWITCH1/PICTURE_19.png,pavo,speak,yellow,nontarget,2,NT,1,Stim4_Set1,0,96,96,96,,519.6895262000035,,,,,,515.5428406000137,516.6758603999915,516.6758603999915,516.6758603999915,516.6758603999915,516.6758603999915,516.6758603999915,516.6758603999915,0.014468100009253249,2.0156697999918833,None,0,,D:\GitHub\experiment1\data/9_REPSWITCH_1_2023-06-21_10h45.17.402_micResp_recorded\recording_micResp_2023-06-21_10h53.14.823.wav,None,,,,,9,001,2023-06-21_10h45.17.402,REPSWITCH_1,2022.2.5,60.383775119087794,
REPSWITCH1/PICTURE_19.png,pavo,speak,yellow,repeat,2,T,1,Stim4_Set1,0,97,97,97,,524.4048272999935,,,,,,520.1738592000038,521.391332500003,521.391332500003,521.391332500003,521.391332500003,521.391332500003,521.391332500003,521.391332500003,0.018445099995005876,2.031016599998111,['s'],0,s,D:\GitHub\experiment1\data/9_REPSWITCH_1_2023-06-21_10h45.17.402_micResp_recorded\recording_micResp_2023-06-21_10h53.19.522.wav,None,[1.4467433000099845],,,,9,001,2023-06-21_10h45.17.402,REPSWITCH_1,2022.2.5,60.383775119087794,
REPSWITCH1/PICTURE_381.png,fresa,type,indigo,filler,1,F,1,Stim3_Set4,0,98,98,98,,528.969857899996,,,,,,524.8737020000117,525.9727617999888,525.9727617999888,525.9727617999888,525.9727617999888,525.9727617999888,525.9727617999888,525.9727617999888,0.014894799998728558,2.031549700011965,None,0,,D:\GitHub\experiment1\data/9_REPSWITCH_1_2023-06-21_10h45.17.402_micResp_recorded\recording_micResp_2023-06-21_10h53.24.104.wav,None,,,,,9,001,2023-06-21_10h45.17.402,REPSWITCH_1,2022.2.5,60.383775119087794,
REPSWITCH1/PICTURE_91.png,boca,type,indigo,filler,1,F,1,Stim8_Set4,0,99,99,99,,533.5689407000027,,,,,,529.4553656000062,530.5545497999992,530.5545497999992,530.5545497999992,530.5545497999992,530.5545497999992,530.5545497999992,530.5545497999992,0.008429200010141358,2.0173722000035923,None,0,,D:\GitHub\experiment1\data/9_REPSWITCH_1_2023-06-21_10h45.17.402_micResp_recorded\recording_micResp_2023-06-21_10h53.28.703.wav,None,,,,,9,001,2023-06-21_10h45.17.402,REPSWITCH_1,2022.2.5,60.383775119087794,
REPSWITCH1/PICTURE_152.png,caracol,speak,yellow,nontarget,2,NT,1,Stim3_Set1,0,100,100,100,,538.2702233000018,,,,,,534.0547230000084,535.2580658000079,535.2580658000079,535.2580658000079,535.2580658000079,535.2580658000079,535.2580658000079,535.2580658000079,0.007192399993073195,2.037079999980051,None,0,,D:\GitHub\experiment1\data/9_REPSWITCH_1_2023-06-21_10h45.17.402_micResp_recorded\recording_micResp_2023-06-21_10h53.33.387.wav,None,,,,,9,001,2023-06-21_10h45.17.402,REPSWITCH_1,2022.2.5,60.383775119087794,
REPSWITCH1/PICTURE_152.png,caracol,speak,yellow,repeat,2,T,1,Stim3_Set1,0,101,101,101,,542.9659234000137,,,,,,538.7530420999974,539.9684400999977,539.9684400999977,539.9684400999977,539.9684400999977,539.9684400999977,539.9684400999977,539.9684400999977,0.009836700017331168,2.015174600004684,None,0,,D:\GitHub\experiment1\data/9_REPSWITCH_1_2023-06-21_10h45.17.402_micResp_recorded\recording_micResp_2023-06-21_10h53.38.103.wav,None,,,,,9,001,2023-06-21_10h45.17.402,REPSWITCH_1,2022.2.5,60.383775119087794,
REPSWITCH1/PICTURE_235.png,aguja,speak,yellow,nontarget,2,NT,1,Stim6_Set1,0,102,102,102,,547.532271700009,,,,,,543.4673330000078,544.5178209000151,544.5178209000151,544.5178209000151,544.5178209000151,544.5178209000151,544.5178209000151,544.5178209000151,0.00768799998331815,2.0162790000031237,None,0,,D:\GitHub\experiment1\data/9_REPSWITCH_1_2023-06-21_10h45.17.402_micResp_recorded\recording_micResp_2023-06-21_10h53.42.650.wav,None,,,,,9,001,2023-06-21_10h45.17.402,REPSWITCH_1,2022.2.5,60.383775119087794,
,,,,,,,,,,,,,,,,,,,,548.0170891000016,549.1000575000071,549.1000575000071,549.1000575000071,549.1000575000071,549.1000575000071,549.1000575000071,549.1000575000071,0.0077046999940648675,,,,,,,,,,,,,,,,,
