image,correctAns,famTrials.thisRepN,famTrials.thisTrialN,famTrials.thisN,famTrials.thisIndex,textWelcome.started,textBlank500.started,textInstrFam.started,keyInstrFam.started,keyInstrFam.keys,keyInstrFam.rt,textBlank500.stopped,fixationITI.started,fixationITI.stopped,polygonWhiteFam.started,imageFam.started,polygonWhiteFam.stopped,imageFam.stopped,textFam.started,textFam.stopped,participant,session,date,expName,psychopyVersion,frameRate,
,,,,,,15.692252200009534,17.689106400008313,18.190334800019627,18.190334800019627,space,1.3039620999770705,,,,,,,,,,,001,2023-05-26_12h11.47.795,REPSWITCH_1,2022.2.5,60.27538618324371,
REPSWITCH1/PICTURE_128.png,muñeca,0,0,0,0,,28.937339399999473,,,,,29.436979199992493,20.15459630000987,21.604852999997092,21.604852999997092,21.604852999997092,25.60453640000196,25.60453640000196,25.938020500005223,28.937339399999473,,001,2023-05-26_12h11.47.795,REPSWITCH_1,2022.2.5,60.27538618324371,
REPSWITCH1/PICTURE_142.png,vaso,0,1,1,1,,38.068348500004504,,,,,38.56763239999418,29.436979199992493,30.570582500018645,30.570582500018645,30.570582500018645,34.569410700001754,34.569410700001754,35.06918660001247,38.068348500004504,,001,2023-05-26_12h11.47.795,REPSWITCH_1,2022.2.5,60.27538618324371,
REPSWITCH1/PICTURE_152.png,caracol,0,2,2,2,,47.19942019999144,,,,,47.699066300003324,38.56763239999418,39.80033040000126,39.80033040000126,39.80033040000126,43.800153799995314,43.800153799995314,44.199967799999285,47.19942019999144,,001,2023-05-26_12h11.47.795,REPSWITCH_1,2022.2.5,60.27538618324371,
REPSWITCH1/PICTURE_16.png,cazador,0,3,3,3,,56.54678460001014,,,,,57.04715260001831,47.699066300003324,49.148545900010504,49.148545900010504,49.148545900010504,53.148082100000465,53.148082100000465,53.54777319999994,56.54678460001014,,001,2023-05-26_12h11.47.795,REPSWITCH_1,2022.2.5,60.27538618324371,
REPSWITCH1/PICTURE_175.png,pintor,0,4,4,4,,65.66151269999682,,,,,66.16176670001005,57.04715260001831,58.26277370000025,58.26277370000025,58.26277370000025,62.26274669999839,62.26274669999839,62.64578520000214,65.64464270000462,,001,2023-05-26_12h11.47.795,REPSWITCH_1,2022.2.5,60.27538618324371,
REPSWITCH1/PICTURE_178.png,puente,0,5,5,5,,74.82581969999592,,,,,75.32577389999642,66.16176670001005,67.42712979999487,67.42712979999487,67.42712979999487,71.42686720000347,71.42686720000347,71.82688420001068,74.82581969999592,,001,2023-05-26_12h11.47.795,REPSWITCH_1,2022.2.5,60.27538618324371,
REPSWITCH1/PICTURE_19.png,pavo,0,6,6,6,,84.07484270000714,,,,,,75.32577389999642,76.60775230001309,76.60775230001309,76.60775230001309,80.60816900001373,80.60816900001373,81.07475100000738,84.07484270000714,,001,2023-05-26_12h11.47.795,REPSWITCH_1,2022.2.5,60.27538618324371,
REPSWITCH1/PICTURE_199.png,falda,0,7,7,7,,93.18787700001849,,,,,93.68864249999751,84.59057410000241,85.75609100001748,85.75609100001748,85.75609100001748,89.75635880001937,89.75635880001937,90.18902990000788,93.18787700001849,,001,2023-05-26_12h11.47.795,REPSWITCH_1,2022.2.5,60.27538618324371,
REPSWITCH1/PICTURE_235.png,aguja,0,8,8,8,,102.28683920000913,,,,,102.78638820000924,93.68864249999751,94.88686669999151,94.88686669999151,94.88686669999151,98.88692089999677,98.88692089999677,99.28670210001292,102.28683920000913,,001,2023-05-26_12h11.47.795,REPSWITCH_1,2022.2.5,60.27538618324371,
REPSWITCH1/PICTURE_242.png,cartero,0,9,9,9,,111.3834896000044,,,,,111.88384029999725,102.78638820000924,103.98495889999322,103.98495889999322,103.98495889999322,107.98479680001037,107.98479680001037,108.36814279999817,111.36685610000859,,001,2023-05-26_12h11.47.795,REPSWITCH_1,2022.2.5,60.27538618324371,
REPSWITCH1/PICTURE_264.png,mano,0,10,10,10,,120.53167110000504,,,,,121.03135470001143,111.88384029999725,113.58254140001372,113.58254140001372,113.58254140001372,117.5828126000124,117.5828126000124,117.51639629999408,120.5150364000001,,001,2023-05-26_12h11.47.795,REPSWITCH_1,2022.2.5,60.27538618324371,
REPSWITCH1/PICTURE_271.png,conejo,0,11,11,11,,129.69640929999878,,,,,130.19614960000035,121.03135470001143,122.23058450000826,122.23058450000826,122.23058450000826,126.23052680000546,126.23052680000546,126.69705340001383,129.69640929999878,,001,2023-05-26_12h11.47.795,REPSWITCH_1,2022.2.5,60.27538618324371,
REPSWITCH1/PICTURE_30.png,granja,0,12,12,12,,138.744182800001,,,,,,130.19614960000035,131.2448299000098,131.2448299000098,131.2448299000098,135.24581170000602,135.24581170000602,135.72814990000916,,,001,2023-05-26_12h11.47.795,REPSWITCH_1,2022.2.5,60.27538618324371,
REPSWITCH1/PICTURE_319.png,vaca,0,13,13,13,,147.87521560001187,,,,,148.37561970000388,139.24406530000851,140.37764170000446,140.37764170000446,140.37764170000446,144.37604430000647,144.37604430000647,144.87589039999875,147.87521560001187,,001,2023-05-26_12h11.47.795,REPSWITCH_1,2022.2.5,60.27538618324371,
REPSWITCH1/PICTURE_320.png,iglesia,0,14,14,14,,157.02288340000086,,,,,157.52260870000464,148.37561970000388,149.54055599999265,149.54055599999265,149.54055599999265,153.5403268999944,153.5403268999944,154.02379179999116,157.02288340000086,,001,2023-05-26_12h11.47.795,REPSWITCH_1,2022.2.5,60.27538618324371,
REPSWITCH1/PICTURE_354.png,cabra,0,15,15,15,,166.08746100001736,,,,,166.58745530000306,157.52260870000464,158.5901690000028,158.5901690000028,158.5901690000028,162.58844680001494,162.58844680001494,163.08799500000896,166.08746100001736,,001,2023-05-26_12h11.47.795,REPSWITCH_1,2022.2.5,60.27538618324371,
REPSWITCH1/PICTURE_377.png,babero,0,16,16,16,,175.36841530000675,,,,,,166.58745530000306,167.8547011000046,167.8547011000046,167.8547011000046,171.86963729999843,171.86963729999843,172.35336500001722,,,001,2023-05-26_12h11.47.795,REPSWITCH_1,2022.2.5,60.27538618324371,
REPSWITCH1/PICTURE_381.png,fresa,0,17,17,17,,184.5164286000072,,,,,185.01651800001855,175.86841690001893,177.03394839999964,177.03394839999964,177.03394839999964,181.0335405000078,181.0335405000078,181.51685139999609,184.5164286000072,,001,2023-05-26_12h11.47.795,REPSWITCH_1,2022.2.5,60.27538618324371,
REPSWITCH1/PICTURE_411.png,puño,0,18,18,18,,193.57980910001788,,,,,194.07974200000172,185.01651800001855,186.0833091000095,186.0833091000095,186.0833091000095,190.0820851000026,190.0820851000026,190.58075300001656,193.57980910001788,,001,2023-05-26_12h11.47.795,REPSWITCH_1,2022.2.5,60.27538618324371,
REPSWITCH1/PICTURE_48.png,bombero,0,19,19,19,,202.72876590001397,,,,,203.22886170001584,194.07974200000172,195.2318188000063,195.2318188000063,195.2318188000063,199.246249000018,199.246249000018,199.72915860000649,202.72876590001397,,001,2023-05-26_12h11.47.795,REPSWITCH_1,2022.2.5,60.27538618324371,
REPSWITCH1/PICTURE_487.png,cesta,0,20,20,20,,211.80961950001074,,,,,212.30984480000916,203.22886170001584,204.3125532999984,204.3125532999984,204.3125532999984,208.32738830000744,208.32738830000744,208.81054770000628,211.80961950001074,,001,2023-05-26_12h11.47.795,REPSWITCH_1,2022.2.5,60.27538618324371,
REPSWITCH1/PICTURE_517.png,cuerda,0,21,21,21,,220.95746689999942,,,,,221.45771260000765,212.30984480000916,213.46010060000117,213.46010060000117,213.46010060000117,217.4586738999933,217.4586738999933,217.95833620001213,220.95746689999942,,001,2023-05-26_12h11.47.795,REPSWITCH_1,2022.2.5,60.27538618324371,
REPSWITCH1/PICTURE_552.png,manzana,0,22,22,22,,230.0721145000134,,,,,230.57199039999978,221.45771260000765,222.5748190000013,222.5748190000013,222.5748190000013,226.57253330000094,226.57253330000094,227.07301890000235,230.0721145000134,,001,2023-05-26_12h11.47.795,REPSWITCH_1,2022.2.5,60.27538618324371,
REPSWITCH1/PICTURE_576.png,guante,0,23,23,23,,239.1362713999988,,,,,239.63631390000228,230.57199039999978,231.63933279999765,231.63933279999765,231.63933279999765,235.64036459999625,235.64036459999625,236.1238616000046,239.1362713999988,,001,2023-05-26_12h11.47.795,REPSWITCH_1,2022.2.5,60.27538618324371,
REPSWITCH1/PICTURE_610.png,miel,0,24,24,24,,248.21679579999181,,,,,,239.63631390000228,240.78562360000797,240.78562360000797,240.78562360000797,244.78488290001405,244.78488290001405,245.20185010001296,,,001,2023-05-26_12h11.47.795,REPSWITCH_1,2022.2.5,60.27538618324371,
REPSWITCH1/PICTURE_622.png,tiza,0,25,25,25,,257.27127339999424,,,,,,248.71692870001425,249.78338700000313,249.78338700000313,249.78338700000313,253.78342449999764,253.78342449999764,254.26622620000853,,,001,2023-05-26_12h11.47.795,REPSWITCH_1,2022.2.5,60.27538618324371,
REPSWITCH1/PICTURE_636.png,oveja,0,26,26,26,,266.7963068000099,,,,,267.29642779999995,258.2324670999951,259.39718570001423,259.39718570001423,259.39718570001423,263.3975817000028,263.3975817000028,263.7976105000125,266.7963068000099,,001,2023-05-26_12h11.47.795,REPSWITCH_1,2022.2.5,60.27538618324371,
REPSWITCH1/PICTURE_664.png,vestido,0,27,27,27,,275.87750719999894,,,,,276.37780210000346,267.29642779999995,268.3802513999981,268.3802513999981,268.3802513999981,272.37868620001245,272.37868620001245,272.8784520000045,275.87750719999894,,001,2023-05-26_12h11.47.795,REPSWITCH_1,2022.2.5,60.27538618324371,
REPSWITCH1/PICTURE_687.png,camisa,0,28,28,28,,284.925848200015,,,,,285.4251417000196,276.37780210000346,277.4282104000158,277.4282104000158,277.4282104000158,281.4432624000183,281.4432624000183,281.9262094000005,284.925848200015,,001,2023-05-26_12h11.47.795,REPSWITCH_1,2022.2.5,60.27538618324371,
REPSWITCH1/PICTURE_719.png,baño,0,29,29,29,,294.04002479999326,,,,,294.5397493999917,285.4251417000196,286.54380089999177,286.54380089999177,286.54380089999177,290.55743320001056,290.55743320001056,291.0409309999959,294.04002479999326,,001,2023-05-26_12h11.47.795,REPSWITCH_1,2022.2.5,60.27538618324371,
REPSWITCH1/PICTURE_8.png,pierna,0,30,30,30,,303.2046874999942,,,,,303.7047198000073,294.5397493999917,295.7068383000151,295.7068383000151,295.7068383000151,299.70554990001256,299.70554990001256,300.20550410001306,303.2046874999942,,001,2023-05-26_12h11.47.795,REPSWITCH_1,2022.2.5,60.27538618324371,
REPSWITCH1/PICTURE_91.png,boca,0,31,31,31,,312.2859148000134,,,,,312.78578350000316,303.7047198000073,305.3031692999939,305.3031692999939,305.3031692999939,309.30258439999307,309.30258439999307,309.27065940000466,312.2859148000134,,001,2023-05-26_12h11.47.795,REPSWITCH_1,2022.2.5,60.27538618324371,
,,,,,,,,,,,,,312.78578350000316,314.0355927000055,314.0355927000055,314.0355927000055,,,,,,,,,,,
