image,correctAns,respModal,frameColor,repSwitch,sequence,target,famTrials.thisRepN,famTrials.thisTrialN,famTrials.thisN,famTrials.thisIndex,trialsPractice.thisRepN,trialsPractice.thisTrialN,trialsPractice.thisN,trialsPractice.thisIndex,textWelcome.started,textBlank500.started,textInstrFam.started,keyInstrFam.started,keyInstrFam.keys,keyInstrFam.rt,textBlank500.stopped,fixationITI.started,fixationITI.stopped,polygonWhiteFam.started,imageFam.started,polygonWhiteFam.stopped,imageFam.stopped,textFam.started,textFam.stopped,textInstrPractice.started,keyInstrPractice.started,keyInstrPractice.keys,keyInstrPractice.rt,textCue.started,polygonCol.started,polygonWh.started,imagePractice.started,polygonText.started,textPractice.started,keyPractice.started,keyPractice.keys,keyPractice.corr,keyPractice.rt,subjResponse,participant,session,date,expName,psychopyVersion,frameRate,
,,,,,,,,,,,,,,,79.03545049999957,81.02907839999534,81.53114879998611,81.53114879998611,space,1.7943148000049405,,,,,,,,,,,,,,,,,,,,,,,,,,001,2023-05-26_13h54.33.241,REPSWITCH_1,2022.2.5,59.927032840343244,
REPSWITCH1_Fam/PICTURE_128.png,muñeca,,,,,,0,0,0,0,,,,,,92.62640239999746,,,,,84.07618589999038,84.07618589999038,85.27698249998502,85.27698249998502,85.27698249998502,89.27663720000419,89.27663720000419,89.64183259999845,,,,,,,,,,,,,,,,,,001,2023-05-26_13h54.33.241,REPSWITCH_1,2022.2.5,59.927032840343244,
REPSWITCH1_Fam/PICTURE_142.png,vaso,,,,,,0,1,1,1,,,,,,101.77375950000715,,,,,,93.12640569999348,94.37496899999678,94.37496899999678,94.37496899999678,98.37459089999902,98.37459089999902,98.77299639998819,,,,,,,,,,,,,,,,,,001,2023-05-26_13h54.33.241,REPSWITCH_1,2022.2.5,59.927032840343244,
REPSWITCH1_Fam/PICTURE_152.png,caracol,,,,,,0,2,2,2,,,,,,111.02181669999845,,,,,,102.27374599999166,103.63955500000156,103.63955500000156,103.63955500000156,107.63940419998835,107.63940419998835,108.02092290000292,,,,,,,,,,,,,,,,,,001,2023-05-26_13h54.33.241,REPSWITCH_1,2022.2.5,59.927032840343244,
REPSWITCH1_Fam/PICTURE_16.png,cazador,,,,,,0,3,3,3,,,,,,120.1864193000074,,,,,,111.52192930001183,112.80364190001274,112.80364190001274,112.80364190001274,116.80360129999463,116.80360129999463,117.1851425000059,,,,,,,,,,,,,,,,,,001,2023-05-26_13h54.33.241,REPSWITCH_1,2022.2.5,59.927032840343244,
REPSWITCH1_Fam/PICTURE_175.png,pintor,,,,,,0,4,4,4,,,,,,129.35081209999043,,,,,,120.6864373999997,121.96888100000797,121.96888100000797,121.96888100000797,125.96834240001044,125.96834240001044,126.35007330001099,,,,,,,,,,,,,,,,,,001,2023-05-26_13h54.33.241,REPSWITCH_1,2022.2.5,59.927032840343244,
REPSWITCH1_Fam/PICTURE_178.png,puente,,,,,,0,5,5,5,,,,,,138.49923889999627,,,,,,129.85141699999804,131.13271499998518,131.13271499998518,131.13271499998518,135.13241290001315,135.13241290001315,135.49767410001368,,,,,,,,,,,,,,,,,,001,2023-05-26_13h54.33.241,REPSWITCH_1,2022.2.5,59.927032840343244,
REPSWITCH1_Fam/PICTURE_19.png,pavo,,,,,,0,6,6,6,,,,,,147.5963183999993,,,,,,138.99904799999786,140.21431969999685,140.21431969999685,140.21431969999685,144.21387909998884,144.21387909998884,144.595367300004,,,,,,,,,,,,,,,,,,001,2023-05-26_13h54.33.241,REPSWITCH_1,2022.2.5,59.927032840343244,
REPSWITCH1_Fam/PICTURE_199.png,falda,,,,,,0,7,7,7,,,,,,156.79471449999255,,,,,,148.0967621000018,149.31191109999781,149.31191109999781,149.31191109999781,153.31170419999398,153.31170419999398,153.79324199998518,,,,,,,,,,,,,,,,,,001,2023-05-26_13h54.33.241,REPSWITCH_1,2022.2.5,59.927032840343244,
REPSWITCH1_Fam/PICTURE_235.png,aguja,,,,,,0,8,8,8,,,,,,165.95867279998492,,,,,,157.2944581999909,158.55958090000786,158.55958090000786,158.55958090000786,162.56064229999902,162.56064229999902,162.95774670000537,,,,,,,,,,,,,,,,,,001,2023-05-26_13h54.33.241,REPSWITCH_1,2022.2.5,59.927032840343244,
REPSWITCH1_Fam/PICTURE_242.png,cartero,,,,,,0,9,9,9,,,,,,175.25660049999715,,,,,,166.45856560001266,167.85724159999518,167.85724159999518,167.85724159999518,171.85736630001338,171.85736630001338,172.2554686999938,,,,,,,,,,,,,,,,,,001,2023-05-26_13h54.33.241,REPSWITCH_1,2022.2.5,59.927032840343244,
REPSWITCH1_Fam/PICTURE_264.png,mano,,,,,,0,10,10,10,,,,,,184.37090139999054,,,,,,175.75642670001253,176.9551378999895,176.9551378999895,176.9551378999895,180.95503819998703,180.95503819998703,181.36998190000304,,,,,,,,,,,,,,,,,,001,2023-05-26_13h54.33.241,REPSWITCH_1,2022.2.5,59.927032840343244,
REPSWITCH1_Fam/PICTURE_271.png,conejo,,,,,,0,11,11,11,,,,,,193.7034941999882,,,,,,184.8707613000006,186.20318700000644,186.20318700000644,186.20318700000644,190.2039334999863,190.2039334999863,190.70100030000322,,,,,,,,,,,,,,,,,,001,2023-05-26_13h54.33.241,REPSWITCH_1,2022.2.5,59.927032840343244,
REPSWITCH1_Fam/PICTURE_30.png,granja,,,,,,0,12,12,12,,,,,,202.74990110000363,,,,,,194.20188430001144,195.28452379998635,195.28452379998635,195.28452379998635,199.28388209998957,199.28388209998957,199.74878200000967,,,,,,,,,,,,,,,,,,001,2023-05-26_13h54.33.241,REPSWITCH_1,2022.2.5,59.927032840343244,
REPSWITCH1_Fam/PICTURE_319.png,vaca,,,,,,0,13,13,13,,,,,,211.9156365999952,,,,,,203.2497291000036,204.41542410000693,204.41542410000693,204.41542410000693,208.41611459999694,208.41611459999694,208.913229400001,,,,,,,,,,,,,,,,,,001,2023-05-26_13h54.33.241,REPSWITCH_1,2022.2.5,59.927032840343244,
REPSWITCH1_Fam/PICTURE_320.png,iglesia,,,,,,0,14,14,14,,,,,,220.9788389999885,,,,,,212.41424600000028,213.47992589999922,213.47992589999922,213.47992589999922,217.47966029998497,217.47966029998497,217.97791789998882,,,,,,,,,,,,,,,,,,001,2023-05-26_13h54.33.241,REPSWITCH_1,2022.2.5,59.927032840343244,
REPSWITCH1_Fam/PICTURE_354.png,cabra,,,,,,0,15,15,15,,,,,,230.09378419999848,,,,,,221.47868979998748,222.59455949999392,222.59455949999392,222.59455949999392,226.5942517000076,226.5942517000076,227.09242959998664,,,,,,,,,,,,,,,,,,001,2023-05-26_13h54.33.241,REPSWITCH_1,2022.2.5,59.927032840343244,
REPSWITCH1_Fam/PICTURE_377.png,babero,,,,,,0,16,16,16,,,,,,239.1743637000036,,,,,,230.5934025000024,231.6754621999862,231.6754621999862,231.6754621999862,235.67528200001107,235.67528200001107,236.17342279999866,,,,,,,,,,,,,,,,,,001,2023-05-26_13h54.33.241,REPSWITCH_1,2022.2.5,59.927032840343244,
REPSWITCH1_Fam/PICTURE_381.png,fresa,,,,,,0,17,17,17,,,,,,248.2720571999962,,,,,248.77283289999468,239.67527479998535,240.79004389999318,240.79004389999318,240.79004389999318,244.78953449998517,244.78953449998517,245.27274169999873,248.2720571999962,,,,,,,,,,,,,,,,,001,2023-05-26_13h54.33.241,REPSWITCH_1,2022.2.5,59.927032840343244,
REPSWITCH1_Fam/PICTURE_411.png,puño,,,,,,0,18,18,18,,,,,,257.35330509999767,,,,,,248.77283289999468,249.85471340001095,249.85471340001095,249.85471340001095,253.85439550000592,253.85439550000592,254.35251580001204,,,,,,,,,,,,,,,,,,001,2023-05-26_13h54.33.241,REPSWITCH_1,2022.2.5,59.927032840343244,
REPSWITCH1_Fam/PICTURE_48.png,bombero,,,,,,0,19,19,19,,,,,,266.4512104000023,,,,,,257.8532108000072,259.05253190000076,259.05253190000076,259.05253190000076,263.05182250001235,263.05182250001235,263.45024080001167,,,,,,,,,,,,,,,,,,001,2023-05-26_13h54.33.241,REPSWITCH_1,2022.2.5,59.927032840343244,
REPSWITCH1_Fam/PICTURE_487.png,cesta,,,,,,0,20,20,20,,,,,,275.7664300999895,,,,,,266.95114280001144,268.2832844000077,268.2832844000077,268.2832844000077,272.2840118999884,272.2840118999884,272.7644985000079,,,,,,,,,,,,,,,,,,001,2023-05-26_13h54.33.241,REPSWITCH_1,2022.2.5,59.927032840343244,
REPSWITCH1_Fam/PICTURE_517.png,cuerda,,,,,,0,21,21,21,,,,,,285.0645414000028,,,,,,276.26616659999127,277.680870399985,277.680870399985,277.680870399985,281.6808164000104,281.6808164000104,282.06242279999424,,,,,,,,,,,,,,,,,,001,2023-05-26_13h54.33.241,REPSWITCH_1,2022.2.5,59.927032840343244,
REPSWITCH1_Fam/PICTURE_552.png,manzana,,,,,,0,22,22,22,,,,,,294.22766249999404,,,,,,285.5635207000014,286.7621603999869,286.7621603999869,286.7621603999869,290.76186649999,290.76186649999,291.2268587999861,,,,,,,,,,,,,,,,,,001,2023-05-26_13h54.33.241,REPSWITCH_1,2022.2.5,59.927032840343244,
REPSWITCH1_Fam/PICTURE_576.png,guante,,,,,,0,23,23,23,,,,,,303.42501790000824,,,,,,294.72784559999127,295.95989309999277,295.95989309999277,295.95989309999277,299.9597696000128,299.9597696000128,300.4094121000089,,,,,,,,,,,,,,,,,,001,2023-05-26_13h54.33.241,REPSWITCH_1,2022.2.5,59.927032840343244,
REPSWITCH1_Fam/PICTURE_610.png,miel,,,,,,0,24,24,24,,,,,,312.5069408999989,,,,,313.0067987999937,303.9253112000006,305.22410759999184,305.22410759999184,305.22410759999184,309.22399239998776,309.22399239998776,309.5077913000132,312.5069408999989,,,,,,,,,,,,,,,,,001,2023-05-26_13h54.33.241,REPSWITCH_1,2022.2.5,59.927032840343244,
REPSWITCH1_Fam/PICTURE_622.png,tiza,,,,,,0,25,25,25,,,,,,321.80580120001105,,,,,,313.0067987999937,314.322073599993,314.322073599993,314.322073599993,318.32213019998744,318.32213019998744,318.80362660001265,,,,,,,,,,,,,,,,,,001,2023-05-26_13h54.33.241,REPSWITCH_1,2022.2.5,59.927032840343244,
REPSWITCH1_Fam/PICTURE_636.png,oveja,,,,,,0,26,26,26,,,,,,330.93584819999523,,,,,,322.30510030000005,323.55337559999316,323.55337559999316,323.55337559999316,327.55387760000303,327.55387760000303,327.9349571999919,,,,,,,,,,,,,,,,,,001,2023-05-26_13h54.33.241,REPSWITCH_1,2022.2.5,59.927032840343244,
REPSWITCH1_Fam/PICTURE_664.png,vestido,,,,,,0,27,27,27,,,,,,340.0334012999956,,,,,,331.4358768000093,332.5509844000044,332.5509844000044,332.5509844000044,336.55097879999084,336.55097879999084,337.0326913000026,,,,,,,,,,,,,,,,,,001,2023-05-26_13h54.33.241,REPSWITCH_1,2022.2.5,59.927032840343244,
REPSWITCH1_Fam/PICTURE_687.png,camisa,,,,,,0,28,28,28,,,,,,349.18138250001357,,,,,,340.53470829999424,341.6989743000013,341.6989743000013,341.6989743000013,345.6986489999981,345.6986489999981,346.1804512999952,,,,,,,,,,,,,,,,,,001,2023-05-26_13h54.33.241,REPSWITCH_1,2022.2.5,59.927032840343244,
REPSWITCH1_Fam/PICTURE_719.png,baño,,,,,,0,29,29,29,,,,,,358.22933279999415,,,,,,349.68140299999504,350.74670499999775,350.74670499999775,350.74670499999775,354.7467224000138,354.7467224000138,355.2283989000134,,,,,,,,,,,,,,,,,,001,2023-05-26_13h54.33.241,REPSWITCH_1,2022.2.5,59.927032840343244,
REPSWITCH1_Fam/PICTURE_8.png,pierna,,,,,,0,30,30,30,,,,,,367.34345909999683,,,,,,358.7306043000135,359.8945563999878,359.8945563999878,359.8945563999878,363.8941286999907,363.8941286999907,364.3428367000015,,,,,,,,,,,,,,,,,,001,2023-05-26_13h54.33.241,REPSWITCH_1,2022.2.5,59.927032840343244,
REPSWITCH1_Fam/PICTURE_91.png,boca,,,,,,0,31,31,31,,,,,,376.5414338000119,,,,,377.042321099987,367.84356830001343,369.091396600008,369.091396600008,369.091396600008,373.092550500005,373.092550500005,373.52549659999204,376.52483599999687,,,,,,,,,,,,,,,,,001,2023-05-26_13h54.33.241,REPSWITCH_1,2022.2.5,59.927032840343244,
,,,,,,,,,,,,,,,,,,,,,,,,,,,,,,377.042321099987,377.042321099987,space,11.770039399998495,,,,,,,,,,,,,001,2023-05-26_13h54.33.241,REPSWITCH_1,2022.2.5,59.927032840343244,
REPSWITCH1_Practice/PICTURE_612.png,rana,speak,yellow,nontarget,2,NT,,,,,0,0,0,0,,393.4855131999939,,,,,389.4362301999936,389.4362301999936,390.604639600002,,,,,,,,,,,390.604639600002,390.604639600002,390.604639600002,390.604639600002,390.604639600002,390.604639600002,390.604639600002,"['f', 'r', 'o', 'g']",0,"[1.7968232000130229, 1.9277765000006184, 2.00863520000712, 2.1480856999987736]",,,001,2023-05-26_13h54.33.241,REPSWITCH_1,2022.2.5,59.927032840343244,
REPSWITCH1_Practice/PICTURE_612.png,rana,speak,yellow,repeat,2,T,,,,,0,1,1,1,,398.08608609999646,,,,,,393.970350699994,395.0866617000138,,,,,,,,,,,395.0866617000138,395.0866617000138,395.0866617000138,395.0866617000138,395.0866617000138,395.0866617000138,395.0866617000138,"['f', 'r', 'o', 'g']",0,"[0.7289549999986775, 0.867968300008215, 1.0350509000127204, 1.2702989999961574]",,,001,2023-05-26_13h54.33.241,REPSWITCH_1,2022.2.5,59.927032840343244,
,,,,,,,,,,,,,,,,402.63496779999696,,,,,,398.58663199999137,399.8018826000043,,,,,,,,,,,399.8018826000043,399.8018826000043,399.8018826000043,399.8018826000043,399.8018826000043,399.8018826000043,399.8018826000043,"['c', 'l', 'o', 'u', 'f']",0,"[1.2025916999846231, 1.312506599992048, 1.499848599982215, 1.6572814999963157, 1.7532770999823697]",,,,,,,,
