image,correctAns,respModal,frameColor,repSwitch,sequence,target,famTrials.thisRepN,famTrials.thisTrialN,famTrials.thisN,famTrials.thisIndex,trialsPractice.thisRepN,trialsPractice.thisTrialN,trialsPractice.thisN,trialsPractice.thisIndex,textWelcome.started,textBlank500.started,textInstrFam.started,keyInstrFam.started,keyInstrFam.keys,keyInstrFam.rt,textBlank500.stopped,fixationITI.started,fixationITI.stopped,polygonWhiteFam.started,imageFam.started,polygonWhiteFam.stopped,imageFam.stopped,textFam.started,textFam.stopped,textInstrPractice.started,keyInstrPractice.started,keyInstrPractice.keys,keyInstrPractice.rt,textCue.started,polygonCol.started,polygonWh.started,imagePractice.started,polygonText.started,textPractice.started,keyPractice.started,keyPractice.keys,keyPractice.corr,subjResponse,textCue.stopped,polygonCol.stopped,polygonWh.stopped,imagePractice.stopped,polygonText.stopped,textPractice.stopped,keyPractice.stopped,keyPractice.rt,participant,session,date,expName,psychopyVersion,frameRate,
,,,,,,,,,,,,,,,38.62406109998119,40.63678979998804,41.13787469998351,41.13787469998351,space,1.5479322000173852,,,,,,,,,,,,,,,,,,,,,,,,,,,,,,,,,001,2023-05-26_14h26.04.804,REPSWITCH_1,2022.2.5,60.00693679882836,
REPSWITCH1_Fam/PICTURE_128.png,muñeca,,,,,,0,0,0,0,,,,,,51.98418460000539,,,,,52.48405499997898,43.41802059998736,44.55206749998615,44.55206749998615,44.55206749998615,48.5526239000028,48.5526239000028,48.98437269998249,51.98418460000539,,,,,,,,,,,,,,,,,,,,,,,,001,2023-05-26_14h26.04.804,REPSWITCH_1,2022.2.5,60.00693679882836,
REPSWITCH1_Fam/PICTURE_142.png,vaso,,,,,,0,1,1,1,,,,,,61.09892059999402,,,,,61.598480899992865,52.48405499997898,53.71656629999052,53.71656629999052,53.71656629999052,57.71629189999658,57.71629189999658,58.09925070000463,61.09892059999402,,,,,,,,,,,,,,,,,,,,,,,,001,2023-05-26_14h26.04.804,REPSWITCH_1,2022.2.5,60.00693679882836,
REPSWITCH1_Fam/PICTURE_152.png,caracol,,,,,,0,2,2,2,,,,,,70.31336939998437,,,,,70.81307579998975,61.598480899992865,62.81580769998254,62.81580769998254,62.81580769998254,66.83081889999448,66.83081889999448,67.3136031999893,70.31336939998437,,,,,,,,,,,,,,,,,,,,,,,,001,2023-05-26_14h26.04.804,REPSWITCH_1,2022.2.5,60.00693679882836,
REPSWITCH1_Fam/PICTURE_16.png,cazador,,,,,,0,3,3,3,,,,,,79.41123919998063,,,,,79.91082099999767,70.81307579998975,72.02892609999981,72.02892609999981,72.02892609999981,76.0286158999952,76.0286158999952,76.39516039998853,79.39454259999911,,,,,,,,,,,,,,,,,,,,,,,,001,2023-05-26_14h26.04.804,REPSWITCH_1,2022.2.5,60.00693679882836,
REPSWITCH1_Fam/PICTURE_175.png,pintor,,,,,,0,4,4,4,,,,,,88.6263784999901,,,,,,79.91082099999767,81.11158729999443,81.11158729999443,81.11158729999443,85.1269459000032,85.1269459000032,85.60940230000415,,,,,,,,,,,,,,,,,,,,,,,,,001,2023-05-26_14h26.04.804,REPSWITCH_1,2022.2.5,60.00693679882836,
REPSWITCH1_Fam/PICTURE_178.png,puente,,,,,,0,5,5,5,,,,,,97.80685500000254,,,,,98.30668489998789,89.1252493999782,90.30927050000173,90.30927050000173,90.30927050000173,94.32422369997948,94.32422369997948,94.80697299999883,97.80685500000254,,,,,,,,,,,,,,,,,,,,,,,,001,2023-05-26_14h26.04.804,REPSWITCH_1,2022.2.5,60.00693679882836,
REPSWITCH1_Fam/PICTURE_19.png,pavo,,,,,,0,6,6,6,,,,,,107.00446060000104,,,,,107.50437710000551,98.30668489998789,99.90573769999901,99.90573769999901,99.90573769999901,103.90526739999768,103.90526739999768,104.0053188999882,107.00446060000104,,,,,,,,,,,,,,,,,,,,,,,,001,2023-05-26_14h26.04.804,REPSWITCH_1,2022.2.5,60.00693679882836,
REPSWITCH1_Fam/PICTURE_199.png,falda,,,,,,0,7,7,7,,,,,,116.21880800000508,,,,,116.71896979998564,107.50437710000551,108.7213281999866,108.7213281999866,108.7213281999866,112.73651950000203,112.73651950000203,113.21958849998191,116.21880800000508,,,,,,,,,,,,,,,,,,,,,,,,001,2023-05-26_14h26.04.804,REPSWITCH_1,2022.2.5,60.00693679882836,
REPSWITCH1_Fam/PICTURE_235.png,aguja,,,,,,0,8,8,8,,,,,,125.30014079998364,,,,,,116.71896979998564,117.78568289999384,117.78568289999384,117.78568289999384,121.78415940000559,121.78415940000559,122.2842524999869,,,,,,,,,,,,,,,,,,,,,,,,,001,2023-05-26_14h26.04.804,REPSWITCH_1,2022.2.5,60.00693679882836,
REPSWITCH1_Fam/PICTURE_242.png,cartero,,,,,,0,9,9,9,,,,,,134.41469409997808,,,,,134.91446729999734,125.79998779998277,126.91688330000034,126.91688330000034,126.91688330000034,130.91525329998694,130.91525329998694,131.41512369998964,134.41469409997808,,,,,,,,,,,,,,,,,,,,,,,,001,2023-05-26_14h26.04.804,REPSWITCH_1,2022.2.5,60.00693679882836,
REPSWITCH1_Fam/PICTURE_264.png,mano,,,,,,0,10,10,10,,,,,,143.71208329999354,,,,,144.2121697999828,134.91446729999734,136.58020070000202,136.58020070000202,136.58020070000202,140.57959059998393,140.57959059998393,140.7130864999781,143.71208329999354,,,,,,,,,,,,,,,,,,,,,,,,001,2023-05-26_14h26.04.804,REPSWITCH_1,2022.2.5,60.00693679882836,
REPSWITCH1_Fam/PICTURE_271.png,conejo,,,,,,0,11,11,11,,,,,,152.8934142999933,,,,,153.39327869997942,144.2121697999828,145.39602839999134,145.39602839999134,145.39602839999134,149.41083369997796,149.41083369997796,149.89384360000258,152.8934142999933,,,,,,,,,,,,,,,,,,,,,,,,001,2023-05-26_14h26.04.804,REPSWITCH_1,2022.2.5,60.00693679882836,
REPSWITCH1_Fam/PICTURE_30.png,granja,,,,,,0,12,12,12,,,,,,162.05733680000412,,,,,162.5577282999875,153.39327869997942,154.84208339999896,154.84208339999896,154.84208339999896,158.84191619997728,158.84191619997728,159.05866969999624,162.05733680000412,,,,,,,,,,,,,,,,,,,,,,,,001,2023-05-26_14h26.04.804,REPSWITCH_1,2022.2.5,60.00693679882836,
REPSWITCH1_Fam/PICTURE_319.png,vaca,,,,,,0,13,13,13,,,,,,171.22304779998376,,,,,171.72203390000504,162.5577282999875,163.7249738999817,163.7249738999817,163.7249738999817,167.73992789999465,167.73992789999465,168.22304519999307,171.22304779998376,,,,,,,,,,,,,,,,,,,,,,,,001,2023-05-26_14h26.04.804,REPSWITCH_1,2022.2.5,60.00693679882836,
REPSWITCH1_Fam/PICTURE_320.png,iglesia,,,,,,0,14,14,14,,,,,,180.36969959997805,,,,,180.86959679998108,171.72203390000504,172.87276649998967,172.87276649998967,172.87276649998967,176.8875973999966,176.8875973999966,177.37060719999135,180.36969959997805,,,,,,,,,,,,,,,,,,,,,,,,001,2023-05-26_14h26.04.804,REPSWITCH_1,2022.2.5,60.00693679882836,
REPSWITCH1_Fam/PICTURE_354.png,cabra,,,,,,0,15,15,15,,,,,,189.43471129998215,,,,,189.9346835000033,180.86959679998108,181.93718749997788,181.93718749997788,181.93718749997788,185.93530230000033,185.93530230000033,186.43538219999755,189.43471129998215,,,,,,,,,,,,,,,,,,,,,,,,001,2023-05-26_14h26.04.804,REPSWITCH_1,2022.2.5,60.00693679882836,
REPSWITCH1_Fam/PICTURE_377.png,babero,,,,,,0,16,16,16,,,,,,198.59900529999868,,,,,199.0990165999974,189.9346835000033,191.10148549999576,191.10148549999576,191.10148549999576,195.09972800000105,195.09972800000105,195.59978379998938,198.59900529999868,,,,,,,,,,,,,,,,,,,,,,,,001,2023-05-26_14h26.04.804,REPSWITCH_1,2022.2.5,60.00693679882836,
REPSWITCH1_Fam/PICTURE_381.png,fresa,,,,,,0,17,17,17,,,,,,207.7634537999984,,,,,208.26365330000408,199.0990165999974,200.26623589999508,200.26623589999508,200.26623589999508,204.28074479999486,204.28074479999486,204.76423839997733,207.7634537999984,,,,,,,,,,,,,,,,,,,,,,,,001,2023-05-26_14h26.04.804,REPSWITCH_1,2022.2.5,60.00693679882836,
REPSWITCH1_Fam/PICTURE_411.png,puño,,,,,,0,18,18,18,,,,,,216.84446480000042,,,,,217.34453969998867,208.26365330000408,209.34727840000414,209.34727840000414,209.34727840000414,213.36196189999464,213.36196189999464,213.84522719998495,216.84446480000042,,,,,,,,,,,,,,,,,,,,,,,,001,2023-05-26_14h26.04.804,REPSWITCH_1,2022.2.5,60.00693679882836,
REPSWITCH1_Fam/PICTURE_48.png,bombero,,,,,,0,19,19,19,,,,,,225.99343370000133,,,,,226.49211910000304,217.34453969998867,218.61042399998405,218.61042399998405,218.61042399998405,222.6101718999853,222.6101718999853,222.99309239999275,225.99343370000133,,,,,,,,,,,,,,,,,,,,,,,,001,2023-05-26_14h26.04.804,REPSWITCH_1,2022.2.5,60.00693679882836,
REPSWITCH1_Fam/PICTURE_487.png,cesta,,,,,,0,20,20,20,,,,,,235.00698129998636,,,,,235.50658499999554,226.49211910000304,227.60805179999443,227.60805179999443,227.60805179999443,231.60799069999484,231.60799069999484,232.00771579999127,235.00698129998636,,,,,,,,,,,,,,,,,,,,,,,,001,2023-05-26_14h26.04.804,REPSWITCH_1,2022.2.5,60.00693679882836,
REPSWITCH1_Fam/PICTURE_517.png,cuerda,,,,,,0,21,21,21,,,,,,244.3046424999775,,,,,,235.50658499999554,236.79082460000063,236.79082460000063,236.79082460000063,240.80513659998542,240.80513659998542,241.2887858999893,,,,,,,,,,,,,,,,,,,,,,,,,001,2023-05-26_14h26.04.804,REPSWITCH_1,2022.2.5,60.00693679882836,
REPSWITCH1_Fam/PICTURE_552.png,manzana,,,,,,0,22,22,22,,,,,,253.48595050000586,,,,,253.98568369998247,244.80470549999154,245.9883964000037,245.9883964000037,245.9883964000037,249.9869699999981,249.9869699999981,250.48644369997783,253.48595050000586,,,,,,,,,,,,,,,,,,,,,,,,001,2023-05-26_14h26.04.804,REPSWITCH_1,2022.2.5,60.00693679882836,
REPSWITCH1_Fam/PICTURE_576.png,guante,,,,,,0,23,23,23,,,,,,262.5673606999917,,,,,263.0667994999967,253.98568369998247,255.08501129999058,255.08501129999058,255.08501129999058,259.0845791999891,259.0845791999891,259.5677184999804,262.5673606999917,,,,,,,,,,,,,,,,,,,,,,,,001,2023-05-26_14h26.04.804,REPSWITCH_1,2022.2.5,60.00693679882836,
REPSWITCH1_Fam/PICTURE_610.png,miel,,,,,,0,24,24,24,,,,,,271.74798749998445,,,,,272.2480028999853,263.0667994999967,264.2507222999993,264.2507222999993,264.2507222999993,268.2658009000006,268.2658009000006,268.74850940000033,271.74798749998445,,,,,,,,,,,,,,,,,,,,,,,,001,2023-05-26_14h26.04.804,REPSWITCH_1,2022.2.5,60.00693679882836,
REPSWITCH1_Fam/PICTURE_622.png,tiza,,,,,,0,25,25,25,,,,,,280.8959198999801,,,,,281.3957509000029,272.2480028999853,273.39873079999234,273.39873079999234,273.39873079999234,277.41341399998055,277.41341399998055,277.8965651000035,280.8959198999801,,,,,,,,,,,,,,,,,,,,,,,,001,2023-05-26_14h26.04.804,REPSWITCH_1,2022.2.5,60.00693679882836,
REPSWITCH1_Fam/PICTURE_636.png,oveja,,,,,,0,26,26,26,,,,,,289.9269803999923,,,,,290.42704339997726,281.3957509000029,282.4293541999941,282.4293541999941,282.4293541999941,286.4312641999859,286.4312641999859,286.91179569999804,289.9269803999923,,,,,,,,,,,,,,,,,,,,,,,,001,2023-05-26_14h26.04.804,REPSWITCH_1,2022.2.5,60.00693679882836,
REPSWITCH1_Fam/PICTURE_664.png,vestido,,,,,,0,27,27,27,,,,,,299.00843069999246,,,,,299.50793890000205,290.42704339997726,291.5687830999959,291.5687830999959,291.5687830999959,295.5757920999895,295.5757920999895,296.009077900002,299.00843069999246,,,,,,,,,,,,,,,,,,,,,,,,001,2023-05-26_14h26.04.804,REPSWITCH_1,2022.2.5,60.00693679882836,
REPSWITCH1_Fam/PICTURE_687.png,camisa,,,,,,0,28,28,28,,,,,,308.1729783999908,,,,,308.67252039999585,299.50793890000205,300.6752179999894,300.6752179999894,300.6752179999894,304.6903253000055,304.6903253000055,305.17353559998446,308.1729783999908,,,,,,,,,,,,,,,,,,,,,,,,001,2023-05-26_14h26.04.804,REPSWITCH_1,2022.2.5,60.00693679882836,
REPSWITCH1_Fam/PICTURE_719.png,baño,,,,,,0,29,29,29,,,,,,317.2207550999883,,,,,317.7204269999929,308.67252039999585,309.72322529999656,309.72322529999656,309.72322529999656,313.7380501999869,313.7380501999869,314.2048788999964,317.20374430000084,,,,,,,,,,,,,,,,,,,,,,,,001,2023-05-26_14h26.04.804,REPSWITCH_1,2022.2.5,60.00693679882836,
REPSWITCH1_Fam/PICTURE_8.png,pierna,,,,,,0,30,30,30,,,,,,326.38491140000406,,,,,326.8848514999845,317.7204269999929,319.1693482999981,319.1693482999981,319.1693482999981,323.168800799991,323.168800799991,323.3860087999783,326.38491140000406,,,,,,,,,,,,,,,,,,,,,,,,001,2023-05-26_14h26.04.804,REPSWITCH_1,2022.2.5,60.00693679882836,
REPSWITCH1_Fam/PICTURE_91.png,boca,,,,,,0,31,31,31,,,,,,335.4494474999956,,,,,335.9501672000042,326.8848514999845,328.06715509999776,328.06715509999776,328.06715509999776,332.067200999998,332.067200999998,332.45011689999956,335.4494474999956,,,,,,,,,,,,,,,,,,,,,,,,001,2023-05-26_14h26.04.804,REPSWITCH_1,2022.2.5,60.00693679882836,
,,,,,,,,,,,,,,,,,,,,,,,,,,,,,,335.9501672000042,335.9501672000042,space,7.107360499998322,,,,,,,,,,,,,,,,,,,,001,2023-05-26_14h26.04.804,REPSWITCH_1,2022.2.5,60.00693679882836,
REPSWITCH1_Practice/PICTURE_612.png,rana,speak,yellow,nontarget,2,NT,,,,,0,0,0,0,,348.26168649998726,,,,,343.94604399998207,343.94604399998207,345.34711929998593,,,,,,,,,,,345.34711929998593,345.34711929998593,345.34711929998593,345.34711929998593,345.34711929998593,345.34711929998593,345.34711929998593,None,0,,,,,,,,,,,001,2023-05-26_14h26.04.804,REPSWITCH_1,2022.2.5,60.00693679882836,
REPSWITCH1_Practice/PICTURE_612.png,rana,speak,yellow,repeat,2,T,,,,,0,1,1,1,,352.8285282999859,,,,,353.3285995000042,348.66389729999355,349.8303190000006,,,,,,,,,,,349.8303190000006,349.8303190000006,349.8303190000006,349.8303190000006,349.8303190000006,349.8303190000006,349.8303190000006,None,0,,352.8285282999859,352.8285282999859,352.8285282999859,352.8285282999859,352.8285282999859,352.8285282999859,352.8285282999859,,,001,2023-05-26_14h26.04.804,REPSWITCH_1,2022.2.5,60.00693679882836,
REPSWITCH1_Practice/PICTURE_599.png,nube,type,blue,filler,1,F,,,,,0,2,2,2,,357.41079929997795,,,,,,353.3285995000042,354.49442919998546,,,,,,,,,,,354.49442919998546,354.49442919998546,354.49442919998546,354.49442919998546,354.49442919998546,354.49442919998546,354.49442919998546,"['h', 'c', 'l', 'u', 'i', 'c', 'j', 'v', 'g', 'c', 'l', 'u', 'l']",0,,,,,,,,,"[0.8598830999981146, 0.9245053000049666, 1.1812806999951135, 1.2043637000024319, 1.3322214999934658, 1.3416460999869741, 1.370681100001093, 1.4153701000032015, 1.8513295000011567, 1.9041933999978937, 2.0439639999822248, 2.0531322000024375, 2.626260499993805]",,001,2023-05-26_14h26.04.804,REPSWITCH_1,2022.2.5,60.00693679882836,
,,,,,,,,,,,,,,,,,,,,,,357.9110157999967,,,,,,,,,,,,,,,,,,,,,,,,,,,,,,,,,,,,
