image,correctAns,respModal,frameColour,repSwitch,sequence,target,stimulus,trialsREPSWITCH.thisRepN,trialsREPSWITCH.thisTrialN,trialsREPSWITCH.thisN,trialsREPSWITCH.thisIndex,textWelcome.started,textBlank500.started,textInstructions.started,keyInstructions.started,keyInstructions.keys,keyInstructions.rt,textBlank500.stopped,fixationITI.started,fixationITI.stopped,polygonColour.started,polygonWhite.started,imageObject.started,textInput.started,keyResp.started,micResp.started,keyResp.keys,keyResp.rt,subjResponse,micResp.clip,polygonColour.stopped,polygonWhite.stopped,imageObject.stopped,textInput.stopped,keyResp.stopped,micResp.stopped,participant,session,date,expName,psychopyVersion,frameRate,
,,,,,,,,,,,,98.70805789998849,100.6874259999895,101.1878546999942,101.1878546999942,space,1.18954899997334,,,,,,,,,,,,,,,,,,,,,001,2023-05-08_10h10.24.394,REPSWITCH_1,2022.2.5,60.58241510448269,
REPSWITCH1/PICTURE_1.png,ratón,speak,red,nontarget,2,NT,Stim1_Set1,0,0,0,0,,107.35074349999195,,,,,103.08464079999248,103.08464079999248,104.40236849998473,104.40236849998473,104.40236849998473,104.40236849998473,104.40236849998473,104.40236849998473,0.04173190001165494,"['m', 'o', 'u', 's', 'e']","[1.8676676000177395, 2.017674000002444, 2.105528400017647, 2.2123447000049055, 2.2655549999908544]",mouse,D:\GitHub\experiment1\data/_REPSWITCH_1_2023-05-08_10h10.24.394_micResp_recorded\recording_micResp_2023-05-08_10h10.40.941.wav,,,,,,,,001,2023-05-08_10h10.24.394,REPSWITCH_1,2022.2.5,60.58241510448269,
REPSWITCH1/PICTURE_1.png,ratón,speak,red,repeat,2,T,Stim1_Set1,0,1,1,1,,111.88301679998403,,,,,,107.8355634000036,108.8693255999824,108.8693255999824,108.8693255999824,108.8693255999824,108.8693255999824,108.8693255999824,0.002500599977793172,"['m', 'o', 'u', 's', 'e']","[0.9979500999907032, 1.1382602999801748, 1.2525391999806743, 1.3428114999842364, 1.4396156999864615]",mouse,D:\GitHub\experiment1\data/_REPSWITCH_1_2023-05-08_10h10.24.394_micResp_recorded\recording_micResp_2023-05-08_10h10.45.467.wav,111.88301679998403,111.88301679998403,111.88301679998403,111.88301679998403,111.88301679998403,2.9994279999809805,,001,2023-05-08_10h10.24.394,REPSWITCH_1,2022.2.5,60.58241510448269,
REPSWITCH1/PICTURE_599.png,nube,type,blue,filler,1,F,Stim1_Set3,0,2,2,2,,116.56519160000607,,,,,,112.38405639998382,113.6503323999932,113.6503323999932,113.6503323999932,113.6503323999932,113.6503323999932,113.6503323999932,0.10946159999002703,"['c', 'l', 'o', 'u', 'd']","[1.594191399984993, 1.6903485000075307, 1.8664787999878172, 1.9440153999894392, 2.0413911000068765]",cloud,D:\GitHub\experiment1\data/_REPSWITCH_1_2023-05-08_10h10.24.394_micResp_recorded\recording_micResp_2023-05-08_10h10.50.150.wav,,,,,,,,001,2023-05-08_10h10.24.394,REPSWITCH_1,2022.2.5,60.58241510448269,
REPSWITCH1/PICTURE_110.png,mesa,speak,red,nontarget,2,NT,Stim2_Set1,0,3,3,3,,121.34725520000211,,,,,,117.04993969999487,118.43232989998069,118.43232989998069,118.43232989998069,118.43232989998069,118.43232989998069,118.43232989998069,0.10742660000687465,"['m', 'e', 's', 'a']","[0.8684107000008225, 1.0609429999894928, 1.220777700014878, 1.3965052000130527]",mesa,D:\GitHub\experiment1\data/_REPSWITCH_1_2023-05-08_10h10.24.394_micResp_recorded\recording_micResp_2023-05-08_10h10.54.930.wav,,,,,,,,001,2023-05-08_10h10.24.394,REPSWITCH_1,2022.2.5,60.58241510448269,
REPSWITCH1/PICTURE_110.png,mesa,speak,red,repeat,2,T,Stim2_Set1,0,4,4,4,,126.17965259999619,,,,,,121.832241600001,123.16594889998669,123.16594889998669,123.16594889998669,123.16594889998669,123.16594889998669,123.16594889998669,0.002523800008930266,"['m', 'e', 's', 'a']","[1.7232751999981701, 1.8195049999922048, 1.897704100003466, 2.028884500003187]",mesa,D:\GitHub\experiment1\data/_REPSWITCH_1_2023-05-08_10h10.24.394_micResp_recorded\recording_micResp_2023-05-08_10h10.59.762.wav,,,,,,,,001,2023-05-08_10h10.24.394,REPSWITCH_1,2022.2.5,60.58241510448269,
REPSWITCH1/PICTURE_610.png,miel,type,blue,filler,1,F,Stim2_Set3,0,5,5,5,,130.84510139998747,,,,,,126.68098780000582,127.91363209998235,127.91363209998235,127.91363209998235,127.91363209998235,127.91363209998235,127.91363209998235,0.10089060000609607,"['h', 'o', 'n', 'e', 'y']","[1.2641653000027873, 1.3942166000197176, 1.5846138000197243, 1.6908621000184212, 1.8357207000080962]",honey,D:\GitHub\experiment1\data/_REPSWITCH_1_2023-05-08_10h10.24.394_micResp_recorded\recording_micResp_2023-05-08_10h11.04.430.wav,,,,,,,,001,2023-05-08_10h10.24.394,REPSWITCH_1,2022.2.5,60.58241510448269,
REPSWITCH1/PICTURE_12.png,sirena,speak,red,nontarget,2,NT,Stim3_Set1,0,6,6,6,,135.44364599999972,,,,,,131.33003219999955,132.5290445999999,132.5290445999999,132.5290445999999,132.5290445999999,132.5290445999999,132.5290445999999,0.11044330001459457,"['s', 'i', 'r', 'e', 'n', 'e']","[1.3142157999973278, 1.4896498000016436, 1.6622041999944486, 1.7461919999914244, 2.140258700004779, 2.2294383000116795]",sirene,D:\GitHub\experiment1\data/_REPSWITCH_1_2023-05-08_10h10.24.394_micResp_recorded\recording_micResp_2023-05-08_10h11.09.030.wav,,,,,,,,001,2023-05-08_10h10.24.394,REPSWITCH_1,2022.2.5,60.58241510448269,
REPSWITCH1/PICTURE_12.png,sirena,type,blue,switch,1,T,Stim3_Set1,0,7,7,7,,140.17611830000533,,,,,,135.9290921999782,137.16246599997976,137.16246599997976,137.16246599997976,137.16246599997976,137.16246599997976,137.16246599997976,0.0026694000116549432,"['s', 'i', 'r', 'e', 'n', 'e']","[1.2788630000140984, 1.3965024999924935, 1.5255102000082843, 1.5946266000100877, 1.7080125999927986, 1.7651592000038363]",sirene,D:\GitHub\experiment1\data/_REPSWITCH_1_2023-05-08_10h10.24.394_micResp_recorded\recording_micResp_2023-05-08_10h11.13.761.wav,140.17611830000533,140.17611830000533,140.17611830000533,140.17611830000533,140.17611830000533,2.9997418000129983,,001,2023-05-08_10h10.24.394,REPSWITCH_1,2022.2.5,60.58241510448269,
REPSWITCH1/PICTURE_128.png,muñeca,type,blue,nontarget,1,NT,Stim4_Set1,0,8,8,8,,145.05830999999307,,,,,,140.6779542999866,142.06048369998462,142.06048369998462,142.06048369998462,142.06048369998462,142.06048369998462,142.06048369998462,0.00952969997888431,"['p', 'o', 'u', 'e', 'p', 'backspace']","[1.1984527000167873, 1.3346336999966297, 1.4115158000204246, 1.6186798000126146, 1.6762172000017017, 2.5341426000231877]",poue,D:\GitHub\experiment1\data/_REPSWITCH_1_2023-05-08_10h10.24.394_micResp_recorded\recording_micResp_2023-05-08_10h11.18.639.wav,,,,,,,,001,2023-05-08_10h10.24.394,REPSWITCH_1,2022.2.5,60.58241510448269,
REPSWITCH1/PICTURE_128.png,muñeca,speak,red,switch,2,T,Stim4_Set1,0,9,9,9,,149.72375989999273,,,,,,145.5598192999896,146.7102193000028,146.7102193000028,146.7102193000028,146.7102193000028,146.7102193000028,146.7102193000028,0.002391599991824478,"['p', 'o', 'u', 'e', 'p', 'e', 'e']","[1.1191195000137668, 1.2451100000180304, 1.3796731000184081, 1.5367799999949057, 1.6407733999949414, 1.7373382000077982, 1.8926037000201177]",pouepee,D:\GitHub\experiment1\data/_REPSWITCH_1_2023-05-08_10h10.24.394_micResp_recorded\recording_micResp_2023-05-08_10h11.23.307.wav,,,,,,,,001,2023-05-08_10h10.24.394,REPSWITCH_1,2022.2.5,60.58241510448269,
REPSWITCH1/PICTURE_614.png,reina,speak,red,filler,2,F,Stim3_Set3,0,10,10,10,,154.50558599998476,,,,,,150.22567679997883,151.60749259998556,151.60749259998556,151.60749259998556,151.60749259998556,151.60749259998556,151.60749259998556,0.121940299984999,None,,,D:\GitHub\experiment1\data/_REPSWITCH_1_2023-05-08_10h10.24.394_micResp_recorded\recording_micResp_2023-05-08_10h11.28.093.wav,,,,,,,,001,2023-05-08_10h10.24.394,REPSWITCH_1,2022.2.5,60.58241510448269,
REPSWITCH1/PICTURE_141.png,girasol,speak,red,nontarget,2,NT,Stim5_Set1,0,11,11,11,,159.17125319998013,,,,,,154.99125739999,156.1734720999957,156.1734720999957,156.1734720999957,156.1734720999957,156.1734720999957,156.1734720999957,0.007721200003288686,"['t', 'o', 'u', 'r', 'n', 'e', 's', 'o', 'l', 'l']","[0.9879165999882389, 1.1026116000139154, 1.1346350999956485, 1.2512909999932162, 1.3900023000023793, 1.4398071999894455, 1.6162764999899082, 1.6948229999979958, 1.8544272999861278, 2.691169700003229]",tourneso,D:\GitHub\experiment1\data/_REPSWITCH_1_2023-05-08_10h10.24.394_micResp_recorded\recording_micResp_2023-05-08_10h11.32.760.wav,,,,,,,,001,2023-05-08_10h10.24.394,REPSWITCH_1,2022.2.5,60.58241510448269,
REPSWITCH1/PICTURE_141.png,girasol,type,blue,switch,1,T,Stim5_Set1,0,12,12,12,,163.82017389999237,,,,,,159.67326469998807,160.8073599000054,160.8073599000054,160.8073599000054,160.8073599000054,160.8073599000054,160.8073599000054,0.003972600010456517,"['t', 'o', 'u', 'r', 'n', 'e', 'l', 'backspace', 's', 'o', 'l', 'l']","[0.7449579999956768, 0.8604932999878656, 0.9093586999806575, 1.0163365999760572, 1.1238256999931764, 1.1916400999762118, 1.3274973999941722, 1.8293881999852601, 1.9403548999980558, 2.0823608999780845, 2.2375742999720387, 2.689158099994529]",tourneso,D:\GitHub\experiment1\data/_REPSWITCH_1_2023-05-08_10h10.24.394_micResp_recorded\recording_micResp_2023-05-08_10h11.37.407.wav,163.82017389999237,163.82017389999237,163.82017389999237,163.82017389999237,163.82017389999237,2.9995630999910645,,001,2023-05-08_10h10.24.394,REPSWITCH_1,2022.2.5,60.58241510448269,
REPSWITCH1/PICTURE_631.png,ladrón,speak,red,filler,2,F,Stim4_Set3,0,13,13,13,,168.4192403999914,,,,,,164.3220519000024,165.42090460000327,165.42090460000327,165.42090460000327,165.42090460000327,165.42090460000327,165.42090460000327,0.03302659999462776,['l'],[2.746609099995112],l,D:\GitHub\experiment1\data/_REPSWITCH_1_2023-05-08_10h10.24.394_micResp_recorded\recording_micResp_2023-05-08_10h11.42.008.wav,,,,,,,,001,2023-05-08_10h10.24.394,REPSWITCH_1,2022.2.5,60.58241510448269,
REPSWITCH1/PICTURE_16.png,cazador,type,blue,nontarget,1,NT,Stim6_Set1,0,14,14,14,,173.23460699999123,,,,,,168.90448789999937,170.21983759998693,170.21983759998693,170.21983759998693,170.21983759998693,170.21983759998693,170.21983759998693,0.008733699971344322,"['l', 'a', 'd', 'r', 'o', 'n', 'n', 'l', 'k', 'k', 'k', 'k', 'k']","[0.4108554999984335, 0.5327066000027116, 0.6093407000007574, 0.7829084999975748, 0.852592299983371, 1.119318299985025, 1.3357692999998108, 1.6189833999960683, 1.9846062999858987, 2.1673479999881238, 2.3362687999906484, 2.50876120000612, 2.713525600003777]",ladronnl,D:\GitHub\experiment1\data/_REPSWITCH_1_2023-05-08_10h10.24.394_micResp_recorded\recording_micResp_2023-05-08_10h11.46.818.wav,,,,,,,,001,2023-05-08_10h10.24.394,REPSWITCH_1,2022.2.5,60.58241510448269,
REPSWITCH1/PICTURE_16.png,cazador,type,blue,repeat,1,T,Stim6_Set1,0,15,15,15,,177.8839283999987,,,,,,173.71962699998403,174.85460190000595,174.85460190000595,174.85460190000595,174.85460190000595,174.85460190000595,174.85460190000595,0.0038305999769363552,None,,,D:\GitHub\experiment1\data/_REPSWITCH_1_2023-05-08_10h10.24.394_micResp_recorded\recording_micResp_2023-05-08_10h11.51.474.wav,,,,,,,,001,2023-05-08_10h10.24.394,REPSWITCH_1,2022.2.5,60.58241510448269,
REPSWITCH1/PICTURE_66.png,tejado,speak,red,filler,2,F,Stim5_Set3,0,16,16,16,,182.4995844999794,,,,,,178.3687066999846,179.56784780000453,179.56784780000453,179.56784780000453,179.56784780000453,179.56784780000453,179.56784780000453,0.10411230000318028,"['t', 'o', 'i', 't']","[1.0678244000009727, 1.174038199998904, 1.2159018999955151, 1.3512937999912538]",toit,D:\GitHub\experiment1\data/_REPSWITCH_1_2023-05-08_10h10.24.394_micResp_recorded\recording_micResp_2023-05-08_10h11.56.089.wav,,,,,,,,001,2023-05-08_10h10.24.394,REPSWITCH_1,2022.2.5,60.58241510448269,
REPSWITCH1/PICTURE_184.png,bruja,type,blue,nontarget,1,NT,Stim7_Set1,0,17,17,17,,187.23166099999798,,,,,,182.9846577999997,184.3165743999998,184.3165743999998,184.3165743999998,184.3165743999998,184.3165743999998,184.3165743999998,0.10991339999600314,"['s', 'o', 'r', 'c', 'i', 'e', 'r', 'e']","[1.8833297000091989, 1.9703812999941874, 2.057068900001468, 2.2625746999983676, 2.3330469999928027, 2.412266900006216, 2.5097969000053126, 2.5809407999913674]",sorciere,D:\GitHub\experiment1\data/_REPSWITCH_1_2023-05-08_10h10.24.394_micResp_recorded\recording_micResp_2023-05-08_10h12.00.818.wav,,,,,,,,001,2023-05-08_10h10.24.394,REPSWITCH_1,2022.2.5,60.58241510448269,
REPSWITCH1/PICTURE_184.png,bruja,type,blue,repeat,1,T,Stim7_Set1,0,18,18,18,,191.84728359998553,,,,,,187.71680819999892,188.8342483000015,188.8342483000015,188.8342483000015,188.8342483000015,188.8342483000015,188.8342483000015,0.002615999983390793,"['s', 'o', 'r', 'c', 'i', 'e', 'r', 'e']","[0.8718654999975115, 0.9517696000111755, 1.0740455000195652, 1.2774098000081722, 1.3416045000194572, 1.41728460000013, 1.512112900003558, 1.5827987000229768]",sorciere,D:\GitHub\experiment1\data/_REPSWITCH_1_2023-05-08_10h10.24.394_micResp_recorded\recording_micResp_2023-05-08_10h12.05.431.wav,191.84728359998553,191.84728359998553,191.84728359998553,191.84728359998553,191.84728359998553,2.9999091000063345,,001,2023-05-08_10h10.24.394,REPSWITCH_1,2022.2.5,60.58241510448269,
REPSWITCH1/PICTURE_661.png,cajón,speak,red,filler,2,F,Stim6_Set3,0,19,19,19,,196.51294389998657,,,,,,192.3490521000058,193.49814300000435,193.49814300000435,193.49814300000435,193.49814300000435,193.49814300000435,193.49814300000435,0.008064800000283867,"['t', 'i', 'r', 'o', 'i', 'r']","[1.2945662999991328, 1.3591682000260334, 1.4646556000225246, 1.5757358000264503, 1.6179539000149816, 1.7289887000224553]",tiroir,D:\GitHub\experiment1\data/_REPSWITCH_1_2023-05-08_10h10.24.394_micResp_recorded\recording_micResp_2023-05-08_10h12.10.096.wav,,,,,,,,001,2023-05-08_10h10.24.394,REPSWITCH_1,2022.2.5,60.58241510448269,
REPSWITCH1/PICTURE_199.png,falda,type,blue,nontarget,1,NT,Stim8_Set1,0,20,20,20,,201.0949530999933,,,,,,196.99746620000224,198.079959900002,198.079959900002,198.079959900002,198.079959900002,198.079959900002,198.079959900002,0.013480900001013651,"['j', 'u', 'p', 'e']","[1.9855438999948092, 2.1436659000173677, 2.2311962000094354, 2.3768450999923516]",jupe,D:\GitHub\experiment1\data/_REPSWITCH_1_2023-05-08_10h10.24.394_micResp_recorded\recording_micResp_2023-05-08_10h12.14.684.wav,,,,,,,,001,2023-05-08_10h10.24.394,REPSWITCH_1,2022.2.5,60.58241510448269,
REPSWITCH1/PICTURE_199.png,falda,speak,red,switch,2,T,Stim8_Set1,0,21,21,21,,205.72744879999664,,,,,,201.58017319999635,202.69823109998833,202.69823109998833,202.69823109998833,202.69823109998833,202.69823109998833,202.69823109998833,0.002460100018652156,"['j', 'u', 'p', 'e']","[1.325626799982274, 1.4999561999866273, 1.5715512000024319, 1.6850411999912467]",jupe,D:\GitHub\experiment1\data/_REPSWITCH_1_2023-05-08_10h10.24.394_micResp_recorded\recording_micResp_2023-05-08_10h12.19.314.wav,,,,,,,,001,2023-05-08_10h10.24.394,REPSWITCH_1,2022.2.5,60.58241510448269,
REPSWITCH1/PICTURE_675.png,molino,type,blue,filler,1,F,Stim7_Set3,0,22,22,22,,210.44350870000198,,,,,,206.21267049998278,207.54461149999406,207.54461149999406,207.54461149999406,207.54461149999406,207.54461149999406,207.54461149999406,0.1114621999731753,"['m', 'o', 'u', 'l', 'i', 'n']","[1.5638663000136148, 1.7293967000150587, 1.8525320000189822, 1.9830450000008568, 2.0523810000158846, 2.2038058000034653]",moulin,D:\GitHub\experiment1\data/_REPSWITCH_1_2023-05-08_10h10.24.394_micResp_recorded\recording_micResp_2023-05-08_10h12.24.025.wav,,,,,,,,001,2023-05-08_10h10.24.394,REPSWITCH_1,2022.2.5,60.58241510448269,
REPSWITCH1/PICTURE_678.png,cuerno,type,blue,filler,1,F,Stim8_Set3,0,23,23,23,,215.17514769997797,,,,,,210.9449160999793,212.16043550000177,212.16043550000177,212.16043550000177,212.16043550000177,212.16043550000177,212.16043550000177,0.009604799997759983,"['c', 'o', 'r', 'n', 'e']","[1.4400588999851607, 1.5267447999794967, 1.6305232999729924, 1.71698810000089, 1.791669699974591]",corne,D:\GitHub\experiment1\data/_REPSWITCH_1_2023-05-08_10h10.24.394_micResp_recorded\recording_micResp_2023-05-08_10h12.28.761.wav,,,,,,,,001,2023-05-08_10h10.24.394,REPSWITCH_1,2022.2.5,60.58241510448269,
REPSWITCH1/PICTURE_128.png,muñeca,speak,red,nontarget,2,NT,Stim4_Set1,0,24,24,24,,219.7402009999787,,,,,,215.6604995999951,216.72752929999842,216.72752929999842,216.72752929999842,216.72752929999842,216.72752929999842,216.72752929999842,0.0025793999957386404,"['p', 'o', 'u', 'e', 'p', 'e', 'e']","[1.0636892000038642, 1.1677861999778543, 1.2715451999974903, 1.4012623000016902, 1.4907830999873113, 1.7361402999958955, 1.957733899995219]",pouepee,D:\GitHub\experiment1\data/_REPSWITCH_1_2023-05-08_10h10.24.394_micResp_recorded\recording_micResp_2023-05-08_10h12.33.325.wav,219.7402009999787,219.7402009999787,219.7402009999787,219.7402009999787,219.7402009999787,2.999781199992867,,001,2023-05-08_10h10.24.394,REPSWITCH_1,2022.2.5,60.58241510448269,
REPSWITCH1/PICTURE_128.png,muñeca,speak,red,repeat,2,T,Stim4_Set1,0,25,25,25,,224.32301249998272,,,,,,220.24289839999983,221.29373750000377,221.29373750000377,221.29373750000377,221.29373750000377,221.29373750000377,221.29373750000377,0.003591699991375208,"['p', 'o', 'u', 'p', 'e', 'e']","[0.6937692000064999, 0.8254015000129584, 0.8833345000166446, 1.1396181000163779, 1.3691801000095438, 1.5178300999978092]",poupee,D:\GitHub\experiment1\data/_REPSWITCH_1_2023-05-08_10h10.24.394_micResp_recorded\recording_micResp_2023-05-08_10h12.37.902.wav,,,,,,,,001,2023-05-08_10h10.24.394,REPSWITCH_1,2022.2.5,60.58241510448269,
REPSWITCH1/PICTURE_12.png,sirena,speak,red,nontarget,2,NT,Stim3_Set1,0,26,26,26,,228.98872039999696,,,,,,224.80749360000482,225.95956269997987,225.95956269997987,225.95956269997987,225.95956269997987,225.95956269997987,225.95956269997987,0.004133499984163791,"['s', 'i', 'r', 'e', 'n', 'e']","[0.8448979000095278, 0.9266504000115674, 1.0373388000007253, 1.0952613000117708, 1.2534509999968577, 1.3042833000072278]",sirene,D:\GitHub\experiment1\data/_REPSWITCH_1_2023-05-08_10h10.24.394_micResp_recorded\recording_micResp_2023-05-08_10h12.42.579.wav,,,,,,,,001,2023-05-08_10h10.24.394,REPSWITCH_1,2022.2.5,60.58241510448269,
REPSWITCH1/PICTURE_12.png,sirena,speak,red,repeat,2,T,Stim3_Set1,0,27,27,27,,233.58726339999703,,,,,,229.47355009999592,230.5744122999895,230.5744122999895,230.5744122999895,230.5744122999895,230.5744122999895,230.5744122999895,0.002831499994499609,"['s', 'i', 'r', 'e', 'n', 'e']","[1.2536639999889303, 1.3778598999779206, 1.5304208000015933, 1.5672251999785658, 1.8802673000027426, 1.9603650999779347]",sirene,D:\GitHub\experiment1\data/_REPSWITCH_1_2023-05-08_10h10.24.394_micResp_recorded\recording_micResp_2023-05-08_10h12.47.171.wav,,,,,,,,001,2023-05-08_10h10.24.394,REPSWITCH_1,2022.2.5,60.58241510448269,
REPSWITCH1/PICTURE_661.png,cajón,type,blue,filler,1,F,Stim6_Set3,0,28,28,28,,238.302816099982,,,,,,234.0889565999969,235.27327039997908,235.27327039997908,235.27327039997908,235.27327039997908,235.27327039997908,235.27327039997908,0.0027763000107370317,"['t', 'i', 'r', 'o', 'i', 'r']","[0.9339537000050768, 1.0064883999875747, 1.2642918000055943, 1.386483499984024, 1.4189556000055745, 1.5406739999889396]",tiroir,D:\GitHub\experiment1\data/_REPSWITCH_1_2023-05-08_10h10.24.394_micResp_recorded\recording_micResp_2023-05-08_10h12.51.891.wav,,,,,,,,001,2023-05-08_10h10.24.394,REPSWITCH_1,2022.2.5,60.58241510448269,
REPSWITCH1/PICTURE_631.png,ladrón,type,blue,filler,1,F,Stim4_Set3,0,29,29,29,,243.1520676999935,,,,,,238.7875424999802,240.13865949999308,240.13865949999308,240.13865949999308,240.13865949999308,240.13865949999308,240.13865949999308,0.002580100001068786,None,,,D:\GitHub\experiment1\data/_REPSWITCH_1_2023-05-08_10h10.24.394_micResp_recorded\recording_micResp_2023-05-08_10h12.56.736.wav,,,,,,,,001,2023-05-08_10h10.24.394,REPSWITCH_1,2022.2.5,60.58241510448269,
,,,,,,,,,,,,,,,,,,,243.65324079999118,244.72115609998582,244.72115609998582,244.72115609998582,244.72115609998582,244.72115609998582,244.72115609998582,0.002636499993968755,,,,,,,,,,,,,,,,,
