image;correctAns;respModal;frameColor;repSwitch;sequence;target;set;block;list;exp_version;stimulus;baseline;baseline_condition;trial_no;psychopy_trial;Column1;trialsREPSWITCH.thisRepN;trialsREPSWITCH.thisTrialN;trialsREPSWITCH.thisN;trialsREPSWITCH.thisIndex;textWelcome.started;textboxInstrMain1.started;textboxInstrMain1_2.started;textboxInstrMain1_3.started;keyInstrMain.started;keyInstrMain.keys;keyInstrMain.rt;textboxInstrMain2.started;textboxInstrMain2_2.started;textboxInstrMain2_3.started;textboxInstrMain2_4.started;textboxInstrMain2_5.started;textboxInstrMain2_6.started;textboxInstrMain2_7.started;textboxInstrMain2_8.started;textboxInstrMain2_9.started;textboxInstrMain2_10.started;textboxInstrMain2_11.started;textboxInstrMain2_12.started;keyInstrMain2.started;keyInstrMain2.keys;keyInstrMain2.rt;fixationITI.started;fixationITI.stopped;polygonColour.started;polygonWhite.started;imageObject.started;polygonType.started;textInput.started;keyResp.started;micRespv1l4.started;polygonColour.stopped;polygonWhite.stopped;imageObject.stopped;polygonType.stopped;textInput.stopped;keyResp.stopped;keyResp.keys;keyResp.corr;keyResp.rt;subjResponse;micRespv1l4.clip;textBlankLoop.started;textBlankLoop.stopped;keyPause.keys;textboxPause.started;keyPause.started;keyPause.rt;textboxGoodbye.started;textboxGoodbye.stopped;participant;session;date;expName;psychopyVersion;frameRate;Column2
;;;;;;;;;;;;;;;;;;;;;7.692321999929845;10.186886799987406;10.186886799987406;10.186886799987406;10.186886799987406;space;6.545427499804646;;;;;;;;;;;;;;;;;;;;;;;;;;;;;;;;;;;;;;;;;;;;230104;001;2023-12-01_15h08.46.380;REPSWITCH1_version1_list4;2022.2.4;143.96795843490372;
;;;;;;;;;;;;;;;;;;;;;;;;;;;;16.75022860011086;16.75022860011086;16.75022860011086;16.75022860011086;16.75022860011086;16.75022860011086;16.75022860011086;16.75022860011086;16.75022860011086;16.75022860011086;16.75022860011086;16.75022860011086;16.75022860011086;space;2.5652106998022646;;;;;;;;;;;;;;;;;;;;;;;;;;;;;230104;001;2023-12-01_15h08.46.380;REPSWITCH1_version1_list4;2022.2.4;143.96795843490372;
REPSWITCH1/PICTURE_8.png;pierna;type;darkblue;filler;1;F;1;4;4;1;Stim3_Set4;0;None;1;0;1;0;0;0;0;;;;;;;;;;;;;;;;;;;;;;;19.410310300067067;20.500705800019205;20.500705800019205;20.500705800019205;20.500705800019205;20.500705800019205;20.500705800019205;20.500705800019205;20.500705800019205;23.528988200007007;23.528988200007007;23.528988200007007;23.528988200007007;23.528988200007007;23.528988200007007;['p', 'i', 'e', 'r', 'm', 'backspace', 'n', 'a'];0;[1.0814492998179048, 1.3994509996846318, 1.557914299890399, 1.6087907997425646, 1.7895309997256845, 2.273711299756542, 2.7196527998894453, 2.850209799828008];pierna;C:\2023\REPSWITCH21092023\REPSWITCH_excgange\REPSWITCH_excgange\data/230104_REPSWITCH1_version1_list4_2023-12-01_15h08.46.380_micRespv1l4_recorded\recording_micRespv1l4_2023-12-01_15h09.04.073.wav;23.528988200007007;24.028970499988645;None;;;;;;230104;001;2023-12-01_15h08.46.380;REPSWITCH1_version1_list4;2022.2.4;143.96795843490372;
REPSWITCH1/PICTURE_498.png;taza;speak;gold;filler;2;F;1;4;4;1;Stim4_Set4;0;None;2;1;2;0;1;1;1;;;;;;;;;;;;;;;;;;;;;;;24.028970499988645;25.223579599987715;25.223579599987715;25.223579599987715;25.223579599987715;25.223579599987715;25.223579599987715;25.223579599987715;25.223579599987715;28.25176139990799;28.25176139990799;28.25176139990799;28.25176139990799;28.25176139990799;28.25176139990799;None;0;;;C:\2023\REPSWITCH21092023\REPSWITCH_excgange\REPSWITCH_excgange\data/230104_REPSWITCH1_version1_list4_2023-12-01_15h08.46.380_micRespv1l4_recorded\recording_micRespv1l4_2023-12-01_15h09.08.795.wav;28.25176139990799;;None;;;;;;230104;001;2023-12-01_15h08.46.380;REPSWITCH1_version1_list4;2022.2.4;143.96795843490372;
REPSWITCH1/PICTURE_19.png;pavo;speak;gold;nontarget;2;NT;1;4;4;1;Stim5_Set1;1;repeat;3;2;3;0;2;2;2;;;;;;;;;;;;;;;;;;;;;;;28.751821000128984;29.83528620004654;29.83528620004654;29.83528620004654;29.83528620004654;29.83528620004654;29.83528620004654;29.83528620004654;29.83528620004654;32.85652679996565;32.85652679996565;32.85652679996565;32.85652679996565;32.85652679996565;32.85652679996565;None;0;;;C:\2023\REPSWITCH21092023\REPSWITCH_excgange\REPSWITCH_excgange\data/230104_REPSWITCH1_version1_list4_2023-12-01_15h08.46.380_micRespv1l4_recorded\recording_micRespv1l4_2023-12-01_15h09.13.406.wav;32.85652679996565;33.35659360000864;None;;;;;;230104;001;2023-12-01_15h08.46.380;REPSWITCH1_version1_list4;2022.2.4;143.96795843490372;
REPSWITCH1/PICTURE_19.png;pavo;speak;gold;repeat;2;T;1;4;4;1;Stim5_Set1;0;None;4;3;4;0;3;3;3;;;;;;;;;;;;;;;;;;;;;;;33.35659360000864;34.48866400006227;34.48866400006227;34.48866400006227;34.48866400006227;34.48866400006227;34.48866400006227;34.48866400006227;34.48866400006227;37.516893699998036;37.516893699998036;37.516893699998036;37.516893699998036;37.516893699998036;37.516893699998036;None;0;;;C:\2023\REPSWITCH21092023\REPSWITCH_excgange\REPSWITCH_excgange\data/230104_REPSWITCH1_version1_list4_2023-12-01_15h08.46.380_micRespv1l4_recorded\recording_micRespv1l4_2023-12-01_15h09.18.060.wav;37.516893699998036;;None;;;;;;230104;001;2023-12-01_15h08.46.380;REPSWITCH1_version1_list4;2022.2.4;143.96795843490372;
REPSWITCH1/PICTURE_319.png;vaca;type;darkblue;filler;1;F;1;4;4;1;Stim1_Set4;1;repeat;5;4;5;0;4;4;4;;;;;;;;;;;;;;;;;;;;;;;38.01692990004085;39.06568280002102;39.06568280002102;39.06568280002102;39.06568280002102;39.06568280002102;39.06568280002102;39.06568280002102;39.06568280002102;42.08692550007254;42.08692550007254;42.08692550007254;42.08692550007254;42.08692550007254;42.08692550007254;['v', 'a', 'c', 'a'];0;[1.0551273000892252, 1.1940683999564499, 1.3303193000610918, 1.4389663999900222];vaca;C:\2023\REPSWITCH21092023\REPSWITCH_excgange\REPSWITCH_excgange\data/230104_REPSWITCH1_version1_list4_2023-12-01_15h08.46.380_micRespv1l4_recorded\recording_micRespv1l4_2023-12-01_15h09.22.635.wav;42.08692550007254;42.58697589999065;None;;;;;;230104;001;2023-12-01_15h08.46.380;REPSWITCH1_version1_list4;2022.2.4;143.96795843490372;
REPSWITCH1/PICTURE_169.png;espalda;speak;gold;nontarget;2;NT;1;4;4;1;Stim8_Set1;1;switch;6;5;6;0;5;5;5;;;;;;;;;;;;;;;;;;;;;;;42.58697589999065;43.7607867999468;43.7607867999468;43.7607867999468;43.7607867999468;43.7607867999468;43.7607867999468;43.7607867999468;43.7607867999468;46.78203200013377;46.78203200013377;46.78203200013377;46.78203200013377;46.78203200013377;46.78203200013377;None;0;;;C:\2023\REPSWITCH21092023\REPSWITCH_excgange\REPSWITCH_excgange\data/230104_REPSWITCH1_version1_list4_2023-12-01_15h08.46.380_micRespv1l4_recorded\recording_micRespv1l4_2023-12-01_15h09.27.331.wav;46.78203200013377;47.28207339998335;None;;;;;;230104;001;2023-12-01_15h08.46.380;REPSWITCH1_version1_list4;2022.2.4;143.96795843490372;
REPSWITCH1/PICTURE_169.png;espalda;speak;gold;repeat;2;T;1;4;4;1;Stim8_Set1;0;None;7;6;7;0;6;6;6;;;;;;;;;;;;;;;;;;;;;;;47.28207339998335;48.36551079992205;48.36551079992205;48.36551079992205;48.36551079992205;48.36551079992205;48.36551079992205;48.36551079992205;48.36551079992205;51.38679870008491;51.38679870008491;51.38679870008491;51.38679870008491;51.38679870008491;51.38679870008491;None;0;;;C:\2023\REPSWITCH21092023\REPSWITCH_excgange\REPSWITCH_excgange\data/230104_REPSWITCH1_version1_list4_2023-12-01_15h08.46.380_micRespv1l4_recorded\recording_micRespv1l4_2023-12-01_15h09.31.934.wav;51.38679870008491;51.88681890000589;None;;;;;;230104;001;2023-12-01_15h08.46.380;REPSWITCH1_version1_list4;2022.2.4;143.96795843490372;
REPSWITCH1/PICTURE_728.png;pulpo;type;darkblue;filler;1;F;1;4;4;1;Stim8_Set4;0;None;8;7;8;0;7;7;7;;;;;;;;;;;;;;;;;;;;;;;51.88681890000589;52.98422460001893;52.98422460001893;52.98422460001893;52.98422460001893;52.98422460001893;52.98422460001893;52.98422460001893;52.98422460001893;56.00540150003508;56.00540150003508;56.00540150003508;56.00540150003508;56.00540150003508;56.00540150003508;['p', 'u', 'l', 'p', 'o'];0;[1.093903899891302, 1.3968863999471068, 1.6945182997733355, 1.9128740997985005, 2.047426799777895];pulpo;C:\2023\REPSWITCH21092023\REPSWITCH_excgange\REPSWITCH_excgange\data/230104_REPSWITCH1_version1_list4_2023-12-01_15h08.46.380_micRespv1l4_recorded\recording_micRespv1l4_2023-12-01_15h09.36.554.wav;56.00540150003508;56.50552759994753;None;;;;;;230104;001;2023-12-01_15h08.46.380;REPSWITCH1_version1_list4;2022.2.4;143.96795843490372;
REPSWITCH1/PICTURE_142.png;vaso;speak;gold;nontarget;2;NT;1;4;4;1;Stim7_Set1;1;switch;9;8;9;0;8;8;8;;;;;;;;;;;;;;;;;;;;;;;56.50552759994753;57.6097627999261;57.6097627999261;57.6097627999261;57.6097627999261;57.6097627999261;57.6097627999261;57.6097627999261;57.6097627999261;60.63793800002895;60.63793800002895;60.63793800002895;60.63793800002895;60.63793800002895;60.63793800002895;None;0;;;C:\2023\REPSWITCH21092023\REPSWITCH_excgange\REPSWITCH_excgange\data/230104_REPSWITCH1_version1_list4_2023-12-01_15h08.46.380_micRespv1l4_recorded\recording_micRespv1l4_2023-12-01_15h09.41.180.wav;60.63793800002895;;None;;;;;;230104;001;2023-12-01_15h08.46.380;REPSWITCH1_version1_list4;2022.2.4;143.96795843490372;
REPSWITCH1/PICTURE_142.png;vaso;type;darkblue;switch;1;T;1;4;4;1;Stim7_Set1;0;None;10;9;10;0;9;9;9;;;;;;;;;;;;;;;;;;;;;;;61.13799359998666;62.18681020010263;62.18681020010263;62.18681020010263;62.18681020010263;62.18681020010263;62.18681020010263;62.18681020010263;62.18681020010263;65.21494000009261;65.21494000009261;65.21494000009261;65.21494000009261;65.21494000009261;65.21494000009261;['v', 'a', 's', 'o'];0;[1.2219128999859095, 1.343512199819088, 1.4512171000242233, 1.7384979999624193];vaso;C:\2023\REPSWITCH21092023\REPSWITCH_excgange\REPSWITCH_excgange\data/230104_REPSWITCH1_version1_list4_2023-12-01_15h08.46.380_micRespv1l4_recorded\recording_micRespv1l4_2023-12-01_15h09.45.757.wav;65.21494000009261;;None;;;;;;230104;001;2023-12-01_15h08.46.380;REPSWITCH1_version1_list4;2022.2.4;143.96795843490372;
REPSWITCH1/PICTURE_338.png;regalo;type;darkblue;filler;1;F;1;4;4;1;Stim6_Set4;1;repeat;11;10;11;0;10;10;10;;;;;;;;;;;;;;;;;;;;;;;65.71497979993;66.88182540005073;66.88182540005073;66.88182540005073;66.88182540005073;66.88182540005073;66.88182540005073;66.88182540005073;66.88182540005073;69.90999280009419;69.90999280009419;69.90999280009419;69.90999280009419;69.90999280009419;69.90999280009419;['r', 'e', 'g', 'a', 'l', 'o'];0;[1.3055753998924047, 1.3935905997641385, 1.6547196998726577, 1.8640149999409914, 2.016518399817869, 2.213238399941474];regalo;C:\2023\REPSWITCH21092023\REPSWITCH_excgange\REPSWITCH_excgange\data/230104_REPSWITCH1_version1_list4_2023-12-01_15h08.46.380_micRespv1l4_recorded\recording_micRespv1l4_2023-12-01_15h09.50.453.wav;69.90999280009419;;None;;;;;;230104;001;2023-12-01_15h08.46.380;REPSWITCH1_version1_list4;2022.2.4;143.96795843490372;
REPSWITCH1/PICTURE_135.png;traje;type;darkblue;nontarget;1;NT;1;4;4;1;Stim3_Set1;1;repeat;12;11;12;0;11;11;11;;;;;;;;;;;;;;;;;;;;;;;70.41011029994115;71.50054959999397;71.50054959999397;71.50054959999397;71.50054959999397;71.50054959999397;71.50054959999397;71.50054959999397;71.50054959999397;74.52180070010945;74.52180070010945;74.52180070010945;74.52180070010945;74.52180070010945;74.52180070010945;['t', 'r', 'a', 'j', 'e'];0;[1.0661850997712463, 1.114050299860537, 1.3395214998163283, 1.6694130999967456, 1.7676025999244303];traje;C:\2023\REPSWITCH21092023\REPSWITCH_excgange\REPSWITCH_excgange\data/230104_REPSWITCH1_version1_list4_2023-12-01_15h08.46.380_micRespv1l4_recorded\recording_micRespv1l4_2023-12-01_15h09.55.070.wav;74.52180070010945;75.02177549991757;None;;;;;;230104;001;2023-12-01_15h08.46.380;REPSWITCH1_version1_list4;2022.2.4;143.96795843490372;
REPSWITCH1/PICTURE_135.png;traje;speak;gold;switch;2;T;1;4;4;1;Stim3_Set1;0;None;13;12;13;0;12;12;12;;;;;;;;;;;;;;;;;;;;;;;75.02177549991757;76.09830849990249;76.09830849990249;76.09830849990249;76.09830849990249;76.09830849990249;76.09830849990249;76.09830849990249;76.09830849990249;79.1265499999281;79.1265499999281;79.1265499999281;79.1265499999281;79.1265499999281;79.1265499999281;None;0;;;C:\2023\REPSWITCH21092023\REPSWITCH_excgange\REPSWITCH_excgange\data/230104_REPSWITCH1_version1_list4_2023-12-01_15h08.46.380_micRespv1l4_recorded\recording_micRespv1l4_2023-12-01_15h09.59.668.wav;79.1265499999281;;None;;;;;;230104;001;2023-12-01_15h08.46.380;REPSWITCH1_version1_list4;2022.2.4;143.96795843490372;
REPSWITCH1/PICTURE_381.png;fresa;speak;gold;nontarget;2;NT;1;4;4;1;Stim2_Set1;1;repeat;14;13;14;0;13;13;13;;;;;;;;;;;;;;;;;;;;;;;79.6265473999083;80.7169568000827;80.7169568000827;80.7169568000827;80.7169568000827;80.7169568000827;80.7169568000827;80.7169568000827;80.7169568000827;83.74512009997852;83.74512009997852;83.74512009997852;83.74512009997852;83.74512009997852;83.74512009997852;None;0;;;C:\2023\REPSWITCH21092023\REPSWITCH_excgange\REPSWITCH_excgange\data/230104_REPSWITCH1_version1_list4_2023-12-01_15h08.46.380_micRespv1l4_recorded\recording_micRespv1l4_2023-12-01_15h10.04.287.wav;83.74512009997852;84.2451851000078;None;;;;;;230104;001;2023-12-01_15h08.46.380;REPSWITCH1_version1_list4;2022.2.4;143.96795843490372;
REPSWITCH1/PICTURE_381.png;fresa;type;darkblue;switch;1;T;1;4;4;1;Stim2_Set1;0;None;15;14;15;0;14;14;14;;;;;;;;;;;;;;;;;;;;;;;84.2451851000078;85.2869953000918;85.2869953000918;85.2869953000918;85.2869953000918;85.2869953000918;85.2869953000918;85.2869953000918;85.2869953000918;88.31517140008509;88.31517140008509;88.31517140008509;88.31517140008509;88.31517140008509;88.31517140008509;['f', 'r', 'e', 's', 'a'];0;[0.8869612999260426, 1.108785199932754, 1.1197099999990314, 1.62932930001989, 1.806696099927649];fresa;C:\2023\REPSWITCH21092023\REPSWITCH_excgange\REPSWITCH_excgange\data/230104_REPSWITCH1_version1_list4_2023-12-01_15h08.46.380_micRespv1l4_recorded\recording_micRespv1l4_2023-12-01_15h10.08.858.wav;88.31517140008509;;None;;;;;;230104;001;2023-12-01_15h08.46.380;REPSWITCH1_version1_list4;2022.2.4;143.96795843490372;
REPSWITCH1/PICTURE_48.png;bombero;type;darkblue;filler;1;F;1;4;4;1;Stim7_Set4;0;None;16;15;16;0;15;15;15;;;;;;;;;;;;;;;;;;;;;;;88.8153059000615;89.95427750004455;89.95427750004455;89.95427750004455;89.95427750004455;89.95427750004455;89.95427750004455;89.95427750004455;89.95427750004455;92.97553359996527;92.97553359996527;92.97553359996527;92.97553359996527;92.97553359996527;92.97553359996527;['b', 'o', 'm', 'b', 'e', 'r', 'r', 'o'];0;[1.3575969999656081, 1.5399330998770893, 1.8159954000730067, 2.030619200086221, 2.463168299989775, 2.581089199986309, 2.60201060003601, 2.753497799858451];bomberro;C:\2023\REPSWITCH21092023\REPSWITCH_excgange\REPSWITCH_excgange\data/230104_REPSWITCH1_version1_list4_2023-12-01_15h08.46.380_micRespv1l4_recorded\recording_micRespv1l4_2023-12-01_15h10.13.525.wav;92.97553359996527;93.47558580012992;None;;;;;;230104;001;2023-12-01_15h08.46.380;REPSWITCH1_version1_list4;2022.2.4;143.96795843490372;
REPSWITCH1/PICTURE_687.png;camisa;speak;gold;filler;2;F;1;4;4;1;Stim5_Set4;0;None;17;16;17;0;16;16;16;;;;;;;;;;;;;;;;;;;;;;;93.47558580012992;94.62163570011035;94.62163570011035;94.62163570011035;94.62163570011035;94.62163570011035;94.62163570011035;94.62163570011035;94.62163570011035;97.6428044999484;97.6428044999484;97.6428044999484;97.6428044999484;97.6428044999484;97.6428044999484;None;0;;;C:\2023\REPSWITCH21092023\REPSWITCH_excgange\REPSWITCH_excgange\data/230104_REPSWITCH1_version1_list4_2023-12-01_15h08.46.380_micRespv1l4_recorded\recording_micRespv1l4_2023-12-01_15h10.18.191.wav;97.6428044999484;98.14293590001762;None;;;;;;230104;001;2023-12-01_15h08.46.380;REPSWITCH1_version1_list4;2022.2.4;143.96795843490372;
REPSWITCH1/PICTURE_128.png;muñeca;type;darkblue;nontarget;1;NT;1;4;4;1;Stim4_Set1;0;None;18;17;18;0;17;17;17;;;;;;;;;;;;;;;;;;;;;;;98.14293590001762;99.26105679990724;99.26105679990724;99.26105679990724;99.26105679990724;99.26105679990724;99.26105679990724;99.26105679990724;99.26105679990724;102.28230100008659;102.28230100008659;102.28230100008659;102.28230100008659;102.28230100008659;102.28230100008659;['m', 'u', 'ñ', 'e', 'c'];0;[1.6607762996573001, 1.8540517997462302, 2.3718118998222053, 2.614028899697587, 2.9758009996730834];muñec;C:\2023\REPSWITCH21092023\REPSWITCH_excgange\REPSWITCH_excgange\data/230104_REPSWITCH1_version1_list4_2023-12-01_15h08.46.380_micRespv1l4_recorded\recording_micRespv1l4_2023-12-01_15h10.22.831.wav;102.28230100008659;102.78234979999252;None;;;;;;230104;001;2023-12-01_15h08.46.380;REPSWITCH1_version1_list4;2022.2.4;143.96795843490372;
REPSWITCH1/PICTURE_128.png;muñeca;type;darkblue;repeat;1;T;1;4;4;1;Stim4_Set1;0;None;19;18;19;0;18;18;18;;;;;;;;;;;;;;;;;;;;;;;102.78234979999252;103.87283429992385;103.87283429992385;103.87283429992385;103.87283429992385;103.87283429992385;103.87283429992385;103.87283429992385;103.87283429992385;106.89399320003577;106.89399320003577;106.89399320003577;106.89399320003577;106.89399320003577;106.89399320003577;['m', 'u', 'ñ', 'e', 'c', 'a'];0;[0.8187963997479528, 0.9786218998488039, 1.425331899896264, 1.5519352997653186, 2.0105961998924613, 2.122283199802041];muñeca;C:\2023\REPSWITCH21092023\REPSWITCH_excgange\REPSWITCH_excgange\data/230104_REPSWITCH1_version1_list4_2023-12-01_15h08.46.380_micRespv1l4_recorded\recording_micRespv1l4_2023-12-01_15h10.27.443.wav;106.89399320003577;107.3941160000395;None;;;;;;230104;001;2023-12-01_15h08.46.380;REPSWITCH1_version1_list4;2022.2.4;143.96795843490372;
REPSWITCH1/PICTURE_719.png;baño;speak;gold;filler;2;F;1;4;4;1;Stim2_Set4;1;switch;20;19;20;0;19;19;19;;;;;;;;;;;;;;;;;;;;;;;107.3941160000395;108.4776127000805;108.4776127000805;108.4776127000805;108.4776127000805;108.4776127000805;108.4776127000805;108.4776127000805;108.4776127000805;111.49877050006762;111.49877050006762;111.49877050006762;111.49877050006762;111.49877050006762;111.49877050006762;None;0;;;C:\2023\REPSWITCH21092023\REPSWITCH_excgange\REPSWITCH_excgange\data/230104_REPSWITCH1_version1_list4_2023-12-01_15h08.46.380_micRespv1l4_recorded\recording_micRespv1l4_2023-12-01_15h10.32.048.wav;111.49877050006762;111.99884849996306;None;;;;;;230104;001;2023-12-01_15h08.46.380;REPSWITCH1_version1_list4;2022.2.4;143.96795843490372;
REPSWITCH1/PICTURE_178.png;puente;type;darkblue;nontarget;1;NT;1;4;4;1;Stim1_Set1;1;switch;21;20;21;0;20;20;20;;;;;;;;;;;;;;;;;;;;;;;111.99884849996306;113.21430630004033;113.21430630004033;113.21430630004033;113.21430630004033;113.21430630004033;113.21430630004033;113.21430630004033;113.21430630004033;116.23551720008254;116.23551720008254;116.23551720008254;116.23551720008254;116.23551720008254;116.23551720008254;['p', 'u', 'e', 'n', 't', 'e'];0;[1.0482505997642875, 1.3091569999232888, 1.4952293997630477, 1.6246412999462336, 1.8220876997802407, 1.9202460998203605];puente;C:\2023\REPSWITCH21092023\REPSWITCH_excgange\REPSWITCH_excgange\data/230104_REPSWITCH1_version1_list4_2023-12-01_15h08.46.380_micRespv1l4_recorded\recording_micRespv1l4_2023-12-01_15h10.36.785.wav;116.23551720008254;116.73557689995505;None;;;;;;230104;001;2023-12-01_15h08.46.380;REPSWITCH1_version1_list4;2022.2.4;143.96795843490372;
REPSWITCH1/PICTURE_178.png;puente;type;darkblue;repeat;1;T;1;4;4;1;Stim1_Set1;0;None;22;21;22;0;21;21;21;;;;;;;;;;;;;;;;;;;;;;;116.73557689995505;117.78438970004208;117.78438970004208;117.78438970004208;117.78438970004208;117.78438970004208;117.78438970004208;117.78438970004208;117.78438970004208;120.81248469999991;120.81248469999991;120.81248469999991;120.81248469999991;120.81248469999991;120.81248469999991;['p', 'u', 'e', 'n', 't', 'e'];0;[0.9559178999625146, 1.194588900078088, 1.3611234000418335, 1.4776717000640929, 1.700311099877581, 1.795988499885425];puente;C:\2023\REPSWITCH21092023\REPSWITCH_excgange\REPSWITCH_excgange\data/230104_REPSWITCH1_version1_list4_2023-12-01_15h08.46.380_micRespv1l4_recorded\recording_micRespv1l4_2023-12-01_15h10.41.355.wav;120.81248469999991;;None;;;;;;230104;001;2023-12-01_15h08.46.380;REPSWITCH1_version1_list4;2022.2.4;143.96795843490372;
REPSWITCH1/PICTURE_16.png;cazador;type;darkblue;nontarget;1;NT;1;4;4;1;Stim6_Set1;1;repeat;23;22;23;0;22;22;22;;;;;;;;;;;;;;;;;;;;;;;121.31256509991363;122.50718660000712;122.50718660000712;122.50718660000712;122.50718660000712;122.50718660000712;122.50718660000712;122.50718660000712;122.50718660000712;125.52840619999915;125.52840619999915;125.52840619999915;125.52840619999915;125.52840619999915;125.52840619999915;['c', 'a', 'z', 'a', 'd', 'o', 'r'];0;[1.260180399985984, 1.3917311998084188, 1.6012390998657793, 1.723901999881491, 1.9085508999414742, 2.180641499813646, 2.271615299861878];cazador;C:\2023\REPSWITCH21092023\REPSWITCH_excgange\REPSWITCH_excgange\data/230104_REPSWITCH1_version1_list4_2023-12-01_15h08.46.380_micRespv1l4_recorded\recording_micRespv1l4_2023-12-01_15h10.46.077.wav;125.52840619999915;126.02853689994663;None;;;;;;230104;001;2023-12-01_15h08.46.380;REPSWITCH1_version1_list4;2022.2.4;143.96795843490372;
REPSWITCH1/PICTURE_16.png;cazador;speak;gold;switch;2;T;1;4;4;1;Stim6_Set1;0;None;24;23;24;0;23;23;23;;;;;;;;;;;;;;;;;;;;;;;126.02853689994663;127.10497780004516;127.10497780004516;127.10497780004516;127.10497780004516;127.10497780004516;127.10497780004516;127.10497780004516;127.10497780004516;130.12618950009346;130.12618950009346;130.12618950009346;130.12618950009346;130.12618950009346;130.12618950009346;None;0;;;C:\2023\REPSWITCH21092023\REPSWITCH_excgange\REPSWITCH_excgange\data/230104_REPSWITCH1_version1_list4_2023-12-01_15h08.46.380_micRespv1l4_recorded\recording_micRespv1l4_2023-12-01_15h10.50.676.wav;130.12618950009346;130.62636470003054;None;;;;;;230104;001;2023-12-01_15h08.46.380;REPSWITCH1_version1_list4;2022.2.4;143.96795843490372;
REPSWITCH1/PICTURE_19.png;pavo;type;darkblue;filler;1;F;2;4;4;1;Stim5_Set1;0;None;25;24;25;0;24;24;24;;;;;;;;;;;;;;;;;;;;;;;130.62636470003054;131.68196450010873;131.68196450010873;131.68196450010873;131.68196450010873;131.68196450010873;131.68196450010873;131.68196450010873;131.68196450010873;134.7101322999224;134.7101322999224;134.7101322999224;134.7101322999224;134.7101322999224;134.7101322999224;['p', 'a', 'v', 'o'];0;[1.2832842997740954, 1.4128392997663468, 1.651236199773848, 1.8458428997546434];pavo;C:\2023\REPSWITCH21092023\REPSWITCH_excgange\REPSWITCH_excgange\data/230104_REPSWITCH1_version1_list4_2023-12-01_15h08.46.380_micRespv1l4_recorded\recording_micRespv1l4_2023-12-01_15h10.55.253.wav;134.7101322999224;;None;;;;;;230104;001;2023-12-01_15h08.46.380;REPSWITCH1_version1_list4;2022.2.4;143.96795843490372;
REPSWITCH1/PICTURE_199.png;falda;type;darkblue;nontarget;1;NT;2;4;4;1;Stim8_Set2;1;repeat;26;25;26;0;25;25;25;;;;;;;;;;;;;;;;;;;;;;;135.21021450008266;136.33539270004258;136.33539270004258;136.33539270004258;136.33539270004258;136.33539270004258;136.33539270004258;136.33539270004258;136.33539270004258;139.35664679994807;139.35664679994807;139.35664679994807;139.35664679994807;139.35664679994807;139.35664679994807;['f', 'a', 'l', 'd', 'a'];0;[0.9834151000250131, 1.1227611999493092, 1.6294730000663549, 1.7978358999826014, 1.9196116998791695];falda;C:\2023\REPSWITCH21092023\REPSWITCH_excgange\REPSWITCH_excgange\data/230104_REPSWITCH1_version1_list4_2023-12-01_15h08.46.380_micRespv1l4_recorded\recording_micRespv1l4_2023-12-01_15h10.59.906.wav;139.35664679994807;139.85666910000145;None;;;;;;230104;001;2023-12-01_15h08.46.380;REPSWITCH1_version1_list4;2022.2.4;143.96795843490372;
REPSWITCH1/PICTURE_199.png;falda;type;darkblue;repeat;1;T;2;4;4;1;Stim8_Set2;0;None;27;26;27;0;26;26;26;;;;;;;;;;;;;;;;;;;;;;;139.85666910000145;140.88457360002212;140.88457360002212;140.88457360002212;140.88457360002212;140.88457360002212;140.88457360002212;140.88457360002212;140.88457360002212;143.90581619995646;143.90581619995646;143.90581619995646;143.90581619995646;143.90581619995646;143.90581619995646;['f', 'a', 'l', 'd', 'a'];0;[0.9957860996946692, 1.1991317998617887, 1.3356828996911645, 1.575949999736622, 1.7991694996599108];falda;C:\2023\REPSWITCH21092023\REPSWITCH_excgange\REPSWITCH_excgange\data/230104_REPSWITCH1_version1_list4_2023-12-01_15h08.46.380_micRespv1l4_recorded\recording_micRespv1l4_2023-12-01_15h11.04.455.wav;143.90581619995646;144.40588239999488;None;;;;;;230104;001;2023-12-01_15h08.46.380;REPSWITCH1_version1_list4;2022.2.4;143.96795843490372;
REPSWITCH1/PICTURE_178.png;puente;speak;gold;filler;2;F;2;4;4;1;Stim1_Set1;1;switch;28;27;28;0;27;27;27;;;;;;;;;;;;;;;;;;;;;;;144.40588239999488;145.47554540005513;145.47554540005513;145.47554540005513;145.47554540005513;145.47554540005513;145.47554540005513;145.47554540005513;145.47554540005513;148.49669570010155;148.49669570010155;148.49669570010155;148.49669570010155;148.49669570010155;148.49669570010155;None;0;;;C:\2023\REPSWITCH21092023\REPSWITCH_excgange\REPSWITCH_excgange\data/230104_REPSWITCH1_version1_list4_2023-12-01_15h08.46.380_micRespv1l4_recorded\recording_micRespv1l4_2023-12-01_15h11.09.045.wav;148.49669570010155;148.99675970012322;None;;;;;;230104;001;2023-12-01_15h08.46.380;REPSWITCH1_version1_list4;2022.2.4;143.96795843490372;
REPSWITCH1/PICTURE_517.png;cuerda;type;darkblue;nontarget;1;NT;2;4;4;1;Stim4_Set2;1;switch;29;28;29;0;28;28;28;;;;;;;;;;;;;;;;;;;;;;;148.99675970012322;150.09411010006443;150.09411010006443;150.09411010006443;150.09411010006443;150.09411010006443;150.09411010006443;150.09411010006443;150.09411010006443;153.11536379996687;153.11536379996687;153.11536379996687;153.11536379996687;153.11536379996687;153.11536379996687;['c', 'u', 'e', 'r', 'd', 'a'];0;[1.0671764998696744, 1.1970104998908937, 1.3468526997603476, 1.3826912997756153, 1.6360009999480098, 1.7808339998591691];cuerda;C:\2023\REPSWITCH21092023\REPSWITCH_excgange\REPSWITCH_excgange\data/230104_REPSWITCH1_version1_list4_2023-12-01_15h08.46.380_micRespv1l4_recorded\recording_micRespv1l4_2023-12-01_15h11.13.664.wav;153.11536379996687;153.6154869000893;None;;;;;;230104;001;2023-12-01_15h08.46.380;REPSWITCH1_version1_list4;2022.2.4;143.96795843490372;
REPSWITCH1/PICTURE_517.png;cuerda;type;darkblue;repeat;1;T;2;4;4;1;Stim4_Set2;0;None;30;29;30;0;29;29;29;;;;;;;;;;;;;;;;;;;;;;;153.6154869000893;154.70583819993772;154.70583819993772;154.70583819993772;154.70583819993772;154.70583819993772;154.70583819993772;154.70583819993772;154.70583819993772;157.73405819991603;157.73405819991603;157.73405819991603;157.73405819991603;157.73405819991603;157.73405819991603;['c', 'u', 'e', 'r', 'd', 'a'];0;[0.7687462999019772, 0.9770430999342352, 1.101692199939862, 1.170380799798295, 1.42540069995448, 1.6011211997829378];cuerda;C:\2023\REPSWITCH21092023\REPSWITCH_excgange\REPSWITCH_excgange\data/230104_REPSWITCH1_version1_list4_2023-12-01_15h08.46.380_micRespv1l4_recorded\recording_micRespv1l4_2023-12-01_15h11.18.277.wav;157.73405819991603;;None;;;;;;230104;001;2023-12-01_15h08.46.380;REPSWITCH1_version1_list4;2022.2.4;143.96795843490372;
REPSWITCH1/PICTURE_169.png;espalda;type;darkblue;filler;1;F;2;4;4;1;Stim8_Set1;0;None;31;30;31;0;30;30;30;;;;;;;;;;;;;;;;;;;;;;;158.23405480012298;159.28977419994771;159.28977419994771;159.28977419994771;159.28977419994771;159.28977419994771;159.28977419994771;159.28977419994771;159.28977419994771;162.31101449998096;162.31101449998096;162.31101449998096;162.31101449998096;162.31101449998096;162.31101449998096;['e', 's', 'p', 'a', 'l', 'd', 'a'];0;[0.8263379998970777, 1.071851999964565, 1.2223211000673473, 1.3708573000039905, 1.5079848000314087, 1.6824052999727428, 1.7622165998909622];espalda;C:\2023\REPSWITCH21092023\REPSWITCH_excgange\REPSWITCH_excgange\data/230104_REPSWITCH1_version1_list4_2023-12-01_15h08.46.380_micRespv1l4_recorded\recording_micRespv1l4_2023-12-01_15h11.22.860.wav;162.31101449998096;162.81104369997047;None;;;;;;230104;001;2023-12-01_15h08.46.380;REPSWITCH1_version1_list4;2022.2.4;143.96795843490372;
REPSWITCH1/PICTURE_673.png;tenedor;speak;gold;filler;2;F;2;4;4;1;Extra5;0;None;32;31;32;0;31;31;31;;;;;;;;;;;;;;;;;;;;;;;162.81104369997047;163.86674010008574;163.86674010008574;163.86674010008574;163.86674010008574;163.86674010008574;163.86674010008574;163.86674010008574;163.86674010008574;166.89491440006532;166.89491440006532;166.89491440006532;166.89491440006532;166.89491440006532;166.89491440006532;None;0;;;C:\2023\REPSWITCH21092023\REPSWITCH_excgange\REPSWITCH_excgange\data/230104_REPSWITCH1_version1_list4_2023-12-01_15h08.46.380_micRespv1l4_recorded\recording_micRespv1l4_2023-12-01_15h11.27.437.wav;166.89491440006532;;None;;;;;;230104;001;2023-12-01_15h08.46.380;REPSWITCH1_version1_list4;2022.2.4;143.96795843490372;
REPSWITCH1/PICTURE_142.png;vaso;type;darkblue;filler;1;F;2;4;4;1;Stim7_Set1;1;switch;33;32;33;0;32;32;32;;;;;;;;;;;;;;;;;;;;;;;167.39496599999256;168.48541630012915;168.48541630012915;168.48541630012915;168.48541630012915;168.48541630012915;168.48541630012915;168.48541630012915;168.48541630012915;171.50672810012475;171.50672810012475;171.50672810012475;171.50672810012475;171.50672810012475;171.50672810012475;['v', 'a', 's', 'o'];0;[0.9054651998449117, 1.1306679998524487, 1.1773720998317003, 1.7248934998642653];vaso;C:\2023\REPSWITCH21092023\REPSWITCH_excgange\REPSWITCH_excgange\data/230104_REPSWITCH1_version1_list4_2023-12-01_15h08.46.380_micRespv1l4_recorded\recording_micRespv1l4_2023-12-01_15h11.32.055.wav;171.50672810012475;172.00668459990993;None;;;;;;230104;001;2023-12-01_15h08.46.380;REPSWITCH1_version1_list4;2022.2.4;143.96795843490372;
REPSWITCH1/PICTURE_552.png;manzana;type;darkblue;nontarget;1;NT;2;4;4;1;Stim6_Set2;1;repeat;34;33;34;0;33;33;33;;;;;;;;;;;;;;;;;;;;;;;172.00668459990993;173.1735974000767;173.1735974000767;173.1735974000767;173.1735974000767;173.1735974000767;173.1735974000767;173.1735974000767;173.1735974000767;176.20177819998935;176.20177819998935;176.20177819998935;176.20177819998935;176.20177819998935;176.20177819998935;['m', 'a', 'n', 'z', 'a', 'n', 'a'];0;[1.2968974998220801, 1.415468799881637, 1.5579941999167204, 1.921115699922666, 2.088849099818617, 2.195551399840042, 2.2962746997363865];manzana;C:\2023\REPSWITCH21092023\REPSWITCH_excgange\REPSWITCH_excgange\data/230104_REPSWITCH1_version1_list4_2023-12-01_15h08.46.380_micRespv1l4_recorded\recording_micRespv1l4_2023-12-01_15h11.36.744.wav;176.20177819998935;;None;;;;;;230104;001;2023-12-01_15h08.46.380;REPSWITCH1_version1_list4;2022.2.4;143.96795843490372;
REPSWITCH1/PICTURE_552.png;manzana;speak;gold;switch;1;T;2;4;4;1;Stim6_Set2;0;None;35;34;35;0;34;34;34;;;;;;;;;;;;;;;;;;;;;;;176.7017815001309;177.73665659991093;177.73665659991093;177.73665659991093;177.73665659991093;177.73665659991093;177.73665659991093;177.73665659991093;177.73665659991093;180.76480920007452;180.76480920007452;180.76480920007452;180.76480920007452;180.76480920007452;180.76480920007452;None;0;;;C:\2023\REPSWITCH21092023\REPSWITCH_excgange\REPSWITCH_excgange\data/230104_REPSWITCH1_version1_list4_2023-12-01_15h08.46.380_micRespv1l4_recorded\recording_micRespv1l4_2023-12-01_15h11.41.307.wav;180.76480920007452;;None;;;;;;230104;001;2023-12-01_15h08.46.380;REPSWITCH1_version1_list4;2022.2.4;143.96795843490372;
REPSWITCH1/PICTURE_135.png;traje;speak;gold;filler;2;F;2;4;4;1;Stim3_Set1;0;None;36;35;36;0;35;35;35;;;;;;;;;;;;;;;;;;;;;;;181.26487409998663;182.41781249991618;182.41781249991618;182.41781249991618;182.41781249991618;182.41781249991618;182.41781249991618;182.41781249991618;182.41781249991618;185.43901470000856;185.43901470000856;185.43901470000856;185.43901470000856;185.43901470000856;185.43901470000856;None;0;;;C:\2023\REPSWITCH21092023\REPSWITCH_excgange\REPSWITCH_excgange\data/230104_REPSWITCH1_version1_list4_2023-12-01_15h08.46.380_micRespv1l4_recorded\recording_micRespv1l4_2023-12-01_15h11.45.987.wav;185.43901470000856;185.93907879991457;None;;;;;;230104;001;2023-12-01_15h08.46.380;REPSWITCH1_version1_list4;2022.2.4;143.96795843490372;
REPSWITCH1/PICTURE_152.png;caracol;speak;gold;nontarget;2;NT;2;4;4;1;Stim2_Set2;1;repeat;37;36;37;0;36;36;36;;;;;;;;;;;;;;;;;;;;;;;185.93907879991457;186.9878660000395;186.9878660000395;186.9878660000395;186.9878660000395;186.9878660000395;186.9878660000395;186.9878660000395;186.9878660000395;190.01606209995225;190.01606209995225;190.01606209995225;190.01606209995225;190.01606209995225;190.01606209995225;None;0;;;C:\2023\REPSWITCH21092023\REPSWITCH_excgange\REPSWITCH_excgange\data/230104_REPSWITCH1_version1_list4_2023-12-01_15h08.46.380_micRespv1l4_recorded\recording_micRespv1l4_2023-12-01_15h11.50.559.wav;190.01606209995225;;None;;;;;;230104;001;2023-12-01_15h08.46.380;REPSWITCH1_version1_list4;2022.2.4;143.96795843490372;
REPSWITCH1/PICTURE_152.png;caracol;type;darkblue;switch;1;T;2;4;4;1;Stim2_Set2;0;None;38;37;38;0;37;37;37;;;;;;;;;;;;;;;;;;;;;;;190.51606489997357;191.66212609992363;191.66212609992363;191.66212609992363;191.66212609992363;191.66212609992363;191.66212609992363;191.66212609992363;191.66212609992363;194.69024799996987;194.69024799996987;194.69024799996987;194.69024799996987;194.69024799996987;194.69024799996987;['c', 'a', 'r', 'a', 'c', 'o', 'l'];0;[0.9129799997899681, 1.0684730997309089, 1.250820499844849, 1.4103165997657925, 1.5323624997399747, 1.7984200997743756, 1.9947195998393];caracol;C:\2023\REPSWITCH21092023\REPSWITCH_excgange\REPSWITCH_excgange\data/230104_REPSWITCH1_version1_list4_2023-12-01_15h08.46.380_micRespv1l4_recorded\recording_micRespv1l4_2023-12-01_15h11.55.233.wav;194.69024799996987;;None;;;;;;230104;001;2023-12-01_15h08.46.380;REPSWITCH1_version1_list4;2022.2.4;143.96795843490372;
REPSWITCH1/PICTURE_381.png;fresa;type;darkblue;filler;1;F;2;4;4;1;Stim2_Set1;0;None;39;38;39;0;38;38;38;;;;;;;;;;;;;;;;;;;;;;;195.19030059990473;196.3293312001042;196.3293312001042;196.3293312001042;196.3293312001042;196.3293312001042;196.3293312001042;196.3293312001042;196.3293312001042;199.35752680012956;199.35752680012956;199.35752680012956;199.35752680012956;199.35752680012956;199.35752680012956;['f', 'r', 'e', 's', 'a'];0;[0.943143299780786, 1.148496699752286, 1.2545510998461396, 1.7141893997322768, 1.9449062997009605];fresa;C:\2023\REPSWITCH21092023\REPSWITCH_excgange\REPSWITCH_excgange\data/230104_REPSWITCH1_version1_list4_2023-12-01_15h08.46.380_micRespv1l4_recorded\recording_micRespv1l4_2023-12-01_15h11.59.900.wav;199.35752680012956;;None;;;;;;230104;001;2023-12-01_15h08.46.380;REPSWITCH1_version1_list4;2022.2.4;143.96795843490372;
REPSWITCH1/PICTURE_446.png;cerdo;type;darkblue;nontarget;1;NT;2;4;4;1;Stim7_Set2;1;repeat;40;39;40;0;39;39;39;;;;;;;;;;;;;;;;;;;;;;;199.85766350012273;200.94807980000041;200.94807980000041;200.94807980000041;200.94807980000041;200.94807980000041;200.94807980000041;200.94807980000041;200.94807980000041;203.97624050010927;203.97624050010927;203.97624050010927;203.97624050010927;203.97624050010927;203.97624050010927;['c', 'e', 'r', 'd', 'o'];0;[1.1075015997048467, 1.2689193997066468, 1.4180176998488605, 1.587386999744922, 1.8446568998042494];cerdo;C:\2023\REPSWITCH21092023\REPSWITCH_excgange\REPSWITCH_excgange\data/230104_REPSWITCH1_version1_list4_2023-12-01_15h08.46.380_micRespv1l4_recorded\recording_micRespv1l4_2023-12-01_15h12.04.519.wav;203.97624050010927;;None;;;;;;230104;001;2023-12-01_15h08.46.380;REPSWITCH1_version1_list4;2022.2.4;143.96795843490372;
REPSWITCH1/PICTURE_446.png;cerdo;speak;gold;switch;2;T;2;4;4;1;Stim7_Set2;0;None;41;40;41;0;40;40;40;;;;;;;;;;;;;;;;;;;;;;;204.47632020013407;205.69168559997343;205.69168559997343;205.69168559997343;205.69168559997343;205.69168559997343;205.69168559997343;205.69168559997343;205.69168559997343;208.7129111001268;208.7129111001268;208.7129111001268;208.7129111001268;208.7129111001268;208.7129111001268;None;0;;;C:\2023\REPSWITCH21092023\REPSWITCH_excgange\REPSWITCH_excgange\data/230104_REPSWITCH1_version1_list4_2023-12-01_15h08.46.380_micRespv1l4_recorded\recording_micRespv1l4_2023-12-01_15h12.09.262.wav;208.7129111001268;209.21296259993687;None;;;;;;230104;001;2023-12-01_15h08.46.380;REPSWITCH1_version1_list4;2022.2.4;143.96795843490372;
REPSWITCH1/PICTURE_264.png;mano;speak;gold;nontarget;2;NT;2;4;4;1;Stim3_Set2;0;None;42;41;42;0;41;41;41;;;;;;;;;;;;;;;;;;;;;;;209.21296259993687;210.33119329996407;210.33119329996407;210.33119329996407;210.33119329996407;210.33119329996407;210.33119329996407;210.33119329996407;210.33119329996407;213.35250129993074;213.35250129993074;213.35250129993074;213.35250129993074;213.35250129993074;213.35250129993074;None;0;;;C:\2023\REPSWITCH21092023\REPSWITCH_excgange\REPSWITCH_excgange\data/230104_REPSWITCH1_version1_list4_2023-12-01_15h08.46.380_micRespv1l4_recorded\recording_micRespv1l4_2023-12-01_15h12.13.901.wav;213.35250129993074;213.85257040010765;None;;;;;;230104;001;2023-12-01_15h08.46.380;REPSWITCH1_version1_list4;2022.2.4;143.96795843490372;
REPSWITCH1/PICTURE_264.png;mano;speak;gold;repeat;2;T;2;4;4;1;Stim3_Set2;0;None;43;42;43;0;42;42;42;;;;;;;;;;;;;;;;;;;;;;;213.85257040010765;214.90824200003408;214.90824200003408;214.90824200003408;214.90824200003408;214.90824200003408;214.90824200003408;214.90824200003408;214.90824200003408;217.92941450001672;217.92941450001672;217.92941450001672;217.92941450001672;217.92941450001672;217.92941450001672;None;0;;;C:\2023\REPSWITCH21092023\REPSWITCH_excgange\REPSWITCH_excgange\data/230104_REPSWITCH1_version1_list4_2023-12-01_15h08.46.380_micRespv1l4_recorded\recording_micRespv1l4_2023-12-01_15h12.18.478.wav;217.92941450001672;218.42955800006166;None;;;;;;230104;001;2023-12-01_15h08.46.380;REPSWITCH1_version1_list4;2022.2.4;143.96795843490372;
REPSWITCH1/PICTURE_128.png;muñeca;type;darkblue;filler;1;F;2;4;4;1;Stim4_Set1;0;None;44;43;44;0;43;43;43;;;;;;;;;;;;;;;;;;;;;;;218.42955800006166;219.53381410008296;219.53381410008296;219.53381410008296;219.53381410008296;219.53381410008296;219.53381410008296;219.53381410008296;219.53381410008296;222.55498030013405;222.55498030013405;222.55498030013405;222.55498030013405;222.55498030013405;222.55498030013405;['m', 'u', 'ñ', 'e', 'c', 'a'];0;[0.9100658998358995, 1.0896815997548401, 1.616260499926284, 1.7189098997041583, 2.0308103999122977, 2.1457156997639686];muñeca;C:\2023\REPSWITCH21092023\REPSWITCH_excgange\REPSWITCH_excgange\data/230104_REPSWITCH1_version1_list4_2023-12-01_15h08.46.380_micRespv1l4_recorded\recording_micRespv1l4_2023-12-01_15h12.23.104.wav;222.55498030013405;223.0550782000646;None;;;;;;230104;001;2023-12-01_15h08.46.380;REPSWITCH1_version1_list4;2022.2.4;143.96795843490372;
REPSWITCH1/PICTURE_30.png;granja;speak;gold;nontarget;2;NT;2;4;4;1;Stim5_Set2;1;switch;45;44;45;0;44;44;44;;;;;;;;;;;;;;;;;;;;;;;223.0550782000646;224.17330490006134;224.17330490006134;224.17330490006134;224.17330490006134;224.17330490006134;224.17330490006134;224.17330490006134;224.17330490006134;227.2014848999679;227.2014848999679;227.2014848999679;227.2014848999679;227.2014848999679;227.2014848999679;None;0;;;C:\2023\REPSWITCH21092023\REPSWITCH_excgange\REPSWITCH_excgange\data/230104_REPSWITCH1_version1_list4_2023-12-01_15h08.46.380_micRespv1l4_recorded\recording_micRespv1l4_2023-12-01_15h12.27.745.wav;227.2014848999679;;None;;;;;;230104;001;2023-12-01_15h08.46.380;REPSWITCH1_version1_list4;2022.2.4;143.96795843490372;
REPSWITCH1/PICTURE_30.png;granja;speak;gold;repeat;2;T;2;4;4;1;Stim5_Set2;0;None;46;45;46;0;45;45;45;;;;;;;;;;;;;;;;;;;;;;;227.7015239999164;228.75725140003487;228.75725140003487;228.75725140003487;228.75725140003487;228.75725140003487;228.75725140003487;228.75725140003487;228.75725140003487;231.77841789997183;231.77841789997183;231.77841789997183;231.77841789997183;231.77841789997183;231.77841789997183;None;0;;;C:\2023\REPSWITCH21092023\REPSWITCH_excgange\REPSWITCH_excgange\data/230104_REPSWITCH1_version1_list4_2023-12-01_15h08.46.380_micRespv1l4_recorded\recording_micRespv1l4_2023-12-01_15h12.32.328.wav;231.77841789997183;232.2785122001078;None;;;;;;230104;001;2023-12-01_15h08.46.380;REPSWITCH1_version1_list4;2022.2.4;143.96795843490372;
REPSWITCH1/PICTURE_646.png;tronco;type;darkblue;filler;1;F;2;4;4;1;Extra4;0;None;47;46;47;0;46;46;46;;;;;;;;;;;;;;;;;;;;;;;232.2785122001078;233.39678069995716;233.39678069995716;233.39678069995716;233.39678069995716;233.39678069995716;233.39678069995716;233.39678069995716;233.39678069995716;236.41792910010554;236.41792910010554;236.41792910010554;236.41792910010554;236.41792910010554;236.41792910010554;['t', 'r', 'o', 'n', 'c', 'o'];0;[1.3167963998857886, 1.4354063998907804, 1.606530899880454, 1.7988322998862714, 2.090990899829194, 2.167764699785039];tronco;C:\2023\REPSWITCH21092023\REPSWITCH_excgange\REPSWITCH_excgange\data/230104_REPSWITCH1_version1_list4_2023-12-01_15h08.46.380_micRespv1l4_recorded\recording_micRespv1l4_2023-12-01_15h12.36.966.wav;236.41792910010554;236.91798779997043;None;;;;;;230104;001;2023-12-01_15h08.46.380;REPSWITCH1_version1_list4;2022.2.4;143.96795843490372;
REPSWITCH1/PICTURE_16.png;cazador;speak;gold;filler;2;F;2;4;4;1;Stim6_Set1;0;None;48;47;48;0;47;47;47;;;;;;;;;;;;;;;;;;;;;;;236.91798779997043;237.95979560003616;237.95979560003616;237.95979560003616;237.95979560003616;237.95979560003616;237.95979560003616;237.95979560003616;237.95979560003616;240.98803559993394;240.98803559993394;240.98803559993394;240.98803559993394;240.98803559993394;240.98803559993394;None;0;;;C:\2023\REPSWITCH21092023\REPSWITCH_excgange\REPSWITCH_excgange\data/230104_REPSWITCH1_version1_list4_2023-12-01_15h08.46.380_micRespv1l4_recorded\recording_micRespv1l4_2023-12-01_15h12.41.530.wav;240.98803559993394;;None;;;;;;230104;001;2023-12-01_15h08.46.380;REPSWITCH1_version1_list4;2022.2.4;143.96795843490372;
REPSWITCH1/PICTURE_175.png;pintor;speak;gold;nontarget;2;NT;2;4;4;1;Stim1_Set2;1;repeat;49;48;49;0;48;48;48;;;;;;;;;;;;;;;;;;;;;;;241.48802029993385;242.64799139997922;242.64799139997922;242.64799139997922;242.64799139997922;242.64799139997922;242.64799139997922;242.64799139997922;242.64799139997922;245.6692121999804;245.6692121999804;245.6692121999804;245.6692121999804;245.6692121999804;245.6692121999804;None;0;;;C:\2023\REPSWITCH21092023\REPSWITCH_excgange\REPSWITCH_excgange\data/230104_REPSWITCH1_version1_list4_2023-12-01_15h08.46.380_micRespv1l4_recorded\recording_micRespv1l4_2023-12-01_15h12.46.218.wav;245.6692121999804;246.16922729997896;None;;;;;;230104;001;2023-12-01_15h08.46.380;REPSWITCH1_version1_list4;2022.2.4;143.96795843490372;
REPSWITCH1/PICTURE_175.png;pintor;type;darkblue;switch;1;T;2;4;4;1;Stim1_Set2;0;None;50;49;50;0;49;49;49;;;;;;;;;;;;;;;;;;;;;;;246.16922729997896;247.224932000041;247.224932000041;247.224932000041;247.224932000041;247.224932000041;247.224932000041;247.224932000041;247.224932000041;250.24613300012425;250.24613300012425;250.24613300012425;250.24613300012425;250.24613300012425;250.24613300012425;['p', 'i', 'n', 't', 'o', 'r'];0;[1.0679663999471813, 1.5949144999030977, 1.8074298999272287, 1.965131799923256, 2.0917471998836845, 2.220323899993673];pintor;C:\2023\REPSWITCH21092023\REPSWITCH_excgange\REPSWITCH_excgange\data/230104_REPSWITCH1_version1_list4_2023-12-01_15h08.46.380_micRespv1l4_recorded\recording_micRespv1l4_2023-12-01_15h12.50.795.wav;250.24613300012425;250.7462895999197;None;;;;;;230104;001;2023-12-01_15h08.46.380;REPSWITCH1_version1_list4;2022.2.4;143.96795843490372;
REPSWITCH1/PICTURE_663.png;columna;speak;gold;filler;2;F;4;4;4;1;Extra6;0;None;51;50;51;0;50;50;50;;;;;;;;;;;;;;;;;;;;;;;250.7462895999197;251.98949380009435;251.98949380009435;251.98949380009435;251.98949380009435;251.98949380009435;251.98949380009435;251.98949380009435;251.98949380009435;255.01758549991064;255.01758549991064;255.01758549991064;255.01758549991064;255.01758549991064;255.01758549991064;None;0;;;C:\2023\REPSWITCH21092023\REPSWITCH_excgange\REPSWITCH_excgange\data/230104_REPSWITCH1_version1_list4_2023-12-01_15h08.46.380_micRespv1l4_recorded\recording_micRespv1l4_2023-12-01_15h12.55.559.wav;255.01758549991064;;space;255.51767219998874;255.51767219998874;1.2774548998568207;;;230104;001;2023-12-01_15h08.46.380;REPSWITCH1_version1_list4;2022.2.4;143.96795843490372;
REPSWITCH1/PICTURE_35.png;oreja;type;darkblue;nontarget;1;NT;3;4;4;1;Stim5_Set3;0;None;52;51;52;0;51;51;51;;;;;;;;;;;;;;;;;;;;;;;256.80257169995457;257.8930118000135;257.8930118000135;257.8930118000135;257.8930118000135;257.8930118000135;257.8930118000135;257.8930118000135;257.8930118000135;260.91423270013183;260.91423270013183;260.91423270013183;260.91423270013183;260.91423270013183;260.91423270013183;['o', 'r', 'e', 'j', 'a'];0;[1.3401957997120917, 1.5437793997116387, 1.6215326997917145, 1.815507099730894, 1.9852371998131275];oreja;C:\2023\REPSWITCH21092023\REPSWITCH_excgange\REPSWITCH_excgange\data/230104_REPSWITCH1_version1_list4_2023-12-01_15h08.46.380_micRespv1l4_recorded\recording_micRespv1l4_2023-12-01_15h13.01.463.wav;260.91423270013183;261.41428639995866;None;;;;;;230104;001;2023-12-01_15h08.46.380;REPSWITCH1_version1_list4;2022.2.4;143.96795843490372;
REPSWITCH1/PICTURE_35.png;oreja;speak;gold;switch;2;T;3;4;4;1;Stim5_Set3;0;None;53;52;53;0;52;52;52;;;;;;;;;;;;;;;;;;;;;;;261.41428639995866;262.5741475999821;262.5741475999821;262.5741475999821;262.5741475999821;262.5741475999821;262.5741475999821;262.5741475999821;262.5741475999821;265.6023482000455;265.6023482000455;265.6023482000455;265.6023482000455;265.6023482000455;265.6023482000455;None;0;;;C:\2023\REPSWITCH21092023\REPSWITCH_excgange\REPSWITCH_excgange\data/230104_REPSWITCH1_version1_list4_2023-12-01_15h08.46.380_micRespv1l4_recorded\recording_micRespv1l4_2023-12-01_15h13.06.145.wav;265.6023482000455;;None;;;;;;230104;001;2023-12-01_15h08.46.380;REPSWITCH1_version1_list4;2022.2.4;143.96795843490372;
REPSWITCH1/PICTURE_199.png;falda;speak;gold;filler;2;F;3;4;4;1;Stim8_Set2;0;None;54;53;54;0;53;53;53;;;;;;;;;;;;;;;;;;;;;;;266.10239470005035;267.1580737999175;267.1580737999175;267.1580737999175;267.1580737999175;267.1580737999175;267.1580737999175;267.1580737999175;267.1580737999175;270.1793257999234;270.1793257999234;270.1793257999234;270.1793257999234;270.1793257999234;270.1793257999234;None;0;;;C:\2023\REPSWITCH21092023\REPSWITCH_excgange\REPSWITCH_excgange\data/230104_REPSWITCH1_version1_list4_2023-12-01_15h08.46.380_micRespv1l4_recorded\recording_micRespv1l4_2023-12-01_15h13.10.728.wav;270.1793257999234;270.6793865999207;None;;;;;;230104;001;2023-12-01_15h08.46.380;REPSWITCH1_version1_list4;2022.2.4;143.96795843490372;
REPSWITCH1/PICTURE_576.png;guante;speak;gold;nontarget;2;NT;3;4;4;1;Stim1_Set3;1;repeat;55;54;55;0;54;54;54;;;;;;;;;;;;;;;;;;;;;;;270.6793865999207;271.72118939994834;271.72118939994834;271.72118939994834;271.72118939994834;271.72118939994834;271.72118939994834;271.72118939994834;271.72118939994834;274.74239800008945;274.74239800008945;274.74239800008945;274.74239800008945;274.74239800008945;274.74239800008945;None;0;;;C:\2023\REPSWITCH21092023\REPSWITCH_excgange\REPSWITCH_excgange\data/230104_REPSWITCH1_version1_list4_2023-12-01_15h08.46.380_micRespv1l4_recorded\recording_micRespv1l4_2023-12-01_15h13.15.292.wav;274.74239800008945;275.2424820999149;None;;;;;;230104;001;2023-12-01_15h08.46.380;REPSWITCH1_version1_list4;2022.2.4;143.96795843490372;
REPSWITCH1/PICTURE_576.png;guante;type;darkblue;switch;1;T;3;4;4;1;Stim1_Set3;0;None;56;55;56;0;55;55;55;;;;;;;;;;;;;;;;;;;;;;;275.2424820999149;276.35380630008876;276.35380630008876;276.35380630008876;276.35380630008876;276.35380630008876;276.35380630008876;276.35380630008876;276.35380630008876;279.38193250005133;279.38193250005133;279.38193250005133;279.38193250005133;279.38193250005133;279.38193250005133;['g', 'a', 'u', 'n', 'backspace', 'backspace'];0;[1.1819797998759896, 1.4247850999236107, 1.613076200010255, 1.8844679999165237, 2.659218599786982, 2.851352599915117];ga;C:\2023\REPSWITCH21092023\REPSWITCH_excgange\REPSWITCH_excgange\data/230104_REPSWITCH1_version1_list4_2023-12-01_15h08.46.380_micRespv1l4_recorded\recording_micRespv1l4_2023-12-01_15h13.19.925.wav;279.38193250005133;;None;;;;;;230104;001;2023-12-01_15h08.46.380;REPSWITCH1_version1_list4;2022.2.4;143.96795843490372;
REPSWITCH1/PICTURE_517.png;cuerda;type;darkblue;filler;1;F;3;4;4;1;Stim4_Set2;1;repeat;57;56;57;0;56;56;56;;;;;;;;;;;;;;;;;;;;;;;279.8819593999069;280.9863178001251;280.9863178001251;280.9863178001251;280.9863178001251;280.9863178001251;280.9863178001251;280.9863178001251;280.9863178001251;284.00749050010927;284.00749050010927;284.00749050010927;284.00749050010927;284.00749050010927;284.00749050010927;['c', 'u', 'e', 'r', 'd', 'a'];0;[0.9609338999725878, 1.0994601000566036, 1.2549526998773217, 1.3017917999532074, 1.5559191000647843, 1.7415054999291897];cuerda;C:\2023\REPSWITCH21092023\REPSWITCH_excgange\REPSWITCH_excgange\data/230104_REPSWITCH1_version1_list4_2023-12-01_15h08.46.380_micRespv1l4_recorded\recording_micRespv1l4_2023-12-01_15h13.24.556.wav;284.00749050010927;284.5076017000247;None;;;;;;230104;001;2023-12-01_15h08.46.380;REPSWITCH1_version1_list4;2022.2.4;143.96795843490372;
REPSWITCH1/PICTURE_271.png;conejo;type;darkblue;nontarget;1;NT;3;4;4;1;Stim7_Set3;1;repeat;58;57;58;0;57;57;57;;;;;;;;;;;;;;;;;;;;;;;284.5076017000247;285.68142029992305;285.68142029992305;285.68142029992305;285.68142029992305;285.68142029992305;285.68142029992305;285.68142029992305;285.68142029992305;288.70952809997834;288.70952809997834;288.70952809997834;288.70952809997834;288.70952809997834;288.70952809997834;['c', 'o', 'n', 'e', 'j', 'o'];0;[0.8793738000094891, 1.0450983999762684, 1.3171939000021666, 1.4490809000562876, 1.6147803000640124, 1.7334415998775512];conejo;C:\2023\REPSWITCH21092023\REPSWITCH_excgange\REPSWITCH_excgange\data/230104_REPSWITCH1_version1_list4_2023-12-01_15h08.46.380_micRespv1l4_recorded\recording_micRespv1l4_2023-12-01_15h13.29.253.wav;288.70952809997834;;None;;;;;;230104;001;2023-12-01_15h08.46.380;REPSWITCH1_version1_list4;2022.2.4;143.96795843490372;
REPSWITCH1/PICTURE_271.png;conejo;speak;gold;switch;2;T;3;4;4;1;Stim7_Set3;0;None;59;58;59;0;58;58;58;;;;;;;;;;;;;;;;;;;;;;;289.20966099994257;290.39029449992813;290.39029449992813;290.39029449992813;290.39029449992813;290.39029449992813;290.39029449992813;290.39029449992813;290.39029449992813;293.4184840999078;293.4184840999078;293.4184840999078;293.4184840999078;293.4184840999078;293.4184840999078;None;0;;;C:\2023\REPSWITCH21092023\REPSWITCH_excgange\REPSWITCH_excgange\data/230104_REPSWITCH1_version1_list4_2023-12-01_15h08.46.380_micRespv1l4_recorded\recording_micRespv1l4_2023-12-01_15h13.33.961.wav;293.4184840999078;;None;;;;;;230104;001;2023-12-01_15h08.46.380;REPSWITCH1_version1_list4;2022.2.4;143.96795843490372;
REPSWITCH1/PICTURE_552.png;manzana;type;darkblue;filler;1;F;3;4;4;1;Stim6_Set2;0;None;60;59;60;0;59;59;59;;;;;;;;;;;;;;;;;;;;;;;293.91852069995366;295.0506575999316;295.0506575999316;295.0506575999316;295.0506575999316;295.0506575999316;295.0506575999316;295.0506575999316;295.0506575999316;298.07188810012303;298.07188810012303;298.07188810012303;298.07188810012303;298.07188810012303;298.07188810012303;['m', 'a', 'n', 'z', 'a', 'n', 'a'];0;[0.8743567997589707, 0.9909557998180389, 1.130444899899885, 2.271340899867937, 2.438654199941084, 2.5463212998583913, 2.6060547998640686];manzana;C:\2023\REPSWITCH21092023\REPSWITCH_excgange\REPSWITCH_excgange\data/230104_REPSWITCH1_version1_list4_2023-12-01_15h08.46.380_micRespv1l4_recorded\recording_micRespv1l4_2023-12-01_15h13.38.621.wav;298.07188810012303;298.57190950005315;None;;;;;;230104;001;2023-12-01_15h08.46.380;REPSWITCH1_version1_list4;2022.2.4;143.96795843490372;
REPSWITCH1/PICTURE_242.png;cartero;speak;gold;nontarget;2;NT;3;4;4;1;Stim3_Set3;1;switch;61;60;61;0;60;60;60;;;;;;;;;;;;;;;;;;;;;;;298.57190950005315;299.6415415999945;299.6415415999945;299.6415415999945;299.6415415999945;299.6415415999945;299.6415415999945;299.6415415999945;299.6415415999945;302.66275859996676;302.66275859996676;302.66275859996676;302.66275859996676;302.66275859996676;302.66275859996676;None;0;;;C:\2023\REPSWITCH21092023\REPSWITCH_excgange\REPSWITCH_excgange\data/230104_REPSWITCH1_version1_list4_2023-12-01_15h08.46.380_micRespv1l4_recorded\recording_micRespv1l4_2023-12-01_15h13.43.212.wav;302.66275859996676;303.16282119997777;None;;;;;;230104;001;2023-12-01_15h08.46.380;REPSWITCH1_version1_list4;2022.2.4;143.96795843490372;
REPSWITCH1/PICTURE_242.png;cartero;speak;gold;repeat;2;T;3;4;4;1;Stim3_Set3;0;None;62;61;62;0;61;61;61;;;;;;;;;;;;;;;;;;;;;;;303.16282119997777;304.3018650999293;304.3018650999293;304.3018650999293;304.3018650999293;304.3018650999293;304.3018650999293;304.3018650999293;304.3018650999293;307.3230509001296;307.3230509001296;307.3230509001296;307.3230509001296;307.3230509001296;307.3230509001296;None;0;;;C:\2023\REPSWITCH21092023\REPSWITCH_excgange\REPSWITCH_excgange\data/230104_REPSWITCH1_version1_list4_2023-12-01_15h08.46.380_micRespv1l4_recorded\recording_micRespv1l4_2023-12-01_15h13.47.872.wav;307.3230509001296;307.823137300089;None;;;;;;230104;001;2023-12-01_15h08.46.380;REPSWITCH1_version1_list4;2022.2.4;143.96795843490372;
REPSWITCH1/PICTURE_152.png;caracol;speak;gold;filler;2;F;3;4;4;1;Stim2_Set2;0;None;63;62;63;0;62;62;62;;;;;;;;;;;;;;;;;;;;;;;307.823137300089;309.0524995001033;309.0524995001033;309.0524995001033;309.0524995001033;309.0524995001033;309.0524995001033;309.0524995001033;309.0524995001033;312.07371130003594;312.07371130003594;312.07371130003594;312.07371130003594;312.07371130003594;312.07371130003594;None;0;;;C:\2023\REPSWITCH21092023\REPSWITCH_excgange\REPSWITCH_excgange\data/230104_REPSWITCH1_version1_list4_2023-12-01_15h08.46.380_micRespv1l4_recorded\recording_micRespv1l4_2023-12-01_15h13.52.623.wav;312.07371130003594;312.5737894999329;None;;;;;;230104;001;2023-12-01_15h08.46.380;REPSWITCH1_version1_list4;2022.2.4;143.96795843490372;
REPSWITCH1/PICTURE_446.png;cerdo;type;darkblue;filler;1;F;3;4;4;1;Stim7_Set2;1;switch;64;63;64;0;63;63;63;;;;;;;;;;;;;;;;;;;;;;;312.5737894999329;313.6433645999059;313.6433645999059;313.6433645999059;313.6433645999059;313.6433645999059;313.6433645999059;313.6433645999059;313.6433645999059;316.664669000078;316.664669000078;316.664669000078;316.664669000078;316.664669000078;316.664669000078;['c', 'e', 'r', 'd', 'o'];0;[0.8747151999268681, 1.0909902998246253, 1.2853360997978598, 2.02118149981834, 2.2165732998400927];cerdo;C:\2023\REPSWITCH21092023\REPSWITCH_excgange\REPSWITCH_excgange\data/230104_REPSWITCH1_version1_list4_2023-12-01_15h08.46.380_micRespv1l4_recorded\recording_micRespv1l4_2023-12-01_15h13.57.213.wav;316.664669000078;317.1646515999455;None;;;;;;230104;001;2023-12-01_15h08.46.380;REPSWITCH1_version1_list4;2022.2.4;143.96795843490372;
REPSWITCH1/PICTURE_610.png;miel;speak;gold;nontarget;2;NT;3;4;4;1;Stim2_Set3;1;switch;65;64;65;0;64;64;64;;;;;;;;;;;;;;;;;;;;;;;317.1646515999455;318.24120140005834;318.24120140005834;318.24120140005834;318.24120140005834;318.24120140005834;318.24120140005834;318.24120140005834;318.24120140005834;321.2694349999074;321.2694349999074;321.2694349999074;321.2694349999074;321.2694349999074;321.2694349999074;None;0;;;C:\2023\REPSWITCH21092023\REPSWITCH_excgange\REPSWITCH_excgange\data/230104_REPSWITCH1_version1_list4_2023-12-01_15h08.46.380_micRespv1l4_recorded\recording_micRespv1l4_2023-12-01_15h14.01.812.wav;321.2694349999074;;None;;;;;;230104;001;2023-12-01_15h08.46.380;REPSWITCH1_version1_list4;2022.2.4;143.96795843490372;
REPSWITCH1/PICTURE_610.png;miel;speak;gold;repeat;2;T;3;4;4;1;Stim2_Set3;0;None;66;65;66;0;65;65;65;;;;;;;;;;;;;;;;;;;;;;;321.76942920009606;322.88769040000625;322.88769040000625;322.88769040000625;322.88769040000625;322.88769040000625;322.88769040000625;322.88769040000625;322.88769040000625;325.9157911001239;325.9157911001239;325.9157911001239;325.9157911001239;325.9157911001239;325.9157911001239;None;0;;;C:\2023\REPSWITCH21092023\REPSWITCH_excgange\REPSWITCH_excgange\data/230104_REPSWITCH1_version1_list4_2023-12-01_15h08.46.380_micRespv1l4_recorded\recording_micRespv1l4_2023-12-01_15h14.06.458.wav;325.9157911001239;;None;;;;;;230104;001;2023-12-01_15h08.46.380;REPSWITCH1_version1_list4;2022.2.4;143.96795843490372;
REPSWITCH1/PICTURE_320.png;iglesia;speak;gold;nontarget;2;NT;3;4;4;1;Stim8_Set3;1;repeat;67;66;67;0;66;66;66;;;;;;;;;;;;;;;;;;;;;;;326.4158640000969;327.4437939999625;327.4437939999625;327.4437939999625;327.4437939999625;327.4437939999625;327.4437939999625;327.4437939999625;327.4437939999625;330.47193320002407;330.47193320002407;330.47193320002407;330.47193320002407;330.47193320002407;330.47193320002407;None;0;;;C:\2023\REPSWITCH21092023\REPSWITCH_excgange\REPSWITCH_excgange\data/230104_REPSWITCH1_version1_list4_2023-12-01_15h08.46.380_micRespv1l4_recorded\recording_micRespv1l4_2023-12-01_15h14.11.014.wav;330.47193320002407;;None;;;;;;230104;001;2023-12-01_15h08.46.380;REPSWITCH1_version1_list4;2022.2.4;143.96795843490372;
REPSWITCH1/PICTURE_320.png;iglesia;type;darkblue;switch;1;T;3;4;4;1;Stim8_Set3;0;None;68;67;68;0;67;67;67;;;;;;;;;;;;;;;;;;;;;;;330.97200440010056;332.0138453999534;332.0138453999534;332.0138453999534;332.0138453999534;332.0138453999534;332.0138453999534;332.0138453999534;332.0138453999534;335.04197539994493;335.04197539994493;335.04197539994493;335.04197539994493;335.04197539994493;335.04197539994493;['i', 'g', 'l', 'e', 's', 'i', 'a'];0;[0.9658584997523576, 1.3234149997588247, 1.516155099729076, 1.6087852998171002, 1.8380398999433964, 1.9545833999291062, 2.0731467998120934];iglesia;C:\2023\REPSWITCH21092023\REPSWITCH_excgange\REPSWITCH_excgange\data/230104_REPSWITCH1_version1_list4_2023-12-01_15h08.46.380_micRespv1l4_recorded\recording_micRespv1l4_2023-12-01_15h14.15.584.wav;335.04197539994493;;None;;;;;;230104;001;2023-12-01_15h08.46.380;REPSWITCH1_version1_list4;2022.2.4;143.96795843490372;
REPSWITCH1/PICTURE_30.png;granja;speak;gold;filler;2;F;3;4;4;1;Stim5_Set2;0;None;69;68;69;0;68;68;68;;;;;;;;;;;;;;;;;;;;;;;335.5420419999864;336.68109180009924;336.68109180009924;336.68109180009924;336.68109180009924;336.68109180009924;336.68109180009924;336.68109180009924;336.68109180009924;339.70926699996926;339.70926699996926;339.70926699996926;339.70926699996926;339.70926699996926;339.70926699996926;None;0;;;C:\2023\REPSWITCH21092023\REPSWITCH_excgange\REPSWITCH_excgange\data/230104_REPSWITCH1_version1_list4_2023-12-01_15h08.46.380_micRespv1l4_recorded\recording_micRespv1l4_2023-12-01_15h14.20.252.wav;339.70926699996926;340.2093350000214;None;;;;;;230104;001;2023-12-01_15h08.46.380;REPSWITCH1_version1_list4;2022.2.4;143.96795843490372;
REPSWITCH1/PICTURE_264.png;mano;type;darkblue;filler;1;F;3;4;4;1;Stim3_Set2;0;None;70;69;70;0;69;69;69;;;;;;;;;;;;;;;;;;;;;;;340.2093350000214;341.43867189995944;341.43867189995944;341.43867189995944;341.43867189995944;341.43867189995944;341.43867189995944;341.43867189995944;341.43867189995944;344.4599051999394;344.4599051999394;344.4599051999394;344.4599051999394;344.4599051999394;344.4599051999394;['m', 'a', 'n', 'o'];0;[0.8167057998944074, 0.9193557999096811, 1.1188550998922437, 1.2673476999625564];mano;C:\2023\REPSWITCH21092023\REPSWITCH_excgange\REPSWITCH_excgange\data/230104_REPSWITCH1_version1_list4_2023-12-01_15h08.46.380_micRespv1l4_recorded\recording_micRespv1l4_2023-12-01_15h14.25.008.wav;344.4599051999394;344.95993239991367;None;;;;;;230104;001;2023-12-01_15h08.46.380;REPSWITCH1_version1_list4;2022.2.4;143.96795843490372;
REPSWITCH1/PICTURE_464.png;goma;type;darkblue;nontarget;1;NT;3;4;4;1;Stim6_Set3;0;None;71;70;71;0;70;70;70;;;;;;;;;;;;;;;;;;;;;;;344.95993239991367;346.0434606000781;346.0434606000781;346.0434606000781;346.0434606000781;346.0434606000781;346.0434606000781;346.0434606000781;346.0434606000781;349.0716089999769;349.0716089999769;349.0716089999769;349.0716089999769;349.0716089999769;349.0716089999769;['g', 'o', 'm', 'a'];0;[1.841475100023672, 1.9322536999825388, 2.391994999954477, 2.512556199915707];goma;C:\2023\REPSWITCH21092023\REPSWITCH_excgange\REPSWITCH_excgange\data/230104_REPSWITCH1_version1_list4_2023-12-01_15h08.46.380_micRespv1l4_recorded\recording_micRespv1l4_2023-12-01_15h14.29.613.wav;349.0716089999769;;None;;;;;;230104;001;2023-12-01_15h08.46.380;REPSWITCH1_version1_list4;2022.2.4;143.96795843490372;
REPSWITCH1/PICTURE_464.png;goma;type;darkblue;repeat;1;T;3;4;4;1;Stim6_Set3;0;None;72;71;72;0;71;71;71;;;;;;;;;;;;;;;;;;;;;;;349.57168489997275;350.64821960008703;350.64821960008703;350.64821960008703;350.64821960008703;350.64821960008703;350.64821960008703;350.64821960008703;350.64821960008703;353.6763983001001;353.6763983001001;353.6763983001001;353.6763983001001;353.6763983001001;353.6763983001001;['g', 'o', 'm', 'a'];0;[1.1461964996997267, 1.270770999835804, 1.4950623998884112, 1.6076750997453928];goma;C:\2023\REPSWITCH21092023\REPSWITCH_excgange\REPSWITCH_excgange\data/230104_REPSWITCH1_version1_list4_2023-12-01_15h08.46.380_micRespv1l4_recorded\recording_micRespv1l4_2023-12-01_15h14.34.218.wav;353.6763983001001;;None;;;;;;230104;001;2023-12-01_15h08.46.380;REPSWITCH1_version1_list4;2022.2.4;143.96795843490372;
REPSWITCH1/PICTURE_175.png;pintor;speak;gold;filler;2;F;3;4;4;1;Stim1_Set2;0;None;73;72;73;0;72;72;72;;;;;;;;;;;;;;;;;;;;;;;354.1764620000031;355.32249079993926;355.32249079993926;355.32249079993926;355.32249079993926;355.32249079993926;355.32249079993926;355.32249079993926;355.32249079993926;358.34364839992486;358.34364839992486;358.34364839992486;358.34364839992486;358.34364839992486;358.34364839992486;['p', 'i', 'n', 't', 'o', 'r'];0;[1.0076285998802632, 1.2980106000322849, 1.5054943999275565, 1.6849236998241395, 1.8020695999730378, 1.9646017998456955];pintor;C:\2023\REPSWITCH21092023\REPSWITCH_excgange\REPSWITCH_excgange\data/230104_REPSWITCH1_version1_list4_2023-12-01_15h08.46.380_micRespv1l4_recorded\recording_micRespv1l4_2023-12-01_15h14.38.893.wav;358.34364839992486;358.84380879998207;None;;;;;;230104;001;2023-12-01_15h08.46.380;REPSWITCH1_version1_list4;2022.2.4;143.96795843490372;
REPSWITCH1/PICTURE_235.png;aguja;type;darkblue;nontarget;1;NT;3;4;4;1;Stim4_Set3;1;switch;74;73;74;0;73;73;73;;;;;;;;;;;;;;;;;;;;;;;358.84380879998207;359.934137100121;359.934137100121;359.934137100121;359.934137100121;359.934137100121;359.934137100121;359.934137100121;359.934137100121;362.96234249998815;362.96234249998815;362.96234249998815;362.96234249998815;362.96234249998815;362.96234249998815;['a', 'g', 'u', 'j', 'a'];0;[1.2754755998030305, 1.473805499728769, 1.620628299890086, 1.8013247998896986, 1.8720822997856885];aguja;C:\2023\REPSWITCH21092023\REPSWITCH_excgange\REPSWITCH_excgange\data/230104_REPSWITCH1_version1_list4_2023-12-01_15h08.46.380_micRespv1l4_recorded\recording_micRespv1l4_2023-12-01_15h14.43.505.wav;362.96234249998815;363.4623968999367;None;;;;;;230104;001;2023-12-01_15h08.46.380;REPSWITCH1_version1_list4;2022.2.4;143.96795843490372;
REPSWITCH1/PICTURE_235.png;aguja;type;darkblue;repeat;1;T;3;4;4;1;Stim4_Set3;0;None;75;74;75;0;74;74;74;;;;;;;;;;;;;;;;;;;;;;;363.4623968999367;364.52502700011246;364.52502700011246;364.52502700011246;364.52502700011246;364.52502700011246;364.52502700011246;364.52502700011246;364.52502700011246;367.55321840010583;367.55321840010583;367.55321840010583;367.55321840010583;367.55321840010583;367.55321840010583;['a', 'g', 'u', 'j', 'a'];0;[0.6678408998996019, 0.9507815998513252, 1.1161660999059677, 1.322563799796626, 1.409262899775058];aguja;C:\2023\REPSWITCH21092023\REPSWITCH_excgange\REPSWITCH_excgange\data/230104_REPSWITCH1_version1_list4_2023-12-01_15h08.46.380_micRespv1l4_recorded\recording_micRespv1l4_2023-12-01_15h14.48.097.wav;367.55321840010583;368.05326780001633;None;;;;;;230104;001;2023-12-01_15h08.46.380;REPSWITCH1_version1_list4;2022.2.4;143.96795843490372;
REPSWITCH1/PICTURE_576.png;guante;type;darkblue;filler;1;F;4;4;4;1;Stim1_Set3;1;repeat;76;75;76;0;75;75;75;;;;;;;;;;;;;;;;;;;;;;;368.05326780001633;369.25489649991505;369.25489649991505;369.25489649991505;369.25489649991505;369.25489649991505;369.25489649991505;369.25489649991505;369.25489649991505;372.27603890001774;372.27603890001774;372.27603890001774;372.27603890001774;372.27603890001774;372.27603890001774;['g', 'u', 'a', 'n', 't', 'e'];0;[0.8886320998426527, 1.0760313998907804, 1.3207759000360966, 1.462881000014022, 1.7143308999948204, 1.8289093000348657];guante;C:\2023\REPSWITCH21092023\REPSWITCH_excgange\REPSWITCH_excgange\data/230104_REPSWITCH1_version1_list4_2023-12-01_15h08.46.380_micRespv1l4_recorded\recording_micRespv1l4_2023-12-01_15h14.52.825.wav;372.27603890001774;372.77608569990844;None;;;;;;230104;001;2023-12-01_15h08.46.380;REPSWITCH1_version1_list4;2022.2.4;143.96795843490372;
REPSWITCH1/PICTURE_340.png;espejo;speak;gold;filler;2;F;4;4;4;1;Extra1;0;None;77;76;77;0;76;76;76;;;;;;;;;;;;;;;;;;;;;;;372.77608569990844;373.90819630003534;373.90819630003534;373.90819630003534;373.90819630003534;373.90819630003534;373.90819630003534;373.90819630003534;373.90819630003534;376.93638189998455;376.93638189998455;376.93638189998455;376.93638189998455;376.93638189998455;376.93638189998455;None;0;;;C:\2023\REPSWITCH21092023\REPSWITCH_excgange\REPSWITCH_excgange\data/230104_REPSWITCH1_version1_list4_2023-12-01_15h08.46.380_micRespv1l4_recorded\recording_micRespv1l4_2023-12-01_15h14.57.479.wav;376.93638189998455;;None;;;;;;230104;001;2023-12-01_15h08.46.380;REPSWITCH1_version1_list4;2022.2.4;143.96795843490372;
REPSWITCH1/PICTURE_464.png;goma;speak;gold;filler;2;F;4;4;4;1;Stim6_Set3;1;repeat;78;77;78;0;77;77;77;;;;;;;;;;;;;;;;;;;;;;;377.4364634999074;378.49213719996624;378.49213719996624;378.49213719996624;378.49213719996624;378.49213719996624;378.49213719996624;378.49213719996624;378.49213719996624;381.51346140005626;381.51346140005626;381.51346140005626;381.51346140005626;381.51346140005626;381.51346140005626;None;0;;;C:\2023\REPSWITCH21092023\REPSWITCH_excgange\REPSWITCH_excgange\data/230104_REPSWITCH1_version1_list4_2023-12-01_15h08.46.380_micRespv1l4_recorded\recording_micRespv1l4_2023-12-01_15h15.02.062.wav;381.51346140005626;382.0134497000836;None;;;;;;230104;001;2023-12-01_15h08.46.380;REPSWITCH1_version1_list4;2022.2.4;143.96795843490372;
REPSWITCH1/PICTURE_338.png;regalo;type;darkblue;nontarget;1;NT;4;4;4;1;Stim6_Set4;0;None;79;78;79;0;78;78;78;;;;;;;;;;;;;;;;;;;;;;;382.0134497000836;383.18032949999906;383.18032949999906;383.18032949999906;383.18032949999906;383.18032949999906;383.18032949999906;383.18032949999906;383.18032949999906;386.20151720009744;386.20151720009744;386.20151720009744;386.20151720009744;386.20151720009744;386.20151720009744;['r', 'e', 'g', 'a', 'l', 'o'];0;[0.9539826998952776, 1.0320483997929841, 1.2502127999905497, 1.5774338999763131, 1.7553917998448014, 2.009807299822569];regalo;C:\2023\REPSWITCH21092023\REPSWITCH_excgange\REPSWITCH_excgange\data/230104_REPSWITCH1_version1_list4_2023-12-01_15h08.46.380_micRespv1l4_recorded\recording_micRespv1l4_2023-12-01_15h15.06.750.wav;386.20151720009744;386.70163700007834;None;;;;;;230104;001;2023-12-01_15h08.46.380;REPSWITCH1_version1_list4;2022.2.4;143.96795843490372;
REPSWITCH1/PICTURE_338.png;regalo;type;darkblue;repeat;1;T;4;4;4;1;Stim6_Set4;0;None;80;79;80;0;79;79;79;;;;;;;;;;;;;;;;;;;;;;;386.70163700007834;387.9308815000113;387.9308815000113;387.9308815000113;387.9308815000113;387.9308815000113;387.9308815000113;387.9308815000113;387.9308815000113;390.9591016001068;390.9591016001068;390.9591016001068;390.9591016001068;390.9591016001068;390.9591016001068;['r', 'e', 'g', 'a', 'l', 'o'];0;[0.932710399851203, 1.0044642998836935, 1.2469466996844858, 1.4652543996926397, 1.6196978997904807, 1.8226290997117758];regalo;C:\2023\REPSWITCH21092023\REPSWITCH_excgange\REPSWITCH_excgange\data/230104_REPSWITCH1_version1_list4_2023-12-01_15h08.46.380_micRespv1l4_recorded\recording_micRespv1l4_2023-12-01_15h15.11.502.wav;390.9591016001068;;None;;;;;;230104;001;2023-12-01_15h08.46.380;REPSWITCH1_version1_list4;2022.2.4;143.96795843490372;
REPSWITCH1/PICTURE_8.png;pierna;type;darkblue;nontarget;1;NT;4;4;4;1;Stim3_Set4;1;repeat;81;80;81;0;80;80;80;;;;;;;;;;;;;;;;;;;;;;;391.4591322999913;392.59123950009234;392.59123950009234;392.59123950009234;392.59123950009234;392.59123950009234;392.59123950009234;392.59123950009234;392.59123950009234;395.6124315999914;395.6124315999914;395.6124315999914;395.6124315999914;395.6124315999914;395.6124315999914;['p', 'i', 'e', 'r', 'n', 'a'];0;[0.9334622998721898, 1.4370348998345435, 1.603736899793148, 1.6494833996985108, 1.8690888998098671, 1.9926291997544467];pierna;C:\2023\REPSWITCH21092023\REPSWITCH_excgange\REPSWITCH_excgange\data/230104_REPSWITCH1_version1_list4_2023-12-01_15h08.46.380_micRespv1l4_recorded\recording_micRespv1l4_2023-12-01_15h15.16.161.wav;395.6124315999914;396.11251530004665;None;;;;;;230104;001;2023-12-01_15h08.46.380;REPSWITCH1_version1_list4;2022.2.4;143.96795843490372;
REPSWITCH1/PICTURE_8.png;pierna;speak;gold;switch;2;T;4;4;4;1;Stim3_Set4;0;None;82;81;82;0;81;81;81;;;;;;;;;;;;;;;;;;;;;;;396.11251530004665;397.2307370000053;397.2307370000053;397.2307370000053;397.2307370000053;397.2307370000053;397.2307370000053;397.2307370000053;397.2307370000053;400.2519348000642;400.2519348000642;400.2519348000642;400.2519348000642;400.2519348000642;400.2519348000642;None;0;;;C:\2023\REPSWITCH21092023\REPSWITCH_excgange\REPSWITCH_excgange\data/230104_REPSWITCH1_version1_list4_2023-12-01_15h08.46.380_micRespv1l4_recorded\recording_micRespv1l4_2023-12-01_15h15.20.801.wav;400.2519348000642;400.75199829996563;None;;;;;;230104;001;2023-12-01_15h08.46.380;REPSWITCH1_version1_list4;2022.2.4;143.96795843490372;
REPSWITCH1/PICTURE_271.png;conejo;type;darkblue;filler;1;F;4;4;4;1;Stim7_Set3;0;None;83;82;83;0;82;82;82;;;;;;;;;;;;;;;;;;;;;;;400.75199829996563;401.78686200012453;401.78686200012453;401.78686200012453;401.78686200012453;401.78686200012453;401.78686200012453;401.78686200012453;401.78686200012453;404.80808160011657;404.80808160011657;404.80808160011657;404.80808160011657;404.80808160011657;404.80808160011657;['c', 'o', 'n', 'e', 'j', 'o'];0;[0.8542894998099655, 1.0466257999651134, 1.310080099850893, 1.95071109989658, 2.1601385998073965, 2.340335699962452];conejo;C:\2023\REPSWITCH21092023\REPSWITCH_excgange\REPSWITCH_excgange\data/230104_REPSWITCH1_version1_list4_2023-12-01_15h08.46.380_micRespv1l4_recorded\recording_micRespv1l4_2023-12-01_15h15.25.357.wav;404.80808160011657;405.3081787999254;None;;;;;;230104;001;2023-12-01_15h08.46.380;REPSWITCH1_version1_list4;2022.2.4;143.96795843490372;
REPSWITCH1/PICTURE_687.png;camisa;speak;gold;nontarget;2;NT;4;4;4;1;Stim5_Set4;1;switch;84;83;84;0;83;83;83;;;;;;;;;;;;;;;;;;;;;;;405.3081787999254;406.4264486001339;406.4264486001339;406.4264486001339;406.4264486001339;406.4264486001339;406.4264486001339;406.4264486001339;406.4264486001339;409.454547500005;409.454547500005;409.454547500005;409.454547500005;409.454547500005;409.454547500005;None;0;;;C:\2023\REPSWITCH21092023\REPSWITCH_excgange\REPSWITCH_excgange\data/230104_REPSWITCH1_version1_list4_2023-12-01_15h08.46.380_micRespv1l4_recorded\recording_micRespv1l4_2023-12-01_15h15.29.996.wav;409.454547500005;;None;;;;;;230104;001;2023-12-01_15h08.46.380;REPSWITCH1_version1_list4;2022.2.4;143.96795843490372;
REPSWITCH1/PICTURE_687.png;camisa;speak;gold;repeat;2;T;4;4;4;1;Stim5_Set4;0;None;85;84;85;0;84;84;84;;;;;;;;;;;;;;;;;;;;;;;409.9546137000434;411.06593649997376;411.06593649997376;411.06593649997376;411.06593649997376;411.06593649997376;411.06593649997376;411.06593649997376;411.06593649997376;414.0870674001053;414.0870674001053;414.0870674001053;414.0870674001053;414.0870674001053;414.0870674001053;None;0;;;C:\2023\REPSWITCH21092023\REPSWITCH_excgange\REPSWITCH_excgange\data/230104_REPSWITCH1_version1_list4_2023-12-01_15h08.46.380_micRespv1l4_recorded\recording_micRespv1l4_2023-12-01_15h15.34.636.wav;414.0870674001053;414.5871673999354;None;;;;;;230104;001;2023-12-01_15h08.46.380;REPSWITCH1_version1_list4;2022.2.4;143.96795843490372;
REPSWITCH1/PICTURE_319.png;vaca;speak;gold;nontarget;2;NT;4;4;4;1;Stim1_Set4;0;None;86;85;86;0;85;85;85;;;;;;;;;;;;;;;;;;;;;;;414.5871673999354;415.6914749001153;415.6914749001153;415.6914749001153;415.6914749001153;415.6914749001153;415.6914749001153;415.6914749001153;415.6914749001153;418.7127098001074;418.7127098001074;418.7127098001074;418.7127098001074;418.7127098001074;418.7127098001074;None;0;;;C:\2023\REPSWITCH21092023\REPSWITCH_excgange\REPSWITCH_excgange\data/230104_REPSWITCH1_version1_list4_2023-12-01_15h08.46.380_micRespv1l4_recorded\recording_micRespv1l4_2023-12-01_15h15.39.260.wav;418.7127098001074;419.2127608000301;None;;;;;;230104;001;2023-12-01_15h08.46.380;REPSWITCH1_version1_list4;2022.2.4;143.96795843490372;
REPSWITCH1/PICTURE_319.png;vaca;type;darkblue;switch;1;T;4;4;4;1;Stim1_Set4;0;None;87;86;87;0;86;86;86;;;;;;;;;;;;;;;;;;;;;;;419.2127608000301;420.35873529990204;420.35873529990204;420.35873529990204;420.35873529990204;420.35873529990204;420.35873529990204;420.35873529990204;420.35873529990204;423.3869835000951;423.3869835000951;423.3869835000951;423.3869835000951;423.3869835000951;423.3869835000951;['v', 'a', 'c', 'a'];0;[0.9351719999685884, 1.1662694998085499, 1.4672526000067592, 1.5888443998992443];vaca;C:\2023\REPSWITCH21092023\REPSWITCH_excgange\REPSWITCH_excgange\data/230104_REPSWITCH1_version1_list4_2023-12-01_15h08.46.380_micRespv1l4_recorded\recording_micRespv1l4_2023-12-01_15h15.43.929.wav;423.3869835000951;;None;;;;;;230104;001;2023-12-01_15h08.46.380;REPSWITCH1_version1_list4;2022.2.4;143.96795843490372;
REPSWITCH1/PICTURE_242.png;cartero;speak;gold;filler;2;F;4;4;4;1;Stim3_Set3;0;None;88;87;88;0;87;87;87;;;;;;;;;;;;;;;;;;;;;;;423.88697610003874;424.91494460008107;424.91494460008107;424.91494460008107;424.91494460008107;424.91494460008107;424.91494460008107;424.91494460008107;424.91494460008107;427.9361088001169;427.9361088001169;427.9361088001169;427.9361088001169;427.9361088001169;427.9361088001169;None;0;;;C:\2023\REPSWITCH21092023\REPSWITCH_excgange\REPSWITCH_excgange\data/230104_REPSWITCH1_version1_list4_2023-12-01_15h08.46.380_micRespv1l4_recorded\recording_micRespv1l4_2023-12-01_15h15.48.486.wav;427.9361088001169;428.4361926999409;None;;;;;;230104;001;2023-12-01_15h08.46.380;REPSWITCH1_version1_list4;2022.2.4;143.96795843490372;
REPSWITCH1/PICTURE_498.png;taza;type;darkblue;nontarget;1;NT;4;4;4;1;Stim4_Set4;1;switch;89;88;89;0;88;88;88;;;;;;;;;;;;;;;;;;;;;;;428.4361926999409;429.51272460003383;429.51272460003383;429.51272460003383;429.51272460003383;429.51272460003383;429.51272460003383;429.51272460003383;429.51272460003383;432.5339367999695;432.5339367999695;432.5339367999695;432.5339367999695;432.5339367999695;432.5339367999695;['t', 'a', 'z', 'a'];0;[0.8476388999260962, 1.1078026997856796, 1.5500419999007136, 1.8519178999122232];taza;C:\2023\REPSWITCH21092023\REPSWITCH_excgange\REPSWITCH_excgange\data/230104_REPSWITCH1_version1_list4_2023-12-01_15h08.46.380_micRespv1l4_recorded\recording_micRespv1l4_2023-12-01_15h15.53.083.wav;432.5339367999695;433.0339961000718;None;;;;;;230104;001;2023-12-01_15h08.46.380;REPSWITCH1_version1_list4;2022.2.4;143.96795843490372;
REPSWITCH1/PICTURE_498.png;taza;speak;gold;switch;2;T;4;4;4;1;Stim4_Set4;0;None;90;89;90;0;89;89;89;;;;;;;;;;;;;;;;;;;;;;;433.0339961000718;434.1591974000912;434.1591974000912;434.1591974000912;434.1591974000912;434.1591974000912;434.1591974000912;434.1591974000912;434.1591974000912;437.18736120010726;437.18736120010726;437.18736120010726;437.18736120010726;437.18736120010726;437.18736120010726;None;0;;;C:\2023\REPSWITCH21092023\REPSWITCH_excgange\REPSWITCH_excgange\data/230104_REPSWITCH1_version1_list4_2023-12-01_15h08.46.380_micRespv1l4_recorded\recording_micRespv1l4_2023-12-01_15h15.57.729.wav;437.18736120010726;;None;;;;;;230104;001;2023-12-01_15h08.46.380;REPSWITCH1_version1_list4;2022.2.4;143.96795843490372;
REPSWITCH1/PICTURE_391.png;cadena;type;darkblue;filler;1;F;4;4;4;1;Extra2;0;None;91;90;91;0;90;90;90;;;;;;;;;;;;;;;;;;;;;;;437.6874289000407;438.77090259990655;438.77090259990655;438.77090259990655;438.77090259990655;438.77090259990655;438.77090259990655;438.77090259990655;438.77090259990655;441.79903910006396;441.79903910006396;441.79903910006396;441.79903910006396;441.79903910006396;441.79903910006396;['c', 'a', 'd', 'e', 'n', 'a'];0;[0.9331588000059128, 1.1218304000794888, 1.3571198000572622, 1.5274668000638485, 1.5892544998787344, 1.7531681000255048];cadena;C:\2023\REPSWITCH21092023\REPSWITCH_excgange\REPSWITCH_excgange\data/230104_REPSWITCH1_version1_list4_2023-12-01_15h08.46.380_micRespv1l4_recorded\recording_micRespv1l4_2023-12-01_15h16.02.341.wav;441.79903910006396;;None;;;;;;230104;001;2023-12-01_15h08.46.380;REPSWITCH1_version1_list4;2022.2.4;143.96795843490372;
REPSWITCH1/PICTURE_610.png;miel;speak;gold;filler;2;F;4;4;4;1;Stim2_Set3;0;None;92;91;92;0;91;91;91;;;;;;;;;;;;;;;;;;;;;;;442.29921770002693;443.43124649999663;443.43124649999663;443.43124649999663;443.43124649999663;443.43124649999663;443.43124649999663;443.43124649999663;443.43124649999663;446.459379900014;446.459379900014;446.459379900014;446.459379900014;446.459379900014;446.459379900014;None;0;;;C:\2023\REPSWITCH21092023\REPSWITCH_excgange\REPSWITCH_excgange\data/230104_REPSWITCH1_version1_list4_2023-12-01_15h08.46.380_micRespv1l4_recorded\recording_micRespv1l4_2023-12-01_15h16.07.001.wav;446.459379900014;;None;;;;;;230104;001;2023-12-01_15h08.46.380;REPSWITCH1_version1_list4;2022.2.4;143.96795843490372;
REPSWITCH1/PICTURE_48.png;bombero;speak;gold;nontarget;2;NT;4;4;4;1;Stim7_Set4;1;repeat;93;92;93;0;92;92;92;;;;;;;;;;;;;;;;;;;;;;;446.9594713000115;448.12627279991284;448.12627279991284;448.12627279991284;448.12627279991284;448.12627279991284;448.12627279991284;448.12627279991284;448.12627279991284;451.14754820009694;451.14754820009694;451.14754820009694;451.14754820009694;451.14754820009694;451.14754820009694;None;0;;;C:\2023\REPSWITCH21092023\REPSWITCH_excgange\REPSWITCH_excgange\data/230104_REPSWITCH1_version1_list4_2023-12-01_15h08.46.380_micRespv1l4_recorded\recording_micRespv1l4_2023-12-01_15h16.11.696.wav;451.14754820009694;451.64757709996775;None;;;;;;230104;001;2023-12-01_15h08.46.380;REPSWITCH1_version1_list4;2022.2.4;143.96795843490372;
REPSWITCH1/PICTURE_48.png;bombero;speak;gold;repeat;2;T;4;4;4;1;Stim7_Set4;0;None;94;93;94;0;93;93;93;;;;;;;;;;;;;;;;;;;;;;;451.64757709996775;452.7033130999189;452.7033130999189;452.7033130999189;452.7033130999189;452.7033130999189;452.7033130999189;452.7033130999189;452.7033130999189;455.72456569992937;455.72456569992937;455.72456569992937;455.72456569992937;455.72456569992937;455.72456569992937;None;0;;;C:\2023\REPSWITCH21092023\REPSWITCH_excgange\REPSWITCH_excgange\data/230104_REPSWITCH1_version1_list4_2023-12-01_15h08.46.380_micRespv1l4_recorded\recording_micRespv1l4_2023-12-01_15h16.16.273.wav;455.72456569992937;456.22456580004655;None;;;;;;230104;001;2023-12-01_15h08.46.380;REPSWITCH1_version1_list4;2022.2.4;143.96795843490372;
REPSWITCH1/PICTURE_320.png;iglesia;type;darkblue;filler;1;F;4;4;4;1;Stim8_Set3;1;switch;95;94;95;0;94;94;94;;;;;;;;;;;;;;;;;;;;;;;456.22456580004655;457.29417350003496;457.29417350003496;457.29417350003496;457.29417350003496;457.29417350003496;457.29417350003496;457.29417350003496;457.29417350003496;460.3223232999444;460.3223232999444;460.3223232999444;460.3223232999444;460.3223232999444;460.3223232999444;['i', 'g', 'l', 'e', 's', 'i', 'a'];0;[1.0760613000020385, 1.3040537999477237, 1.568468099925667, 1.7352281000930816, 1.976483599981293, 2.0561327000614256, 2.2406953000463545];iglesia;C:\2023\REPSWITCH21092023\REPSWITCH_excgange\REPSWITCH_excgange\data/230104_REPSWITCH1_version1_list4_2023-12-01_15h08.46.380_micRespv1l4_recorded\recording_micRespv1l4_2023-12-01_15h16.20.865.wav;460.3223232999444;460.8224100000225;None;;;;;;230104;001;2023-12-01_15h08.46.380;REPSWITCH1_version1_list4;2022.2.4;143.96795843490372;
REPSWITCH1/PICTURE_35.png;oreja;speak;gold;filler;2;F;4;4;4;1;Stim5_Set3;0;None;96;95;96;0;95;95;95;;;;;;;;;;;;;;;;;;;;;;;460.8224100000225;461.947574299993;461.947574299993;461.947574299993;461.947574299993;461.947574299993;461.947574299993;461.947574299993;461.947574299993;464.96874650008976;464.96874650008976;464.96874650008976;464.96874650008976;464.96874650008976;464.96874650008976;None;0;;;C:\2023\REPSWITCH21092023\REPSWITCH_excgange\REPSWITCH_excgange\data/230104_REPSWITCH1_version1_list4_2023-12-01_15h08.46.380_micRespv1l4_recorded\recording_micRespv1l4_2023-12-01_15h16.25.518.wav;464.96874650008976;465.4688210999593;None;;;;;;230104;001;2023-12-01_15h08.46.380;REPSWITCH1_version1_list4;2022.2.4;143.96795843490372;
REPSWITCH1/PICTURE_728.png;pulpo;speak;gold;nontarget;2;NT;4;4;4;1;Stim8_Set4;1;repeat;97;96;97;0;96;96;96;;;;;;;;;;;;;;;;;;;;;;;465.4688210999593;466.58704159990884;466.58704159990884;466.58704159990884;466.58704159990884;466.58704159990884;466.58704159990884;466.58704159990884;466.58704159990884;469.6082613999024;469.6082613999024;469.6082613999024;469.6082613999024;469.6082613999024;469.6082613999024;None;0;;;C:\2023\REPSWITCH21092023\REPSWITCH_excgange\REPSWITCH_excgange\data/230104_REPSWITCH1_version1_list4_2023-12-01_15h08.46.380_micRespv1l4_recorded\recording_micRespv1l4_2023-12-01_15h16.30.157.wav;469.6082613999024;470.1083587000612;None;;;;;;230104;001;2023-12-01_15h08.46.380;REPSWITCH1_version1_list4;2022.2.4;143.96795843490372;
REPSWITCH1/PICTURE_728.png;pulpo;type;darkblue;switch;1;T;4;4;4;1;Stim8_Set4;0;None;98;97;98;0;97;97;97;;;;;;;;;;;;;;;;;;;;;;;470.1083587000612;471.17102940008044;471.17102940008044;471.17102940008044;471.17102940008044;471.17102940008044;471.17102940008044;471.17102940008044;471.17102940008044;474.1921812999062;474.1921812999062;474.1921812999062;474.1921812999062;474.1921812999062;474.1921812999062;['p', 'u', 'l', 'p', 'o'];0;[1.0344674997031689, 1.3526922997552902, 1.6694922999013215, 1.9047111996915191, 2.0876502997707576];pulpo;C:\2023\REPSWITCH21092023\REPSWITCH_excgange\REPSWITCH_excgange\data/230104_REPSWITCH1_version1_list4_2023-12-01_15h08.46.380_micRespv1l4_recorded\recording_micRespv1l4_2023-12-01_15h16.34.741.wav;474.1921812999062;474.69235590007156;None;;;;;;230104;001;2023-12-01_15h08.46.380;REPSWITCH1_version1_list4;2022.2.4;143.96795843490372;
REPSWITCH1/PICTURE_590.png;escoba;speak;gold;filler;2;F;4;4;4;1;Extra3;0;None;99;98;99;0;98;98;98;;;;;;;;;;;;;;;;;;;;;;;474.69235590007156;475.74101200001314;475.74101200001314;475.74101200001314;475.74101200001314;475.74101200001314;475.74101200001314;475.74101200001314;475.74101200001314;478.7622235000599;478.7622235000599;478.7622235000599;478.7622235000599;478.7622235000599;478.7622235000599;None;0;;;C:\2023\REPSWITCH21092023\REPSWITCH_excgange\REPSWITCH_excgange\data/230104_REPSWITCH1_version1_list4_2023-12-01_15h08.46.380_micRespv1l4_recorded\recording_micRespv1l4_2023-12-01_15h16.39.311.wav;478.7622235000599;479.26239680009894;None;;;;;;230104;001;2023-12-01_15h08.46.380;REPSWITCH1_version1_list4;2022.2.4;143.96795843490372;
REPSWITCH1/PICTURE_235.png;aguja;type;darkblue;filler;1;F;4;4;4;1;Stim4_Set3;0;None;100;99;100;0;99;99;99;;;;;;;;;;;;;;;;;;;;;;;479.26239680009894;480.3318960000761;480.3318960000761;480.3318960000761;480.3318960000761;480.3318960000761;480.3318960000761;480.3318960000761;480.3318960000761;483.360068900045;483.360068900045;483.360068900045;483.360068900045;483.360068900045;483.360068900045;['a', 'g', 'u', 'j', 'a'];0;[1.0388694000430405, 1.3181658999528736, 1.4839011998847127, 1.6871821999084204, 1.8847411000169814];aguja;C:\2023\REPSWITCH21092023\REPSWITCH_excgange\REPSWITCH_excgange\data/230104_REPSWITCH1_version1_list4_2023-12-01_15h08.46.380_micRespv1l4_recorded\recording_micRespv1l4_2023-12-01_15h16.43.902.wav;483.360068900045;;None;;;;;;230104;001;2023-12-01_15h08.46.380;REPSWITCH1_version1_list4;2022.2.4;143.96795843490372;
REPSWITCH1/PICTURE_719.png;baño;type;darkblue;nontarget;1;NT;4;4;4;1;Stim2_Set4;1;repeat;101;100;101;0;100;100;100;;;;;;;;;;;;;;;;;;;;;;;483.8601784000639;484.92974769999273;484.92974769999273;484.92974769999273;484.92974769999273;484.92974769999273;484.92974769999273;484.92974769999273;484.92974769999273;487.9578911000863;487.9578911000863;487.9578911000863;487.9578911000863;487.9578911000863;487.9578911000863;['b', 'a', 'ñ', 'o'];0;[0.9427163999062032, 1.103225199971348, 1.6225850000046194, 1.9346913998015225];baño;C:\2023\REPSWITCH21092023\REPSWITCH_excgange\REPSWITCH_excgange\data/230104_REPSWITCH1_version1_list4_2023-12-01_15h08.46.380_micRespv1l4_recorded\recording_micRespv1l4_2023-12-01_15h16.48.500.wav;487.9578911000863;;None;;;;;;230104;001;2023-12-01_15h08.46.380;REPSWITCH1_version1_list4;2022.2.4;143.96795843490372;
REPSWITCH1/PICTURE_719.png;baño;type;darkblue;repeat;1;T;4;4;4;1;Stim2_Set4;0;None;102;101;102;0;101;101;101;;;;;;;;;;;;;;;;;;;;;;;488.45795070007443;489.52063670009375;489.52063670009375;489.52063670009375;489.52063670009375;489.52063670009375;489.52063670009375;489.52063670009375;489.52063670009375;492.5487897999119;492.5487897999119;492.5487897999119;492.5487897999119;492.5487897999119;492.5487897999119;['b', 'a', 'ñ', 'o'];0;[1.4452807998750359, 1.5922453999519348, 2.0619925998616964, 2.2715921998023987];baño;C:\2023\REPSWITCH21092023\REPSWITCH_excgange\REPSWITCH_excgange\data/230104_REPSWITCH1_version1_list4_2023-12-01_15h08.46.380_micRespv1l4_recorded\recording_micRespv1l4_2023-12-01_15h16.53.091.wav;492.5487897999119;;space;493.0488976999186;493.0488976999186;1.1293333997018635;;;230104;001;2023-12-01_15h08.46.380;REPSWITCH1_version1_list4;2022.2.4;143.96795843490372;
REPSWITCH1/PICTURE_646.png;tronco;speak;gold;filler;2;F;1;3;4;1;Extra4;0;None;103;102;1;0;102;102;102;;;;;;;;;;;;;;;;;;;;;;;494.18794080009684;495.28529640007764;495.28529640007764;495.28529640007764;495.28529640007764;495.28529640007764;495.28529640007764;495.28529640007764;495.28529640007764;498.30645760009065;498.30645760009065;498.30645760009065;498.30645760009065;498.30645760009065;498.30645760009065;None;0;;;C:\2023\REPSWITCH21092023\REPSWITCH_excgange\REPSWITCH_excgange\data/230104_REPSWITCH1_version1_list4_2023-12-01_15h08.46.380_micRespv1l4_recorded\recording_micRespv1l4_2023-12-01_15h16.58.856.wav;498.30645760009065;498.80661899992265;None;;;;;;230104;001;2023-12-01_15h08.46.380;REPSWITCH1_version1_list4;2022.2.4;143.96795843490372;
REPSWITCH1/PICTURE_340.png;espejo;type;darkblue;filler;1;F;1;3;4;1;Extra1;0;None;104;103;2;0;103;103;103;;;;;;;;;;;;;;;;;;;;;;;498.80661899992265;499.9734386000782;499.9734386000782;499.9734386000782;499.9734386000782;499.9734386000782;499.9734386000782;499.9734386000782;499.9734386000782;502.99460049998015;502.99460049998015;502.99460049998015;502.99460049998015;502.99460049998015;502.99460049998015;['e', 's', 'p', 'e', 'j', 'o'];0;[1.0365496999584138, 1.270795099902898, 1.49401789996773, 1.6139840998221189, 1.82184199988842, 1.9523671998176724];espejo;C:\2023\REPSWITCH21092023\REPSWITCH_excgange\REPSWITCH_excgange\data/230104_REPSWITCH1_version1_list4_2023-12-01_15h08.46.380_micRespv1l4_recorded\recording_micRespv1l4_2023-12-01_15h17.03.543.wav;502.99460049998015;503.49467190005817;None;;;;;;230104;001;2023-12-01_15h08.46.380;REPSWITCH1_version1_list4;2022.2.4;143.96795843490372;
REPSWITCH1/PICTURE_338.png;regalo;speak;gold;filler;2;F;1;3;4;1;Stim6_Set4;0;None;105;104;3;0;104;104;104;;;;;;;;;;;;;;;;;;;;;;;503.49467190005817;504.6615075999871;504.6615075999871;504.6615075999871;504.6615075999871;504.6615075999871;504.6615075999871;504.6615075999871;504.6615075999871;507.6827368000522;507.6827368000522;507.6827368000522;507.6827368000522;507.6827368000522;507.6827368000522;None;0;;;C:\2023\REPSWITCH21092023\REPSWITCH_excgange\REPSWITCH_excgange\data/230104_REPSWITCH1_version1_list4_2023-12-01_15h08.46.380_micRespv1l4_recorded\recording_micRespv1l4_2023-12-01_15h17.08.231.wav;507.6827368000522;508.1827907001134;None;;;;;;230104;001;2023-12-01_15h08.46.380;REPSWITCH1_version1_list4;2022.2.4;143.96795843490372;
REPSWITCH1/PICTURE_142.png;vaso;speak;gold;nontarget;2;NT;1;3;4;1;Stim7_Set1;1;repeat;106;105;4;0;105;105;105;;;;;;;;;;;;;;;;;;;;;;;508.1827907001134;509.2176713999361;509.2176713999361;509.2176713999361;509.2176713999361;509.2176713999361;509.2176713999361;509.2176713999361;509.2176713999361;512.2388438999187;512.2388438999187;512.2388438999187;512.2388438999187;512.2388438999187;512.2388438999187;None;0;;;C:\2023\REPSWITCH21092023\REPSWITCH_excgange\REPSWITCH_excgange\data/230104_REPSWITCH1_version1_list4_2023-12-01_15h08.46.380_micRespv1l4_recorded\recording_micRespv1l4_2023-12-01_15h17.12.787.wav;512.2388438999187;512.7389243000653;None;;;;;;230104;001;2023-12-01_15h08.46.380;REPSWITCH1_version1_list4;2022.2.4;143.96795843490372;
REPSWITCH1/PICTURE_142.png;vaso;speak;gold;repeat;2;T;1;3;4;1;Stim7_Set1;0;None;107;106;5;0;106;106;106;;;;;;;;;;;;;;;;;;;;;;;512.7389243000653;513.7460433000233;513.7460433000233;513.7460433000233;513.7460433000233;513.7460433000233;513.7460433000233;513.7460433000233;513.7460433000233;516.7672475001309;516.7672475001309;516.7672475001309;516.7672475001309;516.7672475001309;516.7672475001309;None;0;;;C:\2023\REPSWITCH21092023\REPSWITCH_excgange\REPSWITCH_excgange\data/230104_REPSWITCH1_version1_list4_2023-12-01_15h08.46.380_micRespv1l4_recorded\recording_micRespv1l4_2023-12-01_15h17.17.316.wav;516.7672475001309;517.2673808999825;None;;;;;;230104;001;2023-12-01_15h08.46.380;REPSWITCH1_version1_list4;2022.2.4;143.96795843490372;
REPSWITCH1/PICTURE_498.png;taza;type;darkblue;filler;1;F;1;3;4;1;Stim4_Set4;0;None;108;107;6;0;107;107;107;;;;;;;;;;;;;;;;;;;;;;;517.2673808999825;518.3647064999677;518.3647064999677;518.3647064999677;518.3647064999677;518.3647064999677;518.3647064999677;518.3647064999677;518.3647064999677;521.3858757000417;521.3858757000417;521.3858757000417;521.3858757000417;521.3858757000417;521.3858757000417;['t', 'a', 'z', 'a'];0;[1.0907753000501543, 1.3341872999444604, 1.8320779998321086, 2.1296257998328656];taza;C:\2023\REPSWITCH21092023\REPSWITCH_excgange\REPSWITCH_excgange\data/230104_REPSWITCH1_version1_list4_2023-12-01_15h08.46.380_micRespv1l4_recorded\recording_micRespv1l4_2023-12-01_15h17.21.935.wav;521.3858757000417;521.8859530999325;None;;;;;;230104;001;2023-12-01_15h08.46.380;REPSWITCH1_version1_list4;2022.2.4;143.96795843490372;
REPSWITCH1/PICTURE_16.png;cazador;speak;gold;nontarget;2;NT;1;3;4;1;Stim6_Set1;1;switch;109;108;7;0;108;108;108;;;;;;;;;;;;;;;;;;;;;;;521.8859530999325;522.9903450000565;522.9903450000565;522.9903450000565;522.9903450000565;522.9903450000565;522.9903450000565;522.9903450000565;522.9903450000565;526.0185352000408;526.0185352000408;526.0185352000408;526.0185352000408;526.0185352000408;526.0185352000408;None;0;;;C:\2023\REPSWITCH21092023\REPSWITCH_excgange\REPSWITCH_excgange\data/230104_REPSWITCH1_version1_list4_2023-12-01_15h08.46.380_micRespv1l4_recorded\recording_micRespv1l4_2023-12-01_15h17.26.561.wav;526.0185352000408;;None;;;;;;230104;001;2023-12-01_15h08.46.380;REPSWITCH1_version1_list4;2022.2.4;143.96795843490372;
REPSWITCH1/PICTURE_16.png;cazador;speak;gold;repeat;2;T;1;3;4;1;Stim6_Set1;0;None;110;109;8;0;109;109;109;;;;;;;;;;;;;;;;;;;;;;;526.518526500091;527.5742297000252;527.5742297000252;527.5742297000252;527.5742297000252;527.5742297000252;527.5742297000252;527.5742297000252;527.5742297000252;530.5954378999304;530.5954378999304;530.5954378999304;530.5954378999304;530.5954378999304;530.5954378999304;None;0;;;C:\2023\REPSWITCH21092023\REPSWITCH_excgange\REPSWITCH_excgange\data/230104_REPSWITCH1_version1_list4_2023-12-01_15h08.46.380_micRespv1l4_recorded\recording_micRespv1l4_2023-12-01_15h17.31.144.wav;530.5954378999304;531.0955503999721;None;;;;;;230104;001;2023-12-01_15h08.46.380;REPSWITCH1_version1_list4;2022.2.4;143.96795843490372;
REPSWITCH1/PICTURE_719.png;baño;type;darkblue;filler;1;F;1;3;4;1;Stim2_Set4;0;None;111;110;9;0;110;110;110;;;;;;;;;;;;;;;;;;;;;;;531.0955503999721;532.1234951999504;532.1234951999504;532.1234951999504;532.1234951999504;532.1234951999504;532.1234951999504;532.1234951999504;532.1234951999504;535.1446670999285;535.1446670999285;535.1446670999285;535.1446670999285;535.1446670999285;535.1446670999285;['b', 'a', 'ñ', 'o'];0;[1.1067870997358114, 1.2076780998613685, 1.7501127999275923, 2.084206899860874];baño;C:\2023\REPSWITCH21092023\REPSWITCH_excgange\REPSWITCH_excgange\data/230104_REPSWITCH1_version1_list4_2023-12-01_15h08.46.380_micRespv1l4_recorded\recording_micRespv1l4_2023-12-01_15h17.35.693.wav;535.1446670999285;535.6447161999531;None;;;;;;230104;001;2023-12-01_15h08.46.380;REPSWITCH1_version1_list4;2022.2.4;143.96795843490372;
REPSWITCH1/PICTURE_169.png;espalda;speak;gold;nontarget;2;NT;1;3;4;1;Stim8_Set1;0;None;112;111;10;0;111;111;111;;;;;;;;;;;;;;;;;;;;;;;535.6447161999531;536.749056099914;536.749056099914;536.749056099914;536.749056099914;536.749056099914;536.749056099914;536.749056099914;536.749056099914;539.7702391999774;539.7702391999774;539.7702391999774;539.7702391999774;539.7702391999774;539.7702391999774;None;0;;;C:\2023\REPSWITCH21092023\REPSWITCH_excgange\REPSWITCH_excgange\data/230104_REPSWITCH1_version1_list4_2023-12-01_15h08.46.380_micRespv1l4_recorded\recording_micRespv1l4_2023-12-01_15h17.40.319.wav;539.7702391999774;540.2703424000647;None;;;;;;230104;001;2023-12-01_15h08.46.380;REPSWITCH1_version1_list4;2022.2.4;143.96795843490372;
REPSWITCH1/PICTURE_169.png;espalda;type;darkblue;switch;1;T;1;3;4;1;Stim8_Set1;0;None;113;112;11;0;112;112;112;;;;;;;;;;;;;;;;;;;;;;;540.2703424000647;541.3121557999402;541.3121557999402;541.3121557999402;541.3121557999402;541.3121557999402;541.3121557999402;541.3121557999402;541.3121557999402;544.3333380999975;544.3333380999975;544.3333380999975;544.3333380999975;544.3333380999975;544.3333380999975;['e', 's', 'p', 'a', 'l', 'd', 'a'];0;[0.9120748997665942, 1.1262922999449074, 1.3435710999183357, 1.5164181997533888, 1.645595699781552, 1.8915597999002784, 1.9791921998839825];espalda;C:\2023\REPSWITCH21092023\REPSWITCH_excgange\REPSWITCH_excgange\data/230104_REPSWITCH1_version1_list4_2023-12-01_15h08.46.380_micRespv1l4_recorded\recording_micRespv1l4_2023-12-01_15h17.44.882.wav;544.3333380999975;544.8334397000726;None;;;;;;230104;001;2023-12-01_15h08.46.380;REPSWITCH1_version1_list4;2022.2.4;143.96795843490372;
REPSWITCH1/PICTURE_687.png;camisa;type;darkblue;filler;1;F;1;3;4;1;Stim5_Set4;0;None;114;113;12;0;113;113;113;;;;;;;;;;;;;;;;;;;;;;;544.8334397000726;545.923841400072;545.923841400072;545.923841400072;545.923841400072;545.923841400072;545.923841400072;545.923841400072;545.923841400072;548.9450503999833;548.9450503999833;548.9450503999833;548.9450503999833;548.9450503999833;548.9450503999833;['c', 'a', 'm', 'i', 's', 'a'];0;[0.8775402000173926, 1.0569688000250608, 1.2173994998447597, 1.3387084999121726, 1.490971399936825, 1.6335306998807937];camisa;C:\2023\REPSWITCH21092023\REPSWITCH_excgange\REPSWITCH_excgange\data/230104_REPSWITCH1_version1_list4_2023-12-01_15h08.46.380_micRespv1l4_recorded\recording_micRespv1l4_2023-12-01_15h17.49.494.wav;548.9450503999833;549.4451496999245;None;;;;;;230104;001;2023-12-01_15h08.46.380;REPSWITCH1_version1_list4;2022.2.4;143.96795843490372;
REPSWITCH1/PICTURE_178.png;puente;type;darkblue;nontarget;1;NT;1;3;4;1;Stim1_Set1;1;repeat;115;114;13;0;114;114;114;;;;;;;;;;;;;;;;;;;;;;;549.4451496999245;550.598104899982;550.598104899982;550.598104899982;550.598104899982;550.598104899982;550.598104899982;550.598104899982;550.598104899982;553.6262550000101;553.6262550000101;553.6262550000101;553.6262550000101;553.6262550000101;553.6262550000101;['p', 'u', 'e', 'n', 't', 'e'];0;[0.926309899892658, 1.2237865997012705, 1.398446599720046, 1.6276484997943044, 1.9167716999072582, 2.0442157997749746];puente;C:\2023\REPSWITCH21092023\REPSWITCH_excgange\REPSWITCH_excgange\data/230104_REPSWITCH1_version1_list4_2023-12-01_15h08.46.380_micRespv1l4_recorded\recording_micRespv1l4_2023-12-01_15h17.54.168.wav;553.6262550000101;;None;;;;;;230104;001;2023-12-01_15h08.46.380;REPSWITCH1_version1_list4;2022.2.4;143.96795843490372;
REPSWITCH1/PICTURE_178.png;puente;speak;gold;switch;2;T;1;3;4;1;Stim1_Set1;0;None;116;115;14;0;115;115;115;;;;;;;;;;;;;;;;;;;;;;;554.1263888000976;555.2237533999141;555.2237533999141;555.2237533999141;555.2237533999141;555.2237533999141;555.2237533999141;555.2237533999141;555.2237533999141;558.244897000026;558.244897000026;558.244897000026;558.244897000026;558.244897000026;558.244897000026;None;0;;;C:\2023\REPSWITCH21092023\REPSWITCH_excgange\REPSWITCH_excgange\data/230104_REPSWITCH1_version1_list4_2023-12-01_15h08.46.380_micRespv1l4_recorded\recording_micRespv1l4_2023-12-01_15h17.58.793.wav;558.244897000026;558.7449598999228;None;;;;;;230104;001;2023-12-01_15h08.46.380;REPSWITCH1_version1_list4;2022.2.4;143.96795843490372;
REPSWITCH1/PICTURE_128.png;muñeca;speak;gold;nontarget;2;NT;1;3;4;1;Stim4_Set1;1;repeat;117;116;15;0;116;116;116;;;;;;;;;;;;;;;;;;;;;;;558.7449598999228;559.7937576000113;559.7937576000113;559.7937576000113;559.7937576000113;559.7937576000113;559.7937576000113;559.7937576000113;559.7937576000113;562.8149624001235;562.8149624001235;562.8149624001235;562.8149624001235;562.8149624001235;562.8149624001235;None;0;;;C:\2023\REPSWITCH21092023\REPSWITCH_excgange\REPSWITCH_excgange\data/230104_REPSWITCH1_version1_list4_2023-12-01_15h08.46.380_micRespv1l4_recorded\recording_micRespv1l4_2023-12-01_15h18.03.364.wav;562.8149624001235;563.3150077001192;None;;;;;;230104;001;2023-12-01_15h08.46.380;REPSWITCH1_version1_list4;2022.2.4;143.96795843490372;
REPSWITCH1/PICTURE_128.png;muñeca;type;darkblue;switch;1;T;1;3;4;1;Stim4_Set1;0;None;118;117;16;0;117;117;117;;;;;;;;;;;;;;;;;;;;;;;563.3150077001192;564.4124080000911;564.4124080000911;564.4124080000911;564.4124080000911;564.4124080000911;564.4124080000911;564.4124080000911;564.4124080000911;567.4336298000999;567.4336298000999;567.4336298000999;567.4336298000999;567.4336298000999;567.4336298000999;['m', 'u', 'ñ', 'e', 'c', 'a'];0;[1.1996818999759853, 1.407024399843067, 2.0554557000286877, 2.1711364998482168, 2.5690205998253077, 2.6676683998666704];muñeca;C:\2023\REPSWITCH21092023\REPSWITCH_excgange\REPSWITCH_excgange\data/230104_REPSWITCH1_version1_list4_2023-12-01_15h08.46.380_micRespv1l4_recorded\recording_micRespv1l4_2023-12-01_15h18.07.983.wav;567.4336298000999;567.93369360012;None;;;;;;230104;001;2023-12-01_15h08.46.380;REPSWITCH1_version1_list4;2022.2.4;143.96795843490372;
REPSWITCH1/PICTURE_319.png;vaca;speak;gold;filler;2;F;1;3;4;1;Stim1_Set4;1;switch;119;118;17;0;118;118;118;;;;;;;;;;;;;;;;;;;;;;;567.93369360012;569.017140999902;569.017140999902;569.017140999902;569.017140999902;569.017140999902;569.017140999902;569.017140999902;569.017140999902;572.0453473001253;572.0453473001253;572.0453473001253;572.0453473001253;572.0453473001253;572.0453473001253;None;0;;;C:\2023\REPSWITCH21092023\REPSWITCH_excgange\REPSWITCH_excgange\data/230104_REPSWITCH1_version1_list4_2023-12-01_15h08.46.380_micRespv1l4_recorded\recording_micRespv1l4_2023-12-01_15h18.12.588.wav;572.0453473001253;;None;;;;;;230104;001;2023-12-01_15h08.46.380;REPSWITCH1_version1_list4;2022.2.4;143.96795843490372;
REPSWITCH1/PICTURE_728.png;pulpo;speak;gold;filler;2;F;1;3;4;1;Stim8_Set4;0;None;120;119;18;0;119;119;119;;;;;;;;;;;;;;;;;;;;;;;572.5453924001195;573.6289470000193;573.6289470000193;573.6289470000193;573.6289470000193;573.6289470000193;573.6289470000193;573.6289470000193;573.6289470000193;576.6500760999043;576.6500760999043;576.6500760999043;576.6500760999043;576.6500760999043;576.6500760999043;None;0;;;C:\2023\REPSWITCH21092023\REPSWITCH_excgange\REPSWITCH_excgange\data/230104_REPSWITCH1_version1_list4_2023-12-01_15h08.46.380_micRespv1l4_recorded\recording_micRespv1l4_2023-12-01_15h18.17.200.wav;576.6500760999043;577.1501847000327;None;;;;;;230104;001;2023-12-01_15h08.46.380;REPSWITCH1_version1_list4;2022.2.4;143.96795843490372;
