image,correctAns,respModal,frameColor,repSwitch,sequence,target,set,block,list,exp_version,stimulus,baseline,baseline_condition,trial_no,psychopy_trial,Column1,trialsREPSWITCH.thisRepN,trialsREPSWITCH.thisTrialN,trialsREPSWITCH.thisN,trialsREPSWITCH.thisIndex,textWelcome.started,textboxInstrMain1.started,textboxInstrMain1_2.started,textboxInstrMain1_3.started,keyInstrMain.started,keyInstrMain.keys,keyInstrMain.rt,textboxInstrMain2.started,textboxInstrMain2_2.started,textboxInstrMain2_3.started,textboxInstrMain2_4.started,textboxInstrMain2_5.started,textboxInstrMain2_6.started,textboxInstrMain2_7.started,textboxInstrMain2_8.started,textboxInstrMain2_9.started,textboxInstrMain2_10.started,textboxInstrMain2_11.started,textboxInstrMain2_12.started,keyInstrMain2.started,keyInstrMain2.keys,keyInstrMain2.rt,fixationITI.started,fixationITI.stopped,polygonColour.started,polygonWhite.started,imageObject.started,polygonType.started,textInput.started,keyResp.started,micRespv1l4.started,keyResp.keys,keyResp.corr,keyResp.rt,subjResponse,micRespv1l4.clip,textBlankLoop.started,textBlankLoop.stopped,keyPause.keys,polygonColour.stopped,polygonWhite.stopped,imageObject.stopped,polygonType.stopped,textInput.stopped,keyResp.stopped,textboxPause.started,keyPause.started,keyPause.rt,textboxGoodbye.started,textboxGoodbye.stopped,participant,session,date,expName,psychopyVersion,frameRate,
,,,,,,,,,,,,,,,,,,,,,10.310933300061151,12.806332200067118,12.806332200067118,12.806332200067118,12.806332200067118,space,3.604094799840823,,,,,,,,,,,,,,,,,,,,,,,,,,,,,,,,,,,,,,,,,,,,070104,001,2023-11-20_09h33.41.917,REPSWITCH1_version1_list4,2022.2.4,143.89110281302615,
,,,,,,,,,,,,,,,,,,,,,,,,,,,,16.424841200001538,16.424841200001538,16.424841200001538,16.424841200001538,16.424841200001538,16.424841200001538,16.424841200001538,16.424841200001538,16.424841200001538,16.424841200001538,16.424841200001538,16.424841200001538,16.424841200001538,space,3.9050694999750704,,,,,,,,,,,,,,,,,,,,,,,,,,,,,070104,001,2023-11-20_09h33.41.917,REPSWITCH1_version1_list4,2022.2.4,143.89110281302615,
REPSWITCH1/PICTURE_8.png,pierna,type,darkblue,filler,1,F,1,4,4,1,Stim3_Set4,0,None,1,0,1,0,0,0,0,,,,,,,,,,,,,,,,,,,,,,,20.4323132999707,21.59218639996834,21.59218639996834,21.59218639996834,21.59218639996834,21.59218639996834,21.59218639996834,21.59218639996834,21.59218639996834,"['p', 'e', 'r', 'backspace', 'backspace', 'i', 'e', 'r']",0,"[1.273927299771458, 1.5549777997657657, 1.5948388997931033, 2.2476535998284817, 2.3692765997257084, 2.824780399678275, 2.8905132997315377, 2.947357799857855]",pier,C:\2023\REPSWITCH21092023\REPSWITCH_excgange\REPSWITCH_excgange\data/070104_REPSWITCH1_version1_list4_2023-11-20_09h33.41.917_micRespv1l4_recorded\recording_micRespv1l4_2023-11-20_09h33.58.085.wav,24.613415800035,25.113481499953195,None,,,,,,,,,,,,070104,001,2023-11-20_09h33.41.917,REPSWITCH1_version1_list4,2022.2.4,143.89110281302615,
REPSWITCH1/PICTURE_498.png,taza,speak,gold,filler,2,F,1,4,4,1,Stim4_Set4,0,None,2,1,2,0,1,1,1,,,,,,,,,,,,,,,,,,,,,,,25.113481499953195,26.196946599986404,26.196946599986404,26.196946599986404,26.196946599986404,26.196946599986404,26.196946599986404,26.196946599986404,26.196946599986404,None,0,,,C:\2023\REPSWITCH21092023\REPSWITCH_excgange\REPSWITCH_excgange\data/070104_REPSWITCH1_version1_list4_2023-11-20_09h33.41.917_micRespv1l4_recorded\recording_micRespv1l4_2023-11-20_09h34.02.694.wav,29.225134199950844,,None,29.225134199950844,29.225134199950844,29.225134199950844,29.225134199950844,29.225134199950844,29.225134199950844,,,,,,070104,001,2023-11-20_09h33.41.917,REPSWITCH1_version1_list4,2022.2.4,143.89110281302615,
REPSWITCH1/PICTURE_19.png,pavo,speak,gold,nontarget,2,NT,1,4,4,1,Stim5_Set1,1,repeat,3,2,3,0,2,2,2,,,,,,,,,,,,,,,,,,,,,,,29.725190999917686,30.787874799920246,30.787874799920246,30.787874799920246,30.787874799920246,30.787874799920246,30.787874799920246,30.787874799920246,30.787874799920246,None,0,,,C:\2023\REPSWITCH21092023\REPSWITCH_excgange\REPSWITCH_excgange\data/070104_REPSWITCH1_version1_list4_2023-11-20_09h33.41.917_micRespv1l4_recorded\recording_micRespv1l4_2023-11-20_09h34.07.285.wav,33.81600770005025,,None,33.81600770005025,33.81600770005025,33.81600770005025,33.81600770005025,33.81600770005025,33.81600770005025,,,,,,070104,001,2023-11-20_09h33.41.917,REPSWITCH1_version1_list4,2022.2.4,143.89110281302615,
REPSWITCH1/PICTURE_19.png,pavo,speak,gold,repeat,2,T,1,4,4,1,Stim5_Set1,0,None,4,3,4,0,3,3,3,,,,,,,,,,,,,,,,,,,,,,,34.31607250007801,35.49684530007653,35.49684530007653,35.49684530007653,35.49684530007653,35.49684530007653,35.49684530007653,35.49684530007653,35.49684530007653,None,0,,,C:\2023\REPSWITCH21092023\REPSWITCH_excgange\REPSWITCH_excgange\data/070104_REPSWITCH1_version1_list4_2023-11-20_09h33.41.917_micRespv1l4_recorded\recording_micRespv1l4_2023-11-20_09h34.11.993.wav,38.51807260001078,39.01809130003676,None,38.51807260001078,38.51807260001078,38.51807260001078,38.51807260001078,38.51807260001078,38.51807260001078,,,,,,070104,001,2023-11-20_09h33.41.917,REPSWITCH1_version1_list4,2022.2.4,143.89110281302615,
REPSWITCH1/PICTURE_319.png,vaca,type,darkblue,filler,1,F,1,4,4,1,Stim1_Set4,1,repeat,5,4,5,0,4,4,4,,,,,,,,,,,,,,,,,,,,,,,39.01809130003676,40.1293188999407,40.1293188999407,40.1293188999407,40.1293188999407,40.1293188999407,40.1293188999407,40.1293188999407,40.1293188999407,"['v', 'a', 'c', 'a']",0,"[1.0863308999687433, 1.2991246997844428, 1.4277305998839438, 1.5036313999444246]",vaca,C:\2023\REPSWITCH21092023\REPSWITCH_excgange\REPSWITCH_excgange\data/070104_REPSWITCH1_version1_list4_2023-11-20_09h33.41.917_micRespv1l4_recorded\recording_micRespv1l4_2023-11-20_09h34.16.627.wav,43.150601299945265,43.65069460007362,None,43.150601299945265,43.150601299945265,43.150601299945265,43.150601299945265,43.150601299945265,43.150601299945265,,,,,,070104,001,2023-11-20_09h33.41.917,REPSWITCH1_version1_list4,2022.2.4,143.89110281302615,
REPSWITCH1/PICTURE_169.png,espalda,speak,gold,nontarget,2,NT,1,4,4,1,Stim8_Set1,1,switch,6,5,6,0,5,5,5,,,,,,,,,,,,,,,,,,,,,,,43.65069460007362,44.88691070000641,44.88691070000641,44.88691070000641,44.88691070000641,44.88691070000641,44.88691070000641,44.88691070000641,44.88691070000641,None,0,,,C:\2023\REPSWITCH21092023\REPSWITCH_excgange\REPSWITCH_excgange\data/070104_REPSWITCH1_version1_list4_2023-11-20_09h33.41.917_micRespv1l4_recorded\recording_micRespv1l4_2023-11-20_09h34.21.383.wav,47.91507559991442,,None,47.91507559991442,47.91507559991442,47.91507559991442,47.91507559991442,47.91507559991442,47.91507559991442,,,,,,070104,001,2023-11-20_09h33.41.917,REPSWITCH1_version1_list4,2022.2.4,143.89110281302615,
REPSWITCH1/PICTURE_169.png,espalda,speak,gold,repeat,2,T,1,4,4,1,Stim8_Set1,0,None,7,6,7,0,6,6,6,,,,,,,,,,,,,,,,,,,,,,,48.41513910004869,49.49861830007285,49.49861830007285,49.49861830007285,49.49861830007285,49.49861830007285,49.49861830007285,49.49861830007285,49.49861830007285,None,0,,,C:\2023\REPSWITCH21092023\REPSWITCH_excgange\REPSWITCH_excgange\data/070104_REPSWITCH1_version1_list4_2023-11-20_09h33.41.917_micRespv1l4_recorded\recording_micRespv1l4_2023-11-20_09h34.25.995.wav,52.52675690012984,,None,52.52675690012984,52.52675690012984,52.52675690012984,52.52675690012984,52.52675690012984,52.52675690012984,,,,,,070104,001,2023-11-20_09h33.41.917,REPSWITCH1_version1_list4,2022.2.4,143.89110281302615,
REPSWITCH1/PICTURE_728.png,pulpo,type,darkblue,filler,1,F,1,4,4,1,Stim8_Set4,0,None,8,7,8,0,7,7,7,,,,,,,,,,,,,,,,,,,,,,,53.026893800124526,54.07567150006071,54.07567150006071,54.07567150006071,54.07567150006071,54.07567150006071,54.07567150006071,54.07567150006071,54.07567150006071,"['p', 'u', 'l', 'p', 'o']",0,"[0.9055709999520332, 1.2175020000431687, 1.75863890000619, 1.9379552998580039, 2.019728200044483]",pulpo,C:\2023\REPSWITCH21092023\REPSWITCH_excgange\REPSWITCH_excgange\data/070104_REPSWITCH1_version1_list4_2023-11-20_09h33.41.917_micRespv1l4_recorded\recording_micRespv1l4_2023-11-20_09h34.30.573.wav,57.10375229991041,,None,57.10375229991041,57.10375229991041,57.10375229991041,57.10375229991041,57.10375229991041,57.10375229991041,,,,,,070104,001,2023-11-20_09h33.41.917,REPSWITCH1_version1_list4,2022.2.4,143.89110281302615,
REPSWITCH1/PICTURE_142.png,vaso,speak,gold,nontarget,2,NT,1,4,4,1,Stim7_Set1,1,switch,9,8,9,0,8,8,8,,,,,,,,,,,,,,,,,,,,,,,57.60379930003546,58.69425870012492,58.69425870012492,58.69425870012492,58.69425870012492,58.69425870012492,58.69425870012492,58.69425870012492,58.69425870012492,None,0,,,C:\2023\REPSWITCH21092023\REPSWITCH_excgange\REPSWITCH_excgange\data/070104_REPSWITCH1_version1_list4_2023-11-20_09h33.41.917_micRespv1l4_recorded\recording_micRespv1l4_2023-11-20_09h34.35.192.wav,61.722436600131914,,None,61.722436600131914,61.722436600131914,61.722436600131914,61.722436600131914,61.722436600131914,61.722436600131914,,,,,,070104,001,2023-11-20_09h33.41.917,REPSWITCH1_version1_list4,2022.2.4,143.89110281302615,
REPSWITCH1/PICTURE_142.png,vaso,type,darkblue,switch,1,T,1,4,4,1,Stim7_Set1,0,None,10,9,10,0,9,9,9,,,,,,,,,,,,,,,,,,,,,,,62.222514499910176,63.333773100050166,63.333773100050166,63.333773100050166,63.333773100050166,63.333773100050166,63.333773100050166,63.333773100050166,63.333773100050166,"['v', 'a', 's', 'o']",0,"[0.9884544999804348, 1.1075791998300701, 1.228070099838078, 1.4045243000146002]",vaso,C:\2023\REPSWITCH21092023\REPSWITCH_excgange\REPSWITCH_excgange\data/070104_REPSWITCH1_version1_list4_2023-11-20_09h33.41.917_micRespv1l4_recorded\recording_micRespv1l4_2023-11-20_09h34.39.831.wav,66.36190399993211,,None,66.36190399993211,66.36190399993211,66.36190399993211,66.36190399993211,66.36190399993211,66.36190399993211,,,,,,070104,001,2023-11-20_09h33.41.917,REPSWITCH1_version1_list4,2022.2.4,143.89110281302615,
REPSWITCH1/PICTURE_338.png,regalo,type,darkblue,filler,1,F,1,4,4,1,Stim6_Set4,1,repeat,11,10,11,0,10,10,10,,,,,,,,,,,,,,,,,,,,,,,66.8619897000026,68.02187729999423,68.02187729999423,68.02187729999423,68.02187729999423,68.02187729999423,68.02187729999423,68.02187729999423,68.02187729999423,"['r', 'e', 'a', 'g', 'l', 'o', 'backspace', 'backspace', 'backspace']",0,"[1.1603861998301, 1.1992179998196661, 1.3947036999743432, 1.7440937999635935, 2.0267880000174046, 2.2201216998510063, 2.5854928998742253, 2.7628621999174356, 2.9535987998824567]",rea,C:\2023\REPSWITCH21092023\REPSWITCH_excgange\REPSWITCH_excgange\data/070104_REPSWITCH1_version1_list4_2023-11-20_09h33.41.917_micRespv1l4_recorded\recording_micRespv1l4_2023-11-20_09h34.44.519.wav,71.0500364000909,,None,71.0500364000909,71.0500364000909,71.0500364000909,71.0500364000909,71.0500364000909,71.0500364000909,,,,,,070104,001,2023-11-20_09h33.41.917,REPSWITCH1_version1_list4,2022.2.4,143.89110281302615,
REPSWITCH1/PICTURE_135.png,traje,type,darkblue,nontarget,1,NT,1,4,4,1,Stim3_Set1,1,repeat,12,11,12,0,11,11,11,,,,,,,,,,,,,,,,,,,,,,,71.55010310001671,72.62661310005933,72.62661310005933,72.62661310005933,72.62661310005933,72.62661310005933,72.62661310005933,72.62661310005933,72.62661310005933,"['t', 'r', 'a', 'j', 'e']",0,"[0.8892314997501671, 0.9875020999461412, 1.1140101999044418, 1.5316682998090982, 1.6014349998440593]",traje,C:\2023\REPSWITCH21092023\REPSWITCH_excgange\REPSWITCH_excgange\data/070104_REPSWITCH1_version1_list4_2023-11-20_09h33.41.917_micRespv1l4_recorded\recording_micRespv1l4_2023-11-20_09h34.49.124.wav,75.65478270011954,76.15485269995406,None,75.65478270011954,75.65478270011954,75.65478270011954,75.65478270011954,75.65478270011954,75.65478270011954,,,,,,070104,001,2023-11-20_09h33.41.917,REPSWITCH1_version1_list4,2022.2.4,143.89110281302615,
REPSWITCH1/PICTURE_135.png,traje,speak,gold,switch,2,T,1,4,4,1,Stim3_Set1,0,None,13,12,13,0,12,12,12,,,,,,,,,,,,,,,,,,,,,,,76.15485269995406,77.28001710004173,77.28001710004173,77.28001710004173,77.28001710004173,77.28001710004173,77.28001710004173,77.28001710004173,77.28001710004173,None,0,,,C:\2023\REPSWITCH21092023\REPSWITCH_excgange\REPSWITCH_excgange\data/070104_REPSWITCH1_version1_list4_2023-11-20_09h33.41.917_micRespv1l4_recorded\recording_micRespv1l4_2023-11-20_09h34.53.778.wav,80.30817939992994,,None,80.30817939992994,80.30817939992994,80.30817939992994,80.30817939992994,80.30817939992994,80.30817939992994,,,,,,070104,001,2023-11-20_09h33.41.917,REPSWITCH1_version1_list4,2022.2.4,143.89110281302615,
REPSWITCH1/PICTURE_381.png,fresa,speak,gold,nontarget,2,NT,1,4,4,1,Stim2_Set1,1,repeat,14,13,14,0,13,13,13,,,,,,,,,,,,,,,,,,,,,,,80.80833419994451,81.89179720007814,81.89179720007814,81.89179720007814,81.89179720007814,81.89179720007814,81.89179720007814,81.89179720007814,81.89179720007814,None,0,,,C:\2023\REPSWITCH21092023\REPSWITCH_excgange\REPSWITCH_excgange\data/070104_REPSWITCH1_version1_list4_2023-11-20_09h33.41.917_micRespv1l4_recorded\recording_micRespv1l4_2023-11-20_09h34.58.389.wav,84.91300699999556,85.41303239995614,None,84.91300699999556,84.91300699999556,84.91300699999556,84.91300699999556,84.91300699999556,84.91300699999556,,,,,,070104,001,2023-11-20_09h33.41.917,REPSWITCH1_version1_list4,2022.2.4,143.89110281302615,
REPSWITCH1/PICTURE_381.png,fresa,type,darkblue,switch,1,T,1,4,4,1,Stim2_Set1,0,None,15,14,15,0,14,14,14,,,,,,,,,,,,,,,,,,,,,,,85.41303239995614,86.48262439994141,86.48262439994141,86.48262439994141,86.48262439994141,86.48262439994141,86.48262439994141,86.48262439994141,86.48262439994141,"['f', 'r', 'e', 's', 'a']",0,"[0.9539059998933226, 1.099185099825263, 1.2187818998936564, 1.552982699824497, 1.6775698999408633]",fresa,C:\2023\REPSWITCH21092023\REPSWITCH_excgange\REPSWITCH_excgange\data/070104_REPSWITCH1_version1_list4_2023-11-20_09h33.41.917_micRespv1l4_recorded\recording_micRespv1l4_2023-11-20_09h35.02.980.wav,89.50381990009919,90.00388319999911,None,89.50381990009919,89.50381990009919,89.50381990009919,89.50381990009919,89.50381990009919,89.50381990009919,,,,,,070104,001,2023-11-20_09h33.41.917,REPSWITCH1_version1_list4,2022.2.4,143.89110281302615,
REPSWITCH1/PICTURE_48.png,bombero,type,darkblue,filler,1,F,1,4,4,1,Stim7_Set4,0,None,16,15,16,0,15,15,15,,,,,,,,,,,,,,,,,,,,,,,90.00388319999911,91.06661470001563,91.06661470001563,91.06661470001563,91.06661470001563,91.06661470001563,91.06661470001563,91.06661470001563,91.06661470001563,"['b', 'o', 'm', 'b', 'e', 'r', 'o']",0,"[0.9840611999388784, 1.0889494000002742, 1.3085006999317557, 1.5337485999334604, 1.618836399866268, 1.6892146999016404, 1.7908695999067277]",bombero,C:\2023\REPSWITCH21092023\REPSWITCH_excgange\REPSWITCH_excgange\data/070104_REPSWITCH1_version1_list4_2023-11-20_09h33.41.917_micRespv1l4_recorded\recording_micRespv1l4_2023-11-20_09h35.07.564.wav,94.09468180011027,,None,94.09468180011027,94.09468180011027,94.09468180011027,94.09468180011027,94.09468180011027,94.09468180011027,,,,,,070104,001,2023-11-20_09h33.41.917,REPSWITCH1_version1_list4,2022.2.4,143.89110281302615,
REPSWITCH1/PICTURE_687.png,camisa,speak,gold,filler,2,F,1,4,4,1,Stim5_Set4,0,None,17,16,17,0,16,16,16,,,,,,,,,,,,,,,,,,,,,,,94.59482019999996,95.71298999991268,95.71298999991268,95.71298999991268,95.71298999991268,95.71298999991268,95.71298999991268,95.71298999991268,95.71298999991268,None,0,,,C:\2023\REPSWITCH21092023\REPSWITCH_excgange\REPSWITCH_excgange\data/070104_REPSWITCH1_version1_list4_2023-11-20_09h33.41.917_micRespv1l4_recorded\recording_micRespv1l4_2023-11-20_09h35.12.210.wav,98.74116789991967,,None,98.74116789991967,98.74116789991967,98.74116789991967,98.74116789991967,98.74116789991967,98.74116789991967,,,,,,070104,001,2023-11-20_09h33.41.917,REPSWITCH1_version1_list4,2022.2.4,143.89110281302615,
REPSWITCH1/PICTURE_128.png,muñeca,type,darkblue,nontarget,1,NT,1,4,4,1,Stim4_Set1,0,None,18,17,18,0,17,17,17,,,,,,,,,,,,,,,,,,,,,,,99.24122630013153,100.32469750009477,100.32469750009477,100.32469750009477,100.32469750009477,100.32469750009477,100.32469750009477,100.32469750009477,100.32469750009477,"['m', 'u']",0,"[0.9401845999527723, 1.1079178999643773]",mu,C:\2023\REPSWITCH21092023\REPSWITCH_excgange\REPSWITCH_excgange\data/070104_REPSWITCH1_version1_list4_2023-11-20_09h33.41.917_micRespv1l4_recorded\recording_micRespv1l4_2023-11-20_09h35.16.821.wav,103.34589100000449,103.84599329996854,None,103.34589100000449,103.34589100000449,103.34589100000449,103.34589100000449,103.34589100000449,103.34589100000449,,,,,,070104,001,2023-11-20_09h33.41.917,REPSWITCH1_version1_list4,2022.2.4,143.89110281302615,
REPSWITCH1/PICTURE_128.png,muñeca,type,darkblue,repeat,1,T,1,4,4,1,Stim4_Set1,0,None,19,18,19,0,18,18,18,,,,,,,,,,,,,,,,,,,,,,,103.84599329996854,104.95029910001904,104.95029910001904,104.95029910001904,104.95029910001904,104.95029910001904,104.95029910001904,104.95029910001904,104.95029910001904,"['m', 'u', 'n', 'e', 'c', 'a']",0,"[1.091778899775818, 1.3181773996911943, 1.5803660997189581, 1.6631577997468412, 1.8545159997884184, 1.9621663996949792]",muneca,C:\2023\REPSWITCH21092023\REPSWITCH_excgange\REPSWITCH_excgange\data/070104_REPSWITCH1_version1_list4_2023-11-20_09h33.41.917_micRespv1l4_recorded\recording_micRespv1l4_2023-11-20_09h35.21.448.wav,107.97848380007781,,None,107.97848380007781,107.97848380007781,107.97848380007781,107.97848380007781,107.97848380007781,107.97848380007781,,,,,,070104,001,2023-11-20_09h33.41.917,REPSWITCH1_version1_list4,2022.2.4,143.89110281302615,
REPSWITCH1/PICTURE_719.png,baño,speak,gold,filler,2,F,1,4,4,1,Stim2_Set4,1,switch,20,19,20,0,19,19,19,,,,,,,,,,,,,,,,,,,,,,,108.47852779994719,109.63144330005161,109.63144330005161,109.63144330005161,109.63144330005161,109.63144330005161,109.63144330005161,109.63144330005161,109.63144330005161,None,0,,,C:\2023\REPSWITCH21092023\REPSWITCH_excgange\REPSWITCH_excgange\data/070104_REPSWITCH1_version1_list4_2023-11-20_09h33.41.917_micRespv1l4_recorded\recording_micRespv1l4_2023-11-20_09h35.26.129.wav,112.65970880002715,,None,112.65970880002715,112.65970880002715,112.65970880002715,112.65970880002715,112.65970880002715,112.65970880002715,,,,,,070104,001,2023-11-20_09h33.41.917,REPSWITCH1_version1_list4,2022.2.4,143.89110281302615,
REPSWITCH1/PICTURE_178.png,puente,type,darkblue,nontarget,1,NT,1,4,4,1,Stim1_Set1,1,switch,21,20,21,0,20,20,20,,,,,,,,,,,,,,,,,,,,,,,113.15975539991632,114.21538279997185,114.21538279997185,114.21538279997185,114.21538279997185,114.21538279997185,114.21538279997185,114.21538279997185,114.21538279997185,"['p', 'u', 'e', 'n', 't', 'e']",0,"[1.0699726997409016, 1.261368699837476, 1.3610273997765034, 1.4567150997463614, 1.6557343997992575, 1.7125392998568714]",puente,C:\2023\REPSWITCH21092023\REPSWITCH_excgange\REPSWITCH_excgange\data/070104_REPSWITCH1_version1_list4_2023-11-20_09h33.41.917_micRespv1l4_recorded\recording_micRespv1l4_2023-11-20_09h35.30.712.wav,117.23661209992133,117.73666840000078,None,117.23661209992133,117.23661209992133,117.23661209992133,117.23661209992133,117.23661209992133,117.23661209992133,,,,,,070104,001,2023-11-20_09h33.41.917,REPSWITCH1_version1_list4,2022.2.4,143.89110281302615,
REPSWITCH1/PICTURE_178.png,puente,type,darkblue,repeat,1,T,1,4,4,1,Stim1_Set1,0,None,22,21,22,0,21,21,21,,,,,,,,,,,,,,,,,,,,,,,117.73666840000078,118.86878250003792,118.86878250003792,118.86878250003792,118.86878250003792,118.86878250003792,118.86878250003792,118.86878250003792,118.86878250003792,"['p', 'u', 'e', 'n', 't', 'e']",0,"[0.8282729999627918, 1.0475266999565065, 1.1651337000075728, 1.2548293001018465, 1.4922774999868125, 1.5819383000489324]",puente,C:\2023\REPSWITCH21092023\REPSWITCH_excgange\REPSWITCH_excgange\data/070104_REPSWITCH1_version1_list4_2023-11-20_09h33.41.917_micRespv1l4_recorded\recording_micRespv1l4_2023-11-20_09h35.35.366.wav,121.89695969992317,,None,121.89695969992317,121.89695969992317,121.89695969992317,121.89695969992317,121.89695969992317,121.89695969992317,,,,,,070104,001,2023-11-20_09h33.41.917,REPSWITCH1_version1_list4,2022.2.4,143.89110281302615,
REPSWITCH1/PICTURE_16.png,cazador,type,darkblue,nontarget,1,NT,1,4,4,1,Stim6_Set1,1,repeat,23,22,23,0,22,22,22,,,,,,,,,,,,,,,,,,,,,,,122.39701909990981,123.52918830001727,123.52918830001727,123.52918830001727,123.52918830001727,123.52918830001727,123.52918830001727,123.52918830001727,123.52918830001727,"['c', 'a', 'z', 'a', 'd', 'o', 'r']",0,"[1.4496439998038113, 1.6259929998777807, 1.949226499767974, 2.0697911998722702, 2.2695091997738928, 2.4279191996902227, 2.50965019967407]",cazador,C:\2023\REPSWITCH21092023\REPSWITCH_excgange\REPSWITCH_excgange\data/070104_REPSWITCH1_version1_list4_2023-11-20_09h33.41.917_micRespv1l4_recorded\recording_micRespv1l4_2023-11-20_09h35.40.026.wav,126.55035270005465,127.05042030010372,None,126.55035270005465,126.55035270005465,126.55035270005465,126.55035270005465,126.55035270005465,126.55035270005465,,,,,,070104,001,2023-11-20_09h33.41.917,REPSWITCH1_version1_list4,2022.2.4,143.89110281302615,
REPSWITCH1/PICTURE_16.png,cazador,speak,gold,switch,2,T,1,4,4,1,Stim6_Set1,0,None,24,23,24,0,23,23,23,,,,,,,,,,,,,,,,,,,,,,,127.05042030010372,128.16165010002442,128.16165010002442,128.16165010002442,128.16165010002442,128.16165010002442,128.16165010002442,128.16165010002442,128.16165010002442,None,0,,,C:\2023\REPSWITCH21092023\REPSWITCH_excgange\REPSWITCH_excgange\data/070104_REPSWITCH1_version1_list4_2023-11-20_09h33.41.917_micRespv1l4_recorded\recording_micRespv1l4_2023-11-20_09h35.44.659.wav,131.1828785999678,131.68296310002916,None,131.1828785999678,131.1828785999678,131.1828785999678,131.1828785999678,131.1828785999678,131.1828785999678,,,,,,070104,001,2023-11-20_09h33.41.917,REPSWITCH1_version1_list4,2022.2.4,143.89110281302615,
REPSWITCH1/PICTURE_19.png,pavo,type,darkblue,filler,1,F,2,4,4,1,Stim5_Set1,0,None,25,24,25,0,24,24,24,,,,,,,,,,,,,,,,,,,,,,,131.68296310002916,132.78035110002384,132.78035110002384,132.78035110002384,132.78035110002384,132.78035110002384,132.78035110002384,132.78035110002384,132.78035110002384,"['p', 'a', 'v', 'o']",0,"[1.039338099770248, 1.1881135997828096, 1.3986456997226924, 1.4992994996719062]",pavo,C:\2023\REPSWITCH21092023\REPSWITCH_excgange\REPSWITCH_excgange\data/070104_REPSWITCH1_version1_list4_2023-11-20_09h33.41.917_micRespv1l4_recorded\recording_micRespv1l4_2023-11-20_09h35.49.277.wav,135.80156180006452,136.30162400007248,None,135.80156180006452,135.80156180006452,135.80156180006452,135.80156180006452,135.80156180006452,135.80156180006452,,,,,,070104,001,2023-11-20_09h33.41.917,REPSWITCH1_version1_list4,2022.2.4,143.89110281302615,
REPSWITCH1/PICTURE_199.png,falda,type,darkblue,nontarget,1,NT,2,4,4,1,Stim8_Set2,1,repeat,26,25,26,0,25,25,25,,,,,,,,,,,,,,,,,,,,,,,136.30162400007248,137.38506869995035,137.38506869995035,137.38506869995035,137.38506869995035,137.38506869995035,137.38506869995035,137.38506869995035,137.38506869995035,"['f', 'a', 'l', 'd', 'a']",0,"[1.5769881000742316, 1.6726925000548363, 2.040545899886638, 2.1023704998660833, 2.1771573999430984]",falda,C:\2023\REPSWITCH21092023\REPSWITCH_excgange\REPSWITCH_excgange\data/070104_REPSWITCH1_version1_list4_2023-11-20_09h33.41.917_micRespv1l4_recorded\recording_micRespv1l4_2023-11-20_09h35.53.882.wav,140.41328300000168,,None,140.41328300000168,140.41328300000168,140.41328300000168,140.41328300000168,140.41328300000168,140.41328300000168,,,,,,070104,001,2023-11-20_09h33.41.917,REPSWITCH1_version1_list4,2022.2.4,143.89110281302615,
REPSWITCH1/PICTURE_199.png,falda,type,darkblue,repeat,1,T,2,4,4,1,Stim8_Set2,0,None,27,26,27,0,26,26,26,,,,,,,,,,,,,,,,,,,,,,,140.9133373000659,142.00377600011416,142.00377600011416,142.00377600011416,142.00377600011416,142.00377600011416,142.00377600011416,142.00377600011416,142.00377600011416,"['f', 'a', 'l', 'd', 'a']",0,"[0.8365062000229955, 0.9441364000085741, 1.3003062999341637, 1.390738499816507, 1.4636217998340726]",falda,C:\2023\REPSWITCH21092023\REPSWITCH_excgange\REPSWITCH_excgange\data/070104_REPSWITCH1_version1_list4_2023-11-20_09h33.41.917_micRespv1l4_recorded\recording_micRespv1l4_2023-11-20_09h35.58.501.wav,145.0249656001106,145.52505420008674,None,145.0249656001106,145.0249656001106,145.0249656001106,145.0249656001106,145.0249656001106,145.0249656001106,,,,,,070104,001,2023-11-20_09h33.41.917,REPSWITCH1_version1_list4,2022.2.4,143.89110281302615,
REPSWITCH1/PICTURE_178.png,puente,speak,gold,filler,2,F,2,4,4,1,Stim1_Set1,1,switch,28,27,28,0,27,27,27,,,,,,,,,,,,,,,,,,,,,,,145.52505420008674,146.62939059990458,146.62939059990458,146.62939059990458,146.62939059990458,146.62939059990458,146.62939059990458,146.62939059990458,146.62939059990458,None,0,,,C:\2023\REPSWITCH21092023\REPSWITCH_excgange\REPSWITCH_excgange\data/070104_REPSWITCH1_version1_list4_2023-11-20_09h33.41.917_micRespv1l4_recorded\recording_micRespv1l4_2023-11-20_09h36.03.127.wav,149.6505579999648,150.15065590012819,None,149.6505579999648,149.6505579999648,149.6505579999648,149.6505579999648,149.6505579999648,149.6505579999648,,,,,,070104,001,2023-11-20_09h33.41.917,REPSWITCH1_version1_list4,2022.2.4,143.89110281302615,
REPSWITCH1/PICTURE_517.png,cuerda,type,darkblue,nontarget,1,NT,2,4,4,1,Stim4_Set2,1,switch,29,28,29,0,28,28,28,,,,,,,,,,,,,,,,,,,,,,,150.15065590012819,151.21332650003023,151.21332650003023,151.21332650003023,151.21332650003023,151.21332650003023,151.21332650003023,151.21332650003023,151.21332650003023,"['c', 'u', 'e', 'r', 'd', 'a']",0,"[1.0681726997718215, 1.288420599885285, 1.3512122998945415, 1.4399094998370856, 1.82464459980838, 1.9223712999373674]",cuerda,C:\2023\REPSWITCH21092023\REPSWITCH_excgange\REPSWITCH_excgange\data/070104_REPSWITCH1_version1_list4_2023-11-20_09h33.41.917_micRespv1l4_recorded\recording_micRespv1l4_2023-11-20_09h36.07.711.wav,154.2414778000675,,None,154.2414778000675,154.2414778000675,154.2414778000675,154.2414778000675,154.2414778000675,154.2414778000675,,,,,,070104,001,2023-11-20_09h33.41.917,REPSWITCH1_version1_list4,2022.2.4,143.89110281302615,
REPSWITCH1/PICTURE_517.png,cuerda,type,darkblue,repeat,1,T,2,4,4,1,Stim4_Set2,0,None,30,29,30,0,29,29,29,,,,,,,,,,,,,,,,,,,,,,,154.74152219993994,155.9292306001298,155.9292306001298,155.9292306001298,155.9292306001298,155.9292306001298,155.9292306001298,155.9292306001298,155.9292306001298,"['u', 'backspace', 'c', 'i', 'e', 'r', 'f', 'd', 'a']",0,"[0.9921257998794317, 1.306156300008297, 1.4274877000134438, 1.629642799962312, 1.8109997999854386, 1.9017189999576658, 2.1393627000506967, 2.145358100067824, 2.4384002999868244]",cierda,C:\2023\REPSWITCH21092023\REPSWITCH_excgange\REPSWITCH_excgange\data/070104_REPSWITCH1_version1_list4_2023-11-20_09h33.41.917_micRespv1l4_recorded\recording_micRespv1l4_2023-11-20_09h36.12.426.wav,158.9504213000182,159.45048319990747,None,158.9504213000182,158.9504213000182,158.9504213000182,158.9504213000182,158.9504213000182,158.9504213000182,,,,,,070104,001,2023-11-20_09h33.41.917,REPSWITCH1_version1_list4,2022.2.4,143.89110281302615,
REPSWITCH1/PICTURE_169.png,espalda,type,darkblue,filler,1,F,2,4,4,1,Stim8_Set1,0,None,31,30,31,0,30,30,30,,,,,,,,,,,,,,,,,,,,,,,159.45048319990747,160.4714361000806,160.4714361000806,160.4714361000806,160.4714361000806,160.4714361000806,160.4714361000806,160.4714361000806,160.4714361000806,"['e', 's', 'p', 'a', 'l', 'd', 'a']",0,"[0.7969857999123633, 0.9973138000350446, 1.1494874998461455, 1.22520300000906, 1.3428409998305142, 1.4295498998835683, 1.5235573998652399]",espalda,C:\2023\REPSWITCH21092023\REPSWITCH_excgange\REPSWITCH_excgange\data/070104_REPSWITCH1_version1_list4_2023-11-20_09h33.41.917_micRespv1l4_recorded\recording_micRespv1l4_2023-11-20_09h36.16.969.wav,163.49968399992213,,None,163.49968399992213,163.49968399992213,163.49968399992213,163.49968399992213,163.49968399992213,163.49968399992213,,,,,,070104,001,2023-11-20_09h33.41.917,REPSWITCH1_version1_list4,2022.2.4,143.89110281302615,
REPSWITCH1/PICTURE_673.png,tenedor,speak,gold,filler,2,F,2,4,4,1,Extra5,0,None,32,31,32,0,31,31,31,,,,,,,,,,,,,,,,,,,,,,,163.99965370004065,165.12488700007088,165.12488700007088,165.12488700007088,165.12488700007088,165.12488700007088,165.12488700007088,165.12488700007088,165.12488700007088,None,0,,,C:\2023\REPSWITCH21092023\REPSWITCH_excgange\REPSWITCH_excgange\data/070104_REPSWITCH1_version1_list4_2023-11-20_09h33.41.917_micRespv1l4_recorded\recording_micRespv1l4_2023-11-20_09h36.21.622.wav,168.14604129991494,168.64619760005735,None,168.14604129991494,168.14604129991494,168.14604129991494,168.14604129991494,168.14604129991494,168.14604129991494,,,,,,070104,001,2023-11-20_09h33.41.917,REPSWITCH1_version1_list4,2022.2.4,143.89110281302615,
REPSWITCH1/PICTURE_142.png,vaso,type,darkblue,filler,1,F,2,4,4,1,Stim7_Set1,1,switch,33,32,33,0,32,32,32,,,,,,,,,,,,,,,,,,,,,,,168.64619760005735,169.8894015001133,169.8894015001133,169.8894015001133,169.8894015001133,169.8894015001133,169.8894015001133,169.8894015001133,169.8894015001133,"['v', 'a', 's', 'o']",0,"[0.8532568998634815, 0.9869574997574091, 1.0418638996779919, 1.239282899769023]",vaso,C:\2023\REPSWITCH21092023\REPSWITCH_excgange\REPSWITCH_excgange\data/070104_REPSWITCH1_version1_list4_2023-11-20_09h33.41.917_micRespv1l4_recorded\recording_micRespv1l4_2023-11-20_09h36.26.386.wav,172.91058710007928,173.41064279992133,None,172.91058710007928,172.91058710007928,172.91058710007928,172.91058710007928,172.91058710007928,172.91058710007928,,,,,,070104,001,2023-11-20_09h33.41.917,REPSWITCH1_version1_list4,2022.2.4,143.89110281302615,
REPSWITCH1/PICTURE_552.png,manzana,type,darkblue,nontarget,1,NT,2,4,4,1,Stim6_Set2,1,repeat,34,33,34,0,33,33,33,,,,,,,,,,,,,,,,,,,,,,,173.41064279992133,174.4177111000754,174.4177111000754,174.4177111000754,174.4177111000754,174.4177111000754,174.4177111000754,174.4177111000754,174.4177111000754,"['m', 'a', 'n', 'z', 'a', 'a', 'backspace', 'n', 'a']",0,"[1.0496677998453379, 1.0855382999870926, 1.2260296000167727, 1.33102190005593, 1.4614593998994678, 1.8072642998304218, 2.2606361999642104, 2.555530200013891, 2.6282774000428617]",manzana,C:\2023\REPSWITCH21092023\REPSWITCH_excgange\REPSWITCH_excgange\data/070104_REPSWITCH1_version1_list4_2023-11-20_09h33.41.917_micRespv1l4_recorded\recording_micRespv1l4_2023-11-20_09h36.30.915.wav,177.43894889997318,177.93901420012116,None,177.43894889997318,177.43894889997318,177.43894889997318,177.43894889997318,177.43894889997318,177.43894889997318,,,,,,070104,001,2023-11-20_09h33.41.917,REPSWITCH1_version1_list4,2022.2.4,143.89110281302615,
REPSWITCH1/PICTURE_552.png,manzana,speak,gold,switch,1,T,2,4,4,1,Stim6_Set2,0,None,35,34,35,0,34,34,34,,,,,,,,,,,,,,,,,,,,,,,177.93901420012116,178.98084300011396,178.98084300011396,178.98084300011396,178.98084300011396,178.98084300011396,178.98084300011396,178.98084300011396,178.98084300011396,None,0,,,C:\2023\REPSWITCH21092023\REPSWITCH_excgange\REPSWITCH_excgange\data/070104_REPSWITCH1_version1_list4_2023-11-20_09h33.41.917_micRespv1l4_recorded\recording_micRespv1l4_2023-11-20_09h36.35.478.wav,182.00897750002332,,None,182.00897750002332,182.00897750002332,182.00897750002332,182.00897750002332,182.00897750002332,182.00897750002332,,,,,,070104,001,2023-11-20_09h33.41.917,REPSWITCH1_version1_list4,2022.2.4,143.89110281302615,
REPSWITCH1/PICTURE_135.png,traje,speak,gold,filler,2,F,2,4,4,1,Stim3_Set1,0,None,36,35,36,0,35,35,35,,,,,,,,,,,,,,,,,,,,,,,182.50906300009228,183.57864210009575,183.57864210009575,183.57864210009575,183.57864210009575,183.57864210009575,183.57864210009575,183.57864210009575,183.57864210009575,None,0,,,C:\2023\REPSWITCH21092023\REPSWITCH_excgange\REPSWITCH_excgange\data/070104_REPSWITCH1_version1_list4_2023-11-20_09h33.41.917_micRespv1l4_recorded\recording_micRespv1l4_2023-11-20_09h36.40.075.wav,186.5998474000953,187.0999292000197,None,186.5998474000953,186.5998474000953,186.5998474000953,186.5998474000953,186.5998474000953,186.5998474000953,,,,,,070104,001,2023-11-20_09h33.41.917,REPSWITCH1_version1_list4,2022.2.4,143.89110281302615,
REPSWITCH1/PICTURE_152.png,caracol,speak,gold,nontarget,2,NT,2,4,4,1,Stim2_Set2,1,repeat,37,36,37,0,36,36,36,,,,,,,,,,,,,,,,,,,,,,,187.0999292000197,188.3293234000448,188.3293234000448,188.3293234000448,188.3293234000448,188.3293234000448,188.3293234000448,188.3293234000448,188.3293234000448,None,0,,,C:\2023\REPSWITCH21092023\REPSWITCH_excgange\REPSWITCH_excgange\data/070104_REPSWITCH1_version1_list4_2023-11-20_09h33.41.917_micRespv1l4_recorded\recording_micRespv1l4_2023-11-20_09h36.44.827.wav,191.35045680007897,191.85055670002475,None,191.35045680007897,191.35045680007897,191.35045680007897,191.35045680007897,191.35045680007897,191.35045680007897,,,,,,070104,001,2023-11-20_09h33.41.917,REPSWITCH1_version1_list4,2022.2.4,143.89110281302615,
REPSWITCH1/PICTURE_152.png,caracol,type,darkblue,switch,1,T,2,4,4,1,Stim2_Set2,0,None,38,37,38,0,37,37,37,,,,,,,,,,,,,,,,,,,,,,,191.85055670002475,192.989583699964,192.989583699964,192.989583699964,192.989583699964,192.989583699964,192.989583699964,192.989583699964,192.989583699964,"['c', 'r', 'backspace', 'a', 'r', 'a', 'c', 'o', 'l']",0,"[0.8580591997597367, 1.0584446997381747, 1.4121631998568773, 1.5523360997904092, 1.7430760997813195, 1.8658416997641325, 2.0801448998972774, 2.1872711998876184, 2.366981699829921]",caracol,C:\2023\REPSWITCH21092023\REPSWITCH_excgange\REPSWITCH_excgange\data/070104_REPSWITCH1_version1_list4_2023-11-20_09h33.41.917_micRespv1l4_recorded\recording_micRespv1l4_2023-11-20_09h36.49.487.wav,196.01086369995028,196.51084999996237,None,196.01086369995028,196.01086369995028,196.01086369995028,196.01086369995028,196.01086369995028,196.01086369995028,,,,,,070104,001,2023-11-20_09h33.41.917,REPSWITCH1_version1_list4,2022.2.4,143.89110281302615,
REPSWITCH1/PICTURE_381.png,fresa,type,darkblue,filler,1,F,2,4,4,1,Stim2_Set1,0,None,39,38,39,0,38,38,38,,,,,,,,,,,,,,,,,,,,,,,196.51084999996237,197.62215179996565,197.62215179996565,197.62215179996565,197.62215179996565,197.62215179996565,197.62215179996565,197.62215179996565,197.62215179996565,"['f', 'r', 'e', 's', 'a']",0,"[0.9123084000311792, 1.0591551000252366, 1.3062919999938458, 1.5564108998514712, 1.6311752998735756]",fresa,C:\2023\REPSWITCH21092023\REPSWITCH_excgange\REPSWITCH_excgange\data/070104_REPSWITCH1_version1_list4_2023-11-20_09h33.41.917_micRespv1l4_recorded\recording_micRespv1l4_2023-11-20_09h36.54.120.wav,200.65032140002586,,None,200.65032140002586,200.65032140002586,200.65032140002586,200.65032140002586,200.65032140002586,200.65032140002586,,,,,,070104,001,2023-11-20_09h33.41.917,REPSWITCH1_version1_list4,2022.2.4,143.89110281302615,
REPSWITCH1/PICTURE_446.png,cerdo,type,darkblue,nontarget,1,NT,2,4,4,1,Stim7_Set2,1,repeat,40,39,40,0,39,39,39,,,,,,,,,,,,,,,,,,,,,,,201.15038320003077,202.16443080012687,202.16443080012687,202.16443080012687,202.16443080012687,202.16443080012687,202.16443080012687,202.16443080012687,202.16443080012687,"['c', 'e', 'r', 'd', 'o']",0,"[0.7949949998874217, 1.039849099703133, 1.1236334997229278, 1.3527960998471826, 1.4975706997793168]",cerdo,C:\2023\REPSWITCH21092023\REPSWITCH_excgange\REPSWITCH_excgange\data/070104_REPSWITCH1_version1_list4_2023-11-20_09h33.41.917_micRespv1l4_recorded\recording_micRespv1l4_2023-11-20_09h36.58.662.wav,205.19263870012946,,None,205.19263870012946,205.19263870012946,205.19263870012946,205.19263870012946,205.19263870012946,205.19263870012946,,,,,,070104,001,2023-11-20_09h33.41.917,REPSWITCH1_version1_list4,2022.2.4,143.89110281302615,
REPSWITCH1/PICTURE_446.png,cerdo,speak,gold,switch,2,T,2,4,4,1,Stim7_Set2,0,None,41,40,41,0,40,40,40,,,,,,,,,,,,,,,,,,,,,,,205.69262320012785,206.85254990006797,206.85254990006797,206.85254990006797,206.85254990006797,206.85254990006797,206.85254990006797,206.85254990006797,206.85254990006797,None,0,,,C:\2023\REPSWITCH21092023\REPSWITCH_excgange\REPSWITCH_excgange\data/070104_REPSWITCH1_version1_list4_2023-11-20_09h33.41.917_micRespv1l4_recorded\recording_micRespv1l4_2023-11-20_09h37.03.350.wav,209.88066469994374,,None,209.88066469994374,209.88066469994374,209.88066469994374,209.88066469994374,209.88066469994374,209.88066469994374,,,,,,070104,001,2023-11-20_09h33.41.917,REPSWITCH1_version1_list4,2022.2.4,143.89110281302615,
REPSWITCH1/PICTURE_264.png,mano,speak,gold,nontarget,2,NT,2,4,4,1,Stim3_Set2,0,None,42,41,42,0,41,41,41,,,,,,,,,,,,,,,,,,,,,,,210.38073350000195,211.5197825001087,211.5197825001087,211.5197825001087,211.5197825001087,211.5197825001087,211.5197825001087,211.5197825001087,211.5197825001087,None,0,,,C:\2023\REPSWITCH21092023\REPSWITCH_excgange\REPSWITCH_excgange\data/070104_REPSWITCH1_version1_list4_2023-11-20_09h33.41.917_micRespv1l4_recorded\recording_micRespv1l4_2023-11-20_09h37.08.017.wav,214.548037200002,,None,214.548037200002,214.548037200002,214.548037200002,214.548037200002,214.548037200002,214.548037200002,,,,,,070104,001,2023-11-20_09h33.41.917,REPSWITCH1_version1_list4,2022.2.4,143.89110281302615,
REPSWITCH1/PICTURE_264.png,mano,speak,gold,repeat,2,T,2,4,4,1,Stim3_Set2,0,None,43,42,43,0,42,42,42,,,,,,,,,,,,,,,,,,,,,,,215.0480991001241,216.07600160012953,216.07600160012953,216.07600160012953,216.07600160012953,216.07600160012953,216.07600160012953,216.07600160012953,216.07600160012953,None,0,,,C:\2023\REPSWITCH21092023\REPSWITCH_excgange\REPSWITCH_excgange\data/070104_REPSWITCH1_version1_list4_2023-11-20_09h33.41.917_micRespv1l4_recorded\recording_micRespv1l4_2023-11-20_09h37.12.573.wav,219.09723150008358,219.5972659001127,None,219.09723150008358,219.09723150008358,219.09723150008358,219.09723150008358,219.09723150008358,219.09723150008358,,,,,,070104,001,2023-11-20_09h33.41.917,REPSWITCH1_version1_list4,2022.2.4,143.89110281302615,
REPSWITCH1/PICTURE_128.png,muñeca,type,darkblue,filler,1,F,2,4,4,1,Stim4_Set1,0,None,44,43,44,0,43,43,43,,,,,,,,,,,,,,,,,,,,,,,219.5972659001127,220.70851720008068,220.70851720008068,220.70851720008068,220.70851720008068,220.70851720008068,220.70851720008068,220.70851720008068,220.70851720008068,"['m', 'u', 'n', 'e', 'c', 'a']",0,"[0.7832922998350114, 0.9750022999942303, 1.200286400038749, 1.2740435998421162, 1.8042284999974072, 2.0930480998940766]",muneca,C:\2023\REPSWITCH21092023\REPSWITCH_excgange\REPSWITCH_excgange\data/070104_REPSWITCH1_version1_list4_2023-11-20_09h33.41.917_micRespv1l4_recorded\recording_micRespv1l4_2023-11-20_09h37.17.205.wav,223.72969039995223,224.22978279995732,None,223.72969039995223,223.72969039995223,223.72969039995223,223.72969039995223,223.72969039995223,223.72969039995223,,,,,,070104,001,2023-11-20_09h33.41.917,REPSWITCH1_version1_list4,2022.2.4,143.89110281302615,
REPSWITCH1/PICTURE_30.png,granja,speak,gold,nontarget,2,NT,2,4,4,1,Stim5_Set2,1,switch,45,44,45,0,44,44,44,,,,,,,,,,,,,,,,,,,,,,,224.22978279995732,225.40355710010044,225.40355710010044,225.40355710010044,225.40355710010044,225.40355710010044,225.40355710010044,225.40355710010044,225.40355710010044,None,0,,,C:\2023\REPSWITCH21092023\REPSWITCH_excgange\REPSWITCH_excgange\data/070104_REPSWITCH1_version1_list4_2023-11-20_09h33.41.917_micRespv1l4_recorded\recording_micRespv1l4_2023-11-20_09h37.21.901.wav,228.43170549999923,,None,228.43170549999923,228.43170549999923,228.43170549999923,228.43170549999923,228.43170549999923,228.43170549999923,,,,,,070104,001,2023-11-20_09h33.41.917,REPSWITCH1_version1_list4,2022.2.4,143.89110281302615,
REPSWITCH1/PICTURE_30.png,granja,speak,gold,repeat,2,T,2,4,4,1,Stim5_Set2,0,None,46,45,46,0,45,45,45,,,,,,,,,,,,,,,,,,,,,,,228.93176910001785,229.9458425999619,229.9458425999619,229.9458425999619,229.9458425999619,229.9458425999619,229.9458425999619,229.9458425999619,229.9458425999619,None,0,,,C:\2023\REPSWITCH21092023\REPSWITCH_excgange\REPSWITCH_excgange\data/070104_REPSWITCH1_version1_list4_2023-11-20_09h33.41.917_micRespv1l4_recorded\recording_micRespv1l4_2023-11-20_09h37.26.443.wav,232.9739864000585,,None,232.9739864000585,232.9739864000585,232.9739864000585,232.9739864000585,232.9739864000585,232.9739864000585,,,,,,070104,001,2023-11-20_09h33.41.917,REPSWITCH1_version1_list4,2022.2.4,143.89110281302615,
REPSWITCH1/PICTURE_646.png,tronco,type,darkblue,filler,1,F,2,4,4,1,Extra4,0,None,47,46,47,0,46,46,46,,,,,,,,,,,,,,,,,,,,,,,233.47405509999953,234.61310620000586,234.61310620000586,234.61310620000586,234.61310620000586,234.61310620000586,234.61310620000586,234.61310620000586,234.61310620000586,"['t', 'r', 'o', 'n', 'c', 'o']",0,"[0.8923005999531597, 1.0616945999208838, 1.2137382999062538, 1.4313067998737097, 1.5277036998886615, 2.1865314999595284]",tronco,C:\2023\REPSWITCH21092023\REPSWITCH_excgange\REPSWITCH_excgange\data/070104_REPSWITCH1_version1_list4_2023-11-20_09h33.41.917_micRespv1l4_recorded\recording_micRespv1l4_2023-11-20_09h37.31.110.wav,237.64127580006607,238.1413342000451,None,237.64127580006607,237.64127580006607,237.64127580006607,237.64127580006607,237.64127580006607,237.64127580006607,,,,,,070104,001,2023-11-20_09h33.41.917,REPSWITCH1_version1_list4,2022.2.4,143.89110281302615,
REPSWITCH1/PICTURE_16.png,cazador,speak,gold,filler,2,F,2,4,4,1,Stim6_Set1,0,None,48,47,48,0,47,47,47,,,,,,,,,,,,,,,,,,,,,,,238.1413342000451,239.23180909990333,239.23180909990333,239.23180909990333,239.23180909990333,239.23180909990333,239.23180909990333,239.23180909990333,239.23180909990333,None,0,,,C:\2023\REPSWITCH21092023\REPSWITCH_excgange\REPSWITCH_excgange\data/070104_REPSWITCH1_version1_list4_2023-11-20_09h33.41.917_micRespv1l4_recorded\recording_micRespv1l4_2023-11-20_09h37.35.730.wav,242.25991940009408,,None,242.25991940009408,242.25991940009408,242.25991940009408,242.25991940009408,242.25991940009408,242.25991940009408,,,,,,070104,001,2023-11-20_09h33.41.917,REPSWITCH1_version1_list4,2022.2.4,143.89110281302615,
REPSWITCH1/PICTURE_175.png,pintor,speak,gold,nontarget,2,NT,2,4,4,1,Stim1_Set2,1,repeat,49,48,49,0,48,48,48,,,,,,,,,,,,,,,,,,,,,,,242.75999470008537,243.84347590012476,243.84347590012476,243.84347590012476,243.84347590012476,243.84347590012476,243.84347590012476,243.84347590012476,243.84347590012476,None,0,,,C:\2023\REPSWITCH21092023\REPSWITCH_excgange\REPSWITCH_excgange\data/070104_REPSWITCH1_version1_list4_2023-11-20_09h33.41.917_micRespv1l4_recorded\recording_micRespv1l4_2023-11-20_09h37.40.341.wav,246.871628300054,247.37167229992338,None,246.871628300054,246.871628300054,246.871628300054,246.871628300054,246.871628300054,246.871628300054,,,,,,070104,001,2023-11-20_09h33.41.917,REPSWITCH1_version1_list4,2022.2.4,143.89110281302615,
REPSWITCH1/PICTURE_175.png,pintor,type,darkblue,switch,1,T,2,4,4,1,Stim1_Set2,0,None,50,49,50,0,49,49,49,,,,,,,,,,,,,,,,,,,,,,,247.37167229992338,248.48989950004034,248.48989950004034,248.48989950004034,248.48989950004034,248.48989950004034,248.48989950004034,248.48989950004034,248.48989950004034,"['p', 'i', 'n', 't', 'o', 'r']",0,"[0.7838916999753565, 1.4083875000942498, 1.6017416000831872, 1.7094459999352694, 1.8222666999790817, 1.9471690999343991]",pintor,C:\2023\REPSWITCH21092023\REPSWITCH_excgange\REPSWITCH_excgange\data/070104_REPSWITCH1_version1_list4_2023-11-20_09h33.41.917_micRespv1l4_recorded\recording_micRespv1l4_2023-11-20_09h37.44.987.wav,251.51112379995175,252.01121219992638,None,251.51112379995175,251.51112379995175,251.51112379995175,251.51112379995175,251.51112379995175,251.51112379995175,,,,,,070104,001,2023-11-20_09h33.41.917,REPSWITCH1_version1_list4,2022.2.4,143.89110281302615,
REPSWITCH1/PICTURE_663.png,columna,speak,gold,filler,2,F,4,4,4,1,Extra6,0,None,51,50,51,0,50,50,50,,,,,,,,,,,,,,,,,,,,,,,252.01121219992638,253.1086343000643,253.1086343000643,253.1086343000643,253.1086343000643,253.1086343000643,253.1086343000643,253.1086343000643,253.1086343000643,None,0,,,C:\2023\REPSWITCH21092023\REPSWITCH_excgange\REPSWITCH_excgange\data/070104_REPSWITCH1_version1_list4_2023-11-20_09h33.41.917_micRespv1l4_recorded\recording_micRespv1l4_2023-11-20_09h37.49.605.wav,256.13671250012703,,space,256.13671250012703,256.13671250012703,256.13671250012703,256.13671250012703,256.13671250012703,256.13671250012703,256.63684600009583,256.63684600009583,2.5952991999220103,,,070104,001,2023-11-20_09h33.41.917,REPSWITCH1_version1_list4,2022.2.4,143.89110281302615,
REPSWITCH1/PICTURE_35.png,oreja,type,darkblue,nontarget,1,NT,3,4,4,1,Stim5_Set3,0,None,52,51,52,0,51,51,51,,,,,,,,,,,,,,,,,,,,,,,259.24130200012587,260.3386901000049,260.3386901000049,260.3386901000049,260.3386901000049,260.3386901000049,260.3386901000049,260.3386901000049,260.3386901000049,"['o', 'r', 'e', 'j', 'a']",0,"[1.0372279998846352, 1.1513096997514367, 1.2230632998980582, 1.347613499732688, 1.4951391997747123]",oreja,C:\2023\REPSWITCH21092023\REPSWITCH_excgange\REPSWITCH_excgange\data/070104_REPSWITCH1_version1_list4_2023-11-20_09h33.41.917_micRespv1l4_recorded\recording_micRespv1l4_2023-11-20_09h37.56.836.wav,263.3598758999724,263.85998450010084,None,263.3598758999724,263.3598758999724,263.3598758999724,263.3598758999724,263.3598758999724,263.3598758999724,,,,,,070104,001,2023-11-20_09h33.41.917,REPSWITCH1_version1_list4,2022.2.4,143.89110281302615,
REPSWITCH1/PICTURE_35.png,oreja,speak,gold,switch,2,T,3,4,4,1,Stim5_Set3,0,None,53,52,53,0,52,52,52,,,,,,,,,,,,,,,,,,,,,,,263.85998450010084,264.9156897999346,264.9156897999346,264.9156897999346,264.9156897999346,264.9156897999346,264.9156897999346,264.9156897999346,264.9156897999346,None,0,,,C:\2023\REPSWITCH21092023\REPSWITCH_excgange\REPSWITCH_excgange\data/070104_REPSWITCH1_version1_list4_2023-11-20_09h33.41.917_micRespv1l4_recorded\recording_micRespv1l4_2023-11-20_09h38.01.413.wav,267.93691310007125,268.4369693000335,None,267.93691310007125,267.93691310007125,267.93691310007125,267.93691310007125,267.93691310007125,267.93691310007125,,,,,,070104,001,2023-11-20_09h33.41.917,REPSWITCH1_version1_list4,2022.2.4,143.89110281302615,
REPSWITCH1/PICTURE_199.png,falda,speak,gold,filler,2,F,3,4,4,1,Stim8_Set2,0,None,54,53,54,0,53,53,53,,,,,,,,,,,,,,,,,,,,,,,268.4369693000335,269.6107381999027,269.6107381999027,269.6107381999027,269.6107381999027,269.6107381999027,269.6107381999027,269.6107381999027,269.6107381999027,None,0,,,C:\2023\REPSWITCH21092023\REPSWITCH_excgange\REPSWITCH_excgange\data/070104_REPSWITCH1_version1_list4_2023-11-20_09h33.41.917_micRespv1l4_recorded\recording_micRespv1l4_2023-11-20_09h38.06.108.wav,272.6388950000983,,None,272.6388950000983,272.6388950000983,272.6388950000983,272.6388950000983,272.6388950000983,272.6388950000983,,,,,,070104,001,2023-11-20_09h33.41.917,REPSWITCH1_version1_list4,2022.2.4,143.89110281302615,
REPSWITCH1/PICTURE_576.png,guante,speak,gold,nontarget,2,NT,3,4,4,1,Stim1_Set3,1,repeat,55,54,55,0,54,54,54,,,,,,,,,,,,,,,,,,,,,,,273.1389733001124,274.2224246999249,274.2224246999249,274.2224246999249,274.2224246999249,274.2224246999249,274.2224246999249,274.2224246999249,274.2224246999249,None,0,,,C:\2023\REPSWITCH21092023\REPSWITCH_excgange\REPSWITCH_excgange\data/070104_REPSWITCH1_version1_list4_2023-11-20_09h33.41.917_micRespv1l4_recorded\recording_micRespv1l4_2023-11-20_09h38.10.719.wav,277.2436480000615,277.7437154999934,None,277.2436480000615,277.2436480000615,277.2436480000615,277.2436480000615,277.2436480000615,277.2436480000615,,,,,,070104,001,2023-11-20_09h33.41.917,REPSWITCH1_version1_list4,2022.2.4,143.89110281302615,
REPSWITCH1/PICTURE_576.png,guante,type,darkblue,switch,1,T,3,4,4,1,Stim1_Set3,0,None,56,55,56,0,55,55,55,,,,,,,,,,,,,,,,,,,,,,,277.7437154999934,278.778615700081,278.778615700081,278.778615700081,278.778615700081,278.778615700081,278.778615700081,278.778615700081,278.778615700081,"['g', 'u', 'a', 'n', 't', 'e']",0,"[0.9206949998624623, 1.0771347999107093, 1.1870903000235558, 1.2957341999281198, 1.4887778998818249, 1.547577999997884]",guante,C:\2023\REPSWITCH21092023\REPSWITCH_excgange\REPSWITCH_excgange\data/070104_REPSWITCH1_version1_list4_2023-11-20_09h33.41.917_micRespv1l4_recorded\recording_micRespv1l4_2023-11-20_09h38.15.275.wav,281.799802799942,282.29989270004444,None,281.799802799942,281.799802799942,281.799802799942,281.799802799942,281.799802799942,281.799802799942,,,,,,070104,001,2023-11-20_09h33.41.917,REPSWITCH1_version1_list4,2022.2.4,143.89110281302615,
REPSWITCH1/PICTURE_517.png,cuerda,type,darkblue,filler,1,F,3,4,4,1,Stim4_Set2,1,repeat,57,56,57,0,56,56,56,,,,,,,,,,,,,,,,,,,,,,,282.29989270004444,283.4389482999686,283.4389482999686,283.4389482999686,283.4389482999686,283.4389482999686,283.4389482999686,283.4389482999686,283.4389482999686,"['c', 'u', 'e', 'r', 'd', 'a']",0,"[0.8592411996796727, 1.059587299823761, 1.1394183998927474, 1.2620383996982127, 1.508614899823442, 1.6623530997894704]",cuerda,C:\2023\REPSWITCH21092023\REPSWITCH_excgange\REPSWITCH_excgange\data/070104_REPSWITCH1_version1_list4_2023-11-20_09h33.41.917_micRespv1l4_recorded\recording_micRespv1l4_2023-11-20_09h38.19.936.wav,286.46709379996173,,None,286.46709379996173,286.46709379996173,286.46709379996173,286.46709379996173,286.46709379996173,286.46709379996173,,,,,,070104,001,2023-11-20_09h33.41.917,REPSWITCH1_version1_list4,2022.2.4,143.89110281302615,
REPSWITCH1/PICTURE_271.png,conejo,type,darkblue,nontarget,1,NT,3,4,4,1,Stim7_Set3,1,repeat,58,57,58,0,57,57,57,,,,,,,,,,,,,,,,,,,,,,,286.9671710000839,287.98122570011765,287.98122570011765,287.98122570011765,287.98122570011765,287.98122570011765,287.98122570011765,287.98122570011765,287.98122570011765,"['c', 'o', 'n', 'e', 'j', 'o']",0,"[1.0222027997951955, 1.1407616999931633, 1.341042899992317, 1.4157855999656022, 1.5686776998918504, 1.6554266000166535]",conejo,C:\2023\REPSWITCH21092023\REPSWITCH_excgange\REPSWITCH_excgange\data/070104_REPSWITCH1_version1_list4_2023-11-20_09h33.41.917_micRespv1l4_recorded\recording_micRespv1l4_2023-11-20_09h38.24.479.wav,291.00936420005746,291.50941830012016,None,291.00936420005746,291.00936420005746,291.00936420005746,291.00936420005746,291.00936420005746,291.00936420005746,,,,,,070104,001,2023-11-20_09h33.41.917,REPSWITCH1_version1_list4,2022.2.4,143.89110281302615,
REPSWITCH1/PICTURE_271.png,conejo,speak,gold,switch,2,T,3,4,4,1,Stim7_Set3,0,None,59,58,59,0,58,58,58,,,,,,,,,,,,,,,,,,,,,,,291.50941830012016,292.6484817999881,292.6484817999881,292.6484817999881,292.6484817999881,292.6484817999881,292.6484817999881,292.6484817999881,292.6484817999881,None,0,,,C:\2023\REPSWITCH21092023\REPSWITCH_excgange\REPSWITCH_excgange\data/070104_REPSWITCH1_version1_list4_2023-11-20_09h33.41.917_micRespv1l4_recorded\recording_micRespv1l4_2023-11-20_09h38.29.146.wav,295.669744099956,296.16980820009485,None,295.669744099956,295.669744099956,295.669744099956,295.669744099956,295.669744099956,295.669744099956,,,,,,070104,001,2023-11-20_09h33.41.917,REPSWITCH1_version1_list4,2022.2.4,143.89110281302615,
REPSWITCH1/PICTURE_552.png,manzana,type,darkblue,filler,1,F,3,4,4,1,Stim6_Set2,0,None,60,59,60,0,59,59,59,,,,,,,,,,,,,,,,,,,,,,,296.16980820009485,297.2115500001237,297.2115500001237,297.2115500001237,297.2115500001237,297.2115500001237,297.2115500001237,297.2115500001237,297.2115500001237,"['m', 'a', 'n', 'z', 'a', 'n', 'a']",0,"[1.7458264997694641, 1.8465502997860312, 1.9480030997656286, 2.0662330996710807, 2.222667799796909, 2.3163771997205913, 2.7260833997279406]",manzana,C:\2023\REPSWITCH21092023\REPSWITCH_excgange\REPSWITCH_excgange\data/070104_REPSWITCH1_version1_list4_2023-11-20_09h33.41.917_micRespv1l4_recorded\recording_micRespv1l4_2023-11-20_09h38.33.709.wav,300.23276540008374,300.7328363000415,None,300.23276540008374,300.23276540008374,300.23276540008374,300.23276540008374,300.23276540008374,300.23276540008374,,,,,,070104,001,2023-11-20_09h33.41.917,REPSWITCH1_version1_list4,2022.2.4,143.89110281302615,
REPSWITCH1/PICTURE_242.png,cartero,speak,gold,nontarget,2,NT,3,4,4,1,Stim3_Set3,1,switch,61,60,61,0,60,60,60,,,,,,,,,,,,,,,,,,,,,,,300.7328363000415,301.7885350000579,301.7885350000579,301.7885350000579,301.7885350000579,301.7885350000579,301.7885350000579,301.7885350000579,301.7885350000579,None,0,,,C:\2023\REPSWITCH21092023\REPSWITCH_excgange\REPSWITCH_excgange\data/070104_REPSWITCH1_version1_list4_2023-11-20_09h33.41.917_micRespv1l4_recorded\recording_micRespv1l4_2023-11-20_09h38.38.287.wav,304.8167036001105,305.31676400010474,None,304.8167036001105,304.8167036001105,304.8167036001105,304.8167036001105,304.8167036001105,304.8167036001105,,,,,,070104,001,2023-11-20_09h33.41.917,REPSWITCH1_version1_list4,2022.2.4,143.89110281302615,
REPSWITCH1/PICTURE_242.png,cartero,speak,gold,repeat,2,T,3,4,4,1,Stim3_Set3,0,None,62,61,62,0,61,61,61,,,,,,,,,,,,,,,,,,,,,,,305.31676400010474,306.3308095000684,306.3308095000684,306.3308095000684,306.3308095000684,306.3308095000684,306.3308095000684,306.3308095000684,306.3308095000684,None,0,,,C:\2023\REPSWITCH21092023\REPSWITCH_excgange\REPSWITCH_excgange\data/070104_REPSWITCH1_version1_list4_2023-11-20_09h33.41.917_micRespv1l4_recorded\recording_micRespv1l4_2023-11-20_09h38.42.827.wav,309.35200410010293,309.8521787999198,None,309.35200410010293,309.35200410010293,309.35200410010293,309.35200410010293,309.35200410010293,309.35200410010293,,,,,,070104,001,2023-11-20_09h33.41.917,REPSWITCH1_version1_list4,2022.2.4,143.89110281302615,
REPSWITCH1/PICTURE_152.png,caracol,speak,gold,filler,2,F,3,4,4,1,Stim2_Set2,0,None,63,62,63,0,62,62,62,,,,,,,,,,,,,,,,,,,,,,,309.8521787999198,310.9216782001313,310.9216782001313,310.9216782001313,310.9216782001313,310.9216782001313,310.9216782001313,310.9216782001313,310.9216782001313,None,0,,,C:\2023\REPSWITCH21092023\REPSWITCH_excgange\REPSWITCH_excgange\data/070104_REPSWITCH1_version1_list4_2023-11-20_09h33.41.917_micRespv1l4_recorded\recording_micRespv1l4_2023-11-20_09h38.47.419.wav,313.9428991000168,314.44298429996707,None,313.9428991000168,313.9428991000168,313.9428991000168,313.9428991000168,313.9428991000168,313.9428991000168,,,,,,070104,001,2023-11-20_09h33.41.917,REPSWITCH1_version1_list4,2022.2.4,143.89110281302615,
REPSWITCH1/PICTURE_446.png,cerdo,type,darkblue,filler,1,F,3,4,4,1,Stim7_Set2,1,switch,64,63,64,0,63,63,63,,,,,,,,,,,,,,,,,,,,,,,314.44298429996707,315.4778448001016,315.4778448001016,315.4778448001016,315.4778448001016,315.4778448001016,315.4778448001016,315.4778448001016,315.4778448001016,"['c', 'r', 'e', 'e', 'd', 'o', 'backspace', 'backspace', 'backspace', 'backspace', 'e', 'r', 'd', 'o']",0,"[0.7781404997222126, 1.0662145998794585, 1.0871290997602046, 1.1090600998140872, 1.2675433997064829, 1.3741865998599678, 1.947121299803257, 2.111807999899611, 2.243472599890083, 2.3639866998419166, 2.4795969997067004, 2.55335499974899, 2.7108248998411, 2.8622884997166693]",crerdo,C:\2023\REPSWITCH21092023\REPSWITCH_excgange\REPSWITCH_excgange\data/070104_REPSWITCH1_version1_list4_2023-11-20_09h33.41.917_micRespv1l4_recorded\recording_micRespv1l4_2023-11-20_09h38.51.975.wav,318.499041199917,318.9991347999312,None,318.499041199917,318.499041199917,318.499041199917,318.499041199917,318.499041199917,318.499041199917,,,,,,070104,001,2023-11-20_09h33.41.917,REPSWITCH1_version1_list4,2022.2.4,143.89110281302615,
REPSWITCH1/PICTURE_610.png,miel,speak,gold,nontarget,2,NT,3,4,4,1,Stim2_Set3,1,switch,65,64,65,0,64,64,64,,,,,,,,,,,,,,,,,,,,,,,318.9991347999312,320.0339748999104,320.0339748999104,320.0339748999104,320.0339748999104,320.0339748999104,320.0339748999104,320.0339748999104,320.0339748999104,None,0,,,C:\2023\REPSWITCH21092023\REPSWITCH_excgange\REPSWITCH_excgange\data/070104_REPSWITCH1_version1_list4_2023-11-20_09h33.41.917_micRespv1l4_recorded\recording_micRespv1l4_2023-11-20_09h38.56.531.wav,323.0552689000033,323.55529149994254,None,323.0552689000033,323.0552689000033,323.0552689000033,323.0552689000033,323.0552689000033,323.0552689000033,,,,,,070104,001,2023-11-20_09h33.41.917,REPSWITCH1_version1_list4,2022.2.4,143.89110281302615,
REPSWITCH1/PICTURE_610.png,miel,speak,gold,repeat,2,T,3,4,4,1,Stim2_Set3,0,None,66,65,66,0,65,65,65,,,,,,,,,,,,,,,,,,,,,,,323.55529149994254,324.64572930010036,324.64572930010036,324.64572930010036,324.64572930010036,324.64572930010036,324.64572930010036,324.64572930010036,324.64572930010036,None,0,,,C:\2023\REPSWITCH21092023\REPSWITCH_excgange\REPSWITCH_excgange\data/070104_REPSWITCH1_version1_list4_2023-11-20_09h33.41.917_micRespv1l4_recorded\recording_micRespv1l4_2023-11-20_09h39.01.143.wav,327.6738786001224,,None,327.6738786001224,327.6738786001224,327.6738786001224,327.6738786001224,327.6738786001224,327.6738786001224,,,,,,070104,001,2023-11-20_09h33.41.917,REPSWITCH1_version1_list4,2022.2.4,143.89110281302615,
REPSWITCH1/PICTURE_320.png,iglesia,speak,gold,nontarget,2,NT,3,4,4,1,Stim8_Set3,1,repeat,67,66,67,0,66,66,66,,,,,,,,,,,,,,,,,,,,,,,328.1740216999315,329.31299980008043,329.31299980008043,329.31299980008043,329.31299980008043,329.31299980008043,329.31299980008043,329.31299980008043,329.31299980008043,None,0,,,C:\2023\REPSWITCH21092023\REPSWITCH_excgange\REPSWITCH_excgange\data/070104_REPSWITCH1_version1_list4_2023-11-20_09h33.41.917_micRespv1l4_recorded\recording_micRespv1l4_2023-11-20_09h39.05.811.wav,332.3411586000584,,None,332.3411586000584,332.3411586000584,332.3411586000584,332.3411586000584,332.3411586000584,332.3411586000584,,,,,,070104,001,2023-11-20_09h33.41.917,REPSWITCH1_version1_list4,2022.2.4,143.89110281302615,
REPSWITCH1/PICTURE_320.png,iglesia,type,darkblue,switch,1,T,3,4,4,1,Stim8_Set3,0,None,68,67,68,0,67,67,67,,,,,,,,,,,,,,,,,,,,,,,332.8412218999583,334.0774856999051,334.0774856999051,334.0774856999051,334.0774856999051,334.0774856999051,334.0774856999051,334.0774856999051,334.0774856999051,"['i', 'g', 'e', 'backspace', 'l', 'e', 'd', 's', 'i', 'backspace', 'backspace']",0,"[0.9610707999672741, 1.1932453999761492, 1.5724005999509245, 1.8744685999117792, 2.1017004000023007, 2.1624983998481184, 2.37280479981564, 2.3787798997946084, 2.439577099867165, 2.7844130999874324, 2.9199575998354703]",igled,C:\2023\REPSWITCH21092023\REPSWITCH_excgange\REPSWITCH_excgange\data/070104_REPSWITCH1_version1_list4_2023-11-20_09h33.41.917_micRespv1l4_recorded\recording_micRespv1l4_2023-11-20_09h39.10.574.wav,337.09876760002226,337.5988425000105,None,337.09876760002226,337.09876760002226,337.09876760002226,337.09876760002226,337.09876760002226,337.09876760002226,,,,,,070104,001,2023-11-20_09h33.41.917,REPSWITCH1_version1_list4,2022.2.4,143.89110281302615,
REPSWITCH1/PICTURE_30.png,granja,speak,gold,filler,2,F,3,4,4,1,Stim5_Set2,0,None,69,68,69,0,68,68,68,,,,,,,,,,,,,,,,,,,,,,,337.5988425000105,338.6544643000234,338.6544643000234,338.6544643000234,338.6544643000234,338.6544643000234,338.6544643000234,338.6544643000234,338.6544643000234,None,0,,,C:\2023\REPSWITCH21092023\REPSWITCH_excgange\REPSWITCH_excgange\data/070104_REPSWITCH1_version1_list4_2023-11-20_09h33.41.917_micRespv1l4_recorded\recording_micRespv1l4_2023-11-20_09h39.15.152.wav,341.6826639000792,,None,341.6826639000792,341.6826639000792,341.6826639000792,341.6826639000792,341.6826639000792,341.6826639000792,,,,,,070104,001,2023-11-20_09h33.41.917,REPSWITCH1_version1_list4,2022.2.4,143.89110281302615,
REPSWITCH1/PICTURE_264.png,mano,type,darkblue,filler,1,F,3,4,4,1,Stim3_Set2,0,None,70,69,70,0,69,69,69,,,,,,,,,,,,,,,,,,,,,,,342.1827017001342,343.2870213999413,343.2870213999413,343.2870213999413,343.2870213999413,343.2870213999413,343.2870213999413,343.2870213999413,343.2870213999413,"['m', 'a', 'n', 'o']",0,"[0.79325499990955, 0.8719848997425288, 0.9600657997652888, 1.114543599775061]",mano,C:\2023\REPSWITCH21092023\REPSWITCH_excgange\REPSWITCH_excgange\data/070104_REPSWITCH1_version1_list4_2023-11-20_09h33.41.917_micRespv1l4_recorded\recording_micRespv1l4_2023-11-20_09h39.19.783.wav,346.30833050003275,346.8083311000373,None,346.30833050003275,346.30833050003275,346.30833050003275,346.30833050003275,346.30833050003275,346.30833050003275,,,,,,070104,001,2023-11-20_09h33.41.917,REPSWITCH1_version1_list4,2022.2.4,143.89110281302615,
REPSWITCH1/PICTURE_464.png,goma,type,darkblue,nontarget,1,NT,3,4,4,1,Stim6_Set3,0,None,71,70,71,0,70,70,70,,,,,,,,,,,,,,,,,,,,,,,346.8083311000373,347.89179709996097,347.89179709996097,347.89179709996097,347.89179709996097,347.89179709996097,347.89179709996097,347.89179709996097,347.89179709996097,"['g', 'o', 'm', 'a']",0,"[1.0731902997940779, 1.136647299863398, 1.355007299920544, 1.4655942998360842]",goma,C:\2023\REPSWITCH21092023\REPSWITCH_excgange\REPSWITCH_excgange\data/070104_REPSWITCH1_version1_list4_2023-11-20_09h33.41.917_micRespv1l4_recorded\recording_micRespv1l4_2023-11-20_09h39.24.389.wav,350.9199832000304,,None,350.9199832000304,350.9199832000304,350.9199832000304,350.9199832000304,350.9199832000304,350.9199832000304,,,,,,070104,001,2023-11-20_09h33.41.917,REPSWITCH1_version1_list4,2022.2.4,143.89110281302615,
REPSWITCH1/PICTURE_464.png,goma,type,darkblue,repeat,1,T,3,4,4,1,Stim6_Set3,0,None,72,71,72,0,71,71,71,,,,,,,,,,,,,,,,,,,,,,,351.42004960007034,352.4479710001033,352.4479710001033,352.4479710001033,352.4479710001033,352.4479710001033,352.4479710001033,352.4479710001033,352.4479710001033,"['g', 'o', 'm', 'a']",0,"[0.7391292999964207, 0.8827190999872983, 1.065069600008428, 1.1567610998172313]",goma,C:\2023\REPSWITCH21092023\REPSWITCH_excgange\REPSWITCH_excgange\data/070104_REPSWITCH1_version1_list4_2023-11-20_09h33.41.917_micRespv1l4_recorded\recording_micRespv1l4_2023-11-20_09h39.28.945.wav,355.4691872000694,355.96925360010937,None,355.4691872000694,355.4691872000694,355.4691872000694,355.4691872000694,355.4691872000694,355.4691872000694,,,,,,070104,001,2023-11-20_09h33.41.917,REPSWITCH1_version1_list4,2022.2.4,143.89110281302615,
REPSWITCH1/PICTURE_175.png,pintor,speak,gold,filler,2,F,3,4,4,1,Stim1_Set2,0,None,73,72,73,0,72,72,72,,,,,,,,,,,,,,,,,,,,,,,355.96925360010937,357.04583889991045,357.04583889991045,357.04583889991045,357.04583889991045,357.04583889991045,357.04583889991045,357.04583889991045,357.04583889991045,None,0,,,C:\2023\REPSWITCH21092023\REPSWITCH_excgange\REPSWITCH_excgange\data/070104_REPSWITCH1_version1_list4_2023-11-20_09h33.41.917_micRespv1l4_recorded\recording_micRespv1l4_2023-11-20_09h39.33.543.wav,360.066975499969,360.5670747999102,None,360.066975499969,360.066975499969,360.066975499969,360.066975499969,360.066975499969,360.066975499969,,,,,,070104,001,2023-11-20_09h33.41.917,REPSWITCH1_version1_list4,2022.2.4,143.89110281302615,
REPSWITCH1/PICTURE_235.png,aguja,type,darkblue,nontarget,1,NT,3,4,4,1,Stim4_Set3,1,switch,74,73,74,0,73,73,73,,,,,,,,,,,,,,,,,,,,,,,360.5670747999102,361.8034274999518,361.8034274999518,361.8034274999518,361.8034274999518,361.8034274999518,361.8034274999518,361.8034274999518,361.8034274999518,"['a', 'g', 'u', 'j', 'a']",0,"[0.8877574999351054, 1.7523838998749852, 1.8809616998769343, 2.336444899905473, 2.4412992999423295]",aguja,C:\2023\REPSWITCH21092023\REPSWITCH_excgange\REPSWITCH_excgange\data/070104_REPSWITCH1_version1_list4_2023-11-20_09h33.41.917_micRespv1l4_recorded\recording_micRespv1l4_2023-11-20_09h39.38.301.wav,364.83151390007697,,None,364.83151390007697,364.83151390007697,364.83151390007697,364.83151390007697,364.83151390007697,364.83151390007697,,,,,,070104,001,2023-11-20_09h33.41.917,REPSWITCH1_version1_list4,2022.2.4,143.89110281302615,
REPSWITCH1/PICTURE_235.png,aguja,type,darkblue,repeat,1,T,3,4,4,1,Stim4_Set3,0,None,75,74,75,0,74,74,74,,,,,,,,,,,,,,,,,,,,,,,365.3315596000757,366.53314790013246,366.53314790013246,366.53314790013246,366.53314790013246,366.53314790013246,366.53314790013246,366.53314790013246,366.53314790013246,"['a', 'g', 'u', 'j', 'a']",0,"[0.7773071997798979, 0.9307339999359101, 1.1074488998856395, 1.3157404998783022, 1.4074084998574108]",aguja,C:\2023\REPSWITCH21092023\REPSWITCH_excgange\REPSWITCH_excgange\data/070104_REPSWITCH1_version1_list4_2023-11-20_09h33.41.917_micRespv1l4_recorded\recording_micRespv1l4_2023-11-20_09h39.43.030.wav,369.5543438999448,370.05442710011266,None,369.5543438999448,369.5543438999448,369.5543438999448,369.5543438999448,369.5543438999448,369.5543438999448,,,,,,070104,001,2023-11-20_09h33.41.917,REPSWITCH1_version1_list4,2022.2.4,143.89110281302615,
REPSWITCH1/PICTURE_576.png,guante,type,darkblue,filler,1,F,4,4,4,1,Stim1_Set3,1,repeat,76,75,76,0,75,75,75,,,,,,,,,,,,,,,,,,,,,,,370.05442710011266,371.22128130006604,371.22128130006604,371.22128130006604,371.22128130006604,371.22128130006604,371.22128130006604,371.22128130006604,371.22128130006604,"['g', 'u', 'a', 'n', 't', 'e']",0,"[0.8379037999548018, 1.035217999946326, 1.1758045998867601, 1.2999609999824315, 1.5112002999521792, 1.5959175999742001]",guante,C:\2023\REPSWITCH21092023\REPSWITCH_excgange\REPSWITCH_excgange\data/070104_REPSWITCH1_version1_list4_2023-11-20_09h33.41.917_micRespv1l4_recorded\recording_micRespv1l4_2023-11-20_09h39.47.718.wav,374.2425226001069,374.74253950011916,None,374.2425226001069,374.2425226001069,374.2425226001069,374.2425226001069,374.2425226001069,374.2425226001069,,,,,,070104,001,2023-11-20_09h33.41.917,REPSWITCH1_version1_list4,2022.2.4,143.89110281302615,
REPSWITCH1/PICTURE_340.png,espejo,speak,gold,filler,2,F,4,4,4,1,Extra1,0,None,77,76,77,0,76,76,76,,,,,,,,,,,,,,,,,,,,,,,374.74253950011916,375.8399692000821,375.8399692000821,375.8399692000821,375.8399692000821,375.8399692000821,375.8399692000821,375.8399692000821,375.8399692000821,None,0,,,C:\2023\REPSWITCH21092023\REPSWITCH_excgange\REPSWITCH_excgange\data/070104_REPSWITCH1_version1_list4_2023-11-20_09h33.41.917_micRespv1l4_recorded\recording_micRespv1l4_2023-11-20_09h39.52.337.wav,378.8681626999751,,None,378.8681626999751,378.8681626999751,378.8681626999751,378.8681626999751,378.8681626999751,378.8681626999751,,,,,,070104,001,2023-11-20_09h33.41.917,REPSWITCH1_version1_list4,2022.2.4,143.89110281302615,
REPSWITCH1/PICTURE_464.png,goma,speak,gold,filler,2,F,4,4,4,1,Stim6_Set3,1,repeat,78,77,78,0,77,77,77,,,,,,,,,,,,,,,,,,,,,,,379.36815190012567,380.52109359996393,380.52109359996393,380.52109359996393,380.52109359996393,380.52109359996393,380.52109359996393,380.52109359996393,380.52109359996393,None,0,,,C:\2023\REPSWITCH21092023\REPSWITCH_excgange\REPSWITCH_excgange\data/070104_REPSWITCH1_version1_list4_2023-11-20_09h33.41.917_micRespv1l4_recorded\recording_micRespv1l4_2023-11-20_09h39.57.019.wav,383.54226880008355,384.04237310006283,None,383.54226880008355,383.54226880008355,383.54226880008355,383.54226880008355,383.54226880008355,383.54226880008355,,,,,,070104,001,2023-11-20_09h33.41.917,REPSWITCH1_version1_list4,2022.2.4,143.89110281302615,
REPSWITCH1/PICTURE_338.png,regalo,type,darkblue,nontarget,1,NT,4,4,4,1,Stim6_Set4,0,None,79,78,79,0,78,78,78,,,,,,,,,,,,,,,,,,,,,,,384.04237310006283,385.09110180009156,385.09110180009156,385.09110180009156,385.09110180009156,385.09110180009156,385.09110180009156,385.09110180009156,385.09110180009156,"['r', 'e', 'g', 'a', 'l', 'o']",0,"[0.818536999868229, 0.8994350000284612, 1.2021828999277204, 1.4760946000460535, 1.5728869999293238, 1.7458083999808878]",regalo,C:\2023\REPSWITCH21092023\REPSWITCH_excgange\REPSWITCH_excgange\data/070104_REPSWITCH1_version1_list4_2023-11-20_09h33.41.917_micRespv1l4_recorded\recording_micRespv1l4_2023-11-20_09h40.01.588.wav,388.11934869992547,,None,388.11934869992547,388.11934869992547,388.11934869992547,388.11934869992547,388.11934869992547,388.11934869992547,,,,,,070104,001,2023-11-20_09h33.41.917,REPSWITCH1_version1_list4,2022.2.4,143.89110281302615,
REPSWITCH1/PICTURE_338.png,regalo,type,darkblue,repeat,1,T,4,4,4,1,Stim6_Set4,0,None,80,79,80,0,79,79,79,,,,,,,,,,,,,,,,,,,,,,,388.6193435001187,389.7306355999317,389.7306355999317,389.7306355999317,389.7306355999317,389.7306355999317,389.7306355999317,389.7306355999317,389.7306355999317,"['r', 'e', 'g', 'a', 'l', 'o']",0,"[1.18435849994421, 1.2431194998789579, 1.5840929998084903, 1.7895892998203635, 1.9878796997945756, 2.141692099859938]",regalo,C:\2023\REPSWITCH21092023\REPSWITCH_excgange\REPSWITCH_excgange\data/070104_REPSWITCH1_version1_list4_2023-11-20_09h33.41.917_micRespv1l4_recorded\recording_micRespv1l4_2023-11-20_09h40.06.228.wav,392.75876779993996,,None,392.75876779993996,392.75876779993996,392.75876779993996,392.75876779993996,392.75876779993996,392.75876779993996,,,,,,070104,001,2023-11-20_09h33.41.917,REPSWITCH1_version1_list4,2022.2.4,143.89110281302615,
REPSWITCH1/PICTURE_8.png,pierna,type,darkblue,nontarget,1,NT,4,4,4,1,Stim3_Set4,1,repeat,81,80,81,0,80,80,80,,,,,,,,,,,,,,,,,,,,,,,393.25885559991,394.34934430010617,394.34934430010617,394.34934430010617,394.34934430010617,394.34934430010617,394.34934430010617,394.34934430010617,394.34934430010617,"['p', 'i', 'e', 'r', 'n', 'a']",0,"[0.9084153999574482, 1.142894399818033, 1.1946935998275876, 1.2515274998731911, 1.3920654999092221, 1.503685100004077]",pierna,C:\2023\REPSWITCH21092023\REPSWITCH_excgange\REPSWITCH_excgange\data/070104_REPSWITCH1_version1_list4_2023-11-20_09h33.41.917_micRespv1l4_recorded\recording_micRespv1l4_2023-11-20_09h40.10.847.wav,397.3705466000829,397.8705515000038,None,397.3705466000829,397.3705466000829,397.3705466000829,397.3705466000829,397.3705466000829,397.3705466000829,,,,,,070104,001,2023-11-20_09h33.41.917,REPSWITCH1_version1_list4,2022.2.4,143.89110281302615,
REPSWITCH1/PICTURE_8.png,pierna,speak,gold,switch,2,T,4,4,4,1,Stim3_Set4,0,None,82,81,82,0,81,81,81,,,,,,,,,,,,,,,,,,,,,,,397.8705515000038,398.9748613999691,398.9748613999691,398.9748613999691,398.9748613999691,398.9748613999691,398.9748613999691,398.9748613999691,398.9748613999691,None,0,,,C:\2023\REPSWITCH21092023\REPSWITCH_excgange\REPSWITCH_excgange\data/070104_REPSWITCH1_version1_list4_2023-11-20_09h33.41.917_micRespv1l4_recorded\recording_micRespv1l4_2023-11-20_09h40.15.471.wav,401.9961339000147,402.49624489992857,None,401.9961339000147,401.9961339000147,401.9961339000147,401.9961339000147,401.9961339000147,401.9961339000147,,,,,,070104,001,2023-11-20_09h33.41.917,REPSWITCH1_version1_list4,2022.2.4,143.89110281302615,
REPSWITCH1/PICTURE_271.png,conejo,type,darkblue,filler,1,F,4,4,4,1,Stim7_Set3,0,None,83,82,83,0,82,82,82,,,,,,,,,,,,,,,,,,,,,,,402.49624489992857,403.5310462999623,403.5310462999623,403.5310462999623,403.5310462999623,403.5310462999623,403.5310462999623,403.5310462999623,403.5310462999623,"['c', 'o', 'n', 'e', 'j', 'o']",0,"[0.7722312998957932, 1.0859246999025345, 1.309271999867633, 1.407548899995163, 1.5139343000482768, 1.6255276000592858]",conejo,C:\2023\REPSWITCH21092023\REPSWITCH_excgange\REPSWITCH_excgange\data/070104_REPSWITCH1_version1_list4_2023-11-20_09h33.41.917_micRespv1l4_recorded\recording_micRespv1l4_2023-11-20_09h40.20.029.wav,406.5592124001123,,None,406.5592124001123,406.5592124001123,406.5592124001123,406.5592124001123,406.5592124001123,406.5592124001123,,,,,,070104,001,2023-11-20_09h33.41.917,REPSWITCH1_version1_list4,2022.2.4,143.89110281302615,
REPSWITCH1/PICTURE_687.png,camisa,speak,gold,nontarget,2,NT,4,4,4,1,Stim5_Set4,1,switch,84,83,84,0,83,83,83,,,,,,,,,,,,,,,,,,,,,,,407.05927410000004,408.1288449000567,408.1288449000567,408.1288449000567,408.1288449000567,408.1288449000567,408.1288449000567,408.1288449000567,408.1288449000567,None,0,,,C:\2023\REPSWITCH21092023\REPSWITCH_excgange\REPSWITCH_excgange\data/070104_REPSWITCH1_version1_list4_2023-11-20_09h33.41.917_micRespv1l4_recorded\recording_micRespv1l4_2023-11-20_09h40.24.625.wav,411.1500647999346,411.6501518001314,None,411.1500647999346,411.1500647999346,411.1500647999346,411.1500647999346,411.1500647999346,411.1500647999346,,,,,,070104,001,2023-11-20_09h33.41.917,REPSWITCH1_version1_list4,2022.2.4,143.89110281302615,
REPSWITCH1/PICTURE_687.png,camisa,speak,gold,repeat,2,T,4,4,4,1,Stim5_Set4,0,None,85,84,85,0,84,84,84,,,,,,,,,,,,,,,,,,,,,,,411.6501518001314,412.7822324000299,412.7822324000299,412.7822324000299,412.7822324000299,412.7822324000299,412.7822324000299,412.7822324000299,412.7822324000299,None,0,,,C:\2023\REPSWITCH21092023\REPSWITCH_excgange\REPSWITCH_excgange\data/070104_REPSWITCH1_version1_list4_2023-11-20_09h33.41.917_micRespv1l4_recorded\recording_micRespv1l4_2023-11-20_09h40.29.279.wav,415.803545899922,416.30353370006196,None,415.803545899922,415.803545899922,415.803545899922,415.803545899922,415.803545899922,415.803545899922,,,,,,070104,001,2023-11-20_09h33.41.917,REPSWITCH1_version1_list4,2022.2.4,143.89110281302615,
REPSWITCH1/PICTURE_319.png,vaca,speak,gold,nontarget,2,NT,4,4,4,1,Stim1_Set4,0,None,86,85,86,0,85,85,85,,,,,,,,,,,,,,,,,,,,,,,416.30353370006196,417.34534360002726,417.34534360002726,417.34534360002726,417.34534360002726,417.34534360002726,417.34534360002726,417.34534360002726,417.34534360002726,None,0,,,C:\2023\REPSWITCH21092023\REPSWITCH_excgange\REPSWITCH_excgange\data/070104_REPSWITCH1_version1_list4_2023-11-20_09h33.41.917_micRespv1l4_recorded\recording_micRespv1l4_2023-11-20_09h40.33.842.wav,420.36654910002835,420.8666103000287,None,420.36654910002835,420.36654910002835,420.36654910002835,420.36654910002835,420.36654910002835,420.36654910002835,,,,,,070104,001,2023-11-20_09h33.41.917,REPSWITCH1_version1_list4,2022.2.4,143.89110281302615,
REPSWITCH1/PICTURE_319.png,vaca,type,darkblue,switch,1,T,4,4,4,1,Stim1_Set4,0,None,87,86,87,0,86,86,86,,,,,,,,,,,,,,,,,,,,,,,420.8666103000287,422.04046600009315,422.04046600009315,422.04046600009315,422.04046600009315,422.04046600009315,422.04046600009315,422.04046600009315,422.04046600009315,"['v', 'a', 'c', 'a']",0,"[0.7876146999187768, 0.906234199879691, 0.9830209999345243, 1.2763117998838425]",vaca,C:\2023\REPSWITCH21092023\REPSWITCH_excgange\REPSWITCH_excgange\data/070104_REPSWITCH1_version1_list4_2023-11-20_09h33.41.917_micRespv1l4_recorded\recording_micRespv1l4_2023-11-20_09h40.38.537.wav,425.06159349996597,425.56165640009567,None,425.06159349996597,425.06159349996597,425.06159349996597,425.06159349996597,425.06159349996597,425.06159349996597,,,,,,070104,001,2023-11-20_09h33.41.917,REPSWITCH1_version1_list4,2022.2.4,143.89110281302615,
REPSWITCH1/PICTURE_242.png,cartero,speak,gold,filler,2,F,4,4,4,1,Stim3_Set3,0,None,88,87,88,0,87,87,87,,,,,,,,,,,,,,,,,,,,,,,425.56165640009567,426.6729349999223,426.6729349999223,426.6729349999223,426.6729349999223,426.6729349999223,426.6729349999223,426.6729349999223,426.6729349999223,None,0,,,C:\2023\REPSWITCH21092023\REPSWITCH_excgange\REPSWITCH_excgange\data/070104_REPSWITCH1_version1_list4_2023-11-20_09h33.41.917_micRespv1l4_recorded\recording_micRespv1l4_2023-11-20_09h40.43.170.wav,429.6942233000882,430.1942430001218,None,429.6942233000882,429.6942233000882,429.6942233000882,429.6942233000882,429.6942233000882,429.6942233000882,,,,,,070104,001,2023-11-20_09h33.41.917,REPSWITCH1_version1_list4,2022.2.4,143.89110281302615,
REPSWITCH1/PICTURE_498.png,taza,type,darkblue,nontarget,1,NT,4,4,4,1,Stim4_Set4,1,switch,89,88,89,0,88,88,88,,,,,,,,,,,,,,,,,,,,,,,430.1942430001218,431.2568697000388,431.2568697000388,431.2568697000388,431.2568697000388,431.2568697000388,431.2568697000388,431.2568697000388,431.2568697000388,"['t', 'a', 'z', 'a']",0,"[0.9509331998415291, 0.9997629998251796, 1.356759199872613, 1.4892980998847634]",taza,C:\2023\REPSWITCH21092023\REPSWITCH_excgange\REPSWITCH_excgange\data/070104_REPSWITCH1_version1_list4_2023-11-20_09h33.41.917_micRespv1l4_recorded\recording_micRespv1l4_2023-11-20_09h40.47.754.wav,434.27808670001104,434.7781805000268,None,434.27808670001104,434.27808670001104,434.27808670001104,434.27808670001104,434.27808670001104,434.27808670001104,,,,,,070104,001,2023-11-20_09h33.41.917,REPSWITCH1_version1_list4,2022.2.4,143.89110281302615,
REPSWITCH1/PICTURE_498.png,taza,speak,gold,switch,2,T,4,4,4,1,Stim4_Set4,0,None,90,89,90,0,89,89,89,,,,,,,,,,,,,,,,,,,,,,,434.7781805000268,435.86860539996997,435.86860539996997,435.86860539996997,435.86860539996997,435.86860539996997,435.86860539996997,435.86860539996997,435.86860539996997,None,0,,,C:\2023\REPSWITCH21092023\REPSWITCH_excgange\REPSWITCH_excgange\data/070104_REPSWITCH1_version1_list4_2023-11-20_09h33.41.917_micRespv1l4_recorded\recording_micRespv1l4_2023-11-20_09h40.52.366.wav,438.8898348000366,439.38988199993037,None,438.8898348000366,438.8898348000366,438.8898348000366,438.8898348000366,438.8898348000366,438.8898348000366,,,,,,070104,001,2023-11-20_09h33.41.917,REPSWITCH1_version1_list4,2022.2.4,143.89110281302615,
REPSWITCH1/PICTURE_391.png,cadena,type,darkblue,filler,1,F,4,4,4,1,Extra2,0,None,91,90,91,0,90,90,90,,,,,,,,,,,,,,,,,,,,,,,439.38988199993037,440.4456406000536,440.4456406000536,440.4456406000536,440.4456406000536,440.4456406000536,440.4456406000536,440.4456406000536,440.4456406000536,"['c', 'a', 'd', 'e', 'n', 'a']",0,"[0.9694058999884874, 1.2268745999317616, 1.3786293000448495, 1.505655099870637, 1.5993470998946577, 1.702353399945423]",cadena,C:\2023\REPSWITCH21092023\REPSWITCH_excgange\REPSWITCH_excgange\data/070104_REPSWITCH1_version1_list4_2023-11-20_09h33.41.917_micRespv1l4_recorded\recording_micRespv1l4_2023-11-20_09h40.56.942.wav,443.4667839000467,443.9668769000564,None,443.4667839000467,443.4667839000467,443.4667839000467,443.4667839000467,443.4667839000467,443.4667839000467,,,,,,070104,001,2023-11-20_09h33.41.917,REPSWITCH1_version1_list4,2022.2.4,143.89110281302615,
REPSWITCH1/PICTURE_610.png,miel,speak,gold,filler,2,F,4,4,4,1,Stim2_Set3,0,None,92,91,92,0,91,91,91,,,,,,,,,,,,,,,,,,,,,,,443.9668769000564,445.0503406999633,445.0503406999633,445.0503406999633,445.0503406999633,445.0503406999633,445.0503406999633,445.0503406999633,445.0503406999633,None,0,,,C:\2023\REPSWITCH21092023\REPSWITCH_excgange\REPSWITCH_excgange\data/070104_REPSWITCH1_version1_list4_2023-11-20_09h33.41.917_micRespv1l4_recorded\recording_micRespv1l4_2023-11-20_09h41.01.548.wav,448.0785840000026,,None,448.0785840000026,448.0785840000026,448.0785840000026,448.0785840000026,448.0785840000026,448.0785840000026,,,,,,070104,001,2023-11-20_09h33.41.917,REPSWITCH1_version1_list4,2022.2.4,143.89110281302615,
REPSWITCH1/PICTURE_48.png,bombero,speak,gold,nontarget,2,NT,4,4,4,1,Stim7_Set4,1,repeat,93,92,93,0,92,92,92,,,,,,,,,,,,,,,,,,,,,,,448.5785610000603,449.6967821000144,449.6967821000144,449.6967821000144,449.6967821000144,449.6967821000144,449.6967821000144,449.6967821000144,449.6967821000144,None,0,,,C:\2023\REPSWITCH21092023\REPSWITCH_excgange\REPSWITCH_excgange\data/070104_REPSWITCH1_version1_list4_2023-11-20_09h33.41.917_micRespv1l4_recorded\recording_micRespv1l4_2023-11-20_09h41.06.194.wav,452.71804920001887,453.21809300011955,None,452.71804920001887,452.71804920001887,452.71804920001887,452.71804920001887,452.71804920001887,452.71804920001887,,,,,,070104,001,2023-11-20_09h33.41.917,REPSWITCH1_version1_list4,2022.2.4,143.89110281302615,
REPSWITCH1/PICTURE_48.png,bombero,speak,gold,repeat,2,T,4,4,4,1,Stim7_Set4,0,None,94,93,94,0,93,93,93,,,,,,,,,,,,,,,,,,,,,,,453.21809300011955,454.34324440010823,454.34324440010823,454.34324440010823,454.34324440010823,454.34324440010823,454.34324440010823,454.34324440010823,454.34324440010823,None,0,,,C:\2023\REPSWITCH21092023\REPSWITCH_excgange\REPSWITCH_excgange\data/070104_REPSWITCH1_version1_list4_2023-11-20_09h33.41.917_micRespv1l4_recorded\recording_micRespv1l4_2023-11-20_09h41.10.840.wav,457.3644727000501,457.86452200007625,None,457.3644727000501,457.3644727000501,457.3644727000501,457.3644727000501,457.3644727000501,457.3644727000501,,,,,,070104,001,2023-11-20_09h33.41.917,REPSWITCH1_version1_list4,2022.2.4,143.89110281302615,
REPSWITCH1/PICTURE_320.png,iglesia,type,darkblue,filler,1,F,4,4,4,1,Stim8_Set3,1,switch,95,94,95,0,94,94,94,,,,,,,,,,,,,,,,,,,,,,,457.86452200007625,458.8855596999638,458.8855596999638,458.8855596999638,458.8855596999638,458.8855596999638,458.8855596999638,458.8855596999638,458.8855596999638,"['i', 'g', 'l', 'e', 's', 'i', 'a']",0,"[0.8871899999212474, 1.094263699837029, 1.5504200998693705, 1.6072269000578672, 1.835461099864915, 2.256762200035155, 2.3364335000514984]",iglesia,C:\2023\REPSWITCH21092023\REPSWITCH_excgange\REPSWITCH_excgange\data/070104_REPSWITCH1_version1_list4_2023-11-20_09h33.41.917_micRespv1l4_recorded\recording_micRespv1l4_2023-11-20_09h41.15.383.wav,461.9136512000114,,None,461.9136512000114,461.9136512000114,461.9136512000114,461.9136512000114,461.9136512000114,461.9136512000114,,,,,,070104,001,2023-11-20_09h33.41.917,REPSWITCH1_version1_list4,2022.2.4,143.89110281302615,
REPSWITCH1/PICTURE_35.png,oreja,speak,gold,filler,2,F,4,4,4,1,Stim5_Set3,0,None,96,95,96,0,95,95,95,,,,,,,,,,,,,,,,,,,,,,,462.4137927000411,463.50414470001124,463.50414470001124,463.50414470001124,463.50414470001124,463.50414470001124,463.50414470001124,463.50414470001124,463.50414470001124,None,0,,,C:\2023\REPSWITCH21092023\REPSWITCH_excgange\REPSWITCH_excgange\data/070104_REPSWITCH1_version1_list4_2023-11-20_09h33.41.917_micRespv1l4_recorded\recording_micRespv1l4_2023-11-20_09h41.20.002.wav,466.532339700032,,None,466.532339700032,466.532339700032,466.532339700032,466.532339700032,466.532339700032,466.532339700032,,,,,,070104,001,2023-11-20_09h33.41.917,REPSWITCH1_version1_list4,2022.2.4,143.89110281302615,
REPSWITCH1/PICTURE_728.png,pulpo,speak,gold,nontarget,2,NT,4,4,4,1,Stim8_Set4,1,repeat,97,96,97,0,96,96,96,,,,,,,,,,,,,,,,,,,,,,,467.0324732000008,468.10200219997205,468.10200219997205,468.10200219997205,468.10200219997205,468.10200219997205,468.10200219997205,468.10200219997205,468.10200219997205,None,0,,,C:\2023\REPSWITCH21092023\REPSWITCH_excgange\REPSWITCH_excgange\data/070104_REPSWITCH1_version1_list4_2023-11-20_09h33.41.917_micRespv1l4_recorded\recording_micRespv1l4_2023-11-20_09h41.24.599.wav,471.12320620007813,471.62334950012155,None,471.12320620007813,471.12320620007813,471.12320620007813,471.12320620007813,471.12320620007813,471.12320620007813,,,,,,070104,001,2023-11-20_09h33.41.917,REPSWITCH1_version1_list4,2022.2.4,143.89110281302615,
REPSWITCH1/PICTURE_728.png,pulpo,type,darkblue,switch,1,T,4,4,4,1,Stim8_Set4,0,None,98,97,98,0,97,97,97,,,,,,,,,,,,,,,,,,,,,,,471.62334950012155,472.6928528000135,472.6928528000135,472.6928528000135,472.6928528000135,472.6928528000135,472.6928528000135,472.6928528000135,472.6928528000135,"['p', 'u', 'l', 'p', 'o']",0,"[0.7458454999141395, 1.021881700027734, 1.2791716998908669, 1.6070795999839902, 1.708085399819538]",pulpo,C:\2023\REPSWITCH21092023\REPSWITCH_excgange\REPSWITCH_excgange\data/070104_REPSWITCH1_version1_list4_2023-11-20_09h33.41.917_micRespv1l4_recorded\recording_micRespv1l4_2023-11-20_09h41.29.190.wav,475.7140617999248,476.21414920012467,None,475.7140617999248,475.7140617999248,475.7140617999248,475.7140617999248,475.7140617999248,475.7140617999248,,,,,,070104,001,2023-11-20_09h33.41.917,REPSWITCH1_version1_list4,2022.2.4,143.89110281302615,
REPSWITCH1/PICTURE_590.png,escoba,speak,gold,filler,2,F,4,4,4,1,Extra3,0,None,99,98,99,0,98,98,98,,,,,,,,,,,,,,,,,,,,,,,476.21414920012467,477.3323894001078,477.3323894001078,477.3323894001078,477.3323894001078,477.3323894001078,477.3323894001078,477.3323894001078,477.3323894001078,None,0,,,C:\2023\REPSWITCH21092023\REPSWITCH_excgange\REPSWITCH_excgange\data/070104_REPSWITCH1_version1_list4_2023-11-20_09h33.41.917_micRespv1l4_recorded\recording_micRespv1l4_2023-11-20_09h41.33.830.wav,480.3605488000903,,None,480.3605488000903,480.3605488000903,480.3605488000903,480.3605488000903,480.3605488000903,480.3605488000903,,,,,,070104,001,2023-11-20_09h33.41.917,REPSWITCH1_version1_list4,2022.2.4,143.89110281302615,
REPSWITCH1/PICTURE_235.png,aguja,type,darkblue,filler,1,F,4,4,4,1,Stim4_Set3,0,None,100,99,100,0,99,99,99,,,,,,,,,,,,,,,,,,,,,,,480.86058209999464,482.0065999000799,482.0065999000799,482.0065999000799,482.0065999000799,482.0065999000799,482.0065999000799,482.0065999000799,482.0065999000799,"['a', 'g', 'u', 'a', 'backspace', 'j', 'a']",0,"[0.7824368998408318, 0.9937229000497609, 1.1714961000252515, 1.50538200000301, 2.024944100063294, 2.480772699927911, 2.5581696999724954]",aguja,C:\2023\REPSWITCH21092023\REPSWITCH_excgange\REPSWITCH_excgange\data/070104_REPSWITCH1_version1_list4_2023-11-20_09h33.41.917_micRespv1l4_recorded\recording_micRespv1l4_2023-11-20_09h41.38.503.wav,485.0278568000067,485.5278785000555,None,485.0278568000067,485.0278568000067,485.0278568000067,485.0278568000067,485.0278568000067,485.0278568000067,,,,,,070104,001,2023-11-20_09h33.41.917,REPSWITCH1_version1_list4,2022.2.4,143.89110281302615,
REPSWITCH1/PICTURE_719.png,baño,type,darkblue,nontarget,1,NT,4,4,4,1,Stim2_Set4,1,repeat,101,100,101,0,100,100,100,,,,,,,,,,,,,,,,,,,,,,,485.5278785000555,486.57660609995946,486.57660609995946,486.57660609995946,486.57660609995946,486.57660609995946,486.57660609995946,486.57660609995946,486.57660609995946,"['b', 'a', 'n', 'o']",0,"[0.8302535000257194, 1.0335558999795467, 1.4718953999690711, 1.9204200999811292]",bano,C:\2023\REPSWITCH21092023\REPSWITCH_excgange\REPSWITCH_excgange\data/070104_REPSWITCH1_version1_list4_2023-11-20_09h33.41.917_micRespv1l4_recorded\recording_micRespv1l4_2023-11-20_09h41.43.074.wav,489.60479720006697,,None,489.60479720006697,489.60479720006697,489.60479720006697,489.60479720006697,489.60479720006697,489.60479720006697,,,,,,070104,001,2023-11-20_09h33.41.917,REPSWITCH1_version1_list4,2022.2.4,143.89110281302615,
REPSWITCH1/PICTURE_719.png,baño,type,darkblue,repeat,1,T,4,4,4,1,Stim2_Set4,0,None,102,101,102,0,101,101,101,,,,,,,,,,,,,,,,,,,,,,,490.1048675000202,491.21615380002186,491.21615380002186,491.21615380002186,491.21615380002186,491.21615380002186,491.21615380002186,491.21615380002186,491.21615380002186,"['b', 'a', 'n', 'o']",0,"[0.9269390997942537, 1.162663099821657, 1.229452499654144, 1.4138260998297483]",bano,C:\2023\REPSWITCH21092023\REPSWITCH_excgange\REPSWITCH_excgange\data/070104_REPSWITCH1_version1_list4_2023-11-20_09h33.41.917_micRespv1l4_recorded\recording_micRespv1l4_2023-11-20_09h41.47.713.wav,494.237355499994,494.7374229999259,space,494.237355499994,494.237355499994,494.237355499994,494.237355499994,494.237355499994,494.237355499994,494.7374229999259,494.7374229999259,1.2171254998538643,,,070104,001,2023-11-20_09h33.41.917,REPSWITCH1_version1_list4,2022.2.4,143.89110281302615,
REPSWITCH1/PICTURE_646.png,tronco,speak,gold,filler,2,F,1,3,4,1,Extra4,0,None,103,102,1,0,102,102,102,,,,,,,,,,,,,,,,,,,,,,,495.9667058000341,497.0849697999656,497.0849697999656,497.0849697999656,497.0849697999656,497.0849697999656,497.0849697999656,497.0849697999656,497.0849697999656,None,0,,,C:\2023\REPSWITCH21092023\REPSWITCH_excgange\REPSWITCH_excgange\data/070104_REPSWITCH1_version1_list4_2023-11-20_09h33.41.917_micRespv1l4_recorded\recording_micRespv1l4_2023-11-20_09h41.53.582.wav,500.11318999994546,,None,500.11318999994546,500.11318999994546,500.11318999994546,500.11318999994546,500.11318999994546,500.11318999994546,,,,,,070104,001,2023-11-20_09h33.41.917,REPSWITCH1_version1_list4,2022.2.4,143.89110281302615,
REPSWITCH1/PICTURE_340.png,espejo,type,darkblue,filler,1,F,1,3,4,1,Extra1,0,None,104,103,2,0,103,103,103,,,,,,,,,,,,,,,,,,,,,,,500.61317369993776,501.7383179999888,501.7383179999888,501.7383179999888,501.7383179999888,501.7383179999888,501.7383179999888,501.7383179999888,501.7383179999888,"['e', 's', 'p', 'e', 'j', 'o']",0,"[0.6742565999738872, 0.8796057000290602, 1.0290929998736829, 1.1177912999410182, 1.424794299993664, 1.611238299869001]",espejo,C:\2023\REPSWITCH21092023\REPSWITCH_excgange\REPSWITCH_excgange\data/070104_REPSWITCH1_version1_list4_2023-11-20_09h33.41.917_micRespv1l4_recorded\recording_micRespv1l4_2023-11-20_09h41.58.235.wav,504.75959319993854,505.25960980006494,None,504.75959319993854,504.75959319993854,504.75959319993854,504.75959319993854,504.75959319993854,504.75959319993854,,,,,,070104,001,2023-11-20_09h33.41.917,REPSWITCH1_version1_list4,2022.2.4,143.89110281302615,
REPSWITCH1/PICTURE_338.png,regalo,speak,gold,filler,2,F,1,3,4,1,Stim6_Set4,0,None,105,104,3,0,104,104,104,,,,,,,,,,,,,,,,,,,,,,,505.25960980006494,506.39171619992703,506.39171619992703,506.39171619992703,506.39171619992703,506.39171619992703,506.39171619992703,506.39171619992703,506.39171619992703,None,0,,,C:\2023\REPSWITCH21092023\REPSWITCH_excgange\REPSWITCH_excgange\data/070104_REPSWITCH1_version1_list4_2023-11-20_09h33.41.917_micRespv1l4_recorded\recording_micRespv1l4_2023-11-20_09h42.02.888.wav,509.41292969998904,509.91301349992864,None,509.41292969998904,509.41292969998904,509.41292969998904,509.41292969998904,509.41292969998904,509.41292969998904,,,,,,070104,001,2023-11-20_09h33.41.917,REPSWITCH1_version1_list4,2022.2.4,143.89110281302615,
REPSWITCH1/PICTURE_142.png,vaso,speak,gold,nontarget,2,NT,1,3,4,1,Stim7_Set1,1,repeat,106,105,4,0,105,105,105,,,,,,,,,,,,,,,,,,,,,,,509.91301349992864,511.01735209999606,511.01735209999606,511.01735209999606,511.01735209999606,511.01735209999606,511.01735209999606,511.01735209999606,511.01735209999606,None,0,,,C:\2023\REPSWITCH21092023\REPSWITCH_excgange\REPSWITCH_excgange\data/070104_REPSWITCH1_version1_list4_2023-11-20_09h33.41.917_micRespv1l4_recorded\recording_micRespv1l4_2023-11-20_09h42.07.513.wav,514.0385360000655,514.5385960000567,None,514.0385360000655,514.0385360000655,514.0385360000655,514.0385360000655,514.0385360000655,514.0385360000655,,,,,,070104,001,2023-11-20_09h33.41.917,REPSWITCH1_version1_list4,2022.2.4,143.89110281302615,
REPSWITCH1/PICTURE_142.png,vaso,speak,gold,repeat,2,T,1,3,4,1,Stim7_Set1,0,None,107,106,5,0,106,106,106,,,,,,,,,,,,,,,,,,,,,,,514.5385960000567,515.5943801000249,515.5943801000249,515.5943801000249,515.5943801000249,515.5943801000249,515.5943801000249,515.5943801000249,515.5943801000249,None,0,,,C:\2023\REPSWITCH21092023\REPSWITCH_excgange\REPSWITCH_excgange\data/070104_REPSWITCH1_version1_list4_2023-11-20_09h33.41.917_micRespv1l4_recorded\recording_micRespv1l4_2023-11-20_09h42.12.091.wav,518.615523000015,519.1155930999666,None,518.615523000015,518.615523000015,518.615523000015,518.615523000015,518.615523000015,518.615523000015,,,,,,070104,001,2023-11-20_09h33.41.917,REPSWITCH1_version1_list4,2022.2.4,143.89110281302615,
REPSWITCH1/PICTURE_498.png,taza,type,darkblue,filler,1,F,1,3,4,1,Stim4_Set4,0,None,108,107,6,0,107,107,107,,,,,,,,,,,,,,,,,,,,,,,519.1155930999666,520.192125499947,520.192125499947,520.192125499947,520.192125499947,520.192125499947,520.192125499947,520.192125499947,520.192125499947,"['t', 'a', 'z', 'a']",0,"[0.9755537998862565, 1.0203275999519974, 1.2589618999045342, 1.4084193997550756]",taza,C:\2023\REPSWITCH21092023\REPSWITCH_excgange\REPSWITCH_excgange\data/070104_REPSWITCH1_version1_list4_2023-11-20_09h33.41.917_micRespv1l4_recorded\recording_micRespv1l4_2023-11-20_09h42.16.689.wav,523.2133295999374,523.7134366000537,None,523.2133295999374,523.2133295999374,523.2133295999374,523.2133295999374,523.2133295999374,523.2133295999374,,,,,,070104,001,2023-11-20_09h33.41.917,REPSWITCH1_version1_list4,2022.2.4,143.89110281302615,
REPSWITCH1/PICTURE_16.png,cazador,speak,gold,nontarget,2,NT,1,3,4,1,Stim6_Set1,1,switch,109,108,7,0,108,108,108,,,,,,,,,,,,,,,,,,,,,,,523.7134366000537,524.7760960001033,524.7760960001033,524.7760960001033,524.7760960001033,524.7760960001033,524.7760960001033,524.7760960001033,524.7760960001033,None,0,,,C:\2023\REPSWITCH21092023\REPSWITCH_excgange\REPSWITCH_excgange\data/070104_REPSWITCH1_version1_list4_2023-11-20_09h33.41.917_micRespv1l4_recorded\recording_micRespv1l4_2023-11-20_09h42.21.273.wav,527.7973350000102,528.2973688999191,None,527.7973350000102,527.7973350000102,527.7973350000102,527.7973350000102,527.7973350000102,527.7973350000102,,,,,,070104,001,2023-11-20_09h33.41.917,REPSWITCH1_version1_list4,2022.2.4,143.89110281302615,
REPSWITCH1/PICTURE_16.png,cazador,speak,gold,repeat,2,T,1,3,4,1,Stim6_Set1,0,None,110,109,8,0,109,109,109,,,,,,,,,,,,,,,,,,,,,,,528.2973688999191,529.4780671999324,529.4780671999324,529.4780671999324,529.4780671999324,529.4780671999324,529.4780671999324,529.4780671999324,529.4780671999324,None,0,,,C:\2023\REPSWITCH21092023\REPSWITCH_excgange\REPSWITCH_excgange\data/070104_REPSWITCH1_version1_list4_2023-11-20_09h33.41.917_micRespv1l4_recorded\recording_micRespv1l4_2023-11-20_09h42.25.975.wav,532.4992829000112,532.9993720001075,None,532.4992829000112,532.4992829000112,532.4992829000112,532.4992829000112,532.4992829000112,532.4992829000112,,,,,,070104,001,2023-11-20_09h33.41.917,REPSWITCH1_version1_list4,2022.2.4,143.89110281302615,
REPSWITCH1/PICTURE_719.png,baño,type,darkblue,filler,1,F,1,3,4,1,Stim2_Set4,0,None,111,110,9,0,110,110,110,,,,,,,,,,,,,,,,,,,,,,,532.9993720001075,534.0759302999359,534.0759302999359,534.0759302999359,534.0759302999359,534.0759302999359,534.0759302999359,534.0759302999359,534.0759302999359,"['b', 'a', 'n', 'o']",0,"[0.8133256998844445, 0.974752200068906, 1.0365526000969112, 1.2179689998738468]",bano,C:\2023\REPSWITCH21092023\REPSWITCH_excgange\REPSWITCH_excgange\data/070104_REPSWITCH1_version1_list4_2023-11-20_09h33.41.917_micRespv1l4_recorded\recording_micRespv1l4_2023-11-20_09h42.30.573.wav,537.1040797000751,,None,537.1040797000751,537.1040797000751,537.1040797000751,537.1040797000751,537.1040797000751,537.1040797000751,,,,,,070104,001,2023-11-20_09h33.41.917,REPSWITCH1_version1_list4,2022.2.4,143.89110281302615,
REPSWITCH1/PICTURE_169.png,espalda,speak,gold,nontarget,2,NT,1,3,4,1,Stim8_Set1,0,None,112,111,10,0,111,111,111,,,,,,,,,,,,,,,,,,,,,,,537.6041427000891,538.8056638999842,538.8056638999842,538.8056638999842,538.8056638999842,538.8056638999842,538.8056638999842,538.8056638999842,538.8056638999842,None,0,,,C:\2023\REPSWITCH21092023\REPSWITCH_excgange\REPSWITCH_excgange\data/070104_REPSWITCH1_version1_list4_2023-11-20_09h33.41.917_micRespv1l4_recorded\recording_micRespv1l4_2023-11-20_09h42.35.303.wav,541.8268820000812,542.3269732999615,None,541.8268820000812,541.8268820000812,541.8268820000812,541.8268820000812,541.8268820000812,541.8268820000812,,,,,,070104,001,2023-11-20_09h33.41.917,REPSWITCH1_version1_list4,2022.2.4,143.89110281302615,
REPSWITCH1/PICTURE_169.png,espalda,type,darkblue,switch,1,T,1,3,4,1,Stim8_Set1,0,None,113,112,11,0,112,112,112,,,,,,,,,,,,,,,,,,,,,,,542.3269732999615,543.4591260000598,543.4591260000598,543.4591260000598,543.4591260000598,543.4591260000598,543.4591260000598,543.4591260000598,543.4591260000598,"['e', 's', 'p', 'a', 'l', 'd', 'a']",0,"[0.7215601997449994, 0.9271497998852283, 1.1113541999366134, 1.235742799937725, 1.3265655997674912, 1.524825899861753, 1.752388599794358]",espalda,C:\2023\REPSWITCH21092023\REPSWITCH_excgange\REPSWITCH_excgange\data/070104_REPSWITCH1_version1_list4_2023-11-20_09h33.41.917_micRespv1l4_recorded\recording_micRespv1l4_2023-11-20_09h42.39.956.wav,546.4872528999113,,None,546.4872528999113,546.4872528999113,546.4872528999113,546.4872528999113,546.4872528999113,546.4872528999113,,,,,,070104,001,2023-11-20_09h33.41.917,REPSWITCH1_version1_list4,2022.2.4,143.89110281302615,
REPSWITCH1/PICTURE_687.png,camisa,type,darkblue,filler,1,F,1,3,4,1,Stim5_Set4,0,None,114,113,12,0,113,113,113,,,,,,,,,,,,,,,,,,,,,,,546.9873003000394,548.119435200002,548.119435200002,548.119435200002,548.119435200002,548.119435200002,548.119435200002,548.119435200002,548.119435200002,"['c', 'a', 'm', 'i', 's', 'a']",0,"[0.9722109998110682, 1.1810261998325586, 1.280715499771759, 1.3654338996857405, 1.4581201998516917, 1.5308736998122185]",camisa,C:\2023\REPSWITCH21092023\REPSWITCH_excgange\REPSWITCH_excgange\data/070104_REPSWITCH1_version1_list4_2023-11-20_09h33.41.917_micRespv1l4_recorded\recording_micRespv1l4_2023-11-20_09h42.44.616.wav,551.1406116001308,551.640676900046,None,551.1406116001308,551.1406116001308,551.1406116001308,551.1406116001308,551.1406116001308,551.1406116001308,,,,,,070104,001,2023-11-20_09h33.41.917,REPSWITCH1_version1_list4,2022.2.4,143.89110281302615,
REPSWITCH1/PICTURE_178.png,puente,type,darkblue,nontarget,1,NT,1,3,4,1,Stim1_Set1,1,repeat,115,114,13,0,114,114,114,,,,,,,,,,,,,,,,,,,,,,,551.640676900046,552.675620400114,552.675620400114,552.675620400114,552.675620400114,552.675620400114,552.675620400114,552.675620400114,552.675620400114,"['p', 'u', 'e', 'n', 't', 'e']",0,"[0.8664578997995704, 1.1493504997342825, 1.2579798998776823, 1.3426957996562123, 1.5553782996721566, 1.6579835996963084]",puente,C:\2023\REPSWITCH21092023\REPSWITCH_excgange\REPSWITCH_excgange\data/070104_REPSWITCH1_version1_list4_2023-11-20_09h33.41.917_micRespv1l4_recorded\recording_micRespv1l4_2023-11-20_09h42.49.173.wav,555.6967519000173,556.1968557001092,None,555.6967519000173,555.6967519000173,555.6967519000173,555.6967519000173,555.6967519000173,555.6967519000173,,,,,,070104,001,2023-11-20_09h33.41.917,REPSWITCH1_version1_list4,2022.2.4,143.89110281302615,
REPSWITCH1/PICTURE_178.png,puente,speak,gold,switch,2,T,1,3,4,1,Stim1_Set1,0,None,116,115,14,0,115,115,115,,,,,,,,,,,,,,,,,,,,,,,556.1968557001092,557.3081431000028,557.3081431000028,557.3081431000028,557.3081431000028,557.3081431000028,557.3081431000028,557.3081431000028,557.3081431000028,None,0,,,C:\2023\REPSWITCH21092023\REPSWITCH_excgange\REPSWITCH_excgange\data/070104_REPSWITCH1_version1_list4_2023-11-20_09h33.41.917_micRespv1l4_recorded\recording_micRespv1l4_2023-11-20_09h42.53.806.wav,560.3362881999929,,None,560.3362881999929,560.3362881999929,560.3362881999929,560.3362881999929,560.3362881999929,560.3362881999929,,,,,,070104,001,2023-11-20_09h33.41.917,REPSWITCH1_version1_list4,2022.2.4,143.89110281302615,
REPSWITCH1/PICTURE_128.png,muñeca,speak,gold,nontarget,2,NT,1,3,4,1,Stim4_Set1,1,repeat,117,116,15,0,116,116,116,,,,,,,,,,,,,,,,,,,,,,,560.8363326999824,561.9754169001244,561.9754169001244,561.9754169001244,561.9754169001244,561.9754169001244,561.9754169001244,561.9754169001244,561.9754169001244,None,0,,,C:\2023\REPSWITCH21092023\REPSWITCH_excgange\REPSWITCH_excgange\data/070104_REPSWITCH1_version1_list4_2023-11-20_09h33.41.917_micRespv1l4_recorded\recording_micRespv1l4_2023-11-20_09h42.58.473.wav,565.0035268000793,,None,565.0035268000793,565.0035268000793,565.0035268000793,565.0035268000793,565.0035268000793,565.0035268000793,,,,,,070104,001,2023-11-20_09h33.41.917,REPSWITCH1_version1_list4,2022.2.4,143.89110281302615,
REPSWITCH1/PICTURE_128.png,muñeca,type,darkblue,switch,1,T,1,3,4,1,Stim4_Set1,0,None,118,117,16,0,117,117,117,,,,,,,,,,,,,,,,,,,,,,,565.5035882000811,566.601007899968,566.601007899968,566.601007899968,566.601007899968,566.601007899968,566.601007899968,566.601007899968,566.601007899968,"['m', 'u', 'n', 'e', 'c', 'a']",0,"[0.826068599941209, 1.0273724000435323, 1.210040699923411, 1.461194299859926, 1.612908799899742, 1.7962924998719245]",muneca,C:\2023\REPSWITCH21092023\REPSWITCH_excgange\REPSWITCH_excgange\data/070104_REPSWITCH1_version1_list4_2023-11-20_09h33.41.917_micRespv1l4_recorded\recording_micRespv1l4_2023-11-20_09h43.03.098.wav,569.6222238000482,570.1223603000399,None,569.6222238000482,569.6222238000482,569.6222238000482,569.6222238000482,569.6222238000482,569.6222238000482,,,,,,070104,001,2023-11-20_09h33.41.917,REPSWITCH1_version1_list4,2022.2.4,143.89110281302615,
REPSWITCH1/PICTURE_319.png,vaca,speak,gold,filler,2,F,1,3,4,1,Stim1_Set4,1,switch,119,118,17,0,118,118,118,,,,,,,,,,,,,,,,,,,,,,,570.1223603000399,571.1919350000098,571.1919350000098,571.1919350000098,571.1919350000098,571.1919350000098,571.1919350000098,571.1919350000098,571.1919350000098,None,0,,,C:\2023\REPSWITCH21092023\REPSWITCH_excgange\REPSWITCH_excgange\data/070104_REPSWITCH1_version1_list4_2023-11-20_09h33.41.917_micRespv1l4_recorded\recording_micRespv1l4_2023-11-20_09h43.07.689.wav,574.2131018999498,574.7131561001297,None,574.2131018999498,574.2131018999498,574.2131018999498,574.2131018999498,574.2131018999498,574.2131018999498,,,,,,070104,001,2023-11-20_09h33.41.917,REPSWITCH1_version1_list4,2022.2.4,143.89110281302615,
REPSWITCH1/PICTURE_728.png,pulpo,speak,gold,filler,2,F,1,3,4,1,Stim8_Set4,0,None,120,119,18,0,119,119,119,,,,,,,,,,,,,,,,,,,,,,,574.7131561001297,575.7619197999593,575.7619197999593,575.7619197999593,575.7619197999593,575.7619197999593,575.7619197999593,575.7619197999593,575.7619197999593,None,0,,,C:\2023\REPSWITCH21092023\REPSWITCH_excgange\REPSWITCH_excgange\data/070104_REPSWITCH1_version1_list4_2023-11-20_09h33.41.917_micRespv1l4_recorded\recording_micRespv1l4_2023-11-20_09h43.12.259.wav,578.783162600128,579.2832055001054,None,578.783162600128,578.783162600128,578.783162600128,578.783162600128,578.783162600128,578.783162600128,,,,,,070104,001,2023-11-20_09h33.41.917,REPSWITCH1_version1_list4,2022.2.4,143.89110281302615,
