image;correctAns;respModal;frameColor;repSwitch;sequence;target;set;block;list;exp_version;stimulus;baseline;baseline_condition;trial_no;psychopy_trial;Column1;trialsREPSWITCH.thisRepN;trialsREPSWITCH.thisTrialN;trialsREPSWITCH.thisN;trialsREPSWITCH.thisIndex;textWelcome.started;textboxInstrMain1.started;textboxInstrMain1_2.started;textboxInstrMain1_3.started;keyInstrMain.started;keyInstrMain.keys;keyInstrMain.rt;textboxInstrMain2.started;textboxInstrMain2_2.started;textboxInstrMain2_3.started;textboxInstrMain2_4.started;textboxInstrMain2_5.started;textboxInstrMain2_6.started;textboxInstrMain2_7.started;textboxInstrMain2_8.started;textboxInstrMain2_9.started;textboxInstrMain2_10.started;textboxInstrMain2_11.started;textboxInstrMain2_12.started;keyInstrMain2.started;keyInstrMain2.keys;keyInstrMain2.rt;fixationITI.started;fixationITI.stopped;polygonColour.started;polygonWhite.started;imageObject.started;polygonType.started;textInput.started;keyResp.started;micRespv1l1.started;keyResp.keys;keyResp.corr;keyResp.rt;subjResponse;micRespv1l1.clip;textBlankLoop.started;textBlankLoop.stopped;keyPause.keys;polygonColour.stopped;polygonWhite.stopped;imageObject.stopped;polygonType.stopped;textInput.stopped;keyResp.stopped;textboxPause.started;keyPause.started;keyPause.rt;textboxGoodbye.started;textboxGoodbye.stopped;participant;session;date;expName;psychopyVersion;frameRate
;;;;;;;;;;;;;;;;;;;;;11.2468019;13.7457098;13.7457098;13.7457098;13.7457098;space;3.0203997;;;;;;;;;;;;;;;;;;;;;;;;;;;;;;;;;;;;;;;;;;;;90101;1;2023-11-22_13h45.01.739;REPSWITCH1_version1_list1;2022.2.4;143.9942862
;;;;;;;;;;;;;;;;;;;;;;;;;;;;16.7807543;16.7807543;16.7807543;16.7807543;16.7807543;16.7807543;16.7807543;16.7807543;16.7807543;16.7807543;16.7807543;16.7807543;16.7807543;space;5.0986816;;;;;;;;;;;;;;;;;;;;;;;;;;;;;90101;1;2023-11-22_13h45.01.739;REPSWITCH1_version1_list1;2022.2.4;143.9942862
REPSWITCH1/PICTURE_340.png;espejo;type;darkblue;filler;1;F;1;1;1;1;Extra1;0;None;1;0;1;0;0;0;0;;;;;;;;;;;;;;;;;;;;;;;21.9829229;23.017723;23.017723;23.017723;23.017723;23.017723;23.017723;23.017723;23.017723;['e', 's', 'p', 'e', 'k', 'backspace'];0;[1.051835399819538, 1.155518600018695, 1.2342532998882234, 1.3706507999449968, 2.1151015998329967, 2.755263299914077];espe;C:\2023\REPSWITCH21092023\REPSWITCH_excgange\REPSWITCH_excgange\data/090101_REPSWITCH1_version1_list1_2023-11-22_13h45.01.739_micRespv1l1_recorded\recording_micRespv1l1_2023-11-22_13h45.18.401.wav;26.0389368;26.5390785;None;;;;;;;;;;;;90101;1;2023-11-22_13h45.01.739;REPSWITCH1_version1_list1;2022.2.4;143.9942862
REPSWITCH1/PICTURE_391.png;cadena;speak;gold;filler;2;F;1;1;1;1;Extra2;0;None;2;1;2;0;1;1;1;;;;;;;;;;;;;;;;;;;;;;;26.5390785;27.6711129;27.6711129;27.6711129;27.6711129;27.6711129;27.6711129;27.6711129;27.6711129;None;0;;;C:\2023\REPSWITCH21092023\REPSWITCH_excgange\REPSWITCH_excgange\data/090101_REPSWITCH1_version1_list1_2023-11-22_13h45.01.739_micRespv1l1_recorded\recording_micRespv1l1_2023-11-22_13h45.23.057.wav;30.6992768;31.1993415;None;30.6992768;30.6992768;30.6992768;30.6992768;30.6992768;30.6992768;;;;;;90101;1;2023-11-22_13h45.01.739;REPSWITCH1_version1_list1;2022.2.4;143.9942862
REPSWITCH1/PICTURE_178.png;puente;speak;gold;nontarget;2;NT;1;1;1;1;Stim1_Set1;1;repeat;3;2;3;0;2;2;2;;;;;;;;;;;;;;;;;;;;;;;31.1993415;32.3453816;32.3453816;32.3453816;32.3453816;32.3453816;32.3453816;32.3453816;32.3453816;None;0;;;C:\2023\REPSWITCH21092023\REPSWITCH_excgange\REPSWITCH_excgange\data/090101_REPSWITCH1_version1_list1_2023-11-22_13h45.01.739_micRespv1l1_recorded\recording_micRespv1l1_2023-11-22_13h45.27.731.wav;35.373484;;None;35.373484;35.373484;35.373484;35.373484;35.373484;35.373484;;;;;;90101;1;2023-11-22_13h45.01.739;REPSWITCH1_version1_list1;2022.2.4;143.9942862
REPSWITCH1/PICTURE_178.png;puente;speak;gold;repeat;2;T;1;1;1;1;Stim1_Set1;0;None;4;3;4;0;3;3;3;;;;;;;;;;;;;;;;;;;;;;;35.8735335;36.9709165;36.9709165;36.9709165;36.9709165;36.9709165;36.9709165;36.9709165;36.9709165;None;0;;;C:\2023\REPSWITCH21092023\REPSWITCH_excgange\REPSWITCH_excgange\data/090101_REPSWITCH1_version1_list1_2023-11-22_13h45.01.739_micRespv1l1_recorded\recording_micRespv1l1_2023-11-22_13h45.32.355.wav;39.9921567;40.4922027;None;39.9921567;39.9921567;39.9921567;39.9921567;39.9921567;39.9921567;;;;;;90101;1;2023-11-22_13h45.01.739;REPSWITCH1_version1_list1;2022.2.4;143.9942862
REPSWITCH1/PICTURE_319.png;vaca;type;darkblue;filler;1;F;1;1;1;1;Stim1_Set4;0;None;5;4;5;0;4;4;4;;;;;;;;;;;;;;;;;;;;;;;40.4922027;41.5340335;41.5340335;41.5340335;41.5340335;41.5340335;41.5340335;41.5340335;41.5340335;['v', 'a', 'c', 'a'];0;[1.0022639001253992, 1.0967918001115322, 1.234783000079915, 1.301452600164339];vaca;C:\2023\REPSWITCH21092023\REPSWITCH_excgange\REPSWITCH_excgange\data/090101_REPSWITCH1_version1_list1_2023-11-22_13h45.01.739_micRespv1l1_recorded\recording_micRespv1l1_2023-11-22_13h45.36.919.wav;44.555327;45.0553873;None;44.555327;44.555327;44.555327;44.555327;44.555327;44.555327;;;;;;90101;1;2023-11-22_13h45.01.739;REPSWITCH1_version1_list1;2022.2.4;143.9942862
REPSWITCH1/PICTURE_381.png;fresa;speak;gold;nontarget;2;NT;1;1;1;1;Stim2_Set1;1;switch;6;5;6;0;5;5;5;;;;;;;;;;;;;;;;;;;;;;;45.0553873;46.1041236;46.1041236;46.1041236;46.1041236;46.1041236;46.1041236;46.1041236;46.1041236;None;0;;;C:\2023\REPSWITCH21092023\REPSWITCH_excgange\REPSWITCH_excgange\data/090101_REPSWITCH1_version1_list1_2023-11-22_13h45.01.739_micRespv1l1_recorded\recording_micRespv1l1_2023-11-22_13h45.41.489.wav;49.1252729;49.6253617;None;49.1252729;49.1252729;49.1252729;49.1252729;49.1252729;49.1252729;;;;;;90101;1;2023-11-22_13h45.01.739;REPSWITCH1_version1_list1;2022.2.4;143.9942862
REPSWITCH1/PICTURE_381.png;fresa;speak;gold;repeat;2;T;1;1;1;1;Stim2_Set1;0;None;7;6;7;0;6;6;6;;;;;;;;;;;;;;;;;;;;;;;49.6253617;50.7088541;50.7088541;50.7088541;50.7088541;50.7088541;50.7088541;50.7088541;50.7088541;None;0;;;C:\2023\REPSWITCH21092023\REPSWITCH_excgange\REPSWITCH_excgange\data/090101_REPSWITCH1_version1_list1_2023-11-22_13h45.01.739_micRespv1l1_recorded\recording_micRespv1l1_2023-11-22_13h45.46.092.wav;53.7300434;54.2301956;None;53.7300434;53.7300434;53.7300434;53.7300434;53.7300434;53.7300434;;;;;;90101;1;2023-11-22_13h45.01.739;REPSWITCH1_version1_list1;2022.2.4;143.9942862
REPSWITCH1/PICTURE_719.png;baño;type;darkblue;filler;1;F;1;1;1;1;Stim2_Set4;1;switch;8;7;8;0;7;7;7;;;;;;;;;;;;;;;;;;;;;;;54.2301956;55.3344539;55.3344539;55.3344539;55.3344539;55.3344539;55.3344539;55.3344539;55.3344539;['a', 'backspace', 'b', 'a', 'ñ'];0;[1.23197490000166, 1.9659786000847816, 2.291305199963972, 2.3650553999468684, 2.5663515999913216];bañ;C:\2023\REPSWITCH21092023\REPSWITCH_excgange\REPSWITCH_excgange\data/090101_REPSWITCH1_version1_list1_2023-11-22_13h45.01.739_micRespv1l1_recorded\recording_micRespv1l1_2023-11-22_13h45.50.720.wav;58.3625967;;None;58.3625967;58.3625967;58.3625967;58.3625967;58.3625967;58.3625967;;;;;;90101;1;2023-11-22_13h45.01.739;REPSWITCH1_version1_list1;2022.2.4;143.9942862
REPSWITCH1/PICTURE_135.png;traje;speak;gold;nontarget;2;NT;1;1;1;1;Stim3_Set1;0;None;9;8;9;0;8;8;8;;;;;;;;;;;;;;;;;;;;;;;58.8626585;60.0364733;60.0364733;60.0364733;60.0364733;60.0364733;60.0364733;60.0364733;60.0364733;None;0;;;C:\2023\REPSWITCH21092023\REPSWITCH_excgange\REPSWITCH_excgange\data/090101_REPSWITCH1_version1_list1_2023-11-22_13h45.01.739_micRespv1l1_recorded\recording_micRespv1l1_2023-11-22_13h45.55.422.wav;63.0645823;;None;63.0645823;63.0645823;63.0645823;63.0645823;63.0645823;63.0645823;;;;;;90101;1;2023-11-22_13h45.01.739;REPSWITCH1_version1_list1;2022.2.4;143.9942862
REPSWITCH1/PICTURE_135.png;traje;type;darkblue;switch;1;T;1;1;1;1;Stim3_Set1;0;None;10;9;10;0;9;9;9;;;;;;;;;;;;;;;;;;;;;;;63.564662;64.5925896;64.5925896;64.5925896;64.5925896;64.5925896;64.5925896;64.5925896;64.5925896;['t', 'r', 'a', 'j', 'e'];0;[1.0130302000325173, 1.1190961999818683, 1.1898932000622153, 1.3782816000748426, 1.4928949000313878];traje;C:\2023\REPSWITCH21092023\REPSWITCH_excgange\REPSWITCH_excgange\data/090101_REPSWITCH1_version1_list1_2023-11-22_13h45.01.739_micRespv1l1_recorded\recording_micRespv1l1_2023-11-22_13h45.59.977.wav;67.6138272;68.1138549;None;67.6138272;67.6138272;67.6138272;67.6138272;67.6138272;67.6138272;;;;;;90101;1;2023-11-22_13h45.01.739;REPSWITCH1_version1_list1;2022.2.4;143.9942862
REPSWITCH1/PICTURE_687.png;camisa;speak;gold;filler;2;F;1;1;1;1;Stim5_Set4;0;None;11;10;11;0;10;10;10;;;;;;;;;;;;;;;;;;;;;;;68.1138549;69.2807139;69.2807139;69.2807139;69.2807139;69.2807139;69.2807139;69.2807139;69.2807139;None;0;;;C:\2023\REPSWITCH21092023\REPSWITCH_excgange\REPSWITCH_excgange\data/090101_REPSWITCH1_version1_list1_2023-11-22_13h45.01.739_micRespv1l1_recorded\recording_micRespv1l1_2023-11-22_13h46.04.665.wav;72.3019072;72.8019999;None;72.3019072;72.3019072;72.3019072;72.3019072;72.3019072;72.3019072;;;;;;90101;1;2023-11-22_13h45.01.739;REPSWITCH1_version1_list1;2022.2.4;143.9942862
REPSWITCH1/PICTURE_128.png;muñeca;type;darkblue;nontarget;1;NT;1;1;1;1;Stim4_Set1;1;switch;12;11;12;0;11;11;11;;;;;;;;;;;;;;;;;;;;;;;72.8019999;73.8715824;73.8715824;73.8715824;73.8715824;73.8715824;73.8715824;73.8715824;73.8715824;['m', 'u', 'ñ', 'e', 'c', 'a'];0;[0.8523105001077056, 1.09481479995884, 1.387825099984184, 1.4835010999813676, 1.6389417999889702, 1.7190302999224514];muñeca;C:\2023\REPSWITCH21092023\REPSWITCH_excgange\REPSWITCH_excgange\data/090101_REPSWITCH1_version1_list1_2023-11-22_13h45.01.739_micRespv1l1_recorded\recording_micRespv1l1_2023-11-22_13h46.09.256.wav;76.8928019;77.3928883;None;76.8928019;76.8928019;76.8928019;76.8928019;76.8928019;76.8928019;;;;;;90101;1;2023-11-22_13h45.01.739;REPSWITCH1_version1_list1;2022.2.4;143.9942862
REPSWITCH1/PICTURE_128.png;muñeca;speak;gold;switch;2;T;1;1;1;1;Stim4_Set1;0;None;13;12;13;0;12;12;12;;;;;;;;;;;;;;;;;;;;;;;77.3928883;78.4208575;78.4208575;78.4208575;78.4208575;78.4208575;78.4208575;78.4208575;78.4208575;None;0;;;C:\2023\REPSWITCH21092023\REPSWITCH_excgange\REPSWITCH_excgange\data/090101_REPSWITCH1_version1_list1_2023-11-22_13h45.01.739_micRespv1l1_recorded\recording_micRespv1l1_2023-11-22_13h46.13.806.wav;81.4421012;81.9421671;None;81.4421012;81.4421012;81.4421012;81.4421012;81.4421012;81.4421012;;;;;;90101;1;2023-11-22_13h45.01.739;REPSWITCH1_version1_list1;2022.2.4;143.9942862
REPSWITCH1/PICTURE_8.png;pierna;speak;gold;filler;2;F;1;1;1;1;Stim3_Set4;0;None;14;13;14;0;13;13;13;;;;;;;;;;;;;;;;;;;;;;;81.9421671;83.0255562;83.0255562;83.0255562;83.0255562;83.0255562;83.0255562;83.0255562;83.0255562;None;0;;;C:\2023\REPSWITCH21092023\REPSWITCH_excgange\REPSWITCH_excgange\data/090101_REPSWITCH1_version1_list1_2023-11-22_13h45.01.739_micRespv1l1_recorded\recording_micRespv1l1_2023-11-22_13h46.18.410.wav;86.0468018;86.5468577;None;86.0468018;86.0468018;86.0468018;86.0468018;86.0468018;86.0468018;;;;;;90101;1;2023-11-22_13h45.01.739;REPSWITCH1_version1_list1;2022.2.4;143.9942862
REPSWITCH1/PICTURE_19.png;pavo;speak;gold;nontarget;2;NT;1;1;1;1;Stim5_Set1;0;None;15;14;15;0;14;14;14;;;;;;;;;;;;;;;;;;;;;;;86.5468577;87.6164518;87.6164518;87.6164518;87.6164518;87.6164518;87.6164518;87.6164518;87.6164518;None;0;;;C:\2023\REPSWITCH21092023\REPSWITCH_excgange\REPSWITCH_excgange\data/090101_REPSWITCH1_version1_list1_2023-11-22_13h45.01.739_micRespv1l1_recorded\recording_micRespv1l1_2023-11-22_13h46.23.002.wav;90.6446693;;None;90.6446693;90.6446693;90.6446693;90.6446693;90.6446693;90.6446693;;;;;;90101;1;2023-11-22_13h45.01.739;REPSWITCH1_version1_list1;2022.2.4;143.9942862
REPSWITCH1/PICTURE_19.png;pavo;type;darkblue;switch;1;T;1;1;1;1;Stim5_Set1;0;None;16;15;16;0;15;15;15;;;;;;;;;;;;;;;;;;;;;;;91.1446771;92.2698092;92.2698092;92.2698092;92.2698092;92.2698092;92.2698092;92.2698092;92.2698092;['p', 'a', 'v', 'o'];0;[0.6621967998798937, 0.7256210998166353, 0.8273266998585314, 0.9152596998028457];pavo;C:\2023\REPSWITCH21092023\REPSWITCH_excgange\REPSWITCH_excgange\data/090101_REPSWITCH1_version1_list1_2023-11-22_13h45.01.739_micRespv1l1_recorded\recording_micRespv1l1_2023-11-22_13h46.27.655.wav;95.2910695;95.7911964;None;95.2910695;95.2910695;95.2910695;95.2910695;95.2910695;95.2910695;;;;;;90101;1;2023-11-22_13h45.01.739;REPSWITCH1_version1_list1;2022.2.4;143.9942862
REPSWITCH1/PICTURE_16.png;cazador;type;darkblue;nontarget;1;NT;1;1;1;1;Stim6_Set1;1;switch;17;16;17;0;16;16;16;;;;;;;;;;;;;;;;;;;;;;;95.7911964;96.8537532;96.8537532;96.8537532;96.8537532;96.8537532;96.8537532;96.8537532;96.8537532;['c', 'a', 'z', 'a', 'd', 'o', 'r'];0;[0.877715100068599, 0.9464827000629157, 1.5990115001332015, 1.724574000108987, 1.900966500164941, 1.9570277000311762, 2.1526774000376463];cazador;C:\2023\REPSWITCH21092023\REPSWITCH_excgange\REPSWITCH_excgange\data/090101_REPSWITCH1_version1_list1_2023-11-22_13h45.01.739_micRespv1l1_recorded\recording_micRespv1l1_2023-11-22_13h46.32.239.wav;99.8819943;;None;99.8819943;99.8819943;99.8819943;99.8819943;99.8819943;99.8819943;;;;;;90101;1;2023-11-22_13h45.01.739;REPSWITCH1_version1_list1;2022.2.4;143.9942862
REPSWITCH1/PICTURE_16.png;cazador;type;darkblue;repeat;1;T;1;1;1;1;Stim6_Set1;0;None;18;17;18;0;17;17;17;;;;;;;;;;;;;;;;;;;;;;;100.3819987;101.5280675;101.5280675;101.5280675;101.5280675;101.5280675;101.5280675;101.5280675;101.5280675;['x', 'a', 'backspace', 'backspace', 'c', 'a', 'z', 'a', 'd', 'o', 'r'];0;[0.7436804000753909, 0.8466475999448448, 1.260654600104317, 1.410464100074023, 1.4732536000665277, 1.5231176998931915, 1.7174619000870734, 1.8659717999398708, 1.9876131999772042, 2.076328899944201, 2.2337921999860555];cazador;C:\2023\REPSWITCH21092023\REPSWITCH_excgange\REPSWITCH_excgange\data/090101_REPSWITCH1_version1_list1_2023-11-22_13h45.01.739_micRespv1l1_recorded\recording_micRespv1l1_2023-11-22_13h46.36.913.wav;104.5492011;105.0492903;None;104.5492011;104.5492011;104.5492011;104.5492011;104.5492011;104.5492011;;;;;;90101;1;2023-11-22_13h45.01.739;REPSWITCH1_version1_list1;2022.2.4;143.9942862
REPSWITCH1/PICTURE_498.png;taza;speak;gold;filler;2;F;1;1;1;1;Stim4_Set4;0;None;19;18;19;0;18;18;18;;;;;;;;;;;;;;;;;;;;;;;105.0492903;106.1119142;106.1119142;106.1119142;106.1119142;106.1119142;106.1119142;106.1119142;106.1119142;None;0;;;C:\2023\REPSWITCH21092023\REPSWITCH_excgange\REPSWITCH_excgange\data/090101_REPSWITCH1_version1_list1_2023-11-22_13h45.01.739_micRespv1l1_recorded\recording_micRespv1l1_2023-11-22_13h46.41.496.wav;109.1401044;;None;109.1401044;109.1401044;109.1401044;109.1401044;109.1401044;109.1401044;;;;;;90101;1;2023-11-22_13h45.01.739;REPSWITCH1_version1_list1;2022.2.4;143.9942862
REPSWITCH1/PICTURE_48.png;bombero;type;darkblue;filler;1;F;1;1;1;1;Stim7_Set4;0;None;20;19;20;0;19;19;19;;;;;;;;;;;;;;;;;;;;;;;109.6401609;110.7098355;110.7098355;110.7098355;110.7098355;110.7098355;110.7098355;110.7098355;110.7098355;['b', 'p', 'm', 'b', 'e', 'backspace', 'backspace', 'backspace', 'backspace', 'o', 'm', 'b', 'e'];0;[1.0082262000069022, 1.0780678999144584, 1.3011888000182807, 1.4211548001039773, 1.5507010000292212, 1.8715522999409586, 2.0041078999638557, 2.165801400085911, 2.2794989000540227, 2.585695199901238, 2.8162972000427544, 2.8990060999058187, 2.9777335999533534];bombe;C:\2023\REPSWITCH21092023\REPSWITCH_excgange\REPSWITCH_excgange\data/090101_REPSWITCH1_version1_list1_2023-11-22_13h45.01.739_micRespv1l1_recorded\recording_micRespv1l1_2023-11-22_13h46.46.094.wav;113.7309773;114.2310503;None;113.7309773;113.7309773;113.7309773;113.7309773;113.7309773;113.7309773;;;;;;90101;1;2023-11-22_13h45.01.739;REPSWITCH1_version1_list1;2022.2.4;143.9942862
REPSWITCH1/PICTURE_142.png;vaso;type;darkblue;nontarget;1;NT;1;1;1;1;Stim7_Set1;1;repeat;21;20;21;0;20;20;20;;;;;;;;;;;;;;;;;;;;;;;114.2310503;115.3214588;115.3214588;115.3214588;115.3214588;115.3214588;115.3214588;115.3214588;115.3214588;['v', 'a', 's', 'o'];0;[1.1188029001932591, 1.1815850001294166, 1.3549713999964297, 1.3928731000050902];vaso;C:\2023\REPSWITCH21092023\REPSWITCH_excgange\REPSWITCH_excgange\data/090101_REPSWITCH1_version1_list1_2023-11-22_13h45.01.739_micRespv1l1_recorded\recording_micRespv1l1_2023-11-22_13h46.50.706.wav;118.3426919;118.8427353;None;118.3426919;118.3426919;118.3426919;118.3426919;118.3426919;118.3426919;;;;;;90101;1;2023-11-22_13h45.01.739;REPSWITCH1_version1_list1;2022.2.4;143.9942862
REPSWITCH1/PICTURE_142.png;vaso;type;darkblue;repeat;1;T;1;1;1;1;Stim7_Set1;0;None;22;21;22;0;21;21;21;;;;;;;;;;;;;;;;;;;;;;;118.8427353;120.0442996;120.0442996;120.0442996;120.0442996;120.0442996;120.0442996;120.0442996;120.0442996;['v', 'a', 's', 'o'];0;[0.9569944001268595, 1.010822999989614, 1.1297266001347452, 1.1705952000338584];vaso;C:\2023\REPSWITCH21092023\REPSWITCH_excgange\REPSWITCH_excgange\data/090101_REPSWITCH1_version1_list1_2023-11-22_13h45.01.739_micRespv1l1_recorded\recording_micRespv1l1_2023-11-22_13h46.55.430.wav;123.0724583;;None;123.0724583;123.0724583;123.0724583;123.0724583;123.0724583;123.0724583;;;;;;90101;1;2023-11-22_13h45.01.739;REPSWITCH1_version1_list1;2022.2.4;143.9942862
REPSWITCH1/PICTURE_338.png;regalo;speak;gold;filler;2;F;1;1;1;1;Stim6_Set4;1;switch;23;22;23;0;22;22;22;;;;;;;;;;;;;;;;;;;;;;;123.5725221;124.6838627;124.6838627;124.6838627;124.6838627;124.6838627;124.6838627;124.6838627;124.6838627;None;0;;;C:\2023\REPSWITCH21092023\REPSWITCH_excgange\REPSWITCH_excgange\data/090101_REPSWITCH1_version1_list1_2023-11-22_13h45.01.739_micRespv1l1_recorded\recording_micRespv1l1_2023-11-22_13h47.00.069.wav;127.7119558;128.212112;None;127.7119558;127.7119558;127.7119558;127.7119558;127.7119558;127.7119558;;;;;;90101;1;2023-11-22_13h45.01.739;REPSWITCH1_version1_list1;2022.2.4;143.9942862
REPSWITCH1/PICTURE_728.png;pulpo;type;darkblue;filler;1;F;1;1;1;1;Stim8_Set4;1;switch;24;23;24;0;23;23;23;;;;;;;;;;;;;;;;;;;;;;;128.212112;129.2677653;129.2677653;129.2677653;129.2677653;129.2677653;129.2677653;129.2677653;129.2677653;['o', 'u', 'l', 'backspace', 'backspace', 'backspace', 'p', 'u', 'l', 'p', 'o'];0;[0.6466789999976754, 1.0743869000580162, 1.2781748999841511, 1.5841025998815894, 1.7177373000886291, 1.8721481000538915, 2.018737900070846, 2.182420500088483, 2.2918575999792665, 2.591489899903536, 2.6950868000276387];pulpo;C:\2023\REPSWITCH21092023\REPSWITCH_excgange\REPSWITCH_excgange\data/090101_REPSWITCH1_version1_list1_2023-11-22_13h45.01.739_micRespv1l1_recorded\recording_micRespv1l1_2023-11-22_13h47.04.652.wav;132.2889689;132.7890346;None;132.2889689;132.2889689;132.2889689;132.2889689;132.2889689;132.2889689;;;;;;90101;1;2023-11-22_13h45.01.739;REPSWITCH1_version1_list1;2022.2.4;143.9942862
REPSWITCH1/PICTURE_169.png;espalda;type;darkblue;nontarget;1;NT;1;1;1;1;Stim8_Set1;1;repeat;25;24;25;0;24;24;24;;;;;;;;;;;;;;;;;;;;;;;132.7890346;133.8725075;133.8725075;133.8725075;133.8725075;133.8725075;133.8725075;133.8725075;133.8725075;['e', 's', 'p', 'a', 'l', 'd', 'a'];0;[0.753380199894309, 0.9048564999829978, 0.9715972000267357, 1.1314369000028819, 1.2081788999494165, 1.3477169999387115, 1.4145209998823702];espalda;C:\2023\REPSWITCH21092023\REPSWITCH_excgange\REPSWITCH_excgange\data/090101_REPSWITCH1_version1_list1_2023-11-22_13h45.01.739_micRespv1l1_recorded\recording_micRespv1l1_2023-11-22_13h47.09.257.wav;136.8936988;137.3938017;None;136.8936988;136.8936988;136.8936988;136.8936988;136.8936988;136.8936988;;;;;;90101;1;2023-11-22_13h45.01.739;REPSWITCH1_version1_list1;2022.2.4;143.9942862
REPSWITCH1/PICTURE_169.png;espalda;speak;gold;switch;2;T;1;1;1;1;Stim8_Set1;0;None;26;25;26;0;25;25;25;;;;;;;;;;;;;;;;;;;;;;;137.3938017;138.5189716;138.5189716;138.5189716;138.5189716;138.5189716;138.5189716;138.5189716;138.5189716;None;0;;;C:\2023\REPSWITCH21092023\REPSWITCH_excgange\REPSWITCH_excgange\data/090101_REPSWITCH1_version1_list1_2023-11-22_13h45.01.739_micRespv1l1_recorded\recording_micRespv1l1_2023-11-22_13h47.13.903.wav;141.5401834;142.0402256;None;141.5401834;141.5401834;141.5401834;141.5401834;141.5401834;141.5401834;;;;;;90101;1;2023-11-22_13h45.01.739;REPSWITCH1_version1_list1;2022.2.4;143.9942862
REPSWITCH1/PICTURE_178.png;puente;speak;gold;filler;2;F;2;1;1;1;Stim1_Set1;0;None;27;26;27;0;26;26;26;;;;;;;;;;;;;;;;;;;;;;;142.0402256;143.1654203;143.1654203;143.1654203;143.1654203;143.1654203;143.1654203;143.1654203;143.1654203;None;0;;;C:\2023\REPSWITCH21092023\REPSWITCH_excgange\REPSWITCH_excgange\data/090101_REPSWITCH1_version1_list1_2023-11-22_13h45.01.739_micRespv1l1_recorded\recording_micRespv1l1_2023-11-22_13h47.18.550.wav;146.1866011;146.686664;None;146.1866011;146.1866011;146.1866011;146.1866011;146.1866011;146.1866011;;;;;;90101;1;2023-11-22_13h45.01.739;REPSWITCH1_version1_list1;2022.2.4;143.9942862
REPSWITCH1/PICTURE_175.png;pintor;type;darkblue;nontarget;1;NT;2;1;1;1;Stim1_Set2;1;switch;28;27;28;0;27;27;27;;;;;;;;;;;;;;;;;;;;;;;146.686664;147.7493762;147.7493762;147.7493762;147.7493762;147.7493762;147.7493762;147.7493762;147.7493762;['p', 'i', 'n', 't', 'o', 'r'];0;[0.7218176999595016, 0.9334958998952061, 1.1295632000546902, 1.253113199956715, 1.3767021000385284, 1.48033869988285];pintor;C:\2023\REPSWITCH21092023\REPSWITCH_excgange\REPSWITCH_excgange\data/090101_REPSWITCH1_version1_list1_2023-11-22_13h45.01.739_micRespv1l1_recorded\recording_micRespv1l1_2023-11-22_13h47.23.134.wav;150.7705293;151.2705944;None;150.7705293;150.7705293;150.7705293;150.7705293;150.7705293;150.7705293;;;;;;90101;1;2023-11-22_13h45.01.739;REPSWITCH1_version1_list1;2022.2.4;143.9942862
REPSWITCH1/PICTURE_175.png;pintor;type;darkblue;repeat;1;T;2;1;1;1;Stim1_Set2;0;None;29;28;29;0;28;28;28;;;;;;;;;;;;;;;;;;;;;;;151.2705944;152.4096558;152.4096558;152.4096558;152.4096558;152.4096558;152.4096558;152.4096558;152.4096558;['p', 'i', 'n', 't', 'o', 'r'];0;[0.6780096997972578, 0.8723885999061167, 1.1108593000099063, 1.257380099967122, 1.3371416998561472, 1.4470395999960601];pintor;C:\2023\REPSWITCH21092023\REPSWITCH_excgange\REPSWITCH_excgange\data/090101_REPSWITCH1_version1_list1_2023-11-22_13h45.01.739_micRespv1l1_recorded\recording_micRespv1l1_2023-11-22_13h47.27.795.wav;155.4378311;;None;155.4378311;155.4378311;155.4378311;155.4378311;155.4378311;155.4378311;;;;;;90101;1;2023-11-22_13h45.01.739;REPSWITCH1_version1_list1;2022.2.4;143.9942862
REPSWITCH1/PICTURE_381.png;fresa;speak;gold;filler;2;F;2;1;1;1;Stim2_Set1;0;None;30;29;30;0;29;29;29;;;;;;;;;;;;;;;;;;;;;;;155.9379688;156.9727424;156.9727424;156.9727424;156.9727424;156.9727424;156.9727424;156.9727424;156.9727424;None;0;;;C:\2023\REPSWITCH21092023\REPSWITCH_excgange\REPSWITCH_excgange\data/090101_REPSWITCH1_version1_list1_2023-11-22_13h45.01.739_micRespv1l1_recorded\recording_micRespv1l1_2023-11-22_13h47.32.358.wav;160.0009095;;None;160.0009095;160.0009095;160.0009095;160.0009095;160.0009095;160.0009095;;;;;;90101;1;2023-11-22_13h45.01.739;REPSWITCH1_version1_list1;2022.2.4;143.9942862
REPSWITCH1/PICTURE_152.png;caracol;type;darkblue;nontarget;1;NT;2;1;1;1;Stim2_Set2;1;switch;31;30;31;0;30;30;30;;;;;;;;;;;;;;;;;;;;;;;160.5010606;161.6469519;161.6469519;161.6469519;161.6469519;161.6469519;161.6469519;161.6469519;161.6469519;['c', 'a', 'r', 'a', 'c', 'o', 'l'];0;[0.9162802998907864, 0.9849762998055667, 1.1421192998532206, 1.2090888998936862, 1.3289167999755591, 1.4066550999414176, 1.608981799799949];caracol;C:\2023\REPSWITCH21092023\REPSWITCH_excgange\REPSWITCH_excgange\data/090101_REPSWITCH1_version1_list1_2023-11-22_13h45.01.739_micRespv1l1_recorded\recording_micRespv1l1_2023-11-22_13h47.37.032.wav;164.6752281;;None;164.6752281;164.6752281;164.6752281;164.6752281;164.6752281;164.6752281;;;;;;90101;1;2023-11-22_13h45.01.739;REPSWITCH1_version1_list1;2022.2.4;143.9942862
REPSWITCH1/PICTURE_152.png;caracol;type;darkblue;repeat;1;T;2;1;1;1;Stim2_Set2;0;None;32;31;32;0;31;31;31;;;;;;;;;;;;;;;;;;;;;;;165.1752123;166.2725948;166.2725948;166.2725948;166.2725948;166.2725948;166.2725948;166.2725948;166.2725948;['c', 'a', 'r', 'a', 'c', 'o', 'l'];0;[0.42644399986602366, 0.5044877999462187, 0.6871141998562962, 0.8154900998342782, 0.9271867999341339, 1.0168837998062372, 1.2664340999908745];caracol;C:\2023\REPSWITCH21092023\REPSWITCH_excgange\REPSWITCH_excgange\data/090101_REPSWITCH1_version1_list1_2023-11-22_13h45.01.739_micRespv1l1_recorded\recording_micRespv1l1_2023-11-22_13h47.41.657.wav;169.293817;169.7938683;None;169.293817;169.293817;169.293817;169.293817;169.293817;169.293817;;;;;;90101;1;2023-11-22_13h45.01.739;REPSWITCH1_version1_list1;2022.2.4;143.9942862
REPSWITCH1/PICTURE_128.png;muñeca;speak;gold;filler;2;F;2;1;1;1;Stim4_Set1;0;None;33;32;33;0;32;32;32;;;;;;;;;;;;;;;;;;;;;;;169.7938683;170.9190154;170.9190154;170.9190154;170.9190154;170.9190154;170.9190154;170.9190154;170.9190154;None;0;;;C:\2023\REPSWITCH21092023\REPSWITCH_excgange\REPSWITCH_excgange\data/090101_REPSWITCH1_version1_list1_2023-11-22_13h45.01.739_micRespv1l1_recorded\recording_micRespv1l1_2023-11-22_13h47.46.304.wav;173.9472015;;None;173.9472015;173.9472015;173.9472015;173.9472015;173.9472015;173.9472015;;;;;;90101;1;2023-11-22_13h45.01.739;REPSWITCH1_version1_list1;2022.2.4;143.9942862
REPSWITCH1/PICTURE_264.png;mano;type;darkblue;nontarget;1;NT;2;1;1;1;Stim3_Set2;0;None;34;33;34;0;33;33;33;;;;;;;;;;;;;;;;;;;;;;;174.4472751;175.5793754;175.5793754;175.5793754;175.5793754;175.5793754;175.5793754;175.5793754;175.5793754;['m', 'a', 'n', 'o'];0;[0.6930354000069201, 0.7677066000178456, 0.923279199982062, 1.1136372999753803];mano;C:\2023\REPSWITCH21092023\REPSWITCH_excgange\REPSWITCH_excgange\data/090101_REPSWITCH1_version1_list1_2023-11-22_13h45.01.739_micRespv1l1_recorded\recording_micRespv1l1_2023-11-22_13h47.50.965.wav;178.6005675;179.1006203;None;178.6005675;178.6005675;178.6005675;178.6005675;178.6005675;178.6005675;;;;;;90101;1;2023-11-22_13h45.01.739;REPSWITCH1_version1_list1;2022.2.4;143.9942862
REPSWITCH1/PICTURE_264.png;mano;speak;gold;switch;2;T;2;1;1;1;Stim3_Set2;0;None;35;34;35;0;34;34;34;;;;;;;;;;;;;;;;;;;;;;;179.1006203;180.2327292;180.2327292;180.2327292;180.2327292;180.2327292;180.2327292;180.2327292;180.2327292;None;0;;;C:\2023\REPSWITCH21092023\REPSWITCH_excgange\REPSWITCH_excgange\data/090101_REPSWITCH1_version1_list1_2023-11-22_13h45.01.739_micRespv1l1_recorded\recording_micRespv1l1_2023-11-22_13h47.55.617.wav;183.26092;;None;183.26092;183.26092;183.26092;183.26092;183.26092;183.26092;;;;;;90101;1;2023-11-22_13h45.01.739;REPSWITCH1_version1_list1;2022.2.4;143.9942862
REPSWITCH1/PICTURE_517.png;cuerda;speak;gold;nontarget;2;NT;2;1;1;1;Stim4_Set2;1;repeat;36;35;36;0;35;35;35;;;;;;;;;;;;;;;;;;;;;;;183.76098;184.8375222;184.8375222;184.8375222;184.8375222;184.8375222;184.8375222;184.8375222;184.8375222;None;0;;;C:\2023\REPSWITCH21092023\REPSWITCH_excgange\REPSWITCH_excgange\data/090101_REPSWITCH1_version1_list1_2023-11-22_13h45.01.739_micRespv1l1_recorded\recording_micRespv1l1_2023-11-22_13h48.00.222.wav;187.8587128;188.3587998;None;187.8587128;187.8587128;187.8587128;187.8587128;187.8587128;187.8587128;;;;;;90101;1;2023-11-22_13h45.01.739;REPSWITCH1_version1_list1;2022.2.4;143.9942862
REPSWITCH1/PICTURE_517.png;cuerda;type;darkblue;switch;1;T;2;1;1;1;Stim4_Set2;0;None;37;36;37;0;36;36;36;;;;;;;;;;;;;;;;;;;;;;;188.3587998;189.4145408;189.4145408;189.4145408;189.4145408;189.4145408;189.4145408;189.4145408;189.4145408;['c', 'u', 'e', 'r', 'd', 'a'];0;[0.5599398000631481, 0.7004609999712557, 0.7980951999779791, 0.8519158000126481, 1.0317905000410974, 1.1144440001808107];cuerda;C:\2023\REPSWITCH21092023\REPSWITCH_excgange\REPSWITCH_excgange\data/090101_REPSWITCH1_version1_list1_2023-11-22_13h45.01.739_micRespv1l1_recorded\recording_micRespv1l1_2023-11-22_13h48.04.799.wav;192.4356986;192.9358042;None;192.4356986;192.4356986;192.4356986;192.4356986;192.4356986;192.4356986;;;;;;90101;1;2023-11-22_13h45.01.739;REPSWITCH1_version1_list1;2022.2.4;143.9942862
REPSWITCH1/PICTURE_135.png;traje;type;darkblue;filler;1;F;2;1;1;1;Stim3_Set1;0;None;38;37;38;0;37;37;37;;;;;;;;;;;;;;;;;;;;;;;192.9358042;194.0818136;194.0818136;194.0818136;194.0818136;194.0818136;194.0818136;194.0818136;194.0818136;['t', 'r', 'a', 'j', 'e'];0;[0.8472931000869721, 0.9080701000057161, 0.9887314999941736, 1.102354499977082, 1.2000287000555545];traje;C:\2023\REPSWITCH21092023\REPSWITCH_excgange\REPSWITCH_excgange\data/090101_REPSWITCH1_version1_list1_2023-11-22_13h45.01.739_micRespv1l1_recorded\recording_micRespv1l1_2023-11-22_13h48.09.466.wav;197.1100335;;None;197.1100335;197.1100335;197.1100335;197.1100335;197.1100335;197.1100335;;;;;;90101;1;2023-11-22_13h45.01.739;REPSWITCH1_version1_list1;2022.2.4;143.9942862
REPSWITCH1/PICTURE_30.png;granja;type;darkblue;nontarget;1;NT;2;1;1;1;Stim5_Set2;1;repeat;39;38;39;0;38;38;38;;;;;;;;;;;;;;;;;;;;;;;197.6100249;198.6309595;198.6309595;198.6309595;198.6309595;198.6309595;198.6309595;198.6309595;198.6309595;['g', 'r', 'a', 'n', 'j', 'a'];0;[0.9576530000194907, 1.019514099927619, 1.0653333000373095, 1.18492819997482, 1.3912319000810385, 1.481936400057748];granja;C:\2023\REPSWITCH21092023\REPSWITCH_excgange\REPSWITCH_excgange\data/090101_REPSWITCH1_version1_list1_2023-11-22_13h45.01.739_micRespv1l1_recorded\recording_micRespv1l1_2023-11-22_13h48.14.017.wav;201.6592394;202.1592279;None;201.6592394;201.6592394;201.6592394;201.6592394;201.6592394;201.6592394;;;;;;90101;1;2023-11-22_13h45.01.739;REPSWITCH1_version1_list1;2022.2.4;143.9942862
REPSWITCH1/PICTURE_30.png;granja;speak;gold;switch;2;T;2;1;1;1;Stim5_Set2;0;None;40;39;40;0;39;39;39;;;;;;;;;;;;;;;;;;;;;;;202.1592279;203.1940724;203.1940724;203.1940724;203.1940724;203.1940724;203.1940724;203.1940724;203.1940724;None;0;;;C:\2023\REPSWITCH21092023\REPSWITCH_excgange\REPSWITCH_excgange\data/090101_REPSWITCH1_version1_list1_2023-11-22_13h45.01.739_micRespv1l1_recorded\recording_micRespv1l1_2023-11-22_13h48.18.580.wav;206.2222954;;None;206.2222954;206.2222954;206.2222954;206.2222954;206.2222954;206.2222954;;;;;;90101;1;2023-11-22_13h45.01.739;REPSWITCH1_version1_list1;2022.2.4;143.9942862
REPSWITCH1/PICTURE_142.png;vaso;type;darkblue;filler;1;F;2;1;1;1;Stim7_Set1;0;None;41;40;41;0;40;40;40;;;;;;;;;;;;;;;;;;;;;;;206.7223165;207.8127383;207.8127383;207.8127383;207.8127383;207.8127383;207.8127383;207.8127383;207.8127383;['v', 'a', 's', 'o'];0;[0.9264344000257552, 1.003230899805203, 1.0610126999672502, 1.131400999845937];vaso;C:\2023\REPSWITCH21092023\REPSWITCH_excgange\REPSWITCH_excgange\data/090101_REPSWITCH1_version1_list1_2023-11-22_13h45.01.739_micRespv1l1_recorded\recording_micRespv1l1_2023-11-22_13h48.23.197.wav;210.8339733;211.3340504;None;210.8339733;210.8339733;210.8339733;210.8339733;210.8339733;210.8339733;;;;;;90101;1;2023-11-22_13h45.01.739;REPSWITCH1_version1_list1;2022.2.4;143.9942862
REPSWITCH1/PICTURE_19.png;pavo;speak;gold;filler;2;F;2;1;1;1;Stim5_Set1;1;switch;42;41;42;0;41;41;41;;;;;;;;;;;;;;;;;;;;;;;211.3340504;212.4175169;212.4175169;212.4175169;212.4175169;212.4175169;212.4175169;212.4175169;212.4175169;None;0;;;C:\2023\REPSWITCH21092023\REPSWITCH_excgange\REPSWITCH_excgange\data/090101_REPSWITCH1_version1_list1_2023-11-22_13h45.01.739_micRespv1l1_recorded\recording_micRespv1l1_2023-11-22_13h48.27.803.wav;215.4387821;215.9388758;None;215.4387821;215.4387821;215.4387821;215.4387821;215.4387821;215.4387821;;;;;;90101;1;2023-11-22_13h45.01.739;REPSWITCH1_version1_list1;2022.2.4;143.9942862
REPSWITCH1/PICTURE_552.png;manzana;speak;gold;nontarget;2;NT;2;1;1;1;Stim6_Set2;1;repeat;43;42;43;0;42;42;42;;;;;;;;;;;;;;;;;;;;;;;215.9388758;217.0570462;217.0570462;217.0570462;217.0570462;217.0570462;217.0570462;217.0570462;217.0570462;None;0;;;C:\2023\REPSWITCH21092023\REPSWITCH_excgange\REPSWITCH_excgange\data/090101_REPSWITCH1_version1_list1_2023-11-22_13h45.01.739_micRespv1l1_recorded\recording_micRespv1l1_2023-11-22_13h48.32.443.wav;220.085181;;None;220.085181;220.085181;220.085181;220.085181;220.085181;220.085181;;;;;;90101;1;2023-11-22_13h45.01.739;REPSWITCH1_version1_list1;2022.2.4;143.9942862
REPSWITCH1/PICTURE_552.png;manzana;speak;gold;repeat;2;T;2;1;1;1;Stim6_Set2;0;None;44;43;44;0;43;43;43;;;;;;;;;;;;;;;;;;;;;;;220.585255;221.6270579;221.6270579;221.6270579;221.6270579;221.6270579;221.6270579;221.6270579;221.6270579;None;0;;;C:\2023\REPSWITCH21092023\REPSWITCH_excgange\REPSWITCH_excgange\data/090101_REPSWITCH1_version1_list1_2023-11-22_13h45.01.739_micRespv1l1_recorded\recording_micRespv1l1_2023-11-22_13h48.37.013.wav;224.6553068;225.1552996;None;224.6553068;224.6553068;224.6553068;224.6553068;224.6553068;224.6553068;;;;;;90101;1;2023-11-22_13h45.01.739;REPSWITCH1_version1_list1;2022.2.4;143.9942862
REPSWITCH1/PICTURE_16.png;cazador;type;darkblue;filler;1;F;2;1;1;1;Stim6_Set1;0;None;45;44;45;0;44;44;44;;;;;;;;;;;;;;;;;;;;;;;225.1552996;226.2041007;226.2041007;226.2041007;226.2041007;226.2041007;226.2041007;226.2041007;226.2041007;['c', 'a', 'z', 'a', 'd', 'o', 'r'];0;[1.0382286999374628, 1.102999099995941, 1.28044190001674, 1.3830660998355597, 1.4756793999113142, 1.647983699804172, 1.760594799881801];cazador;C:\2023\REPSWITCH21092023\REPSWITCH_excgange\REPSWITCH_excgange\data/090101_REPSWITCH1_version1_list1_2023-11-22_13h45.01.739_micRespv1l1_recorded\recording_micRespv1l1_2023-11-22_13h48.41.589.wav;229.2322335;;None;229.2322335;229.2322335;229.2322335;229.2322335;229.2322335;229.2322335;;;;;;90101;1;2023-11-22_13h45.01.739;REPSWITCH1_version1_list1;2022.2.4;143.9942862
REPSWITCH1/PICTURE_446.png;cerdo;speak;gold;nontarget;2;NT;2;1;1;1;Stim7_Set2;1;switch;46;45;46;0;45;45;45;;;;;;;;;;;;;;;;;;;;;;;229.7322753;230.7810305;230.7810305;230.7810305;230.7810305;230.7810305;230.7810305;230.7810305;230.7810305;None;0;;;C:\2023\REPSWITCH21092023\REPSWITCH_excgange\REPSWITCH_excgange\data/090101_REPSWITCH1_version1_list1_2023-11-22_13h45.01.739_micRespv1l1_recorded\recording_micRespv1l1_2023-11-22_13h48.46.166.wav;233.8092074;;None;233.8092074;233.8092074;233.8092074;233.8092074;233.8092074;233.8092074;;;;;;90101;1;2023-11-22_13h45.01.739;REPSWITCH1_version1_list1;2022.2.4;143.9942862
REPSWITCH1/PICTURE_446.png;cerdo;speak;gold;repeat;2;T;2;1;1;1;Stim7_Set2;0;None;47;46;47;0;46;46;46;;;;;;;;;;;;;;;;;;;;;;;234.3092794;235.4136067;235.4136067;235.4136067;235.4136067;235.4136067;235.4136067;235.4136067;235.4136067;None;0;;;C:\2023\REPSWITCH21092023\REPSWITCH_excgange\REPSWITCH_excgange\data/090101_REPSWITCH1_version1_list1_2023-11-22_13h45.01.739_micRespv1l1_recorded\recording_micRespv1l1_2023-11-22_13h48.50.798.wav;238.4417386;;None;238.4417386;238.4417386;238.4417386;238.4417386;238.4417386;238.4417386;;;;;;90101;1;2023-11-22_13h45.01.739;REPSWITCH1_version1_list1;2022.2.4;143.9942862
REPSWITCH1/PICTURE_590.png;escoba;type;darkblue;filler;1;F;2;1;1;1;Extra3;0;None;48;47;48;0;47;47;47;;;;;;;;;;;;;;;;;;;;;;;238.9418372;240.0183621;240.0183621;240.0183621;240.0183621;240.0183621;240.0183621;240.0183621;240.0183621;['e', 's', 'v', 'backspace', 'c', 'o', 'b', 'a'];0;[0.7819953002035618, 0.895604700082913, 1.1198612002190202, 1.5145102001260966, 1.66600550012663, 1.763715700013563, 1.9261240002233535, 2.005899300100282];escoba;C:\2023\REPSWITCH21092023\REPSWITCH_excgange\REPSWITCH_excgange\data/090101_REPSWITCH1_version1_list1_2023-11-22_13h45.01.739_micRespv1l1_recorded\recording_micRespv1l1_2023-11-22_13h48.55.404.wav;243.0465105;;None;243.0465105;243.0465105;243.0465105;243.0465105;243.0465105;243.0465105;;;;;;90101;1;2023-11-22_13h45.01.739;REPSWITCH1_version1_list1;2022.2.4;143.9942862
REPSWITCH1/PICTURE_169.png;espalda;speak;gold;filler;2;F;2;1;1;1;Stim8_Set1;0;None;49;48;49;0;48;48;48;;;;;;;;;;;;;;;;;;;;;;;243.5466483;244.7064577;244.7064577;244.7064577;244.7064577;244.7064577;244.7064577;244.7064577;244.7064577;None;0;;;C:\2023\REPSWITCH21092023\REPSWITCH_excgange\REPSWITCH_excgange\data/090101_REPSWITCH1_version1_list1_2023-11-22_13h45.01.739_micRespv1l1_recorded\recording_micRespv1l1_2023-11-22_13h49.00.091.wav;247.7346593;;None;247.7346593;247.7346593;247.7346593;247.7346593;247.7346593;247.7346593;;;;;;90101;1;2023-11-22_13h45.01.739;REPSWITCH1_version1_list1;2022.2.4;143.9942862
REPSWITCH1/PICTURE_199.png;falda;speak;gold;nontarget;2;NT;2;1;1;1;Stim8_Set2;1;repeat;50;49;50;0;49;49;49;;;;;;;;;;;;;;;;;;;;;;;248.2346931;249.4293338;249.4293338;249.4293338;249.4293338;249.4293338;249.4293338;249.4293338;249.4293338;None;0;;;C:\2023\REPSWITCH21092023\REPSWITCH_excgange\REPSWITCH_excgange\data/090101_REPSWITCH1_version1_list1_2023-11-22_13h45.01.739_micRespv1l1_recorded\recording_micRespv1l1_2023-11-22_13h49.04.814.wav;252.4505268;252.9505903;None;252.4505268;252.4505268;252.4505268;252.4505268;252.4505268;252.4505268;;;;;;90101;1;2023-11-22_13h45.01.739;REPSWITCH1_version1_list1;2022.2.4;143.9942862
REPSWITCH1/PICTURE_199.png;falda;type;darkblue;switch;1;T;2;1;1;1;Stim8_Set2;0;None;51;50;51;0;50;50;50;;;;;;;;;;;;;;;;;;;;;;;252.9505903;254.0549892;254.0549892;254.0549892;254.0549892;254.0549892;254.0549892;254.0549892;254.0549892;['f', 'a', 'l', 'd', 'a'];0;[0.6797510997857898, 0.7475846998859197, 0.8023411999456584, 0.9399292999878526, 1.0146368998102844];falda;C:\2023\REPSWITCH21092023\REPSWITCH_excgange\REPSWITCH_excgange\data/090101_REPSWITCH1_version1_list1_2023-11-22_13h45.01.739_micRespv1l1_recorded\recording_micRespv1l1_2023-11-22_13h49.09.440.wav;257.0761488;257.5761854;space;257.0761488;257.0761488;257.0761488;257.0761488;257.0761488;257.0761488;257.5761854;257.5761854;3.1575269;;;90101;1;2023-11-22_13h45.01.739;REPSWITCH1_version1_list1;2022.2.4;143.9942862
REPSWITCH1/PICTURE_576.png;guante;type;darkblue;nontarget;1;NT;3;1;1;1;Stim1_Set3;0;None;52;51;52;0;51;51;51;;;;;;;;;;;;;;;;;;;;;;;260.7433099;261.8059324;261.8059324;261.8059324;261.8059324;261.8059324;261.8059324;261.8059324;261.8059324;['g', 'u', 'a', 'n', 't', 'e'];0;[0.873488700017333, 0.9629363999702036, 1.0937952001113445, 1.1690726999659091, 1.2616430001799017, 1.34595590014942];guante;C:\2023\REPSWITCH21092023\REPSWITCH_excgange\REPSWITCH_excgange\data/090101_REPSWITCH1_version1_list1_2023-11-22_13h45.01.739_micRespv1l1_recorded\recording_micRespv1l1_2023-11-22_13h49.17.190.wav;264.8271451;265.3272405;None;264.8271451;264.8271451;264.8271451;264.8271451;264.8271451;264.8271451;;;;;;90101;1;2023-11-22_13h45.01.739;REPSWITCH1_version1_list1;2022.2.4;143.9942862
REPSWITCH1/PICTURE_576.png;guante;speak;gold;switch;2;T;3;1;1;1;Stim1_Set3;0;None;53;52;53;0;52;52;52;;;;;;;;;;;;;;;;;;;;;;;265.3272405;266.5704502;266.5704502;266.5704502;266.5704502;266.5704502;266.5704502;266.5704502;266.5704502;None;0;;;C:\2023\REPSWITCH21092023\REPSWITCH_excgange\REPSWITCH_excgange\data/090101_REPSWITCH1_version1_list1_2023-11-22_13h45.01.739_micRespv1l1_recorded\recording_micRespv1l1_2023-11-22_13h49.21.955.wav;269.5917576;270.0917555;None;269.5917576;269.5917576;269.5917576;269.5917576;269.5917576;269.5917576;;;;;;90101;1;2023-11-22_13h45.01.739;REPSWITCH1_version1_list1;2022.2.4;143.9942862
REPSWITCH1/PICTURE_646.png;tronco;speak;gold;filler;2;F;3;1;1;1;Extra4;0;None;54;53;54;0;53;53;53;;;;;;;;;;;;;;;;;;;;;;;270.0917555;271.1891279;271.1891279;271.1891279;271.1891279;271.1891279;271.1891279;271.1891279;271.1891279;None;0;;;C:\2023\REPSWITCH21092023\REPSWITCH_excgange\REPSWITCH_excgange\data/090101_REPSWITCH1_version1_list1_2023-11-22_13h45.01.739_micRespv1l1_recorded\recording_micRespv1l1_2023-11-22_13h49.26.575.wav;274.2172956;;None;274.2172956;274.2172956;274.2172956;274.2172956;274.2172956;274.2172956;;;;;;90101;1;2023-11-22_13h45.01.739;REPSWITCH1_version1_list1;2022.2.4;143.9942862
REPSWITCH1/PICTURE_610.png;miel;speak;gold;nontarget;2;NT;3;1;1;1;Stim2_Set3;1;repeat;55;54;55;0;54;54;54;;;;;;;;;;;;;;;;;;;;;;;274.7174241;275.8008297;275.8008297;275.8008297;275.8008297;275.8008297;275.8008297;275.8008297;275.8008297;None;0;;;C:\2023\REPSWITCH21092023\REPSWITCH_excgange\REPSWITCH_excgange\data/090101_REPSWITCH1_version1_list1_2023-11-22_13h45.01.739_micRespv1l1_recorded\recording_micRespv1l1_2023-11-22_13h49.31.187.wav;278.829007;;None;278.829007;278.829007;278.829007;278.829007;278.829007;278.829007;;;;;;90101;1;2023-11-22_13h45.01.739;REPSWITCH1_version1_list1;2022.2.4;143.9942862
REPSWITCH1/PICTURE_610.png;miel;type;darkblue;switch;1;T;3;1;1;1;Stim2_Set3;0;None;56;55;56;0;55;55;55;;;;;;;;;;;;;;;;;;;;;;;279.3290708;280.4125316;280.4125316;280.4125316;280.4125316;280.4125316;280.4125316;280.4125316;280.4125316;['m', 'i', 'e', 'l'];0;[0.3690887000411749, 0.5835675001144409, 0.5994935999624431, 0.9023883000481874];miel;C:\2023\REPSWITCH21092023\REPSWITCH_excgange\REPSWITCH_excgange\data/090101_REPSWITCH1_version1_list1_2023-11-22_13h45.01.739_micRespv1l1_recorded\recording_micRespv1l1_2023-11-22_13h49.35.798.wav;283.4337514;283.933845;None;283.4337514;283.4337514;283.4337514;283.4337514;283.4337514;283.4337514;;;;;;90101;1;2023-11-22_13h45.01.739;REPSWITCH1_version1_list1;2022.2.4;143.9942862
REPSWITCH1/PICTURE_175.png;pintor;type;darkblue;filler;1;F;3;1;1;1;Stim1_Set2;1;repeat;57;56;57;0;56;56;56;;;;;;;;;;;;;;;;;;;;;;;283.933845;285.0034138;285.0034138;285.0034138;285.0034138;285.0034138;285.0034138;285.0034138;285.0034138;['p', 'i', 'n', 't', 'o', 'r'];0;[0.8704035999253392, 1.0886643999256194, 1.27802179986611, 1.3597547998651862, 1.484613100066781, 1.557503999909386];pintor;C:\2023\REPSWITCH21092023\REPSWITCH_excgange\REPSWITCH_excgange\data/090101_REPSWITCH1_version1_list1_2023-11-22_13h45.01.739_micRespv1l1_recorded\recording_micRespv1l1_2023-11-22_13h49.40.388.wav;288.031642;;None;288.031642;288.031642;288.031642;288.031642;288.031642;288.031642;;;;;;90101;1;2023-11-22_13h45.01.739;REPSWITCH1_version1_list1;2022.2.4;143.9942862
REPSWITCH1/PICTURE_242.png;cartero;type;darkblue;nontarget;1;NT;3;1;1;1;Stim3_Set3;1;repeat;58;57;58;0;57;57;57;;;;;;;;;;;;;;;;;;;;;;;288.531641;289.6568012;289.6568012;289.6568012;289.6568012;289.6568012;289.6568012;289.6568012;289.6568012;['c', 'a', 'r', 't', 'e', 'r', 'o'];0;[1.2202558999415487, 1.2890282000880688, 1.410672300029546, 1.587055099895224, 1.6767529000062495, 1.762463100021705, 1.8571514000650495];cartero;C:\2023\REPSWITCH21092023\REPSWITCH_excgange\REPSWITCH_excgange\data/090101_REPSWITCH1_version1_list1_2023-11-22_13h45.01.739_micRespv1l1_recorded\recording_micRespv1l1_2023-11-22_13h49.45.041.wav;292.6780156;293.1781093;None;292.6780156;292.6780156;292.6780156;292.6780156;292.6780156;292.6780156;;;;;;90101;1;2023-11-22_13h45.01.739;REPSWITCH1_version1_list1;2022.2.4;143.9942862
REPSWITCH1/PICTURE_242.png;cartero;speak;gold;switch;2;T;3;1;1;1;Stim3_Set3;0;None;59;58;59;0;58;58;58;;;;;;;;;;;;;;;;;;;;;;;293.1781093;294.2199594;294.2199594;294.2199594;294.2199594;294.2199594;294.2199594;294.2199594;294.2199594;None;0;;;C:\2023\REPSWITCH21092023\REPSWITCH_excgange\REPSWITCH_excgange\data/090101_REPSWITCH1_version1_list1_2023-11-22_13h45.01.739_micRespv1l1_recorded\recording_micRespv1l1_2023-11-22_13h49.49.604.wav;297.2411492;297.7412002;None;297.2411492;297.2411492;297.2411492;297.2411492;297.2411492;297.2411492;;;;;;90101;1;2023-11-22_13h45.01.739;REPSWITCH1_version1_list1;2022.2.4;143.9942862
REPSWITCH1/PICTURE_152.png;caracol;speak;gold;filler;2;F;3;1;1;1;Stim2_Set2;0;None;60;59;60;0;59;59;59;;;;;;;;;;;;;;;;;;;;;;;297.7412002;298.9566672;298.9566672;298.9566672;298.9566672;298.9566672;298.9566672;298.9566672;298.9566672;None;0;;;C:\2023\REPSWITCH21092023\REPSWITCH_excgange\REPSWITCH_excgange\data/090101_REPSWITCH1_version1_list1_2023-11-22_13h45.01.739_micRespv1l1_recorded\recording_micRespv1l1_2023-11-22_13h49.54.341.wav;301.9848197;;None;301.9848197;301.9848197;301.9848197;301.9848197;301.9848197;301.9848197;;;;;;90101;1;2023-11-22_13h45.01.739;REPSWITCH1_version1_list1;2022.2.4;143.9942862
REPSWITCH1/PICTURE_517.png;cuerda;type;darkblue;filler;1;F;3;1;1;1;Stim4_Set2;0;None;61;60;61;0;60;60;60;;;;;;;;;;;;;;;;;;;;;;;302.4849552;303.5337084;303.5337084;303.5337084;303.5337084;303.5337084;303.5337084;303.5337084;303.5337084;['c', 'u', 'e', 'r', 'd', 'a'];0;[0.8262755000032485, 0.9926233000587672, 1.078343200031668, 1.1354642999358475, 1.3102062998805195, 1.3789894999936223];cuerda;C:\2023\REPSWITCH21092023\REPSWITCH_excgange\REPSWITCH_excgange\data/090101_REPSWITCH1_version1_list1_2023-11-22_13h45.01.739_micRespv1l1_recorded\recording_micRespv1l1_2023-11-22_13h49.58.919.wav;306.5618893;;None;306.5618893;306.5618893;306.5618893;306.5618893;306.5618893;306.5618893;;;;;;90101;1;2023-11-22_13h45.01.739;REPSWITCH1_version1_list1;2022.2.4;143.9942862
REPSWITCH1/PICTURE_235.png;aguja;speak;gold;nontarget;2;NT;3;1;1;1;Stim4_Set3;1;switch;62;61;62;0;61;61;61;;;;;;;;;;;;;;;;;;;;;;;307.0618883;308.1592246;308.1592246;308.1592246;308.1592246;308.1592246;308.1592246;308.1592246;308.1592246;None;0;;;C:\2023\REPSWITCH21092023\REPSWITCH_excgange\REPSWITCH_excgange\data/090101_REPSWITCH1_version1_list1_2023-11-22_13h45.01.739_micRespv1l1_recorded\recording_micRespv1l1_2023-11-22_13h50.03.544.wav;311.1805143;311.6805004;None;311.1805143;311.1805143;311.1805143;311.1805143;311.1805143;311.1805143;;;;;;90101;1;2023-11-22_13h45.01.739;REPSWITCH1_version1_list1;2022.2.4;143.9942862
REPSWITCH1/PICTURE_235.png;aguja;speak;gold;repeat;2;T;3;1;1;1;Stim4_Set3;0;None;63;62;63;0;62;62;62;;;;;;;;;;;;;;;;;;;;;;;311.6805004;312.8195768;312.8195768;312.8195768;312.8195768;312.8195768;312.8195768;312.8195768;312.8195768;None;0;;;C:\2023\REPSWITCH21092023\REPSWITCH_excgange\REPSWITCH_excgange\data/090101_REPSWITCH1_version1_list1_2023-11-22_13h45.01.739_micRespv1l1_recorded\recording_micRespv1l1_2023-11-22_13h50.08.204.wav;315.8408119;316.3408702;None;315.8408119;315.8408119;315.8408119;315.8408119;315.8408119;315.8408119;;;;;;90101;1;2023-11-22_13h45.01.739;REPSWITCH1_version1_list1;2022.2.4;143.9942862
REPSWITCH1/PICTURE_30.png;granja;type;darkblue;filler;1;F;3;1;1;1;Stim5_Set2;0;None;64;63;64;0;63;63;63;;;;;;;;;;;;;;;;;;;;;;;316.3408702;317.4938026;317.4938026;317.4938026;317.4938026;317.4938026;317.4938026;317.4938026;317.4938026;['g', 'r', 'a', 'n', 'j', 'a'];0;[0.8845693999901414, 0.9443761000875384, 1.0164236000273377, 1.0831931000575423, 1.2367052999325097, 1.3702336000278592];granja;C:\2023\REPSWITCH21092023\REPSWITCH_excgange\REPSWITCH_excgange\data/090101_REPSWITCH1_version1_list1_2023-11-22_13h45.01.739_micRespv1l1_recorded\recording_micRespv1l1_2023-11-22_13h50.12.880.wav;320.5220397;;None;320.5220397;320.5220397;320.5220397;320.5220397;320.5220397;320.5220397;;;;;;90101;1;2023-11-22_13h45.01.739;REPSWITCH1_version1_list1;2022.2.4;143.9942862
REPSWITCH1/PICTURE_552.png;manzana;speak;gold;filler;2;F;3;1;1;1;Stim6_Set2;1;switch;65;64;65;0;64;64;64;;;;;;;;;;;;;;;;;;;;;;;321.0221094;322.0985558;322.0985558;322.0985558;322.0985558;322.0985558;322.0985558;322.0985558;322.0985558;None;0;;;C:\2023\REPSWITCH21092023\REPSWITCH_excgange\REPSWITCH_excgange\data/090101_REPSWITCH1_version1_list1_2023-11-22_13h45.01.739_micRespv1l1_recorded\recording_micRespv1l1_2023-11-22_13h50.17.484.wav;325.1268282;;None;325.1268282;325.1268282;325.1268282;325.1268282;325.1268282;325.1268282;;;;;;90101;1;2023-11-22_13h45.01.739;REPSWITCH1_version1_list1;2022.2.4;143.9942862
REPSWITCH1/PICTURE_35.png;oreja;speak;gold;nontarget;2;NT;3;1;1;1;Stim5_Set3;1;repeat;66;65;66;0;65;65;65;;;;;;;;;;;;;;;;;;;;;;;325.6267721;326.703409;326.703409;326.703409;326.703409;326.703409;326.703409;326.703409;326.703409;None;0;;;C:\2023\REPSWITCH21092023\REPSWITCH_excgange\REPSWITCH_excgange\data/090101_REPSWITCH1_version1_list1_2023-11-22_13h45.01.739_micRespv1l1_recorded\recording_micRespv1l1_2023-11-22_13h50.22.088.wav;329.7314924;;None;329.7314924;329.7314924;329.7314924;329.7314924;329.7314924;329.7314924;;;;;;90101;1;2023-11-22_13h45.01.739;REPSWITCH1_version1_list1;2022.2.4;143.9942862
REPSWITCH1/PICTURE_35.png;oreja;speak;gold;repeat;2;T;3;1;1;1;Stim5_Set3;0;None;67;66;67;0;66;66;66;;;;;;;;;;;;;;;;;;;;;;;330.2315582;331.3914573;331.3914573;331.3914573;331.3914573;331.3914573;331.3914573;331.3914573;331.3914573;None;0;;;C:\2023\REPSWITCH21092023\REPSWITCH_excgange\REPSWITCH_excgange\data/090101_REPSWITCH1_version1_list1_2023-11-22_13h45.01.739_micRespv1l1_recorded\recording_micRespv1l1_2023-11-22_13h50.26.777.wav;334.4195986;;None;334.4195986;334.4195986;334.4195986;334.4195986;334.4195986;334.4195986;;;;;;90101;1;2023-11-22_13h45.01.739;REPSWITCH1_version1_list1;2022.2.4;143.9942862
REPSWITCH1/PICTURE_673.png;tenedor;type;darkblue;filler;1;F;3;1;1;1;Extra5;0;None;68;67;68;0;67;67;67;;;;;;;;;;;;;;;;;;;;;;;334.9197709;336.0379188;336.0379188;336.0379188;336.0379188;336.0379188;336.0379188;336.0379188;336.0379188;['t', 'e', 'n', 'e', 'd', 'o', 'r'];0;[0.814688199898228, 0.8744536000303924, 0.9960789999458939, 1.0920225998852402, 1.2893650999758393, 1.3202626998536289, 1.421242899959907];tenedor;C:\2023\REPSWITCH21092023\REPSWITCH_excgange\REPSWITCH_excgange\data/090101_REPSWITCH1_version1_list1_2023-11-22_13h45.01.739_micRespv1l1_recorded\recording_micRespv1l1_2023-11-22_13h50.31.422.wav;339.059119;339.5591949;None;339.059119;339.059119;339.059119;339.059119;339.059119;339.059119;;;;;;90101;1;2023-11-22_13h45.01.739;REPSWITCH1_version1_list1;2022.2.4;143.9942862
REPSWITCH1/PICTURE_464.png;goma;speak;gold;nontarget;2;NT;3;1;1;1;Stim6_Set3;0;None;69;68;69;0;68;68;68;;;;;;;;;;;;;;;;;;;;;;;339.5591949;340.6426957;340.6426957;340.6426957;340.6426957;340.6426957;340.6426957;340.6426957;340.6426957;None;0;;;C:\2023\REPSWITCH21092023\REPSWITCH_excgange\REPSWITCH_excgange\data/090101_REPSWITCH1_version1_list1_2023-11-22_13h45.01.739_micRespv1l1_recorded\recording_micRespv1l1_2023-11-22_13h50.36.027.wav;343.6638792;344.1639697;None;343.6638792;343.6638792;343.6638792;343.6638792;343.6638792;343.6638792;;;;;;90101;1;2023-11-22_13h45.01.739;REPSWITCH1_version1_list1;2022.2.4;143.9942862
REPSWITCH1/PICTURE_464.png;goma;type;darkblue;switch;1;T;3;1;1;1;Stim6_Set3;0;None;70;69;70;0;69;69;69;;;;;;;;;;;;;;;;;;;;;;;344.1639697;345.1849211;345.1849211;345.1849211;345.1849211;345.1849211;345.1849211;345.1849211;345.1849211;['g', 'o', 'm', 'a'];0;[0.7404706999659538, 0.8446427001617849, 1.013578200014308, 1.140164399985224];goma;C:\2023\REPSWITCH21092023\REPSWITCH_excgange\REPSWITCH_excgange\data/090101_REPSWITCH1_version1_list1_2023-11-22_13h45.01.739_micRespv1l1_recorded\recording_micRespv1l1_2023-11-22_13h50.40.569.wav;348.2061274;348.7062334;None;348.2061274;348.2061274;348.2061274;348.2061274;348.2061274;348.2061274;;;;;;90101;1;2023-11-22_13h45.01.739;REPSWITCH1_version1_list1;2022.2.4;143.9942862
REPSWITCH1/PICTURE_264.png;mano;speak;gold;filler;2;F;3;1;1;1;Stim3_Set2;0;None;71;70;71;0;70;70;70;;;;;;;;;;;;;;;;;;;;;;;348.7062334;349.8869628;349.8869628;349.8869628;349.8869628;349.8869628;349.8869628;349.8869628;349.8869628;None;0;;;C:\2023\REPSWITCH21092023\REPSWITCH_excgange\REPSWITCH_excgange\data/090101_REPSWITCH1_version1_list1_2023-11-22_13h45.01.739_micRespv1l1_recorded\recording_micRespv1l1_2023-11-22_13h50.45.272.wav;352.9082256;353.4082349;None;352.9082256;352.9082256;352.9082256;352.9082256;352.9082256;352.9082256;;;;;;90101;1;2023-11-22_13h45.01.739;REPSWITCH1_version1_list1;2022.2.4;143.9942862
REPSWITCH1/PICTURE_271.png;conejo;type;darkblue;nontarget;1;NT;3;1;1;1;Stim7_Set3;1;switch;72;71;72;0;71;71;71;;;;;;;;;;;;;;;;;;;;;;;353.4082349;354.4709057;354.4709057;354.4709057;354.4709057;354.4709057;354.4709057;354.4709057;354.4709057;['o', 'c', 'v', 'backspace', 'backspace', 'c', 'o', 'n', 'e', 'j', 'o'];0;[1.0454103001393378, 1.070385100087151, 1.0713756000623107, 1.5209164000116289, 1.6494898002129048, 1.8289327002130449, 1.9484871001914144, 2.1647483000997454, 2.3173068000469357, 2.495668100193143, 2.6654236000031233];conejo;C:\2023\REPSWITCH21092023\REPSWITCH_excgange\REPSWITCH_excgange\data/090101_REPSWITCH1_version1_list1_2023-11-22_13h45.01.739_micRespv1l1_recorded\recording_micRespv1l1_2023-11-22_13h50.49.856.wav;357.4920727;357.9921743;None;357.4920727;357.4920727;357.4920727;357.4920727;357.4920727;357.4920727;;;;;;90101;1;2023-11-22_13h45.01.739;REPSWITCH1_version1_list1;2022.2.4;143.9942862
REPSWITCH1/PICTURE_271.png;conejo;type;darkblue;repeat;1;T;3;1;1;1;Stim7_Set3;0;None;73;72;73;0;72;72;72;;;;;;;;;;;;;;;;;;;;;;;357.9921743;359.0547878;359.0547878;359.0547878;359.0547878;359.0547878;359.0547878;359.0547878;359.0547878;['c', 'o', 'n', 'e', 'j', 'o'];0;[0.4721853998489678, 0.5250142998993397, 0.7264026999473572, 0.96096789999865, 1.086521300021559, 1.201169699896127];conejo;C:\2023\REPSWITCH21092023\REPSWITCH_excgange\REPSWITCH_excgange\data/090101_REPSWITCH1_version1_list1_2023-11-22_13h45.01.739_micRespv1l1_recorded\recording_micRespv1l1_2023-11-22_13h50.54.439.wav;362.0830258;;None;362.0830258;362.0830258;362.0830258;362.0830258;362.0830258;362.0830258;;;;;;90101;1;2023-11-22_13h45.01.739;REPSWITCH1_version1_list1;2022.2.4;143.9942862
REPSWITCH1/PICTURE_446.png;cerdo;speak;gold;filler;2;F;3;1;1;1;Stim7_Set2;0;None;74;73;74;0;73;73;73;;;;;;;;;;;;;;;;;;;;;;;362.5830458;363.6665455;363.6665455;363.6665455;363.6665455;363.6665455;363.6665455;363.6665455;363.6665455;None;0;;;C:\2023\REPSWITCH21092023\REPSWITCH_excgange\REPSWITCH_excgange\data/090101_REPSWITCH1_version1_list1_2023-11-22_13h45.01.739_micRespv1l1_recorded\recording_micRespv1l1_2023-11-22_13h50.59.052.wav;366.6947511;;None;366.6947511;366.6947511;366.6947511;366.6947511;366.6947511;366.6947511;;;;;;90101;1;2023-11-22_13h45.01.739;REPSWITCH1_version1_list1;2022.2.4;143.9942862
REPSWITCH1/PICTURE_199.png;falda;type;darkblue;filler;1;F;3;1;1;1;Stim8_Set2;1;switch;75;74;75;0;74;74;74;;;;;;;;;;;;;;;;;;;;;;;367.1947637;368.326904;368.326904;368.326904;368.326904;368.326904;368.326904;368.326904;368.326904;['f', 'a', 'l', 'd', 'a'];0;[0.6749437001999468, 0.7865656001958996, 0.8404691000469029, 0.9530023999977857, 1.025762700010091];falda;C:\2023\REPSWITCH21092023\REPSWITCH_excgange\REPSWITCH_excgange\data/090101_REPSWITCH1_version1_list1_2023-11-22_13h45.01.739_micRespv1l1_recorded\recording_micRespv1l1_2023-11-22_13h51.03.711.wav;371.3481677;371.8482199;None;371.3481677;371.3481677;371.3481677;371.3481677;371.3481677;371.3481677;;;;;;90101;1;2023-11-22_13h45.01.739;REPSWITCH1_version1_list1;2022.2.4;143.9942862
REPSWITCH1/PICTURE_320.png;iglesia;type;darkblue;nontarget;1;NT;3;1;1;1;Stim8_Set3;1;repeat;76;75;76;0;75;75;75;;;;;;;;;;;;;;;;;;;;;;;371.8482199;372.9663378;372.9663378;372.9663378;372.9663378;372.9663378;372.9663378;372.9663378;372.9663378;['i', 'g', 'l', 'e', 's', 'i', 'a'];0;[0.8666409999132156, 1.056625499855727, 1.194991499884054, 1.27475899993442, 1.3804120998829603, 1.4491371000185609, 1.5903976999688894];iglesia;C:\2023\REPSWITCH21092023\REPSWITCH_excgange\REPSWITCH_excgange\data/090101_REPSWITCH1_version1_list1_2023-11-22_13h45.01.739_micRespv1l1_recorded\recording_micRespv1l1_2023-11-22_13h51.08.351.wav;375.98755;376.487625;None;375.98755;375.98755;375.98755;375.98755;375.98755;375.98755;;;;;;90101;1;2023-11-22_13h45.01.739;REPSWITCH1_version1_list1;2022.2.4;143.9942862
REPSWITCH1/PICTURE_320.png;iglesia;type;darkblue;repeat;1;T;3;1;1;1;Stim8_Set3;0;None;77;76;77;0;76;76;76;;;;;;;;;;;;;;;;;;;;;;;376.487625;377.605834;377.605834;377.605834;377.605834;377.605834;377.605834;377.605834;377.605834;['i', 'g', 'l', 'e', 's', 'i', 'a'];0;[0.9240784000139683, 1.1403775000944734, 1.3190997000783682, 1.3985800000373274, 1.4892629999667406, 1.5550300001632422, 1.6875905999913812];iglesia;C:\2023\REPSWITCH21092023\REPSWITCH_excgange\REPSWITCH_excgange\data/090101_REPSWITCH1_version1_list1_2023-11-22_13h45.01.739_micRespv1l1_recorded\recording_micRespv1l1_2023-11-22_13h51.12.991.wav;380.6340507;;None;380.6340507;380.6340507;380.6340507;380.6340507;380.6340507;380.6340507;;;;;;90101;1;2023-11-22_13h45.01.739;REPSWITCH1_version1_list1;2022.2.4;143.9942862
REPSWITCH1/PICTURE_576.png;guante;speak;gold;filler;2;F;4;1;1;1;Stim1_Set3;0;None;78;77;78;0;77;77;77;;;;;;;;;;;;;;;;;;;;;;;381.1340942;382.2314443;382.2314443;382.2314443;382.2314443;382.2314443;382.2314443;382.2314443;382.2314443;None;0;;;C:\2023\REPSWITCH21092023\REPSWITCH_excgange\REPSWITCH_excgange\data/090101_REPSWITCH1_version1_list1_2023-11-22_13h45.01.739_micRespv1l1_recorded\recording_micRespv1l1_2023-11-22_13h51.17.616.wav;385.2526551;385.7527439;None;385.2526551;385.2526551;385.2526551;385.2526551;385.2526551;385.2526551;;;;;;90101;1;2023-11-22_13h45.01.739;REPSWITCH1_version1_list1;2022.2.4;143.9942862
REPSWITCH1/PICTURE_319.png;vaca;type;darkblue;nontarget;1;NT;4;1;1;1;Stim1_Set4;1;switch;79;78;79;0;78;78;78;;;;;;;;;;;;;;;;;;;;;;;385.7527439;386.8779116;386.8779116;386.8779116;386.8779116;386.8779116;386.8779116;386.8779116;386.8779116;['v', 'a', 'c', 'a'];0;[0.969552299939096, 1.0682286999654025, 1.245636599836871, 1.3223761999979615];vaca;C:\2023\REPSWITCH21092023\REPSWITCH_excgange\REPSWITCH_excgange\data/090101_REPSWITCH1_version1_list1_2023-11-22_13h45.01.739_micRespv1l1_recorded\recording_micRespv1l1_2023-11-22_13h51.22.262.wav;389.8992016;390.3992663;None;389.8992016;389.8992016;389.8992016;389.8992016;389.8992016;389.8992016;;;;;;90101;1;2023-11-22_13h45.01.739;REPSWITCH1_version1_list1;2022.2.4;143.9942862
REPSWITCH1/PICTURE_319.png;vaca;type;darkblue;repeat;1;T;4;1;1;1;Stim1_Set4;0;None;80;79;80;0;79;79;79;;;;;;;;;;;;;;;;;;;;;;;390.3992663;391.427125;391.427125;391.427125;391.427125;391.427125;391.427125;391.427125;391.427125;['v', 'a', 'c', 'a'];0;[0.7926036999560893, 0.904112100135535, 0.9947741001378745, 1.0864723999984562];vaca;C:\2023\REPSWITCH21092023\REPSWITCH_excgange\REPSWITCH_excgange\data/090101_REPSWITCH1_version1_list1_2023-11-22_13h45.01.739_micRespv1l1_recorded\recording_micRespv1l1_2023-11-22_13h51.26.812.wav;394.4552836;;None;394.4552836;394.4552836;394.4552836;394.4552836;394.4552836;394.4552836;;;;;;90101;1;2023-11-22_13h45.01.739;REPSWITCH1_version1_list1;2022.2.4;143.9942862
REPSWITCH1/PICTURE_719.png;baño;type;darkblue;nontarget;1;NT;4;1;1;1;Stim2_Set4;0;None;81;80;81;0;80;80;80;;;;;;;;;;;;;;;;;;;;;;;394.9553576;396.0457711;396.0457711;396.0457711;396.0457711;396.0457711;396.0457711;396.0457711;396.0457711;['b', 'a', 'ñ', 'o'];0;[1.180515900021419, 1.2452980999369174, 1.655961100012064, 2.186893400037661];baño;C:\2023\REPSWITCH21092023\REPSWITCH_excgange\REPSWITCH_excgange\data/090101_REPSWITCH1_version1_list1_2023-11-22_13h45.01.739_micRespv1l1_recorded\recording_micRespv1l1_2023-11-22_13h51.31.430.wav;399.0669702;399.5670726;None;399.0669702;399.0669702;399.0669702;399.0669702;399.0669702;399.0669702;;;;;;90101;1;2023-11-22_13h45.01.739;REPSWITCH1_version1_list1;2022.2.4;143.9942862
REPSWITCH1/PICTURE_719.png;baño;speak;gold;switch;2;T;4;1;1;1;Stim2_Set4;0;None;82;81;82;0;81;81;81;;;;;;;;;;;;;;;;;;;;;;;399.5670726;400.6436091;400.6436091;400.6436091;400.6436091;400.6436091;400.6436091;400.6436091;400.6436091;None;0;;;C:\2023\REPSWITCH21092023\REPSWITCH_excgange\REPSWITCH_excgange\data/090101_REPSWITCH1_version1_list1_2023-11-22_13h45.01.739_micRespv1l1_recorded\recording_micRespv1l1_2023-11-22_13h51.36.029.wav;403.671775;;None;403.671775;403.671775;403.671775;403.671775;403.671775;403.671775;;;;;;90101;1;2023-11-22_13h45.01.739;REPSWITCH1_version1_list1;2022.2.4;143.9942862
REPSWITCH1/PICTURE_242.png;cartero;speak;gold;filler;2;F;4;1;1;1;Stim3_Set3;1;repeat;83;82;83;0;82;82;82;;;;;;;;;;;;;;;;;;;;;;;404.1718401;405.2831084;405.2831084;405.2831084;405.2831084;405.2831084;405.2831084;405.2831084;405.2831084;None;0;;;C:\2023\REPSWITCH21092023\REPSWITCH_excgange\REPSWITCH_excgange\data/090101_REPSWITCH1_version1_list1_2023-11-22_13h45.01.739_micRespv1l1_recorded\recording_micRespv1l1_2023-11-22_13h51.40.667.wav;408.3043681;408.8043672;None;408.3043681;408.3043681;408.3043681;408.3043681;408.3043681;408.3043681;;;;;;90101;1;2023-11-22_13h45.01.739;REPSWITCH1_version1_list1;2022.2.4;143.9942862
REPSWITCH1/PICTURE_610.png;miel;type;darkblue;filler;1;F;4;1;1;1;Stim2_Set3;0;None;84;83;84;0;83;83;83;;;;;;;;;;;;;;;;;;;;;;;408.8043672;409.8670227;409.8670227;409.8670227;409.8670227;409.8670227;409.8670227;409.8670227;409.8670227;['m', 'i', 'e', 'l'];0;[0.770293700043112, 0.9848523000255227, 1.1392991000320762, 1.207094500074163];miel;C:\2023\REPSWITCH21092023\REPSWITCH_excgange\REPSWITCH_excgange\data/090101_REPSWITCH1_version1_list1_2023-11-22_13h45.01.739_micRespv1l1_recorded\recording_micRespv1l1_2023-11-22_13h51.45.252.wav;412.8952028;;None;412.8952028;412.8952028;412.8952028;412.8952028;412.8952028;412.8952028;;;;;;90101;1;2023-11-22_13h45.01.739;REPSWITCH1_version1_list1;2022.2.4;143.9942862
REPSWITCH1/PICTURE_8.png;pierna;speak;gold;nontarget;2;NT;4;1;1;1;Stim3_Set4;1;switch;85;84;85;0;84;84;84;;;;;;;;;;;;;;;;;;;;;;;413.3952705;414.437098;414.437098;414.437098;414.437098;414.437098;414.437098;414.437098;414.437098;None;0;;;C:\2023\REPSWITCH21092023\REPSWITCH_excgange\REPSWITCH_excgange\data/090101_REPSWITCH1_version1_list1_2023-11-22_13h45.01.739_micRespv1l1_recorded\recording_micRespv1l1_2023-11-22_13h51.49.822.wav;417.4582852;417.9583832;None;417.4582852;417.4582852;417.4582852;417.4582852;417.4582852;417.4582852;;;;;;90101;1;2023-11-22_13h45.01.739;REPSWITCH1_version1_list1;2022.2.4;143.9942862
REPSWITCH1/PICTURE_8.png;pierna;speak;gold;repeat;2;T;4;1;1;1;Stim3_Set4;0;None;86;85;86;0;85;85;85;;;;;;;;;;;;;;;;;;;;;;;417.9583832;419.0835011;419.0835011;419.0835011;419.0835011;419.0835011;419.0835011;419.0835011;419.0835011;None;0;;;C:\2023\REPSWITCH21092023\REPSWITCH_excgange\REPSWITCH_excgange\data/090101_REPSWITCH1_version1_list1_2023-11-22_13h45.01.739_micRespv1l1_recorded\recording_micRespv1l1_2023-11-22_13h51.54.468.wav;422.1048234;422.6048559;None;422.1048234;422.1048234;422.1048234;422.1048234;422.1048234;422.1048234;;;;;;90101;1;2023-11-22_13h45.01.739;REPSWITCH1_version1_list1;2022.2.4;143.9942862
REPSWITCH1/PICTURE_498.png;taza;speak;gold;nontarget;2;NT;4;1;1;1;Stim4_Set4;1;repeat;87;86;87;0;86;86;86;;;;;;;;;;;;;;;;;;;;;;;422.6048559;423.7785963;423.7785963;423.7785963;423.7785963;423.7785963;423.7785963;423.7785963;423.7785963;None;0;;;C:\2023\REPSWITCH21092023\REPSWITCH_excgange\REPSWITCH_excgange\data/090101_REPSWITCH1_version1_list1_2023-11-22_13h45.01.739_micRespv1l1_recorded\recording_micRespv1l1_2023-11-22_13h51.59.163.wav;426.7998587;427.2998767;None;426.7998587;426.7998587;426.7998587;426.7998587;426.7998587;426.7998587;;;;;;90101;1;2023-11-22_13h45.01.739;REPSWITCH1_version1_list1;2022.2.4;143.9942862
REPSWITCH1/PICTURE_498.png;taza;type;darkblue;switch;1;T;4;1;1;1;Stim4_Set4;0;None;88;87;88;0;87;87;87;;;;;;;;;;;;;;;;;;;;;;;427.2998767;428.4319552;428.4319552;428.4319552;428.4319552;428.4319552;428.4319552;428.4319552;428.4319552;['t', 'z', 'backspace', 'a', 'z', 'a'];0;[0.9354350999929011, 1.2566390000283718, 1.696649300167337, 1.7873434000648558, 1.8976484001614153, 2.040422599995509];taza;C:\2023\REPSWITCH21092023\REPSWITCH_excgange\REPSWITCH_excgange\data/090101_REPSWITCH1_version1_list1_2023-11-22_13h45.01.739_micRespv1l1_recorded\recording_micRespv1l1_2023-11-22_13h52.03.817.wav;431.4532013;431.9532482;None;431.4532013;431.4532013;431.4532013;431.4532013;431.4532013;431.4532013;;;;;;90101;1;2023-11-22_13h45.01.739;REPSWITCH1_version1_list1;2022.2.4;143.9942862
REPSWITCH1/PICTURE_235.png;aguja;speak;gold;filler;2;F;4;1;1;1;Stim4_Set3;0;None;89;88;89;0;88;88;88;;;;;;;;;;;;;;;;;;;;;;;431.9532482;433.0645806;433.0645806;433.0645806;433.0645806;433.0645806;433.0645806;433.0645806;433.0645806;None;0;;;C:\2023\REPSWITCH21092023\REPSWITCH_excgange\REPSWITCH_excgange\data/090101_REPSWITCH1_version1_list1_2023-11-22_13h45.01.739_micRespv1l1_recorded\recording_micRespv1l1_2023-11-22_13h52.08.450.wav;436.0857124;436.5858946;None;436.0857124;436.0857124;436.0857124;436.0857124;436.0857124;436.0857124;;;;;;90101;1;2023-11-22_13h45.01.739;REPSWITCH1_version1_list1;2022.2.4;143.9942862
REPSWITCH1/PICTURE_35.png;oreja;type;darkblue;filler;1;F;4;1;1;1;Stim5_Set3;0;None;90;89;90;0;89;89;89;;;;;;;;;;;;;;;;;;;;;;;436.5858946;437.794368;437.794368;437.794368;437.794368;437.794368;437.794368;437.794368;437.794368;['o', 'r', 'e', 'j', 'a'];0;[0.9897939001675695, 1.1067498000338674, 1.1755187001544982, 1.2612290000542998, 1.376858300063759];oreja;C:\2023\REPSWITCH21092023\REPSWITCH_excgange\REPSWITCH_excgange\data/090101_REPSWITCH1_version1_list1_2023-11-22_13h45.01.739_micRespv1l1_recorded\recording_micRespv1l1_2023-11-22_13h52.13.179.wav;440.8224537;;None;440.8224537;440.8224537;440.8224537;440.8224537;440.8224537;440.8224537;;;;;;90101;1;2023-11-22_13h45.01.739;REPSWITCH1_version1_list1;2022.2.4;143.9942862
REPSWITCH1/PICTURE_687.png;camisa;type;darkblue;nontarget;1;NT;4;1;1;1;Stim5_Set4;1;repeat;91;90;91;0;90;90;90;;;;;;;;;;;;;;;;;;;;;;;441.3225108;442.4199134;442.4199134;442.4199134;442.4199134;442.4199134;442.4199134;442.4199134;442.4199134;['c', 'a', 'm', 's', 'i', 'a', 'backspace', 'backspace', 'i', 's', 'a'];0;[0.8490055999718606, 0.9339001998305321, 1.0274977998342365, 1.2219670999329537, 1.2229104998987168, 1.3627901999279857, 1.9577397999819368, 2.124753199983388, 2.6117036999203265, 2.7014458999037743, 2.7662225998938084];camsisa;C:\2023\REPSWITCH21092023\REPSWITCH_excgange\REPSWITCH_excgange\data/090101_REPSWITCH1_version1_list1_2023-11-22_13h45.01.739_micRespv1l1_recorded\recording_micRespv1l1_2023-11-22_13h52.17.805.wav;445.4411809;445.9412074;None;445.4411809;445.4411809;445.4411809;445.4411809;445.4411809;445.4411809;;;;;;90101;1;2023-11-22_13h45.01.739;REPSWITCH1_version1_list1;2022.2.4;143.9942862
REPSWITCH1/PICTURE_687.png;camisa;speak;gold;switch;2;T;4;1;1;1;Stim5_Set4;0;None;92;91;92;0;91;91;91;;;;;;;;;;;;;;;;;;;;;;;445.9412074;447.045539;447.045539;447.045539;447.045539;447.045539;447.045539;447.045539;447.045539;None;0;;;C:\2023\REPSWITCH21092023\REPSWITCH_excgange\REPSWITCH_excgange\data/090101_REPSWITCH1_version1_list1_2023-11-22_13h45.01.739_micRespv1l1_recorded\recording_micRespv1l1_2023-11-22_13h52.22.430.wav;450.0667137;450.566816;None;450.0667137;450.0667137;450.0667137;450.0667137;450.0667137;450.0667137;;;;;;90101;1;2023-11-22_13h45.01.739;REPSWITCH1_version1_list1;2022.2.4;143.9942862
REPSWITCH1/PICTURE_338.png;regalo;speak;gold;nontarget;2;NT;4;1;1;1;Stim6_Set4;0;None;93;92;93;0;92;92;92;;;;;;;;;;;;;;;;;;;;;;;450.566816;451.7683587;451.7683587;451.7683587;451.7683587;451.7683587;451.7683587;451.7683587;451.7683587;None;0;;;C:\2023\REPSWITCH21092023\REPSWITCH_excgange\REPSWITCH_excgange\data/090101_REPSWITCH1_version1_list1_2023-11-22_13h45.01.739_micRespv1l1_recorded\recording_micRespv1l1_2023-11-22_13h52.27.152.wav;454.7896354;455.2896591;None;454.7896354;454.7896354;454.7896354;454.7896354;454.7896354;454.7896354;;;;;;90101;1;2023-11-22_13h45.01.739;REPSWITCH1_version1_list1;2022.2.4;143.9942862
REPSWITCH1/PICTURE_338.png;regalo;speak;gold;repeat;2;T;4;1;1;1;Stim6_Set4;0;None;94;93;94;0;93;93;93;;;;;;;;;;;;;;;;;;;;;;;455.2896591;456.4982238;456.4982238;456.4982238;456.4982238;456.4982238;456.4982238;456.4982238;456.4982238;None;0;;;C:\2023\REPSWITCH21092023\REPSWITCH_excgange\REPSWITCH_excgange\data/090101_REPSWITCH1_version1_list1_2023-11-22_13h45.01.739_micRespv1l1_recorded\recording_micRespv1l1_2023-11-22_13h52.31.883.wav;459.5193447;460.0194065;None;459.5193447;459.5193447;459.5193447;459.5193447;459.5193447;459.5193447;;;;;;90101;1;2023-11-22_13h45.01.739;REPSWITCH1_version1_list1;2022.2.4;143.9942862
REPSWITCH1/PICTURE_663.png;columna;type;darkblue;filler;1;F;4;1;1;1;Extra6;0;None;95;94;95;0;94;94;94;;;;;;;;;;;;;;;;;;;;;;;460.0194065;461.0543218;461.0543218;461.0543218;461.0543218;461.0543218;461.0543218;461.0543218;461.0543218;['c', 'o', 'l', 'l', 'backspace', 'u', 'm', 'n', 'a'];0;[0.9041285999119282, 0.9600839000195265, 1.3104644999839365, 1.35132239991799, 1.7607493998948485, 2.31827410007827, 2.5412173999939114, 2.6976896999403834, 2.797418700065464];columna;C:\2023\REPSWITCH21092023\REPSWITCH_excgange\REPSWITCH_excgange\data/090101_REPSWITCH1_version1_list1_2023-11-22_13h45.01.739_micRespv1l1_recorded\recording_micRespv1l1_2023-11-22_13h52.36.439.wav;464.0755126;464.5755595;None;464.0755126;464.0755126;464.0755126;464.0755126;464.0755126;464.0755126;;;;;;90101;1;2023-11-22_13h45.01.739;REPSWITCH1_version1_list1;2022.2.4;143.9942862
REPSWITCH1/PICTURE_271.png;conejo;speak;gold;filler;2;F;4;1;1;1;Stim7_Set3;0;None;96;95;96;0;95;95;95;;;;;;;;;;;;;;;;;;;;;;;464.5755595;465.631372;465.631372;465.631372;465.631372;465.631372;465.631372;465.631372;465.631372;None;0;;;C:\2023\REPSWITCH21092023\REPSWITCH_excgange\REPSWITCH_excgange\data/090101_REPSWITCH1_version1_list1_2023-11-22_13h45.01.739_micRespv1l1_recorded\recording_micRespv1l1_2023-11-22_13h52.41.017.wav;468.6595151;;None;468.6595151;468.6595151;468.6595151;468.6595151;468.6595151;468.6595151;;;;;;90101;1;2023-11-22_13h45.01.739;REPSWITCH1_version1_list1;2022.2.4;143.9942862
REPSWITCH1/PICTURE_48.png;bombero;speak;gold;nontarget;2;NT;4;1;1;1;Stim7_Set4;0;None;97;96;97;0;96;96;96;;;;;;;;;;;;;;;;;;;;;;;469.1595793;470.2985521;470.2985521;470.2985521;470.2985521;470.2985521;470.2985521;470.2985521;470.2985521;None;0;;;C:\2023\REPSWITCH21092023\REPSWITCH_excgange\REPSWITCH_excgange\data/090101_REPSWITCH1_version1_list1_2023-11-22_13h45.01.739_micRespv1l1_recorded\recording_micRespv1l1_2023-11-22_13h52.45.683.wav;473.3198233;473.8198484;None;473.3198233;473.3198233;473.3198233;473.3198233;473.3198233;473.3198233;;;;;;90101;1;2023-11-22_13h45.01.739;REPSWITCH1_version1_list1;2022.2.4;143.9942862
REPSWITCH1/PICTURE_48.png;bombero;type;darkblue;switch;1;T;4;1;1;1;Stim7_Set4;0;None;98;97;98;0;97;97;97;;;;;;;;;;;;;;;;;;;;;;;473.8198484;474.9658906;474.9658906;474.9658906;474.9658906;474.9658906;474.9658906;474.9658906;474.9658906;['v', 'o', 'backspace', 'backspace', 'b', 'o', 'm', 'b', 'e', 'r', 'o'];0;[0.6313038999214768, 0.7180000999942422, 1.1154936999082565, 1.2430698000825942, 1.389246900100261, 1.4620254000183195, 1.6676300999242812, 1.7735206000506878, 1.8442756000440568, 2.0117130000144243, 2.0415850998833776];bombero;C:\2023\REPSWITCH21092023\REPSWITCH_excgange\REPSWITCH_excgange\data/090101_REPSWITCH1_version1_list1_2023-11-22_13h45.01.739_micRespv1l1_recorded\recording_micRespv1l1_2023-11-22_13h52.50.351.wav;477.9940467;;None;477.9940467;477.9940467;477.9940467;477.9940467;477.9940467;477.9940467;;;;;;90101;1;2023-11-22_13h45.01.739;REPSWITCH1_version1_list1;2022.2.4;143.9942862
REPSWITCH1/PICTURE_728.png;pulpo;type;darkblue;nontarget;1;NT;4;1;1;1;Stim8_Set4;0;None;99;98;99;0;98;98;98;;;;;;;;;;;;;;;;;;;;;;;478.4940924;479.6678521;479.6678521;479.6678521;479.6678521;479.6678521;479.6678521;479.6678521;479.6678521;['p', 'u', 'p', 'backspace', 'l', 'p', 'o'];0;[0.7167437998577952, 0.9273279998451471, 1.3152693998999894, 1.9308832997921854, 2.2089121998287737, 2.317542999982834, 2.3947597998194396];pulpo;C:\2023\REPSWITCH21092023\REPSWITCH_excgange\REPSWITCH_excgange\data/090101_REPSWITCH1_version1_list1_2023-11-22_13h45.01.739_micRespv1l1_recorded\recording_micRespv1l1_2023-11-22_13h52.55.052.wav;482.6960348;483.196095;None;482.6960348;482.6960348;482.6960348;482.6960348;482.6960348;482.6960348;;;;;;90101;1;2023-11-22_13h45.01.739;REPSWITCH1_version1_list1;2022.2.4;143.9942862
REPSWITCH1/PICTURE_728.png;pulpo;type;darkblue;repeat;1;T;4;1;1;1;Stim8_Set4;0;None;100;99;100;0;99;99;99;;;;;;;;;;;;;;;;;;;;;;;483.196095;484.2934722;484.2934722;484.2934722;484.2934722;484.2934722;484.2934722;484.2934722;484.2934722;['p', 'u', 'l', 'p', 'o'];0;[0.6975138999987394, 1.5608276999555528, 1.6495560000184923, 1.8097494000103325, 1.986157399835065];pulpo;C:\2023\REPSWITCH21092023\REPSWITCH_excgange\REPSWITCH_excgange\data/090101_REPSWITCH1_version1_list1_2023-11-22_13h45.01.739_micRespv1l1_recorded\recording_micRespv1l1_2023-11-22_13h52.59.679.wav;487.3147044;487.8147628;None;487.3147044;487.3147044;487.3147044;487.3147044;487.3147044;487.3147044;;;;;;90101;1;2023-11-22_13h45.01.739;REPSWITCH1_version1_list1;2022.2.4;143.9942862
REPSWITCH1/PICTURE_320.png;iglesia;speak;gold;filler;1;F;4;1;1;1;Stim8_Set3;0;None;101;100;101;0;100;100;100;;;;;;;;;;;;;;;;;;;;;;;487.8147628;488.8773767;488.8773767;488.8773767;488.8773767;488.8773767;488.8773767;488.8773767;488.8773767;None;0;;;C:\2023\REPSWITCH21092023\REPSWITCH_excgange\REPSWITCH_excgange\data/090101_REPSWITCH1_version1_list1_2023-11-22_13h45.01.739_micRespv1l1_recorded\recording_micRespv1l1_2023-11-22_13h53.04.262.wav;491.9055322;;None;491.9055322;491.9055322;491.9055322;491.9055322;491.9055322;491.9055322;;;;;;90101;1;2023-11-22_13h45.01.739;REPSWITCH1_version1_list1;2022.2.4;143.9942862
REPSWITCH1/PICTURE_464.png;goma;type;darkblue;filler;1;F;4;1;1;1;Stim6_Set3;0;None;102;101;102;0;101;101;101;;;;;;;;;;;;;;;;;;;;;;;492.4056368;493.5377911;493.5377911;493.5377911;493.5377911;493.5377911;493.5377911;493.5377911;493.5377911;['g', 'o', 'm', 'a'];0;[0.898092299932614, 0.967844600090757, 1.2148277999367565, 1.319564800010994];goma;C:\2023\REPSWITCH21092023\REPSWITCH_excgange\REPSWITCH_excgange\data/090101_REPSWITCH1_version1_list1_2023-11-22_13h45.01.739_micRespv1l1_recorded\recording_micRespv1l1_2023-11-22_13h53.08.922.wav;496.5590316;497.0590418;space;496.5590316;496.5590316;496.5590316;496.5590316;496.5590316;496.5590316;497.0590418;497.0590418;8.0598166;;;90101;1;2023-11-22_13h45.01.739;REPSWITCH1_version1_list1;2022.2.4;143.9942862
REPSWITCH1/PICTURE_663.png;columna;type;darkblue;filler;1;F;1;2;1;1;Extra6;0;None;103;102;1;0;102;102;102;;;;;;;;;;;;;;;;;;;;;;;505.1295096;506.1504941;506.1504941;506.1504941;506.1504941;506.1504941;506.1504941;506.1504941;506.1504941;['v', 'o', 'l', 'u', 'm', 'n', 'backspace', 'backspace', 'backspace', 'backspace', 'backspace', 'backspace', 'c', 'o', 'l'];0;[0.7461947000119835, 0.807984699960798, 0.9596828001085669, 1.1739533001091331, 1.3627402000129223, 1.5677800001576543, 1.8727847000118345, 1.9953487000893801, 2.1289605000056326, 2.2427604999393225, 2.3593641000334173, 2.4530432999599725, 2.688580600079149, 2.7504028000403196, 2.8928708999883384];col;C:\2023\REPSWITCH21092023\REPSWITCH_excgange\REPSWITCH_excgange\data/090101_REPSWITCH1_version1_list1_2023-11-22_13h45.01.739_micRespv1l1_recorded\recording_micRespv1l1_2023-11-22_13h53.21.535.wav;509.1717328;509.6717908;None;509.1717328;509.1717328;509.1717328;509.1717328;509.1717328;509.1717328;;;;;;90101;1;2023-11-22_13h45.01.739;REPSWITCH1_version1_list1;2022.2.4;143.9942862
REPSWITCH1/PICTURE_128.png;muñeca;speak;gold;nontarget;2;NT;1;2;1;1;Stim4_Set1;1;switch;104;103;2;0;103;103;103;;;;;;;;;;;;;;;;;;;;;;;509.6717908;510.6857985;510.6857985;510.6857985;510.6857985;510.6857985;510.6857985;510.6857985;510.6857985;None;0;;;C:\2023\REPSWITCH21092023\REPSWITCH_excgange\REPSWITCH_excgange\data/090101_REPSWITCH1_version1_list1_2023-11-22_13h45.01.739_micRespv1l1_recorded\recording_micRespv1l1_2023-11-22_13h53.26.071.wav;513.7070916;514.207114;None;513.7070916;513.7070916;513.7070916;513.7070916;513.7070916;513.7070916;;;;;;90101;1;2023-11-22_13h45.01.739;REPSWITCH1_version1_list1;2022.2.4;143.9942862
REPSWITCH1/PICTURE_128.png;muñeca;speak;gold;repeat;2;T;1;2;1;1;Stim4_Set1;0;None;105;104;3;0;104;104;104;;;;;;;;;;;;;;;;;;;;;;;514.207114;515.2697339;515.2697339;515.2697339;515.2697339;515.2697339;515.2697339;515.2697339;515.2697339;None;0;;;C:\2023\REPSWITCH21092023\REPSWITCH_excgange\REPSWITCH_excgange\data/090101_REPSWITCH1_version1_list1_2023-11-22_13h45.01.739_micRespv1l1_recorded\recording_micRespv1l1_2023-11-22_13h53.30.654.wav;518.2909884;518.7910471;None;518.2909884;518.2909884;518.2909884;518.2909884;518.2909884;518.2909884;;;;;;90101;1;2023-11-22_13h45.01.739;REPSWITCH1_version1_list1;2022.2.4;143.9942862
REPSWITCH1/PICTURE_8.png;pierna;type;darkblue;filler;1;F;1;2;1;1;Stim3_Set4;0;None;106;105;4;0;105;105;105;;;;;;;;;;;;;;;;;;;;;;;518.7910471;519.8536748;519.8536748;519.8536748;519.8536748;519.8536748;519.8536748;519.8536748;519.8536748;['p', 'i', 'e', 'r', 'n', 'a'];0;[0.9080280000343919, 1.106760400114581, 1.1841227000113577, 1.2479593001771718, 1.3536082999780774, 1.4612716999836266];pierna;C:\2023\REPSWITCH21092023\REPSWITCH_excgange\REPSWITCH_excgange\data/090101_REPSWITCH1_version1_list1_2023-11-22_13h45.01.739_micRespv1l1_recorded\recording_micRespv1l1_2023-11-22_13h53.35.238.wav;522.8749078;523.3749776;None;522.8749078;522.8749078;522.8749078;522.8749078;522.8749078;522.8749078;;;;;;90101;1;2023-11-22_13h45.01.739;REPSWITCH1_version1_list1;2022.2.4;143.9942862
REPSWITCH1/PICTURE_135.png;traje;speak;gold;nontarget;2;NT;1;2;1;1;Stim3_Set1;1;switch;107;106;5;0;106;106;106;;;;;;;;;;;;;;;;;;;;;;;523.3749776;524.3960238;524.3960238;524.3960238;524.3960238;524.3960238;524.3960238;524.3960238;524.3960238;None;0;;;C:\2023\REPSWITCH21092023\REPSWITCH_excgange\REPSWITCH_excgange\data/090101_REPSWITCH1_version1_list1_2023-11-22_13h45.01.739_micRespv1l1_recorded\recording_micRespv1l1_2023-11-22_13h53.39.781.wav;527.4241278;;None;527.4241278;527.4241278;527.4241278;527.4241278;527.4241278;527.4241278;;;;;;90101;1;2023-11-22_13h45.01.739;REPSWITCH1_version1_list1;2022.2.4;143.9942862
REPSWITCH1/PICTURE_135.png;traje;speak;gold;repeat;2;T;1;2;1;1;Stim3_Set1;0;None;108;107;6;0;107;107;107;;;;;;;;;;;;;;;;;;;;;;;527.9241881;528.9659783;528.9659783;528.9659783;528.9659783;528.9659783;528.9659783;528.9659783;528.9659783;None;0;;;C:\2023\REPSWITCH21092023\REPSWITCH_excgange\REPSWITCH_excgange\data/090101_REPSWITCH1_version1_list1_2023-11-22_13h45.01.739_micRespv1l1_recorded\recording_micRespv1l1_2023-11-22_13h53.44.350.wav;531.9872251;532.4872836;None;531.9872251;531.9872251;531.9872251;531.9872251;531.9872251;531.9872251;;;;;;90101;1;2023-11-22_13h45.01.739;REPSWITCH1_version1_list1;2022.2.4;143.9942862
REPSWITCH1/PICTURE_673.png;tenedor;type;darkblue;filler;1;F;1;2;1;1;Extra5;0;None;109;108;7;0;108;108;108;;;;;;;;;;;;;;;;;;;;;;;532.4872836;533.5847233;533.5847233;533.5847233;533.5847233;533.5847233;533.5847233;533.5847233;533.5847233;['t', 'e', 'n', 'e', 'd', 'o', 'r'];0;[0.8815095999743789, 0.9283313998021185, 1.1027365999761969, 1.186526799807325, 1.4007440998684615, 1.4176747999154031, 1.540271099889651];tenedor;C:\2023\REPSWITCH21092023\REPSWITCH_excgange\REPSWITCH_excgange\data/090101_REPSWITCH1_version1_list1_2023-11-22_13h45.01.739_micRespv1l1_recorded\recording_micRespv1l1_2023-11-22_13h53.48.969.wav;536.6059559;537.1059405;None;536.6059559;536.6059559;536.6059559;536.6059559;536.6059559;536.6059559;;;;;;90101;1;2023-11-22_13h45.01.739;REPSWITCH1_version1_list1;2022.2.4;143.9942862
REPSWITCH1/PICTURE_728.png;pulpo;speak;gold;filler;2;F;1;2;1;1;Stim8_Set4;0;None;110;109;8;0;109;109;109;;;;;;;;;;;;;;;;;;;;;;;537.1059405;538.2241748;538.2241748;538.2241748;538.2241748;538.2241748;538.2241748;538.2241748;538.2241748;None;0;;;C:\2023\REPSWITCH21092023\REPSWITCH_excgange\REPSWITCH_excgange\data/090101_REPSWITCH1_version1_list1_2023-11-22_13h45.01.739_micRespv1l1_recorded\recording_micRespv1l1_2023-11-22_13h53.53.609.wav;541.252313;;None;541.252313;541.252313;541.252313;541.252313;541.252313;541.252313;;;;;;90101;1;2023-11-22_13h45.01.739;REPSWITCH1_version1_list1;2022.2.4;143.9942862
REPSWITCH1/PICTURE_16.png;cazador;speak;gold;nontarget;2;NT;1;2;1;1;Stim6_Set1;1;repeat;111;110;9;0;110;110;110;;;;;;;;;;;;;;;;;;;;;;;541.7524413;542.8497749;542.8497749;542.8497749;542.8497749;542.8497749;542.8497749;542.8497749;542.8497749;None;0;;;C:\2023\REPSWITCH21092023\REPSWITCH_excgange\REPSWITCH_excgange\data/090101_REPSWITCH1_version1_list1_2023-11-22_13h45.01.739_micRespv1l1_recorded\recording_micRespv1l1_2023-11-22_13h53.58.234.wav;545.8709803;546.3710407;None;545.8709803;545.8709803;545.8709803;545.8709803;545.8709803;545.8709803;;;;;;90101;1;2023-11-22_13h45.01.739;REPSWITCH1_version1_list1;2022.2.4;143.9942862
REPSWITCH1/PICTURE_16.png;cazador;type;darkblue;switch;1;T;1;2;1;1;Stim6_Set1;0;None;112;111;10;0;111;111;111;;;;;;;;;;;;;;;;;;;;;;;546.3710407;547.5032188;547.5032188;547.5032188;547.5032188;547.5032188;547.5032188;547.5032188;547.5032188;['c', 'a', 'z', 'a', 'd', 'o', 'r'];0;[0.4686817000620067, 0.5414265000727028, 0.8965479999314994, 1.0559728001244366, 1.9951812999788672, 2.110047399997711, 2.2141104999464005];cazador;C:\2023\REPSWITCH21092023\REPSWITCH_excgange\REPSWITCH_excgange\data/090101_REPSWITCH1_version1_list1_2023-11-22_13h45.01.739_micRespv1l1_recorded\recording_micRespv1l1_2023-11-22_13h54.02.888.wav;550.5313057;;None;550.5313057;550.5313057;550.5313057;550.5313057;550.5313057;550.5313057;;;;;;90101;1;2023-11-22_13h45.01.739;REPSWITCH1_version1_list1;2022.2.4;143.9942862
REPSWITCH1/PICTURE_498.png;taza;type;darkblue;filler;1;F;1;2;1;1;Stim4_Set4;1;repeat;113;112;11;0;112;112;112;;;;;;;;;;;;;;;;;;;;;;;551.031436;552.1218287;552.1218287;552.1218287;552.1218287;552.1218287;552.1218287;552.1218287;552.1218287;['t', 'a', 'z', 'a'];0;[1.0285117998719215, 1.0933091000188142, 1.4371581999585032, 1.601932100020349];taza;C:\2023\REPSWITCH21092023\REPSWITCH_excgange\REPSWITCH_excgange\data/090101_REPSWITCH1_version1_list1_2023-11-22_13h45.01.739_micRespv1l1_recorded\recording_micRespv1l1_2023-11-22_13h54.07.507.wav;555.1430156;555.6431035;None;555.1430156;555.1430156;555.1430156;555.1430156;555.1430156;555.1430156;;;;;;90101;1;2023-11-22_13h45.01.739;REPSWITCH1_version1_list1;2022.2.4;143.9942862
REPSWITCH1/PICTURE_381.png;fresa;type;darkblue;nontarget;1;NT;1;2;1;1;Stim2_Set1;1;repeat;114;113;12;0;113;113;113;;;;;;;;;;;;;;;;;;;;;;;555.6431035;556.7058035;556.7058035;556.7058035;556.7058035;556.7058035;556.7058035;556.7058035;556.7058035;['f', 'r', 'e', 's', 'a'];0;[1.0024861001875252, 1.1812695001717657, 1.2699696000199765, 1.5161611000075936, 1.5819246000610292];fresa;C:\2023\REPSWITCH21092023\REPSWITCH_excgange\REPSWITCH_excgange\data/090101_REPSWITCH1_version1_list1_2023-11-22_13h45.01.739_micRespv1l1_recorded\recording_micRespv1l1_2023-11-22_13h54.12.090.wav;559.7269527;560.2270376;None;559.7269527;559.7269527;559.7269527;559.7269527;559.7269527;559.7269527;;;;;;90101;1;2023-11-22_13h45.01.739;REPSWITCH1_version1_list1;2022.2.4;143.9942862
REPSWITCH1/PICTURE_381.png;fresa;speak;gold;switch;2;T;1;2;1;1;Stim2_Set1;0;None;115;114;13;0;114;114;114;;;;;;;;;;;;;;;;;;;;;;;560.2270376;561.3244203;561.3244203;561.3244203;561.3244203;561.3244203;561.3244203;561.3244203;561.3244203;None;0;;;C:\2023\REPSWITCH21092023\REPSWITCH_excgange\REPSWITCH_excgange\data/090101_REPSWITCH1_version1_list1_2023-11-22_13h45.01.739_micRespv1l1_recorded\recording_micRespv1l1_2023-11-22_13h54.16.709.wav;564.3525828;;None;564.3525828;564.3525828;564.3525828;564.3525828;564.3525828;564.3525828;;;;;;90101;1;2023-11-22_13h45.01.739;REPSWITCH1_version1_list1;2022.2.4;143.9942862
REPSWITCH1/PICTURE_178.png;puente;speak;gold;nontarget;2;NT;1;2;1;1;Stim1_Set1;0;None;116;115;14;0;115;115;115;;;;;;;;;;;;;;;;;;;;;;;564.8526548;565.9569588;565.9569588;565.9569588;565.9569588;565.9569588;565.9569588;565.9569588;565.9569588;None;0;;;C:\2023\REPSWITCH21092023\REPSWITCH_excgange\REPSWITCH_excgange\data/090101_REPSWITCH1_version1_list1_2023-11-22_13h45.01.739_micRespv1l1_recorded\recording_micRespv1l1_2023-11-22_13h54.21.342.wav;568.9781517;569.4782646;None;568.9781517;568.9781517;568.9781517;568.9781517;568.9781517;568.9781517;;;;;;90101;1;2023-11-22_13h45.01.739;REPSWITCH1_version1_list1;2022.2.4;143.9942862
REPSWITCH1/PICTURE_178.png;puente;type;darkblue;switch;1;T;1;2;1;1;Stim1_Set1;0;None;117;116;15;0;116;116;116;;;;;;;;;;;;;;;;;;;;;;;569.4782646;570.5895384;570.5895384;570.5895384;570.5895384;570.5895384;570.5895384;570.5895384;570.5895384;['p', 'u', 'e', 'n', 't', 'e'];0;[0.48569190013222396, 0.7398372001480311, 0.8086062001530081, 0.9612893001176417, 1.0240722999442369, 1.1267902001272887];puente;C:\2023\REPSWITCH21092023\REPSWITCH_excgange\REPSWITCH_excgange\data/090101_REPSWITCH1_version1_list1_2023-11-22_13h45.01.739_micRespv1l1_recorded\recording_micRespv1l1_2023-11-22_13h54.25.974.wav;573.6107492;574.1108849;None;573.6107492;573.6107492;573.6107492;573.6107492;573.6107492;573.6107492;;;;;;90101;1;2023-11-22_13h45.01.739;REPSWITCH1_version1_list1;2022.2.4;143.9942862
REPSWITCH1/PICTURE_719.png;baño;speak;gold;filler;2;F;1;2;1;1;Stim2_Set4;0;None;118;117;16;0;117;117;117;;;;;;;;;;;;;;;;;;;;;;;574.1108849;575.1943035;575.1943035;575.1943035;575.1943035;575.1943035;575.1943035;575.1943035;575.1943035;None;0;;;C:\2023\REPSWITCH21092023\REPSWITCH_excgange\REPSWITCH_excgange\data/090101_REPSWITCH1_version1_list1_2023-11-22_13h45.01.739_micRespv1l1_recorded\recording_micRespv1l1_2023-11-22_13h54.30.579.wav;578.2154832;578.7156455;None;578.2154832;578.2154832;578.2154832;578.2154832;578.2154832;578.2154832;;;;;;90101;1;2023-11-22_13h45.01.739;REPSWITCH1_version1_list1;2022.2.4;143.9942862
REPSWITCH1/PICTURE_169.png;espalda;type;darkblue;nontarget;1;NT;1;2;1;1;Stim8_Set1;1;switch;119;118;17;0;118;118;118;;;;;;;;;;;;;;;;;;;;;;;578.7156455;579.7573673;579.7573673;579.7573673;579.7573673;579.7573673;579.7573673;579.7573673;579.7573673;['e', 's', 'p', 'a', 'd', 'backspace', 'l', 'd', 'a'];0;[0.9679650999605656, 1.0447380000259727, 1.4790264999028295, 1.6006177999079227, 1.8860104999039322, 2.221178499981761, 2.516174100106582, 2.599942000117153, 2.6417431998997927];espalda;C:\2023\REPSWITCH21092023\REPSWITCH_excgange\REPSWITCH_excgange\data/090101_REPSWITCH1_version1_list1_2023-11-22_13h45.01.739_micRespv1l1_recorded\recording_micRespv1l1_2023-11-22_13h54.35.142.wav;582.7856007;;None;582.7856007;582.7856007;582.7856007;582.7856007;582.7856007;582.7856007;;;;;;90101;1;2023-11-22_13h45.01.739;REPSWITCH1_version1_list1;2022.2.4;143.9942862
REPSWITCH1/PICTURE_169.png;espalda;type;darkblue;repeat;1;T;1;2;1;1;Stim8_Set1;0;None;120;119;18;0;119;119;119;;;;;;;;;;;;;;;;;;;;;;;583.2856185;584.341307;584.341307;584.341307;584.341307;584.341307;584.341307;584.341307;584.341307;['e', 's', 'p', 'a', 'l', 'd', 'a'];0;[0.703360800165683, 0.8199304000008851, 0.946550500113517, 1.094139200169593, 1.176856999984011, 1.2666202001273632, 1.326372800162062];espalda;C:\2023\REPSWITCH21092023\REPSWITCH_excgange\REPSWITCH_excgange\data/090101_REPSWITCH1_version1_list1_2023-11-22_13h45.01.739_micRespv1l1_recorded\recording_micRespv1l1_2023-11-22_13h54.39.726.wav;587.3625044;587.8626083;None;587.3625044;587.3625044;587.3625044;587.3625044;587.3625044;587.3625044;;;;;;90101;1;2023-11-22_13h45.01.739;REPSWITCH1_version1_list1;2022.2.4;143.9942862
REPSWITCH1/PICTURE_48.png;bombero;speak;gold;filler;2;F;1;2;1;1;Stim7_Set4;1;switch;121;120;19;0;120;120;120;;;;;;;;;;;;;;;;;;;;;;;587.8626083;588.876653;588.876653;588.876653;588.876653;588.876653;588.876653;588.876653;588.876653;None;0;;;C:\2023\REPSWITCH21092023\REPSWITCH_excgange\REPSWITCH_excgange\data/090101_REPSWITCH1_version1_list1_2023-11-22_13h45.01.739_micRespv1l1_recorded\recording_micRespv1l1_2023-11-22_13h54.44.261.wav;591.8978669;592.3979921;None;591.8978669;591.8978669;591.8978669;591.8978669;591.8978669;591.8978669;;;;;;90101;1;2023-11-22_13h45.01.739;REPSWITCH1_version1_list1;2022.2.4;143.9942862
REPSWITCH1/PICTURE_19.png;pavo;type;darkblue;nontarget;1;NT;1;2;1;1;Stim5_Set1;1;switch;122;121;20;0;121;121;121;;;;;;;;;;;;;;;;;;;;;;;592.3979921;593.4675323;593.4675323;593.4675323;593.4675323;593.4675323;593.4675323;593.4675323;593.4675323;['p', 'a', 'v', 'o'];0;[0.7199236999731511, 0.8327331999316812, 0.9920646999962628, 1.0847386000677943];pavo;C:\2023\REPSWITCH21092023\REPSWITCH_excgange\REPSWITCH_excgange\data/090101_REPSWITCH1_version1_list1_2023-11-22_13h45.01.739_micRespv1l1_recorded\recording_micRespv1l1_2023-11-22_13h54.48.852.wav;596.4887361;596.9888165;None;596.4887361;596.4887361;596.4887361;596.4887361;596.4887361;596.4887361;;;;;;90101;1;2023-11-22_13h45.01.739;REPSWITCH1_version1_list1;2022.2.4;143.9942862
REPSWITCH1/PICTURE_19.png;pavo;type;darkblue;repeat;1;T;1;2;1;1;Stim5_Set1;0;None;123;122;21;0;122;122;122;;;;;;;;;;;;;;;;;;;;;;;596.9888165;598.0722691;598.0722691;598.0722691;598.0722691;598.0722691;598.0722691;598.0722691;598.0722691;['p', 'a', 'v', 'o'];0;[0.6775583999697119, 0.7902921000495553, 0.9139022999443114, 0.9816610999405384];pavo;C:\2023\REPSWITCH21092023\REPSWITCH_excgange\REPSWITCH_excgange\data/090101_REPSWITCH1_version1_list1_2023-11-22_13h45.01.739_micRespv1l1_recorded\recording_micRespv1l1_2023-11-22_13h54.53.458.wav;601.1004271;;None;601.1004271;601.1004271;601.1004271;601.1004271;601.1004271;601.1004271;;;;;;90101;1;2023-11-22_13h45.01.739;REPSWITCH1_version1_list1;2022.2.4;143.9942862
REPSWITCH1/PICTURE_319.png;vaca;speak;gold;filler;2;F;1;2;1;1;Stim1_Set4;0;None;124;123;22;0;123;123;123;;;;;;;;;;;;;;;;;;;;;;;601.600497;602.656191;602.656191;602.656191;602.656191;602.656191;602.656191;602.656191;602.656191;None;0;;;C:\2023\REPSWITCH21092023\REPSWITCH_excgange\REPSWITCH_excgange\data/090101_REPSWITCH1_version1_list1_2023-11-22_13h45.01.739_micRespv1l1_recorded\recording_micRespv1l1_2023-11-22_13h54.58.040.wav;605.6774281;606.1774848;None;605.6774281;605.6774281;605.6774281;605.6774281;605.6774281;605.6774281;;;;;;90101;1;2023-11-22_13h45.01.739;REPSWITCH1_version1_list1;2022.2.4;143.9942862
REPSWITCH1/PICTURE_338.png;regalo;type;darkblue;filler;1;F;1;2;1;1;Stim6_Set4;0;None;125;124;23;0;124;124;124;;;;;;;;;;;;;;;;;;;;;;;606.1774848;607.2262959;607.2262959;607.2262959;607.2262959;607.2262959;607.2262959;607.2262959;607.2262959;['r', 'e', 'g', 'a', 'l', 'o'];0;[0.6838476001285017, 0.7772880000993609, 0.9227889999747276, 0.9955496999900788, 1.0493642999790609, 1.2600076999515295];regalo;C:\2023\REPSWITCH21092023\REPSWITCH_excgange\REPSWITCH_excgange\data/090101_REPSWITCH1_version1_list1_2023-11-22_13h45.01.739_micRespv1l1_recorded\recording_micRespv1l1_2023-11-22_13h55.02.610.wav;610.2474636;610.7475492;None;610.2474636;610.2474636;610.2474636;610.2474636;610.2474636;610.2474636;;;;;;90101;1;2023-11-22_13h45.01.739;REPSWITCH1_version1_list1;2022.2.4;143.9942862
REPSWITCH1/PICTURE_142.png;vaso;type;darkblue;nontarget;1;NT;1;2;1;1;Stim7_Set1;0;None;126;125;24;0;125;125;125;;;;;;;;;;;;;;;;;;;;;;;610.7475492;611.7893652;611.7893652;611.7893652;611.7893652;611.7893652;611.7893652;611.7893652;611.7893652;['v', 'a', 's', 'o'];0;[0.7330374999437481, 0.8048273997846991, 0.8685770998708904, 0.9433766999281943];vaso;C:\2023\REPSWITCH21092023\REPSWITCH_excgange\REPSWITCH_excgange\data/090101_REPSWITCH1_version1_list1_2023-11-22_13h45.01.739_micRespv1l1_recorded\recording_micRespv1l1_2023-11-22_13h55.07.173.wav;614.8106597;615.3106532;None;614.8106597;614.8106597;614.8106597;614.8106597;614.8106597;614.8106597;;;;;;90101;1;2023-11-22_13h45.01.739;REPSWITCH1_version1_list1;2022.2.4;143.9942862
REPSWITCH1/PICTURE_142.png;vaso;speak;gold;switch;2;T;1;2;1;1;Stim7_Set1;0;None;127;126;25;0;126;126;126;;;;;;;;;;;;;;;;;;;;;;;615.3106532;616.4288648;616.4288648;616.4288648;616.4288648;616.4288648;616.4288648;616.4288648;616.4288648;None;0;;;C:\2023\REPSWITCH21092023\REPSWITCH_excgange\REPSWITCH_excgange\data/090101_REPSWITCH1_version1_list1_2023-11-22_13h45.01.739_micRespv1l1_recorded\recording_micRespv1l1_2023-11-22_13h55.11.814.wav;619.4500507;619.9501523;None;619.4500507;619.4500507;619.4500507;619.4500507;619.4500507;619.4500507;;;;;;90101;1;2023-11-22_13h45.01.739;REPSWITCH1_version1_list1;2022.2.4;143.9942862
REPSWITCH1/PICTURE_687.png;camisa;type;darkblue;filler;1;F;1;2;1;1;Stim5_Set4;1;switch;128;127;26;0;127;127;127;;;;;;;;;;;;;;;;;;;;;;;619.9501523;621.1378076;621.1378076;621.1378076;621.1378076;621.1378076;621.1378076;621.1378076;621.1378076;['c', 'a', 'm', 'i', 's', 'a'];0;[0.9606413999572396, 1.0244928998872638, 1.169268999947235, 1.3616123998071998, 1.4543240999337286, 1.5473928998690099];camisa;C:\2023\REPSWITCH21092023\REPSWITCH_excgange\REPSWITCH_excgange\data/090101_REPSWITCH1_version1_list1_2023-11-22_13h45.01.739_micRespv1l1_recorded\recording_micRespv1l1_2023-11-22_13h55.16.521.wav;624.1590273;624.659099;None;624.1590273;624.1590273;624.1590273;624.1590273;624.1590273;624.1590273;;;;;;90101;1;2023-11-22_13h45.01.739;REPSWITCH1_version1_list1;2022.2.4;143.9942862
REPSWITCH1/PICTURE_30.png;granja;type;darkblue;nontarget;1;NT;2;2;1;1;Stim5_Set2;0;None;129;128;27;0;128;128;128;;;;;;;;;;;;;;;;;;;;;;;624.659099;625.7772964;625.7772964;625.7772964;625.7772964;625.7772964;625.7772964;625.7772964;625.7772964;['g', 'r', 'a', 'n', 'j', 'a'];0;[0.8366576000116765, 0.88851029984653, 0.9572793999686837, 1.049402300035581, 1.2233640998601913, 1.3469974999316037];granja;C:\2023\REPSWITCH21092023\REPSWITCH_excgange\REPSWITCH_excgange\data/090101_REPSWITCH1_version1_list1_2023-11-22_13h45.01.739_micRespv1l1_recorded\recording_micRespv1l1_2023-11-22_13h55.21.163.wav;628.8055195;;None;628.8055195;628.8055195;628.8055195;628.8055195;628.8055195;628.8055195;;;;;;90101;1;2023-11-22_13h45.01.739;REPSWITCH1_version1_list1;2022.2.4;143.9942862
REPSWITCH1/PICTURE_30.png;granja;type;darkblue;repeat;1;T;2;2;1;1;Stim5_Set2;0;None;130;129;28;0;129;129;129;;;;;;;;;;;;;;;;;;;;;;;629.3055417;630.3890007;630.3890007;630.3890007;630.3890007;630.3890007;630.3890007;630.3890007;630.3890007;['g', 'r', 'a', 'n', 'j', 'a'];0;[0.837065199855715, 0.9277548999525607, 0.9814450999256223, 1.0801001999061555, 1.2754224999807775, 1.392065899912268];granja;C:\2023\REPSWITCH21092023\REPSWITCH_excgange\REPSWITCH_excgange\data/090101_REPSWITCH1_version1_list1_2023-11-22_13h45.01.739_micRespv1l1_recorded\recording_micRespv1l1_2023-11-22_13h55.25.775.wav;633.4172423;;None;633.4172423;633.4172423;633.4172423;633.4172423;633.4172423;633.4172423;;;;;;90101;1;2023-11-22_13h45.01.739;REPSWITCH1_version1_list1;2022.2.4;143.9942862
REPSWITCH1/PICTURE_128.png;muñeca;speak;gold;filler;2;F;2;2;1;1;Stim4_Set1;0;None;131;130;29;0;130;130;130;;;;;;;;;;;;;;;;;;;;;;;633.9172547;635.0562788;635.0562788;635.0562788;635.0562788;635.0562788;635.0562788;635.0562788;635.0562788;None;0;;;C:\2023\REPSWITCH21092023\REPSWITCH_excgange\REPSWITCH_excgange\data/090101_REPSWITCH1_version1_list1_2023-11-22_13h45.01.739_micRespv1l1_recorded\recording_micRespv1l1_2023-11-22_13h55.30.441.wav;638.0844423;;None;638.0844423;638.0844423;638.0844423;638.0844423;638.0844423;638.0844423;;;;;;90101;1;2023-11-22_13h45.01.739;REPSWITCH1_version1_list1;2022.2.4;143.9942862
REPSWITCH1/PICTURE_264.png;mano;type;darkblue;nontarget;1;NT;2;2;1;1;Stim3_Set2;1;switch;132;131;30;0;131;131;131;;;;;;;;;;;;;;;;;;;;;;;638.584529;639.716646;639.716646;639.716646;639.716646;639.716646;639.716646;639.716646;639.716646;['m', 'a', 'n', 'o'];0;[0.6612667001318187, 0.7389999001752585, 0.8545811001677066, 1.0265171001665294];mano;C:\2023\REPSWITCH21092023\REPSWITCH_excgange\REPSWITCH_excgange\data/090101_REPSWITCH1_version1_list1_2023-11-22_13h45.01.739_micRespv1l1_recorded\recording_micRespv1l1_2023-11-22_13h55.35.101.wav;642.7378239;643.2379172;None;642.7378239;642.7378239;642.7378239;642.7378239;642.7378239;642.7378239;;;;;;90101;1;2023-11-22_13h45.01.739;REPSWITCH1_version1_list1;2022.2.4;143.9942862
REPSWITCH1/PICTURE_264.png;mano;type;darkblue;repeat;1;T;2;2;1;1;Stim3_Set2;0;None;133;132;31;0;132;132;132;;;;;;;;;;;;;;;;;;;;;;;643.2379172;644.2589638;644.2589638;644.2589638;644.2589638;644.2589638;644.2589638;644.2589638;644.2589638;['m', 'a', 'n', 'o'];0;[0.6631726000923663, 0.7921123001724482, 0.8639035001397133, 0.9974206001497805];mano;C:\2023\REPSWITCH21092023\REPSWITCH_excgange\REPSWITCH_excgange\data/090101_REPSWITCH1_version1_list1_2023-11-22_13h45.01.739_micRespv1l1_recorded\recording_micRespv1l1_2023-11-22_13h55.39.643.wav;647.2801276;647.7801944;None;647.2801276;647.2801276;647.2801276;647.2801276;647.2801276;647.2801276;;;;;;90101;1;2023-11-22_13h45.01.739;REPSWITCH1_version1_list1;2022.2.4;143.9942862
REPSWITCH1/PICTURE_175.png;pintor;type;darkblue;nontarget;1;NT;2;2;1;1;Stim1_Set2;0;None;134;133;32;0;133;133;133;;;;;;;;;;;;;;;;;;;;;;;647.7801944;648.8706894;648.8706894;648.8706894;648.8706894;648.8706894;648.8706894;648.8706894;648.8706894;['p', 'i', 't', 'o', 'backspace', 'backspace', 'n', 't', 'o', 'r'];0;[0.6843896000646055, 0.8358741998672485, 1.1418482000008225, 1.2664437000639737, 1.5724070998840034, 1.7023344999179244, 1.9634720999747515, 2.137663099914789, 2.2084113999735564, 2.316094599897042];pintor;C:\2023\REPSWITCH21092023\REPSWITCH_excgange\REPSWITCH_excgange\data/090101_REPSWITCH1_version1_list1_2023-11-22_13h45.01.739_micRespv1l1_recorded\recording_micRespv1l1_2023-11-22_13h55.44.255.wav;651.8918199;652.3919047;None;651.8918199;651.8918199;651.8918199;651.8918199;651.8918199;651.8918199;;;;;;90101;1;2023-11-22_13h45.01.739;REPSWITCH1_version1_list1;2022.2.4;143.9942862
REPSWITCH1/PICTURE_175.png;pintor;speak;gold;switch;2;T;2;2;1;1;Stim1_Set2;0;None;135;134;33;0;134;134;134;;;;;;;;;;;;;;;;;;;;;;;652.3919047;653.4059604;653.4059604;653.4059604;653.4059604;653.4059604;653.4059604;653.4059604;653.4059604;None;0;;;C:\2023\REPSWITCH21092023\REPSWITCH_excgange\REPSWITCH_excgange\data/090101_REPSWITCH1_version1_list1_2023-11-22_13h45.01.739_micRespv1l1_recorded\recording_micRespv1l1_2023-11-22_13h55.48.790.wav;656.4272205;656.9272088;None;656.4272205;656.4272205;656.4272205;656.4272205;656.4272205;656.4272205;;;;;;90101;1;2023-11-22_13h45.01.739;REPSWITCH1_version1_list1;2022.2.4;143.9942862
REPSWITCH1/PICTURE_135.png;traje;speak;gold;filler;2;F;2;2;1;1;Stim3_Set1;1;repeat;136;135;34;0;135;135;135;;;;;;;;;;;;;;;;;;;;;;;656.9272088;657.9828986;657.9828986;657.9828986;657.9828986;657.9828986;657.9828986;657.9828986;657.9828986;None;0;;;C:\2023\REPSWITCH21092023\REPSWITCH_excgange\REPSWITCH_excgange\data/090101_REPSWITCH1_version1_list1_2023-11-22_13h45.01.739_micRespv1l1_recorded\recording_micRespv1l1_2023-11-22_13h55.53.368.wav;661.0041197;661.5042761;None;661.0041197;661.0041197;661.0041197;661.0041197;661.0041197;661.0041197;;;;;;90101;1;2023-11-22_13h45.01.739;REPSWITCH1_version1_list1;2022.2.4;143.9942862
REPSWITCH1/PICTURE_446.png;cerdo;speak;gold;nontarget;2;NT;2;2;1;1;Stim7_Set2;1;repeat;137;136;35;0;136;136;136;;;;;;;;;;;;;;;;;;;;;;;661.5042761;662.6154877;662.6154877;662.6154877;662.6154877;662.6154877;662.6154877;662.6154877;662.6154877;None;0;;;C:\2023\REPSWITCH21092023\REPSWITCH_excgange\REPSWITCH_excgange\data/090101_REPSWITCH1_version1_list1_2023-11-22_13h45.01.739_micRespv1l1_recorded\recording_micRespv1l1_2023-11-22_13h55.57.999.wav;665.6367633;666.1368332;None;665.6367633;665.6367633;665.6367633;665.6367633;665.6367633;665.6367633;;;;;;90101;1;2023-11-22_13h45.01.739;REPSWITCH1_version1_list1;2022.2.4;143.9942862
REPSWITCH1/PICTURE_446.png;cerdo;type;darkblue;switch;1;T;2;2;1;1;Stim7_Set2;0;None;138;137;36;0;137;137;137;;;;;;;;;;;;;;;;;;;;;;;666.1368332;667.268934;667.268934;667.268934;667.268934;667.268934;667.268934;667.268934;667.268934;['c', 'e', 'r', 'd', 'o'];0;[0.5754603000823408, 0.6692564999684691, 0.7855297001078725, 0.9632488000206649, 1.0260954999830574];cerdo;C:\2023\REPSWITCH21092023\REPSWITCH_excgange\REPSWITCH_excgange\data/090101_REPSWITCH1_version1_list1_2023-11-22_13h45.01.739_micRespv1l1_recorded\recording_micRespv1l1_2023-11-22_13h56.02.653.wav;670.2970343;;None;670.2970343;670.2970343;670.2970343;670.2970343;670.2970343;670.2970343;;;;;;90101;1;2023-11-22_13h45.01.739;REPSWITCH1_version1_list1;2022.2.4;143.9942862
REPSWITCH1/PICTURE_152.png;caracol;type;darkblue;nontarget;1;NT;2;2;1;1;Stim2_Set2;1;repeat;139;138;37;0;138;138;138;;;;;;;;;;;;;;;;;;;;;;;670.797094;671.8945215;671.8945215;671.8945215;671.8945215;671.8945215;671.8945215;671.8945215;671.8945215;['c', 'a', 'r', 'a', 'c', 'o', 'l'];0;[0.6153116000350565, 0.7011187998577952, 0.826961699873209, 0.921656500082463, 1.0143053999636322, 1.0880960999056697, 1.3011775000486523];caracol;C:\2023\REPSWITCH21092023\REPSWITCH_excgange\REPSWITCH_excgange\data/090101_REPSWITCH1_version1_list1_2023-11-22_13h45.01.739_micRespv1l1_recorded\recording_micRespv1l1_2023-11-22_13h56.07.279.wav;674.9157006;675.4157603;None;674.9157006;674.9157006;674.9157006;674.9157006;674.9157006;674.9157006;;;;;;90101;1;2023-11-22_13h45.01.739;REPSWITCH1_version1_list1;2022.2.4;143.9942862
REPSWITCH1/PICTURE_152.png;caracol;speak;gold;switch;2;T;2;2;1;1;Stim2_Set2;0;None;140;139;38;0;139;139;139;;;;;;;;;;;;;;;;;;;;;;;675.4157603;676.513106;676.513106;676.513106;676.513106;676.513106;676.513106;676.513106;676.513106;None;0;;;C:\2023\REPSWITCH21092023\REPSWITCH_excgange\REPSWITCH_excgange\data/090101_REPSWITCH1_version1_list1_2023-11-22_13h45.01.739_micRespv1l1_recorded\recording_micRespv1l1_2023-11-22_13h56.11.898.wav;679.5343187;680.0343937;None;679.5343187;679.5343187;679.5343187;679.5343187;679.5343187;679.5343187;;;;;;90101;1;2023-11-22_13h45.01.739;REPSWITCH1_version1_list1;2022.2.4;143.9942862
