image,correctAns,respModal,frameColor,repSwitch,sequence,target,set,block,list,exp_version,stimulus,baseline,baseline_condition,trial_no,psychopy_trial,Column1,trialsREPSWITCH.thisRepN,trialsREPSWITCH.thisTrialN,trialsREPSWITCH.thisN,trialsREPSWITCH.thisIndex,textWelcome.started,textboxInstrMain1.started,textboxInstrMain1_2.started,textboxInstrMain1_3.started,keyInstrMain.started,keyInstrMain.keys,keyInstrMain.rt,textboxInstrMain2.started,textboxInstrMain2_2.started,textboxInstrMain2_3.started,textboxInstrMain2_4.started,textboxInstrMain2_5.started,textboxInstrMain2_6.started,textboxInstrMain2_7.started,textboxInstrMain2_8.started,textboxInstrMain2_9.started,textboxInstrMain2_10.started,textboxInstrMain2_11.started,textboxInstrMain2_12.started,keyInstrMain2.started,keyInstrMain2.keys,keyInstrMain2.rt,fixationITI.started,fixationITI.stopped,polygonColour.started,polygonWhite.started,imageObject.started,polygonType.started,textInput.started,keyResp.started,micRespv2l2.started,keyResp.keys,keyResp.corr,subjResponse,micRespv2l2.clip,textBlankLoop.started,textBlankLoop.stopped,keyPause.keys,polygonColour.stopped,polygonWhite.stopped,imageObject.stopped,polygonType.stopped,textInput.stopped,keyResp.stopped,keyResp.rt,textboxPause.started,keyPause.started,keyPause.rt,textboxGoodbye.started,textboxGoodbye.stopped,participant,session,date,expName,psychopyVersion,frameRate,
,,,,,,,,,,,,,,,,,,,,,9.475796699989587,11.972653500037268,11.972653500037268,11.972653500037268,11.972653500037268,space,11.590771800139919,,,,,,,,,,,,,,,,,,,,,,,,,,,,,,,,,,,,,,,,,,,,120202,001,2023-11-27_13h39.45.946,REPSWITCH1_version2_list2,2022.2.4,143.96940909339096,
,,,,,,,,,,,,,,,,,,,,,,,,,,,,23.578392799943686,23.578392799943686,23.578392799943686,23.578392799943686,23.578392799943686,23.578392799943686,23.578392799943686,23.578392799943686,23.578392799943686,23.578392799943686,23.578392799943686,23.578392799943686,23.578392799943686,space,8.76385370013304,,,,,,,,,,,,,,,,,,,,,,,,,,,,,120202,001,2023-11-27_13h39.45.946,REPSWITCH1_version2_list2,2022.2.4,143.96940909339096,
REPSWITCH1/PICTURE_646.png,tronco,speak,darkblue,filler,2,F,1,3,2,2,Extra4,0,None,1,0,1,0,0,0,0,,,,,,,,,,,,,,,,,,,,,,,32.447602399857715,33.53111999994144,33.53111999994144,33.53111999994144,33.53111999994144,33.53111999994144,33.53111999994144,33.53111999994144,33.53111999994144,None,0,,C:\2023\REPSWITCH21092023\REPSWITCH_excgange\REPSWITCH_excgange\data/120202_REPSWITCH1_version2_list2_2023-11-27_13h39.45.946_micRespv2l2_recorded\recording_micRespv2l2_2023-11-27_13h40.14.781.wav,36.55234090005979,37.052371399942786,None,,,,,,,,,,,,,120202,001,2023-11-27_13h39.45.946,REPSWITCH1_version2_list2,2022.2.4,143.96940909339096,
REPSWITCH1/PICTURE_340.png,espejo,type,gold,filler,1,F,1,3,2,2,Extra1,0,None,2,1,2,0,1,1,1,,,,,,,,,,,,,,,,,,,,,,,37.052371399942786,38.19840099988505,38.19840099988505,38.19840099988505,38.19840099988505,38.19840099988505,38.19840099988505,38.19840099988505,38.19840099988505,"['e', 's', 'p', 'e', 'k', 'backspace', 'j', 'p', 'backspace']",0,espej,C:\2023\REPSWITCH21092023\REPSWITCH_excgange\REPSWITCH_excgange\data/120202_REPSWITCH1_version2_list2_2023-11-27_13h39.45.946_micRespv2l2_recorded\recording_micRespv2l2_2023-11-27_13h40.19.453.wav,41.226531099993736,,None,41.226531099993736,41.226531099993736,41.226531099993736,41.226531099993736,41.226531099993736,41.226531099993736,"[0.7614818001165986, 0.9518087999895215, 1.117292000213638, 1.2149569999892265, 1.3793742000125349, 1.7481762000825256, 2.0475456002168357, 2.200075500179082, 2.5635147001594305]",,,,,,120202,001,2023-11-27_13h39.45.946,REPSWITCH1_version2_list2,2022.2.4,143.96940909339096,
REPSWITCH1/PICTURE_338.png,regalo,speak,darkblue,filler,2,F,1,3,2,2,Stim6_Set4,0,None,3,2,3,0,2,2,2,,,,,,,,,,,,,,,,,,,,,,,41.72658979985863,42.810117800021544,42.810117800021544,42.810117800021544,42.810117800021544,42.810117800021544,42.810117800021544,42.810117800021544,42.810117800021544,None,0,,C:\2023\REPSWITCH21092023\REPSWITCH_excgange\REPSWITCH_excgange\data/120202_REPSWITCH1_version2_list2_2023-11-27_13h39.45.946_micRespv2l2_recorded\recording_micRespv2l2_2023-11-27_13h40.24.064.wav,45.838241199962795,,None,45.838241199962795,45.838241199962795,45.838241199962795,45.838241199962795,45.838241199962795,45.838241199962795,,,,,,,120202,001,2023-11-27_13h39.45.946,REPSWITCH1_version2_list2,2022.2.4,143.96940909339096,
REPSWITCH1/PICTURE_142.png,vaso,speak,darkblue,nontarget,2,NT,1,3,2,2,Stim7_Set1,1,repeat,4,3,4,0,3,3,3,,,,,,,,,,,,,,,,,,,,,,,46.33830070006661,47.47038950002752,47.47038950002752,47.47038950002752,47.47038950002752,47.47038950002752,47.47038950002752,47.47038950002752,47.47038950002752,None,0,,C:\2023\REPSWITCH21092023\REPSWITCH_excgange\REPSWITCH_excgange\data/120202_REPSWITCH1_version2_list2_2023-11-27_13h39.45.946_micRespv2l2_recorded\recording_micRespv2l2_2023-11-27_13h40.28.723.wav,50.491635699989274,50.99169979989529,None,50.491635699989274,50.491635699989274,50.491635699989274,50.491635699989274,50.491635699989274,50.491635699989274,,,,,,,120202,001,2023-11-27_13h39.45.946,REPSWITCH1_version2_list2,2022.2.4,143.96940909339096,
REPSWITCH1/PICTURE_142.png,vaso,speak,darkblue,repeat,2,T,1,3,2,2,Stim7_Set1,0,None,5,4,5,0,4,4,4,,,,,,,,,,,,,,,,,,,,,,,50.99169979989529,52.15156750008464,52.15156750008464,52.15156750008464,52.15156750008464,52.15156750008464,52.15156750008464,52.15156750008464,52.15156750008464,None,0,,C:\2023\REPSWITCH21092023\REPSWITCH_excgange\REPSWITCH_excgange\data/120202_REPSWITCH1_version2_list2_2023-11-27_13h39.45.946_micRespv2l2_recorded\recording_micRespv2l2_2023-11-27_13h40.33.405.wav,55.17283870000392,55.67282420000993,None,55.17283870000392,55.17283870000392,55.17283870000392,55.17283870000392,55.17283870000392,55.17283870000392,,,,,,,120202,001,2023-11-27_13h39.45.946,REPSWITCH1_version2_list2,2022.2.4,143.96940909339096,
REPSWITCH1/PICTURE_498.png,taza,type,gold,filler,1,F,1,3,2,2,Stim4_Set4,0,None,6,5,6,0,5,5,5,,,,,,,,,,,,,,,,,,,,,,,55.67282420000993,56.81191210006364,56.81191210006364,56.81191210006364,56.81191210006364,56.81191210006364,56.81191210006364,56.81191210006364,56.81191210006364,"['t', 'a', 'z', 'a']",0,taza,C:\2023\REPSWITCH21092023\REPSWITCH_excgange\REPSWITCH_excgange\data/120202_REPSWITCH1_version2_list2_2023-11-27_13h39.45.946_micRespv2l2_recorded\recording_micRespv2l2_2023-11-27_13h40.38.064.wav,59.83313570008613,60.333197100088,None,59.83313570008613,59.83313570008613,59.83313570008613,59.83313570008613,59.83313570008613,59.83313570008613,"[0.9162280999589711, 1.083589900052175, 1.3188056000508368, 1.4861676001455635]",,,,,,120202,001,2023-11-27_13h39.45.946,REPSWITCH1_version2_list2,2022.2.4,143.96940909339096,
REPSWITCH1/PICTURE_16.png,cazador,speak,darkblue,nontarget,2,NT,1,3,2,2,Stim6_Set1,1,switch,7,6,7,0,6,6,6,,,,,,,,,,,,,,,,,,,,,,,60.333197100088,61.59722590004094,61.59722590004094,61.59722590004094,61.59722590004094,61.59722590004094,61.59722590004094,61.59722590004094,61.59722590004094,None,0,,C:\2023\REPSWITCH21092023\REPSWITCH_excgange\REPSWITCH_excgange\data/120202_REPSWITCH1_version2_list2_2023-11-27_13h39.45.946_micRespv2l2_recorded\recording_micRespv2l2_2023-11-27_13h40.42.851.wav,64.62543109990656,65.1254974999465,None,64.62543109990656,64.62543109990656,64.62543109990656,64.62543109990656,64.62543109990656,64.62543109990656,,,,,,,120202,001,2023-11-27_13h39.45.946,REPSWITCH1_version2_list2,2022.2.4,143.96940909339096,
REPSWITCH1/PICTURE_16.png,cazador,speak,darkblue,repeat,2,T,1,3,2,2,Stim6_Set1,0,None,8,7,8,0,7,7,7,,,,,,,,,,,,,,,,,,,,,,,65.1254974999465,66.20202569989488,66.20202569989488,66.20202569989488,66.20202569989488,66.20202569989488,66.20202569989488,66.20202569989488,66.20202569989488,None,0,,C:\2023\REPSWITCH21092023\REPSWITCH_excgange\REPSWITCH_excgange\data/120202_REPSWITCH1_version2_list2_2023-11-27_13h39.45.946_micRespv2l2_recorded\recording_micRespv2l2_2023-11-27_13h40.47.455.wav,69.23018660000525,,None,69.23018660000525,69.23018660000525,69.23018660000525,69.23018660000525,69.23018660000525,69.23018660000525,,,,,,,120202,001,2023-11-27_13h39.45.946,REPSWITCH1_version2_list2,2022.2.4,143.96940909339096,
REPSWITCH1/PICTURE_719.png,baño,type,gold,filler,1,F,1,3,2,2,Stim2_Set4,0,None,9,8,9,0,8,8,8,,,,,,,,,,,,,,,,,,,,,,,69.7302474998869,70.85538730002008,70.85538730002008,70.85538730002008,70.85538730002008,70.85538730002008,70.85538730002008,70.85538730002008,70.85538730002008,"['b', 'a', 'ñ', 'o']",0,baño,C:\2023\REPSWITCH21092023\REPSWITCH_excgange\REPSWITCH_excgange\data/120202_REPSWITCH1_version2_list2_2023-11-27_13h39.45.946_micRespv2l2_recorded\recording_micRespv2l2_2023-11-27_13h40.52.109.wav,73.8836054999847,,None,73.8836054999847,73.8836054999847,73.8836054999847,73.8836054999847,73.8836054999847,73.8836054999847,"[0.9435187000781298, 1.115809200098738, 1.395172000164166, 1.5965530001558363]",,,,,,120202,001,2023-11-27_13h39.45.946,REPSWITCH1_version2_list2,2022.2.4,143.96940909339096,
REPSWITCH1/PICTURE_169.png,espalda,speak,darkblue,nontarget,2,NT,1,3,2,2,Stim8_Set1,0,None,10,9,10,0,9,9,9,,,,,,,,,,,,,,,,,,,,,,,74.38364670006558,75.52963080001064,75.52963080001064,75.52963080001064,75.52963080001064,75.52963080001064,75.52963080001064,75.52963080001064,75.52963080001064,None,0,,C:\2023\REPSWITCH21092023\REPSWITCH_excgange\REPSWITCH_excgange\data/120202_REPSWITCH1_version2_list2_2023-11-27_13h39.45.946_micRespv2l2_recorded\recording_micRespv2l2_2023-11-27_13h40.56.783.wav,78.55778270005248,,None,78.55778270005248,78.55778270005248,78.55778270005248,78.55778270005248,78.55778270005248,78.55778270005248,,,,,,,120202,001,2023-11-27_13h39.45.946,REPSWITCH1_version2_list2,2022.2.4,143.96940909339096,
REPSWITCH1/PICTURE_169.png,espalda,type,gold,switch,1,T,1,3,2,2,Stim8_Set1,0,None,11,10,11,0,10,10,10,,,,,,,,,,,,,,,,,,,,,,,79.05785360001028,80.21776139992289,80.21776139992289,80.21776139992289,80.21776139992289,80.21776139992289,80.21776139992289,80.21776139992289,80.21776139992289,"['e', 's', 'p', 'a', 'l', 'd', 'a']",0,espalda,C:\2023\REPSWITCH21092023\REPSWITCH_excgange\REPSWITCH_excgange\data/120202_REPSWITCH1_version2_list2_2023-11-27_13h39.45.946_micRespv2l2_recorded\recording_micRespv2l2_2023-11-27_13h41.01.471.wav,83.2389437998645,83.73903360008262,None,83.2389437998645,83.2389437998645,83.2389437998645,83.2389437998645,83.2389437998645,83.2389437998645,"[0.7545283001381904, 0.9449132999870926, 1.0525825000368059, 1.1981777001637965, 1.320813399972394, 1.475396600086242, 1.6638150999788195]",,,,,,120202,001,2023-11-27_13h39.45.946,REPSWITCH1_version2_list2,2022.2.4,143.96940909339096,
REPSWITCH1/PICTURE_687.png,camisa,type,gold,filler,1,F,1,3,2,2,Stim5_Set4,0,None,12,11,12,0,11,11,11,,,,,,,,,,,,,,,,,,,,,,,83.73903360008262,84.82944280002266,84.82944280002266,84.82944280002266,84.82944280002266,84.82944280002266,84.82944280002266,84.82944280002266,84.82944280002266,"['c', 'a', 'm', 'i', 's', 'a']",0,camisa,C:\2023\REPSWITCH21092023\REPSWITCH_excgange\REPSWITCH_excgange\data/120202_REPSWITCH1_version2_list2_2023-11-27_13h39.45.946_micRespv2l2_recorded\recording_micRespv2l2_2023-11-27_13h41.06.083.wav,87.85065479995683,88.35082340007648,None,87.85065479995683,87.85065479995683,87.85065479995683,87.85065479995683,87.85065479995683,87.85065479995683,"[0.8948658001609147, 1.125047700246796, 1.2387637002393603, 1.4480136001948267, 1.5597431003116071, 1.7420036001130939]",,,,,,120202,001,2023-11-27_13h39.45.946,REPSWITCH1_version2_list2,2022.2.4,143.96940909339096,
REPSWITCH1/PICTURE_178.png,puente,type,gold,nontarget,1,NT,1,3,2,2,Stim1_Set1,1,repeat,13,12,13,0,12,12,12,,,,,,,,,,,,,,,,,,,,,,,88.35082340007648,89.52458109986037,89.52458109986037,89.52458109986037,89.52458109986037,89.52458109986037,89.52458109986037,89.52458109986037,89.52458109986037,"['p', 'u', 'e', 'n', 't', 'e']",0,puente,C:\2023\REPSWITCH21092023\REPSWITCH_excgange\REPSWITCH_excgange\data/120202_REPSWITCH1_version2_list2_2023-11-27_13h39.45.946_micRespv2l2_recorded\recording_micRespv2l2_2023-11-27_13h41.10.778.wav,92.55271409987472,,None,92.55271409987472,92.55271409987472,92.55271409987472,92.55271409987472,92.55271409987472,92.55271409987472,"[1.0511086001060903, 1.2965317000634968, 1.4841118000913411, 1.6377091000322253, 1.7890816000290215, 1.990409200079739]",,,,,,120202,001,2023-11-27_13h39.45.946,REPSWITCH1_version2_list2,2022.2.4,143.96940909339096,
REPSWITCH1/PICTURE_178.png,puente,speak,darkblue,switch,2,T,1,3,2,2,Stim1_Set1,0,None,14,13,14,0,13,13,13,,,,,,,,,,,,,,,,,,,,,,,93.05273710004985,94.268218500074,94.268218500074,94.268218500074,94.268218500074,94.268218500074,94.268218500074,94.268218500074,94.268218500074,None,0,,C:\2023\REPSWITCH21092023\REPSWITCH_excgange\REPSWITCH_excgange\data/120202_REPSWITCH1_version2_list2_2023-11-27_13h39.45.946_micRespv2l2_recorded\recording_micRespv2l2_2023-11-27_13h41.15.522.wav,97.29644889989868,,None,97.29644889989868,97.29644889989868,97.29644889989868,97.29644889989868,97.29644889989868,97.29644889989868,,,,,,,120202,001,2023-11-27_13h39.45.946,REPSWITCH1_version2_list2,2022.2.4,143.96940909339096,
REPSWITCH1/PICTURE_128.png,muñeca,speak,darkblue,nontarget,2,NT,1,3,2,2,Stim4_Set1,1,repeat,15,14,15,0,14,14,14,,,,,,,,,,,,,,,,,,,,,,,97.79643779993057,98.85215609986335,98.85215609986335,98.85215609986335,98.85215609986335,98.85215609986335,98.85215609986335,98.85215609986335,98.85215609986335,None,0,,C:\2023\REPSWITCH21092023\REPSWITCH_excgange\REPSWITCH_excgange\data/120202_REPSWITCH1_version2_list2_2023-11-27_13h39.45.946_micRespv2l2_recorded\recording_micRespv2l2_2023-11-27_13h41.20.106.wav,101.87332609994337,102.37343250005506,None,101.87332609994337,101.87332609994337,101.87332609994337,101.87332609994337,101.87332609994337,101.87332609994337,,,,,,,120202,001,2023-11-27_13h39.45.946,REPSWITCH1_version2_list2,2022.2.4,143.96940909339096,
REPSWITCH1/PICTURE_128.png,muñeca,type,gold,switch,1,T,1,3,2,2,Stim4_Set1,0,None,16,15,16,0,15,15,15,,,,,,,,,,,,,,,,,,,,,,,102.37343250005506,103.51246059988625,103.51246059988625,103.51246059988625,103.51246059988625,103.51246059988625,103.51246059988625,103.51246059988625,103.51246059988625,"['m', 'u', 'ñ', 'e', 'c', 'a']",0,muñeca,C:\2023\REPSWITCH21092023\REPSWITCH_excgange\REPSWITCH_excgange\data/120202_REPSWITCH1_version2_list2_2023-11-27_13h39.45.946_micRespv2l2_recorded\recording_micRespv2l2_2023-11-27_13h41.24.765.wav,106.53376809996553,107.03373540006578,None,106.53376809996553,106.53376809996553,106.53376809996553,106.53376809996553,106.53376809996553,106.53376809996553,"[0.818513500271365, 1.056673000101, 1.4407612001523376, 1.6044332003220916, 1.814644600264728, 1.9265789003111422]",,,,,,120202,001,2023-11-27_13h39.45.946,REPSWITCH1_version2_list2,2022.2.4,143.96940909339096,
REPSWITCH1/PICTURE_319.png,vaca,speak,darkblue,filler,2,F,1,3,2,2,Stim1_Set4,1,switch,17,16,17,0,16,16,16,,,,,,,,,,,,,,,,,,,,,,,107.03373540006578,108.07556959986687,108.07556959986687,108.07556959986687,108.07556959986687,108.07556959986687,108.07556959986687,108.07556959986687,108.07556959986687,None,0,,C:\2023\REPSWITCH21092023\REPSWITCH_excgange\REPSWITCH_excgange\data/120202_REPSWITCH1_version2_list2_2023-11-27_13h39.45.946_micRespv2l2_recorded\recording_micRespv2l2_2023-11-27_13h41.29.328.wav,111.09680190007202,111.59686210006475,None,111.09680190007202,111.09680190007202,111.09680190007202,111.09680190007202,111.09680190007202,111.09680190007202,,,,,,,120202,001,2023-11-27_13h39.45.946,REPSWITCH1_version2_list2,2022.2.4,143.96940909339096,
REPSWITCH1/PICTURE_728.png,pulpo,speak,darkblue,filler,2,F,1,3,2,2,Stim8_Set4,0,None,18,17,18,0,17,17,17,,,,,,,,,,,,,,,,,,,,,,,111.59686210006475,112.75679140002467,112.75679140002467,112.75679140002467,112.75679140002467,112.75679140002467,112.75679140002467,112.75679140002467,112.75679140002467,None,0,,C:\2023\REPSWITCH21092023\REPSWITCH_excgange\REPSWITCH_excgange\data/120202_REPSWITCH1_version2_list2_2023-11-27_13h39.45.946_micRespv2l2_recorded\recording_micRespv2l2_2023-11-27_13h41.34.010.wav,115.77800689986907,116.2781040999107,None,115.77800689986907,115.77800689986907,115.77800689986907,115.77800689986907,115.77800689986907,115.77800689986907,,,,,,,120202,001,2023-11-27_13h39.45.946,REPSWITCH1_version2_list2,2022.2.4,143.96940909339096,
REPSWITCH1/PICTURE_381.png,fresa,type,gold,nontarget,1,NT,1,3,2,2,Stim2_Set1,1,switch,19,18,19,0,18,18,18,,,,,,,,,,,,,,,,,,,,,,,116.2781040999107,117.39624419994652,117.39624419994652,117.39624419994652,117.39624419994652,117.39624419994652,117.39624419994652,117.39624419994652,117.39624419994652,"['f', 'r', 'e', 'a', 's', 'a']",0,fresa,C:\2023\REPSWITCH21092023\REPSWITCH_excgange\REPSWITCH_excgange\data/120202_REPSWITCH1_version2_list2_2023-11-27_13h39.45.946_micRespv2l2_recorded\recording_micRespv2l2_2023-11-27_13h41.38.649.wav,120.42440630006604,,None,120.42440630006604,120.42440630006604,120.42440630006604,120.42440630006604,120.42440630006604,120.42440630006604,"[0.9708606002386659, 1.1479633001144975, 1.3625369002111256, 1.5843658002559096, 1.585353200091049, 1.785999600077048]",,,,,,120202,001,2023-11-27_13h39.45.946,REPSWITCH1_version2_list2,2022.2.4,143.96940909339096,
REPSWITCH1/PICTURE_381.png,fresa,type,gold,repeat,1,T,1,3,2,2,Stim2_Set1,0,None,20,19,20,0,19,19,19,,,,,,,,,,,,,,,,,,,,,,,120.92445269995369,122.01488779997453,122.01488779997453,122.01488779997453,122.01488779997453,122.01488779997453,122.01488779997453,122.01488779997453,122.01488779997453,"['d', 'backspace', 'f', 'r', 'e', 's', 'a']",0,fresa,C:\2023\REPSWITCH21092023\REPSWITCH_excgange\REPSWITCH_excgange\data/120202_REPSWITCH1_version2_list2_2023-11-27_13h39.45.946_micRespv2l2_recorded\recording_micRespv2l2_2023-11-27_13h41.43.269.wav,125.0430588000454,,None,125.0430588000454,125.0430588000454,125.0430588000454,125.0430588000454,125.0430588000454,125.0430588000454,"[0.8396003001835197, 1.376617800211534, 1.6118623001966625, 1.7766931001096964, 1.9452063001226634, 2.1359406001865864, 2.2914184001274407]",,,,,,120202,001,2023-11-27_13h39.45.946,REPSWITCH1_version2_list2,2022.2.4,143.96940909339096,
REPSWITCH1/PICTURE_8.png,pierna,speak,darkblue,filler,2,F,1,3,2,2,Stim3_Set4,0,None,21,20,21,0,20,20,20,,,,,,,,,,,,,,,,,,,,,,,125.5431307000108,126.66827340004966,126.66827340004966,126.66827340004966,126.66827340004966,126.66827340004966,126.66827340004966,126.66827340004966,126.66827340004966,None,0,,C:\2023\REPSWITCH21092023\REPSWITCH_excgange\REPSWITCH_excgange\data/120202_REPSWITCH1_version2_list2_2023-11-27_13h39.45.946_micRespv2l2_recorded\recording_micRespv2l2_2023-11-27_13h41.47.922.wav,129.69644079986028,,None,129.69644079986028,129.69644079986028,129.69644079986028,129.69644079986028,129.69644079986028,129.69644079986028,,,,,,,120202,001,2023-11-27_13h39.45.946,REPSWITCH1_version2_list2,2022.2.4,143.96940909339096,
REPSWITCH1/PICTURE_48.png,bombero,speak,darkblue,filler,2,F,1,3,2,2,Stim7_Set4,0,None,22,21,22,0,21,21,21,,,,,,,,,,,,,,,,,,,,,,,130.19651819998398,131.30778869986534,131.30778869986534,131.30778869986534,131.30778869986534,131.30778869986534,131.30778869986534,131.30778869986534,131.30778869986534,None,0,,C:\2023\REPSWITCH21092023\REPSWITCH_excgange\REPSWITCH_excgange\data/120202_REPSWITCH1_version2_list2_2023-11-27_13h39.45.946_micRespv2l2_recorded\recording_micRespv2l2_2023-11-27_13h41.52.561.wav,134.32900499994867,134.82906799996272,None,134.32900499994867,134.32900499994867,134.32900499994867,134.32900499994867,134.32900499994867,134.32900499994867,,,,,,,120202,001,2023-11-27_13h39.45.946,REPSWITCH1_version2_list2,2022.2.4,143.96940909339096,
REPSWITCH1/PICTURE_135.png,traje,type,gold,nontarget,1,NT,1,3,2,2,Stim3_Set1,1,switch,23,22,23,0,22,22,22,,,,,,,,,,,,,,,,,,,,,,,134.82906799996272,135.98198579996824,135.98198579996824,135.98198579996824,135.98198579996824,135.98198579996824,135.98198579996824,135.98198579996824,135.98198579996824,"['c', 'a', 'backspace', 'backspace', 'backspace', 't', 'r', 'a', 'j', 'e']",0,traje,C:\2023\REPSWITCH21092023\REPSWITCH_excgange\REPSWITCH_excgange\data/120202_REPSWITCH1_version2_list2_2023-11-27_13h39.45.946_micRespv2l2_recorded\recording_micRespv2l2_2023-11-27_13h41.57.236.wav,139.00330369989388,139.50337409996428,None,139.00330369989388,139.00330369989388,139.00330369989388,139.00330369989388,139.00330369989388,139.00330369989388,"[0.8965952000580728, 1.141810900066048, 1.6097683000843972, 1.7827795001212507, 1.9333144000265747, 2.110993000213057, 2.2698643000330776, 2.5069593000225723, 2.6265115002170205, 2.7451021000742912]",,,,,,120202,001,2023-11-27_13h39.45.946,REPSWITCH1_version2_list2,2022.2.4,143.96940909339096,
REPSWITCH1/PICTURE_135.png,traje,type,gold,repeat,1,T,1,3,2,2,Stim3_Set1,0,None,24,23,24,0,23,23,23,,,,,,,,,,,,,,,,,,,,,,,139.50337409996428,140.6215075000655,140.6215075000655,140.6215075000655,140.6215075000655,140.6215075000655,140.6215075000655,140.6215075000655,140.6215075000655,"['t', 'r', 'a', 'k', 'e', 'backspace', 'backspace', 'j', 'e']",0,traje,C:\2023\REPSWITCH21092023\REPSWITCH_excgange\REPSWITCH_excgange\data/120202_REPSWITCH1_version2_list2_2023-11-27_13h39.45.946_micRespv2l2_recorded\recording_micRespv2l2_2023-11-27_13h42.01.875.wav,143.6496935999021,,None,143.6496935999021,143.6496935999021,143.6496935999021,143.6496935999021,143.6496935999021,143.6496935999021,"[0.8389703000430018, 0.9915078999474645, 1.3522346001118422, 1.5292368999216706, 1.665763100143522, 2.007638700073585, 2.1648015999235213, 2.515982500044629, 2.5937673000153154]",,,,,,120202,001,2023-11-27_13h39.45.946,REPSWITCH1_version2_list2,2022.2.4,143.96940909339096,
REPSWITCH1/PICTURE_19.png,pavo,type,gold,nontarget,1,NT,1,3,2,2,Stim5_Set1,1,repeat,25,24,25,0,24,24,24,,,,,,,,,,,,,,,,,,,,,,,144.14971899986267,145.2332242000848,145.2332242000848,145.2332242000848,145.2332242000848,145.2332242000848,145.2332242000848,145.2332242000848,145.2332242000848,"['p', 'a', 'v', 'o']",0,pavo,C:\2023\REPSWITCH21092023\REPSWITCH_excgange\REPSWITCH_excgange\data/120202_REPSWITCH1_version2_list2_2023-11-27_13h39.45.946_micRespv2l2_recorded\recording_micRespv2l2_2023-11-27_13h42.06.487.wav,148.26145459990948,,None,148.26145459990948,148.26145459990948,148.26145459990948,148.26145459990948,148.26145459990948,148.26145459990948,"[0.9519228001590818, 1.0575569001957774, 1.3774829001631588, 1.5363574002403766]",,,,,,120202,001,2023-11-27_13h39.45.946,REPSWITCH1_version2_list2,2022.2.4,143.96940909339096,
REPSWITCH1/PICTURE_19.png,pavo,speak,darkblue,switch,2,T,1,3,2,2,Stim5_Set1,0,None,26,25,26,0,25,25,25,,,,,,,,,,,,,,,,,,,,,,,148.76144489995204,149.8657354998868,149.8657354998868,149.8657354998868,149.8657354998868,149.8657354998868,149.8657354998868,149.8657354998868,149.8657354998868,None,0,,C:\2023\REPSWITCH21092023\REPSWITCH_excgange\REPSWITCH_excgange\data/120202_REPSWITCH1_version2_list2_2023-11-27_13h39.45.946_micRespv2l2_recorded\recording_micRespv2l2_2023-11-27_13h42.11.120.wav,152.89390349993482,153.39400179986842,None,152.89390349993482,152.89390349993482,152.89390349993482,152.89390349993482,152.89390349993482,152.89390349993482,,,,,,,120202,001,2023-11-27_13h39.45.946,REPSWITCH1_version2_list2,2022.2.4,143.96940909339096,
REPSWITCH1/PICTURE_142.png,vaso,speak,darkblue,filler,2,F,2,3,2,2,Stim7_Set1,0,None,27,26,27,0,26,26,26,,,,,,,,,,,,,,,,,,,,,,,153.39400179986842,154.39415439986624,154.39415439986624,154.39415439986624,154.39415439986624,154.39415439986624,154.39415439986624,154.39415439986624,154.39415439986624,None,0,,C:\2023\REPSWITCH21092023\REPSWITCH_excgange\REPSWITCH_excgange\data/120202_REPSWITCH1_version2_list2_2023-11-27_13h39.45.946_micRespv2l2_recorded\recording_micRespv2l2_2023-11-27_13h42.15.647.wav,157.415326599963,157.91543060005642,None,157.415326599963,157.415326599963,157.415326599963,157.415326599963,157.415326599963,157.415326599963,,,,,,,120202,001,2023-11-27_13h39.45.946,REPSWITCH1_version2_list2,2022.2.4,143.96940909339096,
REPSWITCH1/PICTURE_135.png,traje,type,gold,filler,1,F,2,3,2,2,Stim3_Set1,0,None,28,27,28,0,27,27,27,,,,,,,,,,,,,,,,,,,,,,,157.91543060005642,158.9711392999161,158.9711392999161,158.9711392999161,158.9711392999161,158.9711392999161,158.9711392999161,158.9711392999161,158.9711392999161,"['t', 'r', 'a', 'j', 'e']",0,traje,C:\2023\REPSWITCH21092023\REPSWITCH_excgange\REPSWITCH_excgange\data/120202_REPSWITCH1_version2_list2_2023-11-27_13h39.45.946_micRespv2l2_recorded\recording_micRespv2l2_2023-11-27_13h42.20.224.wav,161.99930029991083,,None,161.99930029991083,161.99930029991083,161.99930029991083,161.99930029991083,161.99930029991083,161.99930029991083,"[1.3331985000986606, 1.5119144001509994, 1.874735299963504, 2.1061551000457257, 2.207788100000471]",,,,,,120202,001,2023-11-27_13h39.45.946,REPSWITCH1_version2_list2,2022.2.4,143.96940909339096,
REPSWITCH1/PICTURE_446.png,cerdo,type,gold,nontarget,1,NT,2,3,2,2,Stim7_Set2,0,None,29,28,29,0,28,28,28,,,,,,,,,,,,,,,,,,,,,,,162.4993467000313,163.70791819994338,163.70791819994338,163.70791819994338,163.70791819994338,163.70791819994338,163.70791819994338,163.70791819994338,163.70791819994338,"['c', 'e', 'r', 'd', 'o']",0,cerdo,C:\2023\REPSWITCH21092023\REPSWITCH_excgange\REPSWITCH_excgange\data/120202_REPSWITCH1_version2_list2_2023-11-27_13h39.45.946_micRespv2l2_recorded\recording_micRespv2l2_2023-11-27_13h42.24.962.wav,166.73604159988463,167.23610129998997,None,166.73604159988463,166.73604159988463,166.73604159988463,166.73604159988463,166.73604159988463,166.73604159988463,"[0.792458500014618, 0.9937784001231194, 1.1552402002271265, 1.3259351002052426, 1.416654400061816]",,,,,,120202,001,2023-11-27_13h39.45.946,REPSWITCH1_version2_list2,2022.2.4,143.96940909339096,
REPSWITCH1/PICTURE_446.png,cerdo,type,gold,repeat,1,T,2,3,2,2,Stim7_Set2,0,None,30,29,30,0,29,29,29,,,,,,,,,,,,,,,,,,,,,,,167.23610129998997,168.31268360000104,168.31268360000104,168.31268360000104,168.31268360000104,168.31268360000104,168.31268360000104,168.31268360000104,168.31268360000104,"['c', 'e', 'r', 'd', 'o']",0,cerdo,C:\2023\REPSWITCH21092023\REPSWITCH_excgange\REPSWITCH_excgange\data/120202_REPSWITCH1_version2_list2_2023-11-27_13h39.45.946_micRespv2l2_recorded\recording_micRespv2l2_2023-11-27_13h42.29.566.wav,171.34075740003027,,None,171.34075740003027,171.34075740003027,171.34075740003027,171.34075740003027,171.34075740003027,171.34075740003027,"[0.6290922001935542, 0.8327536003198475, 1.0015980002935976, 1.1677537001669407, 1.2596150001045316]",,,,,,120202,001,2023-11-27_13h39.45.946,REPSWITCH1_version2_list2,2022.2.4,143.96940909339096,
REPSWITCH1/PICTURE_16.png,cazador,speak,darkblue,filler,2,F,2,3,2,2,Stim6_Set1,0,None,31,30,31,0,30,30,30,,,,,,,,,,,,,,,,,,,,,,,171.84084099996835,173.0840946000535,173.0840946000535,173.0840946000535,173.0840946000535,173.0840946000535,173.0840946000535,173.0840946000535,173.0840946000535,None,0,,C:\2023\REPSWITCH21092023\REPSWITCH_excgange\REPSWITCH_excgange\data/120202_REPSWITCH1_version2_list2_2023-11-27_13h39.45.946_micRespv2l2_recorded\recording_micRespv2l2_2023-11-27_13h42.34.338.wav,176.1122598000802,,None,176.1122598000802,176.1122598000802,176.1122598000802,176.1122598000802,176.1122598000802,176.1122598000802,,,,,,,120202,001,2023-11-27_13h39.45.946,REPSWITCH1_version2_list2,2022.2.4,143.96940909339096,
REPSWITCH1/PICTURE_552.png,manzana,type,gold,nontarget,1,NT,2,3,2,2,Stim6_Set2,1,switch,32,31,32,0,31,31,31,,,,,,,,,,,,,,,,,,,,,,,176.61231689993292,177.7860975000076,177.7860975000076,177.7860975000076,177.7860975000076,177.7860975000076,177.7860975000076,177.7860975000076,177.7860975000076,"['m', 'a', 'n', 'z', 'a', 'n', 'a']",0,manzana,C:\2023\REPSWITCH21092023\REPSWITCH_excgange\REPSWITCH_excgange\data/120202_REPSWITCH1_version2_list2_2023-11-27_13h39.45.946_micRespv2l2_recorded\recording_micRespv2l2_2023-11-27_13h42.39.040.wav,180.81428679986857,,None,180.81428679986857,180.81428679986857,180.81428679986857,180.81428679986857,180.81428679986857,180.81428679986857,"[1.0025523002259433, 1.28560690023005, 1.4640031002927572, 1.757032500114292, 1.9216649001464248, 2.011366000166163, 2.1030575002077967]",,,,,,120202,001,2023-11-27_13h39.45.946,REPSWITCH1_version2_list2,2022.2.4,143.96940909339096,
REPSWITCH1/PICTURE_552.png,manzana,type,gold,repeat,1,T,2,3,2,2,Stim6_Set2,0,None,33,32,33,0,32,32,32,,,,,,,,,,,,,,,,,,,,,,,181.31432930007577,182.38392900000326,182.38392900000326,182.38392900000326,182.38392900000326,182.38392900000326,182.38392900000326,182.38392900000326,182.38392900000326,"['m', 'a', 'n', 'z', 'a', 'n', 'a']",0,manzana,C:\2023\REPSWITCH21092023\REPSWITCH_excgange\REPSWITCH_excgange\data/120202_REPSWITCH1_version2_list2_2023-11-27_13h39.45.946_micRespv2l2_recorded\recording_micRespv2l2_2023-11-27_13h42.43.638.wav,185.41208599996753,,None,185.41208599996753,185.41208599996753,185.41208599996753,185.41208599996753,185.41208599996753,185.41208599996753,"[0.815291500184685, 0.9817311000078917, 1.1461432001087815, 1.2885656000580639, 1.4589584001805633, 1.5651249000802636, 1.6607689000666142]",,,,,,120202,001,2023-11-27_13h39.45.946,REPSWITCH1_version2_list2,2022.2.4,143.96940909339096,
REPSWITCH1/PICTURE_517.png,cuerda,type,gold,nontarget,1,NT,2,3,2,2,Stim4_Set2,0,None,34,33,34,0,33,33,33,,,,,,,,,,,,,,,,,,,,,,,185.9121596000623,187.04430099995807,187.04430099995807,187.04430099995807,187.04430099995807,187.04430099995807,187.04430099995807,187.04430099995807,187.04430099995807,"['c', 'u', 'e', 'r', 'd', 'a']",0,cuerda,C:\2023\REPSWITCH21092023\REPSWITCH_excgange\REPSWITCH_excgange\data/120202_REPSWITCH1_version2_list2_2023-11-27_13h39.45.946_micRespv2l2_recorded\recording_micRespv2l2_2023-11-27_13h42.48.299.wav,190.07241469994187,,None,190.07241469994187,190.07241469994187,190.07241469994187,190.07241469994187,190.07241469994187,190.07241469994187,"[0.7962656000163406, 0.985408800188452, 1.0900773000903428, 1.2767878000158817, 1.4403959000483155, 1.650076000019908]",,,,,,120202,001,2023-11-27_13h39.45.946,REPSWITCH1_version2_list2,2022.2.4,143.96940909339096,
REPSWITCH1/PICTURE_517.png,cuerda,speak,darkblue,switch,2,T,2,3,2,2,Stim4_Set2,0,None,35,34,35,0,34,34,34,,,,,,,,,,,,,,,,,,,,,,,190.57248819991946,191.64206099999137,191.64206099999137,191.64206099999137,191.64206099999137,191.64206099999137,191.64206099999137,191.64206099999137,191.64206099999137,None,0,,C:\2023\REPSWITCH21092023\REPSWITCH_excgange\REPSWITCH_excgange\data/120202_REPSWITCH1_version2_list2_2023-11-27_13h39.45.946_micRespv2l2_recorded\recording_micRespv2l2_2023-11-27_13h42.52.896.wav,194.6702419000212,195.17030799994245,None,194.6702419000212,194.6702419000212,194.6702419000212,194.6702419000212,194.6702419000212,194.6702419000212,,,,,,,120202,001,2023-11-27_13h39.45.946,REPSWITCH1_version2_list2,2022.2.4,143.96940909339096,
REPSWITCH1/PICTURE_169.png,espalda,speak,darkblue,filler,2,F,2,3,2,2,Stim8_Set1,1,repeat,36,35,36,0,35,35,35,,,,,,,,,,,,,,,,,,,,,,,195.17030799994245,196.21209950000048,196.21209950000048,196.21209950000048,196.21209950000048,196.21209950000048,196.21209950000048,196.21209950000048,196.21209950000048,None,0,,C:\2023\REPSWITCH21092023\REPSWITCH_excgange\REPSWITCH_excgange\data/120202_REPSWITCH1_version2_list2_2023-11-27_13h39.45.946_micRespv2l2_recorded\recording_micRespv2l2_2023-11-27_13h42.57.465.wav,199.2333233000245,199.73340729996562,None,199.2333233000245,199.2333233000245,199.2333233000245,199.2333233000245,199.2333233000245,199.2333233000245,,,,,,,120202,001,2023-11-27_13h39.45.946,REPSWITCH1_version2_list2,2022.2.4,143.96940909339096,
REPSWITCH1/PICTURE_30.png,granja,speak,darkblue,nontarget,2,NT,2,3,2,2,Stim5_Set2,1,repeat,37,36,37,0,36,36,36,,,,,,,,,,,,,,,,,,,,,,,199.73340729996562,200.7960775999818,200.7960775999818,200.7960775999818,200.7960775999818,200.7960775999818,200.7960775999818,200.7960775999818,200.7960775999818,None,0,,C:\2023\REPSWITCH21092023\REPSWITCH_excgange\REPSWITCH_excgange\data/120202_REPSWITCH1_version2_list2_2023-11-27_13h39.45.946_micRespv2l2_recorded\recording_micRespv2l2_2023-11-27_13h43.02.050.wav,203.82421389990486,,None,203.82421389990486,203.82421389990486,203.82421389990486,203.82421389990486,203.82421389990486,203.82421389990486,,,,,,,120202,001,2023-11-27_13h39.45.946,REPSWITCH1_version2_list2,2022.2.4,143.96940909339096,
REPSWITCH1/PICTURE_30.png,granja,type,gold,switch,1,T,2,3,2,2,Stim5_Set2,0,None,38,37,38,0,37,37,37,,,,,,,,,,,,,,,,,,,,,,,204.32428899989463,205.35222989995964,205.35222989995964,205.35222989995964,205.35222989995964,205.35222989995964,205.35222989995964,205.35222989995964,205.35222989995964,"['g', 'r', 'a', 'n', 'k', 'backspace', 'j', 'a']",0,granja,C:\2023\REPSWITCH21092023\REPSWITCH_excgange\REPSWITCH_excgange\data/120202_REPSWITCH1_version2_list2_2023-11-27_13h39.45.946_micRespv2l2_recorded\recording_micRespv2l2_2023-11-27_13h43.06.606.wav,208.38040199992247,,None,208.38040199992247,208.38040199992247,208.38040199992247,208.38040199992247,208.38040199992247,208.38040199992247,"[0.9382921999786049, 1.1615450999233872, 1.5542276001069695, 1.7359746000729501, 1.9103445999789983, 2.211708900053054, 2.455882800044492, 2.5794228001032025]",,,,,,120202,001,2023-11-27_13h39.45.946,REPSWITCH1_version2_list2,2022.2.4,143.96940909339096,
REPSWITCH1/PICTURE_128.png,muñeca,type,gold,filler,1,F,2,3,2,2,Stim4_Set1,1,repeat,39,38,39,0,38,38,38,,,,,,,,,,,,,,,,,,,,,,,208.88043909985572,209.97787280008197,209.97787280008197,209.97787280008197,209.97787280008197,209.97787280008197,209.97787280008197,209.97787280008197,209.97787280008197,"['m', 'u', 'ñ', 'e', 'c', 'a']",0,muñeca,C:\2023\REPSWITCH21092023\REPSWITCH_excgange\REPSWITCH_excgange\data/120202_REPSWITCH1_version2_list2_2023-11-27_13h39.45.946_micRespv2l2_recorded\recording_micRespv2l2_2023-11-27_13h43.11.232.wav,213.00599109986797,,None,213.00599109986797,213.00599109986797,213.00599109986797,213.00599109986797,213.00599109986797,213.00599109986797,"[0.8970967000350356, 1.0997350001707673, 1.4096252000890672, 1.5584507000166923, 1.8429071002174169, 1.98096640012227]",,,,,,120202,001,2023-11-27_13h39.45.946,REPSWITCH1_version2_list2,2022.2.4,143.96940909339096,
REPSWITCH1/PICTURE_199.png,falda,type,gold,nontarget,1,NT,2,3,2,2,Stim8_Set2,0,None,40,39,40,0,39,39,39,,,,,,,,,,,,,,,,,,,,,,,213.50604690006003,214.58952099992894,214.58952099992894,214.58952099992894,214.58952099992894,214.58952099992894,214.58952099992894,214.58952099992894,214.58952099992894,"['f', 'a', 'l', 'd', 'a']",0,falda,C:\2023\REPSWITCH21092023\REPSWITCH_excgange\REPSWITCH_excgange\data/120202_REPSWITCH1_version2_list2_2023-11-27_13h39.45.946_micRespv2l2_recorded\recording_micRespv2l2_2023-11-27_13h43.15.843.wav,217.6176890998613,,None,217.6176890998613,217.6176890998613,217.6176890998613,217.6176890998613,217.6176890998613,217.6176890998613,"[1.1243098000995815, 1.3812106000259519, 1.5085771000012755, 1.6352117001079023, 1.8249403999652714]",,,,,,120202,001,2023-11-27_13h39.45.946,REPSWITCH1_version2_list2,2022.2.4,143.96940909339096,
REPSWITCH1/PICTURE_199.png,falda,speak,darkblue,switch,2,T,2,3,2,2,Stim8_Set2,0,None,41,40,41,0,40,40,40,,,,,,,,,,,,,,,,,,,,,,,218.11773000005633,219.23595490003936,219.23595490003936,219.23595490003936,219.23595490003936,219.23595490003936,219.23595490003936,219.23595490003936,219.23595490003936,None,0,,C:\2023\REPSWITCH21092023\REPSWITCH_excgange\REPSWITCH_excgange\data/120202_REPSWITCH1_version2_list2_2023-11-27_13h39.45.946_micRespv2l2_recorded\recording_micRespv2l2_2023-11-27_13h43.20.490.wav,222.25720470002852,222.75733119994402,None,222.25720470002852,222.25720470002852,222.25720470002852,222.25720470002852,222.25720470002852,222.25720470002852,,,,,,,120202,001,2023-11-27_13h39.45.946,REPSWITCH1_version2_list2,2022.2.4,143.96940909339096,
REPSWITCH1/PICTURE_152.png,caracol,speak,darkblue,nontarget,2,NT,2,3,2,2,Stim2_Set2,1,switch,42,41,42,0,41,41,41,,,,,,,,,,,,,,,,,,,,,,,222.75733119994402,223.92415519990027,223.92415519990027,223.92415519990027,223.92415519990027,223.92415519990027,223.92415519990027,223.92415519990027,223.92415519990027,None,0,,C:\2023\REPSWITCH21092023\REPSWITCH_excgange\REPSWITCH_excgange\data/120202_REPSWITCH1_version2_list2_2023-11-27_13h39.45.946_micRespv2l2_recorded\recording_micRespv2l2_2023-11-27_13h43.25.178.wav,226.952326499857,,None,226.952326499857,226.952326499857,226.952326499857,226.952326499857,226.952326499857,226.952326499857,,,,,,,120202,001,2023-11-27_13h39.45.946,REPSWITCH1_version2_list2,2022.2.4,143.96940909339096,
REPSWITCH1/PICTURE_152.png,caracol,speak,darkblue,repeat,2,T,2,3,2,2,Stim2_Set2,0,None,43,42,43,0,42,42,42,,,,,,,,,,,,,,,,,,,,,,,227.45230780006386,228.57752799987793,228.57752799987793,228.57752799987793,228.57752799987793,228.57752799987793,228.57752799987793,228.57752799987793,228.57752799987793,None,0,,C:\2023\REPSWITCH21092023\REPSWITCH_excgange\REPSWITCH_excgange\data/120202_REPSWITCH1_version2_list2_2023-11-27_13h39.45.946_micRespv2l2_recorded\recording_micRespv2l2_2023-11-27_13h43.29.831.wav,231.5987058999017,232.09874040004797,None,231.5987058999017,231.5987058999017,231.5987058999017,231.5987058999017,231.5987058999017,231.5987058999017,,,,,,,120202,001,2023-11-27_13h39.45.946,REPSWITCH1_version2_list2,2022.2.4,143.96940909339096,
REPSWITCH1/PICTURE_381.png,fresa,type,gold,filler,1,F,2,3,2,2,Stim2_Set1,0,None,44,43,44,0,43,43,43,,,,,,,,,,,,,,,,,,,,,,,232.09874040004797,233.17531919991598,233.17531919991598,233.17531919991598,233.17531919991598,233.17531919991598,233.17531919991598,233.17531919991598,233.17531919991598,"['f', 'r', 'e', 's', 'a']",0,fresa,C:\2023\REPSWITCH21092023\REPSWITCH_excgange\REPSWITCH_excgange\data/120202_REPSWITCH1_version2_list2_2023-11-27_13h39.45.946_micRespv2l2_recorded\recording_micRespv2l2_2023-11-27_13h43.34.429.wav,236.19650499988347,236.6965818000026,None,236.19650499988347,236.19650499988347,236.19650499988347,236.19650499988347,236.19650499988347,236.19650499988347,"[0.839062700048089, 1.0124353002756834, 1.1789482000749558, 1.3643218001816422, 1.5338380001485348]",,,,,,120202,001,2023-11-27_13h39.45.946,REPSWITCH1_version2_list2,2022.2.4,143.96940909339096,
REPSWITCH1/PICTURE_175.png,pintor,speak,darkblue,nontarget,2,NT,2,3,2,2,Stim1_Set2,1,switch,45,44,45,0,44,44,44,,,,,,,,,,,,,,,,,,,,,,,236.6965818000026,237.79401140008122,237.79401140008122,237.79401140008122,237.79401140008122,237.79401140008122,237.79401140008122,237.79401140008122,237.79401140008122,None,0,,C:\2023\REPSWITCH21092023\REPSWITCH_excgange\REPSWITCH_excgange\data/120202_REPSWITCH1_version2_list2_2023-11-27_13h39.45.946_micRespv2l2_recorded\recording_micRespv2l2_2023-11-27_13h43.39.048.wav,240.82213980006054,,None,240.82213980006054,240.82213980006054,240.82213980006054,240.82213980006054,240.82213980006054,240.82213980006054,,,,,,,120202,001,2023-11-27_13h39.45.946,REPSWITCH1_version2_list2,2022.2.4,143.96940909339096,
REPSWITCH1/PICTURE_175.png,pintor,speak,darkblue,repeat,2,T,2,3,2,2,Stim1_Set2,0,None,46,45,46,0,45,45,45,,,,,,,,,,,,,,,,,,,,,,,241.32225880003534,242.39178519998677,242.39178519998677,242.39178519998677,242.39178519998677,242.39178519998677,242.39178519998677,242.39178519998677,242.39178519998677,None,0,,C:\2023\REPSWITCH21092023\REPSWITCH_excgange\REPSWITCH_excgange\data/120202_REPSWITCH1_version2_list2_2023-11-27_13h39.45.946_micRespv2l2_recorded\recording_micRespv2l2_2023-11-27_13h43.43.646.wav,245.4129760998767,245.91307720006444,None,245.4129760998767,245.4129760998767,245.4129760998767,245.4129760998767,245.4129760998767,245.4129760998767,,,,,,,120202,001,2023-11-27_13h39.45.946,REPSWITCH1_version2_list2,2022.2.4,143.96940909339096,
REPSWITCH1/PICTURE_178.png,puente,type,gold,filler,1,F,2,3,2,2,Stim1_Set1,0,None,47,46,47,0,46,46,46,,,,,,,,,,,,,,,,,,,,,,,245.91307720006444,246.96880030003376,246.96880030003376,246.96880030003376,246.96880030003376,246.96880030003376,246.96880030003376,246.96880030003376,246.96880030003376,"['p', 'u', 'e', 'n', 't', 'e']",0,puente,C:\2023\REPSWITCH21092023\REPSWITCH_excgange\REPSWITCH_excgange\data/120202_REPSWITCH1_version2_list2_2023-11-27_13h39.45.946_micRespv2l2_recorded\recording_micRespv2l2_2023-11-27_13h43.48.222.wav,249.99695779988542,,None,249.99695779988542,249.99695779988542,249.99695779988542,249.99695779988542,249.99695779988542,249.99695779988542,"[1.1643409000243992, 1.4716244000010192, 1.6779350999277085, 1.8211014000698924, 1.9389577000401914, 2.11835730005987]",,,,,,120202,001,2023-11-27_13h39.45.946,REPSWITCH1_version2_list2,2022.2.4,143.96940909339096,
REPSWITCH1/PICTURE_19.png,pavo,speak,darkblue,filler,2,F,2,3,2,2,Stim5_Set1,0,None,48,47,48,0,47,47,47,,,,,,,,,,,,,,,,,,,,,,,250.49701240006834,251.56657360005192,251.56657360005192,251.56657360005192,251.56657360005192,251.56657360005192,251.56657360005192,251.56657360005192,251.56657360005192,None,0,,C:\2023\REPSWITCH21092023\REPSWITCH_excgange\REPSWITCH_excgange\data/120202_REPSWITCH1_version2_list2_2023-11-27_13h39.45.946_micRespv2l2_recorded\recording_micRespv2l2_2023-11-27_13h43.52.821.wav,254.59476889995858,,None,254.59476889995858,254.59476889995858,254.59476889995858,254.59476889995858,254.59476889995858,254.59476889995858,,,,,,,120202,001,2023-11-27_13h39.45.946,REPSWITCH1_version2_list2,2022.2.4,143.96940909339096,
REPSWITCH1/PICTURE_264.png,mano,speak,darkblue,nontarget,2,NT,2,3,2,2,Stim3_Set2,1,repeat,49,48,49,0,48,48,48,,,,,,,,,,,,,,,,,,,,,,,255.0948147000745,256.2061739000492,256.2061739000492,256.2061739000492,256.2061739000492,256.2061739000492,256.2061739000492,256.2061739000492,256.2061739000492,None,0,,C:\2023\REPSWITCH21092023\REPSWITCH_excgange\REPSWITCH_excgange\data/120202_REPSWITCH1_version2_list2_2023-11-27_13h39.45.946_micRespv2l2_recorded\recording_micRespv2l2_2023-11-27_13h43.57.459.wav,259.2342580000404,,None,259.2342580000404,259.2342580000404,259.2342580000404,259.2342580000404,259.2342580000404,259.2342580000404,,,,,,,120202,001,2023-11-27_13h39.45.946,REPSWITCH1_version2_list2,2022.2.4,143.96940909339096,
REPSWITCH1/PICTURE_264.png,mano,type,gold,switch,1,T,2,3,2,2,Stim3_Set2,0,None,50,49,50,0,49,49,49,,,,,,,,,,,,,,,,,,,,,,,259.7343307000119,260.87343070004135,260.87343070004135,260.87343070004135,260.87343070004135,260.87343070004135,260.87343070004135,260.87343070004135,260.87343070004135,"['m', 'a', 'n', 'o']",0,mano,C:\2023\REPSWITCH21092023\REPSWITCH_excgange\REPSWITCH_excgange\data/120202_REPSWITCH1_version2_list2_2023-11-27_13h39.45.946_micRespv2l2_recorded\recording_micRespv2l2_2023-11-27_13h44.02.127.wav,263.8945780999493,264.39464779989794,None,263.8945780999493,263.8945780999493,263.8945780999493,263.8945780999493,263.8945780999493,263.8945780999493,"[0.9758394001983106, 1.156780700199306, 1.2973017001058906, 1.5075974001083523]",,,,,,120202,001,2023-11-27_13h39.45.946,REPSWITCH1_version2_list2,2022.2.4,143.96940909339096,
REPSWITCH1/PICTURE_446.png,cerdo,type,gold,filler,1,F,3,3,2,2,Stim7_Set2,0,None,51,50,51,0,50,50,50,,,,,,,,,,,,,,,,,,,,,,,264.39464779989794,265.5268228999339,265.5268228999339,265.5268228999339,265.5268228999339,265.5268228999339,265.5268228999339,265.5268228999339,265.5268228999339,"['c', 'e', 'r', 'd', 'o']",0,cerdo,C:\2023\REPSWITCH21092023\REPSWITCH_excgange\REPSWITCH_excgange\data/120202_REPSWITCH1_version2_list2_2023-11-27_13h39.45.946_micRespv2l2_recorded\recording_micRespv2l2_2023-11-27_13h44.06.781.wav,268.55494170007296,,space,268.55494170007296,268.55494170007296,268.55494170007296,268.55494170007296,268.55494170007296,268.55494170007296,"[0.8219372001476586, 1.2195948001462966, 1.3830472002737224, 1.5395117001608014, 1.6531025001313537]",269.0549991999287,269.0549991999287,12.620904400246218,,,120202,001,2023-11-27_13h39.45.946,REPSWITCH1_version2_list2,2022.2.4,143.96940909339096,
REPSWITCH1/PICTURE_235.png,aguja,type,gold,nontarget,1,NT,3,3,2,2,Stim4_Set3,1,repeat,52,51,52,0,51,51,51,,,,,,,,,,,,,,,,,,,,,,,281.68860869994387,282.8623726000078,282.8623726000078,282.8623726000078,282.8623726000078,282.8623726000078,282.8623726000078,282.8623726000078,282.8623726000078,"['a', 'g', 'u', 'j', 'a']",0,aguja,C:\2023\REPSWITCH21092023\REPSWITCH_excgange\REPSWITCH_excgange\data/120202_REPSWITCH1_version2_list2_2023-11-27_13h39.45.946_micRespv2l2_recorded\recording_micRespv2l2_2023-11-27_13h44.24.117.wav,285.8906207000837,,None,285.8906207000837,285.8906207000837,285.8906207000837,285.8906207000837,285.8906207000837,285.8906207000837,"[1.06457670009695, 1.4901581001468003, 1.703459900105372, 1.8658606000244617, 1.97486130008474]",,,,,,120202,001,2023-11-27_13h39.45.946,REPSWITCH1_version2_list2,2022.2.4,143.96940909339096,
REPSWITCH1/PICTURE_235.png,aguja,speak,darkblue,switch,2,T,3,3,2,2,Stim4_Set3,0,None,53,52,53,0,52,52,52,,,,,,,,,,,,,,,,,,,,,,,286.39060979988426,287.5504668999929,287.5504668999929,287.5504668999929,287.5504668999929,287.5504668999929,287.5504668999929,287.5504668999929,287.5504668999929,None,0,,C:\2023\REPSWITCH21092023\REPSWITCH_excgange\REPSWITCH_excgange\data/120202_REPSWITCH1_version2_list2_2023-11-27_13h39.45.946_micRespv2l2_recorded\recording_micRespv2l2_2023-11-27_13h44.28.804.wav,290.5716937999241,291.0717529999092,None,290.5716937999241,290.5716937999241,290.5716937999241,290.5716937999241,290.5716937999241,290.5716937999241,,,,,,,120202,001,2023-11-27_13h39.45.946,REPSWITCH1_version2_list2,2022.2.4,143.96940909339096,
REPSWITCH1/PICTURE_552.png,manzana,speak,darkblue,filler,2,F,3,3,2,2,Stim6_Set2,0,None,54,53,54,0,53,53,53,,,,,,,,,,,,,,,,,,,,,,,291.0717529999092,292.2247094998602,292.2247094998602,292.2247094998602,292.2247094998602,292.2247094998602,292.2247094998602,292.2247094998602,292.2247094998602,None,0,,C:\2023\REPSWITCH21092023\REPSWITCH_excgange\REPSWITCH_excgange\data/120202_REPSWITCH1_version2_list2_2023-11-27_13h39.45.946_micRespv2l2_recorded\recording_micRespv2l2_2023-11-27_13h44.33.478.wav,295.2528961999342,,None,295.2528961999342,295.2528961999342,295.2528961999342,295.2528961999342,295.2528961999342,295.2528961999342,,,,,,,120202,001,2023-11-27_13h39.45.946,REPSWITCH1_version2_list2,2022.2.4,143.96940909339096,
REPSWITCH1/PICTURE_271.png,conejo,speak,darkblue,nontarget,2,NT,3,3,2,2,Stim7_Set3,1,repeat,55,54,55,0,54,54,54,,,,,,,,,,,,,,,,,,,,,,,295.75295139988884,296.8711593998596,296.8711593998596,296.8711593998596,296.8711593998596,296.8711593998596,296.8711593998596,296.8711593998596,296.8711593998596,None,0,,C:\2023\REPSWITCH21092023\REPSWITCH_excgange\REPSWITCH_excgange\data/120202_REPSWITCH1_version2_list2_2023-11-27_13h39.45.946_micRespv2l2_recorded\recording_micRespv2l2_2023-11-27_13h44.38.124.wav,299.89240249991417,300.3924364000559,None,299.89240249991417,299.89240249991417,299.89240249991417,299.89240249991417,299.89240249991417,299.89240249991417,,,,,,,120202,001,2023-11-27_13h39.45.946,REPSWITCH1_version2_list2,2022.2.4,143.96940909339096,
REPSWITCH1/PICTURE_271.png,conejo,type,gold,switch,1,T,3,3,2,2,Stim7_Set3,0,None,56,55,56,0,55,55,55,,,,,,,,,,,,,,,,,,,,,,,300.3924364000559,301.4481748000253,301.4481748000253,301.4481748000253,301.4481748000253,301.4481748000253,301.4481748000253,301.4481748000253,301.4481748000253,"['c', 'o', 'n', 'e', 'j', 'o']",0,conejo,C:\2023\REPSWITCH21092023\REPSWITCH_excgange\REPSWITCH_excgange\data/120202_REPSWITCH1_version2_list2_2023-11-27_13h39.45.946_micRespv2l2_recorded\recording_micRespv2l2_2023-11-27_13h44.42.701.wav,304.4693857000675,304.969436599873,None,304.4693857000675,304.4693857000675,304.4693857000675,304.4693857000675,304.4693857000675,304.4693857000675,"[0.9009531000629067, 1.0454123001545668, 1.2852388001047075, 1.4227943001314998, 1.6580120001453906, 1.8423952001612633]",,,,,,120202,001,2023-11-27_13h39.45.946,REPSWITCH1_version2_list2,2022.2.4,143.96940909339096,
REPSWITCH1/PICTURE_610.png,miel,type,gold,nontarget,1,NT,3,3,2,2,Stim2_Set3,1,repeat,57,56,57,0,56,56,56,,,,,,,,,,,,,,,,,,,,,,,304.969436599873,306.0529755000025,306.0529755000025,306.0529755000025,306.0529755000025,306.0529755000025,306.0529755000025,306.0529755000025,306.0529755000025,"['m', 'i', 'e', 'l']",0,miel,C:\2023\REPSWITCH21092023\REPSWITCH_excgange\REPSWITCH_excgange\data/120202_REPSWITCH1_version2_list2_2023-11-27_13h39.45.946_micRespv2l2_recorded\recording_micRespv2l2_2023-11-27_13h44.47.306.wav,309.074107500026,309.5741933998652,None,309.074107500026,309.074107500026,309.074107500026,309.074107500026,309.074107500026,309.074107500026,"[1.030195000115782, 1.2135712001472712, 1.350117600057274, 1.481996700167656]",,,,,,120202,001,2023-11-27_13h39.45.946,REPSWITCH1_version2_list2,2022.2.4,143.96940909339096,
REPSWITCH1/PICTURE_610.png,miel,speak,darkblue,switch,2,T,3,3,2,2,Stim2_Set3,0,None,58,57,58,0,57,57,57,,,,,,,,,,,,,,,,,,,,,,,309.5741933998652,310.6994087998755,310.6994087998755,310.6994087998755,310.6994087998755,310.6994087998755,310.6994087998755,310.6994087998755,310.6994087998755,None,0,,C:\2023\REPSWITCH21092023\REPSWITCH_excgange\REPSWITCH_excgange\data/120202_REPSWITCH1_version2_list2_2023-11-27_13h39.45.946_micRespv2l2_recorded\recording_micRespv2l2_2023-11-27_13h44.51.953.wav,313.7205906000454,314.2206307000015,None,313.7205906000454,313.7205906000454,313.7205906000454,313.7205906000454,313.7205906000454,313.7205906000454,,,,,,,120202,001,2023-11-27_13h39.45.946,REPSWITCH1_version2_list2,2022.2.4,143.96940909339096,
REPSWITCH1/PICTURE_199.png,falda,type,gold,filler,1,F,3,3,2,2,Stim8_Set2,0,None,59,58,59,0,58,58,58,,,,,,,,,,,,,,,,,,,,,,,314.2206307000015,315.35967139992863,315.35967139992863,315.35967139992863,315.35967139992863,315.35967139992863,315.35967139992863,315.35967139992863,315.35967139992863,"['g', 'backspace', 'f', 'a', 'l', 'd', 'a']",0,falda,C:\2023\REPSWITCH21092023\REPSWITCH_excgange\REPSWITCH_excgange\data/120202_REPSWITCH1_version2_list2_2023-11-27_13h39.45.946_micRespv2l2_recorded\recording_micRespv2l2_2023-11-27_13h44.56.613.wav,318.38088559987955,318.8809889999684,None,318.38088559987955,318.38088559987955,318.38088559987955,318.38088559987955,318.38088559987955,318.38088559987955,"[1.0231596999801695, 1.257252600044012, 1.3968321001157165, 1.6525290999561548, 1.7657697000540793, 1.917220199946314, 2.1204637000337243]",,,,,,120202,001,2023-11-27_13h39.45.946,REPSWITCH1_version2_list2,2022.2.4,143.96940909339096,
REPSWITCH1/PICTURE_464.png,goma,speak,darkblue,nontarget,2,NT,3,3,2,2,Stim6_Set3,1,switch,60,59,60,0,59,59,59,,,,,,,,,,,,,,,,,,,,,,,318.8809889999684,319.91582200000994,319.91582200000994,319.91582200000994,319.91582200000994,319.91582200000994,319.91582200000994,319.91582200000994,319.91582200000994,None,0,,C:\2023\REPSWITCH21092023\REPSWITCH_excgange\REPSWITCH_excgange\data/120202_REPSWITCH1_version2_list2_2023-11-27_13h39.45.946_micRespv2l2_recorded\recording_micRespv2l2_2023-11-27_13h45.01.170.wav,322.9440121999942,,None,322.9440121999942,322.9440121999942,322.9440121999942,322.9440121999942,322.9440121999942,322.9440121999942,,,,,,,120202,001,2023-11-27_13h39.45.946,REPSWITCH1_version2_list2,2022.2.4,143.96940909339096,
REPSWITCH1/PICTURE_464.png,goma,speak,darkblue,repeat,2,T,3,3,2,2,Stim6_Set3,0,None,61,60,61,0,60,60,60,,,,,,,,,,,,,,,,,,,,,,,323.4440863998607,324.55534760002047,324.55534760002047,324.55534760002047,324.55534760002047,324.55534760002047,324.55534760002047,324.55534760002047,324.55534760002047,None,0,,C:\2023\REPSWITCH21092023\REPSWITCH_excgange\REPSWITCH_excgange\data/120202_REPSWITCH1_version2_list2_2023-11-27_13h39.45.946_micRespv2l2_recorded\recording_micRespv2l2_2023-11-27_13h45.05.808.wav,327.57659219997004,328.0766851999797,None,327.57659219997004,327.57659219997004,327.57659219997004,327.57659219997004,327.57659219997004,327.57659219997004,,,,,,,120202,001,2023-11-27_13h39.45.946,REPSWITCH1_version2_list2,2022.2.4,143.96940909339096,
REPSWITCH1/PICTURE_152.png,caracol,type,gold,filler,1,F,3,3,2,2,Stim2_Set2,0,None,62,61,62,0,61,61,61,,,,,,,,,,,,,,,,,,,,,,,328.0766851999797,329.25732550001703,329.25732550001703,329.25732550001703,329.25732550001703,329.25732550001703,329.25732550001703,329.25732550001703,329.25732550001703,"['c', 'a', 'r', 'a', 'c', 'o', 'l']",0,caracol,C:\2023\REPSWITCH21092023\REPSWITCH_excgange\REPSWITCH_excgange\data/120202_REPSWITCH1_version2_list2_2023-11-27_13h39.45.946_micRespv2l2_recorded\recording_micRespv2l2_2023-11-27_13h45.10.511.wav,332.2785398999695,332.7786153999623,None,332.2785398999695,332.2785398999695,332.2785398999695,332.2785398999695,332.2785398999695,332.2785398999695,"[0.9930684003047645, 1.0990955003071576, 1.2365353002678603, 1.3581631002016366, 1.572509800316766, 1.7400213002692908, 1.8937744002323598]",,,,,,120202,001,2023-11-27_13h39.45.946,REPSWITCH1_version2_list2,2022.2.4,143.96940909339096,
REPSWITCH1/PICTURE_320.png,iglesia,speak,darkblue,nontarget,2,NT,3,3,2,2,Stim8_Set3,1,switch,63,62,63,0,62,62,62,,,,,,,,,,,,,,,,,,,,,,,332.7786153999623,333.9316225000657,333.9316225000657,333.9316225000657,333.9316225000657,333.9316225000657,333.9316225000657,333.9316225000657,333.9316225000657,None,0,,C:\2023\REPSWITCH21092023\REPSWITCH_excgange\REPSWITCH_excgange\data/120202_REPSWITCH1_version2_list2_2023-11-27_13h39.45.946_micRespv2l2_recorded\recording_micRespv2l2_2023-11-27_13h45.15.185.wav,336.95276920008473,337.4528280000668,None,336.95276920008473,336.95276920008473,336.95276920008473,336.95276920008473,336.95276920008473,336.95276920008473,,,,,,,120202,001,2023-11-27_13h39.45.946,REPSWITCH1_version2_list2,2022.2.4,143.96940909339096,
REPSWITCH1/PICTURE_320.png,iglesia,speak,darkblue,repeat,2,T,3,3,2,2,Stim8_Set3,0,None,64,63,64,0,63,63,63,,,,,,,,,,,,,,,,,,,,,,,337.4528280000668,338.5502939999569,338.5502939999569,338.5502939999569,338.5502939999569,338.5502939999569,338.5502939999569,338.5502939999569,338.5502939999569,None,0,,C:\2023\REPSWITCH21092023\REPSWITCH_excgange\REPSWITCH_excgange\data/120202_REPSWITCH1_version2_list2_2023-11-27_13h39.45.946_micRespv2l2_recorded\recording_micRespv2l2_2023-11-27_13h45.19.805.wav,341.5784797000233,342.07853879989125,None,341.5784797000233,341.5784797000233,341.5784797000233,341.5784797000233,341.5784797000233,341.5784797000233,,,,,,,120202,001,2023-11-27_13h39.45.946,REPSWITCH1_version2_list2,2022.2.4,143.96940909339096,
REPSWITCH1/PICTURE_35.png,oreja,speak,darkblue,nontarget,2,NT,3,3,2,2,Stim5_Set3,0,None,65,64,65,0,64,64,64,,,,,,,,,,,,,,,,,,,,,,,342.07853879989125,343.1272096000612,343.1272096000612,343.1272096000612,343.1272096000612,343.1272096000612,343.1272096000612,343.1272096000612,343.1272096000612,None,0,,C:\2023\REPSWITCH21092023\REPSWITCH_excgange\REPSWITCH_excgange\data/120202_REPSWITCH1_version2_list2_2023-11-27_13h39.45.946_micRespv2l2_recorded\recording_micRespv2l2_2023-11-27_13h45.24.380.wav,346.1485228999518,346.6485206000507,None,346.1485228999518,346.1485228999518,346.1485228999518,346.1485228999518,346.1485228999518,346.1485228999518,,,,,,,120202,001,2023-11-27_13h39.45.946,REPSWITCH1_version2_list2,2022.2.4,143.96940909339096,
REPSWITCH1/PICTURE_35.png,oreja,type,gold,switch,1,T,3,3,2,2,Stim5_Set3,0,None,66,65,66,0,65,65,65,,,,,,,,,,,,,,,,,,,,,,,346.6485206000507,347.7319859000854,347.7319859000854,347.7319859000854,347.7319859000854,347.7319859000854,347.7319859000854,347.7319859000854,347.7319859000854,"['o', 'r', 'e', 'j', 'a']",0,oreja,C:\2023\REPSWITCH21092023\REPSWITCH_excgange\REPSWITCH_excgange\data/120202_REPSWITCH1_version2_list2_2023-11-27_13h39.45.946_micRespv2l2_recorded\recording_micRespv2l2_2023-11-27_13h45.28.985.wav,350.75318629993126,351.25328979990445,None,350.75318629993126,350.75318629993126,350.75318629993126,350.75318629993126,350.75318629993126,350.75318629993126,"[0.8986619000788778, 1.1051473000552505, 1.2517281002365053, 1.3673694001045078, 1.467103200033307]",,,,,,120202,001,2023-11-27_13h39.45.946,REPSWITCH1_version2_list2,2022.2.4,143.96940909339096,
REPSWITCH1/PICTURE_517.png,cuerda,speak,darkblue,filler,2,F,3,3,2,2,Stim4_Set2,0,None,67,66,67,0,66,66,66,,,,,,,,,,,,,,,,,,,,,,,351.25328979990445,352.33677310007624,352.33677310007624,352.33677310007624,352.33677310007624,352.33677310007624,352.33677310007624,352.33677310007624,352.33677310007624,None,0,,C:\2023\REPSWITCH21092023\REPSWITCH_excgange\REPSWITCH_excgange\data/120202_REPSWITCH1_version2_list2_2023-11-27_13h39.45.946_micRespv2l2_recorded\recording_micRespv2l2_2023-11-27_13h45.33.591.wav,355.3649450999219,,None,355.3649450999219,355.3649450999219,355.3649450999219,355.3649450999219,355.3649450999219,355.3649450999219,,,,,,,120202,001,2023-11-27_13h39.45.946,REPSWITCH1_version2_list2,2022.2.4,143.96940909339096,
REPSWITCH1/PICTURE_30.png,granja,type,gold,filler,1,F,3,3,2,2,Stim5_Set2,1,switch,68,67,68,0,67,67,67,,,,,,,,,,,,,,,,,,,,,,,355.8650779000018,356.96930349990726,356.96930349990726,356.96930349990726,356.96930349990726,356.96930349990726,356.96930349990726,356.96930349990726,356.96930349990726,"['g', 'r', 'a', 'n', 'j', 'a']",0,granja,C:\2023\REPSWITCH21092023\REPSWITCH_excgange\REPSWITCH_excgange\data/120202_REPSWITCH1_version2_list2_2023-11-27_13h39.45.946_micRespv2l2_recorded\recording_micRespv2l2_2023-11-27_13h45.38.223.wav,359.99748909985647,,None,359.99748909985647,359.99748909985647,359.99748909985647,359.99748909985647,359.99748909985647,359.99748909985647,"[0.913955100113526, 1.0983629000838846, 1.5122862001881003, 1.6946672000922263, 1.8513617999851704, 1.9393584001809359]",,,,,,120202,001,2023-11-27_13h39.45.946,REPSWITCH1_version2_list2,2022.2.4,143.96940909339096,
REPSWITCH1/PICTURE_242.png,cartero,type,gold,nontarget,1,NT,3,3,2,2,Stim3_Set3,0,None,69,68,69,0,68,68,68,,,,,,,,,,,,,,,,,,,,,,,360.49755440000445,361.5880414999556,361.5880414999556,361.5880414999556,361.5880414999556,361.5880414999556,361.5880414999556,361.5880414999556,361.5880414999556,"['c', 'a', 'r', 't', 'e', 'r', 'o']",0,cartero,C:\2023\REPSWITCH21092023\REPSWITCH_excgange\REPSWITCH_excgange\data/120202_REPSWITCH1_version2_list2_2023-11-27_13h39.45.946_micRespv2l2_recorded\recording_micRespv2l2_2023-11-27_13h45.42.841.wav,364.61617340007797,,None,364.61617340007797,364.61617340007797,364.61617340007797,364.61617340007797,364.61617340007797,364.61617340007797,"[0.9887171001173556, 1.2040013000369072, 1.4656501000281423, 1.6420665001496673, 1.7148352002259344, 2.269970400026068, 2.3527066002134234]",,,,,,120202,001,2023-11-27_13h39.45.946,REPSWITCH1_version2_list2,2022.2.4,143.96940909339096,
REPSWITCH1/PICTURE_242.png,cartero,type,gold,repeat,1,T,3,3,2,2,Stim3_Set3,0,None,70,69,70,0,69,69,69,,,,,,,,,,,,,,,,,,,,,,,365.11620449996553,366.24832640006207,366.24832640006207,366.24832640006207,366.24832640006207,366.24832640006207,366.24832640006207,366.24832640006207,366.24832640006207,"['c', 'a', 'r', 't', 'e', 'r', 'o']",0,cartero,C:\2023\REPSWITCH21092023\REPSWITCH_excgange\REPSWITCH_excgange\data/120202_REPSWITCH1_version2_list2_2023-11-27_13h39.45.946_micRespv2l2_recorded\recording_micRespv2l2_2023-11-27_13h45.47.501.wav,369.26950319996104,369.7695981999859,None,369.26950319996104,369.26950319996104,369.26950319996104,369.26950319996104,369.26950319996104,369.26950319996104,"[0.8069335001055151, 0.90759740001522, 1.0175406001508236, 1.1799966001417488, 1.2786342001054436, 1.4435233001131564, 1.5441227999981493]",,,,,,120202,001,2023-11-27_13h39.45.946,REPSWITCH1_version2_list2,2022.2.4,143.96940909339096,
REPSWITCH1/PICTURE_264.png,mano,speak,darkblue,filler,2,F,3,3,2,2,Stim3_Set2,1,switch,71,70,71,0,70,70,70,,,,,,,,,,,,,,,,,,,,,,,369.7695981999859,370.83223289996386,370.83223289996386,370.83223289996386,370.83223289996386,370.83223289996386,370.83223289996386,370.83223289996386,370.83223289996386,None,0,,C:\2023\REPSWITCH21092023\REPSWITCH_excgange\REPSWITCH_excgange\data/120202_REPSWITCH1_version2_list2_2023-11-27_13h39.45.946_micRespv2l2_recorded\recording_micRespv2l2_2023-11-27_13h45.52.085.wav,373.85344069986604,374.3535398999229,None,373.85344069986604,373.85344069986604,373.85344069986604,373.85344069986604,373.85344069986604,373.85344069986604,,,,,,,120202,001,2023-11-27_13h39.45.946,REPSWITCH1_version2_list2,2022.2.4,143.96940909339096,
REPSWITCH1/PICTURE_576.png,guante,type,gold,nontarget,1,NT,3,3,2,2,Stim1_Set3,1,switch,72,71,72,0,71,71,71,,,,,,,,,,,,,,,,,,,,,,,374.3535398999229,375.49952169996686,375.49952169996686,375.49952169996686,375.49952169996686,375.49952169996686,375.49952169996686,375.49952169996686,375.49952169996686,"['g', 'u', 'a', 'n', 't', 'e']",0,guante,C:\2023\REPSWITCH21092023\REPSWITCH_excgange\REPSWITCH_excgange\data/120202_REPSWITCH1_version2_list2_2023-11-27_13h39.45.946_micRespv2l2_recorded\recording_micRespv2l2_2023-11-27_13h45.56.753.wav,378.52073500002734,379.0207807000261,None,378.52073500002734,378.52073500002734,378.52073500002734,378.52073500002734,378.52073500002734,378.52073500002734,"[0.7716138001997024, 1.0267510002013296, 1.131400200072676, 1.253991800127551, 1.4401690000668168, 1.606643000151962]",,,,,,120202,001,2023-11-27_13h39.45.946,REPSWITCH1_version2_list2,2022.2.4,143.96940909339096,
REPSWITCH1/PICTURE_576.png,guante,type,gold,repeat,1,T,3,3,2,2,Stim1_Set3,0,None,73,72,73,0,72,72,72,,,,,,,,,,,,,,,,,,,,,,,379.0207807000261,380.13212700001895,380.13212700001895,380.13212700001895,380.13212700001895,380.13212700001895,380.13212700001895,380.13212700001895,380.13212700001895,"['g', 'u', 'a', 'n', 't', 'e', 'r', 'backspace']",0,guante,C:\2023\REPSWITCH21092023\REPSWITCH_excgange\REPSWITCH_excgange\data/120202_REPSWITCH1_version2_list2_2023-11-27_13h39.45.946_micRespv2l2_recorded\recording_micRespv2l2_2023-11-27_13h46.01.386.wav,383.1602469999343,,None,383.1602469999343,383.1602469999343,383.1602469999343,383.1602469999343,383.1602469999343,383.1602469999343,"[1.011296900222078, 1.2010315002407879, 1.355222900165245, 1.4898204002529383, 1.7638948000967503, 1.9422971000894904, 1.9452877002768219, 2.9755409001372755]",,,,,,120202,001,2023-11-27_13h39.45.946,REPSWITCH1_version2_list2,2022.2.4,143.96940909339096,
REPSWITCH1/PICTURE_175.png,pintor,speak,darkblue,filler,2,F,3,3,2,2,Stim1_Set2,0,None,74,73,74,0,73,73,73,,,,,,,,,,,,,,,,,,,,,,,383.6603210999165,384.71599270007573,384.71599270007573,384.71599270007573,384.71599270007573,384.71599270007573,384.71599270007573,384.71599270007573,384.71599270007573,None,0,,C:\2023\REPSWITCH21092023\REPSWITCH_excgange\REPSWITCH_excgange\data/120202_REPSWITCH1_version2_list2_2023-11-27_13h39.45.946_micRespv2l2_recorded\recording_micRespv2l2_2023-11-27_13h46.05.970.wav,387.744203499984,,None,387.744203499984,387.744203499984,387.744203499984,387.744203499984,387.744203499984,387.744203499984,,,,,,,120202,001,2023-11-27_13h39.45.946,REPSWITCH1_version2_list2,2022.2.4,143.96940909339096,
REPSWITCH1/PICTURE_498.png,taza,type,gold,nontarget,1,NT,4,3,2,2,Stim4_Set4,0,None,75,74,75,0,74,74,74,,,,,,,,,,,,,,,,,,,,,,,388.24421519995667,389.327716199914,389.327716199914,389.327716199914,389.327716199914,389.327716199914,389.327716199914,389.327716199914,389.327716199914,"['t', 'a', 'z', 'a']",0,taza,C:\2023\REPSWITCH21092023\REPSWITCH_excgange\REPSWITCH_excgange\data/120202_REPSWITCH1_version2_list2_2023-11-27_13h39.45.946_micRespv2l2_recorded\recording_micRespv2l2_2023-11-27_13h46.10.581.wav,392.34892409993336,392.84909210004844,None,392.34892409993336,392.34892409993336,392.34892409993336,392.34892409993336,392.34892409993336,392.34892409993336,"[0.9369359000120312, 1.0917897999752313, 1.2402250999584794, 1.362003300106153]",,,,,,120202,001,2023-11-27_13h39.45.946,REPSWITCH1_version2_list2,2022.2.4,143.96940909339096,
REPSWITCH1/PICTURE_498.png,taza,type,gold,repeat,1,T,4,3,2,2,Stim4_Set4,0,None,76,75,76,0,75,75,75,,,,,,,,,,,,,,,,,,,,,,,392.84909210004844,393.9047767999582,393.9047767999582,393.9047767999582,393.9047767999582,393.9047767999582,393.9047767999582,393.9047767999582,393.9047767999582,"['t', 'a', 'z', 'a']",0,taza,C:\2023\REPSWITCH21092023\REPSWITCH_excgange\REPSWITCH_excgange\data/120202_REPSWITCH1_version2_list2_2023-11-27_13h39.45.946_micRespv2l2_recorded\recording_micRespv2l2_2023-11-27_13h46.15.159.wav,396.9259502000641,397.4260003999807,None,396.9259502000641,396.9259502000641,396.9259502000641,396.9259502000641,396.9259502000641,396.9259502000641,"[0.7744795000180602, 0.9049400999210775, 1.079391400096938, 1.1890243000816554]",,,,,,120202,001,2023-11-27_13h39.45.946,REPSWITCH1_version2_list2,2022.2.4,143.96940909339096,
REPSWITCH1/PICTURE_235.png,aguja,speak,darkblue,filler,2,F,4,3,2,2,Stim4_Set3,0,None,77,76,77,0,76,76,76,,,,,,,,,,,,,,,,,,,,,,,397.4260003999807,398.5094683000352,398.5094683000352,398.5094683000352,398.5094683000352,398.5094683000352,398.5094683000352,398.5094683000352,398.5094683000352,None,0,,C:\2023\REPSWITCH21092023\REPSWITCH_excgange\REPSWITCH_excgange\data/120202_REPSWITCH1_version2_list2_2023-11-27_13h39.45.946_micRespv2l2_recorded\recording_micRespv2l2_2023-11-27_13h46.19.763.wav,401.5377116999589,,None,401.5377116999589,401.5377116999589,401.5377116999589,401.5377116999589,401.5377116999589,401.5377116999589,,,,,,,120202,001,2023-11-27_13h39.45.946,REPSWITCH1_version2_list2,2022.2.4,143.96940909339096,
REPSWITCH1/PICTURE_338.png,regalo,type,gold,nontarget,1,NT,4,3,2,2,Stim6_Set4,1,switch,78,77,78,0,77,77,77,,,,,,,,,,,,,,,,,,,,,,,402.0377042000182,403.1698570000008,403.1698570000008,403.1698570000008,403.1698570000008,403.1698570000008,403.1698570000008,403.1698570000008,403.1698570000008,"['r', 'e', 'g', 'a', 'l', 'o']",0,regalo,C:\2023\REPSWITCH21092023\REPSWITCH_excgange\REPSWITCH_excgange\data/120202_REPSWITCH1_version2_list2_2023-11-27_13h39.45.946_micRespv2l2_recorded\recording_micRespv2l2_2023-11-27_13h46.24.424.wav,406.1979968000669,,None,406.1979968000669,406.1979968000669,406.1979968000669,406.1979968000669,406.1979968000669,406.1979968000669,"[0.7769298001658171, 0.9374204000923783, 0.9922400000505149, 1.2165016001090407, 1.361009200103581, 1.4956047001760453]",,,,,,120202,001,2023-11-27_13h39.45.946,REPSWITCH1_version2_list2,2022.2.4,143.96940909339096,
REPSWITCH1/PICTURE_338.png,regalo,speak,darkblue,switch,2,T,4,3,2,2,Stim6_Set4,0,None,79,78,79,0,78,78,78,,,,,,,,,,,,,,,,,,,,,,,406.69802669994533,407.8093212998938,407.8093212998938,407.8093212998938,407.8093212998938,407.8093212998938,407.8093212998938,407.8093212998938,407.8093212998938,None,0,,C:\2023\REPSWITCH21092023\REPSWITCH_excgange\REPSWITCH_excgange\data/120202_REPSWITCH1_version2_list2_2023-11-27_13h39.45.946_micRespv2l2_recorded\recording_micRespv2l2_2023-11-27_13h46.29.063.wav,410.83054059999995,411.33058770000935,None,410.83054059999995,410.83054059999995,410.83054059999995,410.83054059999995,410.83054059999995,410.83054059999995,,,,,,,120202,001,2023-11-27_13h39.45.946,REPSWITCH1_version2_list2,2022.2.4,143.96940909339096,
REPSWITCH1/PICTURE_719.png,baño,speak,darkblue,nontarget,2,NT,4,3,2,2,Stim2_Set4,1,repeat,80,79,80,0,79,79,79,,,,,,,,,,,,,,,,,,,,,,,411.33058770000935,412.3655413000379,412.3655413000379,412.3655413000379,412.3655413000379,412.3655413000379,412.3655413000379,412.3655413000379,412.3655413000379,None,0,,C:\2023\REPSWITCH21092023\REPSWITCH_excgange\REPSWITCH_excgange\data/120202_REPSWITCH1_version2_list2_2023-11-27_13h39.45.946_micRespv2l2_recorded\recording_micRespv2l2_2023-11-27_13h46.33.619.wav,415.3867544999812,415.8867438000161,None,415.3867544999812,415.3867544999812,415.3867544999812,415.3867544999812,415.3867544999812,415.3867544999812,,,,,,,120202,001,2023-11-27_13h39.45.946,REPSWITCH1_version2_list2,2022.2.4,143.96940909339096,
REPSWITCH1/PICTURE_719.png,baño,speak,darkblue,repeat,2,T,4,3,2,2,Stim2_Set4,0,None,81,80,81,0,80,80,80,,,,,,,,,,,,,,,,,,,,,,,415.8867438000161,416.99114719987847,416.99114719987847,416.99114719987847,416.99114719987847,416.99114719987847,416.99114719987847,416.99114719987847,416.99114719987847,None,0,,C:\2023\REPSWITCH21092023\REPSWITCH_excgange\REPSWITCH_excgange\data/120202_REPSWITCH1_version2_list2_2023-11-27_13h39.45.946_micRespv2l2_recorded\recording_micRespv2l2_2023-11-27_13h46.38.245.wav,420.01227810001,420.51237519993447,None,420.01227810001,420.01227810001,420.01227810001,420.01227810001,420.01227810001,420.01227810001,,,,,,,120202,001,2023-11-27_13h39.45.946,REPSWITCH1_version2_list2,2022.2.4,143.96940909339096,
REPSWITCH1/PICTURE_271.png,conejo,type,gold,filler,1,F,4,3,2,2,Stim7_Set3,0,None,82,81,82,0,81,81,81,,,,,,,,,,,,,,,,,,,,,,,420.51237519993447,421.6305879999418,421.6305879999418,421.6305879999418,421.6305879999418,421.6305879999418,421.6305879999418,421.6305879999418,421.6305879999418,"['c', 'o', 'n', 'e', 'j', 'o']",0,conejo,C:\2023\REPSWITCH21092023\REPSWITCH_excgange\REPSWITCH_excgange\data/120202_REPSWITCH1_version2_list2_2023-11-27_13h39.45.946_micRespv2l2_recorded\recording_micRespv2l2_2023-11-27_13h46.42.884.wav,424.6517862000037,425.15191649994813,None,424.6517862000037,424.6517862000037,424.6517862000037,424.6517862000037,424.6517862000037,424.6517862000037,"[0.8115530002396554, 1.00489620026201, 1.2510406002402306, 1.3709133001975715, 1.4631800001952797, 1.6380736001301557]",,,,,,120202,001,2023-11-27_13h39.45.946,REPSWITCH1_version2_list2,2022.2.4,143.96940909339096,
REPSWITCH1/PICTURE_610.png,miel,speak,darkblue,filler,2,F,4,3,2,2,Stim2_Set3,0,None,83,82,83,0,82,82,82,,,,,,,,,,,,,,,,,,,,,,,425.15191649994813,426.2075793000404,426.2075793000404,426.2075793000404,426.2075793000404,426.2075793000404,426.2075793000404,426.2075793000404,426.2075793000404,None,0,,C:\2023\REPSWITCH21092023\REPSWITCH_excgange\REPSWITCH_excgange\data/120202_REPSWITCH1_version2_list2_2023-11-27_13h39.45.946_micRespv2l2_recorded\recording_micRespv2l2_2023-11-27_13h46.47.461.wav,429.22880909987725,429.72886510007083,None,429.22880909987725,429.22880909987725,429.22880909987725,429.22880909987725,429.22880909987725,429.22880909987725,,,,,,,120202,001,2023-11-27_13h39.45.946,REPSWITCH1_version2_list2,2022.2.4,143.96940909339096,
REPSWITCH1/PICTURE_687.png,camisa,speak,darkblue,nontarget,2,NT,4,3,2,2,Stim5_Set4,1,repeat,84,83,84,0,83,83,83,,,,,,,,,,,,,,,,,,,,,,,429.72886510007083,430.81240719999187,430.81240719999187,430.81240719999187,430.81240719999187,430.81240719999187,430.81240719999187,430.81240719999187,430.81240719999187,None,0,,C:\2023\REPSWITCH21092023\REPSWITCH_excgange\REPSWITCH_excgange\data/120202_REPSWITCH1_version2_list2_2023-11-27_13h39.45.946_micRespv2l2_recorded\recording_micRespv2l2_2023-11-27_13h46.52.066.wav,433.8335364998784,434.3336847999599,None,433.8335364998784,433.8335364998784,433.8335364998784,433.8335364998784,433.8335364998784,433.8335364998784,,,,,,,120202,001,2023-11-27_13h39.45.946,REPSWITCH1_version2_list2,2022.2.4,143.96940909339096,
REPSWITCH1/PICTURE_687.png,camisa,type,gold,switch,1,T,4,3,2,2,Stim5_Set4,0,None,85,84,85,0,84,84,84,,,,,,,,,,,,,,,,,,,,,,,434.3336847999599,435.35463339998387,435.35463339998387,435.35463339998387,435.35463339998387,435.35463339998387,435.35463339998387,435.35463339998387,435.35463339998387,"['a', 'backspace', 'c', 'a', 'm', 'i', 's', 'a']",0,camisa,C:\2023\REPSWITCH21092023\REPSWITCH_excgange\REPSWITCH_excgange\data/120202_REPSWITCH1_version2_list2_2023-11-27_13h39.45.946_micRespv2l2_recorded\recording_micRespv2l2_2023-11-27_13h46.56.608.wav,438.3758952000644,438.87587099988014,None,438.3758952000644,438.3758952000644,438.3758952000644,438.3758952000644,438.3758952000644,438.3758952000644,"[0.9650092001538724, 1.2782947001978755, 1.4686882002279162, 1.6520654000341892, 1.7627491001039743, 1.9165600000414997, 1.9848490001168102, 2.1546388000715524]",,,,,,120202,001,2023-11-27_13h39.45.946,REPSWITCH1_version2_list2,2022.2.4,143.96940909339096,
REPSWITCH1/PICTURE_319.png,vaca,type,gold,nontarget,1,NT,4,3,2,2,Stim1_Set4,0,None,86,85,86,0,85,85,85,,,,,,,,,,,,,,,,,,,,,,,438.87587099988014,440.0218668000307,440.0218668000307,440.0218668000307,440.0218668000307,440.0218668000307,440.0218668000307,440.0218668000307,440.0218668000307,"['v', 'a', 'c', 'a']",0,vaca,C:\2023\REPSWITCH21092023\REPSWITCH_excgange\REPSWITCH_excgange\data/120202_REPSWITCH1_version2_list2_2023-11-27_13h39.45.946_micRespv2l2_recorded\recording_micRespv2l2_2023-11-27_13h47.01.275.wav,443.04312489996664,443.54317720001563,None,443.04312489996664,443.04312489996664,443.04312489996664,443.04312489996664,443.04312489996664,443.04312489996664,"[0.8517710999585688, 0.9783701000269502, 1.0909910001792014, 1.1878357001114637]",,,,,,120202,001,2023-11-27_13h39.45.946,REPSWITCH1_version2_list2,2022.2.4,143.96940909339096,
REPSWITCH1/PICTURE_319.png,vaca,speak,darkblue,switch,2,T,4,3,2,2,Stim1_Set4,0,None,87,86,87,0,86,86,86,,,,,,,,,,,,,,,,,,,,,,,443.54317720001563,444.578097499907,444.578097499907,444.578097499907,444.578097499907,444.578097499907,444.578097499907,444.578097499907,444.578097499907,None,0,,C:\2023\REPSWITCH21092023\REPSWITCH_excgange\REPSWITCH_excgange\data/120202_REPSWITCH1_version2_list2_2023-11-27_13h39.45.946_micRespv2l2_recorded\recording_micRespv2l2_2023-11-27_13h47.05.832.wav,447.5992775000632,448.0993307000026,None,447.5992775000632,447.5992775000632,447.5992775000632,447.5992775000632,447.5992775000632,447.5992775000632,,,,,,,120202,001,2023-11-27_13h39.45.946,REPSWITCH1_version2_list2,2022.2.4,143.96940909339096,
REPSWITCH1/PICTURE_464.png,goma,type,gold,filler,1,F,4,3,2,2,Stim6_Set3,1,switch,88,87,88,0,87,87,87,,,,,,,,,,,,,,,,,,,,,,,448.0993307000026,449.252241600072,449.252241600072,449.252241600072,449.252241600072,449.252241600072,449.252241600072,449.252241600072,449.252241600072,"['g', 'o', 'm', 'a']",0,goma,C:\2023\REPSWITCH21092023\REPSWITCH_excgange\REPSWITCH_excgange\data/120202_REPSWITCH1_version2_list2_2023-11-27_13h39.45.946_micRespv2l2_recorded\recording_micRespv2l2_2023-11-27_13h47.10.505.wav,452.273494400084,452.77355069993064,None,452.273494400084,452.273494400084,452.273494400084,452.273494400084,452.273494400084,452.273494400084,"[0.8419765001162887, 0.9794687002431601, 1.193514100043103, 1.3279924001544714]",,,,,,120202,001,2023-11-27_13h39.45.946,REPSWITCH1_version2_list2,2022.2.4,143.96940909339096,
REPSWITCH1/PICTURE_728.png,pulpo,speak,darkblue,nontarget,2,NT,4,3,2,2,Stim8_Set4,1,switch,89,88,89,0,88,88,88,,,,,,,,,,,,,,,,,,,,,,,452.77355069993064,453.84313529985957,453.84313529985957,453.84313529985957,453.84313529985957,453.84313529985957,453.84313529985957,453.84313529985957,453.84313529985957,None,0,,C:\2023\REPSWITCH21092023\REPSWITCH_excgange\REPSWITCH_excgange\data/120202_REPSWITCH1_version2_list2_2023-11-27_13h39.45.946_micRespv2l2_recorded\recording_micRespv2l2_2023-11-27_13h47.15.096.wav,456.86437530000694,457.36442749993876,None,456.86437530000694,456.86437530000694,456.86437530000694,456.86437530000694,456.86437530000694,456.86437530000694,,,,,,,120202,001,2023-11-27_13h39.45.946,REPSWITCH1_version2_list2,2022.2.4,143.96940909339096,
REPSWITCH1/PICTURE_728.png,pulpo,speak,darkblue,repeat,2,T,4,3,2,2,Stim8_Set4,0,None,90,89,90,0,89,89,89,,,,,,,,,,,,,,,,,,,,,,,457.36442749993876,458.4340428998694,458.4340428998694,458.4340428998694,458.4340428998694,458.4340428998694,458.4340428998694,458.4340428998694,458.4340428998694,None,0,,C:\2023\REPSWITCH21092023\REPSWITCH_excgange\REPSWITCH_excgange\data/120202_REPSWITCH1_version2_list2_2023-11-27_13h39.45.946_micRespv2l2_recorded\recording_micRespv2l2_2023-11-27_13h47.19.687.wav,461.4552513998933,461.95538869989105,None,461.4552513998933,461.4552513998933,461.4552513998933,461.4552513998933,461.4552513998933,461.4552513998933,,,,,,,120202,001,2023-11-27_13h39.45.946,REPSWITCH1_version2_list2,2022.2.4,143.96940909339096,
REPSWITCH1/PICTURE_320.png,iglesia,type,gold,filler,1,F,4,3,2,2,Stim8_Set3,0,None,91,90,91,0,90,90,90,,,,,,,,,,,,,,,,,,,,,,,461.95538869989105,463.07354409992695,463.07354409992695,463.07354409992695,463.07354409992695,463.07354409992695,463.07354409992695,463.07354409992695,463.07354409992695,"['i', 'g', 'e', 'backspace', 'l', 'e', 's', 'i', 'a']",0,iglesia,C:\2023\REPSWITCH21092023\REPSWITCH_excgange\REPSWITCH_excgange\data/120202_REPSWITCH1_version2_list2_2023-11-27_13h39.45.946_micRespv2l2_recorded\recording_micRespv2l2_2023-11-27_13h47.24.327.wav,466.09471179987304,466.5947876998689,None,466.09471179987304,466.09471179987304,466.09471179987304,466.09471179987304,466.09471179987304,466.09471179987304,"[0.7895166000816971, 1.0486556000541896, 1.343948099995032, 1.6260667000897229, 1.8786872001364827, 1.9893249000888318, 2.1462038999889046, 2.2499506999738514, 2.343002000125125]",,,,,,120202,001,2023-11-27_13h39.45.946,REPSWITCH1_version2_list2,2022.2.4,143.96940909339096,
REPSWITCH1/PICTURE_576.png,guante,speak,darkblue,filler,2,F,4,3,2,2,Stim1_Set3,0,None,92,91,92,0,91,91,91,,,,,,,,,,,,,,,,,,,,,,,466.5947876998689,467.81718169990927,467.81718169990927,467.81718169990927,467.81718169990927,467.81718169990927,467.81718169990927,467.81718169990927,467.81718169990927,None,0,,C:\2023\REPSWITCH21092023\REPSWITCH_excgange\REPSWITCH_excgange\data/120202_REPSWITCH1_version2_list2_2023-11-27_13h39.45.946_micRespv2l2_recorded\recording_micRespv2l2_2023-11-27_13h47.29.070.wav,470.8384271999821,471.33849640004337,None,470.8384271999821,470.8384271999821,470.8384271999821,470.8384271999821,470.8384271999821,470.8384271999821,,,,,,,120202,001,2023-11-27_13h39.45.946,REPSWITCH1_version2_list2,2022.2.4,143.96940909339096,
REPSWITCH1/PICTURE_8.png,pierna,speak,darkblue,nontarget,2,NT,4,3,2,2,Stim3_Set4,1,repeat,93,92,93,0,92,92,92,,,,,,,,,,,,,,,,,,,,,,,471.33849640004337,472.42889670003206,472.42889670003206,472.42889670003206,472.42889670003206,472.42889670003206,472.42889670003206,472.42889670003206,472.42889670003206,None,0,,C:\2023\REPSWITCH21092023\REPSWITCH_excgange\REPSWITCH_excgange\data/120202_REPSWITCH1_version2_list2_2023-11-27_13h39.45.946_micRespv2l2_recorded\recording_micRespv2l2_2023-11-27_13h47.33.682.wav,475.4501147000119,475.95022560004145,None,475.4501147000119,475.4501147000119,475.4501147000119,475.4501147000119,475.4501147000119,475.4501147000119,,,,,,,120202,001,2023-11-27_13h39.45.946,REPSWITCH1_version2_list2,2022.2.4,143.96940909339096,
REPSWITCH1/PICTURE_8.png,pierna,type,gold,switch,1,T,4,3,2,2,Stim3_Set4,0,None,94,93,94,0,93,93,93,,,,,,,,,,,,,,,,,,,,,,,475.95022560004145,477.0406122999266,477.0406122999266,477.0406122999266,477.0406122999266,477.0406122999266,477.0406122999266,477.0406122999266,477.0406122999266,"['p', 'i', 'e', 'r', 'n', 'a']",0,pierna,C:\2023\REPSWITCH21092023\REPSWITCH_excgange\REPSWITCH_excgange\data/120202_REPSWITCH1_version2_list2_2023-11-27_13h39.45.946_micRespv2l2_recorded\recording_micRespv2l2_2023-11-27_13h47.38.294.wav,480.061863000039,480.56191290006973,None,480.061863000039,480.061863000039,480.061863000039,480.061863000039,480.061863000039,480.061863000039,"[0.7413790000136942, 0.9775811999570578, 1.1061581000685692, 1.2696032000239938, 1.3971434000413865, 1.5077929999679327]",,,,,,120202,001,2023-11-27_13h39.45.946,REPSWITCH1_version2_list2,2022.2.4,143.96940909339096,
REPSWITCH1/PICTURE_673.png,tenedor,speak,darkblue,filler,2,F,4,3,2,2,Extra5,0,None,95,94,95,0,94,94,94,,,,,,,,,,,,,,,,,,,,,,,480.56191290006973,481.749644999858,481.749644999858,481.749644999858,481.749644999858,481.749644999858,481.749644999858,481.749644999858,481.749644999858,None,0,,C:\2023\REPSWITCH21092023\REPSWITCH_excgange\REPSWITCH_excgange\data/120202_REPSWITCH1_version2_list2_2023-11-27_13h39.45.946_micRespv2l2_recorded\recording_micRespv2l2_2023-11-27_13h47.43.005.wav,484.777735499898,485.2777990999166,None,484.777735499898,484.777735499898,484.777735499898,484.777735499898,484.777735499898,484.777735499898,,,,,,,120202,001,2023-11-27_13h39.45.946,REPSWITCH1_version2_list2,2022.2.4,143.96940909339096,
REPSWITCH1/PICTURE_35.png,oreja,type,gold,filler,1,F,4,3,2,2,Stim5_Set3,1,switch,96,95,96,0,95,95,95,,,,,,,,,,,,,,,,,,,,,,,485.2777990999166,486.45165239996277,486.45165239996277,486.45165239996277,486.45165239996277,486.45165239996277,486.45165239996277,486.45165239996277,486.45165239996277,"['o', 'r', 'e', 'j', 'a']",0,oreja,C:\2023\REPSWITCH21092023\REPSWITCH_excgange\REPSWITCH_excgange\data/120202_REPSWITCH1_version2_list2_2023-11-27_13h39.45.946_micRespv2l2_recorded\recording_micRespv2l2_2023-11-27_13h47.47.705.wav,489.47973640006967,,None,489.47973640006967,489.47973640006967,489.47973640006967,489.47973640006967,489.47973640006967,489.47973640006967,"[0.8728364000562578, 1.06718480004929, 1.2146799000911415, 1.3363064001314342, 1.4289296001661569]",,,,,,120202,001,2023-11-27_13h39.45.946,REPSWITCH1_version2_list2,2022.2.4,143.96940909339096,
REPSWITCH1/PICTURE_663.png,columna,speak,darkblue,filler,2,F,4,3,2,2,Extra6,0,None,97,96,97,0,96,96,96,,,,,,,,,,,,,,,,,,,,,,,489.9798276000656,491.07023889990523,491.07023889990523,491.07023889990523,491.07023889990523,491.07023889990523,491.07023889990523,491.07023889990523,491.07023889990523,None,0,,C:\2023\REPSWITCH21092023\REPSWITCH_excgange\REPSWITCH_excgange\data/120202_REPSWITCH1_version2_list2_2023-11-27_13h39.45.946_micRespv2l2_recorded\recording_micRespv2l2_2023-11-27_13h47.52.325.wav,494.09841890004463,,None,494.09841890004463,494.09841890004463,494.09841890004463,494.09841890004463,494.09841890004463,494.09841890004463,,,,,,,120202,001,2023-11-27_13h39.45.946,REPSWITCH1_version2_list2,2022.2.4,143.96940909339096,
REPSWITCH1/PICTURE_242.png,cartero,type,gold,filler,1,F,4,3,2,2,Stim3_Set3,1,switch,98,97,98,0,97,97,97,,,,,,,,,,,,,,,,,,,,,,,494.5985655998811,495.70973249990493,495.70973249990493,495.70973249990493,495.70973249990493,495.70973249990493,495.70973249990493,495.70973249990493,495.70973249990493,"['c', 'a', 'r', 't', 'e', 'r', 'o']",0,cartero,C:\2023\REPSWITCH21092023\REPSWITCH_excgange\REPSWITCH_excgange\data/120202_REPSWITCH1_version2_list2_2023-11-27_13h39.45.946_micRespv2l2_recorded\recording_micRespv2l2_2023-11-27_13h47.56.963.wav,498.7310417999979,499.2310367000755,None,498.7310417999979,498.7310417999979,498.7310417999979,498.7310417999979,498.7310417999979,498.7310417999979,"[1.0005883001722395, 1.2331672001164407, 1.3565880001988262, 1.5080842000897974, 1.5890494002960622, 1.7475133002735674, 1.857156100217253]",,,,,,120202,001,2023-11-27_13h39.45.946,REPSWITCH1_version2_list2,2022.2.4,143.96940909339096,
REPSWITCH1/PICTURE_48.png,bombero,type,gold,nontarget,1,NT,4,3,2,2,Stim7_Set4,1,repeat,99,98,99,0,98,98,98,,,,,,,,,,,,,,,,,,,,,,,499.2310367000755,500.41174699994735,500.41174699994735,500.41174699994735,500.41174699994735,500.41174699994735,500.41174699994735,500.41174699994735,500.41174699994735,"['b', 'o', 'm', 'b', 'e', 'r', 'o']",0,bombero,C:\2023\REPSWITCH21092023\REPSWITCH_excgange\REPSWITCH_excgange\data/120202_REPSWITCH1_version2_list2_2023-11-27_13h39.45.946_micRespv2l2_recorded\recording_micRespv2l2_2023-11-27_13h48.01.665.wav,503.4329512999393,503.93305110000074,None,503.4329512999393,503.4329512999393,503.4329512999393,503.4329512999393,503.4329512999393,503.4329512999393,"[1.1523155001923442, 1.4203664001543075, 1.7953738002106547, 2.0050450002308935, 2.1355407000519335, 2.291989500168711, 2.3657681001350284]",,,,,,120202,001,2023-11-27_13h39.45.946,REPSWITCH1_version2_list2,2022.2.4,143.96940909339096,
REPSWITCH1/PICTURE_48.png,bombero,type,gold,repeat,1,T,4,3,2,2,Stim7_Set4,0,None,100,99,100,0,99,99,99,,,,,,,,,,,,,,,,,,,,,,,503.93305110000074,505.04434400005266,505.04434400005266,505.04434400005266,505.04434400005266,505.04434400005266,505.04434400005266,505.04434400005266,505.04434400005266,"['b', 'o', 'backspace', 'm', 'e', 'backspace']",0,bmb,C:\2023\REPSWITCH21092023\REPSWITCH_excgange\REPSWITCH_excgange\data/120202_REPSWITCH1_version2_list2_2023-11-27_13h39.45.946_micRespv2l2_recorded\recording_micRespv2l2_2023-11-27_13h48.06.298.wav,508.0655726999976,508.5655771999154,None,508.0655726999976,508.0655726999976,508.0655726999976,508.0655726999976,508.0655726999976,508.0655726999976,"[0.8759686001576483, 1.042393600102514, 1.6304214999545366, 1.9936810000799596, 2.3682168000377715, 2.703142900019884, 2.984122599940747]",,,,,,120202,001,2023-11-27_13h39.45.946,REPSWITCH1_version2_list2,2022.2.4,143.96940909339096,
REPSWITCH1/PICTURE_391.png,cadena,speak,darkblue,filler,2,F,4,3,2,2,Extra2,0,None,101,100,101,0,100,100,100,,,,,,,,,,,,,,,,,,,,,,,508.5655771999154,509.57964330003597,509.57964330003597,509.57964330003597,509.57964330003597,509.57964330003597,509.57964330003597,509.57964330003597,509.57964330003597,None,0,,C:\2023\REPSWITCH21092023\REPSWITCH_excgange\REPSWITCH_excgange\data/120202_REPSWITCH1_version2_list2_2023-11-27_13h39.45.946_micRespv2l2_recorded\recording_micRespv2l2_2023-11-27_13h48.10.833.wav,512.6077717000153,,None,512.6077717000153,512.6077717000153,512.6077717000153,512.6077717000153,512.6077717000153,512.6077717000153,,,,,,,120202,001,2023-11-27_13h39.45.946,REPSWITCH1_version2_list2,2022.2.4,143.96940909339096,
REPSWITCH1/PICTURE_590.png,escoba,type,gold,filler,1,F,4,3,2,2,Extra3,0,None,102,101,102,0,101,101,101,,,,,,,,,,,,,,,,,,,,,,,513.1079162000678,514.2399470000528,514.2399470000528,514.2399470000528,514.2399470000528,514.2399470000528,514.2399470000528,514.2399470000528,514.2399470000528,"['e', 's', 'c', 'o', 'b', 'a']",0,escoba,C:\2023\REPSWITCH21092023\REPSWITCH_excgange\REPSWITCH_excgange\data/120202_REPSWITCH1_version2_list2_2023-11-27_13h39.45.946_micRespv2l2_recorded\recording_micRespv2l2_2023-11-27_13h48.15.493.wav,517.2611535000615,517.7612487000879,space,517.2611535000615,517.2611535000615,517.2611535000615,517.2611535000615,517.2611535000615,517.2611535000615,"[0.7813114002346992, 0.9467646002303809, 1.1282251002267003, 1.2876830000896007, 1.5621167002245784, 1.6637235002126545]",517.7612487000879,517.7612487000879,19.986262700054795,,,120202,001,2023-11-27_13h39.45.946,REPSWITCH1_version2_list2,2022.2.4,143.96940909339096,
REPSWITCH1/PICTURE_340.png,espejo,type,gold,filler,1,F,1,1,2,2,Extra1,0,None,103,102,1,0,102,102,102,,,,,,,,,,,,,,,,,,,,,,,537.7569357000757,539.0209999999497,539.0209999999497,539.0209999999497,539.0209999999497,539.0209999999497,539.0209999999497,539.0209999999497,539.0209999999497,"['e', 'w', 'p', 'e', 'j', 'o']",0,ewpejo,C:\2023\REPSWITCH21092023\REPSWITCH_excgange\REPSWITCH_excgange\data/120202_REPSWITCH1_version2_list2_2023-11-27_13h39.45.946_micRespv2l2_recorded\recording_micRespv2l2_2023-11-27_13h48.40.275.wav,542.0492109998595,,None,542.0492109998595,542.0492109998595,542.0492109998595,542.0492109998595,542.0492109998595,542.0492109998595,"[0.66796960006468, 0.8374036999884993, 0.9499065999407321, 1.1701669001486152, 1.353544200072065, 1.5119608999229968]",,,,,,120202,001,2023-11-27_13h39.45.946,REPSWITCH1_version2_list2,2022.2.4,143.96940909339096,
REPSWITCH1/PICTURE_391.png,cadena,speak,darkblue,filler,2,F,1,1,2,2,Extra2,0,None,104,103,2,0,103,103,103,,,,,,,,,,,,,,,,,,,,,,,542.5493099999148,543.7091129999608,543.7091129999608,543.7091129999608,543.7091129999608,543.7091129999608,543.7091129999608,543.7091129999608,543.7091129999608,None,0,,C:\2023\REPSWITCH21092023\REPSWITCH_excgange\REPSWITCH_excgange\data/120202_REPSWITCH1_version2_list2_2023-11-27_13h39.45.946_micRespv2l2_recorded\recording_micRespv2l2_2023-11-27_13h48.44.963.wav,546.7372675999068,,None,546.7372675999068,546.7372675999068,546.7372675999068,546.7372675999068,546.7372675999068,546.7372675999068,,,,,,,120202,001,2023-11-27_13h39.45.946,REPSWITCH1_version2_list2,2022.2.4,143.96940909339096,
REPSWITCH1/PICTURE_178.png,puente,speak,darkblue,nontarget,2,NT,1,1,2,2,Stim1_Set1,1,repeat,105,104,3,0,104,104,104,,,,,,,,,,,,,,,,,,,,,,,547.2373365999665,548.3277561999857,548.3277561999857,548.3277561999857,548.3277561999857,548.3277561999857,548.3277561999857,548.3277561999857,548.3277561999857,None,0,,C:\2023\REPSWITCH21092023\REPSWITCH_excgange\REPSWITCH_excgange\data/120202_REPSWITCH1_version2_list2_2023-11-27_13h39.45.946_micRespv2l2_recorded\recording_micRespv2l2_2023-11-27_13h48.49.581.wav,551.3490514999721,551.849063300062,None,551.3490514999721,551.3490514999721,551.3490514999721,551.3490514999721,551.3490514999721,551.3490514999721,,,,,,,120202,001,2023-11-27_13h39.45.946,REPSWITCH1_version2_list2,2022.2.4,143.96940909339096,
REPSWITCH1/PICTURE_178.png,puente,speak,darkblue,repeat,2,T,1,1,2,2,Stim1_Set1,0,None,106,105,4,0,105,105,105,,,,,,,,,,,,,,,,,,,,,,,551.849063300062,553.0367050999776,553.0367050999776,553.0367050999776,553.0367050999776,553.0367050999776,553.0367050999776,553.0367050999776,553.0367050999776,None,0,,C:\2023\REPSWITCH21092023\REPSWITCH_excgange\REPSWITCH_excgange\data/120202_REPSWITCH1_version2_list2_2023-11-27_13h39.45.946_micRespv2l2_recorded\recording_micRespv2l2_2023-11-27_13h48.54.289.wav,556.0579508000519,556.5579861998558,None,556.0579508000519,556.0579508000519,556.0579508000519,556.0579508000519,556.0579508000519,556.0579508000519,,,,,,,120202,001,2023-11-27_13h39.45.946,REPSWITCH1_version2_list2,2022.2.4,143.96940909339096,
REPSWITCH1/PICTURE_319.png,vaca,type,gold,filler,1,F,1,1,2,2,Stim1_Set4,0,None,107,106,5,0,106,106,106,,,,,,,,,,,,,,,,,,,,,,,556.5579861998558,557.5859600999393,557.5859600999393,557.5859600999393,557.5859600999393,557.5859600999393,557.5859600999393,557.5859600999393,557.5859600999393,"['v', 'a', 'c', 'a']",0,vaca,C:\2023\REPSWITCH21092023\REPSWITCH_excgange\REPSWITCH_excgange\data/120202_REPSWITCH1_version2_list2_2023-11-27_13h39.45.946_micRespv2l2_recorded\recording_micRespv2l2_2023-11-27_13h48.58.840.wav,560.6071649999358,561.1072241000365,None,560.6071649999358,560.6071649999358,560.6071649999358,560.6071649999358,560.6071649999358,560.6071649999358,"[0.8272000001743436, 1.0115389002021402, 1.1002791002392769, 1.228847400052473]",,,,,,120202,001,2023-11-27_13h39.45.946,REPSWITCH1_version2_list2,2022.2.4,143.96940909339096,
REPSWITCH1/PICTURE_381.png,fresa,speak,darkblue,nontarget,2,NT,1,1,2,2,Stim2_Set1,1,switch,108,107,6,0,107,107,107,,,,,,,,,,,,,,,,,,,,,,,561.1072241000365,562.2670745998621,562.2670745998621,562.2670745998621,562.2670745998621,562.2670745998621,562.2670745998621,562.2670745998621,562.2670745998621,None,0,,C:\2023\REPSWITCH21092023\REPSWITCH_excgange\REPSWITCH_excgange\data/120202_REPSWITCH1_version2_list2_2023-11-27_13h39.45.946_micRespv2l2_recorded\recording_micRespv2l2_2023-11-27_13h49.03.520.wav,565.2883838000707,565.788456399925,None,565.2883838000707,565.2883838000707,565.2883838000707,565.2883838000707,565.2883838000707,565.2883838000707,,,,,,,120202,001,2023-11-27_13h39.45.946,REPSWITCH1_version2_list2,2022.2.4,143.96940909339096,
REPSWITCH1/PICTURE_381.png,fresa,speak,darkblue,repeat,2,T,1,1,2,2,Stim2_Set1,0,None,109,108,7,0,108,108,108,,,,,,,,,,,,,,,,,,,,,,,565.788456399925,566.8927203000057,566.8927203000057,566.8927203000057,566.8927203000057,566.8927203000057,566.8927203000057,566.8927203000057,566.8927203000057,None,0,,C:\2023\REPSWITCH21092023\REPSWITCH_excgange\REPSWITCH_excgange\data/120202_REPSWITCH1_version2_list2_2023-11-27_13h39.45.946_micRespv2l2_recorded\recording_micRespv2l2_2023-11-27_13h49.08.145.wav,569.9140007998794,570.4140015998855,None,569.9140007998794,569.9140007998794,569.9140007998794,569.9140007998794,569.9140007998794,569.9140007998794,,,,,,,120202,001,2023-11-27_13h39.45.946,REPSWITCH1_version2_list2,2022.2.4,143.96940909339096,
REPSWITCH1/PICTURE_719.png,baño,type,gold,filler,1,F,1,1,2,2,Stim2_Set4,1,switch,110,109,8,0,109,109,109,,,,,,,,,,,,,,,,,,,,,,,570.4140015998855,571.5113890999928,571.5113890999928,571.5113890999928,571.5113890999928,571.5113890999928,571.5113890999928,571.5113890999928,571.5113890999928,"['b', 'a', 'ñ', 'o']",0,baño,C:\2023\REPSWITCH21092023\REPSWITCH_excgange\REPSWITCH_excgange\data/120202_REPSWITCH1_version2_list2_2023-11-27_13h39.45.946_micRespv2l2_recorded\recording_micRespv2l2_2023-11-27_13h49.12.764.wav,574.53256219998,575.0327127999626,None,574.53256219998,574.53256219998,574.53256219998,574.53256219998,574.53256219998,574.53256219998,"[0.7710866001434624, 0.955437800148502, 1.2348744000773877, 1.4196778000332415]",,,,,,120202,001,2023-11-27_13h39.45.946,REPSWITCH1_version2_list2,2022.2.4,143.96940909339096,
REPSWITCH1/PICTURE_135.png,traje,speak,darkblue,nontarget,2,NT,1,1,2,2,Stim3_Set1,0,None,111,110,9,0,110,110,110,,,,,,,,,,,,,,,,,,,,,,,575.0327127999626,576.2203259998932,576.2203259998932,576.2203259998932,576.2203259998932,576.2203259998932,576.2203259998932,576.2203259998932,576.2203259998932,None,0,,C:\2023\REPSWITCH21092023\REPSWITCH_excgange\REPSWITCH_excgange\data/120202_REPSWITCH1_version2_list2_2023-11-27_13h39.45.946_micRespv2l2_recorded\recording_micRespv2l2_2023-11-27_13h49.17.474.wav,579.2415334000252,579.7415787999053,None,579.2415334000252,579.2415334000252,579.2415334000252,579.2415334000252,579.2415334000252,579.2415334000252,,,,,,,120202,001,2023-11-27_13h39.45.946,REPSWITCH1_version2_list2,2022.2.4,143.96940909339096,
REPSWITCH1/PICTURE_135.png,traje,type,gold,switch,1,T,1,1,2,2,Stim3_Set1,0,None,112,111,10,0,111,111,111,,,,,,,,,,,,,,,,,,,,,,,579.7415787999053,580.8598130999599,580.8598130999599,580.8598130999599,580.8598130999599,580.8598130999599,580.8598130999599,580.8598130999599,580.8598130999599,"['t', 'r', 'a', 'j', 'e']",0,traje,C:\2023\REPSWITCH21092023\REPSWITCH_excgange\REPSWITCH_excgange\data/120202_REPSWITCH1_version2_list2_2023-11-27_13h39.45.946_micRespv2l2_recorded\recording_micRespv2l2_2023-11-27_13h49.22.113.wav,583.881041900022,584.3811001998838,None,583.881041900022,583.881041900022,583.881041900022,583.881041900022,583.881041900022,583.881041900022,"[0.7787393000908196, 0.9393476000986993, 1.120738900033757, 1.322355000069365, 1.451365000102669]",,,,,,120202,001,2023-11-27_13h39.45.946,REPSWITCH1_version2_list2,2022.2.4,143.96940909339096,
REPSWITCH1/PICTURE_687.png,camisa,speak,darkblue,filler,2,F,1,1,2,2,Stim5_Set4,0,None,113,112,11,0,112,112,112,,,,,,,,,,,,,,,,,,,,,,,584.3811001998838,585.547934900038,585.547934900038,585.547934900038,585.547934900038,585.547934900038,585.547934900038,585.547934900038,585.547934900038,None,0,,C:\2023\REPSWITCH21092023\REPSWITCH_excgange\REPSWITCH_excgange\data/120202_REPSWITCH1_version2_list2_2023-11-27_13h39.45.946_micRespv2l2_recorded\recording_micRespv2l2_2023-11-27_13h49.26.801.wav,588.5691672000103,589.0692320999224,None,588.5691672000103,588.5691672000103,588.5691672000103,588.5691672000103,588.5691672000103,588.5691672000103,,,,,,,120202,001,2023-11-27_13h39.45.946,REPSWITCH1_version2_list2,2022.2.4,143.96940909339096,
REPSWITCH1/PICTURE_128.png,muñeca,type,gold,nontarget,1,NT,1,1,2,2,Stim4_Set1,1,switch,114,113,12,0,113,113,113,,,,,,,,,,,,,,,,,,,,,,,589.0692320999224,590.1180028000381,590.1180028000381,590.1180028000381,590.1180028000381,590.1180028000381,590.1180028000381,590.1180028000381,590.1180028000381,"['m', 'u', 'ñ', 'e', 'c', 'a']",0,muñeca,C:\2023\REPSWITCH21092023\REPSWITCH_excgange\REPSWITCH_excgange\data/120202_REPSWITCH1_version2_list2_2023-11-27_13h39.45.946_micRespv2l2_recorded\recording_micRespv2l2_2023-11-27_13h49.31.371.wav,593.1391920000315,593.6392611998599,None,593.1391920000315,593.1391920000315,593.1391920000315,593.1391920000315,593.1391920000315,593.1391920000315,"[0.8349830999504775, 1.0413502000737935, 1.3839062000624835, 1.5574620000552386, 1.734916300047189, 1.8504864999558777]",,,,,,120202,001,2023-11-27_13h39.45.946,REPSWITCH1_version2_list2,2022.2.4,143.96940909339096,
REPSWITCH1/PICTURE_128.png,muñeca,speak,darkblue,switch,2,T,1,1,2,2,Stim4_Set1,0,None,115,114,13,0,114,114,114,,,,,,,,,,,,,,,,,,,,,,,593.6392611998599,594.6671634998638,594.6671634998638,594.6671634998638,594.6671634998638,594.6671634998638,594.6671634998638,594.6671634998638,594.6671634998638,None,0,,C:\2023\REPSWITCH21092023\REPSWITCH_excgange\REPSWITCH_excgange\data/120202_REPSWITCH1_version2_list2_2023-11-27_13h39.45.946_micRespv2l2_recorded\recording_micRespv2l2_2023-11-27_13h49.35.922.wav,597.6954286999535,,None,597.6954286999535,597.6954286999535,597.6954286999535,597.6954286999535,597.6954286999535,597.6954286999535,,,,,,,120202,001,2023-11-27_13h39.45.946,REPSWITCH1_version2_list2,2022.2.4,143.96940909339096,
REPSWITCH1/PICTURE_8.png,pierna,speak,darkblue,filler,2,F,1,1,2,2,Stim3_Set4,0,None,116,115,14,0,115,115,115,,,,,,,,,,,,,,,,,,,,,,,598.1954191999976,599.2233432999346,599.2233432999346,599.2233432999346,599.2233432999346,599.2233432999346,599.2233432999346,599.2233432999346,599.2233432999346,None,0,,C:\2023\REPSWITCH21092023\REPSWITCH_excgange\REPSWITCH_excgange\data/120202_REPSWITCH1_version2_list2_2023-11-27_13h39.45.946_micRespv2l2_recorded\recording_micRespv2l2_2023-11-27_13h49.40.476.wav,602.2445495999418,602.7445966000669,None,602.2445495999418,602.2445495999418,602.2445495999418,602.2445495999418,602.2445495999418,602.2445495999418,,,,,,,120202,001,2023-11-27_13h39.45.946,REPSWITCH1_version2_list2,2022.2.4,143.96940909339096,
REPSWITCH1/PICTURE_19.png,pavo,speak,darkblue,nontarget,2,NT,1,1,2,2,Stim5_Set1,0,None,117,116,15,0,116,116,116,,,,,,,,,,,,,,,,,,,,,,,602.7445966000669,603.7933666000608,603.7933666000608,603.7933666000608,603.7933666000608,603.7933666000608,603.7933666000608,603.7933666000608,603.7933666000608,None,0,,C:\2023\REPSWITCH21092023\REPSWITCH_excgange\REPSWITCH_excgange\data/120202_REPSWITCH1_version2_list2_2023-11-27_13h39.45.946_micRespv2l2_recorded\recording_micRespv2l2_2023-11-27_13h49.45.047.wav,606.8215417999309,,None,606.8215417999309,606.8215417999309,606.8215417999309,606.8215417999309,606.8215417999309,606.8215417999309,,,,,,,120202,001,2023-11-27_13h39.45.946,REPSWITCH1_version2_list2,2022.2.4,143.96940909339096,
REPSWITCH1/PICTURE_19.png,pavo,type,gold,switch,1,T,1,1,2,2,Stim5_Set1,0,None,118,117,16,0,117,117,117,,,,,,,,,,,,,,,,,,,,,,,607.3216031000484,608.4120441998821,608.4120441998821,608.4120441998821,608.4120441998821,608.4120441998821,608.4120441998821,608.4120441998821,608.4120441998821,"['p', 'a', 'v', 'o']",0,pavo,C:\2023\REPSWITCH21092023\REPSWITCH_excgange\REPSWITCH_excgange\data/120202_REPSWITCH1_version2_list2_2023-11-27_13h39.45.946_micRespv2l2_recorded\recording_micRespv2l2_2023-11-27_13h49.49.665.wav,611.4332788998727,611.9333405999932,None,611.4332788998727,611.4332788998727,611.4332788998727,611.4332788998727,611.4332788998727,611.4332788998727,"[1.702863200334832, 1.831478400155902, 2.582600800320506, 2.641437200130895]",,,,,,120202,001,2023-11-27_13h39.45.946,REPSWITCH1_version2_list2,2022.2.4,143.96940909339096,
REPSWITCH1/PICTURE_16.png,cazador,type,gold,nontarget,1,NT,1,1,2,2,Stim6_Set1,1,switch,119,118,17,0,118,118,118,,,,,,,,,,,,,,,,,,,,,,,611.9333405999932,613.0376303999219,613.0376303999219,613.0376303999219,613.0376303999219,613.0376303999219,613.0376303999219,613.0376303999219,613.0376303999219,"['c', 'a', 'z', 'a', 'd', 'o', 'r']",0,cazador,C:\2023\REPSWITCH21092023\REPSWITCH_excgange\REPSWITCH_excgange\data/120202_REPSWITCH1_version2_list2_2023-11-27_13h39.45.946_micRespv2l2_recorded\recording_micRespv2l2_2023-11-27_13h49.54.292.wav,616.0658930998761,,None,616.0658930998761,616.0658930998761,616.0658930998761,616.0658930998761,616.0658930998761,616.0658930998761,"[1.39326349995099, 1.6415159001480788, 1.8331266001332551, 2.001139200059697, 2.2014383000787348, 2.3339546001516283, 2.4436242000665516]",,,,,,120202,001,2023-11-27_13h39.45.946,REPSWITCH1_version2_list2,2022.2.4,143.96940909339096,
REPSWITCH1/PICTURE_16.png,cazador,type,gold,repeat,1,T,1,1,2,2,Stim6_Set1,0,None,120,119,18,0,119,119,119,,,,,,,,,,,,,,,,,,,,,,,616.5658942998853,617.7327377998736,617.7327377998736,617.7327377998736,617.7327377998736,617.7327377998736,617.7327377998736,617.7327377998736,617.7327377998736,"['c', 'a', 'z', 'a', 'd', 'o', 'r']",0,cazador,C:\2023\REPSWITCH21092023\REPSWITCH_excgange\REPSWITCH_excgange\data/120202_REPSWITCH1_version2_list2_2023-11-27_13h39.45.946_micRespv2l2_recorded\recording_micRespv2l2_2023-11-27_13h49.58.986.wav,620.7608898000326,,None,620.7608898000326,620.7608898000326,620.7608898000326,620.7608898000326,620.7608898000326,620.7608898000326,"[0.7908941002096981, 1.0321198001038283, 1.191569000016898, 1.3669626000337303, 1.604770100209862, 1.7752339001744986, 1.8828357001766562]",,,,,,120202,001,2023-11-27_13h39.45.946,REPSWITCH1_version2_list2,2022.2.4,143.96940909339096,
