image;correctAns;respModal;frameColor;repSwitch;sequence;target;set;block;list;exp_version;stimulus;baseline;baseline_condition;trial_no;psychopy_trial;Column1;trialsREPSWITCH.thisRepN;trialsREPSWITCH.thisTrialN;trialsREPSWITCH.thisN;trialsREPSWITCH.thisIndex;textWelcome.started;textboxInstrMain1.started;textboxInstrMain1_2.started;textboxInstrMain1_3.started;keyInstrMain.started;keyInstrMain.keys;keyInstrMain.rt;textboxInstrMain2.started;textboxInstrMain2_2.started;textboxInstrMain2_3.started;textboxInstrMain2_4.started;textboxInstrMain2_5.started;textboxInstrMain2_6.started;textboxInstrMain2_7.started;textboxInstrMain2_8.started;textboxInstrMain2_9.started;textboxInstrMain2_10.started;textboxInstrMain2_11.started;textboxInstrMain2_12.started;keyInstrMain2.started;keyInstrMain2.keys;keyInstrMain2.rt;fixationITI.started;fixationITI.stopped;polygonColour.started;polygonWhite.started;imageObject.started;polygonType.started;textInput.started;keyResp.started;micRespv1l4.started;polygonColour.stopped;polygonWhite.stopped;imageObject.stopped;polygonType.stopped;textInput.stopped;keyResp.stopped;keyResp.keys;keyResp.corr;keyResp.rt;subjResponse;micRespv1l4.clip;textBlankLoop.started;textBlankLoop.stopped;keyPause.keys;textboxPause.started;keyPause.started;keyPause.rt;textboxGoodbye.started;textboxGoodbye.stopped;participant;session;date;expName;psychopyVersion;frameRate;Column2
;;;;;;;;;;;;;;;;;;;;;9.9951867;12.4907221;12.4907221;12.4907221;12.4907221;space;9.7545359;;;;;;;;;;;;;;;;;;;;;;;;;;;;;;;;;;;;;;;;;;;;150104;1;2023-11-28_16h09.12.624;REPSWITCH1_version1_list4;2022.2.4;143.8768186;
;;;;;;;;;;;;;;;;;;;;;;;;;;;;22.262907;22.262907;22.262907;22.262907;22.262907;22.262907;22.262907;22.262907;22.262907;22.262907;22.262907;22.262907;22.262907;space;0.0101738;;;;;;;;;;;;;;;;;;;;;;;;;;;;;150104;1;2023-11-28_16h09.12.624;REPSWITCH1_version1_list4;2022.2.4;143.8768186;
REPSWITCH1/PICTURE_8.png;pierna;type;darkblue;filler;1;F;1;4;4;1;Stim3_Set4;0;None;1;0;1;0;0;0;0;;;;;;;;;;;;;;;;;;;;;;;22.3670047;23.4504529;23.4504529;23.4504529;23.4504529;23.4504529;23.4504529;23.4504529;23.4504529;26.4787355;26.4787355;26.4787355;26.4787355;26.4787355;26.4787355;['p', 'i', 'e', 'r', 'n', 'a'];0;[1.3286379997152835, 1.533975799800828, 1.7011027997359633, 1.810302599798888, 1.9866660998668522, 2.078394799726084];pierna;C:\2023\REPSWITCH21092023\REPSWITCH_excgange\REPSWITCH_excgange\data/150104_REPSWITCH1_version1_list4_2023-11-28_16h09.12.624_micRespv1l4_recorded\recording_micRespv1l4_2023-11-28_16h09.30.966.wav;26.4787355;26.9787308;None;;;;;;150104;1;2023-11-28_16h09.12.624;REPSWITCH1_version1_list4;2022.2.4;143.8768186;
REPSWITCH1/PICTURE_498.png;taza;speak;gold;filler;2;F;1;4;4;1;Stim4_Set4;0;None;2;1;2;0;1;1;1;;;;;;;;;;;;;;;;;;;;;;;26.9787308;28.0483072;28.0483072;28.0483072;28.0483072;28.0483072;28.0483072;28.0483072;28.0483072;31.0765427;31.0765427;31.0765427;31.0765427;31.0765427;31.0765427;None;0;;;C:\2023\REPSWITCH21092023\REPSWITCH_excgange\REPSWITCH_excgange\data/150104_REPSWITCH1_version1_list4_2023-11-28_16h09.12.624_micRespv1l4_recorded\recording_micRespv1l4_2023-11-28_16h09.35.563.wav;31.0765427;;None;;;;;;150104;1;2023-11-28_16h09.12.624;REPSWITCH1_version1_list4;2022.2.4;143.8768186;
REPSWITCH1/PICTURE_19.png;pavo;speak;gold;nontarget;2;NT;1;4;4;1;Stim5_Set1;1;repeat;3;2;3;0;2;2;2;;;;;;;;;;;;;;;;;;;;;;;31.5765417;32.6808666;32.6808666;32.6808666;32.6808666;32.6808666;32.6808666;32.6808666;32.6808666;35.7020718;35.7020718;35.7020718;35.7020718;35.7020718;35.7020718;None;0;;;C:\2023\REPSWITCH21092023\REPSWITCH_excgange\REPSWITCH_excgange\data/150104_REPSWITCH1_version1_list4_2023-11-28_16h09.12.624_micRespv1l4_recorded\recording_micRespv1l4_2023-11-28_16h09.40.194.wav;35.7020718;36.2021365;None;;;;;;150104;1;2023-11-28_16h09.12.624;REPSWITCH1_version1_list4;2022.2.4;143.8768186;
REPSWITCH1/PICTURE_19.png;pavo;speak;gold;repeat;2;T;1;4;4;1;Stim5_Set1;0;None;4;3;4;0;3;3;3;;;;;;;;;;;;;;;;;;;;;;;36.2021365;37.250901;37.250901;37.250901;37.250901;37.250901;37.250901;37.250901;37.250901;40.2721139;40.2721139;40.2721139;40.2721139;40.2721139;40.2721139;None;0;;;C:\2023\REPSWITCH21092023\REPSWITCH_excgange\REPSWITCH_excgange\data/150104_REPSWITCH1_version1_list4_2023-11-28_16h09.12.624_micRespv1l4_recorded\recording_micRespv1l4_2023-11-28_16h09.44.765.wav;40.2721139;40.7721661;None;;;;;;150104;1;2023-11-28_16h09.12.624;REPSWITCH1_version1_list4;2022.2.4;143.8768186;
REPSWITCH1/PICTURE_319.png;vaca;type;darkblue;filler;1;F;1;4;4;1;Stim1_Set4;1;repeat;5;4;5;0;4;4;4;;;;;;;;;;;;;;;;;;;;;;;40.7721661;41.8557433;41.8557433;41.8557433;41.8557433;41.8557433;41.8557433;41.8557433;41.8557433;44.8838531;44.8838531;44.8838531;44.8838531;44.8838531;44.8838531;['v', 'a', 'c', 'a'];0;[1.3588599998038262, 1.5083541998174042, 1.6259364997968078, 1.724625799804926];vaca;C:\2023\REPSWITCH21092023\REPSWITCH_excgange\REPSWITCH_excgange\data/150104_REPSWITCH1_version1_list4_2023-11-28_16h09.12.624_micRespv1l4_recorded\recording_micRespv1l4_2023-11-28_16h09.49.369.wav;44.8838531;;None;;;;;;150104;1;2023-11-28_16h09.12.624;REPSWITCH1_version1_list4;2022.2.4;143.8768186;
REPSWITCH1/PICTURE_169.png;espalda;speak;gold;nontarget;2;NT;1;4;4;1;Stim8_Set1;1;switch;6;5;6;0;5;5;5;;;;;;;;;;;;;;;;;;;;;;;45.3839915;46.3910041;46.3910041;46.3910041;46.3910041;46.3910041;46.3910041;46.3910041;46.3910041;49.4121997;49.4121997;49.4121997;49.4121997;49.4121997;49.4121997;None;0;;;C:\2023\REPSWITCH21092023\REPSWITCH_excgange\REPSWITCH_excgange\data/150104_REPSWITCH1_version1_list4_2023-11-28_16h09.12.624_micRespv1l4_recorded\recording_micRespv1l4_2023-11-28_16h09.53.904.wav;49.4121997;49.912254;None;;;;;;150104;1;2023-11-28_16h09.12.624;REPSWITCH1_version1_list4;2022.2.4;143.8768186;
REPSWITCH1/PICTURE_169.png;espalda;speak;gold;repeat;2;T;1;4;4;1;Stim8_Set1;0;None;7;6;7;0;6;6;6;;;;;;;;;;;;;;;;;;;;;;;49.912254;51.02357;51.02357;51.02357;51.02357;51.02357;51.02357;51.02357;51.02357;54.0447775;54.0447775;54.0447775;54.0447775;54.0447775;54.0447775;None;0;;;C:\2023\REPSWITCH21092023\REPSWITCH_excgange\REPSWITCH_excgange\data/150104_REPSWITCH1_version1_list4_2023-11-28_16h09.12.624_micRespv1l4_recorded\recording_micRespv1l4_2023-11-28_16h09.58.537.wav;54.0447775;54.5448407;None;;;;;;150104;1;2023-11-28_16h09.12.624;REPSWITCH1_version1_list4;2022.2.4;143.8768186;
REPSWITCH1/PICTURE_728.png;pulpo;type;darkblue;filler;1;F;1;4;4;1;Stim8_Set4;0;None;8;7;8;0;7;7;7;;;;;;;;;;;;;;;;;;;;;;;54.5448407;55.6074995;55.6074995;55.6074995;55.6074995;55.6074995;55.6074995;55.6074995;55.6074995;58.6287142;58.6287142;58.6287142;58.6287142;58.6287142;58.6287142;['p', 'u', 'p', 'o'];0;[1.353263899916783, 1.5675317998975515, 2.0581904000137, 2.2216123999096453];pupo;C:\2023\REPSWITCH21092023\REPSWITCH_excgange\REPSWITCH_excgange\data/150104_REPSWITCH1_version1_list4_2023-11-28_16h09.12.624_micRespv1l4_recorded\recording_micRespv1l4_2023-11-28_16h10.03.121.wav;58.6287142;59.128773;None;;;;;;150104;1;2023-11-28_16h09.12.624;REPSWITCH1_version1_list4;2022.2.4;143.8768186;
REPSWITCH1/PICTURE_142.png;vaso;speak;gold;nontarget;2;NT;1;4;4;1;Stim7_Set1;1;switch;9;8;9;0;8;8;8;;;;;;;;;;;;;;;;;;;;;;;59.128773;60.2677966;60.2677966;60.2677966;60.2677966;60.2677966;60.2677966;60.2677966;60.2677966;63.2960054;63.2960054;63.2960054;63.2960054;63.2960054;63.2960054;None;0;;;C:\2023\REPSWITCH21092023\REPSWITCH_excgange\REPSWITCH_excgange\data/150104_REPSWITCH1_version1_list4_2023-11-28_16h09.12.624_micRespv1l4_recorded\recording_micRespv1l4_2023-11-28_16h10.07.782.wav;63.2960054;;None;;;;;;150104;1;2023-11-28_16h09.12.624;REPSWITCH1_version1_list4;2022.2.4;143.8768186;
REPSWITCH1/PICTURE_142.png;vaso;type;darkblue;switch;1;T;1;4;4;1;Stim7_Set1;0;None;10;9;10;0;9;9;9;;;;;;;;;;;;;;;;;;;;;;;63.7961004;64.9837374;64.9837374;64.9837374;64.9837374;64.9837374;64.9837374;64.9837374;64.9837374;68.005011;68.005011;68.005011;68.005011;68.005011;68.005011;['v', 'a', 's', 'o'];0;[1.4312267999630421, 1.5567678997758776, 1.653450699755922, 1.8967263998929411];vaso;C:\2023\REPSWITCH21092023\REPSWITCH_excgange\REPSWITCH_excgange\data/150104_REPSWITCH1_version1_list4_2023-11-28_16h09.12.624_micRespv1l4_recorded\recording_micRespv1l4_2023-11-28_16h10.12.497.wav;68.005011;68.5050084;None;;;;;;150104;1;2023-11-28_16h09.12.624;REPSWITCH1_version1_list4;2022.2.4;143.8768186;
REPSWITCH1/PICTURE_338.png;regalo;type;darkblue;filler;1;F;1;4;4;1;Stim6_Set4;1;repeat;11;10;11;0;10;10;10;;;;;;;;;;;;;;;;;;;;;;;68.5050084;69.5884827;69.5884827;69.5884827;69.5884827;69.5884827;69.5884827;69.5884827;69.5884827;72.6097164;72.6097164;72.6097164;72.6097164;72.6097164;72.6097164;['r', 'e', 'g', 'a', 'l', 'o'];0;[1.1159143999684602, 1.245440499857068, 1.3690531000029296, 1.5013748998753726, 1.6886752999853343, 1.8393295998685062];regalo;C:\2023\REPSWITCH21092023\REPSWITCH_excgange\REPSWITCH_excgange\data/150104_REPSWITCH1_version1_list4_2023-11-28_16h09.12.624_micRespv1l4_recorded\recording_micRespv1l4_2023-11-28_16h10.17.102.wav;72.6097164;73.1097744;None;;;;;;150104;1;2023-11-28_16h09.12.624;REPSWITCH1_version1_list4;2022.2.4;143.8768186;
REPSWITCH1/PICTURE_135.png;traje;type;darkblue;nontarget;1;NT;1;4;4;1;Stim3_Set1;1;repeat;12;11;12;0;11;11;11;;;;;;;;;;;;;;;;;;;;;;;73.1097744;74.1863919;74.1863919;74.1863919;74.1863919;74.1863919;74.1863919;74.1863919;74.1863919;77.2075278;77.2075278;77.2075278;77.2075278;77.2075278;77.2075278;['t', 'r', 'a', 'j', 'e'];0;[1.1274457999970764, 1.280926899984479, 1.3775929999537766, 1.5832433998584747, 1.6570013999007642];traje;C:\2023\REPSWITCH21092023\REPSWITCH_excgange\REPSWITCH_excgange\data/150104_REPSWITCH1_version1_list4_2023-11-28_16h09.12.624_micRespv1l4_recorded\recording_micRespv1l4_2023-11-28_16h10.21.700.wav;77.2075278;77.7075967;None;;;;;;150104;1;2023-11-28_16h09.12.624;REPSWITCH1_version1_list4;2022.2.4;143.8768186;
REPSWITCH1/PICTURE_135.png;traje;speak;gold;switch;2;T;1;4;4;1;Stim3_Set1;0;None;13;12;13;0;12;12;12;;;;;;;;;;;;;;;;;;;;;;;77.7075967;78.7494169;78.7494169;78.7494169;78.7494169;78.7494169;78.7494169;78.7494169;78.7494169;81.7775769;81.7775769;81.7775769;81.7775769;81.7775769;81.7775769;None;0;;;C:\2023\REPSWITCH21092023\REPSWITCH_excgange\REPSWITCH_excgange\data/150104_REPSWITCH1_version1_list4_2023-11-28_16h09.12.624_micRespv1l4_recorded\recording_micRespv1l4_2023-11-28_16h10.26.263.wav;81.7775769;;None;;;;;;150104;1;2023-11-28_16h09.12.624;REPSWITCH1_version1_list4;2022.2.4;143.8768186;
REPSWITCH1/PICTURE_381.png;fresa;speak;gold;nontarget;2;NT;1;4;4;1;Stim2_Set1;1;repeat;14;13;14;0;13;13;13;;;;;;;;;;;;;;;;;;;;;;;82.2776417;83.4306383;83.4306383;83.4306383;83.4306383;83.4306383;83.4306383;83.4306383;83.4306383;86.4517633;86.4517633;86.4517633;86.4517633;86.4517633;86.4517633;None;0;;;C:\2023\REPSWITCH21092023\REPSWITCH_excgange\REPSWITCH_excgange\data/150104_REPSWITCH1_version1_list4_2023-11-28_16h09.12.624_micRespv1l4_recorded\recording_micRespv1l4_2023-11-28_16h10.30.944.wav;86.4517633;86.9518854;None;;;;;;150104;1;2023-11-28_16h09.12.624;REPSWITCH1_version1_list4;2022.2.4;143.8768186;
REPSWITCH1/PICTURE_381.png;fresa;type;darkblue;switch;1;T;1;4;4;1;Stim2_Set1;0;None;15;14;15;0;14;14;14;;;;;;;;;;;;;;;;;;;;;;;86.9518854;88.0561927;88.0561927;88.0561927;88.0561927;88.0561927;88.0561927;88.0561927;88.0561927;91.0774068;91.0774068;91.0774068;91.0774068;91.0774068;91.0774068;['f', 'r', 'e', 's', 'a'];0;[1.0786574997473508, 1.2630967998411506, 1.5188447998370975, 1.783048699842766, 1.8446577999275178];fresa;C:\2023\REPSWITCH21092023\REPSWITCH_excgange\REPSWITCH_excgange\data/150104_REPSWITCH1_version1_list4_2023-11-28_16h09.12.624_micRespv1l4_recorded\recording_micRespv1l4_2023-11-28_16h10.35.569.wav;91.0774068;91.5775476;None;;;;;;150104;1;2023-11-28_16h09.12.624;REPSWITCH1_version1_list4;2022.2.4;143.8768186;
REPSWITCH1/PICTURE_48.png;bombero;type;darkblue;filler;1;F;1;4;4;1;Stim7_Set4;0;None;16;15;16;0;15;15;15;;;;;;;;;;;;;;;;;;;;;;;91.5775476;92.6262811;92.6262811;92.6262811;92.6262811;92.6262811;92.6262811;92.6262811;92.6262811;95.6543851;95.6543851;95.6543851;95.6543851;95.6543851;95.6543851;['b', 'o', 'm', 'b', 'e', 'r', 'o'];0;[1.1860723998397589, 1.3139984998852015, 2.089616899844259, 2.317868599668145, 2.43348649982363, 2.5202008998021483, 2.6976066997740418];bombero;C:\2023\REPSWITCH21092023\REPSWITCH_excgange\REPSWITCH_excgange\data/150104_REPSWITCH1_version1_list4_2023-11-28_16h09.12.624_micRespv1l4_recorded\recording_micRespv1l4_2023-11-28_16h10.40.141.wav;95.6543851;;None;;;;;;150104;1;2023-11-28_16h09.12.624;REPSWITCH1_version1_list4;2022.2.4;143.8768186;
REPSWITCH1/PICTURE_687.png;camisa;speak;gold;filler;2;F;1;4;4;1;Stim5_Set4;0;None;17;16;17;0;16;16;16;;;;;;;;;;;;;;;;;;;;;;;96.1544449;97.2587693;97.2587693;97.2587693;97.2587693;97.2587693;97.2587693;97.2587693;97.2587693;100.2800741;100.2800741;100.2800741;100.2800741;100.2800741;100.2800741;None;0;;;C:\2023\REPSWITCH21092023\REPSWITCH_excgange\REPSWITCH_excgange\data/150104_REPSWITCH1_version1_list4_2023-11-28_16h09.12.624_micRespv1l4_recorded\recording_micRespv1l4_2023-11-28_16h10.44.773.wav;100.2800741;100.7800461;None;;;;;;150104;1;2023-11-28_16h09.12.624;REPSWITCH1_version1_list4;2022.2.4;143.8768186;
REPSWITCH1/PICTURE_128.png;muñeca;type;darkblue;nontarget;1;NT;1;4;4;1;Stim4_Set1;0;None;18;17;18;0;17;17;17;;;;;;;;;;;;;;;;;;;;;;;100.7800461;101.9607996;101.9607996;101.9607996;101.9607996;101.9607996;101.9607996;101.9607996;101.9607996;104.988953;104.988953;104.988953;104.988953;104.988953;104.988953;['m', 'u', 'ñ', 'e', 'c', 'a'];0;[1.0593199997674674, 1.2479686997830868, 1.6188674997538328, 1.7118360998574644, 1.944864799734205, 2.0949050998315215];muñeca;C:\2023\REPSWITCH21092023\REPSWITCH_excgange\REPSWITCH_excgange\data/150104_REPSWITCH1_version1_list4_2023-11-28_16h09.12.624_micRespv1l4_recorded\recording_micRespv1l4_2023-11-28_16h10.49.475.wav;104.988953;;None;;;;;;150104;1;2023-11-28_16h09.12.624;REPSWITCH1_version1_list4;2022.2.4;143.8768186;
REPSWITCH1/PICTURE_128.png;muñeca;type;darkblue;repeat;1;T;1;4;4;1;Stim4_Set1;0;None;19;18;19;0;18;18;18;;;;;;;;;;;;;;;;;;;;;;;105.4890095;106.6489441;106.6489441;106.6489441;106.6489441;106.6489441;106.6489441;106.6489441;106.6489441;109.6700962;109.6700962;109.6700962;109.6700962;109.6700962;109.6700962;['m', 'u', 'ñ', 'e', 'c', 'a'];0;[1.5163031998090446, 1.8836850998923182, 2.226825299905613, 2.301583099877462, 2.5391167998313904, 2.6485297000035644];muñeca;C:\2023\REPSWITCH21092023\REPSWITCH_excgange\REPSWITCH_excgange\data/150104_REPSWITCH1_version1_list4_2023-11-28_16h09.12.624_micRespv1l4_recorded\recording_micRespv1l4_2023-11-28_16h10.54.163.wav;109.6700962;110.1702221;None;;;;;;150104;1;2023-11-28_16h09.12.624;REPSWITCH1_version1_list4;2022.2.4;143.8768186;
REPSWITCH1/PICTURE_719.png;baño;speak;gold;filler;2;F;1;4;4;1;Stim2_Set4;1;switch;20;19;20;0;19;19;19;;;;;;;;;;;;;;;;;;;;;;;110.1702221;111.3926134;111.3926134;111.3926134;111.3926134;111.3926134;111.3926134;111.3926134;111.3926134;114.4207593;114.4207593;114.4207593;114.4207593;114.4207593;114.4207593;None;0;;;C:\2023\REPSWITCH21092023\REPSWITCH_excgange\REPSWITCH_excgange\data/150104_REPSWITCH1_version1_list4_2023-11-28_16h09.12.624_micRespv1l4_recorded\recording_micRespv1l4_2023-11-28_16h10.58.907.wav;114.4207593;;None;;;;;;150104;1;2023-11-28_16h09.12.624;REPSWITCH1_version1_list4;2022.2.4;143.8768186;
REPSWITCH1/PICTURE_178.png;puente;type;darkblue;nontarget;1;NT;1;4;4;1;Stim1_Set1;1;switch;21;20;21;0;20;20;20;;;;;;;;;;;;;;;;;;;;;;;114.9208856;116.1015071;116.1015071;116.1015071;116.1015071;116.1015071;116.1015071;116.1015071;116.1015071;119.1227238;119.1227238;119.1227238;119.1227238;119.1227238;119.1227238;['p', 'u', 'e', 'n', 't', 'e'];0;[1.481843899935484, 1.713060999987647, 1.8336658999323845, 1.9492750999052078, 2.012463100021705, 2.1061779998708516];puente;C:\2023\REPSWITCH21092023\REPSWITCH_excgange\REPSWITCH_excgange\data/150104_REPSWITCH1_version1_list4_2023-11-28_16h09.12.624_micRespv1l4_recorded\recording_micRespv1l4_2023-11-28_16h11.03.615.wav;119.1227238;119.6228153;None;;;;;;150104;1;2023-11-28_16h09.12.624;REPSWITCH1_version1_list4;2022.2.4;143.8768186;
REPSWITCH1/PICTURE_178.png;puente;type;darkblue;repeat;1;T;1;4;4;1;Stim1_Set1;0;None;22;21;22;0;21;21;21;;;;;;;;;;;;;;;;;;;;;;;119.6228153;120.6855245;120.6855245;120.6855245;120.6855245;120.6855245;120.6855245;120.6855245;120.6855245;123.7066836;123.7066836;123.7066836;123.7066836;123.7066836;123.7066836;['p', 'u', 'e', 'n', 't', 'e'];0;[0.8327583998907357, 1.0500131999142468, 1.157630399800837, 1.254501599818468, 1.2944587997626513, 1.4077106998302042];puente;C:\2023\REPSWITCH21092023\REPSWITCH_excgange\REPSWITCH_excgange\data/150104_REPSWITCH1_version1_list4_2023-11-28_16h09.12.624_micRespv1l4_recorded\recording_micRespv1l4_2023-11-28_16h11.08.199.wav;123.7066836;124.2068038;None;;;;;;150104;1;2023-11-28_16h09.12.624;REPSWITCH1_version1_list4;2022.2.4;143.8768186;
REPSWITCH1/PICTURE_16.png;cazador;type;darkblue;nontarget;1;NT;1;4;4;1;Stim6_Set1;1;repeat;23;22;23;0;22;22;22;;;;;;;;;;;;;;;;;;;;;;;124.2068038;125.3250029;125.3250029;125.3250029;125.3250029;125.3250029;125.3250029;125.3250029;125.3250029;128.3531563;128.3531563;128.3531563;128.3531563;128.3531563;128.3531563;['c', 'a', 'z', 'a', 'd', 'o', 'r'];0;[1.6572516998276114, 1.912453199736774, 2.1026666997931898, 2.240622299723327, 2.413903599837795, 2.638110299827531, 2.7567632999271154];cazador;C:\2023\REPSWITCH21092023\REPSWITCH_excgange\REPSWITCH_excgange\data/150104_REPSWITCH1_version1_list4_2023-11-28_16h09.12.624_micRespv1l4_recorded\recording_micRespv1l4_2023-11-28_16h11.12.839.wav;128.3531563;;None;;;;;;150104;1;2023-11-28_16h09.12.624;REPSWITCH1_version1_list4;2022.2.4;143.8768186;
REPSWITCH1/PICTURE_16.png;cazador;speak;gold;switch;2;T;1;4;4;1;Stim6_Set1;0;None;24;23;24;0;23;23;23;;;;;;;;;;;;;;;;;;;;;;;128.8531607;129.936687;129.936687;129.936687;129.936687;129.936687;129.936687;129.936687;129.936687;132.9579288;132.9579288;132.9579288;132.9579288;132.9579288;132.9579288;None;0;;;C:\2023\REPSWITCH21092023\REPSWITCH_excgange\REPSWITCH_excgange\data/150104_REPSWITCH1_version1_list4_2023-11-28_16h09.12.624_micRespv1l4_recorded\recording_micRespv1l4_2023-11-28_16h11.17.450.wav;132.9579288;133.4579654;None;;;;;;150104;1;2023-11-28_16h09.12.624;REPSWITCH1_version1_list4;2022.2.4;143.8768186;
REPSWITCH1/PICTURE_19.png;pavo;type;darkblue;filler;1;F;2;4;4;1;Stim5_Set1;0;None;25;24;25;0;24;24;24;;;;;;;;;;;;;;;;;;;;;;;133.4579654;134.5275282;134.5275282;134.5275282;134.5275282;134.5275282;134.5275282;134.5275282;134.5275282;137.5487375;137.5487375;137.5487375;137.5487375;137.5487375;137.5487375;['p', 'a', 'v', 'o'];0;[1.0166092000436038, 1.1605378999374807, 1.3390470000449568, 1.525617399951443];pavo;C:\2023\REPSWITCH21092023\REPSWITCH_excgange\REPSWITCH_excgange\data/150104_REPSWITCH1_version1_list4_2023-11-28_16h09.12.624_micRespv1l4_recorded\recording_micRespv1l4_2023-11-28_16h11.22.041.wav;137.5487375;138.0488377;None;;;;;;150104;1;2023-11-28_16h09.12.624;REPSWITCH1_version1_list4;2022.2.4;143.8768186;
REPSWITCH1/PICTURE_199.png;falda;type;darkblue;nontarget;1;NT;2;4;4;1;Stim8_Set2;1;repeat;26;25;26;0;25;25;25;;;;;;;;;;;;;;;;;;;;;;;138.0488377;139.2503643;139.2503643;139.2503643;139.2503643;139.2503643;139.2503643;139.2503643;139.2503643;142.2786377;142.2786377;142.2786377;142.2786377;142.2786377;142.2786377;['f', 'a', 'l', 'd', 'a'];0;[1.186853899853304, 1.3224033997394145, 1.414474899880588, 1.6011709996964782, 1.6883217997383326];falda;C:\2023\REPSWITCH21092023\REPSWITCH_excgange\REPSWITCH_excgange\data/150104_REPSWITCH1_version1_list4_2023-11-28_16h09.12.624_micRespv1l4_recorded\recording_micRespv1l4_2023-11-28_16h11.26.765.wav;142.2786377;;None;;;;;;150104;1;2023-11-28_16h09.12.624;REPSWITCH1_version1_list4;2022.2.4;143.8768186;
REPSWITCH1/PICTURE_199.png;falda;type;darkblue;repeat;1;T;2;4;4;1;Stim8_Set2;0;None;27;26;27;0;26;26;26;;;;;;;;;;;;;;;;;;;;;;;142.7786122;143.8690933;143.8690933;143.8690933;143.8690933;143.8690933;143.8690933;143.8690933;143.8690933;146.890275;146.890275;146.890275;146.890275;146.890275;146.890275;['d', 'a', 'l', 'backspace', 'backspace', 'backspace', 'f', 'a', 'l'];0;[0.9361139999236912, 0.9989418999757618, 1.0666934000328183, 1.7853120998479426, 1.9318521998357028, 2.0773626000154763, 2.638344299979508, 2.7300044998992234, 2.864579299930483];fal;C:\2023\REPSWITCH21092023\REPSWITCH_excgange\REPSWITCH_excgange\data/150104_REPSWITCH1_version1_list4_2023-11-28_16h09.12.624_micRespv1l4_recorded\recording_micRespv1l4_2023-11-28_16h11.31.383.wav;146.890275;147.3903435;None;;;;;;150104;1;2023-11-28_16h09.12.624;REPSWITCH1_version1_list4;2022.2.4;143.8768186;
REPSWITCH1/PICTURE_178.png;puente;speak;gold;filler;2;F;2;4;4;1;Stim1_Set1;1;switch;28;27;28;0;27;27;27;;;;;;;;;;;;;;;;;;;;;;;147.3903435;148.5015875;148.5015875;148.5015875;148.5015875;148.5015875;148.5015875;148.5015875;148.5015875;151.5228304;151.5228304;151.5228304;151.5228304;151.5228304;151.5228304;None;0;;;C:\2023\REPSWITCH21092023\REPSWITCH_excgange\REPSWITCH_excgange\data/150104_REPSWITCH1_version1_list4_2023-11-28_16h09.12.624_micRespv1l4_recorded\recording_micRespv1l4_2023-11-28_16h11.36.015.wav;151.5228304;152.0228899;None;;;;;;150104;1;2023-11-28_16h09.12.624;REPSWITCH1_version1_list4;2022.2.4;143.8768186;
REPSWITCH1/PICTURE_517.png;cuerda;type;darkblue;nontarget;1;NT;2;4;4;1;Stim4_Set2;1;switch;29;28;29;0;28;28;28;;;;;;;;;;;;;;;;;;;;;;;152.0228899;153.0785638;153.0785638;153.0785638;153.0785638;153.0785638;153.0785638;153.0785638;153.0785638;156.0998215;156.0998215;156.0998215;156.0998215;156.0998215;156.0998215;['c', 'u', 'e', 'r', 'd', 'a'];0;[0.918064899975434, 1.058374699903652, 1.2168496998492628, 1.3091259999200702, 1.5068479999899864, 1.5979206999763846];cuerda;C:\2023\REPSWITCH21092023\REPSWITCH_excgange\REPSWITCH_excgange\data/150104_REPSWITCH1_version1_list4_2023-11-28_16h09.12.624_micRespv1l4_recorded\recording_micRespv1l4_2023-11-28_16h11.40.592.wav;156.0998215;156.5998811;None;;;;;;150104;1;2023-11-28_16h09.12.624;REPSWITCH1_version1_list4;2022.2.4;143.8768186;
REPSWITCH1/PICTURE_517.png;cuerda;type;darkblue;repeat;1;T;2;4;4;1;Stim4_Set2;0;None;30;29;30;0;29;29;29;;;;;;;;;;;;;;;;;;;;;;;156.5998811;157.606938;157.606938;157.606938;157.606938;157.606938;157.606938;157.606938;157.606938;160.6281669;160.6281669;160.6281669;160.6281669;160.6281669;160.6281669;['c', 'u', 'e', 'r', 'd', 'a'];0;[0.863377699861303, 1.0008678999729455, 1.1204903998877853, 1.204208199866116, 1.4297489000018686, 1.5325751998461783];cuerda;C:\2023\REPSWITCH21092023\REPSWITCH_excgange\REPSWITCH_excgange\data/150104_REPSWITCH1_version1_list4_2023-11-28_16h09.12.624_micRespv1l4_recorded\recording_micRespv1l4_2023-11-28_16h11.45.121.wav;160.6281669;161.1282222;None;;;;;;150104;1;2023-11-28_16h09.12.624;REPSWITCH1_version1_list4;2022.2.4;143.8768186;
REPSWITCH1/PICTURE_169.png;espalda;type;darkblue;filler;1;F;2;4;4;1;Stim8_Set1;0;None;31;30;31;0;30;30;30;;;;;;;;;;;;;;;;;;;;;;;161.1282222;162.211742;162.211742;162.211742;162.211742;162.211742;162.211742;162.211742;162.211742;165.2399717;165.2399717;165.2399717;165.2399717;165.2399717;165.2399717;['e', 's', 'p', 'l', 'a', 'd', 'a'];0;[1.0594130998943, 1.2358510999474674, 1.3767283000051975, 1.55910800001584, 1.6633743999991566, 1.8049373999238014, 1.9206131999380887];esplada;C:\2023\REPSWITCH21092023\REPSWITCH_excgange\REPSWITCH_excgange\data/150104_REPSWITCH1_version1_list4_2023-11-28_16h09.12.624_micRespv1l4_recorded\recording_micRespv1l4_2023-11-28_16h11.49.726.wav;165.2399717;;None;;;;;;150104;1;2023-11-28_16h09.12.624;REPSWITCH1_version1_list4;2022.2.4;143.8768186;
REPSWITCH1/PICTURE_673.png;tenedor;speak;gold;filler;2;F;2;4;4;1;Extra5;0;None;32;31;32;0;31;31;31;;;;;;;;;;;;;;;;;;;;;;;165.7399675;166.8026135;166.8026135;166.8026135;166.8026135;166.8026135;166.8026135;166.8026135;166.8026135;169.8308536;169.8308536;169.8308536;169.8308536;169.8308536;169.8308536;None;0;;;C:\2023\REPSWITCH21092023\REPSWITCH_excgange\REPSWITCH_excgange\data/150104_REPSWITCH1_version1_list4_2023-11-28_16h09.12.624_micRespv1l4_recorded\recording_micRespv1l4_2023-11-28_16h11.54.317.wav;169.8308536;;None;;;;;;150104;1;2023-11-28_16h09.12.624;REPSWITCH1_version1_list4;2022.2.4;143.8768186;
REPSWITCH1/PICTURE_142.png;vaso;type;darkblue;filler;1;F;2;4;4;1;Stim7_Set1;1;switch;33;32;33;0;32;32;32;;;;;;;;;;;;;;;;;;;;;;;170.3308518;171.4768622;171.4768622;171.4768622;171.4768622;171.4768622;171.4768622;171.4768622;171.4768622;174.4980241;174.4980241;174.4980241;174.4980241;174.4980241;174.4980241;['v', 'a', 's', 'o'];0;[1.2026169998571277, 1.2753758998587728, 1.3690643997397274, 1.4997770998161286];vaso;C:\2023\REPSWITCH21092023\REPSWITCH_excgange\REPSWITCH_excgange\data/150104_REPSWITCH1_version1_list4_2023-11-28_16h09.12.624_micRespv1l4_recorded\recording_micRespv1l4_2023-11-28_16h11.58.990.wav;174.4980241;174.9981006;None;;;;;;150104;1;2023-11-28_16h09.12.624;REPSWITCH1_version1_list4;2022.2.4;143.8768186;
REPSWITCH1/PICTURE_552.png;manzana;type;darkblue;nontarget;1;NT;2;4;4;1;Stim6_Set2;1;repeat;34;33;34;0;33;33;33;;;;;;;;;;;;;;;;;;;;;;;174.9981006;176.0468986;176.0468986;176.0468986;176.0468986;176.0468986;176.0468986;176.0468986;176.0468986;179.0750315;179.0750315;179.0750315;179.0750315;179.0750315;179.0750315;['m', 'a', 'n', 'z', 'a', 'n', 'a'];0;[1.2727759999688715, 1.3714348999783397, 1.5049785999581218, 1.9577719999942929, 2.06026539998129, 2.1489666998386383, 2.292488700011745];manzana;C:\2023\REPSWITCH21092023\REPSWITCH_excgange\REPSWITCH_excgange\data/150104_REPSWITCH1_version1_list4_2023-11-28_16h09.12.624_micRespv1l4_recorded\recording_micRespv1l4_2023-11-28_16h12.03.562.wav;179.0750315;;None;;;;;;150104;1;2023-11-28_16h09.12.624;REPSWITCH1_version1_list4;2022.2.4;143.8768186;
REPSWITCH1/PICTURE_552.png;manzana;speak;gold;switch;1;T;2;4;4;1;Stim6_Set2;0;None;35;34;35;0;34;34;34;;;;;;;;;;;;;;;;;;;;;;;179.5750882;180.7141361;180.7141361;180.7141361;180.7141361;180.7141361;180.7141361;180.7141361;180.7141361;183.7423211;183.7423211;183.7423211;183.7423211;183.7423211;183.7423211;None;0;;;C:\2023\REPSWITCH21092023\REPSWITCH_excgange\REPSWITCH_excgange\data/150104_REPSWITCH1_version1_list4_2023-11-28_16h09.12.624_micRespv1l4_recorded\recording_micRespv1l4_2023-11-28_16h12.08.228.wav;183.7423211;;None;;;;;;150104;1;2023-11-28_16h09.12.624;REPSWITCH1_version1_list4;2022.2.4;143.8768186;
REPSWITCH1/PICTURE_135.png;traje;speak;gold;filler;2;F;2;4;4;1;Stim3_Set1;0;None;36;35;36;0;35;35;35;;;;;;;;;;;;;;;;;;;;;;;184.2423922;185.2911686;185.2911686;185.2911686;185.2911686;185.2911686;185.2911686;185.2911686;185.2911686;188.3123619;188.3123619;188.3123619;188.3123619;188.3123619;188.3123619;None;0;;;C:\2023\REPSWITCH21092023\REPSWITCH_excgange\REPSWITCH_excgange\data/150104_REPSWITCH1_version1_list4_2023-11-28_16h09.12.624_micRespv1l4_recorded\recording_micRespv1l4_2023-11-28_16h12.12.805.wav;188.3123619;188.8124354;None;;;;;;150104;1;2023-11-28_16h09.12.624;REPSWITCH1_version1_list4;2022.2.4;143.8768186;
REPSWITCH1/PICTURE_152.png;caracol;speak;gold;nontarget;2;NT;2;4;4;1;Stim2_Set2;1;repeat;37;36;37;0;36;36;36;;;;;;;;;;;;;;;;;;;;;;;188.8124354;189.8820865;189.8820865;189.8820865;189.8820865;189.8820865;189.8820865;189.8820865;189.8820865;192.90331;192.90331;192.90331;192.90331;192.90331;192.90331;None;0;;;C:\2023\REPSWITCH21092023\REPSWITCH_excgange\REPSWITCH_excgange\data/150104_REPSWITCH1_version1_list4_2023-11-28_16h09.12.624_micRespv1l4_recorded\recording_micRespv1l4_2023-11-28_16h12.17.395.wav;192.90331;193.403302;None;;;;;;150104;1;2023-11-28_16h09.12.624;REPSWITCH1_version1_list4;2022.2.4;143.8768186;
REPSWITCH1/PICTURE_152.png;caracol;type;darkblue;switch;1;T;2;4;4;1;Stim2_Set2;0;None;38;37;38;0;37;37;37;;;;;;;;;;;;;;;;;;;;;;;193.403302;194.5076375;194.5076375;194.5076375;194.5076375;194.5076375;194.5076375;194.5076375;194.5076375;197.5288661;197.5288661;197.5288661;197.5288661;197.5288661;197.5288661;['c', 'a', 'r', 'a', 'c', 'o', 'l'];0;[0.9452484999783337, 1.0589620000682771, 1.25428680004552, 1.3808565998915583, 1.474869600031525, 1.683879799908027, 1.8384469000156969];caracol;C:\2023\REPSWITCH21092023\REPSWITCH_excgange\REPSWITCH_excgange\data/150104_REPSWITCH1_version1_list4_2023-11-28_16h09.12.624_micRespv1l4_recorded\recording_micRespv1l4_2023-11-28_16h12.22.022.wav;197.5288661;198.0289287;None;;;;;;150104;1;2023-11-28_16h09.12.624;REPSWITCH1_version1_list4;2022.2.4;143.8768186;
REPSWITCH1/PICTURE_381.png;fresa;type;darkblue;filler;1;F;2;4;4;1;Stim2_Set1;0;None;39;38;39;0;38;38;38;;;;;;;;;;;;;;;;;;;;;;;198.0289287;199.1193612;199.1193612;199.1193612;199.1193612;199.1193612;199.1193612;199.1193612;199.1193612;202.1475901;202.1475901;202.1475901;202.1475901;202.1475901;202.1475901;['f', 'r', 'e', 's', 'a'];0;[1.0386272999458015, 1.2513945000246167, 1.4371179000008851, 1.6329514998942614, 1.754766299854964];fresa;C:\2023\REPSWITCH21092023\REPSWITCH_excgange\REPSWITCH_excgange\data/150104_REPSWITCH1_version1_list4_2023-11-28_16h09.12.624_micRespv1l4_recorded\recording_micRespv1l4_2023-11-28_16h12.26.634.wav;202.1475901;;None;;;;;;150104;1;2023-11-28_16h09.12.624;REPSWITCH1_version1_list4;2022.2.4;143.8768186;
REPSWITCH1/PICTURE_446.png;cerdo;type;darkblue;nontarget;1;NT;2;4;4;1;Stim7_Set2;1;repeat;40;39;40;0;39;39;39;;;;;;;;;;;;;;;;;;;;;;;202.6475903;203.8561226;203.8561226;203.8561226;203.8561226;203.8561226;203.8561226;203.8561226;203.8561226;206.8772951;206.8772951;206.8772951;206.8772951;206.8772951;206.8772951;['c', 'e', 'r', 'd', 'o'];0;[1.047436699969694, 1.2634733999148011, 1.3372266998048872, 1.5634287998545915, 1.665194399887696];cerdo;C:\2023\REPSWITCH21092023\REPSWITCH_excgange\REPSWITCH_excgange\data/150104_REPSWITCH1_version1_list4_2023-11-28_16h09.12.624_micRespv1l4_recorded\recording_micRespv1l4_2023-11-28_16h12.31.369.wav;206.8772951;207.3773688;None;;;;;;150104;1;2023-11-28_16h09.12.624;REPSWITCH1_version1_list4;2022.2.4;143.8768186;
REPSWITCH1/PICTURE_446.png;cerdo;speak;gold;switch;2;T;2;4;4;1;Stim7_Set2;0;None;41;40;41;0;40;40;40;;;;;;;;;;;;;;;;;;;;;;;207.3773688;208.4955507;208.4955507;208.4955507;208.4955507;208.4955507;208.4955507;208.4955507;208.4955507;211.5237509;211.5237509;211.5237509;211.5237509;211.5237509;211.5237509;None;0;;;C:\2023\REPSWITCH21092023\REPSWITCH_excgange\REPSWITCH_excgange\data/150104_REPSWITCH1_version1_list4_2023-11-28_16h09.12.624_micRespv1l4_recorded\recording_micRespv1l4_2023-11-28_16h12.36.010.wav;211.5237509;;None;;;;;;150104;1;2023-11-28_16h09.12.624;REPSWITCH1_version1_list4;2022.2.4;143.8768186;
REPSWITCH1/PICTURE_264.png;mano;speak;gold;nontarget;2;NT;2;4;4;1;Stim3_Set2;0;None;42;41;42;0;41;41;41;;;;;;;;;;;;;;;;;;;;;;;212.0237976;213.0656;213.0656;213.0656;213.0656;213.0656;213.0656;213.0656;213.0656;216.0869065;216.0869065;216.0869065;216.0869065;216.0869065;216.0869065;None;0;;;C:\2023\REPSWITCH21092023\REPSWITCH_excgange\REPSWITCH_excgange\data/150104_REPSWITCH1_version1_list4_2023-11-28_16h09.12.624_micRespv1l4_recorded\recording_micRespv1l4_2023-11-28_16h12.40.579.wav;216.0869065;216.5868958;None;;;;;;150104;1;2023-11-28_16h09.12.624;REPSWITCH1_version1_list4;2022.2.4;143.8768186;
REPSWITCH1/PICTURE_264.png;mano;speak;gold;repeat;2;T;2;4;4;1;Stim3_Set2;0;None;43;42;43;0;42;42;42;;;;;;;;;;;;;;;;;;;;;;;216.5868958;217.6564822;217.6564822;217.6564822;217.6564822;217.6564822;217.6564822;217.6564822;217.6564822;220.6777995;220.6777995;220.6777995;220.6777995;220.6777995;220.6777995;None;0;;;C:\2023\REPSWITCH21092023\REPSWITCH_excgange\REPSWITCH_excgange\data/150104_REPSWITCH1_version1_list4_2023-11-28_16h09.12.624_micRespv1l4_recorded\recording_micRespv1l4_2023-11-28_16h12.45.170.wav;220.6777995;221.1777907;None;;;;;;150104;1;2023-11-28_16h09.12.624;REPSWITCH1_version1_list4;2022.2.4;143.8768186;
REPSWITCH1/PICTURE_128.png;muñeca;type;darkblue;filler;1;F;2;4;4;1;Stim4_Set1;0;None;44;43;44;0;43;43;43;;;;;;;;;;;;;;;;;;;;;;;221.1777907;222.2265484;222.2265484;222.2265484;222.2265484;222.2265484;222.2265484;222.2265484;222.2265484;225.2478309;225.2478309;225.2478309;225.2478309;225.2478309;225.2478309;['m', 'u', 'ñ', 'e', 'c', 'a'];0;[1.0653906997758895, 1.232860499760136, 1.4898437997326255, 1.5924660998862237, 1.7857584997545928, 1.9303064998239279];muñeca;C:\2023\REPSWITCH21092023\REPSWITCH_excgange\REPSWITCH_excgange\data/150104_REPSWITCH1_version1_list4_2023-11-28_16h09.12.624_micRespv1l4_recorded\recording_micRespv1l4_2023-11-28_16h12.49.740.wav;225.2478309;225.7478338;None;;;;;;150104;1;2023-11-28_16h09.12.624;REPSWITCH1_version1_list4;2022.2.4;143.8768186;
REPSWITCH1/PICTURE_30.png;granja;speak;gold;nontarget;2;NT;2;4;4;1;Stim5_Set2;1;switch;45;44;45;0;44;44;44;;;;;;;;;;;;;;;;;;;;;;;225.7478338;226.8104885;226.8104885;226.8104885;226.8104885;226.8104885;226.8104885;226.8104885;226.8104885;229.8387263;229.8387263;229.8387263;229.8387263;229.8387263;229.8387263;None;0;;;C:\2023\REPSWITCH21092023\REPSWITCH_excgange\REPSWITCH_excgange\data/150104_REPSWITCH1_version1_list4_2023-11-28_16h09.12.624_micRespv1l4_recorded\recording_micRespv1l4_2023-11-28_16h12.54.325.wav;229.8387263;;None;;;;;;150104;1;2023-11-28_16h09.12.624;REPSWITCH1_version1_list4;2022.2.4;143.8768186;
REPSWITCH1/PICTURE_30.png;granja;speak;gold;repeat;2;T;2;4;4;1;Stim5_Set2;0;None;46;45;46;0;45;45;45;;;;;;;;;;;;;;;;;;;;;;;230.3387167;231.4083174;231.4083174;231.4083174;231.4083174;231.4083174;231.4083174;231.4083174;231.4083174;234.4295345;234.4295345;234.4295345;234.4295345;234.4295345;234.4295345;None;0;;;C:\2023\REPSWITCH21092023\REPSWITCH_excgange\REPSWITCH_excgange\data/150104_REPSWITCH1_version1_list4_2023-11-28_16h09.12.624_micRespv1l4_recorded\recording_micRespv1l4_2023-11-28_16h12.58.922.wav;234.4295345;234.9295906;None;;;;;;150104;1;2023-11-28_16h09.12.624;REPSWITCH1_version1_list4;2022.2.4;143.8768186;
REPSWITCH1/PICTURE_646.png;tronco;type;darkblue;filler;1;F;2;4;4;1;Extra4;0;None;47;46;47;0;46;46;46;;;;;;;;;;;;;;;;;;;;;;;234.9295906;236.1798213;236.1798213;236.1798213;236.1798213;236.1798213;236.1798213;236.1798213;236.1798213;239.2009933;239.2009933;239.2009933;239.2009933;239.2009933;239.2009933;['t', 'r', 'o', 'n', 'c', 'o'];0;[1.0916164997033775, 1.282345999730751, 1.4119088998995721, 1.6093459997791797, 1.7790369999129325, 1.872705299872905];tronco;C:\2023\REPSWITCH21092023\REPSWITCH_excgange\REPSWITCH_excgange\data/150104_REPSWITCH1_version1_list4_2023-11-28_16h09.12.624_micRespv1l4_recorded\recording_micRespv1l4_2023-11-28_16h13.03.693.wav;239.2009933;239.7010264;None;;;;;;150104;1;2023-11-28_16h09.12.624;REPSWITCH1_version1_list4;2022.2.4;143.8768186;
REPSWITCH1/PICTURE_16.png;cazador;speak;gold;filler;2;F;2;4;4;1;Stim6_Set1;0;None;48;47;48;0;47;47;47;;;;;;;;;;;;;;;;;;;;;;;239.7010264;240.8123848;240.8123848;240.8123848;240.8123848;240.8123848;240.8123848;240.8123848;240.8123848;243.8404808;243.8404808;243.8404808;243.8404808;243.8404808;243.8404808;None;0;;;C:\2023\REPSWITCH21092023\REPSWITCH_excgange\REPSWITCH_excgange\data/150104_REPSWITCH1_version1_list4_2023-11-28_16h09.12.624_micRespv1l4_recorded\recording_micRespv1l4_2023-11-28_16h13.08.327.wav;243.8404808;;None;;;;;;150104;1;2023-11-28_16h09.12.624;REPSWITCH1_version1_list4;2022.2.4;143.8768186;
REPSWITCH1/PICTURE_175.png;pintor;speak;gold;nontarget;2;NT;2;4;4;1;Stim1_Set2;1;repeat;49;48;49;0;48;48;48;;;;;;;;;;;;;;;;;;;;;;;244.340632;245.4865124;245.4865124;245.4865124;245.4865124;245.4865124;245.4865124;245.4865124;245.4865124;248.5147714;248.5147714;248.5147714;248.5147714;248.5147714;248.5147714;None;0;;;C:\2023\REPSWITCH21092023\REPSWITCH_excgange\REPSWITCH_excgange\data/150104_REPSWITCH1_version1_list4_2023-11-28_16h09.12.624_micRespv1l4_recorded\recording_micRespv1l4_2023-11-28_16h13.13.000.wav;248.5147714;;None;;;;;;150104;1;2023-11-28_16h09.12.624;REPSWITCH1_version1_list4;2022.2.4;143.8768186;
REPSWITCH1/PICTURE_175.png;pintor;type;darkblue;switch;1;T;2;4;4;1;Stim1_Set2;0;None;50;49;50;0;49;49;49;;;;;;;;;;;;;;;;;;;;;;;249.0147725;250.056554;250.056554;250.056554;250.056554;250.056554;250.056554;250.056554;250.056554;253.0847682;253.0847682;253.0847682;253.0847682;253.0847682;253.0847682;['p', 'i', 'n', 't', 'o'];0;[0.8746827999129891, 1.8602485000155866, 2.0515815999824554, 2.1691874999087304, 2.2997186998836696];pinto;C:\2023\REPSWITCH21092023\REPSWITCH_excgange\REPSWITCH_excgange\data/150104_REPSWITCH1_version1_list4_2023-11-28_16h09.12.624_micRespv1l4_recorded\recording_micRespv1l4_2023-11-28_16h13.17.571.wav;253.0847682;;None;;;;;;150104;1;2023-11-28_16h09.12.624;REPSWITCH1_version1_list4;2022.2.4;143.8768186;
REPSWITCH1/PICTURE_663.png;columna;speak;gold;filler;2;F;4;4;4;1;Extra6;0;None;51;50;51;0;50;50;50;;;;;;;;;;;;;;;;;;;;;;;253.5848156;254.7169368;254.7169368;254.7169368;254.7169368;254.7169368;254.7169368;254.7169368;254.7169368;257.7381039;257.7381039;257.7381039;257.7381039;257.7381039;257.7381039;None;0;;;C:\2023\REPSWITCH21092023\REPSWITCH_excgange\REPSWITCH_excgange\data/150104_REPSWITCH1_version1_list4_2023-11-28_16h09.12.624_micRespv1l4_recorded\recording_micRespv1l4_2023-11-28_16h13.22.231.wav;257.7381039;258.2382025;space;258.2382025;258.2382025;22.9028237;;;150104;1;2023-11-28_16h09.12.624;REPSWITCH1_version1_list4;2022.2.4;143.8768186;
REPSWITCH1/PICTURE_35.png;oreja;type;darkblue;nontarget;1;NT;3;4;4;1;Stim5_Set3;0;None;52;51;52;0;51;51;51;;;;;;;;;;;;;;;;;;;;;;;281.1509319;282.2969041;282.2969041;282.2969041;282.2969041;282.2969041;282.2969041;282.2969041;282.2969041;285.3181326;285.3181326;285.3181326;285.3181326;285.3181326;285.3181326;['o', 'r', 'e', 'j', 'a'];0;[1.621856699930504, 1.8171777999959886, 1.9148654998280108, 2.1160618998110294, 2.2256856998428702];oreja;C:\2023\REPSWITCH21092023\REPSWITCH_excgange\REPSWITCH_excgange\data/150104_REPSWITCH1_version1_list4_2023-11-28_16h09.12.624_micRespv1l4_recorded\recording_micRespv1l4_2023-11-28_16h13.49.811.wav;285.3181326;285.8181993;None;;;;;;150104;1;2023-11-28_16h09.12.624;REPSWITCH1_version1_list4;2022.2.4;143.8768186;
REPSWITCH1/PICTURE_35.png;oreja;speak;gold;switch;2;T;3;4;4;1;Stim5_Set3;0;None;53;52;53;0;52;52;52;;;;;;;;;;;;;;;;;;;;;;;285.8181993;287.0198229;287.0198229;287.0198229;287.0198229;287.0198229;287.0198229;287.0198229;287.0198229;290.0409516;290.0409516;290.0409516;290.0409516;290.0409516;290.0409516;None;0;;;C:\2023\REPSWITCH21092023\REPSWITCH_excgange\REPSWITCH_excgange\data/150104_REPSWITCH1_version1_list4_2023-11-28_16h09.12.624_micRespv1l4_recorded\recording_micRespv1l4_2023-11-28_16h13.54.533.wav;290.0409516;290.5410286;None;;;;;;150104;1;2023-11-28_16h09.12.624;REPSWITCH1_version1_list4;2022.2.4;143.8768186;
REPSWITCH1/PICTURE_199.png;falda;speak;gold;filler;2;F;3;4;4;1;Stim8_Set2;0;None;54;53;54;0;53;53;53;;;;;;;;;;;;;;;;;;;;;;;290.5410286;291.6453778;291.6453778;291.6453778;291.6453778;291.6453778;291.6453778;291.6453778;291.6453778;294.6735391;294.6735391;294.6735391;294.6735391;294.6735391;294.6735391;None;0;;;C:\2023\REPSWITCH21092023\REPSWITCH_excgange\REPSWITCH_excgange\data/150104_REPSWITCH1_version1_list4_2023-11-28_16h09.12.624_micRespv1l4_recorded\recording_micRespv1l4_2023-11-28_16h13.59.160.wav;294.6735391;;None;;;;;;150104;1;2023-11-28_16h09.12.624;REPSWITCH1_version1_list4;2022.2.4;143.8768186;
REPSWITCH1/PICTURE_576.png;guante;speak;gold;nontarget;2;NT;3;4;4;1;Stim1_Set3;1;repeat;55;54;55;0;54;54;54;;;;;;;;;;;;;;;;;;;;;;;295.1736042;296.250214;296.250214;296.250214;296.250214;296.250214;296.250214;296.250214;296.250214;299.2714269;299.2714269;299.2714269;299.2714269;299.2714269;299.2714269;None;0;;;C:\2023\REPSWITCH21092023\REPSWITCH_excgange\REPSWITCH_excgange\data/150104_REPSWITCH1_version1_list4_2023-11-28_16h09.12.624_micRespv1l4_recorded\recording_micRespv1l4_2023-11-28_16h14.03.764.wav;299.2714269;299.77143;None;;;;;;150104;1;2023-11-28_16h09.12.624;REPSWITCH1_version1_list4;2022.2.4;143.8768186;
REPSWITCH1/PICTURE_576.png;guante;type;darkblue;switch;1;T;3;4;4;1;Stim1_Set3;0;None;56;55;56;0;55;55;55;;;;;;;;;;;;;;;;;;;;;;;299.77143;300.8479523;300.8479523;300.8479523;300.8479523;300.8479523;300.8479523;300.8479523;300.8479523;303.869148;303.869148;303.869148;303.869148;303.869148;303.869148;['g', 'a', 'backspace', 'u', 'a', 'n', 't', 'e'];0;[0.7639739997684956, 1.0579840997233987, 1.9400183998513967, 2.479071999900043, 2.610967399785295, 2.699670599773526, 2.7288694998715073, 2.878360599745065];guante;C:\2023\REPSWITCH21092023\REPSWITCH_excgange\REPSWITCH_excgange\data/150104_REPSWITCH1_version1_list4_2023-11-28_16h09.12.624_micRespv1l4_recorded\recording_micRespv1l4_2023-11-28_16h14.08.361.wav;303.869148;304.3692574;None;;;;;;150104;1;2023-11-28_16h09.12.624;REPSWITCH1_version1_list4;2022.2.4;143.8768186;
REPSWITCH1/PICTURE_517.png;cuerda;type;darkblue;filler;1;F;3;4;4;1;Stim4_Set2;1;repeat;57;56;57;0;56;56;56;;;;;;;;;;;;;;;;;;;;;;;304.3692574;305.4388409;305.4388409;305.4388409;305.4388409;305.4388409;305.4388409;305.4388409;305.4388409;308.4600369;308.4600369;308.4600369;308.4600369;308.4600369;308.4600369;['c', 'u', 'e', 'r', 'd', 'a'];0;[0.8393957999069244, 1.2811191999353468, 1.42762909992598, 1.4894166998565197, 1.6807430998887867, 1.7914134997408837];cuerda;C:\2023\REPSWITCH21092023\REPSWITCH_excgange\REPSWITCH_excgange\data/150104_REPSWITCH1_version1_list4_2023-11-28_16h09.12.624_micRespv1l4_recorded\recording_micRespv1l4_2023-11-28_16h14.12.953.wav;308.4600369;308.9601011;None;;;;;;150104;1;2023-11-28_16h09.12.624;REPSWITCH1_version1_list4;2022.2.4;143.8768186;
REPSWITCH1/PICTURE_271.png;conejo;type;darkblue;nontarget;1;NT;3;4;4;1;Stim7_Set3;1;repeat;58;57;58;0;57;57;57;;;;;;;;;;;;;;;;;;;;;;;308.9601011;310.0714202;310.0714202;310.0714202;310.0714202;310.0714202;310.0714202;310.0714202;310.0714202;313.0995725;313.0995725;313.0995725;313.0995725;313.0995725;313.0995725;['c', 'o', 'n', 'e', 'j', 'o'];0;[0.8272058998700231, 0.9418220999650657, 1.1551098998170346, 1.2935894997790456, 1.4281162999104708, 1.622473199851811];conejo;C:\2023\REPSWITCH21092023\REPSWITCH_excgange\REPSWITCH_excgange\data/150104_REPSWITCH1_version1_list4_2023-11-28_16h09.12.624_micRespv1l4_recorded\recording_micRespv1l4_2023-11-28_16h14.17.586.wav;313.0995725;;None;;;;;;150104;1;2023-11-28_16h09.12.624;REPSWITCH1_version1_list4;2022.2.4;143.8768186;
REPSWITCH1/PICTURE_271.png;conejo;speak;gold;switch;2;T;3;4;4;1;Stim7_Set3;0;None;59;58;59;0;58;58;58;;;;;;;;;;;;;;;;;;;;;;;313.5996991;314.6414466;314.6414466;314.6414466;314.6414466;314.6414466;314.6414466;314.6414466;314.6414466;317.6696173;317.6696173;317.6696173;317.6696173;317.6696173;317.6696173;None;0;;;C:\2023\REPSWITCH21092023\REPSWITCH_excgange\REPSWITCH_excgange\data/150104_REPSWITCH1_version1_list4_2023-11-28_16h09.12.624_micRespv1l4_recorded\recording_micRespv1l4_2023-11-28_16h14.22.156.wav;317.6696173;;None;;;;;;150104;1;2023-11-28_16h09.12.624;REPSWITCH1_version1_list4;2022.2.4;143.8768186;
REPSWITCH1/PICTURE_552.png;manzana;type;darkblue;filler;1;F;3;4;4;1;Stim6_Set2;0;None;60;59;60;0;59;59;59;;;;;;;;;;;;;;;;;;;;;;;318.1696686;319.2114879;319.2114879;319.2114879;319.2114879;319.2114879;319.2114879;319.2114879;319.2114879;322.2328086;322.2328086;322.2328086;322.2328086;322.2328086;322.2328086;['m', 'a', 'n', 'z', 'a', 'n', 'a'];0;[0.8830036998260766, 0.9895760999061167, 1.120137499878183, 1.3064804999157786, 1.4500278998166323, 1.5337547999806702, 1.6214550998993218];manzana;C:\2023\REPSWITCH21092023\REPSWITCH_excgange\REPSWITCH_excgange\data/150104_REPSWITCH1_version1_list4_2023-11-28_16h09.12.624_micRespv1l4_recorded\recording_micRespv1l4_2023-11-28_16h14.26.725.wav;322.2328086;322.7327405;None;;;;;;150104;1;2023-11-28_16h09.12.624;REPSWITCH1_version1_list4;2022.2.4;143.8768186;
REPSWITCH1/PICTURE_242.png;cartero;speak;gold;nontarget;2;NT;3;4;4;1;Stim3_Set3;1;switch;61;60;61;0;60;60;60;;;;;;;;;;;;;;;;;;;;;;;322.7327405;323.857917;323.857917;323.857917;323.857917;323.857917;323.857917;323.857917;323.857917;326.8860708;326.8860708;326.8860708;326.8860708;326.8860708;326.8860708;None;0;;;C:\2023\REPSWITCH21092023\REPSWITCH_excgange\REPSWITCH_excgange\data/150104_REPSWITCH1_version1_list4_2023-11-28_16h09.12.624_micRespv1l4_recorded\recording_micRespv1l4_2023-11-28_16h14.31.372.wav;326.8860708;;None;;;;;;150104;1;2023-11-28_16h09.12.624;REPSWITCH1_version1_list4;2022.2.4;143.8768186;
REPSWITCH1/PICTURE_242.png;cartero;speak;gold;repeat;2;T;3;4;4;1;Stim3_Set3;0;None;62;61;62;0;61;61;61;;;;;;;;;;;;;;;;;;;;;;;327.3861383;328.4140699;328.4140699;328.4140699;328.4140699;328.4140699;328.4140699;328.4140699;328.4140699;331.4353132;331.4353132;331.4353132;331.4353132;331.4353132;331.4353132;None;0;;;C:\2023\REPSWITCH21092023\REPSWITCH_excgange\REPSWITCH_excgange\data/150104_REPSWITCH1_version1_list4_2023-11-28_16h09.12.624_micRespv1l4_recorded\recording_micRespv1l4_2023-11-28_16h14.35.927.wav;331.4353132;331.9353667;None;;;;;;150104;1;2023-11-28_16h09.12.624;REPSWITCH1_version1_list4;2022.2.4;143.8768186;
REPSWITCH1/PICTURE_152.png;caracol;speak;gold;filler;2;F;3;4;4;1;Stim2_Set2;0;None;63;62;63;0;62;62;62;;;;;;;;;;;;;;;;;;;;;;;331.9353667;332.9841124;332.9841124;332.9841124;332.9841124;332.9841124;332.9841124;332.9841124;332.9841124;336.0053436;336.0053436;336.0053436;336.0053436;336.0053436;336.0053436;None;0;;;C:\2023\REPSWITCH21092023\REPSWITCH_excgange\REPSWITCH_excgange\data/150104_REPSWITCH1_version1_list4_2023-11-28_16h09.12.624_micRespv1l4_recorded\recording_micRespv1l4_2023-11-28_16h14.40.498.wav;336.0053436;336.5054186;None;;;;;;150104;1;2023-11-28_16h09.12.624;REPSWITCH1_version1_list4;2022.2.4;143.8768186;
REPSWITCH1/PICTURE_446.png;cerdo;type;darkblue;filler;1;F;3;4;4;1;Stim7_Set2;1;switch;64;63;64;0;63;63;63;;;;;;;;;;;;;;;;;;;;;;;336.5054186;337.6236062;337.6236062;337.6236062;337.6236062;337.6236062;337.6236062;337.6236062;337.6236062;340.6517956;340.6517956;340.6517956;340.6517956;340.6517956;340.6517956;['c', 'e', 'r', 'd', 'o'];0;[0.8849286998156458, 1.1343730997759849, 1.1822127997875214, 1.4030907999258488, 1.5247014998458326];cerdo;C:\2023\REPSWITCH21092023\REPSWITCH_excgange\REPSWITCH_excgange\data/150104_REPSWITCH1_version1_list4_2023-11-28_16h09.12.624_micRespv1l4_recorded\recording_micRespv1l4_2023-11-28_16h14.45.137.wav;340.6517956;;None;;;;;;150104;1;2023-11-28_16h09.12.624;REPSWITCH1_version1_list4;2022.2.4;143.8768186;
REPSWITCH1/PICTURE_610.png;miel;speak;gold;nontarget;2;NT;3;4;4;1;Stim2_Set3;1;switch;65;64;65;0;64;64;64;;;;;;;;;;;;;;;;;;;;;;;341.1519395;342.2075526;342.2075526;342.2075526;342.2075526;342.2075526;342.2075526;342.2075526;342.2075526;345.2357316;345.2357316;345.2357316;345.2357316;345.2357316;345.2357316;None;0;;;C:\2023\REPSWITCH21092023\REPSWITCH_excgange\REPSWITCH_excgange\data/150104_REPSWITCH1_version1_list4_2023-11-28_16h09.12.624_micRespv1l4_recorded\recording_micRespv1l4_2023-11-28_16h14.49.721.wav;345.2357316;;None;;;;;;150104;1;2023-11-28_16h09.12.624;REPSWITCH1_version1_list4;2022.2.4;143.8768186;
REPSWITCH1/PICTURE_610.png;miel;speak;gold;repeat;2;T;3;4;4;1;Stim2_Set3;0;None;66;65;66;0;65;65;65;;;;;;;;;;;;;;;;;;;;;;;345.7357883;346.8887151;346.8887151;346.8887151;346.8887151;346.8887151;346.8887151;346.8887151;346.8887151;349.9168951;349.9168951;349.9168951;349.9168951;349.9168951;349.9168951;None;0;;;C:\2023\REPSWITCH21092023\REPSWITCH_excgange\REPSWITCH_excgange\data/150104_REPSWITCH1_version1_list4_2023-11-28_16h09.12.624_micRespv1l4_recorded\recording_micRespv1l4_2023-11-28_16h14.54.403.wav;349.9168951;;None;;;;;;150104;1;2023-11-28_16h09.12.624;REPSWITCH1_version1_list4;2022.2.4;143.8768186;
REPSWITCH1/PICTURE_320.png;iglesia;speak;gold;nontarget;2;NT;3;4;4;1;Stim8_Set3;1;repeat;67;66;67;0;66;66;66;;;;;;;;;;;;;;;;;;;;;;;350.4169414;351.6393442;351.6393442;351.6393442;351.6393442;351.6393442;351.6393442;351.6393442;351.6393442;354.6605774;354.6605774;354.6605774;354.6605774;354.6605774;354.6605774;None;0;;;C:\2023\REPSWITCH21092023\REPSWITCH_excgange\REPSWITCH_excgange\data/150104_REPSWITCH1_version1_list4_2023-11-28_16h09.12.624_micRespv1l4_recorded\recording_micRespv1l4_2023-11-28_16h14.59.153.wav;354.6605774;355.1606458;None;;;;;;150104;1;2023-11-28_16h09.12.624;REPSWITCH1_version1_list4;2022.2.4;143.8768186;
REPSWITCH1/PICTURE_320.png;iglesia;type;darkblue;switch;1;T;3;4;4;1;Stim8_Set3;0;None;68;67;68;0;67;67;67;;;;;;;;;;;;;;;;;;;;;;;355.1606458;356.3343876;356.3343876;356.3343876;356.3343876;356.3343876;356.3343876;356.3343876;356.3343876;359.3626502;359.3626502;359.3626502;359.3626502;359.3626502;359.3626502;['i', 'g', 'l', 'e', 'backspace'];0;[0.9522881000302732, 1.0888137998990715, 1.2731250999495387, 1.5461949999444187, 2.235276099992916];igl;C:\2023\REPSWITCH21092023\REPSWITCH_excgange\REPSWITCH_excgange\data/150104_REPSWITCH1_version1_list4_2023-11-28_16h09.12.624_micRespv1l4_recorded\recording_micRespv1l4_2023-11-28_16h15.03.849.wav;359.3626502;;None;;;;;;150104;1;2023-11-28_16h09.12.624;REPSWITCH1_version1_list4;2022.2.4;143.8768186;
REPSWITCH1/PICTURE_30.png;granja;speak;gold;filler;2;F;3;4;4;1;Stim5_Set2;0;None;69;68;69;0;68;68;68;;;;;;;;;;;;;;;;;;;;;;;359.8626465;360.9044486;360.9044486;360.9044486;360.9044486;360.9044486;360.9044486;360.9044486;360.9044486;363.9326339;363.9326339;363.9326339;363.9326339;363.9326339;363.9326339;None;0;;;C:\2023\REPSWITCH21092023\REPSWITCH_excgange\REPSWITCH_excgange\data/150104_REPSWITCH1_version1_list4_2023-11-28_16h09.12.624_micRespv1l4_recorded\recording_micRespv1l4_2023-11-28_16h15.08.419.wav;363.9326339;;None;;;;;;150104;1;2023-11-28_16h09.12.624;REPSWITCH1_version1_list4;2022.2.4;143.8768186;
REPSWITCH1/PICTURE_264.png;mano;type;darkblue;filler;1;F;3;4;4;1;Stim3_Set2;0;None;70;69;70;0;69;69;69;;;;;;;;;;;;;;;;;;;;;;;364.4327584;365.4953328;365.4953328;365.4953328;365.4953328;365.4953328;365.4953328;365.4953328;365.4953328;368.5165611;368.5165611;368.5165611;368.5165611;368.5165611;368.5165611;['m', 'a', 'n', 'o'];0;[0.9194958000443876, 1.03312739985995, 1.1307174998801202, 1.307732499903068];mano;C:\2023\REPSWITCH21092023\REPSWITCH_excgange\REPSWITCH_excgange\data/150104_REPSWITCH1_version1_list4_2023-11-28_16h09.12.624_micRespv1l4_recorded\recording_micRespv1l4_2023-11-28_16h15.13.009.wav;368.5165611;369.0165892;None;;;;;;150104;1;2023-11-28_16h09.12.624;REPSWITCH1_version1_list4;2022.2.4;143.8768186;
REPSWITCH1/PICTURE_464.png;goma;type;darkblue;nontarget;1;NT;3;4;4;1;Stim6_Set3;0;None;71;70;71;0;70;70;70;;;;;;;;;;;;;;;;;;;;;;;369.0165892;370.1626355;370.1626355;370.1626355;370.1626355;370.1626355;370.1626355;370.1626355;370.1626355;373.1838188;373.1838188;373.1838188;373.1838188;373.1838188;373.1838188;['g', 'o', 'm', 'a'];0;[0.9341918998397887, 1.06676539988257, 1.2571000999305397, 1.3589987000450492];goma;C:\2023\REPSWITCH21092023\REPSWITCH_excgange\REPSWITCH_excgange\data/150104_REPSWITCH1_version1_list4_2023-11-28_16h09.12.624_micRespv1l4_recorded\recording_micRespv1l4_2023-11-28_16h15.17.676.wav;373.1838188;373.6838829;None;;;;;;150104;1;2023-11-28_16h09.12.624;REPSWITCH1_version1_list4;2022.2.4;143.8768186;
REPSWITCH1/PICTURE_464.png;goma;type;darkblue;repeat;1;T;3;4;4;1;Stim6_Set3;0;None;72;71;72;0;71;71;71;;;;;;;;;;;;;;;;;;;;;;;373.6838829;374.774382;374.774382;374.774382;374.774382;374.774382;374.774382;374.774382;374.774382;377.8025103;377.8025103;377.8025103;377.8025103;377.8025103;377.8025103;['g', 'o', 'm', 'a'];0;[0.9950721997302026, 1.121372199850157, 1.3136697998270392, 1.3993879999034107];goma;C:\2023\REPSWITCH21092023\REPSWITCH_excgange\REPSWITCH_excgange\data/150104_REPSWITCH1_version1_list4_2023-11-28_16h09.12.624_micRespv1l4_recorded\recording_micRespv1l4_2023-11-28_16h15.22.289.wav;377.8025103;;None;;;;;;150104;1;2023-11-28_16h09.12.624;REPSWITCH1_version1_list4;2022.2.4;143.8768186;
REPSWITCH1/PICTURE_175.png;pintor;speak;gold;filler;2;F;3;4;4;1;Stim1_Set2;0;None;73;72;73;0;72;72;72;;;;;;;;;;;;;;;;;;;;;;;378.3025554;379.4971659;379.4971659;379.4971659;379.4971659;379.4971659;379.4971659;379.4971659;379.4971659;382.525341;382.525341;382.525341;382.525341;382.525341;382.525341;None;0;;;C:\2023\REPSWITCH21092023\REPSWITCH_excgange\REPSWITCH_excgange\data/150104_REPSWITCH1_version1_list4_2023-11-28_16h09.12.624_micRespv1l4_recorded\recording_micRespv1l4_2023-11-28_16h15.27.011.wav;382.525341;;None;;;;;;150104;1;2023-11-28_16h09.12.624;REPSWITCH1_version1_list4;2022.2.4;143.8768186;
REPSWITCH1/PICTURE_235.png;aguja;type;darkblue;nontarget;1;NT;3;4;4;1;Stim4_Set3;1;switch;74;73;74;0;73;73;73;;;;;;;;;;;;;;;;;;;;;;;383.0254609;384.1088928;384.1088928;384.1088928;384.1088928;384.1088928;384.1088928;384.1088928;384.1088928;387.1301106;387.1301106;387.1301106;387.1301106;387.1301106;387.1301106;['a', 'g', 'u', 'j', 'a'];0;[0.9897996997460723, 1.1542083998210728, 1.45732509996742, 1.641703899949789, 1.7423716997727752];aguja;C:\2023\REPSWITCH21092023\REPSWITCH_excgange\REPSWITCH_excgange\data/150104_REPSWITCH1_version1_list4_2023-11-28_16h09.12.624_micRespv1l4_recorded\recording_micRespv1l4_2023-11-28_16h15.31.622.wav;387.1301106;387.6301879;None;;;;;;150104;1;2023-11-28_16h09.12.624;REPSWITCH1_version1_list4;2022.2.4;143.8768186;
REPSWITCH1/PICTURE_235.png;aguja;type;darkblue;repeat;1;T;3;4;4;1;Stim4_Set3;0;None;75;74;75;0;74;74;74;;;;;;;;;;;;;;;;;;;;;;;387.6301879;388.7831755;388.7831755;388.7831755;388.7831755;388.7831755;388.7831755;388.7831755;388.7831755;391.8043442;391.8043442;391.8043442;391.8043442;391.8043442;391.8043442;['a', 'g', 'u', 'j', 'a'];0;[0.8500278999563307, 0.9846027998719364, 1.1577761999797076, 1.3361757998354733, 1.4348738000262529];aguja;C:\2023\REPSWITCH21092023\REPSWITCH_excgange\REPSWITCH_excgange\data/150104_REPSWITCH1_version1_list4_2023-11-28_16h09.12.624_micRespv1l4_recorded\recording_micRespv1l4_2023-11-28_16h15.36.296.wav;391.8043442;392.3044057;None;;;;;;150104;1;2023-11-28_16h09.12.624;REPSWITCH1_version1_list4;2022.2.4;143.8768186;
REPSWITCH1/PICTURE_576.png;guante;type;darkblue;filler;1;F;4;4;4;1;Stim1_Set3;1;repeat;76;75;76;0;75;75;75;;;;;;;;;;;;;;;;;;;;;;;392.3044057;393.4088145;393.4088145;393.4088145;393.4088145;393.4088145;393.4088145;393.4088145;393.4088145;396.4369131;396.4369131;396.4369131;396.4369131;396.4369131;396.4369131;['g', 'u', 'a', 'n', 't', 'e'];0;[0.8239861999172717, 0.9077133999671787, 1.0302817998453975, 1.1309528998099267, 1.247472699964419, 1.3506445998791605];guante;C:\2023\REPSWITCH21092023\REPSWITCH_excgange\REPSWITCH_excgange\data/150104_REPSWITCH1_version1_list4_2023-11-28_16h09.12.624_micRespv1l4_recorded\recording_micRespv1l4_2023-11-28_16h15.40.922.wav;396.4369131;;None;;;;;;150104;1;2023-11-28_16h09.12.624;REPSWITCH1_version1_list4;2022.2.4;143.8768186;
REPSWITCH1/PICTURE_340.png;espejo;speak;gold;filler;2;F;4;4;4;1;Extra1;0;None;77;76;77;0;76;76;76;;;;;;;;;;;;;;;;;;;;;;;396.9369328;398.0968089;398.0968089;398.0968089;398.0968089;398.0968089;398.0968089;398.0968089;398.0968089;401.1181127;401.1181127;401.1181127;401.1181127;401.1181127;401.1181127;None;0;;;C:\2023\REPSWITCH21092023\REPSWITCH_excgange\REPSWITCH_excgange\data/150104_REPSWITCH1_version1_list4_2023-11-28_16h09.12.624_micRespv1l4_recorded\recording_micRespv1l4_2023-11-28_16h15.45.611.wav;401.1181127;401.6181062;None;;;;;;150104;1;2023-11-28_16h09.12.624;REPSWITCH1_version1_list4;2022.2.4;143.8768186;
REPSWITCH1/PICTURE_464.png;goma;speak;gold;filler;2;F;4;4;4;1;Stim6_Set3;1;repeat;78;77;78;0;77;77;77;;;;;;;;;;;;;;;;;;;;;;;401.6181062;402.6460257;402.6460257;402.6460257;402.6460257;402.6460257;402.6460257;402.6460257;402.6460257;405.6672676;405.6672676;405.6672676;405.6672676;405.6672676;405.6672676;None;0;;;C:\2023\REPSWITCH21092023\REPSWITCH_excgange\REPSWITCH_excgange\data/150104_REPSWITCH1_version1_list4_2023-11-28_16h09.12.624_micRespv1l4_recorded\recording_micRespv1l4_2023-11-28_16h15.50.160.wav;405.6672676;406.1673396;None;;;;;;150104;1;2023-11-28_16h09.12.624;REPSWITCH1_version1_list4;2022.2.4;143.8768186;
REPSWITCH1/PICTURE_338.png;regalo;type;darkblue;nontarget;1;NT;4;4;4;1;Stim6_Set4;0;None;79;78;79;0;78;78;78;;;;;;;;;;;;;;;;;;;;;;;406.1673396;407.2091193;407.2091193;407.2091193;407.2091193;407.2091193;407.2091193;407.2091193;407.2091193;410.2303616;410.2303616;410.2303616;410.2303616;410.2303616;410.2303616;['r', 'e', 'g', 'a', 'o', 'backspace', 'l', 'o', 'o'];0;[1.0472389997448772, 1.1309721998404711, 1.301385099766776, 1.3835948999039829, 1.7606916998047382, 2.548898699693382, 2.7254182999022305, 2.8509233999066055, 2.859940999886021];regaloo;C:\2023\REPSWITCH21092023\REPSWITCH_excgange\REPSWITCH_excgange\data/150104_REPSWITCH1_version1_list4_2023-11-28_16h09.12.624_micRespv1l4_recorded\recording_micRespv1l4_2023-11-28_16h15.54.723.wav;410.2303616;410.7304389;None;;;;;;150104;1;2023-11-28_16h09.12.624;REPSWITCH1_version1_list4;2022.2.4;143.8768186;
REPSWITCH1/PICTURE_338.png;regalo;type;darkblue;repeat;1;T;4;4;4;1;Stim6_Set4;0;None;80;79;80;0;79;79;79;;;;;;;;;;;;;;;;;;;;;;;410.7304389;411.7930956;411.7930956;411.7930956;411.7930956;411.7930956;411.7930956;411.7930956;411.7930956;414.8142669;414.8142669;414.8142669;414.8142669;414.8142669;414.8142669;['r', 'e', 'g', 'a', 'l', 'o'];0;[0.8685058997943997, 0.9821535998489708, 1.1884569998364896, 1.2622134999837726, 1.502412399975583, 1.68575289985165];regalo;C:\2023\REPSWITCH21092023\REPSWITCH_excgange\REPSWITCH_excgange\data/150104_REPSWITCH1_version1_list4_2023-11-28_16h09.12.624_micRespv1l4_recorded\recording_micRespv1l4_2023-11-28_16h15.59.307.wav;414.8142669;415.3143572;None;;;;;;150104;1;2023-11-28_16h09.12.624;REPSWITCH1_version1_list4;2022.2.4;143.8768186;
REPSWITCH1/PICTURE_8.png;pierna;type;darkblue;nontarget;1;NT;4;4;4;1;Stim3_Set4;1;repeat;81;80;81;0;80;80;80;;;;;;;;;;;;;;;;;;;;;;;415.3143572;416.383972;416.383972;416.383972;416.383972;416.383972;416.383972;416.383972;416.383972;419.4121073;419.4121073;419.4121073;419.4121073;419.4121073;419.4121073;['p', 'i', 'e', 'r', 'n', 'a'];0;[1.267237199936062, 1.4775848998688161, 1.5724634998477995, 1.621468500001356, 1.7982458998449147, 1.8719462999142706];pierna;C:\2023\REPSWITCH21092023\REPSWITCH_excgange\REPSWITCH_excgange\data/150104_REPSWITCH1_version1_list4_2023-11-28_16h09.12.624_micRespv1l4_recorded\recording_micRespv1l4_2023-11-28_16h16.03.898.wav;419.4121073;;None;;;;;;150104;1;2023-11-28_16h09.12.624;REPSWITCH1_version1_list4;2022.2.4;143.8768186;
REPSWITCH1/PICTURE_8.png;pierna;speak;gold;switch;2;T;4;4;4;1;Stim3_Set4;0;None;82;81;82;0;81;81;81;;;;;;;;;;;;;;;;;;;;;;;419.9121991;420.9887419;420.9887419;420.9887419;420.9887419;420.9887419;420.9887419;420.9887419;420.9887419;424.0099328;424.0099328;424.0099328;424.0099328;424.0099328;424.0099328;None;0;;;C:\2023\REPSWITCH21092023\REPSWITCH_excgange\REPSWITCH_excgange\data/150104_REPSWITCH1_version1_list4_2023-11-28_16h09.12.624_micRespv1l4_recorded\recording_micRespv1l4_2023-11-28_16h16.08.502.wav;424.0099328;424.5099825;None;;;;;;150104;1;2023-11-28_16h09.12.624;REPSWITCH1_version1_list4;2022.2.4;143.8768186;
REPSWITCH1/PICTURE_271.png;conejo;type;darkblue;filler;1;F;4;4;4;1;Stim7_Set3;0;None;83;82;83;0;82;82;82;;;;;;;;;;;;;;;;;;;;;;;424.5099825;425.6907277;425.6907277;425.6907277;425.6907277;425.6907277;425.6907277;425.6907277;425.6907277;428.7119407;428.7119407;428.7119407;428.7119407;428.7119407;428.7119407;['c', 'o', 'n', 'e', 'j', 'o'];0;[1.1548426998779178, 1.2877649997826666, 1.5484518997836858, 2.1821441997308284, 2.2857909998856485, 2.4641678996849805];conejo;C:\2023\REPSWITCH21092023\REPSWITCH_excgange\REPSWITCH_excgange\data/150104_REPSWITCH1_version1_list4_2023-11-28_16h09.12.624_micRespv1l4_recorded\recording_micRespv1l4_2023-11-28_16h16.13.205.wav;428.7119407;429.2119892;None;;;;;;150104;1;2023-11-28_16h09.12.624;REPSWITCH1_version1_list4;2022.2.4;143.8768186;
REPSWITCH1/PICTURE_687.png;camisa;speak;gold;nontarget;2;NT;4;4;4;1;Stim5_Set4;1;switch;84;83;84;0;83;83;83;;;;;;;;;;;;;;;;;;;;;;;429.2119892;430.3441002;430.3441002;430.3441002;430.3441002;430.3441002;430.3441002;430.3441002;430.3441002;433.3653154;433.3653154;433.3653154;433.3653154;433.3653154;433.3653154;None;0;;;C:\2023\REPSWITCH21092023\REPSWITCH_excgange\REPSWITCH_excgange\data/150104_REPSWITCH1_version1_list4_2023-11-28_16h09.12.624_micRespv1l4_recorded\recording_micRespv1l4_2023-11-28_16h16.17.859.wav;433.3653154;433.8654862;None;;;;;;150104;1;2023-11-28_16h09.12.624;REPSWITCH1_version1_list4;2022.2.4;143.8768186;
REPSWITCH1/PICTURE_687.png;camisa;speak;gold;repeat;2;T;4;4;4;1;Stim5_Set4;0;None;85;84;85;0;84;84;84;;;;;;;;;;;;;;;;;;;;;;;433.8654862;434.9489205;434.9489205;434.9489205;434.9489205;434.9489205;434.9489205;434.9489205;434.9489205;437.9700951;437.9700951;437.9700951;437.9700951;437.9700951;437.9700951;None;0;;;C:\2023\REPSWITCH21092023\REPSWITCH_excgange\REPSWITCH_excgange\data/150104_REPSWITCH1_version1_list4_2023-11-28_16h09.12.624_micRespv1l4_recorded\recording_micRespv1l4_2023-11-28_16h16.22.463.wav;437.9700951;438.4702632;None;;;;;;150104;1;2023-11-28_16h09.12.624;REPSWITCH1_version1_list4;2022.2.4;143.8768186;
REPSWITCH1/PICTURE_319.png;vaca;speak;gold;nontarget;2;NT;4;4;4;1;Stim1_Set4;0;None;86;85;86;0;85;85;85;;;;;;;;;;;;;;;;;;;;;;;438.4702632;439.5675601;439.5675601;439.5675601;439.5675601;439.5675601;439.5675601;439.5675601;439.5675601;442.5888565;442.5888565;442.5888565;442.5888565;442.5888565;442.5888565;None;0;;;C:\2023\REPSWITCH21092023\REPSWITCH_excgange\REPSWITCH_excgange\data/150104_REPSWITCH1_version1_list4_2023-11-28_16h09.12.624_micRespv1l4_recorded\recording_micRespv1l4_2023-11-28_16h16.27.082.wav;442.5888565;443.0888708;None;;;;;;150104;1;2023-11-28_16h09.12.624;REPSWITCH1_version1_list4;2022.2.4;143.8768186;
REPSWITCH1/PICTURE_319.png;vaca;type;darkblue;switch;1;T;4;4;4;1;Stim1_Set4;0;None;87;86;87;0;86;86;86;;;;;;;;;;;;;;;;;;;;;;;443.0888708;444.1792819;444.1792819;444.1792819;444.1792819;444.1792819;444.1792819;444.1792819;444.1792819;447.2004918;447.2004918;447.2004918;447.2004918;447.2004918;447.2004918;['v', 'a', 'c', 'a'];0;[1.3485852999147028, 1.4521745997481048, 1.5518329998012632, 1.6745690999086946];vaca;C:\2023\REPSWITCH21092023\REPSWITCH_excgange\REPSWITCH_excgange\data/150104_REPSWITCH1_version1_list4_2023-11-28_16h09.12.624_micRespv1l4_recorded\recording_micRespv1l4_2023-11-28_16h16.31.692.wav;447.2004918;447.7005687;None;;;;;;150104;1;2023-11-28_16h09.12.624;REPSWITCH1_version1_list4;2022.2.4;143.8768186;
REPSWITCH1/PICTURE_242.png;cartero;speak;gold;filler;2;F;4;4;4;1;Stim3_Set3;0;None;88;87;88;0;87;87;87;;;;;;;;;;;;;;;;;;;;;;;447.7005687;448.7771049;448.7771049;448.7771049;448.7771049;448.7771049;448.7771049;448.7771049;448.7771049;451.7983281;451.7983281;451.7983281;451.7983281;451.7983281;451.7983281;None;0;;;C:\2023\REPSWITCH21092023\REPSWITCH_excgange\REPSWITCH_excgange\data/150104_REPSWITCH1_version1_list4_2023-11-28_16h09.12.624_micRespv1l4_recorded\recording_micRespv1l4_2023-11-28_16h16.36.291.wav;451.7983281;452.2983891;None;;;;;;150104;1;2023-11-28_16h09.12.624;REPSWITCH1_version1_list4;2022.2.4;143.8768186;
REPSWITCH1/PICTURE_498.png;taza;type;darkblue;nontarget;1;NT;4;4;4;1;Stim4_Set4;1;switch;89;88;89;0;88;88;88;;;;;;;;;;;;;;;;;;;;;;;452.2983891;453.3818515;453.3818515;453.3818515;453.3818515;453.3818515;453.3818515;453.3818515;453.3818515;456.4100117;456.4100117;456.4100117;456.4100117;456.4100117;456.4100117;['t', 'a', 'z', 'a'];0;[0.9534135998692364, 1.0600143999326974, 1.2205214998684824, 1.4189469998236746];taza;C:\2023\REPSWITCH21092023\REPSWITCH_excgange\REPSWITCH_excgange\data/150104_REPSWITCH1_version1_list4_2023-11-28_16h09.12.624_micRespv1l4_recorded\recording_micRespv1l4_2023-11-28_16h16.40.896.wav;456.4100117;;None;;;;;;150104;1;2023-11-28_16h09.12.624;REPSWITCH1_version1_list4;2022.2.4;143.8768186;
REPSWITCH1/PICTURE_498.png;taza;speak;gold;switch;2;T;4;4;4;1;Stim4_Set4;0;None;90;89;90;0;89;89;89;;;;;;;;;;;;;;;;;;;;;;;456.9100699;458.0005155;458.0005155;458.0005155;458.0005155;458.0005155;458.0005155;458.0005155;458.0005155;461.028683;461.028683;461.028683;461.028683;461.028683;461.028683;None;0;;;C:\2023\REPSWITCH21092023\REPSWITCH_excgange\REPSWITCH_excgange\data/150104_REPSWITCH1_version1_list4_2023-11-28_16h09.12.624_micRespv1l4_recorded\recording_micRespv1l4_2023-11-28_16h16.45.515.wav;461.028683;;None;;;;;;150104;1;2023-11-28_16h09.12.624;REPSWITCH1_version1_list4;2022.2.4;143.8768186;
REPSWITCH1/PICTURE_391.png;cadena;type;darkblue;filler;1;F;4;4;4;1;Extra2;0;None;91;90;91;0;90;90;90;;;;;;;;;;;;;;;;;;;;;;;461.5287661;462.6886433;462.6886433;462.6886433;462.6886433;462.6886433;462.6886433;462.6886433;462.6886433;465.7168746;465.7168746;465.7168746;465.7168746;465.7168746;465.7168746;['c', 'a', 'd', 'e', 'e', 'n', 'a'];0;[1.0039743997622281, 1.1767513998784125, 1.3307475997135043, 1.5013611998874694, 1.5142947998829186, 1.6255614997353405, 1.7322098996955901];cadeena;C:\2023\REPSWITCH21092023\REPSWITCH_excgange\REPSWITCH_excgange\data/150104_REPSWITCH1_version1_list4_2023-11-28_16h09.12.624_micRespv1l4_recorded\recording_micRespv1l4_2023-11-28_16h16.50.203.wav;465.7168746;;None;;;;;;150104;1;2023-11-28_16h09.12.624;REPSWITCH1_version1_list4;2022.2.4;143.8768186;
REPSWITCH1/PICTURE_610.png;miel;speak;gold;filler;2;F;4;4;4;1;Stim2_Set3;0;None;92;91;92;0;91;91;91;;;;;;;;;;;;;;;;;;;;;;;466.2168466;467.2378437;467.2378437;467.2378437;467.2378437;467.2378437;467.2378437;467.2378437;467.2378437;470.2660587;470.2660587;470.2660587;470.2660587;470.2660587;470.2660587;None;0;;;C:\2023\REPSWITCH21092023\REPSWITCH_excgange\REPSWITCH_excgange\data/150104_REPSWITCH1_version1_list4_2023-11-28_16h09.12.624_micRespv1l4_recorded\recording_micRespv1l4_2023-11-28_16h16.54.752.wav;470.2660587;;None;;;;;;150104;1;2023-11-28_16h09.12.624;REPSWITCH1_version1_list4;2022.2.4;143.8768186;
REPSWITCH1/PICTURE_48.png;bombero;speak;gold;nontarget;2;NT;4;4;4;1;Stim7_Set4;1;repeat;93;92;93;0;92;92;92;;;;;;;;;;;;;;;;;;;;;;;470.7661443;471.849576;471.849576;471.849576;471.849576;471.849576;471.849576;471.849576;471.849576;474.870808;474.870808;474.870808;474.870808;474.870808;474.870808;None;0;;;C:\2023\REPSWITCH21092023\REPSWITCH_excgange\REPSWITCH_excgange\data/150104_REPSWITCH1_version1_list4_2023-11-28_16h09.12.624_micRespv1l4_recorded\recording_micRespv1l4_2023-11-28_16h16.59.363.wav;474.870808;475.3709123;None;;;;;;150104;1;2023-11-28_16h09.12.624;REPSWITCH1_version1_list4;2022.2.4;143.8768186;
REPSWITCH1/PICTURE_48.png;bombero;speak;gold;repeat;2;T;4;4;4;1;Stim7_Set4;0;None;94;93;94;0;93;93;93;;;;;;;;;;;;;;;;;;;;;;;475.3709123;476.5376636;476.5376636;476.5376636;476.5376636;476.5376636;476.5376636;476.5376636;476.5376636;479.5588739;479.5588739;479.5588739;479.5588739;479.5588739;479.5588739;None;0;;;C:\2023\REPSWITCH21092023\REPSWITCH_excgange\REPSWITCH_excgange\data/150104_REPSWITCH1_version1_list4_2023-11-28_16h09.12.624_micRespv1l4_recorded\recording_micRespv1l4_2023-11-28_16h17.04.051.wav;479.5588739;480.0589423;None;;;;;;150104;1;2023-11-28_16h09.12.624;REPSWITCH1_version1_list4;2022.2.4;143.8768186;
REPSWITCH1/PICTURE_320.png;iglesia;type;darkblue;filler;1;F;4;4;4;1;Stim8_Set3;1;switch;95;94;95;0;94;94;94;;;;;;;;;;;;;;;;;;;;;;;480.0589423;481.2813743;481.2813743;481.2813743;481.2813743;481.2813743;481.2813743;481.2813743;481.2813743;484.3025544;484.3025544;484.3025544;484.3025544;484.3025544;484.3025544;['i', 'g', 'l', 'e', 's', 'i', 'a'];0;[1.2355299997143447, 1.4381189998239279, 1.668968299869448, 1.8134394998196512, 2.0537119996733963, 2.213067799806595, 2.3253774996846914];iglesia;C:\2023\REPSWITCH21092023\REPSWITCH_excgange\REPSWITCH_excgange\data/150104_REPSWITCH1_version1_list4_2023-11-28_16h09.12.624_micRespv1l4_recorded\recording_micRespv1l4_2023-11-28_16h17.08.795.wav;484.3025544;484.8026613;None;;;;;;150104;1;2023-11-28_16h09.12.624;REPSWITCH1_version1_list4;2022.2.4;143.8768186;
REPSWITCH1/PICTURE_35.png;oreja;speak;gold;filler;2;F;4;4;4;1;Stim5_Set3;0;None;96;95;96;0;95;95;95;;;;;;;;;;;;;;;;;;;;;;;484.8026613;485.8722254;485.8722254;485.8722254;485.8722254;485.8722254;485.8722254;485.8722254;485.8722254;488.9003827;488.9003827;488.9003827;488.9003827;488.9003827;488.9003827;None;0;;;C:\2023\REPSWITCH21092023\REPSWITCH_excgange\REPSWITCH_excgange\data/150104_REPSWITCH1_version1_list4_2023-11-28_16h09.12.624_micRespv1l4_recorded\recording_micRespv1l4_2023-11-28_16h17.13.386.wav;488.9003827;;None;;;;;;150104;1;2023-11-28_16h09.12.624;REPSWITCH1_version1_list4;2022.2.4;143.8768186;
REPSWITCH1/PICTURE_728.png;pulpo;speak;gold;nontarget;2;NT;4;4;4;1;Stim8_Set4;1;repeat;97;96;97;0;96;96;96;;;;;;;;;;;;;;;;;;;;;;;489.4004822;490.4978705;490.4978705;490.4978705;490.4978705;490.4978705;490.4978705;490.4978705;490.4978705;493.5190429;493.5190429;493.5190429;493.5190429;493.5190429;493.5190429;None;0;;;C:\2023\REPSWITCH21092023\REPSWITCH_excgange\REPSWITCH_excgange\data/150104_REPSWITCH1_version1_list4_2023-11-28_16h09.12.624_micRespv1l4_recorded\recording_micRespv1l4_2023-11-28_16h17.18.011.wav;493.5190429;494.0191404;None;;;;;;150104;1;2023-11-28_16h09.12.624;REPSWITCH1_version1_list4;2022.2.4;143.8768186;
REPSWITCH1/PICTURE_728.png;pulpo;type;darkblue;switch;1;T;4;4;4;1;Stim8_Set4;0;None;98;97;98;0;97;97;97;;;;;;;;;;;;;;;;;;;;;;;494.0191404;495.0401366;495.0401366;495.0401366;495.0401366;495.0401366;495.0401366;495.0401366;495.0401366;498.0613409;498.0613409;498.0613409;498.0613409;498.0613409;498.0613409;['p', 'u', 'l', 'p', 'o'];0;[1.0537231999915093, 1.4088552999310195, 1.7048897000495344, 1.9064551999326795, 2.081150900106877];pulpo;C:\2023\REPSWITCH21092023\REPSWITCH_excgange\REPSWITCH_excgange\data/150104_REPSWITCH1_version1_list4_2023-11-28_16h09.12.624_micRespv1l4_recorded\recording_micRespv1l4_2023-11-28_16h17.22.553.wav;498.0613409;498.5614332;None;;;;;;150104;1;2023-11-28_16h09.12.624;REPSWITCH1_version1_list4;2022.2.4;143.8768186;
REPSWITCH1/PICTURE_590.png;escoba;speak;gold;filler;2;F;4;4;4;1;Extra3;0;None;99;98;99;0;98;98;98;;;;;;;;;;;;;;;;;;;;;;;498.5614332;499.6310182;499.6310182;499.6310182;499.6310182;499.6310182;499.6310182;499.6310182;499.6310182;502.6522274;502.6522274;502.6522274;502.6522274;502.6522274;502.6522274;None;0;;;C:\2023\REPSWITCH21092023\REPSWITCH_excgange\REPSWITCH_excgange\data/150104_REPSWITCH1_version1_list4_2023-11-28_16h09.12.624_micRespv1l4_recorded\recording_micRespv1l4_2023-11-28_16h17.27.145.wav;502.6522274;503.1522838;None;;;;;;150104;1;2023-11-28_16h09.12.624;REPSWITCH1_version1_list4;2022.2.4;143.8768186;
REPSWITCH1/PICTURE_235.png;aguja;type;darkblue;filler;1;F;4;4;4;1;Stim4_Set3;0;None;100;99;100;0;99;99;99;;;;;;;;;;;;;;;;;;;;;;;503.1522838;504.1732392;504.1732392;504.1732392;504.1732392;504.1732392;504.1732392;504.1732392;504.1732392;507.1944877;507.1944877;507.1944877;507.1944877;507.1944877;507.1944877;['a', 'g', 'u', 'j', 'a'];0;[1.062463799957186, 1.2013912999536842, 1.4037524999585003, 1.5572383999824524, 1.6538799998816103];aguja;C:\2023\REPSWITCH21092023\REPSWITCH_excgange\REPSWITCH_excgange\data/150104_REPSWITCH1_version1_list4_2023-11-28_16h09.12.624_micRespv1l4_recorded\recording_micRespv1l4_2023-11-28_16h17.31.687.wav;507.1944877;507.6945334;None;;;;;;150104;1;2023-11-28_16h09.12.624;REPSWITCH1_version1_list4;2022.2.4;143.8768186;
REPSWITCH1/PICTURE_719.png;baño;type;darkblue;nontarget;1;NT;4;4;4;1;Stim2_Set4;1;repeat;101;100;101;0;100;100;100;;;;;;;;;;;;;;;;;;;;;;;507.6945334;508.7571561;508.7571561;508.7571561;508.7571561;508.7571561;508.7571561;508.7571561;508.7571561;511.7853841;511.7853841;511.7853841;511.7853841;511.7853841;511.7853841;['b', 'a', 'ñ', 'o'];0;[0.9395065999124199, 1.0593724998179823, 1.257669399958104, 1.4431496998295188];baño;C:\2023\REPSWITCH21092023\REPSWITCH_excgange\REPSWITCH_excgange\data/150104_REPSWITCH1_version1_list4_2023-11-28_16h09.12.624_micRespv1l4_recorded\recording_micRespv1l4_2023-11-28_16h17.36.272.wav;511.7853841;;None;;;;;;150104;1;2023-11-28_16h09.12.624;REPSWITCH1_version1_list4;2022.2.4;143.8768186;
REPSWITCH1/PICTURE_719.png;baño;type;darkblue;repeat;1;T;4;4;4;1;Stim2_Set4;0;None;102;101;102;0;101;101;101;;;;;;;;;;;;;;;;;;;;;;;512.2854323;513.3272175;513.3272175;513.3272175;513.3272175;513.3272175;513.3272175;513.3272175;513.3272175;516.3554104;516.3554104;516.3554104;516.3554104;516.3554104;516.3554104;['b', 'a', 'ñ', 'o'];0;[0.9595015998929739, 1.0721241999417543, 1.2734401999041438, 1.5117589000146836];baño;C:\2023\REPSWITCH21092023\REPSWITCH_excgange\REPSWITCH_excgange\data/150104_REPSWITCH1_version1_list4_2023-11-28_16h09.12.624_micRespv1l4_recorded\recording_micRespv1l4_2023-11-28_16h17.40.842.wav;516.3554104;;space;516.855439;516.855439;15.9750645;;;150104;1;2023-11-28_16h09.12.624;REPSWITCH1_version1_list4;2022.2.4;143.8768186;
REPSWITCH1/PICTURE_646.png;tronco;speak;gold;filler;2;F;1;3;4;1;Extra4;0;None;103;102;1;0;102;102;102;;;;;;;;;;;;;;;;;;;;;;;532.8436679;533.9689029;533.9689029;533.9689029;533.9689029;533.9689029;533.9689029;533.9689029;533.9689029;536.9969855;536.9969855;536.9969855;536.9969855;536.9969855;536.9969855;None;0;;;C:\2023\REPSWITCH21092023\REPSWITCH_excgange\REPSWITCH_excgange\data/150104_REPSWITCH1_version1_list4_2023-11-28_16h09.12.624_micRespv1l4_recorded\recording_micRespv1l4_2023-11-28_16h18.01.483.wav;536.9969855;;None;;;;;;150104;1;2023-11-28_16h09.12.624;REPSWITCH1_version1_list4;2022.2.4;143.8768186;
REPSWITCH1/PICTURE_340.png;espejo;type;darkblue;filler;1;F;1;3;4;1;Extra1;0;None;104;103;2;0;103;103;103;;;;;;;;;;;;;;;;;;;;;;;537.4970359;538.6500059;538.6500059;538.6500059;538.6500059;538.6500059;538.6500059;538.6500059;538.6500059;541.6712353;541.6712353;541.6712353;541.6712353;541.6712353;541.6712353;['e', 's', 'p', 'e', 'j', 'o'];0;[0.8309063999913633, 1.043028499931097, 1.4065060999710113, 1.6871549999341369, 1.9333076998591423, 2.107706099981442];espejo;C:\2023\REPSWITCH21092023\REPSWITCH_excgange\REPSWITCH_excgange\data/150104_REPSWITCH1_version1_list4_2023-11-28_16h09.12.624_micRespv1l4_recorded\recording_micRespv1l4_2023-11-28_16h18.06.163.wav;541.6712353;542.171299;None;;;;;;150104;1;2023-11-28_16h09.12.624;REPSWITCH1_version1_list4;2022.2.4;143.8768186;
REPSWITCH1/PICTURE_338.png;regalo;speak;gold;filler;2;F;1;3;4;1;Stim6_Set4;0;None;105;104;3;0;104;104;104;;;;;;;;;;;;;;;;;;;;;;;542.171299;543.4075904;543.4075904;543.4075904;543.4075904;543.4075904;543.4075904;543.4075904;543.4075904;546.4358089;546.4358089;546.4358089;546.4358089;546.4358089;546.4358089;None;0;;;C:\2023\REPSWITCH21092023\REPSWITCH_excgange\REPSWITCH_excgange\data/150104_REPSWITCH1_version1_list4_2023-11-28_16h09.12.624_micRespv1l4_recorded\recording_micRespv1l4_2023-11-28_16h18.10.921.wav;546.4358089;;None;;;;;;150104;1;2023-11-28_16h09.12.624;REPSWITCH1_version1_list4;2022.2.4;143.8768186;
REPSWITCH1/PICTURE_142.png;vaso;speak;gold;nontarget;2;NT;1;3;4;1;Stim7_Set1;1;repeat;106;105;4;0;105;105;105;;;;;;;;;;;;;;;;;;;;;;;546.935812;548.0123534;548.0123534;548.0123534;548.0123534;548.0123534;548.0123534;548.0123534;548.0123534;551.0335769;551.0335769;551.0335769;551.0335769;551.0335769;551.0335769;None;0;;;C:\2023\REPSWITCH21092023\REPSWITCH_excgange\REPSWITCH_excgange\data/150104_REPSWITCH1_version1_list4_2023-11-28_16h09.12.624_micRespv1l4_recorded\recording_micRespv1l4_2023-11-28_16h18.15.526.wav;551.0335769;551.5336247;None;;;;;;150104;1;2023-11-28_16h09.12.624;REPSWITCH1_version1_list4;2022.2.4;143.8768186;
REPSWITCH1/PICTURE_142.png;vaso;speak;gold;repeat;2;T;1;3;4;1;Stim7_Set1;0;None;107;106;5;0;106;106;106;;;;;;;;;;;;;;;;;;;;;;;551.5336247;552.6865752;552.6865752;552.6865752;552.6865752;552.6865752;552.6865752;552.6865752;552.6865752;555.7077677;555.7077677;555.7077677;555.7077677;555.7077677;555.7077677;None;0;;;C:\2023\REPSWITCH21092023\REPSWITCH_excgange\REPSWITCH_excgange\data/150104_REPSWITCH1_version1_list4_2023-11-28_16h09.12.624_micRespv1l4_recorded\recording_micRespv1l4_2023-11-28_16h18.20.201.wav;555.7077677;556.2078385;None;;;;;;150104;1;2023-11-28_16h09.12.624;REPSWITCH1_version1_list4;2022.2.4;143.8768186;
REPSWITCH1/PICTURE_498.png;taza;type;darkblue;filler;1;F;1;3;4;1;Stim4_Set4;0;None;108;107;6;0;107;107;107;;;;;;;;;;;;;;;;;;;;;;;556.2078385;557.3329925;557.3329925;557.3329925;557.3329925;557.3329925;557.3329925;557.3329925;557.3329925;560.3542051;560.3542051;560.3542051;560.3542051;560.3542051;560.3542051;['t', 'a', 'z', 'a'];0;[1.0093151000328362, 1.1669155000708997, 1.3094611999113113, 1.4878289999905974];taza;C:\2023\REPSWITCH21092023\REPSWITCH_excgange\REPSWITCH_excgange\data/150104_REPSWITCH1_version1_list4_2023-11-28_16h09.12.624_micRespv1l4_recorded\recording_micRespv1l4_2023-11-28_16h18.24.847.wav;560.3542051;560.8543773;None;;;;;;150104;1;2023-11-28_16h09.12.624;REPSWITCH1_version1_list4;2022.2.4;143.8768186;
REPSWITCH1/PICTURE_16.png;cazador;speak;gold;nontarget;2;NT;1;3;4;1;Stim6_Set1;1;switch;109;108;7;0;108;108;108;;;;;;;;;;;;;;;;;;;;;;;560.8543773;561.9308518;561.9308518;561.9308518;561.9308518;561.9308518;561.9308518;561.9308518;561.9308518;564.9520288;564.9520288;564.9520288;564.9520288;564.9520288;564.9520288;None;0;;;C:\2023\REPSWITCH21092023\REPSWITCH_excgange\REPSWITCH_excgange\data/150104_REPSWITCH1_version1_list4_2023-11-28_16h09.12.624_micRespv1l4_recorded\recording_micRespv1l4_2023-11-28_16h18.29.445.wav;564.9520288;565.4521277;None;;;;;;150104;1;2023-11-28_16h09.12.624;REPSWITCH1_version1_list4;2022.2.4;143.8768186;
REPSWITCH1/PICTURE_16.png;cazador;speak;gold;repeat;2;T;1;3;4;1;Stim6_Set1;0;None;110;109;8;0;109;109;109;;;;;;;;;;;;;;;;;;;;;;;565.4521277;566.5981106;566.5981106;566.5981106;566.5981106;566.5981106;566.5981106;566.5981106;566.5981106;569.6193478;569.6193478;569.6193478;569.6193478;569.6193478;569.6193478;None;0;;;C:\2023\REPSWITCH21092023\REPSWITCH_excgange\REPSWITCH_excgange\data/150104_REPSWITCH1_version1_list4_2023-11-28_16h09.12.624_micRespv1l4_recorded\recording_micRespv1l4_2023-11-28_16h18.34.112.wav;569.6193478;570.1194125;None;;;;;;150104;1;2023-11-28_16h09.12.624;REPSWITCH1_version1_list4;2022.2.4;143.8768186;
REPSWITCH1/PICTURE_719.png;baño;type;darkblue;filler;1;F;1;3;4;1;Stim2_Set4;0;None;111;110;9;0;110;110;110;;;;;;;;;;;;;;;;;;;;;;;570.1194125;571.2931761;571.2931761;571.2931761;571.2931761;571.2931761;571.2931761;571.2931761;571.2931761;574.3144011;574.3144011;574.3144011;574.3144011;574.3144011;574.3144011;['b', 'a', 'ñ', 'o'];0;[1.1437172999139875, 1.2620702998246998, 1.4753237999975681, 1.6696718998719007];baño;C:\2023\REPSWITCH21092023\REPSWITCH_excgange\REPSWITCH_excgange\data/150104_REPSWITCH1_version1_list4_2023-11-28_16h09.12.624_micRespv1l4_recorded\recording_micRespv1l4_2023-11-28_16h18.38.807.wav;574.3144011;574.8144737;None;;;;;;150104;1;2023-11-28_16h09.12.624;REPSWITCH1_version1_list4;2022.2.4;143.8768186;
REPSWITCH1/PICTURE_169.png;espalda;speak;gold;nontarget;2;NT;1;3;4;1;Stim8_Set1;0;None;112;111;10;0;111;111;111;;;;;;;;;;;;;;;;;;;;;;;574.8144737;575.9813333;575.9813333;575.9813333;575.9813333;575.9813333;575.9813333;575.9813333;575.9813333;579.0024879;579.0024879;579.0024879;579.0024879;579.0024879;579.0024879;None;0;;;C:\2023\REPSWITCH21092023\REPSWITCH_excgange\REPSWITCH_excgange\data/150104_REPSWITCH1_version1_list4_2023-11-28_16h09.12.624_micRespv1l4_recorded\recording_micRespv1l4_2023-11-28_16h18.43.494.wav;579.0024879;579.502589;None;;;;;;150104;1;2023-11-28_16h09.12.624;REPSWITCH1_version1_list4;2022.2.4;143.8768186;
REPSWITCH1/PICTURE_169.png;espalda;type;darkblue;switch;1;T;1;3;4;1;Stim8_Set1;0;None;113;112;11;0;112;112;112;;;;;;;;;;;;;;;;;;;;;;;579.502589;580.5791279;580.5791279;580.5791279;580.5791279;580.5791279;580.5791279;580.5791279;580.5791279;583.6003489;583.6003489;583.6003489;583.6003489;583.6003489;583.6003489;['e', 's', 'p', 'a', 'l', 'd', 'a'];0;[1.0787355999927968, 1.2644074000418186, 1.445389499887824, 1.549038500059396, 1.7035719999112189, 1.8432803000323474, 2.286104300059378];espalda;C:\2023\REPSWITCH21092023\REPSWITCH_excgange\REPSWITCH_excgange\data/150104_REPSWITCH1_version1_list4_2023-11-28_16h09.12.624_micRespv1l4_recorded\recording_micRespv1l4_2023-11-28_16h18.48.093.wav;583.6003489;584.1004111;None;;;;;;150104;1;2023-11-28_16h09.12.624;REPSWITCH1_version1_list4;2022.2.4;143.8768186;
REPSWITCH1/PICTURE_687.png;camisa;type;darkblue;filler;1;F;1;3;4;1;Stim5_Set4;0;None;114;113;12;0;113;113;113;;;;;;;;;;;;;;;;;;;;;;;584.1004111;585.2116727;585.2116727;585.2116727;585.2116727;585.2116727;585.2116727;585.2116727;585.2116727;588.232957;588.232957;588.232957;588.232957;588.232957;588.232957;['c', 'a', 'm', 'i', 's', 'a'];0;[1.059294199803844, 1.1463037997018546, 1.289847299689427, 1.4413517997600138, 1.4991161997895688, 1.572903499705717];camisa;C:\2023\REPSWITCH21092023\REPSWITCH_excgange\REPSWITCH_excgange\data/150104_REPSWITCH1_version1_list4_2023-11-28_16h09.12.624_micRespv1l4_recorded\recording_micRespv1l4_2023-11-28_16h18.52.725.wav;588.232957;588.7329574;None;;;;;;150104;1;2023-11-28_16h09.12.624;REPSWITCH1_version1_list4;2022.2.4;143.8768186;
REPSWITCH1/PICTURE_178.png;puente;type;darkblue;nontarget;1;NT;1;3;4;1;Stim1_Set1;1;repeat;115;114;13;0;114;114;114;;;;;;;;;;;;;;;;;;;;;;;588.7329574;589.8164332;589.8164332;589.8164332;589.8164332;589.8164332;589.8164332;589.8164332;589.8164332;592.8376476;592.8376476;592.8376476;592.8376476;592.8376476;592.8376476;['p', 'u', 'e', 'n', 't', 'e'];0;[1.066234199795872, 1.3064186999108642, 1.7514781998470426, 1.9179252998437732, 1.9916821999941021, 2.0641718998085707];puente;C:\2023\REPSWITCH21092023\REPSWITCH_excgange\REPSWITCH_excgange\data/150104_REPSWITCH1_version1_list4_2023-11-28_16h09.12.624_micRespv1l4_recorded\recording_micRespv1l4_2023-11-28_16h18.57.330.wav;592.8376476;593.337769;None;;;;;;150104;1;2023-11-28_16h09.12.624;REPSWITCH1_version1_list4;2022.2.4;143.8768186;
REPSWITCH1/PICTURE_178.png;puente;speak;gold;switch;2;T;1;3;4;1;Stim1_Set1;0;None;116;115;14;0;115;115;115;;;;;;;;;;;;;;;;;;;;;;;593.337769;594.4073777;594.4073777;594.4073777;594.4073777;594.4073777;594.4073777;594.4073777;594.4073777;597.4354552;597.4354552;597.4354552;597.4354552;597.4354552;597.4354552;None;0;;;C:\2023\REPSWITCH21092023\REPSWITCH_excgange\REPSWITCH_excgange\data/150104_REPSWITCH1_version1_list4_2023-11-28_16h09.12.624_micRespv1l4_recorded\recording_micRespv1l4_2023-11-28_16h19.01.922.wav;597.4354552;;None;;;;;;150104;1;2023-11-28_16h09.12.624;REPSWITCH1_version1_list4;2022.2.4;143.8768186;
REPSWITCH1/PICTURE_128.png;muñeca;speak;gold;nontarget;2;NT;1;3;4;1;Stim4_Set1;1;repeat;117;116;15;0;116;116;116;;;;;;;;;;;;;;;;;;;;;;;597.9355655;599.0121228;599.0121228;599.0121228;599.0121228;599.0121228;599.0121228;599.0121228;599.0121228;602.0332899;602.0332899;602.0332899;602.0332899;602.0332899;602.0332899;None;0;;;C:\2023\REPSWITCH21092023\REPSWITCH_excgange\REPSWITCH_excgange\data/150104_REPSWITCH1_version1_list4_2023-11-28_16h09.12.624_micRespv1l4_recorded\recording_micRespv1l4_2023-11-28_16h19.06.526.wav;602.0332899;602.53346;None;;;;;;150104;1;2023-11-28_16h09.12.624;REPSWITCH1_version1_list4;2022.2.4;143.8768186;
REPSWITCH1/PICTURE_128.png;muñeca;type;darkblue;switch;1;T;1;3;4;1;Stim4_Set1;0;None;118;117;16;0;117;117;117;;;;;;;;;;;;;;;;;;;;;;;602.53346;603.5890786;603.5890786;603.5890786;603.5890786;603.5890786;603.5890786;603.5890786;603.5890786;606.6102748;606.6102748;606.6102748;606.6102748;606.6102748;606.6102748;['m', 'u', 'ñ', 'e', 'c', 'a'];0;[0.9641993998084217, 1.127645299769938, 1.485120799858123, 1.5758173998910934, 1.7801284999586642, 1.879754499765113];muñeca;C:\2023\REPSWITCH21092023\REPSWITCH_excgange\REPSWITCH_excgange\data/150104_REPSWITCH1_version1_list4_2023-11-28_16h09.12.624_micRespv1l4_recorded\recording_micRespv1l4_2023-11-28_16h19.11.103.wav;606.6102748;607.110375;None;;;;;;150104;1;2023-11-28_16h09.12.624;REPSWITCH1_version1_list4;2022.2.4;143.8768186;
REPSWITCH1/PICTURE_319.png;vaca;speak;gold;filler;2;F;1;3;4;1;Stim1_Set4;1;switch;119;118;17;0;118;118;118;;;;;;;;;;;;;;;;;;;;;;;607.110375;608.1939178;608.1939178;608.1939178;608.1939178;608.1939178;608.1939178;608.1939178;608.1939178;611.2220094;611.2220094;611.2220094;611.2220094;611.2220094;611.2220094;None;0;;;C:\2023\REPSWITCH21092023\REPSWITCH_excgange\REPSWITCH_excgange\data/150104_REPSWITCH1_version1_list4_2023-11-28_16h09.12.624_micRespv1l4_recorded\recording_micRespv1l4_2023-11-28_16h19.15.708.wav;611.2220094;;None;;;;;;150104;1;2023-11-28_16h09.12.624;REPSWITCH1_version1_list4;2022.2.4;143.8768186;
REPSWITCH1/PICTURE_728.png;pulpo;speak;gold;filler;2;F;1;3;4;1;Stim8_Set4;0;None;120;119;18;0;119;119;119;;;;;;;;;;;;;;;;;;;;;;;611.7220977;612.888936;612.888936;612.888936;612.888936;612.888936;612.888936;612.888936;612.888936;615.9101083;615.9101083;615.9101083;615.9101083;615.9101083;615.9101083;None;0;;;C:\2023\REPSWITCH21092023\REPSWITCH_excgange\REPSWITCH_excgange\data/150104_REPSWITCH1_version1_list4_2023-11-28_16h09.12.624_micRespv1l4_recorded\recording_micRespv1l4_2023-11-28_16h19.20.403.wav;615.9101083;616.4102009;None;;;;;;150104;1;2023-11-28_16h09.12.624;REPSWITCH1_version1_list4;2022.2.4;143.8768186;
REPSWITCH1/PICTURE_381.png;fresa;type;darkblue;nontarget;1;NT;1;3;4;1;Stim2_Set1;1;switch;121;120;19;0;120;120;120;;;;;;;;;;;;;;;;;;;;;;;616.4102009;617.528406;617.528406;617.528406;617.528406;617.528406;617.528406;617.528406;617.528406;620.556568;620.556568;620.556568;620.556568;620.556568;620.556568;['f', 'r', 'e', 's', 'a'];0;[0.9374442999251187, 1.1446849999483675, 1.245822099968791, 1.5521457998547703, 1.6787232998758554];fresa;C:\2023\REPSWITCH21092023\REPSWITCH_excgange\REPSWITCH_excgange\data/150104_REPSWITCH1_version1_list4_2023-11-28_16h09.12.624_micRespv1l4_recorded\recording_micRespv1l4_2023-11-28_16h19.25.042.wav;620.556568;;None;;;;;;150104;1;2023-11-28_16h09.12.624;REPSWITCH1_version1_list4;2022.2.4;143.8768186;
REPSWITCH1/PICTURE_381.png;fresa;type;darkblue;repeat;1;T;1;3;4;1;Stim2_Set1;0;None;122;121;20;0;121;121;121;;;;;;;;;;;;;;;;;;;;;;;621.0566558;622.0846218;622.0846218;622.0846218;622.0846218;622.0846218;622.0846218;622.0846218;622.0846218;625.1127417;625.1127417;625.1127417;625.1127417;625.1127417;625.1127417;['f', 'r', 'e', 's', 'a'];0;[1.0886829998344183, 1.2940068999305367, 1.3807001998648047, 1.6647548999171704, 1.7844292998779565];fresa;C:\2023\REPSWITCH21092023\REPSWITCH_excgange\REPSWITCH_excgange\data/150104_REPSWITCH1_version1_list4_2023-11-28_16h09.12.624_micRespv1l4_recorded\recording_micRespv1l4_2023-11-28_16h19.29.599.wav;625.1127417;625.6128665;None;;;;;;150104;1;2023-11-28_16h09.12.624;REPSWITCH1_version1_list4;2022.2.4;143.8768186;
REPSWITCH1/PICTURE_8.png;pierna;speak;gold;filler;2;F;1;3;4;1;Stim3_Set4;0;None;123;122;21;0;122;122;122;;;;;;;;;;;;;;;;;;;;;;;625.6128665;626.8004849;626.8004849;626.8004849;626.8004849;626.8004849;626.8004849;626.8004849;626.8004849;629.8286376;629.8286376;629.8286376;629.8286376;629.8286376;629.8286376;None;0;;;C:\2023\REPSWITCH21092023\REPSWITCH_excgange\REPSWITCH_excgange\data/150104_REPSWITCH1_version1_list4_2023-11-28_16h09.12.624_micRespv1l4_recorded\recording_micRespv1l4_2023-11-28_16h19.34.315.wav;629.8286376;630.3287677;None;;;;;;150104;1;2023-11-28_16h09.12.624;REPSWITCH1_version1_list4;2022.2.4;143.8768186;
REPSWITCH1/PICTURE_48.png;bombero;speak;gold;filler;2;F;1;3;4;1;Stim7_Set4;0;None;124;123;22;0;123;123;123;;;;;;;;;;;;;;;;;;;;;;;630.3287677;631.4122053;631.4122053;631.4122053;631.4122053;631.4122053;631.4122053;631.4122053;631.4122053;634.4403683;634.4403683;634.4403683;634.4403683;634.4403683;634.4403683;None;0;;;C:\2023\REPSWITCH21092023\REPSWITCH_excgange\REPSWITCH_excgange\data/150104_REPSWITCH1_version1_list4_2023-11-28_16h09.12.624_micRespv1l4_recorded\recording_micRespv1l4_2023-11-28_16h19.38.926.wav;634.4403683;;None;;;;;;150104;1;2023-11-28_16h09.12.624;REPSWITCH1_version1_list4;2022.2.4;143.8768186;
REPSWITCH1/PICTURE_135.png;traje;type;darkblue;nontarget;1;NT;1;3;4;1;Stim3_Set1;1;switch;125;124;23;0;124;124;124;;;;;;;;;;;;;;;;;;;;;;;634.9404141;635.9961388;635.9961388;635.9961388;635.9961388;635.9961388;635.9961388;635.9961388;635.9961388;639.017328;639.017328;639.017328;639.017328;639.017328;639.017328;['t', 'r', 'a', 'j', 'e'];0;[1.0238220999017358, 1.1919162997510284, 1.3427814999595284, 1.5500045998487622, 1.6606588999275118];traje;C:\2023\REPSWITCH21092023\REPSWITCH_excgange\REPSWITCH_excgange\data/150104_REPSWITCH1_version1_list4_2023-11-28_16h09.12.624_micRespv1l4_recorded\recording_micRespv1l4_2023-11-28_16h19.43.509.wav;639.017328;639.5174073;None;;;;;;150104;1;2023-11-28_16h09.12.624;REPSWITCH1_version1_list4;2022.2.4;143.8768186;
REPSWITCH1/PICTURE_135.png;traje;type;darkblue;repeat;1;T;1;3;4;1;Stim3_Set1;0;None;126;125;24;0;125;125;125;;;;;;;;;;;;;;;;;;;;;;;639.5174073;640.6079002;640.6079002;640.6079002;640.6079002;640.6079002;640.6079002;640.6079002;640.6079002;643.635986;643.635986;643.635986;643.635986;643.635986;643.635986;['t', 'r', 'a', 'j', 'e'];0;[0.8959171997848898, 1.1265496998094022, 1.3866035998798907, 1.5151464997325093, 1.6068437998183072];traje;C:\2023\REPSWITCH21092023\REPSWITCH_excgange\REPSWITCH_excgange\data/150104_REPSWITCH1_version1_list4_2023-11-28_16h09.12.624_micRespv1l4_recorded\recording_micRespv1l4_2023-11-28_16h19.48.121.wav;643.635986;;None;;;;;;150104;1;2023-11-28_16h09.12.624;REPSWITCH1_version1_list4;2022.2.4;143.8768186;
REPSWITCH1/PICTURE_19.png;pavo;type;darkblue;nontarget;1;NT;1;3;4;1;Stim5_Set1;1;repeat;127;126;25;0;126;126;126;;;;;;;;;;;;;;;;;;;;;;;644.1360699;645.2056383;645.2056383;645.2056383;645.2056383;645.2056383;645.2056383;645.2056383;645.2056383;648.233805;648.233805;648.233805;648.233805;648.233805;648.233805;['p', 'a', 'v', 'o'];0;[1.0462950998917222, 1.1683026000391692, 1.313768999883905, 1.4264465000014752];pavo;C:\2023\REPSWITCH21092023\REPSWITCH_excgange\REPSWITCH_excgange\data/150104_REPSWITCH1_version1_list4_2023-11-28_16h09.12.624_micRespv1l4_recorded\recording_micRespv1l4_2023-11-28_16h19.52.720.wav;648.233805;648.7338614;None;;;;;;150104;1;2023-11-28_16h09.12.624;REPSWITCH1_version1_list4;2022.2.4;143.8768186;
REPSWITCH1/PICTURE_19.png;pavo;speak;gold;switch;2;T;1;3;4;1;Stim5_Set1;0;None;128;127;26;0;127;127;127;;;;;;;;;;;;;;;;;;;;;;;648.7338614;650.0326551;650.0326551;650.0326551;650.0326551;650.0326551;650.0326551;650.0326551;650.0326551;653.0608291;653.0608291;653.0608291;653.0608291;653.0608291;653.0608291;None;0;;;C:\2023\REPSWITCH21092023\REPSWITCH_excgange\REPSWITCH_excgange\data/150104_REPSWITCH1_version1_list4_2023-11-28_16h09.12.624_micRespv1l4_recorded\recording_micRespv1l4_2023-11-28_16h19.57.548.wav;653.0608291;653.5609634;None;;;;;;150104;1;2023-11-28_16h09.12.624;REPSWITCH1_version1_list4;2022.2.4;143.8768186;
REPSWITCH1/PICTURE_142.png;vaso;speak;gold;filler;2;F;2;3;4;1;Stim7_Set1;0;None;129;128;27;0;128;128;128;;;;;;;;;;;;;;;;;;;;;;;653.5609634;654.6721668;654.6721668;654.6721668;654.6721668;654.6721668;654.6721668;654.6721668;654.6721668;657.6934785;657.6934785;657.6934785;657.6934785;657.6934785;657.6934785;None;0;;;C:\2023\REPSWITCH21092023\REPSWITCH_excgange\REPSWITCH_excgange\data/150104_REPSWITCH1_version1_list4_2023-11-28_16h09.12.624_micRespv1l4_recorded\recording_micRespv1l4_2023-11-28_16h20.02.185.wav;657.6934785;658.193473;None;;;;;;150104;1;2023-11-28_16h09.12.624;REPSWITCH1_version1_list4;2022.2.4;143.8768186;
REPSWITCH1/PICTURE_135.png;traje;type;darkblue;filler;1;F;2;3;4;1;Stim3_Set1;0;None;130;129;28;0;129;129;129;;;;;;;;;;;;;;;;;;;;;;;658.193473;659.3325745;659.3325745;659.3325745;659.3325745;659.3325745;659.3325745;659.3325745;659.3325745;662.3538061;662.3538061;662.3538061;662.3538061;662.3538061;662.3538061;['t', 'r', 'a', 'j', 'e'];0;[0.8835827999282628, 1.0809226997662336, 1.162636199966073, 1.4340955999214202, 1.5680064999032766];traje;C:\2023\REPSWITCH21092023\REPSWITCH_excgange\REPSWITCH_excgange\data/150104_REPSWITCH1_version1_list4_2023-11-28_16h09.12.624_micRespv1l4_recorded\recording_micRespv1l4_2023-11-28_16h20.06.846.wav;662.3538061;662.8537653;None;;;;;;150104;1;2023-11-28_16h09.12.624;REPSWITCH1_version1_list4;2022.2.4;143.8768186;
REPSWITCH1/PICTURE_446.png;cerdo;type;darkblue;nontarget;1;NT;2;3;4;1;Stim7_Set2;0;None;131;130;29;0;130;130;130;;;;;;;;;;;;;;;;;;;;;;;662.8537653;663.9581223;663.9581223;663.9581223;663.9581223;663.9581223;663.9581223;663.9581223;663.9581223;666.9793124;666.9793124;666.9793124;666.9793124;666.9793124;666.9793124;['c', 'e', 'r', 'd', 'o'];0;[0.8934857998974621, 1.129653099924326, 1.2247353999409825, 1.4997626999393106, 1.6582378998864442];cerdo;C:\2023\REPSWITCH21092023\REPSWITCH_excgange\REPSWITCH_excgange\data/150104_REPSWITCH1_version1_list4_2023-11-28_16h09.12.624_micRespv1l4_recorded\recording_micRespv1l4_2023-11-28_16h20.11.472.wav;666.9793124;667.4794766;None;;;;;;150104;1;2023-11-28_16h09.12.624;REPSWITCH1_version1_list4;2022.2.4;143.8768186;
REPSWITCH1/PICTURE_446.png;cerdo;type;darkblue;repeat;1;T;2;3;4;1;Stim7_Set2;0;None;132;131;30;0;131;131;131;;;;;;;;;;;;;;;;;;;;;;;667.4794766;668.5837505;668.5837505;668.5837505;668.5837505;668.5837505;668.5837505;668.5837505;668.5837505;671.6119029;671.6119029;671.6119029;671.6119029;671.6119029;671.6119029;['c', 'e', 'r', 'd', 'o'];0;[0.740216099889949, 0.9564992999657989, 1.0401752998586744, 1.2418589999433607, 1.340074999956414];cerdo;C:\2023\REPSWITCH21092023\REPSWITCH_excgange\REPSWITCH_excgange\data/150104_REPSWITCH1_version1_list4_2023-11-28_16h09.12.624_micRespv1l4_recorded\recording_micRespv1l4_2023-11-28_16h20.16.097.wav;671.6119029;;None;;;;;;150104;1;2023-11-28_16h09.12.624;REPSWITCH1_version1_list4;2022.2.4;143.8768186;
REPSWITCH1/PICTURE_16.png;cazador;speak;gold;filler;2;F;2;3;4;1;Stim6_Set1;0;None;133;132;31;0;132;132;132;;;;;;;;;;;;;;;;;;;;;;;672.1120086;673.133003;673.133003;673.133003;673.133003;673.133003;673.133003;673.133003;673.133003;676.1541694;676.1541694;676.1541694;676.1541694;676.1541694;676.1541694;None;0;;;C:\2023\REPSWITCH21092023\REPSWITCH_excgange\REPSWITCH_excgange\data/150104_REPSWITCH1_version1_list4_2023-11-28_16h09.12.624_micRespv1l4_recorded\recording_micRespv1l4_2023-11-28_16h20.20.647.wav;676.1541694;676.654231;None;;;;;;150104;1;2023-11-28_16h09.12.624;REPSWITCH1_version1_list4;2022.2.4;143.8768186;
REPSWITCH1/PICTURE_552.png;manzana;type;darkblue;nontarget;1;NT;2;3;4;1;Stim6_Set2;1;switch;134;133;32;0;133;133;133;;;;;;;;;;;;;;;;;;;;;;;676.654231;677.7238311;677.7238311;677.7238311;677.7238311;677.7238311;677.7238311;677.7238311;677.7238311;680.7451051;680.7451051;680.7451051;680.7451051;680.7451051;680.7451051;['f', 'r', 'e', 's', 'a'];0;[0.9438147998880595, 1.6485027999151498, 1.7864216999150813, 2.0650585999246687, 2.169315799837932];fresa;C:\2023\REPSWITCH21092023\REPSWITCH_excgange\REPSWITCH_excgange\data/150104_REPSWITCH1_version1_list4_2023-11-28_16h09.12.624_micRespv1l4_recorded\recording_micRespv1l4_2023-11-28_16h20.25.237.wav;680.7451051;681.2451098;None;;;;;;150104;1;2023-11-28_16h09.12.624;REPSWITCH1_version1_list4;2022.2.4;143.8768186;
REPSWITCH1/PICTURE_552.png;manzana;type;darkblue;repeat;1;T;2;3;4;1;Stim6_Set2;0;None;135;134;33;0;134;134;134;;;;;;;;;;;;;;;;;;;;;;;681.2451098;682.3771965;682.3771965;682.3771965;682.3771965;682.3771965;682.3771965;682.3771965;682.3771965;685.3984969;685.3984969;685.3984969;685.3984969;685.3984969;685.3984969;['f', 'r', 'e', 's', 'a'];0;[0.8061472999397665, 1.0213943999260664, 1.1380179000552744, 1.3463222000282258, 1.4502262000460178];fresa;C:\2023\REPSWITCH21092023\REPSWITCH_excgange\REPSWITCH_excgange\data/150104_REPSWITCH1_version1_list4_2023-11-28_16h09.12.624_micRespv1l4_recorded\recording_micRespv1l4_2023-11-28_16h20.29.891.wav;685.3984969;685.8984945;None;;;;;;150104;1;2023-11-28_16h09.12.624;REPSWITCH1_version1_list4;2022.2.4;143.8768186;
REPSWITCH1/PICTURE_517.png;cuerda;type;darkblue;nontarget;1;NT;2;3;4;1;Stim4_Set2;0;None;136;135;34;0;135;135;135;;;;;;;;;;;;;;;;;;;;;;;685.8984945;686.9611604;686.9611604;686.9611604;686.9611604;686.9611604;686.9611604;686.9611604;686.9611604;689.9823557;689.9823557;689.9823557;689.9823557;689.9823557;689.9823557;['c', 'u', 'e', 'r', 'd', 'a'];0;[0.8507399999070913, 1.1228006999008358, 1.2257324999663979, 1.3069203000050038, 1.491862199967727, 1.6084687998518348];cuerda;C:\2023\REPSWITCH21092023\REPSWITCH_excgange\REPSWITCH_excgange\data/150104_REPSWITCH1_version1_list4_2023-11-28_16h09.12.624_micRespv1l4_recorded\recording_micRespv1l4_2023-11-28_16h20.34.476.wav;689.9823557;690.4824261;None;;;;;;150104;1;2023-11-28_16h09.12.624;REPSWITCH1_version1_list4;2022.2.4;143.8768186;
REPSWITCH1/PICTURE_517.png;cuerda;speak;gold;switch;2;T;2;3;4;1;Stim4_Set2;0;None;137;136;35;0;136;136;136;;;;;;;;;;;;;;;;;;;;;;;690.4824261;691.5381182;691.5381182;691.5381182;691.5381182;691.5381182;691.5381182;691.5381182;691.5381182;694.5663037;694.5663037;694.5663037;694.5663037;694.5663037;694.5663037;None;0;;;C:\2023\REPSWITCH21092023\REPSWITCH_excgange\REPSWITCH_excgange\data/150104_REPSWITCH1_version1_list4_2023-11-28_16h09.12.624_micRespv1l4_recorded\recording_micRespv1l4_2023-11-28_16h20.39.053.wav;694.5663037;;None;;;;;;150104;1;2023-11-28_16h09.12.624;REPSWITCH1_version1_list4;2022.2.4;143.8768186;
REPSWITCH1/PICTURE_169.png;espalda;speak;gold;filler;2;F;2;3;4;1;Stim8_Set1;1;repeat;138;137;36;0;137;137;137;;;;;;;;;;;;;;;;;;;;;;;695.0663655;696.1567959;696.1567959;696.1567959;696.1567959;696.1567959;696.1567959;696.1567959;696.1567959;699.1780186;699.1780186;699.1780186;699.1780186;699.1780186;699.1780186;None;0;;;C:\2023\REPSWITCH21092023\REPSWITCH_excgange\REPSWITCH_excgange\data/150104_REPSWITCH1_version1_list4_2023-11-28_16h09.12.624_micRespv1l4_recorded\recording_micRespv1l4_2023-11-28_16h20.43.670.wav;699.1780186;699.6780869;None;;;;;;150104;1;2023-11-28_16h09.12.624;REPSWITCH1_version1_list4;2022.2.4;143.8768186;
REPSWITCH1/PICTURE_30.png;granja;speak;gold;nontarget;2;NT;2;3;4;1;Stim5_Set2;1;repeat;139;138;37;0;138;138;138;;;;;;;;;;;;;;;;;;;;;;;699.6780869;700.7962841;700.7962841;700.7962841;700.7962841;700.7962841;700.7962841;700.7962841;700.7962841;703.8244623;703.8244623;703.8244623;703.8244623;703.8244623;703.8244623;None;0;;;C:\2023\REPSWITCH21092023\REPSWITCH_excgange\REPSWITCH_excgange\data/150104_REPSWITCH1_version1_list4_2023-11-28_16h09.12.624_micRespv1l4_recorded\recording_micRespv1l4_2023-11-28_16h20.48.311.wav;703.8244623;;None;;;;;;150104;1;2023-11-28_16h09.12.624;REPSWITCH1_version1_list4;2022.2.4;143.8768186;
REPSWITCH1/PICTURE_30.png;granja;type;darkblue;switch;1;T;2;3;4;1;Stim5_Set2;0;None;140;139;38;0;139;139;139;;;;;;;;;;;;;;;;;;;;;;;704.3245262;705.4080591;705.4080591;705.4080591;705.4080591;705.4080591;705.4080591;705.4080591;705.4080591;708.4361796;708.4361796;708.4361796;708.4361796;708.4361796;708.4361796;['g', 'r', 'a', 'n', 'j', 'a'];0;[0.7925321999937296, 0.9804040999151766, 1.1279136000666767, 1.5244555999524891, 1.6928892000578344, 1.7965410000178963];granja;C:\2023\REPSWITCH21092023\REPSWITCH_excgange\REPSWITCH_excgange\data/150104_REPSWITCH1_version1_list4_2023-11-28_16h09.12.624_micRespv1l4_recorded\recording_micRespv1l4_2023-11-28_16h20.52.923.wav;708.4361796;;None;;;;;;150104;1;2023-11-28_16h09.12.624;REPSWITCH1_version1_list4;2022.2.4;143.8768186;
REPSWITCH1/PICTURE_128.png;muñeca;type;darkblue;filler;1;F;2;3;4;1;Stim4_Set1;1;repeat;141;140;39;0;140;140;140;;;;;;;;;;;;;;;;;;;;;;;708.9362434;709.9919326;709.9919326;709.9919326;709.9919326;709.9919326;709.9919326;709.9919326;709.9919326;713.0131306;713.0131306;713.0131306;713.0131306;713.0131306;713.0131306;['m', 'u', 'ñ', 'e', 'c', 'a'];0;[1.0231700998265296, 1.2106047999113798, 1.5625819999258965, 1.6465153999160975, 1.8231724998913705, 1.9587164998520166];muñeca;C:\2023\REPSWITCH21092023\REPSWITCH_excgange\REPSWITCH_excgange\data/150104_REPSWITCH1_version1_list4_2023-11-28_16h09.12.624_micRespv1l4_recorded\recording_micRespv1l4_2023-11-28_16h20.57.506.wav;713.0131306;713.5132342;None;;;;;;150104;1;2023-11-28_16h09.12.624;REPSWITCH1_version1_list4;2022.2.4;143.8768186;
