image;correctAns;respModal;frameColor;repSwitch;sequence;target;set;block;list;exp_version;stimulus;baseline;baseline_condition;trial_no;psychopy_trial;Column1;trialsREPSWITCH.thisRepN;trialsREPSWITCH.thisTrialN;trialsREPSWITCH.thisN;trialsREPSWITCH.thisIndex;textWelcome.started;textboxInstrMain1.started;textboxInstrMain1_2.started;textboxInstrMain1_3.started;keyInstrMain.started;keyInstrMain.keys;keyInstrMain.rt;textboxInstrMain2.started;textboxInstrMain2_2.started;textboxInstrMain2_3.started;textboxInstrMain2_4.started;textboxInstrMain2_5.started;textboxInstrMain2_6.started;textboxInstrMain2_7.started;textboxInstrMain2_8.started;textboxInstrMain2_9.started;textboxInstrMain2_10.started;textboxInstrMain2_11.started;textboxInstrMain2_12.started;keyInstrMain2.started;keyInstrMain2.keys;keyInstrMain2.rt;fixationITI.started;fixationITI.stopped;polygonColour.started;polygonWhite.started;imageObject.started;polygonType.started;textInput.started;keyResp.started;micRespv2l4.started;keyResp.keys;keyResp.corr;keyResp.rt;subjResponse;micRespv2l4.clip;textBlankLoop.started;textBlankLoop.stopped;keyPause.keys;polygonColour.stopped;polygonWhite.stopped;imageObject.stopped;polygonType.stopped;textInput.stopped;keyResp.stopped;textboxPause.started;keyPause.started;keyPause.rt;textboxGoodbye.started;textboxGoodbye.stopped;participant;session;date;expName;psychopyVersion;frameRate;Column2
;;;;;;;;;;;;;;;;;;;;;9.215444599976763;11.713884100085124;11.713884100085124;11.713884100085124;11.713884100085124;space;10.201449299929664;;;;;;;;;;;;;;;;;;;;;;;;;;;;;;;;;;;;;;;;;;;;160204;001;2023-11-29_09h13.45.548;REPSWITCH1_version2_list4;2022.2.4;144.01294968939203;
;;;;;;;;;;;;;;;;;;;;;;;;;;;;21.930488100042567;21.930488100042567;21.930488100042567;21.930488100042567;21.930488100042567;21.930488100042567;21.930488100042567;21.930488100042567;21.930488100042567;21.930488100042567;21.930488100042567;21.930488100042567;21.930488100042567;space;6.83578859991394;;;;;;;;;;;;;;;;;;;;;;;;;;;;;160204;001;2023-11-29_09h13.45.548;REPSWITCH1_version2_list4;2022.2.4;144.01294968939203;
REPSWITCH1/PICTURE_8.png;pierna;type;gold;filler;1;F;1;4;4;2;Stim3_Set4;0;None;1;0;1;0;0;0;0;;;;;;;;;;;;;;;;;;;;;;;28.861926200101152;30.06354880006984;30.06354880006984;30.06354880006984;30.06354880006984;30.06354880006984;30.06354880006984;30.06354880006984;30.06354880006984;['p', 'i', 'e', 'r', 'n', 'a'];0;[0.937239299993962, 1.1196636001113802, 1.3338191001676023, 1.4893209000583738, 1.7084109000861645, 1.8142397000920027];pierna;C:\2023\REPSWITCH21092023\REPSWITCH_excgange\REPSWITCH_excgange\data/160204_REPSWITCH1_version2_list4_2023-11-29_09h13.45.548_micRespv2l4_recorded\recording_micRespv2l4_2023-11-29_09h14.11.279.wav;33.08478130004369;33.5847756001167;None;;;;;;;;;;;;160204;001;2023-11-29_09h13.45.548;REPSWITCH1_version2_list4;2022.2.4;144.01294968939203;
REPSWITCH1/PICTURE_498.png;taza;speak;darkblue;filler;2;F;1;4;4;2;Stim4_Set4;0;None;2;1;2;0;1;1;1;;;;;;;;;;;;;;;;;;;;;;;33.5847756001167;34.6752563000191;34.6752563000191;34.6752563000191;34.6752563000191;34.6752563000191;34.6752563000191;34.6752563000191;34.6752563000191;None;0;;;C:\2023\REPSWITCH21092023\REPSWITCH_excgange\REPSWITCH_excgange\data/160204_REPSWITCH1_version2_list4_2023-11-29_09h13.45.548_micRespv2l4_recorded\recording_micRespv2l4_2023-11-29_09h14.15.896.wav;37.70337380003184;;None;37.70337380003184;37.70337380003184;37.70337380003184;37.70337380003184;37.70337380003184;37.70337380003184;;;;;;160204;001;2023-11-29_09h13.45.548;REPSWITCH1_version2_list4;2022.2.4;144.01294968939203;
REPSWITCH1/PICTURE_19.png;pavo;speak;darkblue;nontarget;2;NT;1;4;4;2;Stim5_Set1;1;repeat;3;2;3;0;2;2;2;;;;;;;;;;;;;;;;;;;;;;;38.20343660004437;39.27306000003591;39.27306000003591;39.27306000003591;39.27306000003591;39.27306000003591;39.27306000003591;39.27306000003591;39.27306000003591;None;0;;;C:\2023\REPSWITCH21092023\REPSWITCH_excgange\REPSWITCH_excgange\data/160204_REPSWITCH1_version2_list4_2023-11-29_09h13.45.548_micRespv2l4_recorded\recording_micRespv2l4_2023-11-29_09h14.20.494.wav;42.30117990006693;42.80123500013724;None;42.30117990006693;42.30117990006693;42.30117990006693;42.30117990006693;42.30117990006693;42.30117990006693;;;;;;160204;001;2023-11-29_09h13.45.548;REPSWITCH1_version2_list4;2022.2.4;144.01294968939203;
REPSWITCH1/PICTURE_19.png;pavo;speak;darkblue;repeat;2;T;1;4;4;2;Stim5_Set1;0;None;4;3;4;0;3;3;3;;;;;;;;;;;;;;;;;;;;;;;42.80123500013724;43.933386699995026;43.933386699995026;43.933386699995026;43.933386699995026;43.933386699995026;43.933386699995026;43.933386699995026;43.933386699995026;None;0;;;C:\2023\REPSWITCH21092023\REPSWITCH_excgange\REPSWITCH_excgange\data/160204_REPSWITCH1_version2_list4_2023-11-29_09h13.45.548_micRespv2l4_recorded\recording_micRespv2l4_2023-11-29_09h14.25.153.wav;46.96150630014017;;None;46.96150630014017;46.96150630014017;46.96150630014017;46.96150630014017;46.96150630014017;46.96150630014017;;;;;;160204;001;2023-11-29_09h13.45.548;REPSWITCH1_version2_list4;2022.2.4;144.01294968939203;
REPSWITCH1/PICTURE_319.png;vaca;type;gold;filler;1;F;1;4;4;2;Stim1_Set4;1;repeat;5;4;5;0;4;4;4;;;;;;;;;;;;;;;;;;;;;;;47.461559999966994;48.58670570002869;48.58670570002869;48.58670570002869;48.58670570002869;48.58670570002869;48.58670570002869;48.58670570002869;48.58670570002869;['v', 'a', 'c', 'a'];0;[0.9697342999279499, 1.155830399831757, 1.4201610998716205, 1.5523955998942256];vaca;C:\2023\REPSWITCH21092023\REPSWITCH_excgange\REPSWITCH_excgange\data/160204_REPSWITCH1_version2_list4_2023-11-29_09h13.45.548_micRespv2l4_recorded\recording_micRespv2l4_2023-11-29_09h14.29.807.wav;51.61485750018619;;None;51.61485750018619;51.61485750018619;51.61485750018619;51.61485750018619;51.61485750018619;51.61485750018619;;;;;;160204;001;2023-11-29_09h13.45.548;REPSWITCH1_version2_list4;2022.2.4;144.01294968939203;
REPSWITCH1/PICTURE_169.png;espalda;speak;darkblue;nontarget;2;NT;1;4;4;2;Stim8_Set1;1;switch;6;5;6;0;5;5;5;;;;;;;;;;;;;;;;;;;;;;;52.11491370014846;53.14978120010346;53.14978120010346;53.14978120010346;53.14978120010346;53.14978120010346;53.14978120010346;53.14978120010346;53.14978120010346;None;0;;;C:\2023\REPSWITCH21092023\REPSWITCH_excgange\REPSWITCH_excgange\data/160204_REPSWITCH1_version2_list4_2023-11-29_09h13.45.548_micRespv2l4_recorded\recording_micRespv2l4_2023-11-29_09h14.34.370.wav;56.17098200018518;56.67108890018426;None;56.17098200018518;56.17098200018518;56.17098200018518;56.17098200018518;56.17098200018518;56.17098200018518;;;;;;160204;001;2023-11-29_09h13.45.548;REPSWITCH1_version2_list4;2022.2.4;144.01294968939203;
REPSWITCH1/PICTURE_169.png;espalda;speak;darkblue;repeat;2;T;1;4;4;2;Stim8_Set1;0;None;7;6;7;0;6;6;6;;;;;;;;;;;;;;;;;;;;;;;56.67108890018426;57.692059100139886;57.692059100139886;57.692059100139886;57.692059100139886;57.692059100139886;57.692059100139886;57.692059100139886;57.692059100139886;None;0;;;C:\2023\REPSWITCH21092023\REPSWITCH_excgange\REPSWITCH_excgange\data/160204_REPSWITCH1_version2_list4_2023-11-29_09h13.45.548_micRespv2l4_recorded\recording_micRespv2l4_2023-11-29_09h14.38.911.wav;60.71327350009233;61.21332890004851;None;60.71327350009233;60.71327350009233;60.71327350009233;60.71327350009233;60.71327350009233;60.71327350009233;;;;;;160204;001;2023-11-29_09h13.45.548;REPSWITCH1_version2_list4;2022.2.4;144.01294968939203;
REPSWITCH1/PICTURE_728.png;pulpo;type;gold;filler;1;F;1;4;4;2;Stim8_Set4;0;None;8;7;8;0;7;7;7;;;;;;;;;;;;;;;;;;;;;;;61.21332890004851;62.33853820012882;62.33853820012882;62.33853820012882;62.33853820012882;62.33853820012882;62.33853820012882;62.33853820012882;62.33853820012882;['p', 'u', 'l', 'p', 'o'];0;[0.8057162999175489, 1.0359406999778003, 1.2771316000726074, 1.5691595999523997, 1.755832999944687];pulpo;C:\2023\REPSWITCH21092023\REPSWITCH_excgange\REPSWITCH_excgange\data/160204_REPSWITCH1_version2_list4_2023-11-29_09h13.45.548_micRespv2l4_recorded\recording_micRespv2l4_2023-11-29_09h14.43.558.wav;65.35970710008405;65.85976140014827;None;65.35970710008405;65.35970710008405;65.35970710008405;65.35970710008405;65.35970710008405;65.35970710008405;;;;;;160204;001;2023-11-29_09h13.45.548;REPSWITCH1_version2_list4;2022.2.4;144.01294968939203;
REPSWITCH1/PICTURE_142.png;vaso;speak;darkblue;nontarget;2;NT;1;4;4;2;Stim7_Set1;1;switch;9;8;9;0;8;8;8;;;;;;;;;;;;;;;;;;;;;;;65.85976140014827;66.87375769997016;66.87375769997016;66.87375769997016;66.87375769997016;66.87375769997016;66.87375769997016;66.87375769997016;66.87375769997016;None;0;;;C:\2023\REPSWITCH21092023\REPSWITCH_excgange\REPSWITCH_excgange\data/160204_REPSWITCH1_version2_list4_2023-11-29_09h13.45.548_micRespv2l4_recorded\recording_micRespv2l4_2023-11-29_09h14.48.094.wav;69.90192870004103;;None;69.90192870004103;69.90192870004103;69.90192870004103;69.90192870004103;69.90192870004103;69.90192870004103;;;;;;160204;001;2023-11-29_09h13.45.548;REPSWITCH1_version2_list4;2022.2.4;144.01294968939203;
REPSWITCH1/PICTURE_142.png;vaso;type;gold;switch;1;T;1;4;4;2;Stim7_Set1;0;None;10;9;10;0;9;9;9;;;;;;;;;;;;;;;;;;;;;;;70.40205580019392;71.50633330014534;71.50633330014534;71.50633330014534;71.50633330014534;71.50633330014534;71.50633330014534;71.50633330014534;71.50633330014534;['v', 'a', 's', 'o'];0;[0.7861821998376399, 0.9376481999643147, 1.338887499878183, 1.5173606998287141];vaso;C:\2023\REPSWITCH21092023\REPSWITCH_excgange\REPSWITCH_excgange\data/160204_REPSWITCH1_version2_list4_2023-11-29_09h13.45.548_micRespv2l4_recorded\recording_micRespv2l4_2023-11-29_09h14.52.726.wav;74.5345189999789;;None;74.5345189999789;74.5345189999789;74.5345189999789;74.5345189999789;74.5345189999789;74.5345189999789;;;;;;160204;001;2023-11-29_09h13.45.548;REPSWITCH1_version2_list4;2022.2.4;144.01294968939203;
REPSWITCH1/PICTURE_338.png;regalo;type;gold;filler;1;F;1;4;4;2;Stim6_Set4;1;repeat;11;10;11;0;10;10;10;;;;;;;;;;;;;;;;;;;;;;;75.0345545001328;76.22219330002554;76.22219330002554;76.22219330002554;76.22219330002554;76.22219330002554;76.22219330002554;76.22219330002554;76.22219330002554;['r', 'e', 'g', 'a', 'l', 'o'];0;[0.8797172999475151, 1.0336873000487685, 1.2359935999847949, 1.3580697998404503, 1.5683593999128789, 1.7516389000229537];regalo;C:\2023\REPSWITCH21092023\REPSWITCH_excgange\REPSWITCH_excgange\data/160204_REPSWITCH1_version2_list4_2023-11-29_09h13.45.548_micRespv2l4_recorded\recording_micRespv2l4_2023-11-29_09h14.57.441.wav;79.25037070014514;;None;79.25037070014514;79.25037070014514;79.25037070014514;79.25037070014514;79.25037070014514;79.25037070014514;;;;;;160204;001;2023-11-29_09h13.45.548;REPSWITCH1_version2_list4;2022.2.4;144.01294968939203;
REPSWITCH1/PICTURE_135.png;traje;type;gold;nontarget;1;NT;1;4;4;2;Stim3_Set1;1;repeat;12;11;12;0;11;11;11;;;;;;;;;;;;;;;;;;;;;;;79.75043670018204;80.84084259998053;80.84084259998053;80.84084259998053;80.84084259998053;80.84084259998053;80.84084259998053;80.84084259998053;80.84084259998053;['t', 'r', 'a', 'j', 'e'];0;[1.0322342000436038, 1.248517399886623, 1.4129590999800712, 1.5544761999044567, 1.7338753000367433];traje;C:\2023\REPSWITCH21092023\REPSWITCH_excgange\REPSWITCH_excgange\data/160204_REPSWITCH1_version2_list4_2023-11-29_09h13.45.548_micRespv2l4_recorded\recording_micRespv2l4_2023-11-29_09h15.02.062.wav;83.8689981000498;;None;83.8689981000498;83.8689981000498;83.8689981000498;83.8689981000498;83.8689981000498;83.8689981000498;;;;;;160204;001;2023-11-29_09h13.45.548;REPSWITCH1_version2_list4;2022.2.4;144.01294968939203;
REPSWITCH1/PICTURE_135.png;traje;speak;darkblue;switch;2;T;1;4;4;2;Stim3_Set1;0;None;13;12;13;0;12;12;12;;;;;;;;;;;;;;;;;;;;;;;84.36909280018881;85.44567660009488;85.44567660009488;85.44567660009488;85.44567660009488;85.44567660009488;85.44567660009488;85.44567660009488;85.44567660009488;None;0;;;C:\2023\REPSWITCH21092023\REPSWITCH_excgange\REPSWITCH_excgange\data/160204_REPSWITCH1_version2_list4_2023-11-29_09h13.45.548_micRespv2l4_recorded\recording_micRespv2l4_2023-11-29_09h15.06.665.wav;88.46681590005755;88.96687830006704;None;88.46681590005755;88.46681590005755;88.46681590005755;88.46681590005755;88.46681590005755;88.46681590005755;;;;;;160204;001;2023-11-29_09h13.45.548;REPSWITCH1_version2_list4;2022.2.4;144.01294968939203;
REPSWITCH1/PICTURE_381.png;fresa;speak;darkblue;nontarget;2;NT;1;4;4;2;Stim2_Set1;1;repeat;14;13;14;0;13;13;13;;;;;;;;;;;;;;;;;;;;;;;88.96687830006704;90.10591510008089;90.10591510008089;90.10591510008089;90.10591510008089;90.10591510008089;90.10591510008089;90.10591510008089;90.10591510008089;None;0;;;C:\2023\REPSWITCH21092023\REPSWITCH_excgange\REPSWITCH_excgange\data/160204_REPSWITCH1_version2_list4_2023-11-29_09h13.45.548_micRespv2l4_recorded\recording_micRespv2l4_2023-11-29_09h15.11.327.wav;93.1340992001351;;None;93.1340992001351;93.1340992001351;93.1340992001351;93.1340992001351;93.1340992001351;93.1340992001351;;;;;;160204;001;2023-11-29_09h13.45.548;REPSWITCH1_version2_list4;2022.2.4;144.01294968939203;
REPSWITCH1/PICTURE_381.png;fresa;type;gold;switch;1;T;1;4;4;2;Stim2_Set1;0;None;15;14;15;0;14;14;14;;;;;;;;;;;;;;;;;;;;;;;93.63415800011717;94.731541500194;94.731541500194;94.731541500194;94.731541500194;94.731541500194;94.731541500194;94.731541500194;94.731541500194;['f', 'r', 'e', 's', 'a'];0;[0.8712695001158863, 1.0755654000677168, 1.2489821999333799, 1.4091799000743777, 1.6181232000235468];fresa;C:\2023\REPSWITCH21092023\REPSWITCH_excgange\REPSWITCH_excgange\data/160204_REPSWITCH1_version2_list4_2023-11-29_09h13.45.548_micRespv2l4_recorded\recording_micRespv2l4_2023-11-29_09h15.15.951.wav;97.75278190011159;98.25286990008317;None;97.75278190011159;97.75278190011159;97.75278190011159;97.75278190011159;97.75278190011159;97.75278190011159;;;;;;160204;001;2023-11-29_09h13.45.548;REPSWITCH1_version2_list4;2022.2.4;144.01294968939203;
REPSWITCH1/PICTURE_48.png;bombero;type;gold;filler;1;F;1;4;4;2;Stim7_Set4;0;None;16;15;16;0;15;15;15;;;;;;;;;;;;;;;;;;;;;;;98.25286990008317;99.38496470008977;99.38496470008977;99.38496470008977;99.38496470008977;99.38496470008977;99.38496470008977;99.38496470008977;99.38496470008977;['b', 'o', 'm', 'b', 'e', 'r', 'o'];0;[0.9712404999881983, 1.0926884000655264, 1.3309985001105815, 1.4848786001093686, 1.7365981999319047, 1.8894768999889493, 2.0344801999162883];bombero;C:\2023\REPSWITCH21092023\REPSWITCH_excgange\REPSWITCH_excgange\data/160204_REPSWITCH1_version2_list4_2023-11-29_09h13.45.548_micRespv2l4_recorded\recording_micRespv2l4_2023-11-29_09h15.20.604.wav;102.41307660005987;;None;102.41307660005987;102.41307660005987;102.41307660005987;102.41307660005987;102.41307660005987;102.41307660005987;;;;;;160204;001;2023-11-29_09h13.45.548;REPSWITCH1_version2_list4;2022.2.4;144.01294968939203;
REPSWITCH1/PICTURE_687.png;camisa;speak;darkblue;filler;2;F;1;4;4;2;Stim5_Set4;0;None;17;16;17;0;16;16;16;;;;;;;;;;;;;;;;;;;;;;;102.91314580012113;104.05913410009816;104.05913410009816;104.05913410009816;104.05913410009816;104.05913410009816;104.05913410009816;104.05913410009816;104.05913410009816;None;0;;;C:\2023\REPSWITCH21092023\REPSWITCH_excgange\REPSWITCH_excgange\data/160204_REPSWITCH1_version2_list4_2023-11-29_09h13.45.548_micRespv2l4_recorded\recording_micRespv2l4_2023-11-29_09h15.25.279.wav;107.08034980017692;107.58040660014376;None;107.08034980017692;107.08034980017692;107.08034980017692;107.08034980017692;107.08034980017692;107.08034980017692;;;;;;160204;001;2023-11-29_09h13.45.548;REPSWITCH1_version2_list4;2022.2.4;144.01294968939203;
REPSWITCH1/PICTURE_128.png;muñeca;type;gold;nontarget;1;NT;1;4;4;2;Stim4_Set1;0;None;18;17;18;0;17;17;17;;;;;;;;;;;;;;;;;;;;;;;107.58040660014376;108.70557780005038;108.70557780005038;108.70557780005038;108.70557780005038;108.70557780005038;108.70557780005038;108.70557780005038;108.70557780005038;['m', 'u', 'ñ', 'e', 'c', 'a'];0;[0.8360458998940885, 1.186156600015238, 1.565888699842617, 1.761036999989301, 2.140028999885544, 2.278777699917555];muñeca;C:\2023\REPSWITCH21092023\REPSWITCH_excgange\REPSWITCH_excgange\data/160204_REPSWITCH1_version2_list4_2023-11-29_09h13.45.548_micRespv2l4_recorded\recording_micRespv2l4_2023-11-29_09h15.29.926.wav;111.73372180014849;;None;111.73372180014849;111.73372180014849;111.73372180014849;111.73372180014849;111.73372180014849;111.73372180014849;;;;;;160204;001;2023-11-29_09h13.45.548;REPSWITCH1_version2_list4;2022.2.4;144.01294968939203;
REPSWITCH1/PICTURE_128.png;muñeca;type;gold;repeat;1;T;1;4;4;2;Stim4_Set1;0;None;19;18;19;0;18;18;18;;;;;;;;;;;;;;;;;;;;;;;112.23376720002852;113.40760620008223;113.40760620008223;113.40760620008223;113.40760620008223;113.40760620008223;113.40760620008223;113.40760620008223;113.40760620008223;['m', 'u', 'ñ', 'e', 'c', 'a'];0;[0.7245251999702305, 0.9582183000165969, 1.2040029000490904, 1.3382840999402106, 1.6267341999337077, 1.7752002000343055];muñeca;C:\2023\REPSWITCH21092023\REPSWITCH_excgange\REPSWITCH_excgange\data/160204_REPSWITCH1_version2_list4_2023-11-29_09h13.45.548_micRespv2l4_recorded\recording_micRespv2l4_2023-11-29_09h15.34.628.wav;116.43572070007212;116.93575180019252;None;116.43572070007212;116.43572070007212;116.43572070007212;116.43572070007212;116.43572070007212;116.43572070007212;;;;;;160204;001;2023-11-29_09h13.45.548;REPSWITCH1_version2_list4;2022.2.4;144.01294968939203;
REPSWITCH1/PICTURE_719.png;baño;speak;darkblue;filler;2;F;1;4;4;2;Stim2_Set4;1;switch;20;19;20;0;19;19;19;;;;;;;;;;;;;;;;;;;;;;;116.93575180019252;117.9983895001933;117.9983895001933;117.9983895001933;117.9983895001933;117.9983895001933;117.9983895001933;117.9983895001933;117.9983895001933;None;0;;;C:\2023\REPSWITCH21092023\REPSWITCH_excgange\REPSWITCH_excgange\data/160204_REPSWITCH1_version2_list4_2023-11-29_09h13.45.548_micRespv2l4_recorded\recording_micRespv2l4_2023-11-29_09h15.39.219.wav;121.02657620003447;121.5266364000272;None;121.02657620003447;121.02657620003447;121.02657620003447;121.02657620003447;121.02657620003447;121.02657620003447;;;;;;160204;001;2023-11-29_09h13.45.548;REPSWITCH1_version2_list4;2022.2.4;144.01294968939203;
REPSWITCH1/PICTURE_178.png;puente;type;gold;nontarget;1;NT;1;4;4;2;Stim1_Set1;1;switch;21;20;21;0;20;20;20;;;;;;;;;;;;;;;;;;;;;;;121.5266364000272;122.6518514000345;122.6518514000345;122.6518514000345;122.6518514000345;122.6518514000345;122.6518514000345;122.6518514000345;122.6518514000345;['p', 'u', 'e', 'n', 't', 'e'];0;[0.9569268999621272, 1.0865220001433045, 1.2140635000541806, 1.4075254001654685, 1.5002178000286222, 1.676590400049463];puente;C:\2023\REPSWITCH21092023\REPSWITCH_excgange\REPSWITCH_excgange\data/160204_REPSWITCH1_version2_list4_2023-11-29_09h13.45.548_micRespv2l4_recorded\recording_micRespv2l4_2023-11-29_09h15.43.872.wav;125.67995120002888;;None;125.67995120002888;125.67995120002888;125.67995120002888;125.67995120002888;125.67995120002888;125.67995120002888;;;;;;160204;001;2023-11-29_09h13.45.548;REPSWITCH1_version2_list4;2022.2.4;144.01294968939203;
REPSWITCH1/PICTURE_178.png;puente;type;gold;repeat;1;T;1;4;4;2;Stim1_Set1;0;None;22;21;22;0;21;21;21;;;;;;;;;;;;;;;;;;;;;;;126.18000930012204;127.36770810000598;127.36770810000598;127.36770810000598;127.36770810000598;127.36770810000598;127.36770810000598;127.36770810000598;127.36770810000598;['p', 'u', 'e', 'n', 't', 'e'];0;[0.6441826999653131, 0.764784200116992, 0.8913710999768227, 1.0452411000151187, 1.140893700066954, 1.2177101001143456];puente;C:\2023\REPSWITCH21092023\REPSWITCH_excgange\REPSWITCH_excgange\data/160204_REPSWITCH1_version2_list4_2023-11-29_09h13.45.548_micRespv2l4_recorded\recording_micRespv2l4_2023-11-29_09h15.48.587.wav;130.38887470006011;130.88893490005285;None;130.38887470006011;130.38887470006011;130.38887470006011;130.38887470006011;130.38887470006011;130.38887470006011;;;;;;160204;001;2023-11-29_09h13.45.548;REPSWITCH1_version2_list4;2022.2.4;144.01294968939203;
REPSWITCH1/PICTURE_16.png;cazador;type;gold;nontarget;1;NT;1;4;4;2;Stim6_Set1;1;repeat;23;22;23;0;22;22;22;;;;;;;;;;;;;;;;;;;;;;;130.88893490005285;131.9863664000295;131.9863664000295;131.9863664000295;131.9863664000295;131.9863664000295;131.9863664000295;131.9863664000295;131.9863664000295;['c', 'a', 'z', 'a', 'd', 'o', 'r'];0;[1.1468349997885525, 1.3012973999138921, 1.5218330998905003, 1.7324816000182182, 1.9178616998251528, 2.052295499946922, 2.1842457000166178];cazador;C:\2023\REPSWITCH21092023\REPSWITCH_excgange\REPSWITCH_excgange\data/160204_REPSWITCH1_version2_list4_2023-11-29_09h13.45.548_micRespv2l4_recorded\recording_micRespv2l4_2023-11-29_09h15.53.207.wav;135.01447200006805;;None;135.01447200006805;135.01447200006805;135.01447200006805;135.01447200006805;135.01447200006805;135.01447200006805;;;;;;160204;001;2023-11-29_09h13.45.548;REPSWITCH1_version2_list4;2022.2.4;144.01294968939203;
REPSWITCH1/PICTURE_16.png;cazador;speak;darkblue;switch;2;T;1;4;4;2;Stim6_Set1;0;None;24;23;24;0;23;23;23;;;;;;;;;;;;;;;;;;;;;;;135.51455760002136;136.57725760014728;136.57725760014728;136.57725760014728;136.57725760014728;136.57725760014728;136.57725760014728;136.57725760014728;136.57725760014728;None;0;;;C:\2023\REPSWITCH21092023\REPSWITCH_excgange\REPSWITCH_excgange\data/160204_REPSWITCH1_version2_list4_2023-11-29_09h13.45.548_micRespv2l4_recorded\recording_micRespv2l4_2023-11-29_09h15.57.797.wav;139.6053637000732;;None;139.6053637000732;139.6053637000732;139.6053637000732;139.6053637000732;139.6053637000732;139.6053637000732;;;;;;160204;001;2023-11-29_09h13.45.548;REPSWITCH1_version2_list4;2022.2.4;144.01294968939203;
REPSWITCH1/PICTURE_19.png;pavo;type;gold;filler;1;F;2;4;4;2;Stim5_Set1;0;None;25;24;25;0;24;24;24;;;;;;;;;;;;;;;;;;;;;;;140.10542750009336;141.1611757001374;141.1611757001374;141.1611757001374;141.1611757001374;141.1611757001374;141.1611757001374;141.1611757001374;141.1611757001374;['p', 'a', 'v', 'o'];0;[0.8379495998378843, 0.9521526999305934, 1.1125376999843866, 1.2151353999506682];pavo;C:\2023\REPSWITCH21092023\REPSWITCH_excgange\REPSWITCH_excgange\data/160204_REPSWITCH1_version2_list4_2023-11-29_09h13.45.548_micRespv2l4_recorded\recording_micRespv2l4_2023-11-29_09h16.02.381.wav;144.1893490999937;;None;144.1893490999937;144.1893490999937;144.1893490999937;144.1893490999937;144.1893490999937;144.1893490999937;;;;;;160204;001;2023-11-29_09h13.45.548;REPSWITCH1_version2_list4;2022.2.4;144.01294968939203;
REPSWITCH1/PICTURE_199.png;falda;type;gold;nontarget;1;NT;2;4;4;2;Stim8_Set2;1;repeat;26;25;26;0;25;25;25;;;;;;;;;;;;;;;;;;;;;;;144.68937490019016;145.83540540002286;145.83540540002286;145.83540540002286;145.83540540002286;145.83540540002286;145.83540540002286;145.83540540002286;145.83540540002286;['f', 'a', 'l', 'd', 'a'];0;[1.0182803999632597, 1.148385499836877, 1.2350506999064237, 1.7021732998546213, 2.1476067998446524];falda;C:\2023\REPSWITCH21092023\REPSWITCH_excgange\REPSWITCH_excgange\data/160204_REPSWITCH1_version2_list4_2023-11-29_09h13.45.548_micRespv2l4_recorded\recording_micRespv2l4_2023-11-29_09h16.07.055.wav;148.86352090002038;;None;148.86352090002038;148.86352090002038;148.86352090002038;148.86352090002038;148.86352090002038;148.86352090002038;;;;;;160204;001;2023-11-29_09h13.45.548;REPSWITCH1_version2_list4;2022.2.4;144.01294968939203;
REPSWITCH1/PICTURE_199.png;falda;type;gold;repeat;1;T;2;4;4;2;Stim8_Set2;0;None;27;26;27;0;26;26;26;;;;;;;;;;;;;;;;;;;;;;;149.3635576001834;150.47484000003897;150.47484000003897;150.47484000003897;150.47484000003897;150.47484000003897;150.47484000003897;150.47484000003897;150.47484000003897;['f', 'a', 'l', 'd', 'a'];0;[0.697340700076893, 0.8730701999738812, 0.9398328000679612, 1.3747642999514937, 1.570375300012529];falda;C:\2023\REPSWITCH21092023\REPSWITCH_excgange\REPSWITCH_excgange\data/160204_REPSWITCH1_version2_list4_2023-11-29_09h13.45.548_micRespv2l4_recorded\recording_micRespv2l4_2023-11-29_09h16.11.694.wav;153.49604340014048;153.99610600015149;None;153.49604340014048;153.49604340014048;153.49604340014048;153.49604340014048;153.49604340014048;153.49604340014048;;;;;;160204;001;2023-11-29_09h13.45.548;REPSWITCH1_version2_list4;2022.2.4;144.01294968939203;
REPSWITCH1/PICTURE_178.png;puente;speak;darkblue;filler;2;F;2;4;4;2;Stim1_Set1;1;switch;28;27;28;0;27;27;27;;;;;;;;;;;;;;;;;;;;;;;153.99610600015149;155.12826110003516;155.12826110003516;155.12826110003516;155.12826110003516;155.12826110003516;155.12826110003516;155.12826110003516;155.12826110003516;None;0;;;C:\2023\REPSWITCH21092023\REPSWITCH_excgange\REPSWITCH_excgange\data/160204_REPSWITCH1_version2_list4_2023-11-29_09h13.45.548_micRespv2l4_recorded\recording_micRespv2l4_2023-11-29_09h16.16.348.wav;158.14949090010487;158.6494815000333;None;158.14949090010487;158.14949090010487;158.14949090010487;158.14949090010487;158.14949090010487;158.14949090010487;;;;;;160204;001;2023-11-29_09h13.45.548;REPSWITCH1_version2_list4;2022.2.4;144.01294968939203;
REPSWITCH1/PICTURE_517.png;cuerda;type;gold;nontarget;1;NT;2;4;4;2;Stim4_Set2;1;switch;29;28;29;0;28;28;28;;;;;;;;;;;;;;;;;;;;;;;158.6494815000333;159.80933229997754;159.80933229997754;159.80933229997754;159.80933229997754;159.80933229997754;159.80933229997754;159.80933229997754;159.80933229997754;['c', 'u', 'e', 'r', 'd', 'd', 'a', 'backspace'];0;[1.016242900164798, 1.1525785000994802, 1.254668700043112, 1.3954144001472741, 1.6060927000362426, 1.7276907002087682, 1.7525631000753492, 2.8518990001175553];cuerdd;C:\2023\REPSWITCH21092023\REPSWITCH_excgange\REPSWITCH_excgange\data/160204_REPSWITCH1_version2_list4_2023-11-29_09h13.45.548_micRespv2l4_recorded\recording_micRespv2l4_2023-11-29_09h16.21.029.wav;162.83752589998767;;None;162.83752589998767;162.83752589998767;162.83752589998767;162.83752589998767;162.83752589998767;162.83752589998767;;;;;;160204;001;2023-11-29_09h13.45.548;REPSWITCH1_version2_list4;2022.2.4;144.01294968939203;
REPSWITCH1/PICTURE_517.png;cuerda;type;gold;repeat;1;T;2;4;4;2;Stim4_Set2;0;None;30;29;30;0;29;29;29;;;;;;;;;;;;;;;;;;;;;;;163.3375626001507;164.4488519001752;164.4488519001752;164.4488519001752;164.4488519001752;164.4488519001752;164.4488519001752;164.4488519001752;164.4488519001752;['c', 'u', 'e', 'r', 'd', 'a'];0;[0.6674149001482874, 0.7860528000164777, 0.929556299932301, 1.0534234999213368, 1.2935442000161856, 1.5188021000940353];cuerda;C:\2023\REPSWITCH21092023\REPSWITCH_excgange\REPSWITCH_excgange\data/160204_REPSWITCH1_version2_list4_2023-11-29_09h13.45.548_micRespv2l4_recorded\recording_micRespv2l4_2023-11-29_09h16.25.669.wav;167.476975500118;;None;167.476975500118;167.476975500118;167.476975500118;167.476975500118;167.476975500118;167.476975500118;;;;;;160204;001;2023-11-29_09h13.45.548;REPSWITCH1_version2_list4;2022.2.4;144.01294968939203;
REPSWITCH1/PICTURE_169.png;espalda;type;gold;filler;1;F;2;4;4;2;Stim8_Set1;0;None;31;30;31;0;30;30;30;;;;;;;;;;;;;;;;;;;;;;;167.97706539998762;169.06749640009366;169.06749640009366;169.06749640009366;169.06749640009366;169.06749640009366;169.06749640009366;169.06749640009366;169.06749640009366;['e', 's', 'p', 'a', 'l', 'd', 'a'];0;[0.8574308000970632, 1.0244593999814242, 1.2962287000846118, 1.4507474000565708, 1.5954265999607742, 1.755945400102064, 1.8875819998793304];espalda;C:\2023\REPSWITCH21092023\REPSWITCH_excgange\REPSWITCH_excgange\data/160204_REPSWITCH1_version2_list4_2023-11-29_09h13.45.548_micRespv2l4_recorded\recording_micRespv2l4_2023-11-29_09h16.30.288.wav;172.09565380006097;172.59571370016783;None;172.09565380006097;172.09565380006097;172.09565380006097;172.09565380006097;172.09565380006097;172.09565380006097;;;;;;160204;001;2023-11-29_09h13.45.548;REPSWITCH1_version2_list4;2022.2.4;144.01294968939203;
REPSWITCH1/PICTURE_673.png;tenedor;speak;darkblue;filler;2;F;2;4;4;2;Extra5;0;None;32;31;32;0;31;31;31;;;;;;;;;;;;;;;;;;;;;;;172.59571370016783;173.74176100012846;173.74176100012846;173.74176100012846;173.74176100012846;173.74176100012846;173.74176100012846;173.74176100012846;173.74176100012846;None;0;;;C:\2023\REPSWITCH21092023\REPSWITCH_excgange\REPSWITCH_excgange\data/160204_REPSWITCH1_version2_list4_2023-11-29_09h13.45.548_micRespv2l4_recorded\recording_micRespv2l4_2023-11-29_09h16.34.961.wav;176.7698397000786;;None;176.7698397000786;176.7698397000786;176.7698397000786;176.7698397000786;176.7698397000786;176.7698397000786;;;;;;160204;001;2023-11-29_09h13.45.548;REPSWITCH1_version2_list4;2022.2.4;144.01294968939203;
REPSWITCH1/PICTURE_142.png;vaso;type;gold;filler;1;F;2;4;4;2;Stim7_Set1;1;switch;33;32;33;0;32;32;32;;;;;;;;;;;;;;;;;;;;;;;177.26990350009874;178.3742143001873;178.3742143001873;178.3742143001873;178.3742143001873;178.3742143001873;178.3742143001873;178.3742143001873;178.3742143001873;['v', 's', 'backspace', 'a', 's', 'o'];0;[0.7440196999814361, 0.9580671000294387, 1.5093507000710815, 1.7225995000917464, 1.9020404000766575, 2.2171404000837356];vaso;C:\2023\REPSWITCH21092023\REPSWITCH_excgange\REPSWITCH_excgange\data/160204_REPSWITCH1_version2_list4_2023-11-29_09h13.45.548_micRespv2l4_recorded\recording_micRespv2l4_2023-11-29_09h16.39.594.wav;181.40239930013195;;None;181.40239930013195;181.40239930013195;181.40239930013195;181.40239930013195;181.40239930013195;181.40239930013195;;;;;;160204;001;2023-11-29_09h13.45.548;REPSWITCH1_version2_list4;2022.2.4;144.01294968939203;
REPSWITCH1/PICTURE_552.png;manzana;type;gold;nontarget;1;NT;2;4;4;2;Stim6_Set2;1;repeat;34;33;34;0;33;33;33;;;;;;;;;;;;;;;;;;;;;;;181.90253490000032;183.04842470004223;183.04842470004223;183.04842470004223;183.04842470004223;183.04842470004223;183.04842470004223;183.04842470004223;183.04842470004223;['m', 'a', 'n', 'z', 'a', 'n', 'a'];0;[0.9366154000163078, 1.065192800015211, 1.1818746998906136, 1.3845995999872684, 1.665373999858275, 1.9054649998433888, 2.0001966999843717];manzana;C:\2023\REPSWITCH21092023\REPSWITCH_excgange\REPSWITCH_excgange\data/160204_REPSWITCH1_version2_list4_2023-11-29_09h13.45.548_micRespv2l4_recorded\recording_micRespv2l4_2023-11-29_09h16.44.269.wav;186.07660820009187;186.5766839000862;None;186.07660820009187;186.07660820009187;186.07660820009187;186.07660820009187;186.07660820009187;186.07660820009187;;;;;;160204;001;2023-11-29_09h13.45.548;REPSWITCH1_version2_list4;2022.2.4;144.01294968939203;
REPSWITCH1/PICTURE_552.png;manzana;speak;darkblue;switch;1;T;2;4;4;2;Stim6_Set2;0;None;35;34;35;0;34;34;34;;;;;;;;;;;;;;;;;;;;;;;186.5766839000862;187.7018022001721;187.7018022001721;187.7018022001721;187.7018022001721;187.7018022001721;187.7018022001721;187.7018022001721;187.7018022001721;None;0;;;C:\2023\REPSWITCH21092023\REPSWITCH_excgange\REPSWITCH_excgange\data/160204_REPSWITCH1_version2_list4_2023-11-29_09h13.45.548_micRespv2l4_recorded\recording_micRespv2l4_2023-11-29_09h16.48.922.wav;190.72996550006792;;None;190.72996550006792;190.72996550006792;190.72996550006792;190.72996550006792;190.72996550006792;190.72996550006792;;;;;;160204;001;2023-11-29_09h13.45.548;REPSWITCH1_version2_list4;2022.2.4;144.01294968939203;
REPSWITCH1/PICTURE_135.png;traje;speak;darkblue;filler;2;F;2;4;4;2;Stim3_Set1;0;None;36;35;36;0;35;35;35;;;;;;;;;;;;;;;;;;;;;;;191.23004640010186;192.29272620007396;192.29272620007396;192.29272620007396;192.29272620007396;192.29272620007396;192.29272620007396;192.29272620007396;192.29272620007396;None;0;;;C:\2023\REPSWITCH21092023\REPSWITCH_excgange\REPSWITCH_excgange\data/160204_REPSWITCH1_version2_list4_2023-11-29_09h13.45.548_micRespv2l4_recorded\recording_micRespv2l4_2023-11-29_09h16.53.512.wav;195.31387660000473;195.81395180011168;None;195.31387660000473;195.31387660000473;195.31387660000473;195.31387660000473;195.31387660000473;195.31387660000473;;;;;;160204;001;2023-11-29_09h13.45.548;REPSWITCH1_version2_list4;2022.2.4;144.01294968939203;
REPSWITCH1/PICTURE_152.png;caracol;speak;darkblue;nontarget;2;NT;2;4;4;2;Stim2_Set2;1;repeat;37;36;37;0;36;36;36;;;;;;;;;;;;;;;;;;;;;;;195.81395180011168;196.88361010001972;196.88361010001972;196.88361010001972;196.88361010001972;196.88361010001972;196.88361010001972;196.88361010001972;196.88361010001972;None;0;;;C:\2023\REPSWITCH21092023\REPSWITCH_excgange\REPSWITCH_excgange\data/160204_REPSWITCH1_version2_list4_2023-11-29_09h13.45.548_micRespv2l4_recorded\recording_micRespv2l4_2023-11-29_09h16.58.104.wav;199.91169500001706;;None;199.91169500001706;199.91169500001706;199.91169500001706;199.91169500001706;199.91169500001706;199.91169500001706;;;;;;160204;001;2023-11-29_09h13.45.548;REPSWITCH1_version2_list4;2022.2.4;144.01294968939203;
REPSWITCH1/PICTURE_152.png;caracol;type;gold;switch;1;T;2;4;4;2;Stim2_Set2;0;None;38;37;38;0;37;37;37;;;;;;;;;;;;;;;;;;;;;;;200.41176529997028;201.50918030017056;201.50918030017056;201.50918030017056;201.50918030017056;201.50918030017056;201.50918030017056;201.50918030017056;201.50918030017056;['c', 'a', 'r', 'a', 'c', 'o', 'l'];0;[0.8029563999734819, 0.9871537000872195, 1.1593373001087457, 1.306170100113377, 1.6021775000263005, 1.7177574001252651, 1.9234392000362277];caracol;C:\2023\REPSWITCH21092023\REPSWITCH_excgange\REPSWITCH_excgange\data/160204_REPSWITCH1_version2_list4_2023-11-29_09h13.45.548_micRespv2l4_recorded\recording_micRespv2l4_2023-11-29_09h17.02.730.wav;204.5373886001762;;None;204.5373886001762;204.5373886001762;204.5373886001762;204.5373886001762;204.5373886001762;204.5373886001762;;;;;;160204;001;2023-11-29_09h13.45.548;REPSWITCH1_version2_list4;2022.2.4;144.01294968939203;
REPSWITCH1/PICTURE_381.png;fresa;type;gold;filler;1;F;2;4;4;2;Stim2_Set1;0;None;39;38;39;0;38;38;38;;;;;;;;;;;;;;;;;;;;;;;205.03739559999667;206.12786370003596;206.12786370003596;206.12786370003596;206.12786370003596;206.12786370003596;206.12786370003596;206.12786370003596;206.12786370003596;['f', 'r', 'e', 's', 'a'];0;[0.7321405000984669, 0.933465100126341, 1.0420606001280248, 1.1925959000363946, 1.3889411001000553];fresa;C:\2023\REPSWITCH21092023\REPSWITCH_excgange\REPSWITCH_excgange\data/160204_REPSWITCH1_version2_list4_2023-11-29_09h13.45.548_micRespv2l4_recorded\recording_micRespv2l4_2023-11-29_09h17.07.348.wav;209.1490325999912;209.64915760001168;None;209.1490325999912;209.1490325999912;209.1490325999912;209.1490325999912;209.1490325999912;209.1490325999912;;;;;;160204;001;2023-11-29_09h13.45.548;REPSWITCH1_version2_list4;2022.2.4;144.01294968939203;
REPSWITCH1/PICTURE_446.png;cerdo;type;gold;nontarget;1;NT;2;4;4;2;Stim7_Set2;1;repeat;40;39;40;0;39;39;39;;;;;;;;;;;;;;;;;;;;;;;209.64915760001168;210.74650030001067;210.74650030001067;210.74650030001067;210.74650030001067;210.74650030001067;210.74650030001067;210.74650030001067;210.74650030001067;['c', 'e', 'r', 'd', 'o'];0;[0.6986690000630915, 0.9041041999589652, 1.0147961999755353, 1.225342100020498, 1.4545800001360476];cerdo;C:\2023\REPSWITCH21092023\REPSWITCH_excgange\REPSWITCH_excgange\data/160204_REPSWITCH1_version2_list4_2023-11-29_09h13.45.548_micRespv2l4_recorded\recording_micRespv2l4_2023-11-29_09h17.11.967.wav;213.77469560015015;;None;213.77469560015015;213.77469560015015;213.77469560015015;213.77469560015015;213.77469560015015;213.77469560015015;;;;;;160204;001;2023-11-29_09h13.45.548;REPSWITCH1_version2_list4;2022.2.4;144.01294968939203;
REPSWITCH1/PICTURE_446.png;cerdo;speak;darkblue;switch;2;T;2;4;4;2;Stim7_Set2;0;None;41;40;41;0;40;40;40;;;;;;;;;;;;;;;;;;;;;;;214.27465180004947;215.31646410003304;215.31646410003304;215.31646410003304;215.31646410003304;215.31646410003304;215.31646410003304;215.31646410003304;215.31646410003304;None;0;;;C:\2023\REPSWITCH21092023\REPSWITCH_excgange\REPSWITCH_excgange\data/160204_REPSWITCH1_version2_list4_2023-11-29_09h13.45.548_micRespv2l4_recorded\recording_micRespv2l4_2023-11-29_09h17.16.537.wav;218.34469370008446;;None;218.34469370008446;218.34469370008446;218.34469370008446;218.34469370008446;218.34469370008446;218.34469370008446;;;;;;160204;001;2023-11-29_09h13.45.548;REPSWITCH1_version2_list4;2022.2.4;144.01294968939203;
REPSWITCH1/PICTURE_264.png;mano;speak;darkblue;nontarget;2;NT;2;4;4;2;Stim3_Set2;0;None;42;41;42;0;41;41;41;;;;;;;;;;;;;;;;;;;;;;;218.84470750018954;219.99071340006776;219.99071340006776;219.99071340006776;219.99071340006776;219.99071340006776;219.99071340006776;219.99071340006776;219.99071340006776;None;0;;;C:\2023\REPSWITCH21092023\REPSWITCH_excgange\REPSWITCH_excgange\data/160204_REPSWITCH1_version2_list4_2023-11-29_09h13.45.548_micRespv2l4_recorded\recording_micRespv2l4_2023-11-29_09h17.21.211.wav;223.01886279997416;;None;223.01886279997416;223.01886279997416;223.01886279997416;223.01886279997416;223.01886279997416;223.01886279997416;;;;;;160204;001;2023-11-29_09h13.45.548;REPSWITCH1_version2_list4;2022.2.4;144.01294968939203;
REPSWITCH1/PICTURE_264.png;mano;speak;darkblue;repeat;2;T;2;4;4;2;Stim3_Set2;0;None;43;42;43;0;42;42;42;;;;;;;;;;;;;;;;;;;;;;;223.518903600052;224.6579864001833;224.6579864001833;224.6579864001833;224.6579864001833;224.6579864001833;224.6579864001833;224.6579864001833;224.6579864001833;None;0;;;C:\2023\REPSWITCH21092023\REPSWITCH_excgange\REPSWITCH_excgange\data/160204_REPSWITCH1_version2_list4_2023-11-29_09h13.45.548_micRespv2l4_recorded\recording_micRespv2l4_2023-11-29_09h17.25.878.wav;227.68614370003343;;None;227.68614370003343;227.68614370003343;227.68614370003343;227.68614370003343;227.68614370003343;227.68614370003343;;;;;;160204;001;2023-11-29_09h13.45.548;REPSWITCH1_version2_list4;2022.2.4;144.01294968939203;
REPSWITCH1/PICTURE_128.png;muñeca;type;gold;filler;1;F;2;4;4;2;Stim4_Set1;0;None;44;43;44;0;43;43;43;;;;;;;;;;;;;;;;;;;;;;;228.18619609996676;229.27661820012145;229.27661820012145;229.27661820012145;229.27661820012145;229.27661820012145;229.27661820012145;229.27661820012145;229.27661820012145;['m', 'u', 'ñ', 'e', 'c', 'a'];0;[0.7474740000907332, 1.0095848999917507, 1.2533051001373678, 1.3897951999679208, 1.6411983000580221, 1.798668600153178];muñeca;C:\2023\REPSWITCH21092023\REPSWITCH_excgange\REPSWITCH_excgange\data/160204_REPSWITCH1_version2_list4_2023-11-29_09h13.45.548_micRespv2l4_recorded\recording_micRespv2l4_2023-11-29_09h17.30.497.wav;232.29781640018336;232.79787520016544;None;232.29781640018336;232.29781640018336;232.29781640018336;232.29781640018336;232.29781640018336;232.29781640018336;;;;;;160204;001;2023-11-29_09h13.45.548;REPSWITCH1_version2_list4;2022.2.4;144.01294968939203;
REPSWITCH1/PICTURE_30.png;granja;speak;darkblue;nontarget;2;NT;2;4;4;2;Stim5_Set2;1;switch;45;44;45;0;44;44;44;;;;;;;;;;;;;;;;;;;;;;;232.79787520016544;233.8813736999873;233.8813736999873;233.8813736999873;233.8813736999873;233.8813736999873;233.8813736999873;233.8813736999873;233.8813736999873;None;0;;;C:\2023\REPSWITCH21092023\REPSWITCH_excgange\REPSWITCH_excgange\data/160204_REPSWITCH1_version2_list4_2023-11-29_09h13.45.548_micRespv2l4_recorded\recording_micRespv2l4_2023-11-29_09h17.35.102.wav;236.90954330004752;237.40959660010412;None;236.90954330004752;236.90954330004752;236.90954330004752;236.90954330004752;236.90954330004752;236.90954330004752;;;;;;160204;001;2023-11-29_09h13.45.548;REPSWITCH1_version2_list4;2022.2.4;144.01294968939203;
REPSWITCH1/PICTURE_30.png;granja;speak;darkblue;repeat;2;T;2;4;4;2;Stim5_Set2;0;None;46;45;46;0;45;45;45;;;;;;;;;;;;;;;;;;;;;;;237.40959660010412;238.52778560016304;238.52778560016304;238.52778560016304;238.52778560016304;238.52778560016304;238.52778560016304;238.52778560016304;238.52778560016304;None;0;;;C:\2023\REPSWITCH21092023\REPSWITCH_excgange\REPSWITCH_excgange\data/160204_REPSWITCH1_version2_list4_2023-11-29_09h13.45.548_micRespv2l4_recorded\recording_micRespv2l4_2023-11-29_09h17.39.748.wav;241.55603149998933;;None;241.55603149998933;241.55603149998933;241.55603149998933;241.55603149998933;241.55603149998933;241.55603149998933;;;;;;160204;001;2023-11-29_09h13.45.548;REPSWITCH1_version2_list4;2022.2.4;144.01294968939203;
REPSWITCH1/PICTURE_646.png;tronco;type;gold;filler;1;F;2;4;4;2;Extra4;0;None;47;46;47;0;46;46;46;;;;;;;;;;;;;;;;;;;;;;;242.056041700067;243.26454470003955;243.26454470003955;243.26454470003955;243.26454470003955;243.26454470003955;243.26454470003955;243.26454470003955;243.26454470003955;['t', 'r', 'o', 'n', 'c', 'o'];0;[1.0662963001523167, 1.3347791000269353, 1.5744515000842512, 1.7877257999498397, 1.980043699964881, 2.140996700152755];tronco;C:\2023\REPSWITCH21092023\REPSWITCH_excgange\REPSWITCH_excgange\data/160204_REPSWITCH1_version2_list4_2023-11-29_09h13.45.548_micRespv2l4_recorded\recording_micRespv2l4_2023-11-29_09h17.44.484.wav;246.2857242000755;246.78578889998607;None;246.2857242000755;246.2857242000755;246.2857242000755;246.2857242000755;246.2857242000755;246.2857242000755;;;;;;160204;001;2023-11-29_09h13.45.548;REPSWITCH1_version2_list4;2022.2.4;144.01294968939203;
REPSWITCH1/PICTURE_16.png;cazador;speak;darkblue;filler;2;F;2;4;4;2;Stim6_Set1;0;None;48;47;48;0;47;47;47;;;;;;;;;;;;;;;;;;;;;;;246.78578889998607;247.88323340006173;247.88323340006173;247.88323340006173;247.88323340006173;247.88323340006173;247.88323340006173;247.88323340006173;247.88323340006173;None;0;;;C:\2023\REPSWITCH21092023\REPSWITCH_excgange\REPSWITCH_excgange\data/160204_REPSWITCH1_version2_list4_2023-11-29_09h13.45.548_micRespv2l4_recorded\recording_micRespv2l4_2023-11-29_09h17.49.103.wav;250.91141080018133;;None;250.91141080018133;250.91141080018133;250.91141080018133;250.91141080018133;250.91141080018133;250.91141080018133;;;;;;160204;001;2023-11-29_09h13.45.548;REPSWITCH1_version2_list4;2022.2.4;144.01294968939203;
REPSWITCH1/PICTURE_175.png;pintor;speak;darkblue;nontarget;2;NT;2;4;4;2;Stim1_Set2;1;repeat;49;48;49;0;48;48;48;;;;;;;;;;;;;;;;;;;;;;;251.41140920016915;252.46017980016768;252.46017980016768;252.46017980016768;252.46017980016768;252.46017980016768;252.46017980016768;252.46017980016768;252.46017980016768;None;0;;;C:\2023\REPSWITCH21092023\REPSWITCH_excgange\REPSWITCH_excgange\data/160204_REPSWITCH1_version2_list4_2023-11-29_09h13.45.548_micRespv2l4_recorded\recording_micRespv2l4_2023-11-29_09h17.53.680.wav;255.4883542000316;;None;255.4883542000316;255.4883542000316;255.4883542000316;255.4883542000316;255.4883542000316;255.4883542000316;;;;;;160204;001;2023-11-29_09h13.45.548;REPSWITCH1_version2_list4;2022.2.4;144.01294968939203;
REPSWITCH1/PICTURE_175.png;pintor;type;gold;switch;1;T;2;4;4;2;Stim1_Set2;0;None;50;49;50;0;49;49;49;;;;;;;;;;;;;;;;;;;;;;;255.9884298001416;257.13434880017303;257.13434880017303;257.13434880017303;257.13434880017303;257.13434880017303;257.13434880017303;257.13434880017303;257.13434880017303;['p', 'i', 'n', 't', 'o', 'r'];0;[0.904304999858141, 1.0303660000208765, 1.2705748998560011, 1.4237649999558926, 1.5512712998315692, 1.9154542000032961];pintor;C:\2023\REPSWITCH21092023\REPSWITCH_excgange\REPSWITCH_excgange\data/160204_REPSWITCH1_version2_list4_2023-11-29_09h13.45.548_micRespv2l4_recorded\recording_micRespv2l4_2023-11-29_09h17.58.354.wav;260.16253880015574;;None;260.16253880015574;260.16253880015574;260.16253880015574;260.16253880015574;260.16253880015574;260.16253880015574;;;;;;160204;001;2023-11-29_09h13.45.548;REPSWITCH1_version2_list4;2022.2.4;144.01294968939203;
REPSWITCH1/PICTURE_663.png;columna;speak;darkblue;filler;2;F;4;4;4;2;Extra6;0;None;51;50;51;0;50;50;50;;;;;;;;;;;;;;;;;;;;;;;260.66265940014273;261.73914339998737;261.73914339998737;261.73914339998737;261.73914339998737;261.73914339998737;261.73914339998737;261.73914339998737;261.73914339998737;None;0;;;C:\2023\REPSWITCH21092023\REPSWITCH_excgange\REPSWITCH_excgange\data/160204_REPSWITCH1_version2_list4_2023-11-29_09h13.45.548_micRespv2l4_recorded\recording_micRespv2l4_2023-11-29_09h18.02.959.wav;264.76042259996757;265.2604130001273;space;264.76042259996757;264.76042259996757;264.76042259996757;264.76042259996757;264.76042259996757;264.76042259996757;265.2604130001273;265.2604130001273;12.308384999865666;;;160204;001;2023-11-29_09h13.45.548;REPSWITCH1_version2_list4;2022.2.4;144.01294968939203;
REPSWITCH1/PICTURE_35.png;oreja;type;gold;nontarget;1;NT;3;4;4;2;Stim5_Set3;0;None;52;51;52;0;51;51;51;;;;;;;;;;;;;;;;;;;;;;;277.5815084001515;278.6232788001653;278.6232788001653;278.6232788001653;278.6232788001653;278.6232788001653;278.6232788001653;278.6232788001653;278.6232788001653;['o', 'r', 'e', 'j', 'a'];0;[0.9057646000292152, 1.076486699981615, 1.2647488999646157, 1.4212540001608431, 1.5661528001073748];oreja;C:\2023\REPSWITCH21092023\REPSWITCH_excgange\REPSWITCH_excgange\data/160204_REPSWITCH1_version2_list4_2023-11-29_09h13.45.548_micRespv2l4_recorded\recording_micRespv2l4_2023-11-29_09h18.19.843.wav;281.64444040018134;282.1445375001058;None;281.64444040018134;281.64444040018134;281.64444040018134;281.64444040018134;281.64444040018134;281.64444040018134;;;;;;160204;001;2023-11-29_09h13.45.548;REPSWITCH1_version2_list4;2022.2.4;144.01294968939203;
REPSWITCH1/PICTURE_35.png;oreja;speak;darkblue;switch;2;T;3;4;4;2;Stim5_Set3;0;None;53;52;53;0;52;52;52;;;;;;;;;;;;;;;;;;;;;;;282.1445375001058;283.2627797999885;283.2627797999885;283.2627797999885;283.2627797999885;283.2627797999885;283.2627797999885;283.2627797999885;283.2627797999885;None;0;;;C:\2023\REPSWITCH21092023\REPSWITCH_excgange\REPSWITCH_excgange\data/160204_REPSWITCH1_version2_list4_2023-11-29_09h13.45.548_micRespv2l4_recorded\recording_micRespv2l4_2023-11-29_09h18.24.482.wav;286.2839246999938;286.7840115001891;None;286.2839246999938;286.2839246999938;286.2839246999938;286.2839246999938;286.2839246999938;286.2839246999938;;;;;;160204;001;2023-11-29_09h13.45.548;REPSWITCH1_version2_list4;2022.2.4;144.01294968939203;
REPSWITCH1/PICTURE_199.png;falda;speak;darkblue;filler;2;F;3;4;4;2;Stim8_Set2;0;None;54;53;54;0;53;53;53;;;;;;;;;;;;;;;;;;;;;;;286.7840115001891;287.9022690001875;287.9022690001875;287.9022690001875;287.9022690001875;287.9022690001875;287.9022690001875;287.9022690001875;287.9022690001875;None;0;;;C:\2023\REPSWITCH21092023\REPSWITCH_excgange\REPSWITCH_excgange\data/160204_REPSWITCH1_version2_list4_2023-11-29_09h13.45.548_micRespv2l4_recorded\recording_micRespv2l4_2023-11-29_09h18.29.122.wav;290.92339570005424;291.42349350010045;None;290.92339570005424;290.92339570005424;290.92339570005424;290.92339570005424;290.92339570005424;290.92339570005424;;;;;;160204;001;2023-11-29_09h13.45.548;REPSWITCH1_version2_list4;2022.2.4;144.01294968939203;
REPSWITCH1/PICTURE_576.png;guante;speak;darkblue;nontarget;2;NT;3;4;4;2;Stim1_Set3;1;repeat;55;54;55;0;54;54;54;;;;;;;;;;;;;;;;;;;;;;;291.42349350010045;292.48619660013355;292.48619660013355;292.48619660013355;292.48619660013355;292.48619660013355;292.48619660013355;292.48619660013355;292.48619660013355;None;0;;;C:\2023\REPSWITCH21092023\REPSWITCH_excgange\REPSWITCH_excgange\data/160204_REPSWITCH1_version2_list4_2023-11-29_09h13.45.548_micRespv2l4_recorded\recording_micRespv2l4_2023-11-29_09h18.33.705.wav;295.5073538001161;296.00749079999514;None;295.5073538001161;295.5073538001161;295.5073538001161;295.5073538001161;295.5073538001161;295.5073538001161;;;;;;160204;001;2023-11-29_09h13.45.548;REPSWITCH1_version2_list4;2022.2.4;144.01294968939203;
REPSWITCH1/PICTURE_576.png;guante;type;gold;switch;1;T;3;4;4;2;Stim1_Set3;0;None;56;55;56;0;55;55;55;;;;;;;;;;;;;;;;;;;;;;;296.00749079999514;297.1117346000392;297.1117346000392;297.1117346000392;297.1117346000392;297.1117346000392;297.1117346000392;297.1117346000392;297.1117346000392;['g', 'u', 'a', 'n', 't', 'e'];0;[0.8661153998691589, 0.9926974000409245, 1.091356299817562, 1.2456854998599738, 1.3403870998881757, 1.4527779999189079];guante;C:\2023\REPSWITCH21092023\REPSWITCH_excgange\REPSWITCH_excgange\data/160204_REPSWITCH1_version2_list4_2023-11-29_09h13.45.548_micRespv2l4_recorded\recording_micRespv2l4_2023-11-29_09h18.38.331.wav;300.1329416001681;300.633004500065;None;300.1329416001681;300.1329416001681;300.1329416001681;300.1329416001681;300.1329416001681;300.1329416001681;;;;;;160204;001;2023-11-29_09h13.45.548;REPSWITCH1_version2_list4;2022.2.4;144.01294968939203;
REPSWITCH1/PICTURE_517.png;cuerda;type;gold;filler;1;F;3;4;4;2;Stim4_Set2;1;repeat;57;56;57;0;56;56;56;;;;;;;;;;;;;;;;;;;;;;;300.633004500065;301.7789743000176;301.7789743000176;301.7789743000176;301.7789743000176;301.7789743000176;301.7789743000176;301.7789743000176;301.7789743000176;['c', 'u', 'e', 'r', 'd', 'a'];0;[0.801612599985674, 0.9722794000990689, 1.0333682000637054, 1.1917302999645472, 1.3885254999622703, 1.517970200162381];cuerda;C:\2023\REPSWITCH21092023\REPSWITCH_excgange\REPSWITCH_excgange\data/160204_REPSWITCH1_version2_list4_2023-11-29_09h13.45.548_micRespv2l4_recorded\recording_micRespv2l4_2023-11-29_09h18.42.999.wav;304.80715210014023;;None;304.80715210014023;304.80715210014023;304.80715210014023;304.80715210014023;304.80715210014023;304.80715210014023;;;;;;160204;001;2023-11-29_09h13.45.548;REPSWITCH1_version2_list4;2022.2.4;144.01294968939203;
REPSWITCH1/PICTURE_271.png;conejo;type;gold;nontarget;1;NT;3;4;4;2;Stim7_Set3;1;repeat;58;57;58;0;57;57;57;;;;;;;;;;;;;;;;;;;;;;;305.3072264001239;306.3907104001846;306.3907104001846;306.3907104001846;306.3907104001846;306.3907104001846;306.3907104001846;306.3907104001846;306.3907104001846;['c', 'o', 'n', 'e', 'j', 'o'];0;[0.7211227000225335, 0.7893271001521498, 1.0094239001628011, 1.1816200001630932, 1.3640017001889646, 1.4836007000412792];conejo;C:\2023\REPSWITCH21092023\REPSWITCH_excgange\REPSWITCH_excgange\data/160204_REPSWITCH1_version2_list4_2023-11-29_09h13.45.548_micRespv2l4_recorded\recording_micRespv2l4_2023-11-29_09h18.47.612.wav;309.41890730010346;;None;309.41890730010346;309.41890730010346;309.41890730010346;309.41890730010346;309.41890730010346;309.41890730010346;;;;;;160204;001;2023-11-29_09h13.45.548;REPSWITCH1_version2_list4;2022.2.4;144.01294968939203;
REPSWITCH1/PICTURE_271.png;conejo;speak;darkblue;switch;2;T;3;4;4;2;Stim7_Set3;0;None;59;58;59;0;58;58;58;;;;;;;;;;;;;;;;;;;;;;;309.91890400019474;311.0302576001268;311.0302576001268;311.0302576001268;311.0302576001268;311.0302576001268;311.0302576001268;311.0302576001268;311.0302576001268;None;0;;;C:\2023\REPSWITCH21092023\REPSWITCH_excgange\REPSWITCH_excgange\data/160204_REPSWITCH1_version2_list4_2023-11-29_09h13.45.548_micRespv2l4_recorded\recording_micRespv2l4_2023-11-29_09h18.52.250.wav;314.05842390004545;;None;314.05842390004545;314.05842390004545;314.05842390004545;314.05842390004545;314.05842390004545;314.05842390004545;;;;;;160204;001;2023-11-29_09h13.45.548;REPSWITCH1_version2_list4;2022.2.4;144.01294968939203;
REPSWITCH1/PICTURE_552.png;manzana;type;gold;filler;1;F;3;4;4;2;Stim6_Set2;0;None;60;59;60;0;59;59;59;;;;;;;;;;;;;;;;;;;;;;;314.5584174999967;315.683576800162;315.683576800162;315.683576800162;315.683576800162;315.683576800162;315.683576800162;315.683576800162;315.683576800162;['m', 'a', 'n', 'z', 'a', 'n', 'a'];0;[0.9534142999909818, 1.145374600077048, 1.2968679000623524, 1.6725447999779135, 1.9336723999585956, 2.100117600057274, 2.2100778000894934];manzana;C:\2023\REPSWITCH21092023\REPSWITCH_excgange\REPSWITCH_excgange\data/160204_REPSWITCH1_version2_list4_2023-11-29_09h13.45.548_micRespv2l4_recorded\recording_micRespv2l4_2023-11-29_09h18.56.904.wav;318.71171180019155;;None;318.71171180019155;318.71171180019155;318.71171180019155;318.71171180019155;318.71171180019155;318.71171180019155;;;;;;160204;001;2023-11-29_09h13.45.548;REPSWITCH1_version2_list4;2022.2.4;144.01294968939203;
REPSWITCH1/PICTURE_242.png;cartero;speak;darkblue;nontarget;2;NT;3;4;4;2;Stim3_Set3;1;switch;61;60;61;0;60;60;60;;;;;;;;;;;;;;;;;;;;;;;319.2117680001538;320.3230765000917;320.3230765000917;320.3230765000917;320.3230765000917;320.3230765000917;320.3230765000917;320.3230765000917;320.3230765000917;None;0;;;C:\2023\REPSWITCH21092023\REPSWITCH_excgange\REPSWITCH_excgange\data/160204_REPSWITCH1_version2_list4_2023-11-29_09h13.45.548_micRespv2l4_recorded\recording_micRespv2l4_2023-11-29_09h19.01.544.wav;323.35123690008186;;None;323.35123690008186;323.35123690008186;323.35123690008186;323.35123690008186;323.35123690008186;323.35123690008186;;;;;;160204;001;2023-11-29_09h13.45.548;REPSWITCH1_version2_list4;2022.2.4;144.01294968939203;
REPSWITCH1/PICTURE_242.png;cartero;speak;darkblue;repeat;2;T;3;4;4;2;Stim3_Set3;0;None;62;61;62;0;61;61;61;;;;;;;;;;;;;;;;;;;;;;;323.85127099999227;324.94865160016343;324.94865160016343;324.94865160016343;324.94865160016343;324.94865160016343;324.94865160016343;324.94865160016343;324.94865160016343;None;0;;;C:\2023\REPSWITCH21092023\REPSWITCH_excgange\REPSWITCH_excgange\data/160204_REPSWITCH1_version2_list4_2023-11-29_09h13.45.548_micRespv2l4_recorded\recording_micRespv2l4_2023-11-29_09h19.06.168.wav;327.9698463999666;328.46992760011926;None;327.9698463999666;327.9698463999666;327.9698463999666;327.9698463999666;327.9698463999666;327.9698463999666;;;;;;160204;001;2023-11-29_09h13.45.548;REPSWITCH1_version2_list4;2022.2.4;144.01294968939203;
REPSWITCH1/PICTURE_152.png;caracol;speak;darkblue;filler;2;F;3;4;4;2;Stim2_Set2;0;None;63;62;63;0;62;62;62;;;;;;;;;;;;;;;;;;;;;;;328.46992760011926;329.64368590014055;329.64368590014055;329.64368590014055;329.64368590014055;329.64368590014055;329.64368590014055;329.64368590014055;329.64368590014055;None;0;;;C:\2023\REPSWITCH21092023\REPSWITCH_excgange\REPSWITCH_excgange\data/160204_REPSWITCH1_version2_list4_2023-11-29_09h13.45.548_micRespv2l4_recorded\recording_micRespv2l4_2023-11-29_09h19.10.863.wav;332.6648910001386;333.1649607999716;None;332.6648910001386;332.6648910001386;332.6648910001386;332.6648910001386;332.6648910001386;332.6648910001386;;;;;;160204;001;2023-11-29_09h13.45.548;REPSWITCH1_version2_list4;2022.2.4;144.01294968939203;
REPSWITCH1/PICTURE_446.png;cerdo;type;gold;filler;1;F;3;4;4;2;Stim7_Set2;1;switch;64;63;64;0;63;63;63;;;;;;;;;;;;;;;;;;;;;;;333.1649607999716;334.3110221000388;334.3110221000388;334.3110221000388;334.3110221000388;334.3110221000388;334.3110221000388;334.3110221000388;334.3110221000388;['c', 'e', 'r', 'd', 'o'];0;[0.8472419998142868, 1.0957706000190228, 1.234747399808839, 1.488110600039363, 1.6535727998707443];cerdo;C:\2023\REPSWITCH21092023\REPSWITCH_excgange\REPSWITCH_excgange\data/160204_REPSWITCH1_version2_list4_2023-11-29_09h13.45.548_micRespv2l4_recorded\recording_micRespv2l4_2023-11-29_09h19.15.531.wav;337.3391929001082;;None;337.3391929001082;337.3391929001082;337.3391929001082;337.3391929001082;337.3391929001082;337.3391929001082;;;;;;160204;001;2023-11-29_09h13.45.548;REPSWITCH1_version2_list4;2022.2.4;144.01294968939203;
REPSWITCH1/PICTURE_610.png;miel;speak;darkblue;nontarget;2;NT;3;4;4;2;Stim2_Set3;1;switch;65;64;65;0;64;64;64;;;;;;;;;;;;;;;;;;;;;;;337.83918570005335;338.90181499999017;338.90181499999017;338.90181499999017;338.90181499999017;338.90181499999017;338.90181499999017;338.90181499999017;338.90181499999017;None;0;;;C:\2023\REPSWITCH21092023\REPSWITCH_excgange\REPSWITCH_excgange\data/160204_REPSWITCH1_version2_list4_2023-11-29_09h13.45.548_micRespv2l4_recorded\recording_micRespv2l4_2023-11-29_09h19.20.122.wav;341.93006100016646;;None;341.93006100016646;341.93006100016646;341.93006100016646;341.93006100016646;341.93006100016646;341.93006100016646;;;;;;160204;001;2023-11-29_09h13.45.548;REPSWITCH1_version2_list4;2022.2.4;144.01294968939203;
REPSWITCH1/PICTURE_610.png;miel;speak;darkblue;repeat;2;T;3;4;4;2;Stim2_Set3;0;None;66;65;66;0;65;65;65;;;;;;;;;;;;;;;;;;;;;;;342.43005380011164;343.5899124999996;343.5899124999996;343.5899124999996;343.5899124999996;343.5899124999996;343.5899124999996;343.5899124999996;343.5899124999996;None;0;;;C:\2023\REPSWITCH21092023\REPSWITCH_excgange\REPSWITCH_excgange\data/160204_REPSWITCH1_version2_list4_2023-11-29_09h13.45.548_micRespv2l4_recorded\recording_micRespv2l4_2023-11-29_09h19.24.809.wav;346.6180974000599;;None;346.6180974000599;346.6180974000599;346.6180974000599;346.6180974000599;346.6180974000599;346.6180974000599;;;;;;160204;001;2023-11-29_09h13.45.548;REPSWITCH1_version2_list4;2022.2.4;144.01294968939203;
REPSWITCH1/PICTURE_320.png;iglesia;speak;darkblue;nontarget;2;NT;3;4;4;2;Stim8_Set3;1;repeat;67;66;67;0;66;66;66;;;;;;;;;;;;;;;;;;;;;;;347.11814930010587;348.31968650012277;348.31968650012277;348.31968650012277;348.31968650012277;348.31968650012277;348.31968650012277;348.31968650012277;348.31968650012277;None;0;;;C:\2023\REPSWITCH21092023\REPSWITCH_excgange\REPSWITCH_excgange\data/160204_REPSWITCH1_version2_list4_2023-11-29_09h13.45.548_micRespv2l4_recorded\recording_micRespv2l4_2023-11-29_09h19.29.539.wav;351.34100320003927;351.8409884001594;None;351.34100320003927;351.34100320003927;351.34100320003927;351.34100320003927;351.34100320003927;351.34100320003927;;;;;;160204;001;2023-11-29_09h13.45.548;REPSWITCH1_version2_list4;2022.2.4;144.01294968939203;
REPSWITCH1/PICTURE_320.png;iglesia;type;gold;switch;1;T;3;4;4;2;Stim8_Set3;0;None;68;67;68;0;67;67;67;;;;;;;;;;;;;;;;;;;;;;;351.8409884001594;352.9869843001943;352.9869843001943;352.9869843001943;352.9869843001943;352.9869843001943;352.9869843001943;352.9869843001943;352.9869843001943;['i', 'g', 'u', 'e', 'l', 'backspace', 'backspace', 'backspace', 'l', 'e', 's', 'i'];0;[0.6257889000698924, 0.7643011000473052, 0.8659302999731153, 1.0004396999720484, 1.0722304000519216, 1.4157483000308275, 1.6390887000598013, 1.7536631999537349, 2.1138830999843776, 2.290285099996254, 2.431184400105849, 2.877984599908814];iglesi;C:\2023\REPSWITCH21092023\REPSWITCH_excgange\REPSWITCH_excgange\data/160204_REPSWITCH1_version2_list4_2023-11-29_09h13.45.548_micRespv2l4_recorded\recording_micRespv2l4_2023-11-29_09h19.34.207.wav;356.0081952000037;356.50825250009075;None;356.0081952000037;356.0081952000037;356.0081952000037;356.0081952000037;356.0081952000037;356.0081952000037;;;;;;160204;001;2023-11-29_09h13.45.548;REPSWITCH1_version2_list4;2022.2.4;144.01294968939203;
REPSWITCH1/PICTURE_30.png;granja;speak;darkblue;filler;2;F;3;4;4;2;Stim5_Set2;0;None;69;68;69;0;68;68;68;;;;;;;;;;;;;;;;;;;;;;;356.50825250009075;357.6264341000933;357.6264341000933;357.6264341000933;357.6264341000933;357.6264341000933;357.6264341000933;357.6264341000933;357.6264341000933;None;0;;;C:\2023\REPSWITCH21092023\REPSWITCH_excgange\REPSWITCH_excgange\data/160204_REPSWITCH1_version2_list4_2023-11-29_09h13.45.548_micRespv2l4_recorded\recording_micRespv2l4_2023-11-29_09h19.38.846.wav;360.6546834001783;;None;360.6546834001783;360.6546834001783;360.6546834001783;360.6546834001783;360.6546834001783;360.6546834001783;;;;;;160204;001;2023-11-29_09h13.45.548;REPSWITCH1_version2_list4;2022.2.4;144.01294968939203;
REPSWITCH1/PICTURE_264.png;mano;type;gold;filler;1;F;3;4;4;2;Stim3_Set2;0;None;70;69;70;0;69;69;69;;;;;;;;;;;;;;;;;;;;;;;361.1546483000275;362.17566730012186;362.17566730012186;362.17566730012186;362.17566730012186;362.17566730012186;362.17566730012186;362.17566730012186;362.17566730012186;['m', 'a', 'n', 'o'];0;[0.7294032999780029, 0.8552312001120299, 0.9877822999842465, 1.0814710999839008];mano;C:\2023\REPSWITCH21092023\REPSWITCH_excgange\REPSWITCH_excgange\data/160204_REPSWITCH1_version2_list4_2023-11-29_09h13.45.548_micRespv2l4_recorded\recording_micRespv2l4_2023-11-29_09h19.43.395.wav;365.2038618000224;;None;365.2038618000224;365.2038618000224;365.2038618000224;365.2038618000224;365.2038618000224;365.2038618000224;;;;;;160204;001;2023-11-29_09h13.45.548;REPSWITCH1_version2_list4;2022.2.4;144.01294968939203;
REPSWITCH1/PICTURE_464.png;goma;type;gold;nontarget;1;NT;3;4;4;2;Stim6_Set3;0;None;71;70;71;0;70;70;70;;;;;;;;;;;;;;;;;;;;;;;365.7039284000639;366.78736379998736;366.78736379998736;366.78736379998736;366.78736379998736;366.78736379998736;366.78736379998736;366.78736379998736;366.78736379998736;['g', 'o', 'm', 'a'];0;[0.7633549000602216, 0.8740202998742461, 1.0783458999358118, 1.1381178998854011];goma;C:\2023\REPSWITCH21092023\REPSWITCH_excgange\REPSWITCH_excgange\data/160204_REPSWITCH1_version2_list4_2023-11-29_09h13.45.548_micRespv2l4_recorded\recording_micRespv2l4_2023-11-29_09h19.48.008.wav;369.815513700014;;None;369.815513700014;369.815513700014;369.815513700014;369.815513700014;369.815513700014;369.815513700014;;;;;;160204;001;2023-11-29_09h13.45.548;REPSWITCH1_version2_list4;2022.2.4;144.01294968939203;
REPSWITCH1/PICTURE_464.png;goma;type;gold;repeat;1;T;3;4;4;2;Stim6_Set3;0;None;72;71;72;0;71;71;71;;;;;;;;;;;;;;;;;;;;;;;370.31560000008903;371.41303970012814;371.41303970012814;371.41303970012814;371.41303970012814;371.41303970012814;371.41303970012814;371.41303970012814;371.41303970012814;['g', 'o', 'm', 'a'];0;[0.6664682000409812, 0.7391945999115705, 1.0066885999403894, 1.1036771999206394];goma;C:\2023\REPSWITCH21092023\REPSWITCH_excgange\REPSWITCH_excgange\data/160204_REPSWITCH1_version2_list4_2023-11-29_09h13.45.548_micRespv2l4_recorded\recording_micRespv2l4_2023-11-29_09h19.52.633.wav;374.43415120011196;374.93424540013075;None;374.43415120011196;374.43415120011196;374.43415120011196;374.43415120011196;374.43415120011196;374.43415120011196;;;;;;160204;001;2023-11-29_09h13.45.548;REPSWITCH1_version2_list4;2022.2.4;144.01294968939203;
REPSWITCH1/PICTURE_175.png;pintor;speak;darkblue;filler;2;F;3;4;4;2;Stim1_Set2;0;None;73;72;73;0;72;72;72;;;;;;;;;;;;;;;;;;;;;;;374.93424540013075;375.9830253000837;375.9830253000837;375.9830253000837;375.9830253000837;375.9830253000837;375.9830253000837;375.9830253000837;375.9830253000837;None;0;;;C:\2023\REPSWITCH21092023\REPSWITCH_excgange\REPSWITCH_excgange\data/160204_REPSWITCH1_version2_list4_2023-11-29_09h13.45.548_micRespv2l4_recorded\recording_micRespv2l4_2023-11-29_09h19.57.203.wav;379.004183200188;379.50424610008486;None;379.004183200188;379.004183200188;379.004183200188;379.004183200188;379.004183200188;379.004183200188;;;;;;160204;001;2023-11-29_09h13.45.548;REPSWITCH1_version2_list4;2022.2.4;144.01294968939203;
REPSWITCH1/PICTURE_235.png;aguja;type;gold;nontarget;1;NT;3;4;4;2;Stim4_Set3;1;switch;74;73;74;0;73;73;73;;;;;;;;;;;;;;;;;;;;;;;379.50424610008486;380.68502990016714;380.68502990016714;380.68502990016714;380.68502990016714;380.68502990016714;380.68502990016714;380.68502990016714;380.68502990016714;['a', 'g', 'u', 'j', 'a'];0;[1.0635758000425994, 1.2444426000583917, 1.4619267000816762, 1.7340120000299066, 1.8230310999788344];aguja;C:\2023\REPSWITCH21092023\REPSWITCH_excgange\REPSWITCH_excgange\data/160204_REPSWITCH1_version2_list4_2023-11-29_09h13.45.548_micRespv2l4_recorded\recording_micRespv2l4_2023-11-29_09h20.01.905.wav;383.7131429000292;;None;383.7131429000292;383.7131429000292;383.7131429000292;383.7131429000292;383.7131429000292;383.7131429000292;;;;;;160204;001;2023-11-29_09h13.45.548;REPSWITCH1_version2_list4;2022.2.4;144.01294968939203;
REPSWITCH1/PICTURE_235.png;aguja;type;gold;repeat;1;T;3;4;4;2;Stim4_Set3;0;None;75;74;75;0;74;74;74;;;;;;;;;;;;;;;;;;;;;;;384.21327780000865;385.34533750009723;385.34533750009723;385.34533750009723;385.34533750009723;385.34533750009723;385.34533750009723;385.34533750009723;385.34533750009723;['a', 'g', 'u', 'a', 'backspace', 'j', 'a'];0;[0.6331958000082523, 0.8012918001040816, 0.8993722000159323, 1.3296183000784367, 1.8317831000313163, 2.2484204000793397, 2.43179600010626];aguja;C:\2023\REPSWITCH21092023\REPSWITCH_excgange\REPSWITCH_excgange\data/160204_REPSWITCH1_version2_list4_2023-11-29_09h13.45.548_micRespv2l4_recorded\recording_micRespv2l4_2023-11-29_09h20.06.565.wav;388.3665847000666;388.8665774001274;None;388.3665847000666;388.3665847000666;388.3665847000666;388.3665847000666;388.3665847000666;388.3665847000666;;;;;;160204;001;2023-11-29_09h13.45.548;REPSWITCH1_version2_list4;2022.2.4;144.01294968939203;
REPSWITCH1/PICTURE_576.png;guante;type;gold;filler;1;F;4;4;4;2;Stim1_Set3;1;repeat;76;75;76;0;75;75;75;;;;;;;;;;;;;;;;;;;;;;;388.8665774001274;389.9570655999705;389.9570655999705;389.9570655999705;389.9570655999705;389.9570655999705;389.9570655999705;389.9570655999705;389.9570655999705;['g', 'u', 'a', 'n', 't', 'e'];0;[0.8188847999554127, 0.9349772999994457, 1.0247353001032025, 1.2122593999374658, 1.337832000106573, 1.455409900052473];guante;C:\2023\REPSWITCH21092023\REPSWITCH_excgange\REPSWITCH_excgange\data/160204_REPSWITCH1_version2_list4_2023-11-29_09h13.45.548_micRespv2l4_recorded\recording_micRespv2l4_2023-11-29_09h20.11.177.wav;392.9781973999925;393.47829040000215;None;392.9781973999925;392.9781973999925;392.9781973999925;392.9781973999925;392.9781973999925;392.9781973999925;;;;;;160204;001;2023-11-29_09h13.45.548;REPSWITCH1_version2_list4;2022.2.4;144.01294968939203;
REPSWITCH1/PICTURE_340.png;espejo;speak;darkblue;filler;2;F;4;4;4;2;Extra1;0;None;77;76;77;0;76;76;76;;;;;;;;;;;;;;;;;;;;;;;393.47829040000215;394.64512080000713;394.64512080000713;394.64512080000713;394.64512080000713;394.64512080000713;394.64512080000713;394.64512080000713;394.64512080000713;None;0;;;C:\2023\REPSWITCH21092023\REPSWITCH_excgange\REPSWITCH_excgange\data/160204_REPSWITCH1_version2_list4_2023-11-29_09h13.45.548_micRespv2l4_recorded\recording_micRespv2l4_2023-11-29_09h20.15.866.wav;397.67334139999;398.1733509001788;None;397.67334139999;397.67334139999;397.67334139999;397.67334139999;397.67334139999;397.67334139999;;;;;;160204;001;2023-11-29_09h13.45.548;REPSWITCH1_version2_list4;2022.2.4;144.01294968939203;
REPSWITCH1/PICTURE_464.png;goma;speak;darkblue;filler;2;F;4;4;4;2;Stim6_Set3;1;repeat;78;77;78;0;77;77;77;;;;;;;;;;;;;;;;;;;;;;;398.1733509001788;399.4512708000839;399.4512708000839;399.4512708000839;399.4512708000839;399.4512708000839;399.4512708000839;399.4512708000839;399.4512708000839;None;0;;;C:\2023\REPSWITCH21092023\REPSWITCH_excgange\REPSWITCH_excgange\data/160204_REPSWITCH1_version2_list4_2023-11-29_09h13.45.548_micRespv2l4_recorded\recording_micRespv2l4_2023-11-29_09h20.20.670.wav;402.47257230011746;402.972566800192;None;402.47257230011746;402.47257230011746;402.47257230011746;402.47257230011746;402.47257230011746;402.47257230011746;;;;;;160204;001;2023-11-29_09h13.45.548;REPSWITCH1_version2_list4;2022.2.4;144.01294968939203;
REPSWITCH1/PICTURE_338.png;regalo;type;gold;nontarget;1;NT;4;4;4;2;Stim6_Set4;0;None;79;78;79;0;78;78;78;;;;;;;;;;;;;;;;;;;;;;;402.972566800192;404.08385740011;404.08385740011;404.08385740011;404.08385740011;404.08385740011;404.08385740011;404.08385740011;404.08385740011;['g', 'r', 'e', 'e', 'backspace', 'backspace', 'backspace', 'backspace', 'r', 'e'];0;[0.7224492998793721, 1.2286892000120133, 1.4682072999421507, 1.48814080003649, 1.7456755999010056, 2.181477499892935, 2.3269279000815004, 2.4485605999361724, 2.651839300058782, 2.773799099959433, 2.984550300054252];reg;C:\2023\REPSWITCH21092023\REPSWITCH_excgange\REPSWITCH_excgange\data/160204_REPSWITCH1_version2_list4_2023-11-29_09h13.45.548_micRespv2l4_recorded\recording_micRespv2l4_2023-11-29_09h20.25.304.wav;407.1119894001167;;None;407.1119894001167;407.1119894001167;407.1119894001167;407.1119894001167;407.1119894001167;407.1119894001167;;;;;;160204;001;2023-11-29_09h13.45.548;REPSWITCH1_version2_list4;2022.2.4;144.01294968939203;
REPSWITCH1/PICTURE_338.png;regalo;type;gold;repeat;1;T;4;4;4;2;Stim6_Set4;0;None;80;79;80;0;79;79;79;;;;;;;;;;;;;;;;;;;;;;;407.61204829998314;408.81358320009895;408.81358320009895;408.81358320009895;408.81358320009895;408.81358320009895;408.81358320009895;408.81358320009895;408.81358320009895;['r', 'e', 'g', 'a', 'l', 'o'];0;[0.5879821002017707, 0.7225470000412315, 0.9279007001314312, 1.0544806001707911, 1.3428094000555575, 1.5167290000244975];regalo;C:\2023\REPSWITCH21092023\REPSWITCH_excgange\REPSWITCH_excgange\data/160204_REPSWITCH1_version2_list4_2023-11-29_09h13.45.548_micRespv2l4_recorded\recording_micRespv2l4_2023-11-29_09h20.30.033.wav;411.8347852001898;412.334859700175;None;411.8347852001898;411.8347852001898;411.8347852001898;411.8347852001898;411.8347852001898;411.8347852001898;;;;;;160204;001;2023-11-29_09h13.45.548;REPSWITCH1_version2_list4;2022.2.4;144.01294968939203;
REPSWITCH1/PICTURE_8.png;pierna;type;gold;nontarget;1;NT;4;4;4;2;Stim3_Set4;1;repeat;81;80;81;0;80;80;80;;;;;;;;;;;;;;;;;;;;;;;412.334859700175;413.43227620003745;413.43227620003745;413.43227620003745;413.43227620003745;413.43227620003745;413.43227620003745;413.43227620003745;413.43227620003745;['p', 'i', 'e', 'r', 'n', 'a'];0;[0.7852175999432802, 0.9167665999848396, 1.040375699987635, 1.1699723000638187, 1.4584089000709355, 1.552388200070709];pierna;C:\2023\REPSWITCH21092023\REPSWITCH_excgange\REPSWITCH_excgange\data/160204_REPSWITCH1_version2_list4_2023-11-29_09h13.45.548_micRespv2l4_recorded\recording_micRespv2l4_2023-11-29_09h20.34.652.wav;416.4534849000629;416.9535382001195;None;416.4534849000629;416.4534849000629;416.4534849000629;416.4534849000629;416.4534849000629;416.4534849000629;;;;;;160204;001;2023-11-29_09h13.45.548;REPSWITCH1_version2_list4;2022.2.4;144.01294968939203;
REPSWITCH1/PICTURE_8.png;pierna;speak;darkblue;switch;2;T;4;4;4;2;Stim3_Set4;0;None;82;81;82;0;81;81;81;;;;;;;;;;;;;;;;;;;;;;;416.9535382001195;418.1759675000794;418.1759675000794;418.1759675000794;418.1759675000794;418.1759675000794;418.1759675000794;418.1759675000794;418.1759675000794;None;0;;;C:\2023\REPSWITCH21092023\REPSWITCH_excgange\REPSWITCH_excgange\data/160204_REPSWITCH1_version2_list4_2023-11-29_09h13.45.548_micRespv2l4_recorded\recording_micRespv2l4_2023-11-29_09h20.39.396.wav;421.19712480017915;421.69720809999853;None;421.19712480017915;421.19712480017915;421.19712480017915;421.19712480017915;421.19712480017915;421.19712480017915;;;;;;160204;001;2023-11-29_09h13.45.548;REPSWITCH1_version2_list4;2022.2.4;144.01294968939203;
REPSWITCH1/PICTURE_271.png;conejo;type;gold;filler;1;F;4;4;4;2;Stim7_Set3;0;None;83;82;83;0;82;82;82;;;;;;;;;;;;;;;;;;;;;;;421.69720809999853;422.74597180006094;422.74597180006094;422.74597180006094;422.74597180006094;422.74597180006094;422.74597180006094;422.74597180006094;422.74597180006094;['c', 'o', 'n', 'e', 'j', 'o'];0;[0.8220287000294775, 0.9300748999230564, 1.1186287000309676, 1.297252899967134, 1.4407621999271214, 1.56840749992989];conejo;C:\2023\REPSWITCH21092023\REPSWITCH_excgange\REPSWITCH_excgange\data/160204_REPSWITCH1_version2_list4_2023-11-29_09h13.45.548_micRespv2l4_recorded\recording_micRespv2l4_2023-11-29_09h20.43.965.wav;425.77412000019103;;None;425.77412000019103;425.77412000019103;425.77412000019103;425.77412000019103;425.77412000019103;425.77412000019103;;;;;;160204;001;2023-11-29_09h13.45.548;REPSWITCH1_version2_list4;2022.2.4;144.01294968939203;
REPSWITCH1/PICTURE_687.png;camisa;speak;darkblue;nontarget;2;NT;4;4;4;2;Stim5_Set4;1;switch;84;83;84;0;83;83;83;;;;;;;;;;;;;;;;;;;;;;;426.27418050006963;427.468830200145;427.468830200145;427.468830200145;427.468830200145;427.468830200145;427.468830200145;427.468830200145;427.468830200145;None;0;;;C:\2023\REPSWITCH21092023\REPSWITCH_excgange\REPSWITCH_excgange\data/160204_REPSWITCH1_version2_list4_2023-11-29_09h13.45.548_micRespv2l4_recorded\recording_micRespv2l4_2023-11-29_09h20.48.688.wav;430.49694830016233;;None;430.49694830016233;430.49694830016233;430.49694830016233;430.49694830016233;430.49694830016233;430.49694830016233;;;;;;160204;001;2023-11-29_09h13.45.548;REPSWITCH1_version2_list4;2022.2.4;144.01294968939203;
REPSWITCH1/PICTURE_687.png;camisa;speak;darkblue;repeat;2;T;4;4;4;2;Stim5_Set4;0;None;85;84;85;0;84;84;84;;;;;;;;;;;;;;;;;;;;;;;430.9970037001185;432.0179557001684;432.0179557001684;432.0179557001684;432.0179557001684;432.0179557001684;432.0179557001684;432.0179557001684;432.0179557001684;None;0;;;C:\2023\REPSWITCH21092023\REPSWITCH_excgange\REPSWITCH_excgange\data/160204_REPSWITCH1_version2_list4_2023-11-29_09h13.45.548_micRespv2l4_recorded\recording_micRespv2l4_2023-11-29_09h20.53.238.wav;435.04612590000033;;None;435.04612590000033;435.04612590000033;435.04612590000033;435.04612590000033;435.04612590000033;435.04612590000033;;;;;;160204;001;2023-11-29_09h13.45.548;REPSWITCH1_version2_list4;2022.2.4;144.01294968939203;
REPSWITCH1/PICTURE_319.png;vaca;speak;darkblue;nontarget;2;NT;4;4;4;2;Stim1_Set4;0;None;86;85;86;0;85;85;85;;;;;;;;;;;;;;;;;;;;;;;435.5462799000088;436.5672730000224;436.5672730000224;436.5672730000224;436.5672730000224;436.5672730000224;436.5672730000224;436.5672730000224;436.5672730000224;None;0;;;C:\2023\REPSWITCH21092023\REPSWITCH_excgange\REPSWITCH_excgange\data/160204_REPSWITCH1_version2_list4_2023-11-29_09h13.45.548_micRespv2l4_recorded\recording_micRespv2l4_2023-11-29_09h20.57.787.wav;439.58841760014184;440.0884223000612;None;439.58841760014184;439.58841760014184;439.58841760014184;439.58841760014184;439.58841760014184;439.58841760014184;;;;;;160204;001;2023-11-29_09h13.45.548;REPSWITCH1_version2_list4;2022.2.4;144.01294968939203;
REPSWITCH1/PICTURE_319.png;vaca;type;gold;switch;1;T;4;4;4;2;Stim1_Set4;0;None;87;86;87;0;86;86;86;;;;;;;;;;;;;;;;;;;;;;;440.0884223000612;441.21359810000286;441.21359810000286;441.21359810000286;441.21359810000286;441.21359810000286;441.21359810000286;441.21359810000286;441.21359810000286;['v', 'a', 'c', 'a'];0;[0.6319351000711322, 0.8236078000627458, 1.1018666999880224, 1.351051100064069];vaca;C:\2023\REPSWITCH21092023\REPSWITCH_excgange\REPSWITCH_excgange\data/160204_REPSWITCH1_version2_list4_2023-11-29_09h13.45.548_micRespv2l4_recorded\recording_micRespv2l4_2023-11-29_09h21.02.433.wav;444.2348776999861;444.7348798001185;None;444.2348776999861;444.2348776999861;444.2348776999861;444.2348776999861;444.2348776999861;444.2348776999861;;;;;;160204;001;2023-11-29_09h13.45.548;REPSWITCH1_version2_list4;2022.2.4;144.01294968939203;
REPSWITCH1/PICTURE_242.png;cartero;speak;darkblue;filler;2;F;4;4;4;2;Stim3_Set3;0;None;88;87;88;0;87;87;87;;;;;;;;;;;;;;;;;;;;;;;444.7348798001185;445.79059710004367;445.79059710004367;445.79059710004367;445.79059710004367;445.79059710004367;445.79059710004367;445.79059710004367;445.79059710004367;None;0;;;C:\2023\REPSWITCH21092023\REPSWITCH_excgange\REPSWITCH_excgange\data/160204_REPSWITCH1_version2_list4_2023-11-29_09h13.45.548_micRespv2l4_recorded\recording_micRespv2l4_2023-11-29_09h21.07.010.wav;448.8117898001801;449.31191240018234;None;448.8117898001801;448.8117898001801;448.8117898001801;448.8117898001801;448.8117898001801;448.8117898001801;;;;;;160204;001;2023-11-29_09h13.45.548;REPSWITCH1_version2_list4;2022.2.4;144.01294968939203;
REPSWITCH1/PICTURE_498.png;taza;type;gold;nontarget;1;NT;4;4;4;2;Stim4_Set4;1;switch;89;88;89;0;88;88;88;;;;;;;;;;;;;;;;;;;;;;;449.31191240018234;450.4509631001856;450.4509631001856;450.4509631001856;450.4509631001856;450.4509631001856;450.4509631001856;450.4509631001856;450.4509631001856;['t', 'a', 'z', 'a'];0;[0.8446973001118749, 0.9803390000015497, 1.349089400144294, 1.5624401001259685];taza;C:\2023\REPSWITCH21092023\REPSWITCH_excgange\REPSWITCH_excgange\data/160204_REPSWITCH1_version2_list4_2023-11-29_09h13.45.548_micRespv2l4_recorded\recording_micRespv2l4_2023-11-29_09h21.11.670.wav;453.47213010000996;453.97226390009746;None;453.47213010000996;453.47213010000996;453.47213010000996;453.47213010000996;453.47213010000996;453.47213010000996;;;;;;160204;001;2023-11-29_09h13.45.548;REPSWITCH1_version2_list4;2022.2.4;144.01294968939203;
REPSWITCH1/PICTURE_498.png;taza;speak;darkblue;switch;2;T;4;4;4;2;Stim4_Set4;0;None;90;89;90;0;89;89;89;;;;;;;;;;;;;;;;;;;;;;;453.97226390009746;455.1320619001053;455.1320619001053;455.1320619001053;455.1320619001053;455.1320619001053;455.1320619001053;455.1320619001053;455.1320619001053;None;0;;;C:\2023\REPSWITCH21092023\REPSWITCH_excgange\REPSWITCH_excgange\data/160204_REPSWITCH1_version2_list4_2023-11-29_09h13.45.548_micRespv2l4_recorded\recording_micRespv2l4_2023-11-29_09h21.16.353.wav;458.16023350018077;;None;458.16023350018077;458.16023350018077;458.16023350018077;458.16023350018077;458.16023350018077;458.16023350018077;;;;;;160204;001;2023-11-29_09h13.45.548;REPSWITCH1_version2_list4;2022.2.4;144.01294968939203;
REPSWITCH1/PICTURE_391.png;cadena;type;gold;filler;1;F;4;4;4;2;Extra2;0;None;91;90;91;0;90;90;90;;;;;;;;;;;;;;;;;;;;;;;458.6602918000426;459.7090507000685;459.7090507000685;459.7090507000685;459.7090507000685;459.7090507000685;459.7090507000685;459.7090507000685;459.7090507000685;['c', 'a', 'd', 'e', 'n', 'a'];0;[0.7454700998496264, 0.9139039998408407, 1.144120599841699, 1.3505954998545349, 1.5169546999968588, 1.6345267000142485];cadena;C:\2023\REPSWITCH21092023\REPSWITCH_excgange\REPSWITCH_excgange\data/160204_REPSWITCH1_version2_list4_2023-11-29_09h13.45.548_micRespv2l4_recorded\recording_micRespv2l4_2023-11-29_09h21.20.928.wav;462.7302711000666;463.2303278001491;None;462.7302711000666;462.7302711000666;462.7302711000666;462.7302711000666;462.7302711000666;462.7302711000666;;;;;;160204;001;2023-11-29_09h13.45.548;REPSWITCH1_version2_list4;2022.2.4;144.01294968939203;
REPSWITCH1/PICTURE_610.png;miel;speak;darkblue;filler;2;F;4;4;4;2;Stim2_Set3;0;None;92;91;92;0;91;91;91;;;;;;;;;;;;;;;;;;;;;;;463.2303278001491;464.35545650008135;464.35545650008135;464.35545650008135;464.35545650008135;464.35545650008135;464.35545650008135;464.35545650008135;464.35545650008135;None;0;;;C:\2023\REPSWITCH21092023\REPSWITCH_excgange\REPSWITCH_excgange\data/160204_REPSWITCH1_version2_list4_2023-11-29_09h13.45.548_micRespv2l4_recorded\recording_micRespv2l4_2023-11-29_09h21.25.576.wav;467.3836862000171;;None;467.3836862000171;467.3836862000171;467.3836862000171;467.3836862000171;467.3836862000171;467.3836862000171;;;;;;160204;001;2023-11-29_09h13.45.548;REPSWITCH1_version2_list4;2022.2.4;144.01294968939203;
REPSWITCH1/PICTURE_48.png;bombero;speak;darkblue;nontarget;2;NT;4;4;4;2;Stim7_Set4;1;repeat;93;92;93;0;92;92;92;;;;;;;;;;;;;;;;;;;;;;;467.8836697000079;468.91858340008184;468.91858340008184;468.91858340008184;468.91858340008184;468.91858340008184;468.91858340008184;468.91858340008184;468.91858340008184;None;0;;;C:\2023\REPSWITCH21092023\REPSWITCH_excgange\REPSWITCH_excgange\data/160204_REPSWITCH1_version2_list4_2023-11-29_09h13.45.548_micRespv2l4_recorded\recording_micRespv2l4_2023-11-29_09h21.30.138.wav;471.9467655001208;;None;471.9467655001208;471.9467655001208;471.9467655001208;471.9467655001208;471.9467655001208;471.9467655001208;;;;;;160204;001;2023-11-29_09h13.45.548;REPSWITCH1_version2_list4;2022.2.4;144.01294968939203;
REPSWITCH1/PICTURE_48.png;bombero;speak;darkblue;repeat;2;T;4;4;4;2;Stim7_Set4;0;None;94;93;94;0;93;93;93;;;;;;;;;;;;;;;;;;;;;;;472.44676930014975;473.460797799984;473.460797799984;473.460797799984;473.460797799984;473.460797799984;473.460797799984;473.460797799984;473.460797799984;None;0;;;C:\2023\REPSWITCH21092023\REPSWITCH_excgange\REPSWITCH_excgange\data/160204_REPSWITCH1_version2_list4_2023-11-29_09h13.45.548_micRespv2l4_recorded\recording_micRespv2l4_2023-11-29_09h21.34.680.wav;476.4820242000278;476.982098700013;None;476.4820242000278;476.4820242000278;476.4820242000278;476.4820242000278;476.4820242000278;476.4820242000278;;;;;;160204;001;2023-11-29_09h13.45.548;REPSWITCH1_version2_list4;2022.2.4;144.01294968939203;
REPSWITCH1/PICTURE_320.png;iglesia;type;gold;filler;1;F;4;4;4;2;Stim8_Set3;1;switch;95;94;95;0;94;94;94;;;;;;;;;;;;;;;;;;;;;;;476.982098700013;478.02396680018865;478.02396680018865;478.02396680018865;478.02396680018865;478.02396680018865;478.02396680018865;478.02396680018865;478.02396680018865;['i', 'g', 'l', 'e', 's', 'i', 'a'];0;[0.7082404000684619, 0.8708576001226902, 1.110051800031215, 1.3121144000906497, 1.4818903000559658, 1.763547900132835, 1.9689343001227826];iglesia;C:\2023\REPSWITCH21092023\REPSWITCH_excgange\REPSWITCH_excgange\data/160204_REPSWITCH1_version2_list4_2023-11-29_09h13.45.548_micRespv2l4_recorded\recording_micRespv2l4_2023-11-29_09h21.39.243.wav;481.045177299995;481.5452690999955;None;481.045177299995;481.045177299995;481.045177299995;481.045177299995;481.045177299995;481.045177299995;;;;;;160204;001;2023-11-29_09h13.45.548;REPSWITCH1_version2_list4;2022.2.4;144.01294968939203;
REPSWITCH1/PICTURE_35.png;oreja;speak;darkblue;filler;2;F;4;4;4;2;Stim5_Set3;0;None;96;95;96;0;95;95;95;;;;;;;;;;;;;;;;;;;;;;;481.5452690999955;482.5800195999909;482.5800195999909;482.5800195999909;482.5800195999909;482.5800195999909;482.5800195999909;482.5800195999909;482.5800195999909;None;0;;;C:\2023\REPSWITCH21092023\REPSWITCH_excgange\REPSWITCH_excgange\data/160204_REPSWITCH1_version2_list4_2023-11-29_09h13.45.548_micRespv2l4_recorded\recording_micRespv2l4_2023-11-29_09h21.43.800.wav;485.6012288001366;486.1013150999788;None;485.6012288001366;485.6012288001366;485.6012288001366;485.6012288001366;485.6012288001366;485.6012288001366;;;;;;160204;001;2023-11-29_09h13.45.548;REPSWITCH1_version2_list4;2022.2.4;144.01294968939203;
REPSWITCH1/PICTURE_728.png;pulpo;speak;darkblue;nontarget;2;NT;4;4;4;2;Stim8_Set4;1;repeat;97;96;97;0;96;96;96;;;;;;;;;;;;;;;;;;;;;;;486.1013150999788;487.2056950000115;487.2056950000115;487.2056950000115;487.2056950000115;487.2056950000115;487.2056950000115;487.2056950000115;487.2056950000115;None;0;;;C:\2023\REPSWITCH21092023\REPSWITCH_excgange\REPSWITCH_excgange\data/160204_REPSWITCH1_version2_list4_2023-11-29_09h13.45.548_micRespv2l4_recorded\recording_micRespv2l4_2023-11-29_09h21.48.425.wav;490.22691530012526;490.727004900109;None;490.22691530012526;490.22691530012526;490.22691530012526;490.22691530012526;490.22691530012526;490.22691530012526;;;;;;160204;001;2023-11-29_09h13.45.548;REPSWITCH1_version2_list4;2022.2.4;144.01294968939203;
REPSWITCH1/PICTURE_728.png;pulpo;type;gold;switch;1;T;4;4;4;2;Stim8_Set4;0;None;98;97;98;0;97;97;97;;;;;;;;;;;;;;;;;;;;;;;490.727004900109;491.76178409997374;491.76178409997374;491.76178409997374;491.76178409997374;491.76178409997374;491.76178409997374;491.76178409997374;491.76178409997374;['p', 'u', 'l', 'p', 'o'];0;[0.7370942002162337, 0.9609364001080394, 1.174184100003913, 1.4602620000950992, 1.5798496000934392];pulpo;C:\2023\REPSWITCH21092023\REPSWITCH_excgange\REPSWITCH_excgange\data/160204_REPSWITCH1_version2_list4_2023-11-29_09h13.45.548_micRespv2l4_recorded\recording_micRespv2l4_2023-11-29_09h21.52.981.wav;494.78301150002517;495.28307550004683;None;494.78301150002517;494.78301150002517;494.78301150002517;494.78301150002517;494.78301150002517;494.78301150002517;;;;;;160204;001;2023-11-29_09h13.45.548;REPSWITCH1_version2_list4;2022.2.4;144.01294968939203;
REPSWITCH1/PICTURE_590.png;escoba;speak;darkblue;filler;2;F;4;4;4;2;Extra3;0;None;99;98;99;0;98;98;98;;;;;;;;;;;;;;;;;;;;;;;495.28307550004683;496.3248751000501;496.3248751000501;496.3248751000501;496.3248751000501;496.3248751000501;496.3248751000501;496.3248751000501;496.3248751000501;None;0;;;C:\2023\REPSWITCH21092023\REPSWITCH_excgange\REPSWITCH_excgange\data/160204_REPSWITCH1_version2_list4_2023-11-29_09h13.45.548_micRespv2l4_recorded\recording_micRespv2l4_2023-11-29_09h21.57.545.wav;499.35303040011786;;None;499.35303040011786;499.35303040011786;499.35303040011786;499.35303040011786;499.35303040011786;499.35303040011786;;;;;;160204;001;2023-11-29_09h13.45.548;REPSWITCH1_version2_list4;2022.2.4;144.01294968939203;
REPSWITCH1/PICTURE_235.png;aguja;type;gold;filler;1;F;4;4;4;2;Stim4_Set3;0;None;100;99;100;0;99;99;99;;;;;;;;;;;;;;;;;;;;;;;499.85317710018717;500.9851872001309;500.9851872001309;500.9851872001309;500.9851872001309;500.9851872001309;500.9851872001309;500.9851872001309;500.9851872001309;['a', 'g', 'u', 'j', 'a'];0;[0.7762462000828236, 1.068546400172636, 1.2698244999628514, 1.502056100172922, 1.5917322000022978];aguja;C:\2023\REPSWITCH21092023\REPSWITCH_excgange\REPSWITCH_excgange\data/160204_REPSWITCH1_version2_list4_2023-11-29_09h13.45.548_micRespv2l4_recorded\recording_micRespv2l4_2023-11-29_09h22.02.204.wav;504.00643180008046;504.50647950009443;None;504.00643180008046;504.00643180008046;504.00643180008046;504.00643180008046;504.00643180008046;504.00643180008046;;;;;;160204;001;2023-11-29_09h13.45.548;REPSWITCH1_version2_list4;2022.2.4;144.01294968939203;
REPSWITCH1/PICTURE_719.png;baño;type;gold;nontarget;1;NT;4;4;4;2;Stim2_Set4;1;repeat;101;100;101;0;100;100;100;;;;;;;;;;;;;;;;;;;;;;;504.50647950009443;505.52751470007934;505.52751470007934;505.52751470007934;505.52751470007934;505.52751470007934;505.52751470007934;505.52751470007934;505.52751470007934;['b', 'a', 'ñ', 'o'];0;[0.8450883000623435, 0.9972651998978108, 1.1418180000036955, 1.3092177000362426];baño;C:\2023\REPSWITCH21092023\REPSWITCH_excgange\REPSWITCH_excgange\data/160204_REPSWITCH1_version2_list4_2023-11-29_09h13.45.548_micRespv2l4_recorded\recording_micRespv2l4_2023-11-29_09h22.06.748.wav;508.548633400118;509.04871420003474;None;508.548633400118;508.548633400118;508.548633400118;508.548633400118;508.548633400118;508.548633400118;;;;;;160204;001;2023-11-29_09h13.45.548;REPSWITCH1_version2_list4;2022.2.4;144.01294968939203;
REPSWITCH1/PICTURE_719.png;baño;type;gold;repeat;1;T;4;4;4;2;Stim2_Set4;0;None;102;101;102;0;101;101;101;;;;;;;;;;;;;;;;;;;;;;;509.04871420003474;510.2780586001463;510.2780586001463;510.2780586001463;510.2780586001463;510.2780586001463;510.2780586001463;510.2780586001463;510.2780586001463;['b', 'a', 'ñ', 'o'];0;[0.7879265998490155, 0.962909399997443, 1.1453153998591006, 1.3097661999054253];baño;C:\2023\REPSWITCH21092023\REPSWITCH_excgange\REPSWITCH_excgange\data/160204_REPSWITCH1_version2_list4_2023-11-29_09h13.45.548_micRespv2l4_recorded\recording_micRespv2l4_2023-11-29_09h22.11.498.wav;513.3062266001943;;space;513.3062266001943;513.3062266001943;513.3062266001943;513.3062266001943;513.3062266001943;513.3062266001943;513.8063083000015;513.8063083000015;32.615890599787235;;;160204;001;2023-11-29_09h13.45.548;REPSWITCH1_version2_list4;2022.2.4;144.01294968939203;
REPSWITCH1/PICTURE_646.png;tronco;speak;darkblue;filler;2;F;1;3;4;2;Extra4;0;None;103;102;1;0;102;102;102;;;;;;;;;;;;;;;;;;;;;;;546.4355033000465;547.49815580016;547.49815580016;547.49815580016;547.49815580016;547.49815580016;547.49815580016;547.49815580016;547.49815580016;None;0;;;C:\2023\REPSWITCH21092023\REPSWITCH_excgange\REPSWITCH_excgange\data/160204_REPSWITCH1_version2_list4_2023-11-29_09h13.45.548_micRespv2l4_recorded\recording_micRespv2l4_2023-11-29_09h22.48.718.wav;550.5263125000056;;None;550.5263125000056;550.5263125000056;550.5263125000056;550.5263125000056;550.5263125000056;550.5263125000056;;;;;;160204;001;2023-11-29_09h13.45.548;REPSWITCH1_version2_list4;2022.2.4;144.01294968939203;
REPSWITCH1/PICTURE_340.png;espejo;type;gold;filler;1;F;1;3;4;2;Extra1;0;None;104;103;2;0;103;103;103;;;;;;;;;;;;;;;;;;;;;;;551.0263778001536;552.0890699001029;552.0890699001029;552.0890699001029;552.0890699001029;552.0890699001029;552.0890699001029;552.0890699001029;552.0890699001029;['e', 's', 'p', 'o', 'backspace', 'e', 'j', 'o'];0;[0.7202687000390142, 0.9274124000221491, 1.1979456001427025, 1.35237059998326, 1.7783758000005037, 1.9887259001843631, 2.1581524000503123, 2.3554889000952244];espejo;C:\2023\REPSWITCH21092023\REPSWITCH_excgange\REPSWITCH_excgange\data/160204_REPSWITCH1_version2_list4_2023-11-29_09h13.45.548_micRespv2l4_recorded\recording_micRespv2l4_2023-11-29_09h22.53.308.wav;555.110236500157;555.6103042000905;None;555.110236500157;555.110236500157;555.110236500157;555.110236500157;555.110236500157;555.110236500157;;;;;;160204;001;2023-11-29_09h13.45.548;REPSWITCH1_version2_list4;2022.2.4;144.01294968939203;
REPSWITCH1/PICTURE_338.png;regalo;speak;darkblue;filler;2;F;1;3;4;2;Stim6_Set4;0;None;105;104;3;0;104;104;104;;;;;;;;;;;;;;;;;;;;;;;555.6103042000905;556.7146711000241;556.7146711000241;556.7146711000241;556.7146711000241;556.7146711000241;556.7146711000241;556.7146711000241;556.7146711000241;None;0;;;C:\2023\REPSWITCH21092023\REPSWITCH_excgange\REPSWITCH_excgange\data/160204_REPSWITCH1_version2_list4_2023-11-29_09h13.45.548_micRespv2l4_recorded\recording_micRespv2l4_2023-11-29_09h22.57.935.wav;559.735811999999;560.235968900146;None;559.735811999999;559.735811999999;559.735811999999;559.735811999999;559.735811999999;559.735811999999;;;;;;160204;001;2023-11-29_09h13.45.548;REPSWITCH1_version2_list4;2022.2.4;144.01294968939203;
REPSWITCH1/PICTURE_142.png;vaso;speak;darkblue;nontarget;2;NT;1;3;4;2;Stim7_Set1;1;repeat;106;105;4;0;105;105;105;;;;;;;;;;;;;;;;;;;;;;;560.235968900146;561.3055064000655;561.3055064000655;561.3055064000655;561.3055064000655;561.3055064000655;561.3055064000655;561.3055064000655;561.3055064000655;None;0;;;C:\2023\REPSWITCH21092023\REPSWITCH_excgange\REPSWITCH_excgange\data/160204_REPSWITCH1_version2_list4_2023-11-29_09h13.45.548_micRespv2l4_recorded\recording_micRespv2l4_2023-11-29_09h23.02.525.wav;564.3266671001911;564.8267646001186;None;564.3266671001911;564.3266671001911;564.3266671001911;564.3266671001911;564.3266671001911;564.3266671001911;;;;;;160204;001;2023-11-29_09h13.45.548;REPSWITCH1_version2_list4;2022.2.4;144.01294968939203;
REPSWITCH1/PICTURE_142.png;vaso;speak;darkblue;repeat;2;T;1;3;4;2;Stim7_Set1;0;None;107;106;5;0;106;106;106;;;;;;;;;;;;;;;;;;;;;;;564.8267646001186;565.9797573999967;565.9797573999967;565.9797573999967;565.9797573999967;565.9797573999967;565.9797573999967;565.9797573999967;565.9797573999967;None;0;;;C:\2023\REPSWITCH21092023\REPSWITCH_excgange\REPSWITCH_excgange\data/160204_REPSWITCH1_version2_list4_2023-11-29_09h13.45.548_micRespv2l4_recorded\recording_micRespv2l4_2023-11-29_09h23.07.199.wav;569.0009215001483;569.5009799001273;None;569.0009215001483;569.0009215001483;569.0009215001483;569.0009215001483;569.0009215001483;569.0009215001483;;;;;;160204;001;2023-11-29_09h13.45.548;REPSWITCH1_version2_list4;2022.2.4;144.01294968939203;
REPSWITCH1/PICTURE_498.png;taza;type;gold;filler;1;F;1;3;4;2;Stim4_Set4;0;None;108;107;6;0;107;107;107;;;;;;;;;;;;;;;;;;;;;;;569.5009799001273;570.5775095999707;570.5775095999707;570.5775095999707;570.5775095999707;570.5775095999707;570.5775095999707;570.5775095999707;570.5775095999707;['t', 'a', 'z', 'a'];0;[0.8000070999842137, 0.9335346000734717, 1.1902562000323087, 1.4314101000782102];taza;C:\2023\REPSWITCH21092023\REPSWITCH_excgange\REPSWITCH_excgange\data/160204_REPSWITCH1_version2_list4_2023-11-29_09h13.45.548_micRespv2l4_recorded\recording_micRespv2l4_2023-11-29_09h23.11.796.wav;573.5987129001878;574.0987738000695;None;573.5987129001878;573.5987129001878;573.5987129001878;573.5987129001878;573.5987129001878;573.5987129001878;;;;;;160204;001;2023-11-29_09h13.45.548;REPSWITCH1_version2_list4;2022.2.4;144.01294968939203;
REPSWITCH1/PICTURE_16.png;cazador;speak;darkblue;nontarget;2;NT;1;3;4;2;Stim6_Set1;1;switch;109;108;7;0;108;108;108;;;;;;;;;;;;;;;;;;;;;;;574.0987738000695;575.2308627001476;575.2308627001476;575.2308627001476;575.2308627001476;575.2308627001476;575.2308627001476;575.2308627001476;575.2308627001476;None;0;;;C:\2023\REPSWITCH21092023\REPSWITCH_excgange\REPSWITCH_excgange\data/160204_REPSWITCH1_version2_list4_2023-11-29_09h13.45.548_micRespv2l4_recorded\recording_micRespv2l4_2023-11-29_09h23.16.452.wav;578.2591276001185;;None;578.2591276001185;578.2591276001185;578.2591276001185;578.2591276001185;578.2591276001185;578.2591276001185;;;;;;160204;001;2023-11-29_09h13.45.548;REPSWITCH1_version2_list4;2022.2.4;144.01294968939203;
REPSWITCH1/PICTURE_16.png;cazador;speak;darkblue;repeat;2;T;1;3;4;2;Stim6_Set1;0;None;110;109;8;0;109;109;109;;;;;;;;;;;;;;;;;;;;;;;578.7591312001459;579.9328743000515;579.9328743000515;579.9328743000515;579.9328743000515;579.9328743000515;579.9328743000515;579.9328743000515;579.9328743000515;None;0;;;C:\2023\REPSWITCH21092023\REPSWITCH_excgange\REPSWITCH_excgange\data/160204_REPSWITCH1_version2_list4_2023-11-29_09h13.45.548_micRespv2l4_recorded\recording_micRespv2l4_2023-11-29_09h23.21.153.wav;582.9541266001761;583.4541732000653;None;582.9541266001761;582.9541266001761;582.9541266001761;582.9541266001761;582.9541266001761;582.9541266001761;;;;;;160204;001;2023-11-29_09h13.45.548;REPSWITCH1_version2_list4;2022.2.4;144.01294968939203;
REPSWITCH1/PICTURE_719.png;baño;type;gold;filler;1;F;1;3;4;2;Stim2_Set4;0;None;111;110;9;0;110;110;110;;;;;;;;;;;;;;;;;;;;;;;583.4541732000653;584.5585521999747;584.5585521999747;584.5585521999747;584.5585521999747;584.5585521999747;584.5585521999747;584.5585521999747;584.5585521999747;['b', 'a', 'ñ', 'o'];0;[0.7995593000669032, 0.9629905000329018, 1.1224628000054508, 1.3091568001545966];baño;C:\2023\REPSWITCH21092023\REPSWITCH_excgange\REPSWITCH_excgange\data/160204_REPSWITCH1_version2_list4_2023-11-29_09h13.45.548_micRespv2l4_recorded\recording_micRespv2l4_2023-11-29_09h23.25.778.wav;587.5796990999952;588.0797490000259;None;587.5796990999952;587.5796990999952;587.5796990999952;587.5796990999952;587.5796990999952;587.5796990999952;;;;;;160204;001;2023-11-29_09h13.45.548;REPSWITCH1_version2_list4;2022.2.4;144.01294968939203;
REPSWITCH1/PICTURE_169.png;espalda;speak;darkblue;nontarget;2;NT;1;3;4;2;Stim8_Set1;0;None;112;111;10;0;111;111;111;;;;;;;;;;;;;;;;;;;;;;;588.0797490000259;589.1424678000621;589.1424678000621;589.1424678000621;589.1424678000621;589.1424678000621;589.1424678000621;589.1424678000621;589.1424678000621;None;0;;;C:\2023\REPSWITCH21092023\REPSWITCH_excgange\REPSWITCH_excgange\data/160204_REPSWITCH1_version2_list4_2023-11-29_09h13.45.548_micRespv2l4_recorded\recording_micRespv2l4_2023-11-29_09h23.30.362.wav;592.1636121000629;592.6636580000632;None;592.1636121000629;592.1636121000629;592.1636121000629;592.1636121000629;592.1636121000629;592.1636121000629;;;;;;160204;001;2023-11-29_09h13.45.548;REPSWITCH1_version2_list4;2022.2.4;144.01294968939203;
REPSWITCH1/PICTURE_169.png;espalda;type;gold;switch;1;T;1;3;4;2;Stim8_Set1;0;None;113;112;11;0;112;112;112;;;;;;;;;;;;;;;;;;;;;;;592.6636580000632;593.7124511001166;593.7124511001166;593.7124511001166;593.7124511001166;593.7124511001166;593.7124511001166;593.7124511001166;593.7124511001166;['e', 's', 'p', 'a', 'l', 'd', 'a'];0;[0.7875689000356942, 0.9232948999851942, 1.1505319001153111, 1.3072721001226455, 1.4438227000646293, 1.7417325000278652, 2.0048495000228286];espalda;C:\2023\REPSWITCH21092023\REPSWITCH_excgange\REPSWITCH_excgange\data/160204_REPSWITCH1_version2_list4_2023-11-29_09h13.45.548_micRespv2l4_recorded\recording_micRespv2l4_2023-11-29_09h23.34.932.wav;596.7336461001541;597.2336952001788;None;596.7336461001541;596.7336461001541;596.7336461001541;596.7336461001541;596.7336461001541;596.7336461001541;;;;;;160204;001;2023-11-29_09h13.45.548;REPSWITCH1_version2_list4;2022.2.4;144.01294968939203;
REPSWITCH1/PICTURE_687.png;camisa;type;gold;filler;1;F;1;3;4;2;Stim5_Set4;0;None;114;113;12;0;113;113;113;;;;;;;;;;;;;;;;;;;;;;;597.2336952001788;598.296352900099;598.296352900099;598.296352900099;598.296352900099;598.296352900099;598.296352900099;598.296352900099;598.296352900099;['c', 'a', 'm', 'i', 's', 'a'];0;[0.8825935001950711, 1.0735383999999613, 1.2456147000193596, 1.381161700002849, 1.487835100153461, 1.6313140999991447];camisa;C:\2023\REPSWITCH21092023\REPSWITCH_excgange\REPSWITCH_excgange\data/160204_REPSWITCH1_version2_list4_2023-11-29_09h13.45.548_micRespv2l4_recorded\recording_micRespv2l4_2023-11-29_09h23.39.516.wav;601.3175705000758;601.8177041001618;None;601.3175705000758;601.3175705000758;601.3175705000758;601.3175705000758;601.3175705000758;601.3175705000758;;;;;;160204;001;2023-11-29_09h13.45.548;REPSWITCH1_version2_list4;2022.2.4;144.01294968939203;
REPSWITCH1/PICTURE_178.png;puente;type;gold;nontarget;1;NT;1;3;4;2;Stim1_Set1;1;repeat;115;114;13;0;114;114;114;;;;;;;;;;;;;;;;;;;;;;;601.8177041001618;602.9914404000156;602.9914404000156;602.9914404000156;602.9914404000156;602.9914404000156;602.9914404000156;602.9914404000156;602.9914404000156;['p', 'u', 'e', 'n', 't', 'e'];0;[0.8332998000551015, 0.9509090001229197, 1.0435912001412362, 1.2188826999627054, 1.289046100107953, 1.3977039000019431];puente;C:\2023\REPSWITCH21092023\REPSWITCH_excgange\REPSWITCH_excgange\data/160204_REPSWITCH1_version2_list4_2023-11-29_09h13.45.548_micRespv2l4_recorded\recording_micRespv2l4_2023-11-29_09h23.44.211.wav;606.0126744001172;606.5126887001097;None;606.0126744001172;606.0126744001172;606.0126744001172;606.0126744001172;606.0126744001172;606.0126744001172;;;;;;160204;001;2023-11-29_09h13.45.548;REPSWITCH1_version2_list4;2022.2.4;144.01294968939203;
REPSWITCH1/PICTURE_178.png;puente;speak;darkblue;switch;2;T;1;3;4;2;Stim1_Set1;0;None;116;115;14;0;115;115;115;;;;;;;;;;;;;;;;;;;;;;;606.5126887001097;607.575369700091;607.575369700091;607.575369700091;607.575369700091;607.575369700091;607.575369700091;607.575369700091;607.575369700091;None;0;;;C:\2023\REPSWITCH21092023\REPSWITCH_excgange\REPSWITCH_excgange\data/160204_REPSWITCH1_version2_list4_2023-11-29_09h13.45.548_micRespv2l4_recorded\recording_micRespv2l4_2023-11-29_09h23.48.795.wav;610.6035188001115;;None;610.6035188001115;610.6035188001115;610.6035188001115;610.6035188001115;610.6035188001115;610.6035188001115;;;;;;160204;001;2023-11-29_09h13.45.548;REPSWITCH1_version2_list4;2022.2.4;144.01294968939203;
REPSWITCH1/PICTURE_128.png;muñeca;speak;darkblue;nontarget;2;NT;1;3;4;2;Stim4_Set1;1;repeat;117;116;15;0;116;116;116;;;;;;;;;;;;;;;;;;;;;;;611.1035474999808;612.1662095000502;612.1662095000502;612.1662095000502;612.1662095000502;612.1662095000502;612.1662095000502;612.1662095000502;612.1662095000502;None;0;;;C:\2023\REPSWITCH21092023\REPSWITCH_excgange\REPSWITCH_excgange\data/160204_REPSWITCH1_version2_list4_2023-11-29_09h13.45.548_micRespv2l4_recorded\recording_micRespv2l4_2023-11-29_09h23.53.385.wav;615.1874481001869;615.6874722000211;None;615.1874481001869;615.1874481001869;615.1874481001869;615.1874481001869;615.1874481001869;615.1874481001869;;;;;;160204;001;2023-11-29_09h13.45.548;REPSWITCH1_version2_list4;2022.2.4;144.01294968939203;
REPSWITCH1/PICTURE_128.png;muñeca;type;gold;switch;1;T;1;3;4;2;Stim4_Set1;0;None;118;117;16;0;117;117;117;;;;;;;;;;;;;;;;;;;;;;;615.6874722000211;616.7709876000881;616.7709876000881;616.7709876000881;616.7709876000881;616.7709876000881;616.7709876000881;616.7709876000881;616.7709876000881;['m', 'u', 'ñ', 'e', 'c', 'a'];0;[0.8644153999630362, 1.075603799894452, 1.3430095999501646, 1.490807400085032, 1.8160723000764847, 2.016526499995962];muñeca;C:\2023\REPSWITCH21092023\REPSWITCH_excgange\REPSWITCH_excgange\data/160204_REPSWITCH1_version2_list4_2023-11-29_09h13.45.548_micRespv2l4_recorded\recording_micRespv2l4_2023-11-29_09h23.57.990.wav;619.7921951001044;620.2922722999938;None;619.7921951001044;619.7921951001044;619.7921951001044;619.7921951001044;619.7921951001044;619.7921951001044;;;;;;160204;001;2023-11-29_09h13.45.548;REPSWITCH1_version2_list4;2022.2.4;144.01294968939203;
REPSWITCH1/PICTURE_319.png;vaca;speak;darkblue;filler;2;F;1;3;4;2;Stim1_Set4;1;switch;119;118;17;0;118;118;118;;;;;;;;;;;;;;;;;;;;;;;620.2922722999938;621.3757488999981;621.3757488999981;621.3757488999981;621.3757488999981;621.3757488999981;621.3757488999981;621.3757488999981;621.3757488999981;None;0;;;C:\2023\REPSWITCH21092023\REPSWITCH_excgange\REPSWITCH_excgange\data/160204_REPSWITCH1_version2_list4_2023-11-29_09h13.45.548_micRespv2l4_recorded\recording_micRespv2l4_2023-11-29_09h24.02.596.wav;624.3969336000737;624.8970334001351;None;624.3969336000737;624.3969336000737;624.3969336000737;624.3969336000737;624.3969336000737;624.3969336000737;;;;;;160204;001;2023-11-29_09h13.45.548;REPSWITCH1_version2_list4;2022.2.4;144.01294968939203;
REPSWITCH1/PICTURE_728.png;pulpo;speak;darkblue;filler;2;F;1;3;4;2;Stim8_Set4;0;None;120;119;18;0;119;119;119;;;;;;;;;;;;;;;;;;;;;;;624.8970334001351;625.9389286001679;625.9389286001679;625.9389286001679;625.9389286001679;625.9389286001679;625.9389286001679;625.9389286001679;625.9389286001679;None;0;;;C:\2023\REPSWITCH21092023\REPSWITCH_excgange\REPSWITCH_excgange\data/160204_REPSWITCH1_version2_list4_2023-11-29_09h13.45.548_micRespv2l4_recorded\recording_micRespv2l4_2023-11-29_09h24.07.158.wav;628.9600639001001;629.4601221000776;None;628.9600639001001;628.9600639001001;628.9600639001001;628.9600639001001;628.9600639001001;628.9600639001001;;;;;;160204;001;2023-11-29_09h13.45.548;REPSWITCH1_version2_list4;2022.2.4;144.01294968939203;
REPSWITCH1/PICTURE_381.png;fresa;type;gold;nontarget;1;NT;1;3;4;2;Stim2_Set1;1;switch;121;120;19;0;120;120;120;;;;;;;;;;;;;;;;;;;;;;;629.4601221000776;630.5991655001417;630.5991655001417;630.5991655001417;630.5991655001417;630.5991655001417;630.5991655001417;630.5991655001417;630.5991655001417;['f', 'r', 'e', 's', 'a'];0;[1.009501500055194, 1.228794600116089, 1.3262336000334471, 1.489892200101167, 1.7849381000269204];fresa;C:\2023\REPSWITCH21092023\REPSWITCH_excgange\REPSWITCH_excgange\data/160204_REPSWITCH1_version2_list4_2023-11-29_09h13.45.548_micRespv2l4_recorded\recording_micRespv2l4_2023-11-29_09h24.11.818.wav;633.6203913001809;634.1204498000443;None;633.6203913001809;633.6203913001809;633.6203913001809;633.6203913001809;633.6203913001809;633.6203913001809;;;;;;160204;001;2023-11-29_09h13.45.548;REPSWITCH1_version2_list4;2022.2.4;144.01294968939203;
