image;correctAns;respModal;frameColor;repSwitch;sequence;target;set;block;list;exp_version;stimulus;baseline;baseline_condition;trial_no;psychopy_trial;Column1;trialsREPSWITCH.thisRepN;trialsREPSWITCH.thisTrialN;trialsREPSWITCH.thisN;trialsREPSWITCH.thisIndex;textWelcome.started;textboxInstrMain1.started;textboxInstrMain1_2.started;textboxInstrMain1_3.started;keyInstrMain.started;keyInstrMain.keys;keyInstrMain.rt;textboxInstrMain2.started;textboxInstrMain2_2.started;textboxInstrMain2_3.started;textboxInstrMain2_4.started;textboxInstrMain2_5.started;textboxInstrMain2_6.started;textboxInstrMain2_7.started;textboxInstrMain2_8.started;textboxInstrMain2_9.started;textboxInstrMain2_10.started;textboxInstrMain2_11.started;textboxInstrMain2_12.started;keyInstrMain2.started;keyInstrMain2.keys;keyInstrMain2.rt;fixationITI.started;fixationITI.stopped;polygonColour.started;polygonWhite.started;imageObject.started;polygonType.started;textInput.started;keyResp.started;micRespv1l4.started;keyResp.keys;keyResp.corr;keyResp.rt;subjResponse;micRespv1l4.clip;textBlankLoop.started;textBlankLoop.stopped;keyPause.keys;polygonColour.stopped;polygonWhite.stopped;imageObject.stopped;polygonType.stopped;textInput.stopped;keyResp.stopped;textboxPause.started;keyPause.started;keyPause.rt;textboxGoodbye.started;textboxGoodbye.stopped;participant;session;date;expName;psychopyVersion;frameRate;Column2
;;;;;;;;;;;;;;;;;;;;;8.8045588;11.2986777;11.2986777;11.2986777;11.2986777;space;13.3417381;;;;;;;;;;;;;;;;;;;;;;;;;;;;;;;;;;;;;;;;;;;;390104;1;2023-12-13_14h44.55.977;REPSWITCH1_version1_list4;2022.2.4;144.0280907;
;;;;;;;;;;;;;;;;;;;;;;;;;;;;24.6546282;24.6546282;24.6546282;24.6546282;24.6546282;24.6546282;24.6546282;24.6546282;24.6546282;24.6546282;24.6546282;24.6546282;24.6546282;space;3.8024321;;;;;;;;;;;;;;;;;;;;;;;;;;;;;390104;1;2023-12-13_14h44.55.977;REPSWITCH1_version1_list4;2022.2.4;144.0280907;
REPSWITCH1/PICTURE_8.png;pierna;type;darkblue;filler;1;F;1;4;4;1;Stim3_Set4;0;None;1;0;1;0;0;0;0;;;;;;;;;;;;;;;;;;;;;;;28.5509514;29.6206659;29.6206659;29.6206659;29.6206659;29.6206659;29.6206659;29.6206659;29.6206659;['p', 'i', 'e', 'r', 'n', 'a'];0;[0.9705564002506435, 1.0578847001306713, 1.1748995003290474, 1.2364894999191165, 1.3242017002776265, 1.4330716002732515];pierna;C:\2023\REPSWITCH21092023\REPSWITCH_excgange\REPSWITCH_excgange\data/390104_REPSWITCH1_version1_list4_2023-12-13_14h44.55.977_micRespv1l4_recorded\recording_micRespv1l4_2023-12-13_14h45.21.665.wav;32.6417616;33.1418151;None;;;;;;;;;;;;390104;1;2023-12-13_14h44.55.977;REPSWITCH1_version1_list4;2022.2.4;144.0280907;
REPSWITCH1/PICTURE_498.png;taza;speak;gold;filler;2;F;1;4;4;1;Stim4_Set4;0;None;2;1;2;0;1;1;1;;;;;;;;;;;;;;;;;;;;;;;33.1418151;34.2530875;34.2530875;34.2530875;34.2530875;34.2530875;34.2530875;34.2530875;34.2530875;None;0;;;C:\2023\REPSWITCH21092023\REPSWITCH_excgange\REPSWITCH_excgange\data/390104_REPSWITCH1_version1_list4_2023-12-13_14h44.55.977_micRespv1l4_recorded\recording_micRespv1l4_2023-12-13_14h45.26.302.wav;37.2743374;37.7744074;None;37.2743374;37.2743374;37.2743374;37.2743374;37.2743374;37.2743374;;;;;;390104;1;2023-12-13_14h44.55.977;REPSWITCH1_version1_list4;2022.2.4;144.0280907;
REPSWITCH1/PICTURE_19.png;pavo;speak;gold;nontarget;2;NT;1;4;4;1;Stim5_Set1;1;repeat;3;2;3;0;2;2;2;;;;;;;;;;;;;;;;;;;;;;;37.7744074;38.809259;38.809259;38.809259;38.809259;38.809259;38.809259;38.809259;38.809259;None;0;;;C:\2023\REPSWITCH21092023\REPSWITCH_excgange\REPSWITCH_excgange\data/390104_REPSWITCH1_version1_list4_2023-12-13_14h44.55.977_micRespv1l4_recorded\recording_micRespv1l4_2023-12-13_14h45.30.859.wav;41.8374369;;None;41.8374369;41.8374369;41.8374369;41.8374369;41.8374369;41.8374369;;;;;;390104;1;2023-12-13_14h44.55.977;REPSWITCH1_version1_list4;2022.2.4;144.0280907;
REPSWITCH1/PICTURE_19.png;pavo;speak;gold;repeat;2;T;1;4;4;1;Stim5_Set1;0;None;4;3;4;0;3;3;3;;;;;;;;;;;;;;;;;;;;;;;42.3375;43.4279791;43.4279791;43.4279791;43.4279791;43.4279791;43.4279791;43.4279791;43.4279791;None;0;;;C:\2023\REPSWITCH21092023\REPSWITCH_excgange\REPSWITCH_excgange\data/390104_REPSWITCH1_version1_list4_2023-12-13_14h44.55.977_micRespv1l4_recorded\recording_micRespv1l4_2023-12-13_14h45.35.477.wav;46.4560967;;None;46.4560967;46.4560967;46.4560967;46.4560967;46.4560967;46.4560967;;;;;;390104;1;2023-12-13_14h44.55.977;REPSWITCH1_version1_list4;2022.2.4;144.0280907;
REPSWITCH1/PICTURE_319.png;vaca;type;darkblue;filler;1;F;1;4;4;1;Stim1_Set4;1;repeat;5;4;5;0;4;4;4;;;;;;;;;;;;;;;;;;;;;;;46.956168;48.0605504;48.0605504;48.0605504;48.0605504;48.0605504;48.0605504;48.0605504;48.0605504;['v', 'a', 'c', 'a'];0;[0.9617336997762322, 1.0045889997854829, 1.2786292997188866, 1.5581406001001596];vaca;C:\2023\REPSWITCH21092023\REPSWITCH_excgange\REPSWITCH_excgange\data/390104_REPSWITCH1_version1_list4_2023-12-13_14h44.55.977_micRespv1l4_recorded\recording_micRespv1l4_2023-12-13_14h45.40.109.wav;51.0816636;51.5817439;None;51.0816636;51.0816636;51.0816636;51.0816636;51.0816636;51.0816636;;;;;;390104;1;2023-12-13_14h44.55.977;REPSWITCH1_version1_list4;2022.2.4;144.0280907;
REPSWITCH1/PICTURE_169.png;espalda;speak;gold;nontarget;2;NT;1;4;4;1;Stim8_Set1;1;switch;6;5;6;0;5;5;5;;;;;;;;;;;;;;;;;;;;;;;51.5817439;52.6722029;52.6722029;52.6722029;52.6722029;52.6722029;52.6722029;52.6722029;52.6722029;None;0;;;C:\2023\REPSWITCH21092023\REPSWITCH_excgange\REPSWITCH_excgange\data/390104_REPSWITCH1_version1_list4_2023-12-13_14h44.55.977_micRespv1l4_recorded\recording_micRespv1l4_2023-12-13_14h45.44.721.wav;55.7003442;;None;55.7003442;55.7003442;55.7003442;55.7003442;55.7003442;55.7003442;;;;;;390104;1;2023-12-13_14h44.55.977;REPSWITCH1_version1_list4;2022.2.4;144.0280907;
REPSWITCH1/PICTURE_169.png;espalda;speak;gold;repeat;2;T;1;4;4;1;Stim8_Set1;0;None;7;6;7;0;6;6;6;;;;;;;;;;;;;;;;;;;;;;;56.2004263;57.3047267;57.3047267;57.3047267;57.3047267;57.3047267;57.3047267;57.3047267;57.3047267;None;0;;;C:\2023\REPSWITCH21092023\REPSWITCH_excgange\REPSWITCH_excgange\data/390104_REPSWITCH1_version1_list4_2023-12-13_14h44.55.977_micRespv1l4_recorded\recording_micRespv1l4_2023-12-13_14h45.49.354.wav;60.3259565;60.8260689;None;60.3259565;60.3259565;60.3259565;60.3259565;60.3259565;60.3259565;;;;;;390104;1;2023-12-13_14h44.55.977;REPSWITCH1_version1_list4;2022.2.4;144.0280907;
REPSWITCH1/PICTURE_728.png;pulpo;type;darkblue;filler;1;F;1;4;4;1;Stim8_Set4;0;None;8;7;8;0;7;7;7;;;;;;;;;;;;;;;;;;;;;;;60.8260689;61.8400544;61.8400544;61.8400544;61.8400544;61.8400544;61.8400544;61.8400544;61.8400544;['p', 'u', 'l', 'p', 'o'];0;[0.8184535000473261, 0.9131135996431112, 1.1666713999584317, 1.3630689997226, 1.4332164996303618];pulpo;C:\2023\REPSWITCH21092023\REPSWITCH_excgange\REPSWITCH_excgange\data/390104_REPSWITCH1_version1_list4_2023-12-13_14h44.55.977_micRespv1l4_recorded\recording_micRespv1l4_2023-12-13_14h45.53.888.wav;64.8612873;65.3613535;None;64.8612873;64.8612873;64.8612873;64.8612873;64.8612873;64.8612873;;;;;;390104;1;2023-12-13_14h44.55.977;REPSWITCH1_version1_list4;2022.2.4;144.0280907;
REPSWITCH1/PICTURE_142.png;vaso;speak;gold;nontarget;2;NT;1;4;4;1;Stim7_Set1;1;switch;9;8;9;0;8;8;8;;;;;;;;;;;;;;;;;;;;;;;65.3613535;66.3962127;66.3962127;66.3962127;66.3962127;66.3962127;66.3962127;66.3962127;66.3962127;None;0;;;C:\2023\REPSWITCH21092023\REPSWITCH_excgange\REPSWITCH_excgange\data/390104_REPSWITCH1_version1_list4_2023-12-13_14h44.55.977_micRespv1l4_recorded\recording_micRespv1l4_2023-12-13_14h45.58.446.wav;69.4243973;;None;69.4243973;69.4243973;69.4243973;69.4243973;69.4243973;69.4243973;;;;;;390104;1;2023-12-13_14h44.55.977;REPSWITCH1_version1_list4;2022.2.4;144.0280907;
REPSWITCH1/PICTURE_142.png;vaso;type;darkblue;switch;1;T;1;4;4;1;Stim7_Set1;0;None;10;9;10;0;9;9;9;;;;;;;;;;;;;;;;;;;;;;;69.9244512;71.0287433;71.0287433;71.0287433;71.0287433;71.0287433;71.0287433;71.0287433;71.0287433;['v', 'a', 's', 'o'];0;[0.6818099999800324, 0.7944299001246691, 0.8952436000108719, 1.0619513001292944];vaso;C:\2023\REPSWITCH21092023\REPSWITCH_excgange\REPSWITCH_excgange\data/390104_REPSWITCH1_version1_list4_2023-12-13_14h44.55.977_micRespv1l4_recorded\recording_micRespv1l4_2023-12-13_14h46.03.078.wav;74.0499891;74.5500559;None;74.0499891;74.0499891;74.0499891;74.0499891;74.0499891;74.0499891;;;;;;390104;1;2023-12-13_14h44.55.977;REPSWITCH1_version1_list4;2022.2.4;144.0280907;
REPSWITCH1/PICTURE_338.png;regalo;type;darkblue;filler;1;F;1;4;4;1;Stim6_Set4;1;repeat;11;10;11;0;10;10;10;;;;;;;;;;;;;;;;;;;;;;;74.5500559;75.7099056;75.7099056;75.7099056;75.7099056;75.7099056;75.7099056;75.7099056;75.7099056;['r', 'e', 'g', 'a', 'o', 'backspace', 'l', 'o'];0;[0.6624440001323819, 0.7613297998905182, 0.9032188998535275, 0.9530889997258782, 1.1976107996888459, 1.6874025999568403, 1.9106568996794522, 2.0531115997582674];regalo;C:\2023\REPSWITCH21092023\REPSWITCH_excgange\REPSWITCH_excgange\data/390104_REPSWITCH1_version1_list4_2023-12-13_14h44.55.977_micRespv1l4_recorded\recording_micRespv1l4_2023-12-13_14h46.07.759.wav;78.7311292;79.231234;None;78.7311292;78.7311292;78.7311292;78.7311292;78.7311292;78.7311292;;;;;;390104;1;2023-12-13_14h44.55.977;REPSWITCH1_version1_list4;2022.2.4;144.0280907;
REPSWITCH1/PICTURE_135.png;traje;type;darkblue;nontarget;1;NT;1;4;4;1;Stim3_Set1;1;repeat;12;11;12;0;11;11;11;;;;;;;;;;;;;;;;;;;;;;;79.231234;80.2938488;80.2938488;80.2938488;80.2938488;80.2938488;80.2938488;80.2938488;80.2938488;['t', 'r', 'a', 'e', 'backspace', 'j', 'e'];0;[0.661975999828428, 0.8639647997915745, 0.8898403998464346, 1.0889170998707414, 1.6831859997473657, 1.9146965998224914, 2.02284299954772];traje;C:\2023\REPSWITCH21092023\REPSWITCH_excgange\REPSWITCH_excgange\data/390104_REPSWITCH1_version1_list4_2023-12-13_14h44.55.977_micRespv1l4_recorded\recording_micRespv1l4_2023-12-13_14h46.12.343.wav;83.315072;83.815142;None;83.315072;83.315072;83.315072;83.315072;83.315072;83.315072;;;;;;390104;1;2023-12-13_14h44.55.977;REPSWITCH1_version1_list4;2022.2.4;144.0280907;
REPSWITCH1/PICTURE_135.png;traje;speak;gold;switch;2;T;1;4;4;1;Stim3_Set1;0;None;13;12;13;0;12;12;12;;;;;;;;;;;;;;;;;;;;;;;83.815142;84.8777733;84.8777733;84.8777733;84.8777733;84.8777733;84.8777733;84.8777733;84.8777733;None;0;;;C:\2023\REPSWITCH21092023\REPSWITCH_excgange\REPSWITCH_excgange\data/390104_REPSWITCH1_version1_list4_2023-12-13_14h44.55.977_micRespv1l4_recorded\recording_micRespv1l4_2023-12-13_14h46.16.927.wav;87.8990593;88.399093;None;87.8990593;87.8990593;87.8990593;87.8990593;87.8990593;87.8990593;;;;;;390104;1;2023-12-13_14h44.55.977;REPSWITCH1_version1_list4;2022.2.4;144.0280907;
REPSWITCH1/PICTURE_381.png;fresa;speak;gold;nontarget;2;NT;1;4;4;1;Stim2_Set1;1;repeat;14;13;14;0;13;13;13;;;;;;;;;;;;;;;;;;;;;;;88.399093;89.5103534;89.5103534;89.5103534;89.5103534;89.5103534;89.5103534;89.5103534;89.5103534;None;0;;;C:\2023\REPSWITCH21092023\REPSWITCH_excgange\REPSWITCH_excgange\data/390104_REPSWITCH1_version1_list4_2023-12-13_14h44.55.977_micRespv1l4_recorded\recording_micRespv1l4_2023-12-13_14h46.21.560.wav;92.5385333;;None;92.5385333;92.5385333;92.5385333;92.5385333;92.5385333;92.5385333;;;;;;390104;1;2023-12-13_14h44.55.977;REPSWITCH1_version1_list4;2022.2.4;144.0280907;
REPSWITCH1/PICTURE_381.png;fresa;type;darkblue;switch;1;T;1;4;4;1;Stim2_Set1;0;None;15;14;15;0;14;14;14;;;;;;;;;;;;;;;;;;;;;;;93.038589;94.1152081;94.1152081;94.1152081;94.1152081;94.1152081;94.1152081;94.1152081;94.1152081;['f', 'r', 'e', 's', 'a'];0;[0.6194402994588017, 0.8249409995041788, 0.8996476996690035, 0.9857470998540521, 1.0454850997775793];fresa;C:\2023\REPSWITCH21092023\REPSWITCH_excgange\REPSWITCH_excgange\data/390104_REPSWITCH1_version1_list4_2023-12-13_14h44.55.977_micRespv1l4_recorded\recording_micRespv1l4_2023-12-13_14h46.26.164.wav;97.1363502;97.6364792;None;97.1363502;97.1363502;97.1363502;97.1363502;97.1363502;97.1363502;;;;;;390104;1;2023-12-13_14h44.55.977;REPSWITCH1_version1_list4;2022.2.4;144.0280907;
REPSWITCH1/PICTURE_48.png;bombero;type;darkblue;filler;1;F;1;4;4;1;Stim7_Set4;0;None;16;15;16;0;15;15;15;;;;;;;;;;;;;;;;;;;;;;;97.6364792;98.6782358;98.6782358;98.6782358;98.6782358;98.6782358;98.6782358;98.6782358;98.6782358;['b', 'o', 'm', 'b', 'e', 'r', 'o'];0;[0.7954025999642909, 0.9026283998973668, 1.000410699751228, 1.1372756999917328, 1.3648179997690022, 1.397768700029701, 1.4874521000310779];bombero;C:\2023\REPSWITCH21092023\REPSWITCH_excgange\REPSWITCH_excgange\data/390104_REPSWITCH1_version1_list4_2023-12-13_14h44.55.977_micRespv1l4_recorded\recording_micRespv1l4_2023-12-13_14h46.30.727.wav;101.699444;102.199577;None;101.699444;101.699444;101.699444;101.699444;101.699444;101.699444;;;;;;390104;1;2023-12-13_14h44.55.977;REPSWITCH1_version1_list4;2022.2.4;144.0280907;
REPSWITCH1/PICTURE_687.png;camisa;speak;gold;filler;2;F;1;4;4;1;Stim5_Set4;0;None;17;16;17;0;16;16;16;;;;;;;;;;;;;;;;;;;;;;;102.199577;103.2552713;103.2552713;103.2552713;103.2552713;103.2552713;103.2552713;103.2552713;103.2552713;None;0;;;C:\2023\REPSWITCH21092023\REPSWITCH_excgange\REPSWITCH_excgange\data/390104_REPSWITCH1_version1_list4_2023-12-13_14h44.55.977_micRespv1l4_recorded\recording_micRespv1l4_2023-12-13_14h46.35.304.wav;106.2833722;;None;106.2833722;106.2833722;106.2833722;106.2833722;106.2833722;106.2833722;;;;;;390104;1;2023-12-13_14h44.55.977;REPSWITCH1_version1_list4;2022.2.4;144.0280907;
REPSWITCH1/PICTURE_128.png;muñeca;type;darkblue;nontarget;1;NT;1;4;4;1;Stim4_Set1;0;None;18;17;18;0;17;17;17;;;;;;;;;;;;;;;;;;;;;;;106.7834416;107.8669365;107.8669365;107.8669365;107.8669365;107.8669365;107.8669365;107.8669365;107.8669365;['m', 'u', 'ñ', 'e', 'c', 'a'];0;[0.6930768000893295, 0.8727671001106501, 1.0482077999040484, 1.2624830999411643, 1.4484190000221133, 1.4876429997384548];muñeca;C:\2023\REPSWITCH21092023\REPSWITCH_excgange\REPSWITCH_excgange\data/390104_REPSWITCH1_version1_list4_2023-12-13_14h44.55.977_micRespv1l4_recorded\recording_micRespv1l4_2023-12-13_14h46.39.915.wav;110.8881509;111.3882313;None;110.8881509;110.8881509;110.8881509;110.8881509;110.8881509;110.8881509;;;;;;390104;1;2023-12-13_14h44.55.977;REPSWITCH1_version1_list4;2022.2.4;144.0280907;
REPSWITCH1/PICTURE_128.png;muñeca;type;darkblue;repeat;1;T;1;4;4;1;Stim4_Set1;0;None;19;18;19;0;18;18;18;;;;;;;;;;;;;;;;;;;;;;;111.3882313;112.4439275;112.4439275;112.4439275;112.4439275;112.4439275;112.4439275;112.4439275;112.4439275;['m', 'u', 'ñ', 'c', 'backspace', 'e', 'c', 'a'];0;[0.8131508999504149, 1.0046760998666286, 1.1966535998508334, 1.5225593000650406, 1.894741399679333, 1.987920300103724, 2.145387999713421, 2.201202199794352];muñeca;C:\2023\REPSWITCH21092023\REPSWITCH_excgange\REPSWITCH_excgange\data/390104_REPSWITCH1_version1_list4_2023-12-13_14h44.55.977_micRespv1l4_recorded\recording_micRespv1l4_2023-12-13_14h46.44.494.wav;115.4720855;;None;115.4720855;115.4720855;115.4720855;115.4720855;115.4720855;115.4720855;;;;;;390104;1;2023-12-13_14h44.55.977;REPSWITCH1_version1_list4;2022.2.4;144.0280907;
REPSWITCH1/PICTURE_719.png;baño;speak;gold;filler;2;F;1;4;4;1;Stim2_Set4;1;switch;20;19;20;0;19;19;19;;;;;;;;;;;;;;;;;;;;;;;115.9721618;117.0626269;117.0626269;117.0626269;117.0626269;117.0626269;117.0626269;117.0626269;117.0626269;None;0;;;C:\2023\REPSWITCH21092023\REPSWITCH_excgange\REPSWITCH_excgange\data/390104_REPSWITCH1_version1_list4_2023-12-13_14h44.55.977_micRespv1l4_recorded\recording_micRespv1l4_2023-12-13_14h46.49.112.wav;120.0907195;;None;120.0907195;120.0907195;120.0907195;120.0907195;120.0907195;120.0907195;;;;;;390104;1;2023-12-13_14h44.55.977;REPSWITCH1_version1_list4;2022.2.4;144.0280907;
REPSWITCH1/PICTURE_178.png;puente;type;darkblue;nontarget;1;NT;1;4;4;1;Stim1_Set1;1;switch;21;20;21;0;20;20;20;;;;;;;;;;;;;;;;;;;;;;;120.5907799;121.688217;121.688217;121.688217;121.688217;121.688217;121.688217;121.688217;121.688217;['p', 'u', 'e', 'n', 't', 'a', 'backspace', 'e'];0;[1.0213918001390994, 1.1057933000847697, 1.2520416998304427, 1.3377434997819364, 1.4627366000786424, 1.5185577999800444, 2.031832200009376, 2.0946959001012146];puente;C:\2023\REPSWITCH21092023\REPSWITCH_excgange\REPSWITCH_excgange\data/390104_REPSWITCH1_version1_list4_2023-12-13_14h44.55.977_micRespv1l4_recorded\recording_micRespv1l4_2023-12-13_14h46.53.736.wav;124.7094056;125.2095291;None;124.7094056;124.7094056;124.7094056;124.7094056;124.7094056;124.7094056;;;;;;390104;1;2023-12-13_14h44.55.977;REPSWITCH1_version1_list4;2022.2.4;144.0280907;
REPSWITCH1/PICTURE_178.png;puente;type;darkblue;repeat;1;T;1;4;4;1;Stim1_Set1;0;None;22;21;22;0;21;21;21;;;;;;;;;;;;;;;;;;;;;;;125.2095291;126.3554729;126.3554729;126.3554729;126.3554729;126.3554729;126.3554729;126.3554729;126.3554729;['p', 'u', 'e', 'n', 't', 'e'];0;[0.7495390996336937, 0.873135999776423, 1.089401999488473, 1.1761051998473704, 1.3057378996163607, 1.3429458998143673];puente;C:\2023\REPSWITCH21092023\REPSWITCH_excgange\REPSWITCH_excgange\data/390104_REPSWITCH1_version1_list4_2023-12-13_14h44.55.977_micRespv1l4_recorded\recording_micRespv1l4_2023-12-13_14h46.58.405.wav;129.3766434;129.8767086;None;129.3766434;129.3766434;129.3766434;129.3766434;129.3766434;129.3766434;;;;;;390104;1;2023-12-13_14h44.55.977;REPSWITCH1_version1_list4;2022.2.4;144.0280907;
REPSWITCH1/PICTURE_16.png;cazador;type;darkblue;nontarget;1;NT;1;4;4;1;Stim6_Set1;1;repeat;23;22;23;0;22;22;22;;;;;;;;;;;;;;;;;;;;;;;129.8767086;131.0157924;131.0157924;131.0157924;131.0157924;131.0157924;131.0157924;131.0157924;131.0157924;['c', 'a', 'z', 'a', 'd', 'o', 'r'];0;[0.9281849996186793, 1.0088765998370945, 1.2311627995222807, 1.392993999645114, 1.5176832997240126, 1.6671473998576403, 1.7588466997258365];cazador;C:\2023\REPSWITCH21092023\REPSWITCH_excgange\REPSWITCH_excgange\data/390104_REPSWITCH1_version1_list4_2023-12-13_14h44.55.977_micRespv1l4_recorded\recording_micRespv1l4_2023-12-13_14h47.03.065.wav;134.0370183;134.5370634;None;134.0370183;134.0370183;134.0370183;134.0370183;134.0370183;134.0370183;;;;;;390104;1;2023-12-13_14h44.55.977;REPSWITCH1_version1_list4;2022.2.4;144.0280907;
REPSWITCH1/PICTURE_16.png;cazador;speak;gold;switch;2;T;1;4;4;1;Stim6_Set1;0;None;24;23;24;0;23;23;23;;;;;;;;;;;;;;;;;;;;;;;134.5370634;135.6899887;135.6899887;135.6899887;135.6899887;135.6899887;135.6899887;135.6899887;135.6899887;None;0;;;C:\2023\REPSWITCH21092023\REPSWITCH_excgange\REPSWITCH_excgange\data/390104_REPSWITCH1_version1_list4_2023-12-13_14h44.55.977_micRespv1l4_recorded\recording_micRespv1l4_2023-12-13_14h47.07.740.wav;138.718231;;None;138.718231;138.718231;138.718231;138.718231;138.718231;138.718231;;;;;;390104;1;2023-12-13_14h44.55.977;REPSWITCH1_version1_list4;2022.2.4;144.0280907;
REPSWITCH1/PICTURE_19.png;pavo;type;darkblue;filler;1;F;2;4;4;1;Stim5_Set1;0;None;25;24;25;0;24;24;24;;;;;;;;;;;;;;;;;;;;;;;139.2182473;140.3920654;140.3920654;140.3920654;140.3920654;140.3920654;140.3920654;140.3920654;140.3920654;['p', 'a', 'v', 'o'];0;[0.6723211002536118, 0.7581127001903951, 0.8726127999834716, 0.9686719002202153];pavo;C:\2023\REPSWITCH21092023\REPSWITCH_excgange\REPSWITCH_excgange\data/390104_REPSWITCH1_version1_list4_2023-12-13_14h44.55.977_micRespv1l4_recorded\recording_micRespv1l4_2023-12-13_14h47.12.441.wav;143.4132203;143.9132969;None;143.4132203;143.4132203;143.4132203;143.4132203;143.4132203;143.4132203;;;;;;390104;1;2023-12-13_14h44.55.977;REPSWITCH1_version1_list4;2022.2.4;144.0280907;
REPSWITCH1/PICTURE_199.png;falda;type;darkblue;nontarget;1;NT;2;4;4;1;Stim8_Set2;1;repeat;26;25;26;0;25;25;25;;;;;;;;;;;;;;;;;;;;;;;143.9132969;145.0940704;145.0940704;145.0940704;145.0940704;145.0940704;145.0940704;145.0940704;145.0940704;['f', 'a', 'l', 'd', 'a'];0;[0.8054019003175199, 0.8913074000738561, 0.9978650002740324, 1.118564700242132, 1.1494157002307475];falda;C:\2023\REPSWITCH21092023\REPSWITCH_excgange\REPSWITCH_excgange\data/390104_REPSWITCH1_version1_list4_2023-12-13_14h44.55.977_micRespv1l4_recorded\recording_micRespv1l4_2023-12-13_14h47.17.143.wav;148.1152359;148.6153354;None;148.1152359;148.1152359;148.1152359;148.1152359;148.1152359;148.1152359;;;;;;390104;1;2023-12-13_14h44.55.977;REPSWITCH1_version1_list4;2022.2.4;144.0280907;
REPSWITCH1/PICTURE_199.png;falda;type;darkblue;repeat;1;T;2;4;4;1;Stim8_Set2;0;None;27;26;27;0;26;26;26;;;;;;;;;;;;;;;;;;;;;;;148.6153354;149.6641129;149.6641129;149.6641129;149.6641129;149.6641129;149.6641129;149.6641129;149.6641129;['f', 'a', 'l', 'd', 'a'];0;[0.5509200999513268, 0.6426082001999021, 0.7753265998326242, 0.9024682999588549, 0.9792066998779774];falda;C:\2023\REPSWITCH21092023\REPSWITCH_excgange\REPSWITCH_excgange\data/390104_REPSWITCH1_version1_list4_2023-12-13_14h44.55.977_micRespv1l4_recorded\recording_micRespv1l4_2023-12-13_14h47.21.713.wav;152.6852944;153.1854238;None;152.6852944;152.6852944;152.6852944;152.6852944;152.6852944;152.6852944;;;;;;390104;1;2023-12-13_14h44.55.977;REPSWITCH1_version1_list4;2022.2.4;144.0280907;
REPSWITCH1/PICTURE_178.png;puente;speak;gold;filler;2;F;2;4;4;1;Stim1_Set1;1;switch;28;27;28;0;27;27;27;;;;;;;;;;;;;;;;;;;;;;;153.1854238;154.3105731;154.3105731;154.3105731;154.3105731;154.3105731;154.3105731;154.3105731;154.3105731;None;0;;;C:\2023\REPSWITCH21092023\REPSWITCH_excgange\REPSWITCH_excgange\data/390104_REPSWITCH1_version1_list4_2023-12-13_14h44.55.977_micRespv1l4_recorded\recording_micRespv1l4_2023-12-13_14h47.26.360.wav;157.338656;;None;157.338656;157.338656;157.338656;157.338656;157.338656;157.338656;;;;;;390104;1;2023-12-13_14h44.55.977;REPSWITCH1_version1_list4;2022.2.4;144.0280907;
REPSWITCH1/PICTURE_517.png;cuerda;type;darkblue;nontarget;1;NT;2;4;4;1;Stim4_Set2;1;switch;29;28;29;0;28;28;28;;;;;;;;;;;;;;;;;;;;;;;157.8387067;158.8735919;158.8735919;158.8735919;158.8735919;158.8735919;158.8735919;158.8735919;158.8735919;['c', 'u', 'e', 'r', 'd', 'a'];0;[0.6872081998735666, 0.7988404999487102, 0.9203229998238385, 0.9880229998379946, 1.151486000046134, 1.2563767996616662];cuerda;C:\2023\REPSWITCH21092023\REPSWITCH_excgange\REPSWITCH_excgange\data/390104_REPSWITCH1_version1_list4_2023-12-13_14h44.55.977_micRespv1l4_recorded\recording_micRespv1l4_2023-12-13_14h47.30.922.wav;161.8948855;162.3948854;None;161.8948855;161.8948855;161.8948855;161.8948855;161.8948855;161.8948855;;;;;;390104;1;2023-12-13_14h44.55.977;REPSWITCH1_version1_list4;2022.2.4;144.0280907;
REPSWITCH1/PICTURE_517.png;cuerda;type;darkblue;repeat;1;T;2;4;4;1;Stim4_Set2;0;None;30;29;30;0;29;29;29;;;;;;;;;;;;;;;;;;;;;;;162.3948854;163.4783584;163.4783584;163.4783584;163.4783584;163.4783584;163.4783584;163.4783584;163.4783584;['c', 'u', 'e', 'r', 'd', 'a'];0;[0.49063329957425594, 0.606921499595046, 0.7425538999959826, 0.7864580997265875, 0.9648134997114539, 1.0332847000099719];cuerda;C:\2023\REPSWITCH21092023\REPSWITCH_excgange\REPSWITCH_excgange\data/390104_REPSWITCH1_version1_list4_2023-12-13_14h44.55.977_micRespv1l4_recorded\recording_micRespv1l4_2023-12-13_14h47.35.528.wav;166.4995804;166.9997157;None;166.4995804;166.4995804;166.4995804;166.4995804;166.4995804;166.4995804;;;;;;390104;1;2023-12-13_14h44.55.977;REPSWITCH1_version1_list4;2022.2.4;144.0280907;
REPSWITCH1/PICTURE_169.png;espalda;type;darkblue;filler;1;F;2;4;4;1;Stim8_Set1;0;None;31;30;31;0;30;30;30;;;;;;;;;;;;;;;;;;;;;;;166.9997157;168.1040243;168.1040243;168.1040243;168.1040243;168.1040243;168.1040243;168.1040243;168.1040243;['e', 's', 'p', 'a', 'l', 'd', 'a'];0;[0.6695971000008285, 0.7562981001101434, 0.8539756997488439, 1.000448300037533, 1.092856700066477, 1.2025485001504421, 1.271524699870497];espalda;C:\2023\REPSWITCH21092023\REPSWITCH_excgange\REPSWITCH_excgange\data/390104_REPSWITCH1_version1_list4_2023-12-13_14h44.55.977_micRespv1l4_recorded\recording_micRespv1l4_2023-12-13_14h47.40.153.wav;171.132153;;None;171.132153;171.132153;171.132153;171.132153;171.132153;171.132153;;;;;;390104;1;2023-12-13_14h44.55.977;REPSWITCH1_version1_list4;2022.2.4;144.0280907;
REPSWITCH1/PICTURE_673.png;tenedor;speak;gold;filler;2;F;2;4;4;1;Extra5;0;None;32;31;32;0;31;31;31;;;;;;;;;;;;;;;;;;;;;;;171.6322189;172.6879232;172.6879232;172.6879232;172.6879232;172.6879232;172.6879232;172.6879232;172.6879232;None;0;;;C:\2023\REPSWITCH21092023\REPSWITCH_excgange\REPSWITCH_excgange\data/390104_REPSWITCH1_version1_list4_2023-12-13_14h44.55.977_micRespv1l4_recorded\recording_micRespv1l4_2023-12-13_14h47.44.736.wav;175.7091399;176.2092039;None;175.7091399;175.7091399;175.7091399;175.7091399;175.7091399;175.7091399;;;;;;390104;1;2023-12-13_14h44.55.977;REPSWITCH1_version1_list4;2022.2.4;144.0280907;
REPSWITCH1/PICTURE_142.png;vaso;type;darkblue;filler;1;F;2;4;4;1;Stim7_Set1;1;switch;33;32;33;0;32;32;32;;;;;;;;;;;;;;;;;;;;;;;176.2092039;177.3621986;177.3621986;177.3621986;177.3621986;177.3621986;177.3621986;177.3621986;177.3621986;['v', 'a', 's', 'o'];0;[0.6135906996205449, 0.7102629998698831, 0.7925823996774852, 0.9022651999257505];vaso;C:\2023\REPSWITCH21092023\REPSWITCH_excgange\REPSWITCH_excgange\data/390104_REPSWITCH1_version1_list4_2023-12-13_14h44.55.977_micRespv1l4_recorded\recording_micRespv1l4_2023-12-13_14h47.49.411.wav;180.390307;;None;180.390307;180.390307;180.390307;180.390307;180.390307;180.390307;;;;;;390104;1;2023-12-13_14h44.55.977;REPSWITCH1_version1_list4;2022.2.4;144.0280907;
REPSWITCH1/PICTURE_552.png;manzana;type;darkblue;nontarget;1;NT;2;4;4;1;Stim6_Set2;1;repeat;34;33;34;0;33;33;33;;;;;;;;;;;;;;;;;;;;;;;180.89036;181.9807887;181.9807887;181.9807887;181.9807887;181.9807887;181.9807887;181.9807887;181.9807887;['m', 'a', 'n', 'z', 'a', 'n', 'a'];0;[0.8868331997655332, 1.0762367998249829, 1.1688845995813608, 1.3776804995723069, 1.665098499506712, 1.851641499903053, 1.9154234998859465];manzana;C:\2023\REPSWITCH21092023\REPSWITCH_excgange\REPSWITCH_excgange\data/390104_REPSWITCH1_version1_list4_2023-12-13_14h44.55.977_micRespv1l4_recorded\recording_micRespv1l4_2023-12-13_14h47.54.031.wav;185.0089351;185.5090365;None;185.0089351;185.0089351;185.0089351;185.0089351;185.0089351;185.0089351;;;;;;390104;1;2023-12-13_14h44.55.977;REPSWITCH1_version1_list4;2022.2.4;144.0280907;
REPSWITCH1/PICTURE_552.png;manzana;speak;gold;switch;1;T;2;4;4;1;Stim6_Set2;0;None;35;34;35;0;34;34;34;;;;;;;;;;;;;;;;;;;;;;;185.5090365;186.5855605;186.5855605;186.5855605;186.5855605;186.5855605;186.5855605;186.5855605;186.5855605;None;0;;;C:\2023\REPSWITCH21092023\REPSWITCH_excgange\REPSWITCH_excgange\data/390104_REPSWITCH1_version1_list4_2023-12-13_14h44.55.977_micRespv1l4_recorded\recording_micRespv1l4_2023-12-13_14h47.58.635.wav;189.6137069;190.113777;None;189.6137069;189.6137069;189.6137069;189.6137069;189.6137069;189.6137069;;;;;;390104;1;2023-12-13_14h44.55.977;REPSWITCH1_version1_list4;2022.2.4;144.0280907;
REPSWITCH1/PICTURE_135.png;traje;speak;gold;filler;2;F;2;4;4;1;Stim3_Set1;0;None;36;35;36;0;35;35;35;;;;;;;;;;;;;;;;;;;;;;;190.113777;191.2042091;191.2042091;191.2042091;191.2042091;191.2042091;191.2042091;191.2042091;191.2042091;None;0;;;C:\2023\REPSWITCH21092023\REPSWITCH_excgange\REPSWITCH_excgange\data/390104_REPSWITCH1_version1_list4_2023-12-13_14h44.55.977_micRespv1l4_recorded\recording_micRespv1l4_2023-12-13_14h48.03.253.wav;194.2254643;194.7255162;None;194.2254643;194.2254643;194.2254643;194.2254643;194.2254643;194.2254643;;;;;;390104;1;2023-12-13_14h44.55.977;REPSWITCH1_version1_list4;2022.2.4;144.0280907;
REPSWITCH1/PICTURE_152.png;caracol;speak;gold;nontarget;2;NT;2;4;4;1;Stim2_Set2;1;repeat;37;36;37;0;36;36;36;;;;;;;;;;;;;;;;;;;;;;;194.7255162;195.8090032;195.8090032;195.8090032;195.8090032;195.8090032;195.8090032;195.8090032;195.8090032;None;0;;;C:\2023\REPSWITCH21092023\REPSWITCH_excgange\REPSWITCH_excgange\data/390104_REPSWITCH1_version1_list4_2023-12-13_14h44.55.977_micRespv1l4_recorded\recording_micRespv1l4_2023-12-13_14h48.07.858.wav;198.8301962;199.3302766;None;198.8301962;198.8301962;198.8301962;198.8301962;198.8301962;198.8301962;;;;;;390104;1;2023-12-13_14h44.55.977;REPSWITCH1_version1_list4;2022.2.4;144.0280907;
REPSWITCH1/PICTURE_152.png;caracol;type;darkblue;switch;1;T;2;4;4;1;Stim2_Set2;0;None;38;37;38;0;37;37;37;;;;;;;;;;;;;;;;;;;;;;;199.3302766;200.4832365;200.4832365;200.4832365;200.4832365;200.4832365;200.4832365;200.4832365;200.4832365;['c', 'a', 'r', 'a', 'c', 'o', 'l'];0;[0.6453571999445558, 0.7539367000572383, 0.8887871000915766, 0.9698497001081705, 1.1663045999594033, 1.231088399887085, 1.4015413001179695];caracol;C:\2023\REPSWITCH21092023\REPSWITCH_excgange\REPSWITCH_excgange\data/390104_REPSWITCH1_version1_list4_2023-12-13_14h44.55.977_micRespv1l4_recorded\recording_micRespv1l4_2023-12-13_14h48.12.533.wav;203.5044132;204.0045182;None;203.5044132;203.5044132;203.5044132;203.5044132;203.5044132;203.5044132;;;;;;390104;1;2023-12-13_14h44.55.977;REPSWITCH1_version1_list4;2022.2.4;144.0280907;
REPSWITCH1/PICTURE_381.png;fresa;type;darkblue;filler;1;F;2;4;4;1;Stim2_Set1;0;None;39;38;39;0;38;38;38;;;;;;;;;;;;;;;;;;;;;;;204.0045182;205.1504883;205.1504883;205.1504883;205.1504883;205.1504883;205.1504883;205.1504883;205.1504883;['f', 'r', 'e', 's', 'a'];0;[0.5765559002757072, 0.7782318000681698, 0.8530174000188708, 0.9331744001246989, 0.9976898999884725];fresa;C:\2023\REPSWITCH21092023\REPSWITCH_excgange\REPSWITCH_excgange\data/390104_REPSWITCH1_version1_list4_2023-12-13_14h44.55.977_micRespv1l4_recorded\recording_micRespv1l4_2023-12-13_14h48.17.200.wav;208.1717358;208.6717655;None;208.1717358;208.1717358;208.1717358;208.1717358;208.1717358;208.1717358;;;;;;390104;1;2023-12-13_14h44.55.977;REPSWITCH1_version1_list4;2022.2.4;144.0280907;
REPSWITCH1/PICTURE_446.png;cerdo;type;darkblue;nontarget;1;NT;2;4;4;1;Stim7_Set2;1;repeat;40;39;40;0;39;39;39;;;;;;;;;;;;;;;;;;;;;;;208.6717655;209.8386129;209.8386129;209.8386129;209.8386129;209.8386129;209.8386129;209.8386129;209.8386129;['c', 'e', 'r', 'd', 'o'];0;[0.8820004998706281, 1.0574423000216484, 1.1232082000933588, 1.2818558001890779, 1.380868799984455];cerdo;C:\2023\REPSWITCH21092023\REPSWITCH_excgange\REPSWITCH_excgange\data/390104_REPSWITCH1_version1_list4_2023-12-13_14h44.55.977_micRespv1l4_recorded\recording_micRespv1l4_2023-12-13_14h48.21.888.wav;212.866756;;None;212.866756;212.866756;212.866756;212.866756;212.866756;212.866756;;;;;;390104;1;2023-12-13_14h44.55.977;REPSWITCH1_version1_list4;2022.2.4;144.0280907;
REPSWITCH1/PICTURE_446.png;cerdo;speak;gold;switch;2;T;2;4;4;1;Stim7_Set2;0;None;41;40;41;0;40;40;40;;;;;;;;;;;;;;;;;;;;;;;213.3668297;214.4781286;214.4781286;214.4781286;214.4781286;214.4781286;214.4781286;214.4781286;214.4781286;None;0;;;C:\2023\REPSWITCH21092023\REPSWITCH_excgange\REPSWITCH_excgange\data/390104_REPSWITCH1_version1_list4_2023-12-13_14h44.55.977_micRespv1l4_recorded\recording_micRespv1l4_2023-12-13_14h48.26.528.wav;217.5063309;;None;217.5063309;217.5063309;217.5063309;217.5063309;217.5063309;217.5063309;;;;;;390104;1;2023-12-13_14h44.55.977;REPSWITCH1_version1_list4;2022.2.4;144.0280907;
REPSWITCH1/PICTURE_264.png;mano;speak;gold;nontarget;2;NT;2;4;4;1;Stim3_Set2;0;None;42;41;42;0;41;41;41;;;;;;;;;;;;;;;;;;;;;;;218.006346;219.1940803;219.1940803;219.1940803;219.1940803;219.1940803;219.1940803;219.1940803;219.1940803;None;0;;;C:\2023\REPSWITCH21092023\REPSWITCH_excgange\REPSWITCH_excgange\data/390104_REPSWITCH1_version1_list4_2023-12-13_14h44.55.977_micRespv1l4_recorded\recording_micRespv1l4_2023-12-13_14h48.31.243.wav;222.2152371;222.7152865;None;222.2152371;222.2152371;222.2152371;222.2152371;222.2152371;222.2152371;;;;;;390104;1;2023-12-13_14h44.55.977;REPSWITCH1_version1_list4;2022.2.4;144.0280907;
REPSWITCH1/PICTURE_264.png;mano;speak;gold;repeat;2;T;2;4;4;1;Stim3_Set2;0;None;43;42;43;0;42;42;42;;;;;;;;;;;;;;;;;;;;;;;222.7152865;223.7918121;223.7918121;223.7918121;223.7918121;223.7918121;223.7918121;223.7918121;223.7918121;None;0;;;C:\2023\REPSWITCH21092023\REPSWITCH_excgange\REPSWITCH_excgange\data/390104_REPSWITCH1_version1_list4_2023-12-13_14h44.55.977_micRespv1l4_recorded\recording_micRespv1l4_2023-12-13_14h48.35.840.wav;226.8130242;227.3131107;None;226.8130242;226.8130242;226.8130242;226.8130242;226.8130242;226.8130242;;;;;;390104;1;2023-12-13_14h44.55.977;REPSWITCH1_version1_list4;2022.2.4;144.0280907;
REPSWITCH1/PICTURE_128.png;muñeca;type;darkblue;filler;1;F;2;4;4;1;Stim4_Set1;0;None;44;43;44;0;43;43;43;;;;;;;;;;;;;;;;;;;;;;;227.3131107;228.4660887;228.4660887;228.4660887;228.4660887;228.4660887;228.4660887;228.4660887;228.4660887;['m', 'u', 'ñ', 'e', 'c', 'a'];0;[0.6830778997391462, 0.8753938996233046, 1.2887386996299028, 1.4323223996907473, 1.6462431997060776, 1.6871066996827722];muñeca;C:\2023\REPSWITCH21092023\REPSWITCH_excgange\REPSWITCH_excgange\data/390104_REPSWITCH1_version1_list4_2023-12-13_14h44.55.977_micRespv1l4_recorded\recording_micRespv1l4_2023-12-13_14h48.40.514.wav;231.4942225;;None;231.4942225;231.4942225;231.4942225;231.4942225;231.4942225;231.4942225;;;;;;390104;1;2023-12-13_14h44.55.977;REPSWITCH1_version1_list4;2022.2.4;144.0280907;
REPSWITCH1/PICTURE_30.png;granja;speak;gold;nontarget;2;NT;2;4;4;1;Stim5_Set2;1;switch;45;44;45;0;44;44;44;;;;;;;;;;;;;;;;;;;;;;;231.9942951;233.1194222;233.1194222;233.1194222;233.1194222;233.1194222;233.1194222;233.1194222;233.1194222;None;0;;;C:\2023\REPSWITCH21092023\REPSWITCH_excgange\REPSWITCH_excgange\data/390104_REPSWITCH1_version1_list4_2023-12-13_14h44.55.977_micRespv1l4_recorded\recording_micRespv1l4_2023-12-13_14h48.45.170.wav;236.147667;236.6476614;None;236.147667;236.147667;236.147667;236.147667;236.147667;236.147667;;;;;;390104;1;2023-12-13_14h44.55.977;REPSWITCH1_version1_list4;2022.2.4;144.0280907;
REPSWITCH1/PICTURE_30.png;granja;speak;gold;repeat;2;T;2;4;4;1;Stim5_Set2;0;None;46;45;46;0;45;45;45;;;;;;;;;;;;;;;;;;;;;;;236.6476614;237.7589561;237.7589561;237.7589561;237.7589561;237.7589561;237.7589561;237.7589561;237.7589561;None;0;;;C:\2023\REPSWITCH21092023\REPSWITCH_excgange\REPSWITCH_excgange\data/390104_REPSWITCH1_version1_list4_2023-12-13_14h44.55.977_micRespv1l4_recorded\recording_micRespv1l4_2023-12-13_14h48.49.809.wav;240.7871186;;None;240.7871186;240.7871186;240.7871186;240.7871186;240.7871186;240.7871186;;;;;;390104;1;2023-12-13_14h44.55.977;REPSWITCH1_version1_list4;2022.2.4;144.0280907;
REPSWITCH1/PICTURE_646.png;tronco;type;darkblue;filler;1;F;2;4;4;1;Extra4;0;None;47;46;47;0;46;46;46;;;;;;;;;;;;;;;;;;;;;;;241.2871799;242.4123663;242.4123663;242.4123663;242.4123663;242.4123663;242.4123663;242.4123663;242.4123663;['t', 'r', 'o', 'n', 'c', 'o'];0;[0.6661245999857783, 0.8587736999616027, 0.954418099950999, 1.0231877001933753, 1.1129260999150574, 1.2444815998896956];tronco;C:\2023\REPSWITCH21092023\REPSWITCH_excgange\REPSWITCH_excgange\data/390104_REPSWITCH1_version1_list4_2023-12-13_14h44.55.977_micRespv1l4_recorded\recording_micRespv1l4_2023-12-13_14h48.54.461.wav;245.433568;245.9336153;None;245.433568;245.433568;245.433568;245.433568;245.433568;245.433568;;;;;;390104;1;2023-12-13_14h44.55.977;REPSWITCH1_version1_list4;2022.2.4;144.0280907;
REPSWITCH1/PICTURE_16.png;cazador;speak;gold;filler;2;F;2;4;4;1;Stim6_Set1;0;None;48;47;48;0;47;47;47;;;;;;;;;;;;;;;;;;;;;;;245.9336153;247.0170806;247.0170806;247.0170806;247.0170806;247.0170806;247.0170806;247.0170806;247.0170806;None;0;;;C:\2023\REPSWITCH21092023\REPSWITCH_excgange\REPSWITCH_excgange\data/390104_REPSWITCH1_version1_list4_2023-12-13_14h44.55.977_micRespv1l4_recorded\recording_micRespv1l4_2023-12-13_14h48.59.066.wav;250.0383983;250.5383799;None;250.0383983;250.0383983;250.0383983;250.0383983;250.0383983;250.0383983;;;;;;390104;1;2023-12-13_14h44.55.977;REPSWITCH1_version1_list4;2022.2.4;144.0280907;
REPSWITCH1/PICTURE_175.png;pintor;speak;gold;nontarget;2;NT;2;4;4;1;Stim1_Set2;1;repeat;49;48;49;0;48;48;48;;;;;;;;;;;;;;;;;;;;;;;250.5383799;251.6704872;251.6704872;251.6704872;251.6704872;251.6704872;251.6704872;251.6704872;251.6704872;None;0;;;C:\2023\REPSWITCH21092023\REPSWITCH_excgange\REPSWITCH_excgange\data/390104_REPSWITCH1_version1_list4_2023-12-13_14h44.55.977_micRespv1l4_recorded\recording_micRespv1l4_2023-12-13_14h49.03.719.wav;254.6916797;255.1918222;None;254.6916797;254.6916797;254.6916797;254.6916797;254.6916797;254.6916797;;;;;;390104;1;2023-12-13_14h44.55.977;REPSWITCH1_version1_list4;2022.2.4;144.0280907;
REPSWITCH1/PICTURE_175.png;pintor;type;darkblue;switch;1;T;2;4;4;1;Stim1_Set2;0;None;50;49;50;0;49;49;49;;;;;;;;;;;;;;;;;;;;;;;255.1918222;256.282268;256.282268;256.282268;256.282268;256.282268;256.282268;256.282268;256.282268;['p', 'i', 'n', 't', 'o', 'r'];0;[0.6842125002294779, 0.8183512999676168, 0.9747699000872672, 1.200365100055933, 1.3478427999652922, 1.4285606001503766];pintor;C:\2023\REPSWITCH21092023\REPSWITCH_excgange\REPSWITCH_excgange\data/390104_REPSWITCH1_version1_list4_2023-12-13_14h44.55.977_micRespv1l4_recorded\recording_micRespv1l4_2023-12-13_14h49.08.331.wav;259.3034491;259.8035003;None;259.3034491;259.3034491;259.3034491;259.3034491;259.3034491;259.3034491;;;;;;390104;1;2023-12-13_14h44.55.977;REPSWITCH1_version1_list4;2022.2.4;144.0280907;
REPSWITCH1/PICTURE_663.png;columna;speak;gold;filler;2;F;4;4;4;1;Extra6;0;None;51;50;51;0;50;50;50;;;;;;;;;;;;;;;;;;;;;;;259.8035003;260.9008721;260.9008721;260.9008721;260.9008721;260.9008721;260.9008721;260.9008721;260.9008721;None;0;;;C:\2023\REPSWITCH21092023\REPSWITCH_excgange\REPSWITCH_excgange\data/390104_REPSWITCH1_version1_list4_2023-12-13_14h44.55.977_micRespv1l4_recorded\recording_micRespv1l4_2023-12-13_14h49.12.950.wav;263.9291084;;space;263.9291084;263.9291084;263.9291084;263.9291084;263.9291084;263.9291084;264.4291082;264.4291082;8.2835945;;;390104;1;2023-12-13_14h44.55.977;REPSWITCH1_version1_list4;2022.2.4;144.0280907;
REPSWITCH1/PICTURE_35.png;oreja;type;darkblue;nontarget;1;NT;3;4;4;1;Stim5_Set3;0;None;52;51;52;0;51;51;51;;;;;;;;;;;;;;;;;;;;;;;272.7219165;273.8122951;273.8122951;273.8122951;273.8122951;273.8122951;273.8122951;273.8122951;273.8122951;['o', 'r', 'e', 'j', 'a'];0;[0.9297372996807098, 1.023749299813062, 1.0987793998792768, 1.1415699999779463, 1.2644073995761573];oreja;C:\2023\REPSWITCH21092023\REPSWITCH_excgange\REPSWITCH_excgange\data/390104_REPSWITCH1_version1_list4_2023-12-13_14h44.55.977_micRespv1l4_recorded\recording_micRespv1l4_2023-12-13_14h49.25.862.wav;276.8404619;;None;276.8404619;276.8404619;276.8404619;276.8404619;276.8404619;276.8404619;;;;;;390104;1;2023-12-13_14h44.55.977;REPSWITCH1_version1_list4;2022.2.4;144.0280907;
REPSWITCH1/PICTURE_35.png;oreja;speak;gold;switch;2;T;3;4;4;1;Stim5_Set3;0;None;53;52;53;0;52;52;52;;;;;;;;;;;;;;;;;;;;;;;277.3405865;278.4726012;278.4726012;278.4726012;278.4726012;278.4726012;278.4726012;278.4726012;278.4726012;None;0;;;C:\2023\REPSWITCH21092023\REPSWITCH_excgange\REPSWITCH_excgange\data/390104_REPSWITCH1_version1_list4_2023-12-13_14h44.55.977_micRespv1l4_recorded\recording_micRespv1l4_2023-12-13_14h49.30.521.wav;281.4938072;281.9939056;None;281.4938072;281.4938072;281.4938072;281.4938072;281.4938072;281.4938072;;;;;;390104;1;2023-12-13_14h44.55.977;REPSWITCH1_version1_list4;2022.2.4;144.0280907;
REPSWITCH1/PICTURE_199.png;falda;speak;gold;filler;2;F;3;4;4;1;Stim8_Set2;0;None;54;53;54;0;53;53;53;;;;;;;;;;;;;;;;;;;;;;;281.9939056;283.0773978;283.0773978;283.0773978;283.0773978;283.0773978;283.0773978;283.0773978;283.0773978;None;0;;;C:\2023\REPSWITCH21092023\REPSWITCH_excgange\REPSWITCH_excgange\data/390104_REPSWITCH1_version1_list4_2023-12-13_14h44.55.977_micRespv1l4_recorded\recording_micRespv1l4_2023-12-13_14h49.35.127.wav;286.1055585;;None;286.1055585;286.1055585;286.1055585;286.1055585;286.1055585;286.1055585;;;;;;390104;1;2023-12-13_14h44.55.977;REPSWITCH1_version1_list4;2022.2.4;144.0280907;
REPSWITCH1/PICTURE_576.png;guante;speak;gold;nontarget;2;NT;3;4;4;1;Stim1_Set3;1;repeat;55;54;55;0;54;54;54;;;;;;;;;;;;;;;;;;;;;;;286.605583;287.7724253;287.7724253;287.7724253;287.7724253;287.7724253;287.7724253;287.7724253;287.7724253;None;0;;;C:\2023\REPSWITCH21092023\REPSWITCH_excgange\REPSWITCH_excgange\data/390104_REPSWITCH1_version1_list4_2023-12-13_14h44.55.977_micRespv1l4_recorded\recording_micRespv1l4_2023-12-13_14h49.39.822.wav;290.8005904;;None;290.8005904;290.8005904;290.8005904;290.8005904;290.8005904;290.8005904;;;;;;390104;1;2023-12-13_14h44.55.977;REPSWITCH1_version1_list4;2022.2.4;144.0280907;
REPSWITCH1/PICTURE_576.png;guante;type;darkblue;switch;1;T;3;4;4;1;Stim1_Set3;0;None;56;55;56;0;55;55;55;;;;;;;;;;;;;;;;;;;;;;;291.3007306;292.3633253;292.3633253;292.3633253;292.3633253;292.3633253;292.3633253;292.3633253;292.3633253;['g', 'u', 'a', 'n', 't', 'e'];0;[0.6773506999015808, 0.7988934000022709, 1.1061260998249054, 1.2867709998972714, 1.3724654000252485, 1.4562523998320103];guante;C:\2023\REPSWITCH21092023\REPSWITCH_excgange\REPSWITCH_excgange\data/390104_REPSWITCH1_version1_list4_2023-12-13_14h44.55.977_micRespv1l4_recorded\recording_micRespv1l4_2023-12-13_14h49.44.412.wav;295.3845538;295.884594;None;295.3845538;295.3845538;295.3845538;295.3845538;295.3845538;295.3845538;;;;;;390104;1;2023-12-13_14h44.55.977;REPSWITCH1_version1_list4;2022.2.4;144.0280907;
REPSWITCH1/PICTURE_517.png;cuerda;type;darkblue;filler;1;F;3;4;4;1;Stim4_Set2;1;repeat;57;56;57;0;56;56;56;;;;;;;;;;;;;;;;;;;;;;;295.884594;296.9680887;296.9680887;296.9680887;296.9680887;296.9680887;296.9680887;296.9680887;296.9680887;['c', 'u', 'e', 'r', 'd', 'a'];0;[0.8387754000723362, 0.9623603001236916, 1.0573696000501513, 1.1156611000187695, 1.287401800043881, 1.3412204002961516];cuerda;C:\2023\REPSWITCH21092023\REPSWITCH_excgange\REPSWITCH_excgange\data/390104_REPSWITCH1_version1_list4_2023-12-13_14h44.55.977_micRespv1l4_recorded\recording_micRespv1l4_2023-12-13_14h49.49.018.wav;299.9962693;;None;299.9962693;299.9962693;299.9962693;299.9962693;299.9962693;299.9962693;;;;;;390104;1;2023-12-13_14h44.55.977;REPSWITCH1_version1_list4;2022.2.4;144.0280907;
REPSWITCH1/PICTURE_271.png;conejo;type;darkblue;nontarget;1;NT;3;4;4;1;Stim7_Set3;1;repeat;58;57;58;0;57;57;57;;;;;;;;;;;;;;;;;;;;;;;300.4963961;301.5590145;301.5590145;301.5590145;301.5590145;301.5590145;301.5590145;301.5590145;301.5590145;['c', 'o', 'n', 'e', 'j', 'o'];0;[0.8040565997362137, 0.9176422995515168, 0.9716782998293638, 1.1328001995570958, 1.2345707998611033, 1.3272028998471797];conejo;C:\2023\REPSWITCH21092023\REPSWITCH_excgange\REPSWITCH_excgange\data/390104_REPSWITCH1_version1_list4_2023-12-13_14h44.55.977_micRespv1l4_recorded\recording_micRespv1l4_2023-12-13_14h49.53.608.wav;304.5801964;305.080268;None;304.5801964;304.5801964;304.5801964;304.5801964;304.5801964;304.5801964;;;;;;390104;1;2023-12-13_14h44.55.977;REPSWITCH1_version1_list4;2022.2.4;144.0280907;
REPSWITCH1/PICTURE_271.png;conejo;speak;gold;switch;2;T;3;4;4;1;Stim7_Set3;0;None;59;58;59;0;58;58;58;;;;;;;;;;;;;;;;;;;;;;;305.080268;306.1082507;306.1082507;306.1082507;306.1082507;306.1082507;306.1082507;306.1082507;306.1082507;None;0;;;C:\2023\REPSWITCH21092023\REPSWITCH_excgange\REPSWITCH_excgange\data/390104_REPSWITCH1_version1_list4_2023-12-13_14h44.55.977_micRespv1l4_recorded\recording_micRespv1l4_2023-12-13_14h49.58.157.wav;309.1293851;309.6294721;None;309.1293851;309.1293851;309.1293851;309.1293851;309.1293851;309.1293851;;;;;;390104;1;2023-12-13_14h44.55.977;REPSWITCH1_version1_list4;2022.2.4;144.0280907;
REPSWITCH1/PICTURE_552.png;manzana;type;darkblue;filler;1;F;3;4;4;1;Stim6_Set2;0;None;60;59;60;0;59;59;59;;;;;;;;;;;;;;;;;;;;;;;309.6294721;310.6990412;310.6990412;310.6990412;310.6990412;310.6990412;310.6990412;310.6990412;310.6990412;['m', 'a', 'n', 'z', 'a', 'n', 'a'];0;[0.7884076000191271, 0.955789600033313, 1.1056870999746025, 1.6627344000153244, 1.838568199891597, 1.9581677997484803, 2.0398828997276723];manzana;C:\2023\REPSWITCH21092023\REPSWITCH_excgange\REPSWITCH_excgange\data/390104_REPSWITCH1_version1_list4_2023-12-13_14h44.55.977_micRespv1l4_recorded\recording_micRespv1l4_2023-12-13_14h50.02.749.wav;313.727234;;None;313.727234;313.727234;313.727234;313.727234;313.727234;313.727234;;;;;;390104;1;2023-12-13_14h44.55.977;REPSWITCH1_version1_list4;2022.2.4;144.0280907;
REPSWITCH1/PICTURE_242.png;cartero;speak;gold;nontarget;2;NT;3;4;4;1;Stim3_Set3;1;switch;61;60;61;0;60;60;60;;;;;;;;;;;;;;;;;;;;;;;314.2273205;315.2830249;315.2830249;315.2830249;315.2830249;315.2830249;315.2830249;315.2830249;315.2830249;None;0;;;C:\2023\REPSWITCH21092023\REPSWITCH_excgange\REPSWITCH_excgange\data/390104_REPSWITCH1_version1_list4_2023-12-13_14h44.55.977_micRespv1l4_recorded\recording_micRespv1l4_2023-12-13_14h50.07.332.wav;318.3042261;318.8042888;None;318.3042261;318.3042261;318.3042261;318.3042261;318.3042261;318.3042261;;;;;;390104;1;2023-12-13_14h44.55.977;REPSWITCH1_version1_list4;2022.2.4;144.0280907;
REPSWITCH1/PICTURE_242.png;cartero;speak;gold;repeat;2;T;3;4;4;1;Stim3_Set3;0;None;62;61;62;0;61;61;61;;;;;;;;;;;;;;;;;;;;;;;318.8042888;319.8530839;319.8530839;319.8530839;319.8530839;319.8530839;319.8530839;319.8530839;319.8530839;None;0;;;C:\2023\REPSWITCH21092023\REPSWITCH_excgange\REPSWITCH_excgange\data/390104_REPSWITCH1_version1_list4_2023-12-13_14h44.55.977_micRespv1l4_recorded\recording_micRespv1l4_2023-12-13_14h50.11.902.wav;322.8812121;;None;322.8812121;322.8812121;322.8812121;322.8812121;322.8812121;322.8812121;;;;;;390104;1;2023-12-13_14h44.55.977;REPSWITCH1_version1_list4;2022.2.4;144.0280907;
REPSWITCH1/PICTURE_152.png;caracol;speak;gold;filler;2;F;3;4;4;1;Stim2_Set2;0;None;63;62;63;0;62;62;62;;;;;;;;;;;;;;;;;;;;;;;323.3812801;324.541148;324.541148;324.541148;324.541148;324.541148;324.541148;324.541148;324.541148;None;0;;;C:\2023\REPSWITCH21092023\REPSWITCH_excgange\REPSWITCH_excgange\data/390104_REPSWITCH1_version1_list4_2023-12-13_14h44.55.977_micRespv1l4_recorded\recording_micRespv1l4_2023-12-13_14h50.16.590.wav;327.5693251;;None;327.5693251;327.5693251;327.5693251;327.5693251;327.5693251;327.5693251;;;;;;390104;1;2023-12-13_14h44.55.977;REPSWITCH1_version1_list4;2022.2.4;144.0280907;
REPSWITCH1/PICTURE_446.png;cerdo;type;darkblue;filler;1;F;3;4;4;1;Stim7_Set2;1;switch;64;63;64;0;63;63;63;;;;;;;;;;;;;;;;;;;;;;;328.0693964;329.201547;329.201547;329.201547;329.201547;329.201547;329.201547;329.201547;329.201547;['c', 'e', 'r', 'd', 'o'];0;[0.6514419997110963, 0.8457493996247649, 0.9165331996046007, 1.0594106996431947, 1.1431276998482645];cerdo;C:\2023\REPSWITCH21092023\REPSWITCH_excgange\REPSWITCH_excgange\data/390104_REPSWITCH1_version1_list4_2023-12-13_14h44.55.977_micRespv1l4_recorded\recording_micRespv1l4_2023-12-13_14h50.21.251.wav;332.2226966;332.7227578;None;332.2226966;332.2226966;332.2226966;332.2226966;332.2226966;332.2226966;;;;;;390104;1;2023-12-13_14h44.55.977;REPSWITCH1_version1_list4;2022.2.4;144.0280907;
REPSWITCH1/PICTURE_610.png;miel;speak;gold;nontarget;2;NT;3;4;4;1;Stim2_Set3;1;switch;65;64;65;0;64;64;64;;;;;;;;;;;;;;;;;;;;;;;332.7227578;333.8340975;333.8340975;333.8340975;333.8340975;333.8340975;333.8340975;333.8340975;333.8340975;None;0;;;C:\2023\REPSWITCH21092023\REPSWITCH_excgange\REPSWITCH_excgange\data/390104_REPSWITCH1_version1_list4_2023-12-13_14h44.55.977_micRespv1l4_recorded\recording_micRespv1l4_2023-12-13_14h50.25.884.wav;336.8621782;;None;336.8621782;336.8621782;336.8621782;336.8621782;336.8621782;336.8621782;;;;;;390104;1;2023-12-13_14h44.55.977;REPSWITCH1_version1_list4;2022.2.4;144.0280907;
REPSWITCH1/PICTURE_610.png;miel;speak;gold;repeat;2;T;3;4;4;1;Stim2_Set3;0;None;66;65;66;0;65;65;65;;;;;;;;;;;;;;;;;;;;;;;337.3622756;338.5152383;338.5152383;338.5152383;338.5152383;338.5152383;338.5152383;338.5152383;338.5152383;None;0;;;C:\2023\REPSWITCH21092023\REPSWITCH_excgange\REPSWITCH_excgange\data/390104_REPSWITCH1_version1_list4_2023-12-13_14h44.55.977_micRespv1l4_recorded\recording_micRespv1l4_2023-12-13_14h50.30.564.wav;341.5364957;342.0365796;None;341.5364957;341.5364957;341.5364957;341.5364957;341.5364957;341.5364957;;;;;;390104;1;2023-12-13_14h44.55.977;REPSWITCH1_version1_list4;2022.2.4;144.0280907;
REPSWITCH1/PICTURE_320.png;iglesia;speak;gold;nontarget;2;NT;3;4;4;1;Stim8_Set3;1;repeat;67;66;67;0;66;66;66;;;;;;;;;;;;;;;;;;;;;;;342.0365796;343.1269082;343.1269082;343.1269082;343.1269082;343.1269082;343.1269082;343.1269082;343.1269082;None;0;;;C:\2023\REPSWITCH21092023\REPSWITCH_excgange\REPSWITCH_excgange\data/390104_REPSWITCH1_version1_list4_2023-12-13_14h44.55.977_micRespv1l4_recorded\recording_micRespv1l4_2023-12-13_14h50.35.176.wav;346.1481603;346.6482166;None;346.1481603;346.1481603;346.1481603;346.1481603;346.1481603;346.1481603;;;;;;390104;1;2023-12-13_14h44.55.977;REPSWITCH1_version1_list4;2022.2.4;144.0280907;
REPSWITCH1/PICTURE_320.png;iglesia;type;darkblue;switch;1;T;3;4;4;1;Stim8_Set3;0;None;68;67;68;0;67;67;67;;;;;;;;;;;;;;;;;;;;;;;346.6482166;347.7595584;347.7595584;347.7595584;347.7595584;347.7595584;347.7595584;347.7595584;347.7595584;['i', 'g', 'l', 'e', 's', 'i', 'a'];0;[0.608034800272435, 0.7246229001320899, 0.857184300199151, 0.9717926001176238, 1.1087332000024617, 1.252170099876821, 1.3877194998785853];iglesia;C:\2023\REPSWITCH21092023\REPSWITCH_excgange\REPSWITCH_excgange\data/390104_REPSWITCH1_version1_list4_2023-12-13_14h44.55.977_micRespv1l4_recorded\recording_micRespv1l4_2023-12-13_14h50.39.809.wav;350.7876307;;None;350.7876307;350.7876307;350.7876307;350.7876307;350.7876307;350.7876307;;;;;;390104;1;2023-12-13_14h44.55.977;REPSWITCH1_version1_list4;2022.2.4;144.0280907;
REPSWITCH1/PICTURE_30.png;granja;speak;gold;filler;2;F;3;4;4;1;Stim5_Set2;0;None;69;68;69;0;68;68;68;;;;;;;;;;;;;;;;;;;;;;;351.2876791;352.4198237;352.4198237;352.4198237;352.4198237;352.4198237;352.4198237;352.4198237;352.4198237;None;0;;;C:\2023\REPSWITCH21092023\REPSWITCH_excgange\REPSWITCH_excgange\data/390104_REPSWITCH1_version1_list4_2023-12-13_14h44.55.977_micRespv1l4_recorded\recording_micRespv1l4_2023-12-13_14h50.44.469.wav;355.4479723;;None;355.4479723;355.4479723;355.4479723;355.4479723;355.4479723;355.4479723;;;;;;390104;1;2023-12-13_14h44.55.977;REPSWITCH1_version1_list4;2022.2.4;144.0280907;
REPSWITCH1/PICTURE_264.png;mano;type;darkblue;filler;1;F;3;4;4;1;Stim3_Set2;0;None;70;69;70;0;69;69;69;;;;;;;;;;;;;;;;;;;;;;;355.9480474;357.0106956;357.0106956;357.0106956;357.0106956;357.0106956;357.0106956;357.0106956;357.0106956;['m', 'a', 'n', 'o'];0;[0.8495655995793641, 0.919340199790895, 1.1428574998863041, 1.2205880996771157];mano;C:\2023\REPSWITCH21092023\REPSWITCH_excgange\REPSWITCH_excgange\data/390104_REPSWITCH1_version1_list4_2023-12-13_14h44.55.977_micRespv1l4_recorded\recording_micRespv1l4_2023-12-13_14h50.49.060.wav;360.0319261;360.5320592;None;360.0319261;360.0319261;360.0319261;360.0319261;360.0319261;360.0319261;;;;;;390104;1;2023-12-13_14h44.55.977;REPSWITCH1_version1_list4;2022.2.4;144.0280907;
REPSWITCH1/PICTURE_464.png;goma;type;darkblue;nontarget;1;NT;3;4;4;1;Stim6_Set3;0;None;71;70;71;0;70;70;70;;;;;;;;;;;;;;;;;;;;;;;360.5320592;361.6224211;361.6224211;361.6224211;361.6224211;361.6224211;361.6224211;361.6224211;361.6224211;['g', 'o', 'm', 'a'];0;[0.6636886997148395, 0.7573232995346189, 0.8480189996771514, 0.9508275995030999];goma;C:\2023\REPSWITCH21092023\REPSWITCH_excgange\REPSWITCH_excgange\data/390104_REPSWITCH1_version1_list4_2023-12-13_14h44.55.977_micRespv1l4_recorded\recording_micRespv1l4_2023-12-13_14h50.53.671.wav;364.6436511;365.1436805;None;364.6436511;364.6436511;364.6436511;364.6436511;364.6436511;364.6436511;;;;;;390104;1;2023-12-13_14h44.55.977;REPSWITCH1_version1_list4;2022.2.4;144.0280907;
REPSWITCH1/PICTURE_464.png;goma;type;darkblue;repeat;1;T;3;4;4;1;Stim6_Set3;0;None;72;71;72;0;71;71;71;;;;;;;;;;;;;;;;;;;;;;;365.1436805;366.2410869;366.2410869;366.2410869;366.2410869;366.2410869;366.2410869;366.2410869;366.2410869;['g', 'o', 'm', 'a'];0;[0.6953217997215688, 0.8081781999208033, 0.8759105997160077, 0.9955533999018371];goma;C:\2023\REPSWITCH21092023\REPSWITCH_excgange\REPSWITCH_excgange\data/390104_REPSWITCH1_version1_list4_2023-12-13_14h44.55.977_micRespv1l4_recorded\recording_micRespv1l4_2023-12-13_14h50.58.290.wav;369.2692365;;None;369.2692365;369.2692365;369.2692365;369.2692365;369.2692365;369.2692365;;;;;;390104;1;2023-12-13_14h44.55.977;REPSWITCH1_version1_list4;2022.2.4;144.0280907;
REPSWITCH1/PICTURE_175.png;pintor;speak;gold;filler;2;F;3;4;4;1;Stim1_Set2;0;None;73;72;73;0;72;72;72;;;;;;;;;;;;;;;;;;;;;;;369.7693115;370.8597571;370.8597571;370.8597571;370.8597571;370.8597571;370.8597571;370.8597571;370.8597571;None;0;;;C:\2023\REPSWITCH21092023\REPSWITCH_excgange\REPSWITCH_excgange\data/390104_REPSWITCH1_version1_list4_2023-12-13_14h44.55.977_micRespv1l4_recorded\recording_micRespv1l4_2023-12-13_14h51.02.909.wav;373.887911;;None;373.887911;373.887911;373.887911;373.887911;373.887911;373.887911;;;;;;390104;1;2023-12-13_14h44.55.977;REPSWITCH1_version1_list4;2022.2.4;144.0280907;
REPSWITCH1/PICTURE_235.png;aguja;type;darkblue;nontarget;1;NT;3;4;4;1;Stim4_Set3;1;switch;74;73;74;0;73;73;73;;;;;;;;;;;;;;;;;;;;;;;374.3880466;375.471431;375.471431;375.471431;375.471431;375.471431;375.471431;375.471431;375.471431;['a', 'g', 'u', 'j', 'a'];0;[0.7691621999256313, 0.9667721996083856, 1.1312284995801747, 1.3471727995201945, 1.40991639951244];aguja;C:\2023\REPSWITCH21092023\REPSWITCH_excgange\REPSWITCH_excgange\data/390104_REPSWITCH1_version1_list4_2023-12-13_14h44.55.977_micRespv1l4_recorded\recording_micRespv1l4_2023-12-13_14h51.07.521.wav;378.4926507;378.9927038;None;378.4926507;378.4926507;378.4926507;378.4926507;378.4926507;378.4926507;;;;;;390104;1;2023-12-13_14h44.55.977;REPSWITCH1_version1_list4;2022.2.4;144.0280907;
REPSWITCH1/PICTURE_235.png;aguja;type;darkblue;repeat;1;T;3;4;4;1;Stim4_Set3;0;None;75;74;75;0;74;74;74;;;;;;;;;;;;;;;;;;;;;;;378.9927038;380.180422;380.180422;380.180422;380.180422;380.180422;380.180422;380.180422;380.180422;['a', 'g', 'u', 'j', 'a'];0;[0.5121860997751355, 0.7117806999012828, 0.8113942998461425, 1.0107252998277545, 1.066529099829495];aguja;C:\2023\REPSWITCH21092023\REPSWITCH_excgange\REPSWITCH_excgange\data/390104_REPSWITCH1_version1_list4_2023-12-13_14h44.55.977_micRespv1l4_recorded\recording_micRespv1l4_2023-12-13_14h51.12.230.wav;383.2015898;383.701653;None;383.2015898;383.2015898;383.2015898;383.2015898;383.2015898;383.2015898;;;;;;390104;1;2023-12-13_14h44.55.977;REPSWITCH1_version1_list4;2022.2.4;144.0280907;
REPSWITCH1/PICTURE_576.png;guante;type;darkblue;filler;1;F;4;4;4;1;Stim1_Set3;1;repeat;76;75;76;0;75;75;75;;;;;;;;;;;;;;;;;;;;;;;383.701653;384.7852265;384.7852265;384.7852265;384.7852265;384.7852265;384.7852265;384.7852265;384.7852265;['g', 'u', 'a', 'n', 't', 'e'];0;[0.7294930997304618, 0.8351634996943176, 0.9308116999454796, 1.0414701998233795, 1.124745599925518, 1.17159410007298];guante;C:\2023\REPSWITCH21092023\REPSWITCH_excgange\REPSWITCH_excgange\data/390104_REPSWITCH1_version1_list4_2023-12-13_14h44.55.977_micRespv1l4_recorded\recording_micRespv1l4_2023-12-13_14h51.16.834.wav;387.806401;388.3064517;None;387.806401;387.806401;387.806401;387.806401;387.806401;387.806401;;;;;;390104;1;2023-12-13_14h44.55.977;REPSWITCH1_version1_list4;2022.2.4;144.0280907;
REPSWITCH1/PICTURE_340.png;espejo;speak;gold;filler;2;F;4;4;4;1;Extra1;0;None;77;76;77;0;76;76;76;;;;;;;;;;;;;;;;;;;;;;;388.3064517;389.4107696;389.4107696;389.4107696;389.4107696;389.4107696;389.4107696;389.4107696;389.4107696;None;0;;;C:\2023\REPSWITCH21092023\REPSWITCH_excgange\REPSWITCH_excgange\data/390104_REPSWITCH1_version1_list4_2023-12-13_14h44.55.977_micRespv1l4_recorded\recording_micRespv1l4_2023-12-13_14h51.21.459.wav;392.4390188;;None;392.4390188;392.4390188;392.4390188;392.4390188;392.4390188;392.4390188;;;;;;390104;1;2023-12-13_14h44.55.977;REPSWITCH1_version1_list4;2022.2.4;144.0280907;
REPSWITCH1/PICTURE_464.png;goma;speak;gold;filler;2;F;4;4;4;1;Stim6_Set3;1;repeat;78;77;78;0;77;77;77;;;;;;;;;;;;;;;;;;;;;;;392.9390172;393.9877606;393.9877606;393.9877606;393.9877606;393.9877606;393.9877606;393.9877606;393.9877606;None;0;;;C:\2023\REPSWITCH21092023\REPSWITCH_excgange\REPSWITCH_excgange\data/390104_REPSWITCH1_version1_list4_2023-12-13_14h44.55.977_micRespv1l4_recorded\recording_micRespv1l4_2023-12-13_14h51.26.036.wav;397.008993;397.5090611;None;397.008993;397.008993;397.008993;397.008993;397.008993;397.008993;;;;;;390104;1;2023-12-13_14h44.55.977;REPSWITCH1_version1_list4;2022.2.4;144.0280907;
REPSWITCH1/PICTURE_338.png;regalo;type;darkblue;nontarget;1;NT;4;4;4;1;Stim6_Set4;0;None;79;78;79;0;78;78;78;;;;;;;;;;;;;;;;;;;;;;;397.5090611;398.5300359;398.5300359;398.5300359;398.5300359;398.5300359;398.5300359;398.5300359;398.5300359;['r', 'e', 'g', 'a', 'l', 'o'];0;[0.6720419996418059, 0.7537712994962931, 0.9221988995559514, 0.9999268995597959, 1.1341165998019278, 1.290542499627918];regalo;C:\2023\REPSWITCH21092023\REPSWITCH_excgange\REPSWITCH_excgange\data/390104_REPSWITCH1_version1_list4_2023-12-13_14h44.55.977_micRespv1l4_recorded\recording_micRespv1l4_2023-12-13_14h51.30.579.wav;401.5512927;402.051324;None;401.5512927;401.5512927;401.5512927;401.5512927;401.5512927;401.5512927;;;;;;390104;1;2023-12-13_14h44.55.977;REPSWITCH1_version1_list4;2022.2.4;144.0280907;
REPSWITCH1/PICTURE_338.png;regalo;type;darkblue;repeat;1;T;4;4;4;1;Stim6_Set4;0;None;80;79;80;0;79;79;79;;;;;;;;;;;;;;;;;;;;;;;402.051324;403.190381;403.190381;403.190381;403.190381;403.190381;403.190381;403.190381;403.190381;['r', 'e', 'g', 'a', 'l', 'o'];0;[0.6980257998220623, 0.800628500059247, 0.922203800175339, 1.0139005999080837, 1.1334367999807, 1.2988689001649618];regalo;C:\2023\REPSWITCH21092023\REPSWITCH_excgange\REPSWITCH_excgange\data/390104_REPSWITCH1_version1_list4_2023-12-13_14h44.55.977_micRespv1l4_recorded\recording_micRespv1l4_2023-12-13_14h51.35.240.wav;406.2185799;;None;406.2185799;406.2185799;406.2185799;406.2185799;406.2185799;406.2185799;;;;;;390104;1;2023-12-13_14h44.55.977;REPSWITCH1_version1_list4;2022.2.4;144.0280907;
REPSWITCH1/PICTURE_8.png;pierna;type;darkblue;nontarget;1;NT;4;4;4;1;Stim3_Set4;1;repeat;81;80;81;0;80;80;80;;;;;;;;;;;;;;;;;;;;;;;406.7185766;407.7326386;407.7326386;407.7326386;407.7326386;407.7326386;407.7326386;407.7326386;407.7326386;['p', 'i', 'e', 'r', 'n', 'a'];0;[0.7900776998139918, 0.9405517997220159, 1.00839600013569, 1.0607340997084975, 1.1635537999682128, 1.2494427999481559];pierna;C:\2023\REPSWITCH21092023\REPSWITCH_excgange\REPSWITCH_excgange\data/390104_REPSWITCH1_version1_list4_2023-12-13_14h44.55.977_micRespv1l4_recorded\recording_micRespv1l4_2023-12-13_14h51.39.781.wav;410.7538569;411.2539033;None;410.7538569;410.7538569;410.7538569;410.7538569;410.7538569;410.7538569;;;;;;390104;1;2023-12-13_14h44.55.977;REPSWITCH1_version1_list4;2022.2.4;144.0280907;
REPSWITCH1/PICTURE_8.png;pierna;speak;gold;switch;2;T;4;4;4;1;Stim3_Set4;0;None;82;81;82;0;81;81;81;;;;;;;;;;;;;;;;;;;;;;;411.2539033;412.3443217;412.3443217;412.3443217;412.3443217;412.3443217;412.3443217;412.3443217;412.3443217;None;0;;;C:\2023\REPSWITCH21092023\REPSWITCH_excgange\REPSWITCH_excgange\data/390104_REPSWITCH1_version1_list4_2023-12-13_14h44.55.977_micRespv1l4_recorded\recording_micRespv1l4_2023-12-13_14h51.44.393.wav;415.3655484;415.8656109;None;415.3655484;415.3655484;415.3655484;415.3655484;415.3655484;415.3655484;;;;;;390104;1;2023-12-13_14h44.55.977;REPSWITCH1_version1_list4;2022.2.4;144.0280907;
REPSWITCH1/PICTURE_271.png;conejo;type;darkblue;filler;1;F;4;4;4;1;Stim7_Set3;0;None;83;82;83;0;82;82;82;;;;;;;;;;;;;;;;;;;;;;;415.8656109;416.9768765;416.9768765;416.9768765;416.9768765;416.9768765;416.9768765;416.9768765;416.9768765;['c', 'o', 'n', 'e', 'j', 'o'];0;[0.6957049001939595, 0.7883888999931514, 0.8880663001909852, 0.9608984999358654, 1.0998566001653671, 1.172642500139773];conejo;C:\2023\REPSWITCH21092023\REPSWITCH_excgange\REPSWITCH_excgange\data/390104_REPSWITCH1_version1_list4_2023-12-13_14h44.55.977_micRespv1l4_recorded\recording_micRespv1l4_2023-12-13_14h51.49.026.wav;420.0050518;;None;420.0050518;420.0050518;420.0050518;420.0050518;420.0050518;420.0050518;;;;;;390104;1;2023-12-13_14h44.55.977;REPSWITCH1_version1_list4;2022.2.4;144.0280907;
REPSWITCH1/PICTURE_687.png;camisa;speak;gold;nontarget;2;NT;4;4;4;1;Stim5_Set4;1;switch;84;83;84;0;83;83;83;;;;;;;;;;;;;;;;;;;;;;;420.5051367;421.5817123;421.5817123;421.5817123;421.5817123;421.5817123;421.5817123;421.5817123;421.5817123;None;0;;;C:\2023\REPSWITCH21092023\REPSWITCH_excgange\REPSWITCH_excgange\data/390104_REPSWITCH1_version1_list4_2023-12-13_14h44.55.977_micRespv1l4_recorded\recording_micRespv1l4_2023-12-13_14h51.53.630.wav;424.6028955;425.1029592;None;424.6028955;424.6028955;424.6028955;424.6028955;424.6028955;424.6028955;;;;;;390104;1;2023-12-13_14h44.55.977;REPSWITCH1_version1_list4;2022.2.4;144.0280907;
REPSWITCH1/PICTURE_687.png;camisa;speak;gold;repeat;2;T;4;4;4;1;Stim5_Set4;0;None;85;84;85;0;84;84;84;;;;;;;;;;;;;;;;;;;;;;;425.1029592;426.2142787;426.2142787;426.2142787;426.2142787;426.2142787;426.2142787;426.2142787;426.2142787;None;0;;;C:\2023\REPSWITCH21092023\REPSWITCH_excgange\REPSWITCH_excgange\data/390104_REPSWITCH1_version1_list4_2023-12-13_14h44.55.977_micRespv1l4_recorded\recording_micRespv1l4_2023-12-13_14h51.58.264.wav;429.2423914;;None;429.2423914;429.2423914;429.2423914;429.2423914;429.2423914;429.2423914;;;;;;390104;1;2023-12-13_14h44.55.977;REPSWITCH1_version1_list4;2022.2.4;144.0280907;
REPSWITCH1/PICTURE_319.png;vaca;speak;gold;nontarget;2;NT;4;4;4;1;Stim1_Set4;0;None;86;85;86;0;85;85;85;;;;;;;;;;;;;;;;;;;;;;;429.7424389;430.8398123;430.8398123;430.8398123;430.8398123;430.8398123;430.8398123;430.8398123;430.8398123;None;0;;;C:\2023\REPSWITCH21092023\REPSWITCH_excgange\REPSWITCH_excgange\data/390104_REPSWITCH1_version1_list4_2023-12-13_14h44.55.977_micRespv1l4_recorded\recording_micRespv1l4_2023-12-13_14h52.02.888.wav;433.861028;434.361086;None;433.861028;433.861028;433.861028;433.861028;433.861028;433.861028;;;;;;390104;1;2023-12-13_14h44.55.977;REPSWITCH1_version1_list4;2022.2.4;144.0280907;
REPSWITCH1/PICTURE_319.png;vaca;type;darkblue;switch;1;T;4;4;4;1;Stim1_Set4;0;None;87;86;87;0;86;86;86;;;;;;;;;;;;;;;;;;;;;;;434.361086;435.4446219;435.4446219;435.4446219;435.4446219;435.4446219;435.4446219;435.4446219;435.4446219;['v', 'a', 'c', 'a'];0;[0.5619041002355516, 0.6555909002199769, 0.8489442002028227, 0.8988079000264406];vaca;C:\2023\REPSWITCH21092023\REPSWITCH_excgange\REPSWITCH_excgange\data/390104_REPSWITCH1_version1_list4_2023-12-13_14h44.55.977_micRespv1l4_recorded\recording_micRespv1l4_2023-12-13_14h52.07.494.wav;438.4657803;438.9659522;None;438.4657803;438.4657803;438.4657803;438.4657803;438.4657803;438.4657803;;;;;;390104;1;2023-12-13_14h44.55.977;REPSWITCH1_version1_list4;2022.2.4;144.0280907;
REPSWITCH1/PICTURE_242.png;cartero;speak;gold;filler;2;F;4;4;4;1;Stim3_Set3;0;None;88;87;88;0;87;87;87;;;;;;;;;;;;;;;;;;;;;;;438.9659522;440.0077113;440.0077113;440.0077113;440.0077113;440.0077113;440.0077113;440.0077113;440.0077113;None;0;;;C:\2023\REPSWITCH21092023\REPSWITCH_excgange\REPSWITCH_excgange\data/390104_REPSWITCH1_version1_list4_2023-12-13_14h44.55.977_micRespv1l4_recorded\recording_micRespv1l4_2023-12-13_14h52.12.057.wav;443.0289262;443.5289899;None;443.0289262;443.0289262;443.0289262;443.0289262;443.0289262;443.0289262;;;;;;390104;1;2023-12-13_14h44.55.977;REPSWITCH1_version1_list4;2022.2.4;144.0280907;
REPSWITCH1/PICTURE_498.png;taza;type;darkblue;nontarget;1;NT;4;4;4;1;Stim4_Set4;1;switch;89;88;89;0;88;88;88;;;;;;;;;;;;;;;;;;;;;;;443.5289899;444.5846664;444.5846664;444.5846664;444.5846664;444.5846664;444.5846664;444.5846664;444.5846664;['t', 'a', 'z', 'a'];0;[0.9308637995272875, 1.0196695998311043, 1.216902599669993, 1.3739884998649359];taza;C:\2023\REPSWITCH21092023\REPSWITCH_excgange\REPSWITCH_excgange\data/390104_REPSWITCH1_version1_list4_2023-12-13_14h44.55.977_micRespv1l4_recorded\recording_micRespv1l4_2023-12-13_14h52.16.634.wav;447.6129141;;None;447.6129141;447.6129141;447.6129141;447.6129141;447.6129141;447.6129141;;;;;;390104;1;2023-12-13_14h44.55.977;REPSWITCH1_version1_list4;2022.2.4;144.0280907;
REPSWITCH1/PICTURE_498.png;taza;speak;gold;switch;2;T;4;4;4;1;Stim4_Set4;0;None;90;89;90;0;89;89;89;;;;;;;;;;;;;;;;;;;;;;;448.112919;449.2033711;449.2033711;449.2033711;449.2033711;449.2033711;449.2033711;449.2033711;449.2033711;None;0;;;C:\2023\REPSWITCH21092023\REPSWITCH_excgange\REPSWITCH_excgange\data/390104_REPSWITCH1_version1_list4_2023-12-13_14h44.55.977_micRespv1l4_recorded\recording_micRespv1l4_2023-12-13_14h52.21.252.wav;452.2245479;452.7246119;None;452.2245479;452.2245479;452.2245479;452.2245479;452.2245479;452.2245479;;;;;;390104;1;2023-12-13_14h44.55.977;REPSWITCH1_version1_list4;2022.2.4;144.0280907;
REPSWITCH1/PICTURE_391.png;cadena;type;darkblue;filler;1;F;4;4;4;1;Extra2;0;None;91;90;91;0;90;90;90;;;;;;;;;;;;;;;;;;;;;;;452.7246119;453.7386424;453.7386424;453.7386424;453.7386424;453.7386424;453.7386424;453.7386424;453.7386424;['c', 'a', 'd', 'e', 'n', 'a'];0;[0.62789799971506, 1.1663824999704957, 1.3128541000187397, 1.4514256999827921, 1.532152199652046, 1.61687729973346];cadena;C:\2023\REPSWITCH21092023\REPSWITCH_excgange\REPSWITCH_excgange\data/390104_REPSWITCH1_version1_list4_2023-12-13_14h44.55.977_micRespv1l4_recorded\recording_micRespv1l4_2023-12-13_14h52.25.788.wav;456.7669112;;None;456.7669112;456.7669112;456.7669112;456.7669112;456.7669112;456.7669112;;;;;;390104;1;2023-12-13_14h44.55.977;REPSWITCH1_version1_list4;2022.2.4;144.0280907;
REPSWITCH1/PICTURE_610.png;miel;speak;gold;filler;2;F;4;4;4;1;Stim2_Set3;0;None;92;91;92;0;91;91;91;;;;;;;;;;;;;;;;;;;;;;;457.2669035;458.3017619;458.3017619;458.3017619;458.3017619;458.3017619;458.3017619;458.3017619;458.3017619;None;0;;;C:\2023\REPSWITCH21092023\REPSWITCH_excgange\REPSWITCH_excgange\data/390104_REPSWITCH1_version1_list4_2023-12-13_14h44.55.977_micRespv1l4_recorded\recording_micRespv1l4_2023-12-13_14h52.30.351.wav;461.3229922;461.8230513;None;461.3229922;461.3229922;461.3229922;461.3229922;461.3229922;461.3229922;;;;;;390104;1;2023-12-13_14h44.55.977;REPSWITCH1_version1_list4;2022.2.4;144.0280907;
REPSWITCH1/PICTURE_48.png;bombero;speak;gold;nontarget;2;NT;4;4;4;1;Stim7_Set4;1;repeat;93;92;93;0;92;92;92;;;;;;;;;;;;;;;;;;;;;;;461.8230513;462.8717936;462.8717936;462.8717936;462.8717936;462.8717936;462.8717936;462.8717936;462.8717936;None;0;;;C:\2023\REPSWITCH21092023\REPSWITCH_excgange\REPSWITCH_excgange\data/390104_REPSWITCH1_version1_list4_2023-12-13_14h44.55.977_micRespv1l4_recorded\recording_micRespv1l4_2023-12-13_14h52.34.922.wav;465.8999617;;None;465.8999617;465.8999617;465.8999617;465.8999617;465.8999617;465.8999617;;;;;;390104;1;2023-12-13_14h44.55.977;REPSWITCH1_version1_list4;2022.2.4;144.0280907;
REPSWITCH1/PICTURE_48.png;bombero;speak;gold;repeat;2;T;4;4;4;1;Stim7_Set4;0;None;94;93;94;0;93;93;93;;;;;;;;;;;;;;;;;;;;;;;466.4000382;467.4765923;467.4765923;467.4765923;467.4765923;467.4765923;467.4765923;467.4765923;467.4765923;None;0;;;C:\2023\REPSWITCH21092023\REPSWITCH_excgange\REPSWITCH_excgange\data/390104_REPSWITCH1_version1_list4_2023-12-13_14h44.55.977_micRespv1l4_recorded\recording_micRespv1l4_2023-12-13_14h52.39.525.wav;470.497784;470.9978534;None;470.497784;470.497784;470.497784;470.497784;470.497784;470.497784;;;;;;390104;1;2023-12-13_14h44.55.977;REPSWITCH1_version1_list4;2022.2.4;144.0280907;
REPSWITCH1/PICTURE_320.png;iglesia;type;darkblue;filler;1;F;4;4;4;1;Stim8_Set3;1;switch;95;94;95;0;94;94;94;;;;;;;;;;;;;;;;;;;;;;;470.9978534;472.0258392;472.0258392;472.0258392;472.0258392;472.0258392;472.0258392;472.0258392;472.0258392;['i', 'g', 'l', 'e', 's', 'i', 'a'];0;[0.697106699924916, 0.8615089994855225, 0.9835225995630026, 1.0792106995359063, 1.2780502997338772, 1.3926788996905088, 1.4912996995262802];iglesia;C:\2023\REPSWITCH21092023\REPSWITCH_excgange\REPSWITCH_excgange\data/390104_REPSWITCH1_version1_list4_2023-12-13_14h44.55.977_micRespv1l4_recorded\recording_micRespv1l4_2023-12-13_14h52.44.075.wav;475.0470105;475.5470723;None;475.0470105;475.0470105;475.0470105;475.0470105;475.0470105;475.0470105;;;;;;390104;1;2023-12-13_14h44.55.977;REPSWITCH1_version1_list4;2022.2.4;144.0280907;
REPSWITCH1/PICTURE_35.png;oreja;speak;gold;filler;2;F;4;4;4;1;Stim5_Set3;0;None;96;95;96;0;95;95;95;;;;;;;;;;;;;;;;;;;;;;;475.5470723;476.6444686;476.6444686;476.6444686;476.6444686;476.6444686;476.6444686;476.6444686;476.6444686;None;0;;;C:\2023\REPSWITCH21092023\REPSWITCH_excgange\REPSWITCH_excgange\data/390104_REPSWITCH1_version1_list4_2023-12-13_14h44.55.977_micRespv1l4_recorded\recording_micRespv1l4_2023-12-13_14h52.48.693.wav;479.6656751;480.1657008;None;479.6656751;479.6656751;479.6656751;479.6656751;479.6656751;479.6656751;;;;;;390104;1;2023-12-13_14h44.55.977;REPSWITCH1_version1_list4;2022.2.4;144.0280907;
REPSWITCH1/PICTURE_728.png;pulpo;speak;gold;nontarget;2;NT;4;4;4;1;Stim8_Set4;1;repeat;97;96;97;0;96;96;96;;;;;;;;;;;;;;;;;;;;;;;480.1657008;481.2839953;481.2839953;481.2839953;481.2839953;481.2839953;481.2839953;481.2839953;481.2839953;None;0;;;C:\2023\REPSWITCH21092023\REPSWITCH_excgange\REPSWITCH_excgange\data/390104_REPSWITCH1_version1_list4_2023-12-13_14h44.55.977_micRespv1l4_recorded\recording_micRespv1l4_2023-12-13_14h52.53.334.wav;484.3120744;;None;484.3120744;484.3120744;484.3120744;484.3120744;484.3120744;484.3120744;;;;;;390104;1;2023-12-13_14h44.55.977;REPSWITCH1_version1_list4;2022.2.4;144.0280907;
REPSWITCH1/PICTURE_728.png;pulpo;type;darkblue;switch;1;T;4;4;4;1;Stim8_Set4;0;None;98;97;98;0;97;97;97;;;;;;;;;;;;;;;;;;;;;;;484.812176;485.9234534;485.9234534;485.9234534;485.9234534;485.9234534;485.9234534;485.9234534;485.9234534;['p', 'u', 'l', 'p', 'o'];0;[0.7495078998617828, 0.8082449003122747, 0.9861922999843955, 1.177802899852395, 1.2493131998926401];pulpo;C:\2023\REPSWITCH21092023\REPSWITCH_excgange\REPSWITCH_excgange\data/390104_REPSWITCH1_version1_list4_2023-12-13_14h44.55.977_micRespv1l4_recorded\recording_micRespv1l4_2023-12-13_14h52.57.973.wav;488.9446458;489.4447773;None;488.9446458;488.9446458;488.9446458;488.9446458;488.9446458;488.9446458;;;;;;390104;1;2023-12-13_14h44.55.977;REPSWITCH1_version1_list4;2022.2.4;144.0280907;
REPSWITCH1/PICTURE_590.png;escoba;speak;gold;filler;2;F;4;4;4;1;Extra3;0;None;99;98;99;0;98;98;98;;;;;;;;;;;;;;;;;;;;;;;489.4447773;490.5282222;490.5282222;490.5282222;490.5282222;490.5282222;490.5282222;490.5282222;490.5282222;None;0;;;C:\2023\REPSWITCH21092023\REPSWITCH_excgange\REPSWITCH_excgange\data/390104_REPSWITCH1_version1_list4_2023-12-13_14h44.55.977_micRespv1l4_recorded\recording_micRespv1l4_2023-12-13_14h53.02.578.wav;493.5563903;494.0565176;None;493.5563903;493.5563903;493.5563903;493.5563903;493.5563903;493.5563903;;;;;;390104;1;2023-12-13_14h44.55.977;REPSWITCH1_version1_list4;2022.2.4;144.0280907;
REPSWITCH1/PICTURE_235.png;aguja;type;darkblue;filler;1;F;4;4;4;1;Stim4_Set3;0;None;100;99;100;0;99;99;99;;;;;;;;;;;;;;;;;;;;;;;494.0565176;495.1677038;495.1677038;495.1677038;495.1677038;495.1677038;495.1677038;495.1677038;495.1677038;['a', 'g', 'u', 'j', 'a'];0;[0.6027437001466751, 0.9267115001566708, 1.108085900079459, 1.5934552000835538, 1.6911980998702347];aguja;C:\2023\REPSWITCH21092023\REPSWITCH_excgange\REPSWITCH_excgange\data/390104_REPSWITCH1_version1_list4_2023-12-13_14h44.55.977_micRespv1l4_recorded\recording_micRespv1l4_2023-12-13_14h53.07.217.wav;498.195952;;None;498.195952;498.195952;498.195952;498.195952;498.195952;498.195952;;;;;;390104;1;2023-12-13_14h44.55.977;REPSWITCH1_version1_list4;2022.2.4;144.0280907;
REPSWITCH1/PICTURE_719.png;baño;type;darkblue;nontarget;1;NT;4;4;4;1;Stim2_Set4;1;repeat;101;100;101;0;100;100;100;;;;;;;;;;;;;;;;;;;;;;;498.6959293;499.9113703;499.9113703;499.9113703;499.9113703;499.9113703;499.9113703;499.9113703;499.9113703;['b', 'a', 'ñ', 'o'];0;[0.6591999996453524, 0.7990687997080386, 0.9603950995951891, 1.0331681999377906];baño;C:\2023\REPSWITCH21092023\REPSWITCH_excgange\REPSWITCH_excgange\data/390104_REPSWITCH1_version1_list4_2023-12-13_14h44.55.977_micRespv1l4_recorded\recording_micRespv1l4_2023-12-13_14h53.11.961.wav;502.9395347;;None;502.9395347;502.9395347;502.9395347;502.9395347;502.9395347;502.9395347;;;;;;390104;1;2023-12-13_14h44.55.977;REPSWITCH1_version1_list4;2022.2.4;144.0280907;
REPSWITCH1/PICTURE_719.png;baño;type;darkblue;repeat;1;T;4;4;4;1;Stim2_Set4;0;None;102;101;102;0;101;101;101;;;;;;;;;;;;;;;;;;;;;;;503.4395985;504.4745565;504.4745565;504.4745565;504.4745565;504.4745565;504.4745565;504.4745565;504.4745565;['b', 'a', 'ñ', 'o'];0;[0.6065658996812999, 0.6966686998493969, 0.8580920998938382, 0.9479390997439623];baño;C:\2023\REPSWITCH21092023\REPSWITCH_excgange\REPSWITCH_excgange\data/390104_REPSWITCH1_version1_list4_2023-12-13_14h44.55.977_micRespv1l4_recorded\recording_micRespv1l4_2023-12-13_14h53.16.524.wav;507.5026337;;space;507.5026337;507.5026337;507.5026337;507.5026337;507.5026337;507.5026337;508.0026983;508.0026983;6.2173913;;;390104;1;2023-12-13_14h44.55.977;REPSWITCH1_version1_list4;2022.2.4;144.0280907;
REPSWITCH1/PICTURE_646.png;tronco;speak;gold;filler;2;F;1;3;4;1;Extra4;0;None;103;102;1;0;102;102;102;;;;;;;;;;;;;;;;;;;;;;;514.2326818;515.2397771;515.2397771;515.2397771;515.2397771;515.2397771;515.2397771;515.2397771;515.2397771;None;0;;;C:\2023\REPSWITCH21092023\REPSWITCH_excgange\REPSWITCH_excgange\data/390104_REPSWITCH1_version1_list4_2023-12-13_14h44.55.977_micRespv1l4_recorded\recording_micRespv1l4_2023-12-13_14h53.27.289.wav;518.2610397;518.7610636;None;518.2610397;518.2610397;518.2610397;518.2610397;518.2610397;518.2610397;;;;;;390104;1;2023-12-13_14h44.55.977;REPSWITCH1_version1_list4;2022.2.4;144.0280907;
REPSWITCH1/PICTURE_340.png;espejo;type;darkblue;filler;1;F;1;3;4;1;Extra1;0;None;104;103;2;0;103;103;103;;;;;;;;;;;;;;;;;;;;;;;518.7610636;519.8376549;519.8376549;519.8376549;519.8376549;519.8376549;519.8376549;519.8376549;519.8376549;['e', 's', 'p', 'e', 'j', 'o'];0;[0.7977497996762395, 0.8655057996511459, 0.9817570997402072, 1.1003742995671928, 1.2040948998183012, 1.2504892996512353];espejo;C:\2023\REPSWITCH21092023\REPSWITCH_excgange\REPSWITCH_excgange\data/390104_REPSWITCH1_version1_list4_2023-12-13_14h44.55.977_micRespv1l4_recorded\recording_micRespv1l4_2023-12-13_14h53.31.886.wav;522.8588468;523.3588865;None;522.8588468;522.8588468;522.8588468;522.8588468;522.8588468;522.8588468;;;;;;390104;1;2023-12-13_14h44.55.977;REPSWITCH1_version1_list4;2022.2.4;144.0280907;
REPSWITCH1/PICTURE_338.png;regalo;speak;gold;filler;2;F;1;3;4;1;Stim6_Set4;0;None;105;104;3;0;104;104;104;;;;;;;;;;;;;;;;;;;;;;;523.3588865;524.4354682;524.4354682;524.4354682;524.4354682;524.4354682;524.4354682;524.4354682;524.4354682;None;0;;;C:\2023\REPSWITCH21092023\REPSWITCH_excgange\REPSWITCH_excgange\data/390104_REPSWITCH1_version1_list4_2023-12-13_14h44.55.977_micRespv1l4_recorded\recording_micRespv1l4_2023-12-13_14h53.36.484.wav;527.4566461;527.9567878;None;527.4566461;527.4566461;527.4566461;527.4566461;527.4566461;527.4566461;;;;;;390104;1;2023-12-13_14h44.55.977;REPSWITCH1_version1_list4;2022.2.4;144.0280907;
REPSWITCH1/PICTURE_142.png;vaso;speak;gold;nontarget;2;NT;1;3;4;1;Stim7_Set1;1;repeat;106;105;4;0;105;105;105;;;;;;;;;;;;;;;;;;;;;;;527.9567878;529.1096708;529.1096708;529.1096708;529.1096708;529.1096708;529.1096708;529.1096708;529.1096708;None;0;;;C:\2023\REPSWITCH21092023\REPSWITCH_excgange\REPSWITCH_excgange\data/390104_REPSWITCH1_version1_list4_2023-12-13_14h44.55.977_micRespv1l4_recorded\recording_micRespv1l4_2023-12-13_14h53.41.158.wav;532.1308715;532.6309685;None;532.1308715;532.1308715;532.1308715;532.1308715;532.1308715;532.1308715;;;;;;390104;1;2023-12-13_14h44.55.977;REPSWITCH1_version1_list4;2022.2.4;144.0280907;
REPSWITCH1/PICTURE_142.png;vaso;speak;gold;repeat;2;T;1;3;4;1;Stim7_Set1;0;None;107;106;5;0;106;106;106;;;;;;;;;;;;;;;;;;;;;;;532.6309685;533.7144137;533.7144137;533.7144137;533.7144137;533.7144137;533.7144137;533.7144137;533.7144137;None;0;;;C:\2023\REPSWITCH21092023\REPSWITCH_excgange\REPSWITCH_excgange\data/390104_REPSWITCH1_version1_list4_2023-12-13_14h44.55.977_micRespv1l4_recorded\recording_micRespv1l4_2023-12-13_14h53.45.764.wav;536.7425778;;None;536.7425778;536.7425778;536.7425778;536.7425778;536.7425778;536.7425778;;;;;;390104;1;2023-12-13_14h44.55.977;REPSWITCH1_version1_list4;2022.2.4;144.0280907;
REPSWITCH1/PICTURE_498.png;taza;type;darkblue;filler;1;F;1;3;4;1;Stim4_Set4;0;None;108;107;6;0;107;107;107;;;;;;;;;;;;;;;;;;;;;;;537.2426476;538.4303443;538.4303443;538.4303443;538.4303443;538.4303443;538.4303443;538.4303443;538.4303443;['t', 'a', 'z', 'a'];0;[0.6966941002756357, 0.7774137002415955, 0.9897159999236465, 1.1471855998970568];taza;C:\2023\REPSWITCH21092023\REPSWITCH_excgange\REPSWITCH_excgange\data/390104_REPSWITCH1_version1_list4_2023-12-13_14h44.55.977_micRespv1l4_recorded\recording_micRespv1l4_2023-12-13_14h53.50.480.wav;541.4585011;;None;541.4585011;541.4585011;541.4585011;541.4585011;541.4585011;541.4585011;;;;;;390104;1;2023-12-13_14h44.55.977;REPSWITCH1_version1_list4;2022.2.4;144.0280907;
REPSWITCH1/PICTURE_16.png;cazador;speak;gold;nontarget;2;NT;1;3;4;1;Stim6_Set1;1;switch;109;108;7;0;108;108;108;;;;;;;;;;;;;;;;;;;;;;;541.9585401;543.0073876;543.0073876;543.0073876;543.0073876;543.0073876;543.0073876;543.0073876;543.0073876;None;0;;;C:\2023\REPSWITCH21092023\REPSWITCH_excgange\REPSWITCH_excgange\data/390104_REPSWITCH1_version1_list4_2023-12-13_14h44.55.977_micRespv1l4_recorded\recording_micRespv1l4_2023-12-13_14h53.55.057.wav;546.0355422;;None;546.0355422;546.0355422;546.0355422;546.0355422;546.0355422;546.0355422;;;;;;390104;1;2023-12-13_14h44.55.977;REPSWITCH1_version1_list4;2022.2.4;144.0280907;
REPSWITCH1/PICTURE_16.png;cazador;speak;gold;repeat;2;T;1;3;4;1;Stim6_Set1;0;None;110;109;8;0;109;109;109;;;;;;;;;;;;;;;;;;;;;;;546.5356064;547.6260014;547.6260014;547.6260014;547.6260014;547.6260014;547.6260014;547.6260014;547.6260014;None;0;;;C:\2023\REPSWITCH21092023\REPSWITCH_excgange\REPSWITCH_excgange\data/390104_REPSWITCH1_version1_list4_2023-12-13_14h44.55.977_micRespv1l4_recorded\recording_micRespv1l4_2023-12-13_14h53.59.675.wav;550.6472702;551.1472774;None;550.6472702;550.6472702;550.6472702;550.6472702;550.6472702;550.6472702;;;;;;390104;1;2023-12-13_14h44.55.977;REPSWITCH1_version1_list4;2022.2.4;144.0280907;
REPSWITCH1/PICTURE_719.png;baño;type;darkblue;filler;1;F;1;3;4;1;Stim2_Set4;0;None;111;110;9;0;110;110;110;;;;;;;;;;;;;;;;;;;;;;;551.1472774;552.300222;552.300222;552.300222;552.300222;552.300222;552.300222;552.300222;552.300222;['b', 'a', 'ñ', 'o'];0;[0.7166770999319851, 0.7993972999975085, 0.9269659002311528, 1.0455729002133012];baño;C:\2023\REPSWITCH21092023\REPSWITCH_excgange\REPSWITCH_excgange\data/390104_REPSWITCH1_version1_list4_2023-12-13_14h44.55.977_micRespv1l4_recorded\recording_micRespv1l4_2023-12-13_14h54.04.350.wav;555.3213978;555.8214715;None;555.3213978;555.3213978;555.3213978;555.3213978;555.3213978;555.3213978;;;;;;390104;1;2023-12-13_14h44.55.977;REPSWITCH1_version1_list4;2022.2.4;144.0280907;
REPSWITCH1/PICTURE_169.png;espalda;speak;gold;nontarget;2;NT;1;3;4;1;Stim8_Set1;0;None;112;111;10;0;111;111;111;;;;;;;;;;;;;;;;;;;;;;;555.8214715;556.8424892;556.8424892;556.8424892;556.8424892;556.8424892;556.8424892;556.8424892;556.8424892;None;0;;;C:\2023\REPSWITCH21092023\REPSWITCH_excgange\REPSWITCH_excgange\data/390104_REPSWITCH1_version1_list4_2023-12-13_14h44.55.977_micRespv1l4_recorded\recording_micRespv1l4_2023-12-13_14h54.08.891.wav;559.8636777;560.363768;None;559.8636777;559.8636777;559.8636777;559.8636777;559.8636777;559.8636777;;;;;;390104;1;2023-12-13_14h44.55.977;REPSWITCH1_version1_list4;2022.2.4;144.0280907;
REPSWITCH1/PICTURE_169.png;espalda;type;darkblue;switch;1;T;1;3;4;1;Stim8_Set1;0;None;113;112;11;0;112;112;112;;;;;;;;;;;;;;;;;;;;;;;560.363768;561.4263913;561.4263913;561.4263913;561.4263913;561.4263913;561.4263913;561.4263913;561.4263913;['e', 's', 'p', 'a', 'l', 'd', 'a'];0;[0.6336948997341096, 0.7313659000210464, 0.8829354997724295, 1.0265774000436068, 1.137182999867946, 1.230802800040692, 1.2915643998421729];espalda;C:\2023\REPSWITCH21092023\REPSWITCH_excgange\REPSWITCH_excgange\data/390104_REPSWITCH1_version1_list4_2023-12-13_14h44.55.977_micRespv1l4_recorded\recording_micRespv1l4_2023-12-13_14h54.13.475.wav;564.4476055;564.9477331;None;564.4476055;564.4476055;564.4476055;564.4476055;564.4476055;564.4476055;;;;;;390104;1;2023-12-13_14h44.55.977;REPSWITCH1_version1_list4;2022.2.4;144.0280907;
REPSWITCH1/PICTURE_687.png;camisa;type;darkblue;filler;1;F;1;3;4;1;Stim5_Set4;0;None;114;113;12;0;113;113;113;;;;;;;;;;;;;;;;;;;;;;;564.9477331;566.0589435;566.0589435;566.0589435;566.0589435;566.0589435;566.0589435;566.0589435;566.0589435;['c', 'a', 'm', 'i', 's', 'a'];0;[0.6864018999040127, 0.7813663999550045, 0.9039218001998961, 0.9747182000428438, 1.0823543998412788, 1.1524463002569973];camisa;C:\2023\REPSWITCH21092023\REPSWITCH_excgange\REPSWITCH_excgange\data/390104_REPSWITCH1_version1_list4_2023-12-13_14h44.55.977_micRespv1l4_recorded\recording_micRespv1l4_2023-12-13_14h54.18.108.wav;569.080169;569.5802465;None;569.080169;569.080169;569.080169;569.080169;569.080169;569.080169;;;;;;390104;1;2023-12-13_14h44.55.977;REPSWITCH1_version1_list4;2022.2.4;144.0280907;
REPSWITCH1/PICTURE_178.png;puente;type;darkblue;nontarget;1;NT;1;3;4;1;Stim1_Set1;1;repeat;115;114;13;0;114;114;114;;;;;;;;;;;;;;;;;;;;;;;569.5802465;570.6846128;570.6846128;570.6846128;570.6846128;570.6846128;570.6846128;570.6846128;570.6846128;['p', 'u', 'e', 'n', 't', 'e'];0;[0.6721618995070457, 0.7508886996656656, 0.9302854998968542, 1.0302799995988607, 1.1375379995442927, 1.4974831999279559];puente;C:\2023\REPSWITCH21092023\REPSWITCH_excgange\REPSWITCH_excgange\data/390104_REPSWITCH1_version1_list4_2023-12-13_14h44.55.977_micRespv1l4_recorded\recording_micRespv1l4_2023-12-13_14h54.22.734.wav;573.7127395;;None;573.7127395;573.7127395;573.7127395;573.7127395;573.7127395;573.7127395;;;;;;390104;1;2023-12-13_14h44.55.977;REPSWITCH1_version1_list4;2022.2.4;144.0280907;
REPSWITCH1/PICTURE_178.png;puente;speak;gold;switch;2;T;1;3;4;1;Stim1_Set1;0;None;116;115;14;0;115;115;115;;;;;;;;;;;;;;;;;;;;;;;574.2127975;575.2615303;575.2615303;575.2615303;575.2615303;575.2615303;575.2615303;575.2615303;575.2615303;None;0;;;C:\2023\REPSWITCH21092023\REPSWITCH_excgange\REPSWITCH_excgange\data/390104_REPSWITCH1_version1_list4_2023-12-13_14h44.55.977_micRespv1l4_recorded\recording_micRespv1l4_2023-12-13_14h54.27.310.wav;578.2827427;578.7828412;None;578.2827427;578.2827427;578.2827427;578.2827427;578.2827427;578.2827427;;;;;;390104;1;2023-12-13_14h44.55.977;REPSWITCH1_version1_list4;2022.2.4;144.0280907;
REPSWITCH1/PICTURE_128.png;muñeca;speak;gold;nontarget;2;NT;1;3;4;1;Stim4_Set1;1;repeat;117;116;15;0;116;116;116;;;;;;;;;;;;;;;;;;;;;;;578.7828412;579.9357697;579.9357697;579.9357697;579.9357697;579.9357697;579.9357697;579.9357697;579.9357697;None;0;;;C:\2023\REPSWITCH21092023\REPSWITCH_excgange\REPSWITCH_excgange\data/390104_REPSWITCH1_version1_list4_2023-12-13_14h44.55.977_micRespv1l4_recorded\recording_micRespv1l4_2023-12-13_14h54.31.985.wav;582.9570333;583.4571566;None;582.9570333;582.9570333;582.9570333;582.9570333;582.9570333;582.9570333;;;;;;390104;1;2023-12-13_14h44.55.977;REPSWITCH1_version1_list4;2022.2.4;144.0280907;
REPSWITCH1/PICTURE_128.png;muñeca;type;darkblue;switch;1;T;1;3;4;1;Stim4_Set1;0;None;118;117;16;0;117;117;117;;;;;;;;;;;;;;;;;;;;;;;583.4571566;584.6169562;584.6169562;584.6169562;584.6169562;584.6169562;584.6169562;584.6169562;584.6169562;['m', 'u', 'ñ', 'e', 'c', 'a'];0;[0.6820049998350441, 0.886136899702251, 1.1632051998749375, 1.252945899963379, 1.4622343997471035, 1.518106000032276];muñeca;C:\2023\REPSWITCH21092023\REPSWITCH_excgange\REPSWITCH_excgange\data/390104_REPSWITCH1_version1_list4_2023-12-13_14h44.55.977_micRespv1l4_recorded\recording_micRespv1l4_2023-12-13_14h54.36.666.wav;587.6381782;588.1382227;None;587.6381782;587.6381782;587.6381782;587.6381782;587.6381782;587.6381782;;;;;;390104;1;2023-12-13_14h44.55.977;REPSWITCH1_version1_list4;2022.2.4;144.0280907;
REPSWITCH1/PICTURE_319.png;vaca;speak;gold;filler;2;F;1;3;4;1;Stim1_Set4;1;switch;119;118;17;0;118;118;118;;;;;;;;;;;;;;;;;;;;;;;588.1382227;589.1869939;589.1869939;589.1869939;589.1869939;589.1869939;589.1869939;589.1869939;589.1869939;None;0;;;C:\2023\REPSWITCH21092023\REPSWITCH_excgange\REPSWITCH_excgange\data/390104_REPSWITCH1_version1_list4_2023-12-13_14h44.55.977_micRespv1l4_recorded\recording_micRespv1l4_2023-12-13_14h54.41.236.wav;592.2081812;592.7082776;None;592.2081812;592.2081812;592.2081812;592.2081812;592.2081812;592.2081812;;;;;;390104;1;2023-12-13_14h44.55.977;REPSWITCH1_version1_list4;2022.2.4;144.0280907;
REPSWITCH1/PICTURE_728.png;pulpo;speak;gold;filler;2;F;1;3;4;1;Stim8_Set4;0;None;120;119;18;0;119;119;119;;;;;;;;;;;;;;;;;;;;;;;592.7082776;593.7432167;593.7432167;593.7432167;593.7432167;593.7432167;593.7432167;593.7432167;593.7432167;None;0;;;C:\2023\REPSWITCH21092023\REPSWITCH_excgange\REPSWITCH_excgange\data/390104_REPSWITCH1_version1_list4_2023-12-13_14h44.55.977_micRespv1l4_recorded\recording_micRespv1l4_2023-12-13_14h54.45.792.wav;596.7643958;597.2644254;None;596.7643958;596.7643958;596.7643958;596.7643958;596.7643958;596.7643958;;;;;;390104;1;2023-12-13_14h44.55.977;REPSWITCH1_version1_list4;2022.2.4;144.0280907;
REPSWITCH1/PICTURE_381.png;fresa;type;darkblue;nontarget;1;NT;1;3;4;1;Stim2_Set1;1;switch;121;120;19;0;120;120;120;;;;;;;;;;;;;;;;;;;;;;;597.2644254;598.4243038;598.4243038;598.4243038;598.4243038;598.4243038;598.4243038;598.4243038;598.4243038;['f', 'r', 'e', 's', 'a'];0;[0.7150473999790847, 0.9081113999709487, 0.9948318996466696, 1.0526274996809661, 1.132327999919653];fresa;C:\2023\REPSWITCH21092023\REPSWITCH_excgange\REPSWITCH_excgange\data/390104_REPSWITCH1_version1_list4_2023-12-13_14h44.55.977_micRespv1l4_recorded\recording_micRespv1l4_2023-12-13_14h54.50.473.wav;601.4455199;601.9455888;None;601.4455199;601.4455199;601.4455199;601.4455199;601.4455199;601.4455199;;;;;;390104;1;2023-12-13_14h44.55.977;REPSWITCH1_version1_list4;2022.2.4;144.0280907;
REPSWITCH1/PICTURE_381.png;fresa;type;darkblue;repeat;1;T;1;3;4;1;Stim2_Set1;0;None;122;121;20;0;121;121;121;;;;;;;;;;;;;;;;;;;;;;;601.9455888;602.9735904;602.9735904;602.9735904;602.9735904;602.9735904;602.9735904;602.9735904;602.9735904;['f', 'r', 'e', 's', 'a'];0;[0.6145144002512097, 0.815123500302434, 0.9008341003209352, 0.9679872998967767, 1.0596866002306342];fresa;C:\2023\REPSWITCH21092023\REPSWITCH_excgange\REPSWITCH_excgange\data/390104_REPSWITCH1_version1_list4_2023-12-13_14h44.55.977_micRespv1l4_recorded\recording_micRespv1l4_2023-12-13_14h54.55.023.wav;606.0016668;;None;606.0016668;606.0016668;606.0016668;606.0016668;606.0016668;606.0016668;;;;;;390104;1;2023-12-13_14h44.55.977;REPSWITCH1_version1_list4;2022.2.4;144.0280907;
REPSWITCH1/PICTURE_8.png;pierna;speak;gold;filler;2;F;1;3;4;1;Stim3_Set4;0;None;123;122;21;0;122;122;122;;;;;;;;;;;;;;;;;;;;;;;606.501755;607.5296624;607.5296624;607.5296624;607.5296624;607.5296624;607.5296624;607.5296624;607.5296624;None;0;;;C:\2023\REPSWITCH21092023\REPSWITCH_excgange\REPSWITCH_excgange\data/390104_REPSWITCH1_version1_list4_2023-12-13_14h44.55.977_micRespv1l4_recorded\recording_micRespv1l4_2023-12-13_14h54.59.579.wav;610.550908;611.0509699;None;610.550908;610.550908;610.550908;610.550908;610.550908;610.550908;;;;;;390104;1;2023-12-13_14h44.55.977;REPSWITCH1_version1_list4;2022.2.4;144.0280907;
REPSWITCH1/PICTURE_48.png;bombero;speak;gold;filler;2;F;1;3;4;1;Stim7_Set4;0;None;124;123;22;0;123;123;123;;;;;;;;;;;;;;;;;;;;;;;611.0509699;612.0719291;612.0719291;612.0719291;612.0719291;612.0719291;612.0719291;612.0719291;612.0719291;None;0;;;C:\2023\REPSWITCH21092023\REPSWITCH_excgange\REPSWITCH_excgange\data/390104_REPSWITCH1_version1_list4_2023-12-13_14h44.55.977_micRespv1l4_recorded\recording_micRespv1l4_2023-12-13_14h55.04.121.wav;615.0931404;615.593194;None;615.0931404;615.0931404;615.0931404;615.0931404;615.0931404;615.0931404;;;;;;390104;1;2023-12-13_14h44.55.977;REPSWITCH1_version1_list4;2022.2.4;144.0280907;
REPSWITCH1/PICTURE_135.png;traje;type;darkblue;nontarget;1;NT;1;3;4;1;Stim3_Set1;1;switch;125;124;23;0;124;124;124;;;;;;;;;;;;;;;;;;;;;;;615.593194;616.6419649;616.6419649;616.6419649;616.6419649;616.6419649;616.6419649;616.6419649;616.6419649;['t', 'r', 'a', 'e', 'backspace', 'j', 'e'];0;[0.8614655998535454, 1.0697165001183748, 1.1684420998208225, 1.3568100999109447, 1.932822400238365, 2.1040827999822795, 2.1648706002160907];traje;C:\2023\REPSWITCH21092023\REPSWITCH_excgange\REPSWITCH_excgange\data/390104_REPSWITCH1_version1_list4_2023-12-13_14h44.55.977_micRespv1l4_recorded\recording_micRespv1l4_2023-12-13_14h55.08.691.wav;619.6701507;;None;619.6701507;619.6701507;619.6701507;619.6701507;619.6701507;619.6701507;;;;;;390104;1;2023-12-13_14h44.55.977;REPSWITCH1_version1_list4;2022.2.4;144.0280907;
REPSWITCH1/PICTURE_135.png;traje;type;darkblue;repeat;1;T;1;3;4;1;Stim3_Set1;0;None;126;125;24;0;125;125;125;;;;;;;;;;;;;;;;;;;;;;;620.1702121;621.2329174;621.2329174;621.2329174;621.2329174;621.2329174;621.2329174;621.2329174;621.2329174;['t', 'r', 'a', 'j', 'e'];0;[0.7078835000284016, 0.8743309997953475, 0.9381162999197841, 1.0222629001364112, 1.1259298999793828];traje;C:\2023\REPSWITCH21092023\REPSWITCH_excgange\REPSWITCH_excgange\data/390104_REPSWITCH1_version1_list4_2023-12-13_14h44.55.977_micRespv1l4_recorded\recording_micRespv1l4_2023-12-13_14h55.13.283.wav;624.2610167;;None;624.2610167;624.2610167;624.2610167;624.2610167;624.2610167;624.2610167;;;;;;390104;1;2023-12-13_14h44.55.977;REPSWITCH1_version1_list4;2022.2.4;144.0280907;
REPSWITCH1/PICTURE_19.png;pavo;type;darkblue;nontarget;1;NT;1;3;4;1;Stim5_Set1;1;repeat;127;126;25;0;126;126;126;;;;;;;;;;;;;;;;;;;;;;;624.7611011;625.8445491;625.8445491;625.8445491;625.8445491;625.8445491;625.8445491;625.8445491;625.8445491;['p', 'a', 'v', 'o'];0;[0.6735938997007906, 0.7733233999460936, 0.895444099791348, 0.9871002999134362];pavo;C:\2023\REPSWITCH21092023\REPSWITCH_excgange\REPSWITCH_excgange\data/390104_REPSWITCH1_version1_list4_2023-12-13_14h44.55.977_micRespv1l4_recorded\recording_micRespv1l4_2023-12-13_14h55.17.894.wav;628.8727409;;None;628.8727409;628.8727409;628.8727409;628.8727409;628.8727409;628.8727409;;;;;;390104;1;2023-12-13_14h44.55.977;REPSWITCH1_version1_list4;2022.2.4;144.0280907;
REPSWITCH1/PICTURE_19.png;pavo;speak;gold;switch;2;T;1;3;4;1;Stim5_Set1;0;None;128;127;26;0;127;127;127;;;;;;;;;;;;;;;;;;;;;;;629.3728875;630.4562706;630.4562706;630.4562706;630.4562706;630.4562706;630.4562706;630.4562706;630.4562706;None;0;;;C:\2023\REPSWITCH21092023\REPSWITCH_excgange\REPSWITCH_excgange\data/390104_REPSWITCH1_version1_list4_2023-12-13_14h44.55.977_micRespv1l4_recorded\recording_micRespv1l4_2023-12-13_14h55.22.506.wav;633.4774834;633.9775632;None;633.4774834;633.4774834;633.4774834;633.4774834;633.4774834;633.4774834;;;;;;390104;1;2023-12-13_14h44.55.977;REPSWITCH1_version1_list4;2022.2.4;144.0280907;
REPSWITCH1/PICTURE_142.png;vaso;speak;gold;filler;2;F;2;3;4;1;Stim7_Set1;0;None;129;128;27;0;128;128;128;;;;;;;;;;;;;;;;;;;;;;;633.9775632;635.1235671;635.1235671;635.1235671;635.1235671;635.1235671;635.1235671;635.1235671;635.1235671;None;0;;;C:\2023\REPSWITCH21092023\REPSWITCH_excgange\REPSWITCH_excgange\data/390104_REPSWITCH1_version1_list4_2023-12-13_14h44.55.977_micRespv1l4_recorded\recording_micRespv1l4_2023-12-13_14h55.27.172.wav;638.1517304;;None;638.1517304;638.1517304;638.1517304;638.1517304;638.1517304;638.1517304;;;;;;390104;1;2023-12-13_14h44.55.977;REPSWITCH1_version1_list4;2022.2.4;144.0280907;
REPSWITCH1/PICTURE_135.png;traje;type;darkblue;filler;1;F;2;3;4;1;Stim3_Set1;0;None;130;129;28;0;129;129;129;;;;;;;;;;;;;;;;;;;;;;;638.6518118;639.7631022;639.7631022;639.7631022;639.7631022;639.7631022;639.7631022;639.7631022;639.7631022;['t', 'r', 'a', 'j', 'e'];0;[0.6483478997834027, 0.8407141999341547, 0.8915217998437583, 0.9991199998185039, 1.131671799812466];traje;C:\2023\REPSWITCH21092023\REPSWITCH_excgange\REPSWITCH_excgange\data/390104_REPSWITCH1_version1_list4_2023-12-13_14h44.55.977_micRespv1l4_recorded\recording_micRespv1l4_2023-12-13_14h55.31.812.wav;642.7843079;643.2843729;None;642.7843079;642.7843079;642.7843079;642.7843079;642.7843079;642.7843079;;;;;;390104;1;2023-12-13_14h44.55.977;REPSWITCH1_version1_list4;2022.2.4;144.0280907;
REPSWITCH1/PICTURE_446.png;cerdo;type;darkblue;nontarget;1;NT;2;3;4;1;Stim7_Set2;0;None;131;130;29;0;130;130;130;;;;;;;;;;;;;;;;;;;;;;;643.2843729;644.3470707;644.3470707;644.3470707;644.3470707;644.3470707;644.3470707;644.3470707;644.3470707;['c', 'e', 'r', 'd', 'o'];0;[0.7986425999552011, 0.9890165999531746, 1.063940600026399, 1.2422771002165973, 1.4485943000763655];cerdo;C:\2023\REPSWITCH21092023\REPSWITCH_excgange\REPSWITCH_excgange\data/390104_REPSWITCH1_version1_list4_2023-12-13_14h44.55.977_micRespv1l4_recorded\recording_micRespv1l4_2023-12-13_14h55.36.395.wav;647.3683043;647.8683019;None;647.3683043;647.3683043;647.3683043;647.3683043;647.3683043;647.3683043;;;;;;390104;1;2023-12-13_14h44.55.977;REPSWITCH1_version1_list4;2022.2.4;144.0280907;
REPSWITCH1/PICTURE_446.png;cerdo;type;darkblue;repeat;1;T;2;3;4;1;Stim7_Set2;0;None;132;131;30;0;131;131;131;;;;;;;;;;;;;;;;;;;;;;;647.8683019;648.9101054;648.9101054;648.9101054;648.9101054;648.9101054;648.9101054;648.9101054;648.9101054;['c', 'e', 'r', 'd', 'o'];0;[0.5691907997243106, 0.7525774999521673, 0.8318600999191403, 1.0660790000110865, 1.1318504000082612];cerdo;C:\2023\REPSWITCH21092023\REPSWITCH_excgange\REPSWITCH_excgange\data/390104_REPSWITCH1_version1_list4_2023-12-13_14h44.55.977_micRespv1l4_recorded\recording_micRespv1l4_2023-12-13_14h55.40.958.wav;651.9313377;652.431394;None;651.9313377;651.9313377;651.9313377;651.9313377;651.9313377;651.9313377;;;;;;390104;1;2023-12-13_14h44.55.977;REPSWITCH1_version1_list4;2022.2.4;144.0280907;
REPSWITCH1/PICTURE_16.png;cazador;speak;gold;filler;2;F;2;3;4;1;Stim6_Set1;0;None;133;132;31;0;132;132;132;;;;;;;;;;;;;;;;;;;;;;;652.431394;653.5704533;653.5704533;653.5704533;653.5704533;653.5704533;653.5704533;653.5704533;653.5704533;None;0;;;C:\2023\REPSWITCH21092023\REPSWITCH_excgange\REPSWITCH_excgange\data/390104_REPSWITCH1_version1_list4_2023-12-13_14h44.55.977_micRespv1l4_recorded\recording_micRespv1l4_2023-12-13_14h55.45.620.wav;656.59859;;None;656.59859;656.59859;656.59859;656.59859;656.59859;656.59859;;;;;;390104;1;2023-12-13_14h44.55.977;REPSWITCH1_version1_list4;2022.2.4;144.0280907;
REPSWITCH1/PICTURE_552.png;manzana;type;darkblue;nontarget;1;NT;2;3;4;1;Stim6_Set2;1;switch;134;133;32;0;133;133;133;;;;;;;;;;;;;;;;;;;;;;;657.0986525;658.161345;658.161345;658.161345;658.161345;658.161345;658.161345;658.161345;658.161345;['m', 'a', 'n', 'z', 'a', 'n', 'a'];0;[0.8350749001838267, 0.9201906998641789, 1.053542499896139, 1.6804395001381636, 1.8617970002815127, 1.9797680000774562, 2.0574575001373887];manzana;C:\2023\REPSWITCH21092023\REPSWITCH_excgange\REPSWITCH_excgange\data/390104_REPSWITCH1_version1_list4_2023-12-13_14h44.55.977_micRespv1l4_recorded\recording_micRespv1l4_2023-12-13_14h55.50.210.wav;661.1825969;661.6825865;None;661.1825969;661.1825969;661.1825969;661.1825969;661.1825969;661.1825969;;;;;;390104;1;2023-12-13_14h44.55.977;REPSWITCH1_version1_list4;2022.2.4;144.0280907;
REPSWITCH1/PICTURE_552.png;manzana;type;darkblue;repeat;1;T;2;3;4;1;Stim6_Set2;0;None;135;134;33;0;134;134;134;;;;;;;;;;;;;;;;;;;;;;;661.6825865;662.7869551;662.7869551;662.7869551;662.7869551;662.7869551;662.7869551;662.7869551;662.7869551;['m', 'a', 'n', 'z', 'a', 'n', 'a'];0;[0.6076320996508002, 0.7048310996033251, 0.8224347997456789, 0.9499958995729685, 1.1413718997500837, 1.260969199705869, 1.3759130998514593];manzana;C:\2023\REPSWITCH21092023\REPSWITCH_excgange\REPSWITCH_excgange\data/390104_REPSWITCH1_version1_list4_2023-12-13_14h44.55.977_micRespv1l4_recorded\recording_micRespv1l4_2023-12-13_14h55.54.836.wav;665.8081193;666.3082152;None;665.8081193;665.8081193;665.8081193;665.8081193;665.8081193;665.8081193;;;;;;390104;1;2023-12-13_14h44.55.977;REPSWITCH1_version1_list4;2022.2.4;144.0280907;
REPSWITCH1/PICTURE_517.png;cuerda;type;darkblue;nontarget;1;NT;2;3;4;1;Stim4_Set2;0;None;136;135;34;0;135;135;135;;;;;;;;;;;;;;;;;;;;;;;666.3082152;667.4056248;667.4056248;667.4056248;667.4056248;667.4056248;667.4056248;667.4056248;667.4056248;['c', 'u', 'e', 'r', 'd', 'a'];0;[0.6835431000217795, 0.8489919998683035, 0.9416244998574257, 1.0064567001536489, 1.1642165998928249, 1.252917299978435];cuerda;C:\2023\REPSWITCH21092023\REPSWITCH_excgange\REPSWITCH_excgange\data/390104_REPSWITCH1_version1_list4_2023-12-13_14h44.55.977_micRespv1l4_recorded\recording_micRespv1l4_2023-12-13_14h55.59.455.wav;670.4337723;;None;670.4337723;670.4337723;670.4337723;670.4337723;670.4337723;670.4337723;;;;;;390104;1;2023-12-13_14h44.55.977;REPSWITCH1_version1_list4;2022.2.4;144.0280907;
REPSWITCH1/PICTURE_517.png;cuerda;speak;gold;switch;2;T;2;3;4;1;Stim4_Set2;0;None;137;136;35;0;136;136;136;;;;;;;;;;;;;;;;;;;;;;;670.9338248;671.9964876;671.9964876;671.9964876;671.9964876;671.9964876;671.9964876;671.9964876;671.9964876;None;0;;;C:\2023\REPSWITCH21092023\REPSWITCH_excgange\REPSWITCH_excgange\data/390104_REPSWITCH1_version1_list4_2023-12-13_14h44.55.977_micRespv1l4_recorded\recording_micRespv1l4_2023-12-13_14h56.04.046.wav;675.0246959;;None;675.0246959;675.0246959;675.0246959;675.0246959;675.0246959;675.0246959;;;;;;390104;1;2023-12-13_14h44.55.977;REPSWITCH1_version1_list4;2022.2.4;144.0280907;
REPSWITCH1/PICTURE_169.png;espalda;speak;gold;filler;2;F;2;3;4;1;Stim8_Set1;1;repeat;138;137;36;0;137;137;137;;;;;;;;;;;;;;;;;;;;;;;675.5247812;676.7748518;676.7748518;676.7748518;676.7748518;676.7748518;676.7748518;676.7748518;676.7748518;None;0;;;C:\2023\REPSWITCH21092023\REPSWITCH_excgange\REPSWITCH_excgange\data/390104_REPSWITCH1_version1_list4_2023-12-13_14h44.55.977_micRespv1l4_recorded\recording_micRespv1l4_2023-12-13_14h56.08.823.wav;679.7961054;680.2962394;None;679.7961054;679.7961054;679.7961054;679.7961054;679.7961054;679.7961054;;;;;;390104;1;2023-12-13_14h44.55.977;REPSWITCH1_version1_list4;2022.2.4;144.0280907;
REPSWITCH1/PICTURE_30.png;granja;speak;gold;nontarget;2;NT;2;3;4;1;Stim5_Set2;1;repeat;139;138;37;0;138;138;138;;;;;;;;;;;;;;;;;;;;;;;680.2962394;681.3588249;681.3588249;681.3588249;681.3588249;681.3588249;681.3588249;681.3588249;681.3588249;None;0;;;C:\2023\REPSWITCH21092023\REPSWITCH_excgange\REPSWITCH_excgange\data/390104_REPSWITCH1_version1_list4_2023-12-13_14h44.55.977_micRespv1l4_recorded\recording_micRespv1l4_2023-12-13_14h56.13.409.wav;684.3870644;;None;684.3870644;684.3870644;684.3870644;684.3870644;684.3870644;684.3870644;;;;;;390104;1;2023-12-13_14h44.55.977;REPSWITCH1_version1_list4;2022.2.4;144.0280907;
REPSWITCH1/PICTURE_30.png;granja;type;darkblue;switch;1;T;2;3;4;1;Stim5_Set2;0;None;140;139;38;0;139;139;139;;;;;;;;;;;;;;;;;;;;;;;684.88705;686.1232986;686.1232986;686.1232986;686.1232986;686.1232986;686.1232986;686.1232986;686.1232986;['g', 'r', 'a', 'n', 'j', 'a'];0;[0.6913940999656916, 0.8780298000201583, 0.9570243000052869, 1.0487051997333765, 1.2391460998915136, 1.3043396999128163];granja;C:\2023\REPSWITCH21092023\REPSWITCH_excgange\REPSWITCH_excgange\data/390104_REPSWITCH1_version1_list4_2023-12-13_14h44.55.977_micRespv1l4_recorded\recording_micRespv1l4_2023-12-13_14h56.18.172.wav;689.1445257;689.644591;None;689.1445257;689.1445257;689.1445257;689.1445257;689.1445257;689.1445257;;;;;;390104;1;2023-12-13_14h44.55.977;REPSWITCH1_version1_list4;2022.2.4;144.0280907;
REPSWITCH1/PICTURE_128.png;muñeca;type;darkblue;filler;1;F;2;3;4;1;Stim4_Set1;1;repeat;141;140;39;0;140;140;140;;;;;;;;;;;;;;;;;;;;;;;689.644591;690.7280986;690.7280986;690.7280986;690.7280986;690.7280986;690.7280986;690.7280986;690.7280986;['m', 'u', 'ñ', 'e', 'c', 'a'];0;[0.6926998998969793, 0.8780582998879254, 1.1491622999310493, 1.2646207995712757, 1.4683071998879313, 1.5370693998411298];muñeca;C:\2023\REPSWITCH21092023\REPSWITCH_excgange\REPSWITCH_excgange\data/390104_REPSWITCH1_version1_list4_2023-12-13_14h44.55.977_micRespv1l4_recorded\recording_micRespv1l4_2023-12-13_14h56.22.778.wav;693.7562561;;None;693.7562561;693.7562561;693.7562561;693.7562561;693.7562561;693.7562561;;;;;;390104;1;2023-12-13_14h44.55.977;REPSWITCH1_version1_list4;2022.2.4;144.0280907;
