image;correctAns;respModal;frameColor;repSwitch;sequence;target;set;block;list;exp_version;stimulus;baseline;baseline_condition;trial_no;psychopy_trial;Column1;trialsREPSWITCH.thisRepN;trialsREPSWITCH.thisTrialN;trialsREPSWITCH.thisN;trialsREPSWITCH.thisIndex;textWelcome.started;textboxInstrMain1.started;textboxInstrMain1_2.started;textboxInstrMain1_3.started;keyInstrMain.started;keyInstrMain.keys;keyInstrMain.rt;textboxInstrMain2.started;textboxInstrMain2_2.started;textboxInstrMain2_3.started;textboxInstrMain2_4.started;textboxInstrMain2_5.started;textboxInstrMain2_6.started;textboxInstrMain2_7.started;textboxInstrMain2_8.started;textboxInstrMain2_9.started;textboxInstrMain2_10.started;textboxInstrMain2_11.started;textboxInstrMain2_12.started;keyInstrMain2.started;keyInstrMain2.keys;keyInstrMain2.rt;fixationITI.started;fixationITI.stopped;polygonColour.started;polygonWhite.started;imageObject.started;polygonType.started;textInput.started;keyResp.started;micRespv1l3.started;keyResp.keys;keyResp.corr;keyResp.rt;subjResponse;micRespv1l3.clip;textBlankLoop.started;textBlankLoop.stopped;keyPause.keys;polygonColour.stopped;polygonWhite.stopped;imageObject.stopped;polygonType.stopped;textInput.stopped;keyResp.stopped;textboxPause.started;keyPause.started;keyPause.rt;textboxGoodbye.started;textboxGoodbye.stopped;participant;session;date;expName;psychopyVersion;frameRate;Column2
;;;;;;;;;;;;;;;;;;;;;29.401566499844193;31.894472400657833;31.894472400657833;31.894472400657833;31.894472400657833;space;4.194689598865807;;;;;;;;;;;;;;;;;;;;;;;;;;;;;;;;;;;;;;;;;;;;450103;001;2024-01-23_17h26.29.086;REPSWITCH1_version1_list3;2022.2.4;144.05174445139983;
;;;;;;;;;;;;;;;;;;;;;;;;;;;;36.10343740042299;36.10343740042299;36.10343740042299;36.10343740042299;36.10343740042299;36.10343740042299;36.10343740042299;36.10343740042299;36.10343740042299;36.10343740042299;36.10343740042299;36.10343740042299;36.10343740042299;space;2.6369220996275544;;;;;;;;;;;;;;;;;;;;;;;;;;;;;450103;001;2024-01-23_17h26.29.086;REPSWITCH1_version1_list3;2022.2.4;144.05174445139983;
REPSWITCH1/PICTURE_663.png;columna;type;darkblue;filler;1;F;1;2;3;1;Extra6;0;None;1;0;1;0;0;0;0;;;;;;;;;;;;;;;;;;;;;;;38.83293370064348;39.94423469994217;39.94423469994217;39.94423469994217;39.94423469994217;39.94423469994217;39.94423469994217;39.94423469994217;39.94423469994217;['o', 'c', 'backspace', 'backspace', 'c', 'o', 'l', 'u'];0;[1.3378503993153572, 1.4034213991835713, 2.0116865998134017, 2.199389399960637, 2.475463599897921, 2.5482231993228197, 2.7529625995084643, 2.8565710997208953];colu;C:\2023\REPSWITCH21092023\REPSWITCH_excgange\REPSWITCH_excgange\data/450103_REPSWITCH1_version1_list3_2024-01-23_17h26.29.086_micRespv1l3_recorded\recording_micRespv1l3_2024-01-23_17h26.44.506.wav;42.965442600660026;43.46551730018109;None;;;;;;;;;;;;450103;001;2024-01-23_17h26.29.086;REPSWITCH1_version1_list3;2022.2.4;144.05174445139983;
REPSWITCH1/PICTURE_128.png;muñeca;speak;gold;nontarget;2;NT;1;2;3;1;Stim4_Set1;1;switch;2;1;2;0;1;1;1;;;;;;;;;;;;;;;;;;;;;;;43.46551730018109;44.58361939992756;44.58361939992756;44.58361939992756;44.58361939992756;44.58361939992756;44.58361939992756;44.58361939992756;44.58361939992756;None;0;;;C:\2023\REPSWITCH21092023\REPSWITCH_excgange\REPSWITCH_excgange\data/450103_REPSWITCH1_version1_list3_2024-01-23_17h26.29.086_micRespv1l3_recorded\recording_micRespv1l3_2024-01-23_17h26.49.150.wav;47.611800000071526;;None;47.611800000071526;47.611800000071526;47.611800000071526;47.611800000071526;47.611800000071526;47.611800000071526;;;;;;450103;001;2024-01-23_17h26.29.086;REPSWITCH1_version1_list3;2022.2.4;144.05174445139983;
REPSWITCH1/PICTURE_128.png;muñeca;speak;gold;repeat;2;T;1;2;3;1;Stim4_Set1;0;None;3;2;3;0;2;2;2;;;;;;;;;;;;;;;;;;;;;;;48.1119290003553;49.2926072999835;49.2926072999835;49.2926072999835;49.2926072999835;49.2926072999835;49.2926072999835;49.2926072999835;49.2926072999835;None;0;;;C:\2023\REPSWITCH21092023\REPSWITCH_excgange\REPSWITCH_excgange\data/450103_REPSWITCH1_version1_list3_2024-01-23_17h26.29.086_micRespv1l3_recorded\recording_micRespv1l3_2024-01-23_17h26.53.859.wav;52.32079249992967;;None;52.32079249992967;52.32079249992967;52.32079249992967;52.32079249992967;52.32079249992967;52.32079249992967;;;;;;450103;001;2024-01-23_17h26.29.086;REPSWITCH1_version1_list3;2022.2.4;144.05174445139983;
REPSWITCH1/PICTURE_8.png;pierna;type;darkblue;filler;1;F;1;2;3;1;Stim3_Set4;0;None;4;3;4;0;3;3;3;;;;;;;;;;;;;;;;;;;;;;;52.820876399986446;53.87652890011668;53.87652890011668;53.87652890011668;53.87652890011668;53.87652890011668;53.87652890011668;53.87652890011668;53.87652890011668;['p', 'i', 'e', 'r', 'n', 'a'];0;[0.8665906004607677, 0.9473232002928853, 1.0977798998355865, 1.1795367999002337, 1.3364014998078346, 1.343368999660015];pierna;C:\2023\REPSWITCH21092023\REPSWITCH_excgange\REPSWITCH_excgange\data/450103_REPSWITCH1_version1_list3_2024-01-23_17h26.29.086_micRespv1l3_recorded\recording_micRespv1l3_2024-01-23_17h26.58.443.wav;56.90477270074189;;None;56.90477270074189;56.90477270074189;56.90477270074189;56.90477270074189;56.90477270074189;56.90477270074189;;;;;;450103;001;2024-01-23_17h26.29.086;REPSWITCH1_version1_list3;2022.2.4;144.05174445139983;
REPSWITCH1/PICTURE_135.png;traje;speak;gold;nontarget;2;NT;1;2;3;1;Stim3_Set1;1;switch;5;4;5;0;4;4;4;;;;;;;;;;;;;;;;;;;;;;;57.40483700018376;58.495215999893844;58.495215999893844;58.495215999893844;58.495215999893844;58.495215999893844;58.495215999893844;58.495215999893844;58.495215999893844;None;0;;;C:\2023\REPSWITCH21092023\REPSWITCH_excgange\REPSWITCH_excgange\data/450103_REPSWITCH1_version1_list3_2024-01-23_17h26.29.086_micRespv1l3_recorded\recording_micRespv1l3_2024-01-23_17h27.03.063.wav;61.52337080053985;;None;61.52337080053985;61.52337080053985;61.52337080053985;61.52337080053985;61.52337080053985;61.52337080053985;;;;;;450103;001;2024-01-23_17h26.29.086;REPSWITCH1_version1_list3;2022.2.4;144.05174445139983;
REPSWITCH1/PICTURE_135.png;traje;speak;gold;repeat;2;T;1;2;3;1;Stim3_Set1;0;None;6;5;6;0;5;5;5;;;;;;;;;;;;;;;;;;;;;;;62.023430100642145;63.176387400366366;63.176387400366366;63.176387400366366;63.176387400366366;63.176387400366366;63.176387400366366;63.176387400366366;63.176387400366366;None;0;;;C:\2023\REPSWITCH21092023\REPSWITCH_excgange\REPSWITCH_excgange\data/450103_REPSWITCH1_version1_list3_2024-01-23_17h26.29.086_micRespv1l3_recorded\recording_micRespv1l3_2024-01-23_17h27.07.742.wav;66.1975894998759;66.69765910040587;None;66.1975894998759;66.1975894998759;66.1975894998759;66.1975894998759;66.1975894998759;66.1975894998759;;;;;;450103;001;2024-01-23_17h26.29.086;REPSWITCH1_version1_list3;2022.2.4;144.05174445139983;
REPSWITCH1/PICTURE_673.png;tenedor;type;darkblue;filler;1;F;1;2;3;1;Extra5;0;None;7;6;7;0;6;6;6;;;;;;;;;;;;;;;;;;;;;;;66.69765910040587;67.79508410021663;67.79508410021663;67.79508410021663;67.79508410021663;67.79508410021663;67.79508410021663;67.79508410021663;67.79508410021663;['t', 'e', 'n', 'e', 'd', 'o', 'r'];0;[0.7153867995366454, 0.780205799266696, 0.9615988992154598, 1.0193980997428298, 1.2511014994233847, 1.3527376996353269, 1.4432850992307067];tenedor;C:\2023\REPSWITCH21092023\REPSWITCH_excgange\REPSWITCH_excgange\data/450103_REPSWITCH1_version1_list3_2024-01-23_17h26.29.086_micRespv1l3_recorded\recording_micRespv1l3_2024-01-23_17h27.12.361.wav;70.81622789986432;71.31631240062416;None;70.81622789986432;70.81622789986432;70.81622789986432;70.81622789986432;70.81622789986432;70.81622789986432;;;;;;450103;001;2024-01-23_17h26.29.086;REPSWITCH1_version1_list3;2022.2.4;144.05174445139983;
REPSWITCH1/PICTURE_728.png;pulpo;speak;gold;filler;2;F;1;2;3;1;Stim8_Set4;0;None;8;7;8;0;7;7;7;;;;;;;;;;;;;;;;;;;;;;;71.31631240062416;72.37199070025235;72.37199070025235;72.37199070025235;72.37199070025235;72.37199070025235;72.37199070025235;72.37199070025235;72.37199070025235;None;0;;;C:\2023\REPSWITCH21092023\REPSWITCH_excgange\REPSWITCH_excgange\data/450103_REPSWITCH1_version1_list3_2024-01-23_17h26.29.086_micRespv1l3_recorded\recording_micRespv1l3_2024-01-23_17h27.16.939.wav;75.400175800547;;None;75.400175800547;75.400175800547;75.400175800547;75.400175800547;75.400175800547;75.400175800547;;;;;;450103;001;2024-01-23_17h26.29.086;REPSWITCH1_version1_list3;2022.2.4;144.05174445139983;
REPSWITCH1/PICTURE_16.png;cazador;speak;gold;nontarget;2;NT;1;2;3;1;Stim6_Set1;1;repeat;9;8;9;0;8;8;8;;;;;;;;;;;;;;;;;;;;;;;75.90023490041494;76.99067920073867;76.99067920073867;76.99067920073867;76.99067920073867;76.99067920073867;76.99067920073867;76.99067920073867;76.99067920073867;None;0;;;C:\2023\REPSWITCH21092023\REPSWITCH_excgange\REPSWITCH_excgange\data/450103_REPSWITCH1_version1_list3_2024-01-23_17h26.29.086_micRespv1l3_recorded\recording_micRespv1l3_2024-01-23_17h27.21.558.wav;80.01881390064955;;None;80.01881390064955;80.01881390064955;80.01881390064955;80.01881390064955;80.01881390064955;80.01881390064955;;;;;;450103;001;2024-01-23_17h26.29.086;REPSWITCH1_version1_list3;2022.2.4;144.05174445139983;
REPSWITCH1/PICTURE_16.png;cazador;type;darkblue;switch;1;T;1;2;3;1;Stim6_Set1;0;None;10;9;10;0;9;9;9;;;;;;;;;;;;;;;;;;;;;;;80.51888210047036;81.60931620001793;81.60931620001793;81.60931620001793;81.60931620001793;81.60931620001793;81.60931620001793;81.60931620001793;81.60931620001793;['c', 'a', 'z', 'a', 'd', 'o', 'r'];0;[1.0268846992403269, 1.1216342998668551, 1.389032700099051, 1.6356784999370575, 1.795377499423921, 1.9164172997698188, 2.0120954997837543];cazador;C:\2023\REPSWITCH21092023\REPSWITCH_excgange\REPSWITCH_excgange\data/450103_REPSWITCH1_version1_list3_2024-01-23_17h26.29.086_micRespv1l3_recorded\recording_micRespv1l3_2024-01-23_17h27.26.175.wav;84.63757310062647;;None;84.63757310062647;84.63757310062647;84.63757310062647;84.63757310062647;84.63757310062647;84.63757310062647;;;;;;450103;001;2024-01-23_17h26.29.086;REPSWITCH1_version1_list3;2022.2.4;144.05174445139983;
REPSWITCH1/PICTURE_498.png;taza;type;darkblue;filler;1;F;1;2;3;1;Stim4_Set4;1;repeat;11;10;11;0;10;10;10;;;;;;;;;;;;;;;;;;;;;;;85.13756849989295;86.24883950036019;86.24883950036019;86.24883950036019;86.24883950036019;86.24883950036019;86.24883950036019;86.24883950036019;86.24883950036019;['t', 'a', 'z', 'a'];0;[0.7924258001148701, 0.8541938997805119, 1.0605161003768444, 1.2704127999022603];taza;C:\2023\REPSWITCH21092023\REPSWITCH_excgange\REPSWITCH_excgange\data/450103_REPSWITCH1_version1_list3_2024-01-23_17h26.29.086_micRespv1l3_recorded\recording_micRespv1l3_2024-01-23_17h27.30.815.wav;89.2701229006052;89.7701275004074;None;89.2701229006052;89.2701229006052;89.2701229006052;89.2701229006052;89.2701229006052;89.2701229006052;;;;;;450103;001;2024-01-23_17h26.29.086;REPSWITCH1_version1_list3;2022.2.4;144.05174445139983;
REPSWITCH1/PICTURE_381.png;fresa;type;darkblue;nontarget;1;NT;1;2;3;1;Stim2_Set1;1;repeat;12;11;12;0;11;11;11;;;;;;;;;;;;;;;;;;;;;;;89.7701275004074;90.91617090068758;90.91617090068758;90.91617090068758;90.91617090068758;90.91617090068758;90.91617090068758;90.91617090068758;90.91617090068758;['f', 'r', 'e', 's', 'a'];0;[1.0167854996398091, 1.2529954994097352, 1.3250017995014787, 1.5244246991351247, 1.6117695989087224];fresa;C:\2023\REPSWITCH21092023\REPSWITCH_excgange\REPSWITCH_excgange\data/450103_REPSWITCH1_version1_list3_2024-01-23_17h26.29.086_micRespv1l3_recorded\recording_micRespv1l3_2024-01-23_17h27.35.483.wav;93.9442891003564;;None;93.9442891003564;93.9442891003564;93.9442891003564;93.9442891003564;93.9442891003564;93.9442891003564;;;;;;450103;001;2024-01-23_17h26.29.086;REPSWITCH1_version1_list3;2022.2.4;144.05174445139983;
REPSWITCH1/PICTURE_381.png;fresa;speak;gold;switch;2;T;1;2;3;1;Stim2_Set1;0;None;13;12;13;0;12;12;12;;;;;;;;;;;;;;;;;;;;;;;94.4444241002202;95.61114190053195;95.61114190053195;95.61114190053195;95.61114190053195;95.61114190053195;95.61114190053195;95.61114190053195;95.61114190053195;None;0;;;C:\2023\REPSWITCH21092023\REPSWITCH_excgange\REPSWITCH_excgange\data/450103_REPSWITCH1_version1_list3_2024-01-23_17h26.29.086_micRespv1l3_recorded\recording_micRespv1l3_2024-01-23_17h27.40.178.wav;98.63941039983183;;None;98.63941039983183;98.63941039983183;98.63941039983183;98.63941039983183;98.63941039983183;98.63941039983183;;;;;;450103;001;2024-01-23_17h26.29.086;REPSWITCH1_version1_list3;2022.2.4;144.05174445139983;
REPSWITCH1/PICTURE_178.png;puente;speak;gold;nontarget;2;NT;1;2;3;1;Stim1_Set1;0;None;14;13;14;0;13;13;13;;;;;;;;;;;;;;;;;;;;;;;99.1394064007327;100.20900310017169;100.20900310017169;100.20900310017169;100.20900310017169;100.20900310017169;100.20900310017169;100.20900310017169;100.20900310017169;None;0;;;C:\2023\REPSWITCH21092023\REPSWITCH_excgange\REPSWITCH_excgange\data/450103_REPSWITCH1_version1_list3_2024-01-23_17h26.29.086_micRespv1l3_recorded\recording_micRespv1l3_2024-01-23_17h27.44.775.wav;103.23019899986684;103.73035910073668;None;103.23019899986684;103.23019899986684;103.23019899986684;103.23019899986684;103.23019899986684;103.23019899986684;;;;;;450103;001;2024-01-23_17h26.29.086;REPSWITCH1_version1_list3;2022.2.4;144.05174445139983;
REPSWITCH1/PICTURE_178.png;puente;type;darkblue;switch;1;T;1;2;3;1;Stim1_Set1;0;None;15;14;15;0;14;14;14;;;;;;;;;;;;;;;;;;;;;;;103.73035910073668;104.82073790021241;104.82073790021241;104.82073790021241;104.82073790021241;104.82073790021241;104.82073790021241;104.82073790021241;104.82073790021241;['p', 'u', 'e', 'n', 't', 'e'];0;[0.9434637995436788, 1.0420835996046662, 1.1780709996819496, 1.3727737991139293, 1.4273236999288201, 1.7073768991976976];puente;C:\2023\REPSWITCH21092023\REPSWITCH_excgange\REPSWITCH_excgange\data/450103_REPSWITCH1_version1_list3_2024-01-23_17h26.29.086_micRespv1l3_recorded\recording_micRespv1l3_2024-01-23_17h27.49.388.wav;107.84884390048683;;None;107.84884390048683;107.84884390048683;107.84884390048683;107.84884390048683;107.84884390048683;107.84884390048683;;;;;;450103;001;2024-01-23_17h26.29.086;REPSWITCH1_version1_list3;2022.2.4;144.05174445139983;
REPSWITCH1/PICTURE_719.png;baño;speak;gold;filler;2;F;1;2;3;1;Stim2_Set4;0;None;16;15;16;0;15;15;15;;;;;;;;;;;;;;;;;;;;;;;108.34899410046637;109.46715479996055;109.46715479996055;109.46715479996055;109.46715479996055;109.46715479996055;109.46715479996055;109.46715479996055;109.46715479996055;None;0;;;C:\2023\REPSWITCH21092023\REPSWITCH_excgange\REPSWITCH_excgange\data/450103_REPSWITCH1_version1_list3_2024-01-23_17h26.29.086_micRespv1l3_recorded\recording_micRespv1l3_2024-01-23_17h27.54.034.wav;112.49538830015808;;None;112.49538830015808;112.49538830015808;112.49538830015808;112.49538830015808;112.49538830015808;112.49538830015808;;;;;;450103;001;2024-01-23_17h26.29.086;REPSWITCH1_version1_list3;2022.2.4;144.05174445139983;
REPSWITCH1/PICTURE_169.png;espalda;type;darkblue;nontarget;1;NT;1;2;3;1;Stim8_Set1;1;switch;17;16;17;0;16;16;16;;;;;;;;;;;;;;;;;;;;;;;112.99539369996637;114.03727990016341;114.03727990016341;114.03727990016341;114.03727990016341;114.03727990016341;114.03727990016341;114.03727990016341;114.03727990016341;['e', 's', 'p', 'a', 'l', 'd', 'a'];0;[0.8614163994789124, 0.9491577995941043, 1.1574658993631601, 1.2830336997285485, 1.5501430993899703, 1.63754600007087, 1.7529111998155713];espalda;C:\2023\REPSWITCH21092023\REPSWITCH_excgange\REPSWITCH_excgange\data/450103_REPSWITCH1_version1_list3_2024-01-23_17h26.29.086_micRespv1l3_recorded\recording_micRespv1l3_2024-01-23_17h27.58.603.wav;117.05846950039268;117.55849040020257;None;117.05846950039268;117.05846950039268;117.05846950039268;117.05846950039268;117.05846950039268;117.05846950039268;;;;;;450103;001;2024-01-23_17h26.29.086;REPSWITCH1_version1_list3;2022.2.4;144.05174445139983;
REPSWITCH1/PICTURE_169.png;espalda;type;darkblue;repeat;1;T;1;2;3;1;Stim8_Set1;0;None;18;17;18;0;17;17;17;;;;;;;;;;;;;;;;;;;;;;;117.55849040020257;118.71150809992105;118.71150809992105;118.71150809992105;118.71150809992105;118.71150809992105;118.71150809992105;118.71150809992105;118.71150809992105;['e', 's', 'p', 'a', 'l', 'd', 'a'];0;[0.784460699185729, 0.8565648989751935, 1.0702919997274876, 1.1852880995720625, 1.3778214994817972, 1.4903987990692258, 1.5661854995414615];espalda;C:\2023\REPSWITCH21092023\REPSWITCH_excgange\REPSWITCH_excgange\data/450103_REPSWITCH1_version1_list3_2024-01-23_17h26.29.086_micRespv1l3_recorded\recording_micRespv1l3_2024-01-23_17h28.03.278.wav;121.73272099997848;122.2327139005065;None;121.73272099997848;121.73272099997848;121.73272099997848;121.73272099997848;121.73272099997848;121.73272099997848;;;;;;450103;001;2024-01-23_17h26.29.086;REPSWITCH1_version1_list3;2022.2.4;144.05174445139983;
REPSWITCH1/PICTURE_48.png;bombero;speak;gold;filler;2;F;1;2;3;1;Stim7_Set4;1;switch;19;18;19;0;18;18;18;;;;;;;;;;;;;;;;;;;;;;;122.2327139005065;123.39265750069171;123.39265750069171;123.39265750069171;123.39265750069171;123.39265750069171;123.39265750069171;123.39265750069171;123.39265750069171;None;0;;;C:\2023\REPSWITCH21092023\REPSWITCH_excgange\REPSWITCH_excgange\data/450103_REPSWITCH1_version1_list3_2024-01-23_17h26.29.086_micRespv1l3_recorded\recording_micRespv1l3_2024-01-23_17h28.07.960.wav;126.42074640002102;;None;126.42074640002102;126.42074640002102;126.42074640002102;126.42074640002102;126.42074640002102;126.42074640002102;;;;;;450103;001;2024-01-23_17h26.29.086;REPSWITCH1_version1_list3;2022.2.4;144.05174445139983;
REPSWITCH1/PICTURE_19.png;pavo;type;darkblue;nontarget;1;NT;1;2;3;1;Stim5_Set1;1;switch;20;19;20;0;19;19;19;;;;;;;;;;;;;;;;;;;;;;;126.9208792001009;127.96961320005357;127.96961320005357;127.96961320005357;127.96961320005357;127.96961320005357;127.96961320005357;127.96961320005357;127.96961320005357;['p', 'a', 'v', 'o'];0;[1.4313977994024754, 1.5035354988649487, 1.6623147996142507, 1.7355782995000482];pavo;C:\2023\REPSWITCH21092023\REPSWITCH_excgange\REPSWITCH_excgange\data/450103_REPSWITCH1_version1_list3_2024-01-23_17h26.29.086_micRespv1l3_recorded\recording_micRespv1l3_2024-01-23_17h28.12.536.wav;130.99775500036776;;None;130.99775500036776;130.99775500036776;130.99775500036776;130.99775500036776;130.99775500036776;130.99775500036776;;;;;;450103;001;2024-01-23_17h26.29.086;REPSWITCH1_version1_list3;2022.2.4;144.05174445139983;
REPSWITCH1/PICTURE_19.png;pavo;type;darkblue;repeat;1;T;1;2;3;1;Stim5_Set1;0;None;21;20;21;0;20;20;20;;;;;;;;;;;;;;;;;;;;;;;131.49778180010617;132.51875769998878;132.51875769998878;132.51875769998878;132.51875769998878;132.51875769998878;132.51875769998878;132.51875769998878;132.51875769998878;['p', 'a', 'v', 'o'];0;[0.8050422994419932, 0.8699252000078559, 1.072550700046122, 1.1562236994504929];pavo;C:\2023\REPSWITCH21092023\REPSWITCH_excgange\REPSWITCH_excgange\data/450103_REPSWITCH1_version1_list3_2024-01-23_17h26.29.086_micRespv1l3_recorded\recording_micRespv1l3_2024-01-23_17h28.17.085.wav;135.54693910013884;;None;135.54693910013884;135.54693910013884;135.54693910013884;135.54693910013884;135.54693910013884;135.54693910013884;;;;;;450103;001;2024-01-23_17h26.29.086;REPSWITCH1_version1_list3;2022.2.4;144.05174445139983;
REPSWITCH1/PICTURE_319.png;vaca;speak;gold;filler;2;F;1;2;3;1;Stim1_Set4;0;None;22;21;22;0;21;21;21;;;;;;;;;;;;;;;;;;;;;;;136.04703390039504;137.2625264003873;137.2625264003873;137.2625264003873;137.2625264003873;137.2625264003873;137.2625264003873;137.2625264003873;137.2625264003873;None;0;;;C:\2023\REPSWITCH21092023\REPSWITCH_excgange\REPSWITCH_excgange\data/450103_REPSWITCH1_version1_list3_2024-01-23_17h26.29.086_micRespv1l3_recorded\recording_micRespv1l3_2024-01-23_17h28.21.829.wav;140.2837041998282;140.78382590040565;None;140.2837041998282;140.2837041998282;140.2837041998282;140.2837041998282;140.2837041998282;140.2837041998282;;;;;;450103;001;2024-01-23_17h26.29.086;REPSWITCH1_version1_list3;2022.2.4;144.05174445139983;
REPSWITCH1/PICTURE_338.png;regalo;type;darkblue;filler;1;F;1;2;3;1;Stim6_Set4;0;None;23;22;23;0;22;22;22;;;;;;;;;;;;;;;;;;;;;;;140.78382590040565;141.90197410061955;141.90197410061955;141.90197410061955;141.90197410061955;141.90197410061955;141.90197410061955;141.90197410061955;141.90197410061955;['r', 'e', 'g', 'a', 'l', 'o'];0;[0.8031400991603732, 0.858678799122572, 1.1167751997709274, 1.189568699337542, 1.3081762995570898, 1.4766029994934797];regalo;C:\2023\REPSWITCH21092023\REPSWITCH_excgange\REPSWITCH_excgange\data/450103_REPSWITCH1_version1_list3_2024-01-23_17h26.29.086_micRespv1l3_recorded\recording_micRespv1l3_2024-01-23_17h28.26.468.wav;144.92315770033747;145.423245199956;None;144.92315770033747;144.92315770033747;144.92315770033747;144.92315770033747;144.92315770033747;144.92315770033747;;;;;;450103;001;2024-01-23_17h26.29.086;REPSWITCH1_version1_list3;2022.2.4;144.05174445139983;
REPSWITCH1/PICTURE_142.png;vaso;type;darkblue;nontarget;1;NT;1;2;3;1;Stim7_Set1;0;None;24;23;24;0;23;23;23;;;;;;;;;;;;;;;;;;;;;;;145.423245199956;146.45809879992157;146.45809879992157;146.45809879992157;146.45809879992157;146.45809879992157;146.45809879992157;146.45809879992157;146.45809879992157;['a', 's', 'backspace', 'backspace', 'v', 'a', 's', 'o'];0;[1.0191671000793576, 1.273305700160563, 1.5903634997084737, 1.74106299970299, 1.808831200003624, 1.8646151004359126, 2.003953800536692, 2.0517263002693653];vaso;C:\2023\REPSWITCH21092023\REPSWITCH_excgange\REPSWITCH_excgange\data/450103_REPSWITCH1_version1_list3_2024-01-23_17h26.29.086_micRespv1l3_recorded\recording_micRespv1l3_2024-01-23_17h28.31.025.wav;149.48631290066987;;None;149.48631290066987;149.48631290066987;149.48631290066987;149.48631290066987;149.48631290066987;149.48631290066987;;;;;;450103;001;2024-01-23_17h26.29.086;REPSWITCH1_version1_list3;2022.2.4;144.05174445139983;
REPSWITCH1/PICTURE_142.png;vaso;speak;gold;switch;2;T;1;2;3;1;Stim7_Set1;0;None;25;24;25;0;24;24;24;;;;;;;;;;;;;;;;;;;;;;;149.98634329997003;151.0003631003201;151.0003631003201;151.0003631003201;151.0003631003201;151.0003631003201;151.0003631003201;151.0003631003201;151.0003631003201;None;0;;;C:\2023\REPSWITCH21092023\REPSWITCH_excgange\REPSWITCH_excgange\data/450103_REPSWITCH1_version1_list3_2024-01-23_17h26.29.086_micRespv1l3_recorded\recording_micRespv1l3_2024-01-23_17h28.35.567.wav;154.02856000047177;154.528678400442;None;154.02856000047177;154.02856000047177;154.02856000047177;154.02856000047177;154.02856000047177;154.02856000047177;;;;;;450103;001;2024-01-23_17h26.29.086;REPSWITCH1_version1_list3;2022.2.4;144.05174445139983;
REPSWITCH1/PICTURE_687.png;camisa;type;darkblue;filler;1;F;1;2;3;1;Stim5_Set4;1;switch;26;25;26;0;25;25;25;;;;;;;;;;;;;;;;;;;;;;;154.528678400442;155.5773736005649;155.5773736005649;155.5773736005649;155.5773736005649;155.5773736005649;155.5773736005649;155.5773736005649;155.5773736005649;['c', 'a', 'm', 'i', 's', 'a'];0;[1.1138418996706605, 1.2094804998487234, 1.3759947000071406, 1.4706401005387306, 1.5962177999317646, 1.66008420009166];camisa;C:\2023\REPSWITCH21092023\REPSWITCH_excgange\REPSWITCH_excgange\data/450103_REPSWITCH1_version1_list3_2024-01-23_17h26.29.086_micRespv1l3_recorded\recording_micRespv1l3_2024-01-23_17h28.40.143.wav;158.59857690054923;159.0986549006775;None;158.59857690054923;158.59857690054923;158.59857690054923;158.59857690054923;158.59857690054923;158.59857690054923;;;;;;450103;001;2024-01-23_17h26.29.086;REPSWITCH1_version1_list3;2022.2.4;144.05174445139983;
REPSWITCH1/PICTURE_30.png;granja;type;darkblue;nontarget;1;NT;2;2;3;1;Stim5_Set2;0;None;27;26;27;0;26;26;26;;;;;;;;;;;;;;;;;;;;;;;159.0986549006775;160.11269840039313;160.11269840039313;160.11269840039313;160.11269840039313;160.11269840039313;160.11269840039313;160.11269840039313;160.11269840039313;['g', 'r', 'a', 'n', 'j', 'a'];0;[1.0009569004178047, 1.2331282002851367, 1.3148558996617794, 1.5483799995854497, 1.7915543001145124, 1.8606078000739217];granja;C:\2023\REPSWITCH21092023\REPSWITCH_excgange\REPSWITCH_excgange\data/450103_REPSWITCH1_version1_list3_2024-01-23_17h26.29.086_micRespv1l3_recorded\recording_micRespv1l3_2024-01-23_17h28.44.681.wav;163.1409112000838;163.6409756001085;None;163.1409112000838;163.1409112000838;163.1409112000838;163.1409112000838;163.1409112000838;163.1409112000838;;;;;;450103;001;2024-01-23_17h26.29.086;REPSWITCH1_version1_list3;2022.2.4;144.05174445139983;
REPSWITCH1/PICTURE_30.png;granja;type;darkblue;repeat;1;T;2;2;3;1;Stim5_Set2;0;None;28;27;28;0;27;27;27;;;;;;;;;;;;;;;;;;;;;;;163.6409756001085;164.8077541999519;164.8077541999519;164.8077541999519;164.8077541999519;164.8077541999519;164.8077541999519;164.8077541999519;164.8077541999519;['g', 'r', 'a', 'n', 'j', 'a'];0;[0.721947799436748, 0.9451471995562315, 1.0130281997844577, 1.1486949995160103, 1.3546106992289424, 1.4134339997544885];granja;C:\2023\REPSWITCH21092023\REPSWITCH_excgange\REPSWITCH_excgange\data/450103_REPSWITCH1_version1_list3_2024-01-23_17h26.29.086_micRespv1l3_recorded\recording_micRespv1l3_2024-01-23_17h28.49.375.wav;167.8359056999907;168.33596280030906;None;167.8359056999907;167.8359056999907;167.8359056999907;167.8359056999907;167.8359056999907;167.8359056999907;;;;;;450103;001;2024-01-23_17h26.29.086;REPSWITCH1_version1_list3;2022.2.4;144.05174445139983;
REPSWITCH1/PICTURE_128.png;muñeca;speak;gold;filler;2;F;2;2;3;1;Stim4_Set1;0;None;29;28;29;0;28;28;28;;;;;;;;;;;;;;;;;;;;;;;168.33596280030906;169.4472376005724;169.4472376005724;169.4472376005724;169.4472376005724;169.4472376005724;169.4472376005724;169.4472376005724;169.4472376005724;None;0;;;C:\2023\REPSWITCH21092023\REPSWITCH_excgange\REPSWITCH_excgange\data/450103_REPSWITCH1_version1_list3_2024-01-23_17h26.29.086_micRespv1l3_recorded\recording_micRespv1l3_2024-01-23_17h28.54.013.wav;172.4684784002602;172.96853889990598;None;172.4684784002602;172.4684784002602;172.4684784002602;172.4684784002602;172.4684784002602;172.4684784002602;;;;;;450103;001;2024-01-23_17h26.29.086;REPSWITCH1_version1_list3;2022.2.4;144.05174445139983;
REPSWITCH1/PICTURE_264.png;mano;type;darkblue;nontarget;1;NT;2;2;3;1;Stim3_Set2;1;switch;30;29;30;0;29;29;29;;;;;;;;;;;;;;;;;;;;;;;172.96853889990598;174.26037740055472;174.26037740055472;174.26037740055472;174.26037740055472;174.26037740055472;174.26037740055472;174.26037740055472;174.26037740055472;['m', 'a', 'n', 'o'];0;[0.7573186000809073, 0.84006919991225, 1.0040864003822207, 1.1137207997962832];mano;C:\2023\REPSWITCH21092023\REPSWITCH_excgange\REPSWITCH_excgange\data/450103_REPSWITCH1_version1_list3_2024-01-23_17h26.29.086_micRespv1l3_recorded\recording_micRespv1l3_2024-01-23_17h28.58.827.wav;177.28160839993507;177.7816695002839;None;177.28160839993507;177.28160839993507;177.28160839993507;177.28160839993507;177.28160839993507;177.28160839993507;;;;;;450103;001;2024-01-23_17h26.29.086;REPSWITCH1_version1_list3;2022.2.4;144.05174445139983;
REPSWITCH1/PICTURE_264.png;mano;type;darkblue;repeat;1;T;2;2;3;1;Stim3_Set2;0;None;31;30;31;0;30;30;30;;;;;;;;;;;;;;;;;;;;;;;177.7816695002839;178.8443646999076;178.8443646999076;178.8443646999076;178.8443646999076;178.8443646999076;178.8443646999076;178.8443646999076;178.8443646999076;['m', 'a', 'n', 'o'];0;[0.7954645995050669, 0.9213473992422223, 1.0361751997843385, 1.1308484999462962];mano;C:\2023\REPSWITCH21092023\REPSWITCH_excgange\REPSWITCH_excgange\data/450103_REPSWITCH1_version1_list3_2024-01-23_17h26.29.086_micRespv1l3_recorded\recording_micRespv1l3_2024-01-23_17h29.03.411.wav;181.86550670024008;182.36568289995193;None;181.86550670024008;181.86550670024008;181.86550670024008;181.86550670024008;181.86550670024008;181.86550670024008;;;;;;450103;001;2024-01-23_17h26.29.086;REPSWITCH1_version1_list3;2022.2.4;144.05174445139983;
REPSWITCH1/PICTURE_175.png;pintor;type;darkblue;nontarget;1;NT;2;2;3;1;Stim1_Set2;0;None;32;31;32;0;31;31;31;;;;;;;;;;;;;;;;;;;;;;;182.36568289995193;183.5671466998756;183.5671466998756;183.5671466998756;183.5671466998756;183.5671466998756;183.5671466998756;183.5671466998756;183.5671466998756;['p', 'i', 'n', 't', 'o', 'r'];0;[0.8943047998473048, 0.9810049002990127, 1.1633939994499087, 1.3049269998446107, 1.397575999610126, 1.5095526995137334];pintor;C:\2023\REPSWITCH21092023\REPSWITCH_excgange\REPSWITCH_excgange\data/450103_REPSWITCH1_version1_list3_2024-01-23_17h26.29.086_micRespv1l3_recorded\recording_micRespv1l3_2024-01-23_17h29.08.134.wav;186.59531209990382;;None;186.59531209990382;186.59531209990382;186.59531209990382;186.59531209990382;186.59531209990382;186.59531209990382;;;;;;450103;001;2024-01-23_17h26.29.086;REPSWITCH1_version1_list3;2022.2.4;144.05174445139983;
REPSWITCH1/PICTURE_175.png;pintor;speak;gold;switch;2;T;2;2;3;1;Stim1_Set2;0;None;33;32;33;0;32;32;32;;;;;;;;;;;;;;;;;;;;;;;187.09538440033793;188.22054969985038;188.22054969985038;188.22054969985038;188.22054969985038;188.22054969985038;188.22054969985038;188.22054969985038;188.22054969985038;None;0;;;C:\2023\REPSWITCH21092023\REPSWITCH_excgange\REPSWITCH_excgange\data/450103_REPSWITCH1_version1_list3_2024-01-23_17h26.29.086_micRespv1l3_recorded\recording_micRespv1l3_2024-01-23_17h29.12.787.wav;191.2417482007295;191.7418168000877;None;191.2417482007295;191.2417482007295;191.2417482007295;191.2417482007295;191.2417482007295;191.2417482007295;;;;;;450103;001;2024-01-23_17h26.29.086;REPSWITCH1_version1_list3;2022.2.4;144.05174445139983;
REPSWITCH1/PICTURE_135.png;traje;speak;gold;filler;2;F;2;2;3;1;Stim3_Set1;1;repeat;34;33;34;0;33;33;33;;;;;;;;;;;;;;;;;;;;;;;191.7418168000877;192.81140080001205;192.81140080001205;192.81140080001205;192.81140080001205;192.81140080001205;192.81140080001205;192.81140080001205;192.81140080001205;None;0;;;C:\2023\REPSWITCH21092023\REPSWITCH_excgange\REPSWITCH_excgange\data/450103_REPSWITCH1_version1_list3_2024-01-23_17h26.29.086_micRespv1l3_recorded\recording_micRespv1l3_2024-01-23_17h29.17.378.wav;195.8326133005321;196.33268079999834;None;195.8326133005321;195.8326133005321;195.8326133005321;195.8326133005321;195.8326133005321;195.8326133005321;;;;;;450103;001;2024-01-23_17h26.29.086;REPSWITCH1_version1_list3;2022.2.4;144.05174445139983;
REPSWITCH1/PICTURE_446.png;cerdo;speak;gold;nontarget;2;NT;2;2;3;1;Stim7_Set2;1;repeat;35;34;35;0;34;34;34;;;;;;;;;;;;;;;;;;;;;;;196.33268079999834;197.43701510038227;197.43701510038227;197.43701510038227;197.43701510038227;197.43701510038227;197.43701510038227;197.43701510038227;197.43701510038227;None;0;;;C:\2023\REPSWITCH21092023\REPSWITCH_excgange\REPSWITCH_excgange\data/450103_REPSWITCH1_version1_list3_2024-01-23_17h26.29.086_micRespv1l3_recorded\recording_micRespv1l3_2024-01-23_17h29.22.003.wav;200.45830930024385;200.95832729991525;None;200.45830930024385;200.45830930024385;200.45830930024385;200.45830930024385;200.45830930024385;200.45830930024385;;;;;;450103;001;2024-01-23_17h26.29.086;REPSWITCH1_version1_list3;2022.2.4;144.05174445139983;
REPSWITCH1/PICTURE_446.png;cerdo;type;darkblue;switch;1;T;2;2;3;1;Stim7_Set2;0;None;36;35;36;0;35;35;35;;;;;;;;;;;;;;;;;;;;;;;200.95832729991525;202.04186590015888;202.04186590015888;202.04186590015888;202.04186590015888;202.04186590015888;202.04186590015888;202.04186590015888;202.04186590015888;['c', 'e', 'r', 'd', 'o'];0;[0.7499992996454239, 1.0138409994542599, 1.0895783994346857, 1.3208687994629145, 1.4195693992078304];cerdo;C:\2023\REPSWITCH21092023\REPSWITCH_excgange\REPSWITCH_excgange\data/450103_REPSWITCH1_version1_list3_2024-01-23_17h26.29.086_micRespv1l3_recorded\recording_micRespv1l3_2024-01-23_17h29.26.608.wav;205.06299320049584;205.5630954001099;None;205.06299320049584;205.06299320049584;205.06299320049584;205.06299320049584;205.06299320049584;205.06299320049584;;;;;;450103;001;2024-01-23_17h26.29.086;REPSWITCH1_version1_list3;2022.2.4;144.05174445139983;
REPSWITCH1/PICTURE_152.png;caracol;type;darkblue;nontarget;1;NT;2;2;3;1;Stim2_Set2;1;repeat;37;36;37;0;36;36;36;;;;;;;;;;;;;;;;;;;;;;;205.5630954001099;206.64659779984504;206.64659779984504;206.64659779984504;206.64659779984504;206.64659779984504;206.64659779984504;206.64659779984504;206.64659779984504;['c', 'a', 'r', 'a', 'c', 'o', 'l'];0;[0.9065343998372555, 0.9892670996487141, 1.2344324998557568, 1.2772464994341135, 1.499834899790585, 1.578783500008285, 1.7591776996850967];caracol;C:\2023\REPSWITCH21092023\REPSWITCH_excgange\REPSWITCH_excgange\data/450103_REPSWITCH1_version1_list3_2024-01-23_17h26.29.086_micRespv1l3_recorded\recording_micRespv1l3_2024-01-23_17h29.31.214.wav;209.66778030060232;210.16784180048853;None;209.66778030060232;209.66778030060232;209.66778030060232;209.66778030060232;209.66778030060232;209.66778030060232;;;;;;450103;001;2024-01-23_17h26.29.086;REPSWITCH1_version1_list3;2022.2.4;144.05174445139983;
REPSWITCH1/PICTURE_152.png;caracol;speak;gold;switch;2;T;2;2;3;1;Stim2_Set2;0;None;38;37;38;0;37;37;37;;;;;;;;;;;;;;;;;;;;;;;210.16784180048853;211.23054630029947;211.23054630029947;211.23054630029947;211.23054630029947;211.23054630029947;211.23054630029947;211.23054630029947;211.23054630029947;None;0;;;C:\2023\REPSWITCH21092023\REPSWITCH_excgange\REPSWITCH_excgange\data/450103_REPSWITCH1_version1_list3_2024-01-23_17h26.29.086_micRespv1l3_recorded\recording_micRespv1l3_2024-01-23_17h29.35.797.wav;214.25867010001093;;None;214.25867010001093;214.25867010001093;214.25867010001093;214.25867010001093;214.25867010001093;214.25867010001093;;;;;;450103;001;2024-01-23_17h26.29.086;REPSWITCH1_version1_list3;2022.2.4;144.05174445139983;
REPSWITCH1/PICTURE_16.png;cazador;type;darkblue;filler;1;F;2;2;3;1;Stim6_Set1;0;None;39;38;39;0;38;38;38;;;;;;;;;;;;;;;;;;;;;;;214.75872169993818;215.87000820040703;215.87000820040703;215.87000820040703;215.87000820040703;215.87000820040703;215.87000820040703;215.87000820040703;215.87000820040703;['c', 'a', 'z', 'd', 'backspace', 'a', 'd', 'o', 'r'];0;[0.8971453998237848, 0.980825999751687, 1.2177330004051328, 1.5685662999749184, 1.9929180005565286, 2.097554599866271, 2.232290799729526, 2.3480593003332615, 2.4377666004002094];cazador;C:\2023\REPSWITCH21092023\REPSWITCH_excgange\REPSWITCH_excgange\data/450103_REPSWITCH1_version1_list3_2024-01-23_17h26.29.086_micRespv1l3_recorded\recording_micRespv1l3_2024-01-23_17h29.40.436.wav;218.8912471998483;219.3913032002747;None;218.8912471998483;218.8912471998483;218.8912471998483;218.8912471998483;218.8912471998483;218.8912471998483;;;;;;450103;001;2024-01-23_17h26.29.086;REPSWITCH1_version1_list3;2022.2.4;144.05174445139983;
REPSWITCH1/PICTURE_381.png;fresa;speak;gold;filler;2;F;2;2;3;1;Stim2_Set1;0;None;40;39;40;0;39;39;39;;;;;;;;;;;;;;;;;;;;;;;219.3913032002747;220.55810470040888;220.55810470040888;220.55810470040888;220.55810470040888;220.55810470040888;220.55810470040888;220.55810470040888;220.55810470040888;None;0;;;C:\2023\REPSWITCH21092023\REPSWITCH_excgange\REPSWITCH_excgange\data/450103_REPSWITCH1_version1_list3_2024-01-23_17h26.29.086_micRespv1l3_recorded\recording_micRespv1l3_2024-01-23_17h29.45.125.wav;223.5793564999476;224.07941529992968;None;223.5793564999476;223.5793564999476;223.5793564999476;223.5793564999476;223.5793564999476;223.5793564999476;;;;;;450103;001;2024-01-23_17h26.29.086;REPSWITCH1_version1_list3;2022.2.4;144.05174445139983;
REPSWITCH1/PICTURE_19.png;pavo;type;darkblue;filler;1;F;2;2;3;1;Stim5_Set1;0;None;41;40;41;0;40;40;40;;;;;;;;;;;;;;;;;;;;;;;224.07941529992968;225.11430760007352;225.11430760007352;225.11430760007352;225.11430760007352;225.11430760007352;225.11430760007352;225.11430760007352;225.11430760007352;['p', 'a', 'v', 'o'];0;[1.088052500039339, 1.1747439997270703, 1.3361982004716992, 1.4179266998544335];pavo;C:\2023\REPSWITCH21092023\REPSWITCH_excgange\REPSWITCH_excgange\data/450103_REPSWITCH1_version1_list3_2024-01-23_17h26.29.086_micRespv1l3_recorded\recording_micRespv1l3_2024-01-23_17h29.49.681.wav;228.14252070058137;;None;228.14252070058137;228.14252070058137;228.14252070058137;228.14252070058137;228.14252070058137;228.14252070058137;;;;;;450103;001;2024-01-23_17h26.29.086;REPSWITCH1_version1_list3;2022.2.4;144.05174445139983;
REPSWITCH1/PICTURE_517.png;cuerda;speak;gold;nontarget;2;NT;2;2;3;1;Stim4_Set2;1;switch;42;41;42;0;41;41;41;;;;;;;;;;;;;;;;;;;;;;;228.64251590054482;229.78849720023572;229.78849720023572;229.78849720023572;229.78849720023572;229.78849720023572;229.78849720023572;229.78849720023572;229.78849720023572;None;0;;;C:\2023\REPSWITCH21092023\REPSWITCH_excgange\REPSWITCH_excgange\data/450103_REPSWITCH1_version1_list3_2024-01-23_17h26.29.086_micRespv1l3_recorded\recording_micRespv1l3_2024-01-23_17h29.54.356.wav;232.81666310038418;233.3167259003967;None;232.81666310038418;232.81666310038418;232.81666310038418;232.81666310038418;232.81666310038418;232.81666310038418;;;;;;450103;001;2024-01-23_17h26.29.086;REPSWITCH1_version1_list3;2022.2.4;144.05174445139983;
REPSWITCH1/PICTURE_517.png;cuerda;speak;gold;repeat;2;T;2;2;3;1;Stim4_Set2;0;None;43;42;43;0;42;42;42;;;;;;;;;;;;;;;;;;;;;;;233.3167259003967;234.41409269999713;234.41409269999713;234.41409269999713;234.41409269999713;234.41409269999713;234.41409269999713;234.41409269999713;234.41409269999713;None;0;;;C:\2023\REPSWITCH21092023\REPSWITCH_excgange\REPSWITCH_excgange\data/450103_REPSWITCH1_version1_list3_2024-01-23_17h26.29.086_micRespv1l3_recorded\recording_micRespv1l3_2024-01-23_17h29.58.981.wav;237.44228230044246;;None;237.44228230044246;237.44228230044246;237.44228230044246;237.44228230044246;237.44228230044246;237.44228230044246;;;;;;450103;001;2024-01-23_17h26.29.086;REPSWITCH1_version1_list3;2022.2.4;144.05174445139983;
REPSWITCH1/PICTURE_178.png;puente;type;darkblue;filler;1;F;2;2;3;1;Stim1_Set1;0;None;44;43;44;0;43;43;43;;;;;;;;;;;;;;;;;;;;;;;237.9423473002389;239.0605656998232;239.0605656998232;239.0605656998232;239.0605656998232;239.0605656998232;239.0605656998232;239.0605656998232;239.0605656998232;['p', 'u', 'e', 'n', 't', 'e'];0;[0.988957199268043, 1.0816469993442297, 1.238197399303317, 1.3367938995361328, 1.461374499835074, 1.5035721994936466];puente;C:\2023\REPSWITCH21092023\REPSWITCH_excgange\REPSWITCH_excgange\data/450103_REPSWITCH1_version1_list3_2024-01-23_17h26.29.086_micRespv1l3_recorded\recording_micRespv1l3_2024-01-23_17h30.03.627.wav;242.08175010047853;242.58189760055393;None;242.08175010047853;242.08175010047853;242.08175010047853;242.08175010047853;242.08175010047853;242.08175010047853;;;;;;450103;001;2024-01-23_17h26.29.086;REPSWITCH1_version1_list3;2022.2.4;144.05174445139983;
REPSWITCH1/PICTURE_199.png;falda;speak;gold;nontarget;2;NT;2;2;3;1;Stim8_Set2;1;switch;45;44;45;0;44;44;44;;;;;;;;;;;;;;;;;;;;;;;242.58189760055393;243.62362870015204;243.62362870015204;243.62362870015204;243.62362870015204;243.62362870015204;243.62362870015204;243.62362870015204;243.62362870015204;None;0;;;C:\2023\REPSWITCH21092023\REPSWITCH_excgange\REPSWITCH_excgange\data/450103_REPSWITCH1_version1_list3_2024-01-23_17h26.29.086_micRespv1l3_recorded\recording_micRespv1l3_2024-01-23_17h30.08.190.wav;246.64485510066152;247.14492170047015;None;246.64485510066152;246.64485510066152;246.64485510066152;246.64485510066152;246.64485510066152;246.64485510066152;;;;;;450103;001;2024-01-23_17h26.29.086;REPSWITCH1_version1_list3;2022.2.4;144.05174445139983;
REPSWITCH1/PICTURE_199.png;falda;speak;gold;repeat;2;T;2;2;3;1;Stim8_Set2;0;None;46;45;46;0;45;45;45;;;;;;;;;;;;;;;;;;;;;;;247.14492170047015;248.24925720039755;248.24925720039755;248.24925720039755;248.24925720039755;248.24925720039755;248.24925720039755;248.24925720039755;248.24925720039755;None;0;;;C:\2023\REPSWITCH21092023\REPSWITCH_excgange\REPSWITCH_excgange\data/450103_REPSWITCH1_version1_list3_2024-01-23_17h26.29.086_micRespv1l3_recorded\recording_micRespv1l3_2024-01-23_17h30.12.816.wav;251.27743200026453;;None;251.27743200026453;251.27743200026453;251.27743200026453;251.27743200026453;251.27743200026453;251.27743200026453;;;;;;450103;001;2024-01-23_17h26.29.086;REPSWITCH1_version1_list3;2022.2.4;144.05174445139983;
REPSWITCH1/PICTURE_169.png;espalda;type;darkblue;filler;1;F;2;2;3;1;Stim8_Set1;0;None;47;46;47;0;46;46;46;;;;;;;;;;;;;;;;;;;;;;;251.7775694001466;252.88182240072638;252.88182240072638;252.88182240072638;252.88182240072638;252.88182240072638;252.88182240072638;252.88182240072638;252.88182240072638;['e', 's', 'p', 'a', 'l', 'd', 'a'];0;[1.0535380002111197, 1.1213095001876354, 1.2907338999211788, 1.429281199350953, 1.5602390002459288, 1.6778408996760845, 1.748595300130546];espalda;C:\2023\REPSWITCH21092023\REPSWITCH_excgange\REPSWITCH_excgange\data/450103_REPSWITCH1_version1_list3_2024-01-23_17h26.29.086_micRespv1l3_recorded\recording_micRespv1l3_2024-01-23_17h30.17.449.wav;255.91004309989512;;None;255.91004309989512;255.91004309989512;255.91004309989512;255.91004309989512;255.91004309989512;255.91004309989512;;;;;;450103;001;2024-01-23_17h26.29.086;REPSWITCH1_version1_list3;2022.2.4;144.05174445139983;
REPSWITCH1/PICTURE_142.png;vaso;speak;gold;filler;2;F;2;2;3;1;Stim7_Set1;0;None;48;47;48;0;47;47;47;;;;;;;;;;;;;;;;;;;;;;;256.4100504005328;257.65332600008696;257.65332600008696;257.65332600008696;257.65332600008696;257.65332600008696;257.65332600008696;257.65332600008696;257.65332600008696;None;0;;;C:\2023\REPSWITCH21092023\REPSWITCH_excgange\REPSWITCH_excgange\data/450103_REPSWITCH1_version1_list3_2024-01-23_17h26.29.086_micRespv1l3_recorded\recording_micRespv1l3_2024-01-23_17h30.22.219.wav;260.67449480015785;261.17455750051886;None;260.67449480015785;260.67449480015785;260.67449480015785;260.67449480015785;260.67449480015785;260.67449480015785;;;;;;450103;001;2024-01-23_17h26.29.086;REPSWITCH1_version1_list3;2022.2.4;144.05174445139983;
REPSWITCH1/PICTURE_552.png;manzana;speak;gold;nontarget;2;NT;2;2;3;1;Stim6_Set2;0;None;49;48;49;0;48;48;48;;;;;;;;;;;;;;;;;;;;;;;261.17455750051886;262.23726510070264;262.23726510070264;262.23726510070264;262.23726510070264;262.23726510070264;262.23726510070264;262.23726510070264;262.23726510070264;None;0;;;C:\2023\REPSWITCH21092023\REPSWITCH_excgange\REPSWITCH_excgange\data/450103_REPSWITCH1_version1_list3_2024-01-23_17h26.29.086_micRespv1l3_recorded\recording_micRespv1l3_2024-01-23_17h30.26.804.wav;265.25847460050136;265.7585018007085;None;265.25847460050136;265.25847460050136;265.25847460050136;265.25847460050136;265.25847460050136;265.25847460050136;;;;;;450103;001;2024-01-23_17h26.29.086;REPSWITCH1_version1_list3;2022.2.4;144.05174445139983;
REPSWITCH1/PICTURE_552.png;manzana;type;darkblue;switch;1;T;2;2;3;1;Stim6_Set2;0;None;50;49;50;0;49;49;49;;;;;;;;;;;;;;;;;;;;;;;265.7585018007085;266.84198210015893;266.84198210015893;266.84198210015893;266.84198210015893;266.84198210015893;266.84198210015893;266.84198210015893;266.84198210015893;['m', 'a', 'n', 'z', 'a', 'n', 'a'];0;[0.7228016005828977, 0.8205016003921628, 0.9394169002771378, 1.0928973006084561, 1.2972097005695105, 1.4875773005187511, 1.5981013998389244];manzana;C:\2023\REPSWITCH21092023\REPSWITCH_excgange\REPSWITCH_excgange\data/450103_REPSWITCH1_version1_list3_2024-01-23_17h26.29.086_micRespv1l3_recorded\recording_micRespv1l3_2024-01-23_17h30.31.408.wav;269.86320030037314;270.36327300034463;None;269.86320030037314;269.86320030037314;269.86320030037314;269.86320030037314;269.86320030037314;269.86320030037314;;;;;;450103;001;2024-01-23_17h26.29.086;REPSWITCH1_version1_list3;2022.2.4;144.05174445139983;
REPSWITCH1/PICTURE_590.png;escoba;speak;gold;filler;2;F;1;2;3;1;Extra3;0;None;51;50;51;0;50;50;50;;;;;;;;;;;;;;;;;;;;;;;270.36327300034463;271.3912417003885;271.3912417003885;271.3912417003885;271.3912417003885;271.3912417003885;271.3912417003885;271.3912417003885;271.3912417003885;None;0;;;C:\2023\REPSWITCH21092023\REPSWITCH_excgange\REPSWITCH_excgange\data/450103_REPSWITCH1_version1_list3_2024-01-23_17h26.29.086_micRespv1l3_recorded\recording_micRespv1l3_2024-01-23_17h30.35.958.wav;274.41934750042856;;space;274.41934750042856;274.41934750042856;274.41934750042856;274.41934750042856;274.41934750042856;274.41934750042856;274.9194242004305;274.9194242004305;16.798853599466383;;;450103;001;2024-01-23_17h26.29.086;REPSWITCH1_version1_list3;2022.2.4;144.05174445139983;
REPSWITCH1/PICTURE_552.png;manzana;type;darkblue;filler;1;F;3;2;3;1;Stim6_Set2;0;None;52;51;52;0;51;51;51;;;;;;;;;;;;;;;;;;;;;;;291.72719120047987;292.8523251004517;292.8523251004517;292.8523251004517;292.8523251004517;292.8523251004517;292.8523251004517;292.8523251004517;292.8523251004517;['m', 'a', 'n', 'z', 'a', 'n', 'a'];0;[1.1723774997517467, 1.400619899854064, 1.5411510998383164, 1.6986231999471784, 1.8959369994699955, 2.085028000175953, 2.1715636998414993];manzana;C:\2023\REPSWITCH21092023\REPSWITCH_excgange\REPSWITCH_excgange\data/450103_REPSWITCH1_version1_list3_2024-01-23_17h26.29.086_micRespv1l3_recorded\recording_micRespv1l3_2024-01-23_17h30.57.419.wav;295.8805363001302;;None;295.8805363001302;295.8805363001302;295.8805363001302;295.8805363001302;295.8805363001302;295.8805363001302;;;;;;450103;001;2024-01-23_17h26.29.086;REPSWITCH1_version1_list3;2022.2.4;144.05174445139983;
REPSWITCH1/PICTURE_464.png;goma;type;darkblue;nontarget;1;NT;3;2;3;1;Stim6_Set3;1;repeat;53;52;53;0;52;52;52;;;;;;;;;;;;;;;;;;;;;;;296.3805752005428;297.5266292998567;297.5266292998567;297.5266292998567;297.5266292998567;297.5266292998567;297.5266292998567;297.5266292998567;297.5266292998567;['g', 'o', 'm', 'a'];0;[1.151175499893725, 1.2403556993231177, 1.3878571996465325, 1.431747599504888];goma;C:\2023\REPSWITCH21092023\REPSWITCH_excgange\REPSWITCH_excgange\data/450103_REPSWITCH1_version1_list3_2024-01-23_17h26.29.086_micRespv1l3_recorded\recording_micRespv1l3_2024-01-23_17h31.02.094.wav;300.5547676999122;;None;300.5547676999122;300.5547676999122;300.5547676999122;300.5547676999122;300.5547676999122;300.5547676999122;;;;;;450103;001;2024-01-23_17h26.29.086;REPSWITCH1_version1_list3;2022.2.4;144.05174445139983;
REPSWITCH1/PICTURE_464.png;goma;speak;gold;switch;2;T;3;2;3;1;Stim6_Set3;0;None;54;53;54;0;53;53;53;;;;;;;;;;;;;;;;;;;;;;;301.05484980065376;302.22854800056666;302.22854800056666;302.22854800056666;302.22854800056666;302.22854800056666;302.22854800056666;302.22854800056666;302.22854800056666;None;0;;;C:\2023\REPSWITCH21092023\REPSWITCH_excgange\REPSWITCH_excgange\data/450103_REPSWITCH1_version1_list3_2024-01-23_17h26.29.086_micRespv1l3_recorded\recording_micRespv1l3_2024-01-23_17h31.06.796.wav;305.25673460029066;;None;305.25673460029066;305.25673460029066;305.25673460029066;305.25673460029066;305.25673460029066;305.25673460029066;;;;;;450103;001;2024-01-23_17h26.29.086;REPSWITCH1_version1_list3;2022.2.4;144.05174445139983;
REPSWITCH1/PICTURE_30.png;granja;speak;gold;filler;2;F;3;2;3;1;Stim5_Set2;0;None;55;54;55;0;54;54;54;;;;;;;;;;;;;;;;;;;;;;;305.75676969997585;306.9028016002849;306.9028016002849;306.9028016002849;306.9028016002849;306.9028016002849;306.9028016002849;306.9028016002849;306.9028016002849;None;0;;;C:\2023\REPSWITCH21092023\REPSWITCH_excgange\REPSWITCH_excgange\data/450103_REPSWITCH1_version1_list3_2024-01-23_17h26.29.086_micRespv1l3_recorded\recording_micRespv1l3_2024-01-23_17h31.11.469.wav;309.93099560029805;;None;309.93099560029805;309.93099560029805;309.93099560029805;309.93099560029805;309.93099560029805;309.93099560029805;;;;;;450103;001;2024-01-23_17h26.29.086;REPSWITCH1_version1_list3;2022.2.4;144.05174445139983;
REPSWITCH1/PICTURE_235.png;aguja;speak;gold;nontarget;2;NT;3;2;3;1;Stim4_Set3;1;repeat;56;55;56;0;55;55;55;;;;;;;;;;;;;;;;;;;;;;;310.43103190045804;311.55616939999163;311.55616939999163;311.55616939999163;311.55616939999163;311.55616939999163;311.55616939999163;311.55616939999163;311.55616939999163;None;0;;;C:\2023\REPSWITCH21092023\REPSWITCH_excgange\REPSWITCH_excgange\data/450103_REPSWITCH1_version1_list3_2024-01-23_17h26.29.086_micRespv1l3_recorded\recording_micRespv1l3_2024-01-23_17h31.16.123.wav;314.5774445999414;315.0774627001956;None;314.5774445999414;314.5774445999414;314.5774445999414;314.5774445999414;314.5774445999414;314.5774445999414;;;;;;450103;001;2024-01-23_17h26.29.086;REPSWITCH1_version1_list3;2022.2.4;144.05174445139983;
REPSWITCH1/PICTURE_235.png;aguja;type;darkblue;switch;1;T;3;2;3;1;Stim4_Set3;0;None;57;56;57;0;56;56;56;;;;;;;;;;;;;;;;;;;;;;;315.0774627001956;316.13321680016816;316.13321680016816;316.13321680016816;316.13321680016816;316.13321680016816;316.13321680016816;316.13321680016816;316.13321680016816;['a', 'g', 'u', 'j', 'a'];0;[0.7560175992548466, 0.9125118991360068, 1.0231178998947144, 1.2384904995560646, 1.3020508997142315];aguja;C:\2023\REPSWITCH21092023\REPSWITCH_excgange\REPSWITCH_excgange\data/450103_REPSWITCH1_version1_list3_2024-01-23_17h26.29.086_micRespv1l3_recorded\recording_micRespv1l3_2024-01-23_17h31.20.699.wav;319.15442570019513;319.6544749001041;None;319.15442570019513;319.15442570019513;319.15442570019513;319.15442570019513;319.15442570019513;319.15442570019513;;;;;;450103;001;2024-01-23_17h26.29.086;REPSWITCH1_version1_list3;2022.2.4;144.05174445139983;
REPSWITCH1/PICTURE_391.png;cadena;type;darkblue;filler;1;F;3;2;3;1;Extra2;0;None;58;57;58;0;57;57;57;;;;;;;;;;;;;;;;;;;;;;;319.6544749001041;320.682361099869;320.682361099869;320.682361099869;320.682361099869;320.682361099869;320.682361099869;320.682361099869;320.682361099869;['c', 'a', 'd', 'e', 'n', 'a'];0;[1.1208566995337605, 1.3171926997601986, 1.529780499637127, 1.7052171994000673, 1.7909702993929386, 1.8695229990407825];cadena;C:\2023\REPSWITCH21092023\REPSWITCH_excgange\REPSWITCH_excgange\data/450103_REPSWITCH1_version1_list3_2024-01-23_17h26.29.086_micRespv1l3_recorded\recording_micRespv1l3_2024-01-23_17h31.25.248.wav;323.70360110048205;324.203657399863;None;323.70360110048205;323.70360110048205;323.70360110048205;323.70360110048205;323.70360110048205;323.70360110048205;;;;;;450103;001;2024-01-23_17h26.29.086;REPSWITCH1_version1_list3;2022.2.4;144.05174445139983;
REPSWITCH1/PICTURE_320.png;iglesia;type;darkblue;nontarget;1;NT;3;2;3;1;Stim8_Set3;0;None;59;58;59;0;58;58;58;;;;;;;;;;;;;;;;;;;;;;;324.203657399863;325.36359680071473;325.36359680071473;325.36359680071473;325.36359680071473;325.36359680071473;325.36359680071473;325.36359680071473;325.36359680071473;['i', 'g', 'n', 'backspace', 'l', 'e', 's', 'i', 'a'];0;[1.0680398000404239, 1.2349723000079393, 1.412377799861133, 1.8333489997312427, 2.1546314004808664, 2.305128900334239, 2.4583230996504426, 2.598963100463152, 2.6673878002911806];iglesia;C:\2023\REPSWITCH21092023\REPSWITCH_excgange\REPSWITCH_excgange\data/450103_REPSWITCH1_version1_list3_2024-01-23_17h26.29.086_micRespv1l3_recorded\recording_micRespv1l3_2024-01-23_17h31.29.931.wav;328.39172710012645;;None;328.39172710012645;328.39172710012645;328.39172710012645;328.39172710012645;328.39172710012645;328.39172710012645;;;;;;450103;001;2024-01-23_17h26.29.086;REPSWITCH1_version1_list3;2022.2.4;144.05174445139983;
REPSWITCH1/PICTURE_320.png;iglesia;speak;gold;switch;2;T;3;2;3;1;Stim8_Set3;0;None;60;59;60;0;59;59;59;;;;;;;;;;;;;;;;;;;;;;;328.89176509995013;329.96135300025344;329.96135300025344;329.96135300025344;329.96135300025344;329.96135300025344;329.96135300025344;329.96135300025344;329.96135300025344;None;0;;;C:\2023\REPSWITCH21092023\REPSWITCH_excgange\REPSWITCH_excgange\data/450103_REPSWITCH1_version1_list3_2024-01-23_17h26.29.086_micRespv1l3_recorded\recording_micRespv1l3_2024-01-23_17h31.34.528.wav;332.9895466007292;;None;332.9895466007292;332.9895466007292;332.9895466007292;332.9895466007292;332.9895466007292;332.9895466007292;;;;;;450103;001;2024-01-23_17h26.29.086;REPSWITCH1_version1_list3;2022.2.4;144.05174445139983;
REPSWITCH1/PICTURE_175.png;pintor;type;darkblue;filler;1;F;3;2;3;1;Stim1_Set2;0;None;61;60;61;0;60;60;60;;;;;;;;;;;;;;;;;;;;;;;333.48962160013616;334.566146700643;334.566146700643;334.566146700643;334.566146700643;334.566146700643;334.566146700643;334.566146700643;334.566146700643;['p', 'i', 'n', 't', 'o', 'r'];0;[0.8230696991086006, 0.941670399159193, 1.1679013995453715, 1.3073155991733074, 1.432082299143076, 1.5078504998236895];pintor;C:\2023\REPSWITCH21092023\REPSWITCH_excgange\REPSWITCH_excgange\data/450103_REPSWITCH1_version1_list3_2024-01-23_17h26.29.086_micRespv1l3_recorded\recording_micRespv1l3_2024-01-23_17h31.39.133.wav;337.5943177007139;;None;337.5943177007139;337.5943177007139;337.5943177007139;337.5943177007139;337.5943177007139;337.5943177007139;;;;;;450103;001;2024-01-23_17h26.29.086;REPSWITCH1_version1_list3;2022.2.4;144.05174445139983;
REPSWITCH1/PICTURE_271.png;conejo;speak;gold;nontarget;2;NT;3;2;3;1;Stim7_Set3;1;switch;62;61;62;0;61;61;61;;;;;;;;;;;;;;;;;;;;;;;338.0943750003353;339.1917254002765;339.1917254002765;339.1917254002765;339.1917254002765;339.1917254002765;339.1917254002765;339.1917254002765;339.1917254002765;None;0;;;C:\2023\REPSWITCH21092023\REPSWITCH_excgange\REPSWITCH_excgange\data/450103_REPSWITCH1_version1_list3_2024-01-23_17h26.29.086_micRespv1l3_recorded\recording_micRespv1l3_2024-01-23_17h31.43.758.wav;342.21993230003864;;None;342.21993230003864;342.21993230003864;342.21993230003864;342.21993230003864;342.21993230003864;342.21993230003864;;;;;;450103;001;2024-01-23_17h26.29.086;REPSWITCH1_version1_list3;2022.2.4;144.05174445139983;
REPSWITCH1/PICTURE_271.png;conejo;speak;gold;repeat;2;T;3;2;3;1;Stim7_Set3;0;None;63;62;63;0;62;62;62;;;;;;;;;;;;;;;;;;;;;;;342.7200608998537;343.81040049996227;343.81040049996227;343.81040049996227;343.81040049996227;343.81040049996227;343.81040049996227;343.81040049996227;343.81040049996227;None;0;;;C:\2023\REPSWITCH21092023\REPSWITCH_excgange\REPSWITCH_excgange\data/450103_REPSWITCH1_version1_list3_2024-01-23_17h26.29.086_micRespv1l3_recorded\recording_micRespv1l3_2024-01-23_17h31.48.376.wav;346.83857780043036;;None;346.83857780043036;346.83857780043036;346.83857780043036;346.83857780043036;346.83857780043036;346.83857780043036;;;;;;450103;001;2024-01-23_17h26.29.086;REPSWITCH1_version1_list3;2022.2.4;144.05174445139983;
REPSWITCH1/PICTURE_446.png;cerdo;speak;gold;filler;2;F;3;2;3;1;Stim7_Set2;0;None;64;63;64;0;63;63;63;;;;;;;;;;;;;;;;;;;;;;;347.33873120043427;348.4846411999315;348.4846411999315;348.4846411999315;348.4846411999315;348.4846411999315;348.4846411999315;348.4846411999315;348.4846411999315;None;0;;;C:\2023\REPSWITCH21092023\REPSWITCH_excgange\REPSWITCH_excgange\data/450103_REPSWITCH1_version1_list3_2024-01-23_17h26.29.086_micRespv1l3_recorded\recording_micRespv1l3_2024-01-23_17h31.53.051.wav;351.5058523006737;352.00593090057373;None;351.5058523006737;351.5058523006737;351.5058523006737;351.5058523006737;351.5058523006737;351.5058523006737;;;;;;450103;001;2024-01-23_17h26.29.086;REPSWITCH1_version1_list3;2022.2.4;144.05174445139983;
REPSWITCH1/PICTURE_152.png;caracol;type;darkblue;filler;1;F;3;2;3;1;Stim2_Set2;0;None;65;64;65;0;64;64;64;;;;;;;;;;;;;;;;;;;;;;;352.00593090057373;353.0130283003673;353.0130283003673;353.0130283003673;353.0130283003673;353.0130283003673;353.0130283003673;353.0130283003673;353.0130283003673;['c', 'a', 'r', 'a', 'c', 'o', 'l'];0;[0.8191372994333506, 0.8922467995435, 1.1367406994104385, 1.1846141992136836, 1.409554099664092, 1.4932402996346354, 1.6623728992417455];caracol;C:\2023\REPSWITCH21092023\REPSWITCH_excgange\REPSWITCH_excgange\data/450103_REPSWITCH1_version1_list3_2024-01-23_17h26.29.086_micRespv1l3_recorded\recording_micRespv1l3_2024-01-23_17h31.57.579.wav;356.03424940072;356.53430949989706;None;356.03424940072;356.03424940072;356.03424940072;356.03424940072;356.03424940072;356.03424940072;;;;;;450103;001;2024-01-23_17h26.29.086;REPSWITCH1_version1_list3;2022.2.4;144.05174445139983;
REPSWITCH1/PICTURE_576.png;guante;speak;gold;nontarget;2;NT;3;2;3;1;Stim1_Set3;1;switch;66;65;66;0;65;65;65;;;;;;;;;;;;;;;;;;;;;;;356.53430949989706;357.6108405003324;357.6108405003324;357.6108405003324;357.6108405003324;357.6108405003324;357.6108405003324;357.6108405003324;357.6108405003324;None;0;;;C:\2023\REPSWITCH21092023\REPSWITCH_excgange\REPSWITCH_excgange\data/450103_REPSWITCH1_version1_list3_2024-01-23_17h26.29.086_micRespv1l3_recorded\recording_micRespv1l3_2024-01-23_17h32.02.177.wav;360.63203790038824;361.13213529996574;None;360.63203790038824;360.63203790038824;360.63203790038824;360.63203790038824;360.63203790038824;360.63203790038824;;;;;;450103;001;2024-01-23_17h26.29.086;REPSWITCH1_version1_list3;2022.2.4;144.05174445139983;
REPSWITCH1/PICTURE_576.png;guante;speak;gold;repeat;2;T;3;2;3;1;Stim1_Set3;0;None;67;66;67;0;66;66;66;;;;;;;;;;;;;;;;;;;;;;;361.13213529996574;362.23644990008324;362.23644990008324;362.23644990008324;362.23644990008324;362.23644990008324;362.23644990008324;362.23644990008324;362.23644990008324;None;0;;;C:\2023\REPSWITCH21092023\REPSWITCH_excgange\REPSWITCH_excgange\data/450103_REPSWITCH1_version1_list3_2024-01-23_17h26.29.086_micRespv1l3_recorded\recording_micRespv1l3_2024-01-23_17h32.06.802.wav;365.25765520054847;365.7577301003039;None;365.25765520054847;365.25765520054847;365.25765520054847;365.25765520054847;365.25765520054847;365.25765520054847;;;;;;450103;001;2024-01-23_17h26.29.086;REPSWITCH1_version1_list3;2022.2.4;144.05174445139983;
REPSWITCH1/PICTURE_242.png;cartero;speak;gold;nontarget;2;NT;3;2;3;1;Stim3_Set3;0;None;68;67;68;0;67;67;67;;;;;;;;;;;;;;;;;;;;;;;365.7577301003039;366.90374460071325;366.90374460071325;366.90374460071325;366.90374460071325;366.90374460071325;366.90374460071325;366.90374460071325;366.90374460071325;None;0;;;C:\2023\REPSWITCH21092023\REPSWITCH_excgange\REPSWITCH_excgange\data/450103_REPSWITCH1_version1_list3_2024-01-23_17h26.29.086_micRespv1l3_recorded\recording_micRespv1l3_2024-01-23_17h32.11.470.wav;369.93187770061195;;None;369.93187770061195;369.93187770061195;369.93187770061195;369.93187770061195;369.93187770061195;369.93187770061195;;;;;;450103;001;2024-01-23_17h26.29.086;REPSWITCH1_version1_list3;2022.2.4;144.05174445139983;
REPSWITCH1/PICTURE_242.png;cartero;type;darkblue;switch;1;T;3;2;3;1;Stim3_Set3;0;None;69;68;69;0;68;68;68;;;;;;;;;;;;;;;;;;;;;;;370.4319695001468;371.59190100058913;371.59190100058913;371.59190100058913;371.59190100058913;371.59190100058913;371.59190100058913;371.59190100058913;371.59190100058913;['c', 'a', 'r', 't', 'e', 'r', 'o'];0;[0.9024224998429418, 0.9502554992213845, 1.2158237993717194, 1.419179799966514, 1.5148465996608138, 1.6354590998962522, 1.7606608998030424];cartero;C:\2023\REPSWITCH21092023\REPSWITCH_excgange\REPSWITCH_excgange\data/450103_REPSWITCH1_version1_list3_2024-01-23_17h26.29.086_micRespv1l3_recorded\recording_micRespv1l3_2024-01-23_17h32.16.158.wav;374.6130389003083;375.11313850060105;None;374.6130389003083;374.6130389003083;374.6130389003083;374.6130389003083;374.6130389003083;374.6130389003083;;;;;;450103;001;2024-01-23_17h26.29.086;REPSWITCH1_version1_list3;2022.2.4;144.05174445139983;
REPSWITCH1/PICTURE_517.png;cuerda;speak;gold;filler;2;F;3;2;3;1;Stim4_Set2;0;None;70;69;70;0;69;69;69;;;;;;;;;;;;;;;;;;;;;;;375.11313850060105;376.23827390000224;376.23827390000224;376.23827390000224;376.23827390000224;376.23827390000224;376.23827390000224;376.23827390000224;376.23827390000224;None;0;;;C:\2023\REPSWITCH21092023\REPSWITCH_excgange\REPSWITCH_excgange\data/450103_REPSWITCH1_version1_list3_2024-01-23_17h26.29.086_micRespv1l3_recorded\recording_micRespv1l3_2024-01-23_17h32.20.805.wav;379.2595249004662;379.7595747001469;None;379.2595249004662;379.2595249004662;379.2595249004662;379.2595249004662;379.2595249004662;379.2595249004662;;;;;;450103;001;2024-01-23_17h26.29.086;REPSWITCH1_version1_list3;2022.2.4;144.05174445139983;
REPSWITCH1/PICTURE_646.png;tronco;type;darkblue;filler;1;F;3;2;3;1;Extra4;0;None;71;70;71;0;70;70;70;;;;;;;;;;;;;;;;;;;;;;;379.7595747001469;380.97503460012376;380.97503460012376;380.97503460012376;380.97503460012376;380.97503460012376;380.97503460012376;380.97503460012376;380.97503460012376;['t', 'r', 'o', 'n', 'c', 'o'];0;[1.4013322992250323, 1.4569811997935176, 1.582562199793756, 1.7189139993861318, 1.8886468997225165, 1.9851426994428039];tronco;C:\2023\REPSWITCH21092023\REPSWITCH_excgange\REPSWITCH_excgange\data/450103_REPSWITCH1_version1_list3_2024-01-23_17h26.29.086_micRespv1l3_recorded\recording_micRespv1l3_2024-01-23_17h32.25.542.wav;383.99621890019625;384.4963950002566;None;383.99621890019625;383.99621890019625;383.99621890019625;383.99621890019625;383.99621890019625;383.99621890019625;;;;;;450103;001;2024-01-23_17h26.29.086;REPSWITCH1_version1_list3;2022.2.4;144.05174445139983;
REPSWITCH1/PICTURE_35.png;oreja;type;darkblue;nontarget;1;NT;3;2;3;1;Stim5_Set3;1;repeat;72;71;72;0;71;71;71;;;;;;;;;;;;;;;;;;;;;;;384.4963950002566;385.60061370022595;385.60061370022595;385.60061370022595;385.60061370022595;385.60061370022595;385.60061370022595;385.60061370022595;385.60061370022595;['o', 'r', 'e', 'j', 'a'];0;[0.7369405003264546, 0.8459807001054287, 0.9213244998827577, 1.1067388001829386, 1.1795028997585177];oreja;C:\2023\REPSWITCH21092023\REPSWITCH_excgange\REPSWITCH_excgange\data/450103_REPSWITCH1_version1_list3_2024-01-23_17h26.29.086_micRespv1l3_recorded\recording_micRespv1l3_2024-01-23_17h32.30.166.wav;388.62184150051326;389.12199360039085;None;388.62184150051326;388.62184150051326;388.62184150051326;388.62184150051326;388.62184150051326;388.62184150051326;;;;;;450103;001;2024-01-23_17h26.29.086;REPSWITCH1_version1_list3;2022.2.4;144.05174445139983;
REPSWITCH1/PICTURE_35.png;oreja;type;darkblue;repeat;1;T;3;2;3;1;Stim5_Set3;0;None;73;72;73;0;72;72;72;;;;;;;;;;;;;;;;;;;;;;;389.12199360039085;390.22624810039997;390.22624810039997;390.22624810039997;390.22624810039997;390.22624810039997;390.22624810039997;390.22624810039997;390.22624810039997;['o', 'r', 'e', 'j', 'a'];0;[0.8451819997280836, 0.9428679998964071, 0.98674859944731, 1.110411299392581, 1.173072999343276];oreja;C:\2023\REPSWITCH21092023\REPSWITCH_excgange\REPSWITCH_excgange\data/450103_REPSWITCH1_version1_list3_2024-01-23_17h26.29.086_micRespv1l3_recorded\recording_micRespv1l3_2024-01-23_17h32.34.793.wav;393.25438529998064;;None;393.25438529998064;393.25438529998064;393.25438529998064;393.25438529998064;393.25438529998064;393.25438529998064;;;;;;450103;001;2024-01-23_17h26.29.086;REPSWITCH1_version1_list3;2022.2.4;144.05174445139983;
REPSWITCH1/PICTURE_199.png;falda;speak;gold;filler;2;F;3;2;3;1;Stim8_Set2;0;None;74;73;74;0;73;73;73;;;;;;;;;;;;;;;;;;;;;;;393.7544649001211;394.86579459998757;394.86579459998757;394.86579459998757;394.86579459998757;394.86579459998757;394.86579459998757;394.86579459998757;394.86579459998757;None;0;;;C:\2023\REPSWITCH21092023\REPSWITCH_excgange\REPSWITCH_excgange\data/450103_REPSWITCH1_version1_list3_2024-01-23_17h26.29.086_micRespv1l3_recorded\recording_micRespv1l3_2024-01-23_17h32.39.432.wav;397.8869716003537;398.38701430056244;None;397.8869716003537;397.8869716003537;397.8869716003537;397.8869716003537;397.8869716003537;397.8869716003537;;;;;;450103;001;2024-01-23_17h26.29.086;REPSWITCH1_version1_list3;2022.2.4;144.05174445139983;
REPSWITCH1/PICTURE_610.png;miel;type;darkblue;nontarget;1;NT;3;2;3;1;Stim2_Set3;1;switch;75;74;75;0;74;74;74;;;;;;;;;;;;;;;;;;;;;;;398.38701430056244;399.4843792999163;399.4843792999163;399.4843792999163;399.4843792999163;399.4843792999163;399.4843792999163;399.4843792999163;399.4843792999163;['m', 'i', 'l', 'backspace', 'e', 'l'];0;[1.0382970999926329, 1.1549040991812944, 1.371178399771452, 1.781798199750483, 1.875429599545896, 2.0289264991879463];miel;C:\2023\REPSWITCH21092023\REPSWITCH_excgange\REPSWITCH_excgange\data/450103_REPSWITCH1_version1_list3_2024-01-23_17h26.29.086_micRespv1l3_recorded\recording_micRespv1l3_2024-01-23_17h32.44.051.wav;402.51257140003145;;None;402.51257140003145;402.51257140003145;402.51257140003145;402.51257140003145;402.51257140003145;402.51257140003145;;;;;;450103;001;2024-01-23_17h26.29.086;REPSWITCH1_version1_list3;2022.2.4;144.05174445139983;
REPSWITCH1/PICTURE_610.png;miel;type;darkblue;repeat;1;T;3;2;3;1;Stim2_Set3;0;None;76;75;76;0;75;75;75;;;;;;;;;;;;;;;;;;;;;;;403.01263529993594;404.1447522006929;404.1447522006929;404.1447522006929;404.1447522006929;404.1447522006929;404.1447522006929;404.1447522006929;404.1447522006929;['m', 'i', 'e', 'l'];0;[0.6920837005600333, 0.7738433005288243, 0.8804847998544574, 0.9961037002503872];miel;C:\2023\REPSWITCH21092023\REPSWITCH_excgange\REPSWITCH_excgange\data/450103_REPSWITCH1_version1_list3_2024-01-23_17h26.29.086_micRespv1l3_recorded\recording_micRespv1l3_2024-01-23_17h32.48.711.wav;407.17290570028126;;None;407.17290570028126;407.17290570028126;407.17290570028126;407.17290570028126;407.17290570028126;407.17290570028126;;;;;;450103;001;2024-01-23_17h26.29.086;REPSWITCH1_version1_list3;2022.2.4;144.05174445139983;
REPSWITCH1/PICTURE_264.png;mano;type;darkblue;filler;1;F;3;2;3;1;Stim3_Set2;1;repeat;77;76;77;0;76;76;76;;;;;;;;;;;;;;;;;;;;;;;407.6729685999453;408.9231553003192;408.9231553003192;408.9231553003192;408.9231553003192;408.9231553003192;408.9231553003192;408.9231553003192;408.9231553003192;['m', 'a', 'n', 'o'];0;[0.6421905001625419, 0.7328645000234246, 0.8474423000589013, 0.9421552000567317];mano;C:\2023\REPSWITCH21092023\REPSWITCH_excgange\REPSWITCH_excgange\data/450103_REPSWITCH1_version1_list3_2024-01-23_17h26.29.086_micRespv1l3_recorded\recording_micRespv1l3_2024-01-23_17h32.53.489.wav;411.94445060007274;412.4444329999387;None;411.94445060007274;411.94445060007274;411.94445060007274;411.94445060007274;411.94445060007274;411.94445060007274;;;;;;450103;001;2024-01-23_17h26.29.086;REPSWITCH1_version1_list3;2022.2.4;144.05174445139983;
REPSWITCH1/PICTURE_464.png;goma;speak;gold;filler;2;F;4;2;3;1;Stim6_Set3;0;None;78;77;78;0;77;77;77;;;;;;;;;;;;;;;;;;;;;;;412.4444329999387;413.4862601002678;413.4862601002678;413.4862601002678;413.4862601002678;413.4862601002678;413.4862601002678;413.4862601002678;413.4862601002678;None;0;;;C:\2023\REPSWITCH21092023\REPSWITCH_excgange\REPSWITCH_excgange\data/450103_REPSWITCH1_version1_list3_2024-01-23_17h26.29.086_micRespv1l3_recorded\recording_micRespv1l3_2024-01-23_17h32.58.052.wav;416.50745709985495;417.00760710053146;None;416.50745709985495;416.50745709985495;416.50745709985495;416.50745709985495;416.50745709985495;416.50745709985495;;;;;;450103;001;2024-01-23_17h26.29.086;REPSWITCH1_version1_list3;2022.2.4;144.05174445139983;
REPSWITCH1/PICTURE_8.png;pierna;type;darkblue;nontarget;1;NT;4;2;3;1;Stim3_Set4;1;switch;79;78;79;0;78;78;78;;;;;;;;;;;;;;;;;;;;;;;417.00760710053146;418.0632191002369;418.0632191002369;418.0632191002369;418.0632191002369;418.0632191002369;418.0632191002369;418.0632191002369;418.0632191002369;['p', 'i', 'e', 'r', 'n', 'a'];0;[0.8623206000775099, 0.9559480994939804, 1.065540499985218, 1.159269300289452, 1.2927868999540806, 1.363582500256598];pierna;C:\2023\REPSWITCH21092023\REPSWITCH_excgange\REPSWITCH_excgange\data/450103_REPSWITCH1_version1_list3_2024-01-23_17h26.29.086_micRespv1l3_recorded\recording_micRespv1l3_2024-01-23_17h33.02.629.wav;421.08446309994906;421.5845122002065;None;421.08446309994906;421.08446309994906;421.08446309994906;421.08446309994906;421.08446309994906;421.08446309994906;;;;;;450103;001;2024-01-23_17h26.29.086;REPSWITCH1_version1_list3;2022.2.4;144.05174445139983;
REPSWITCH1/PICTURE_8.png;pierna;type;darkblue;repeat;1;T;4;2;3;1;Stim3_Set4;0;None;80;79;80;0;79;79;79;;;;;;;;;;;;;;;;;;;;;;;421.5845122002065;422.7652187002823;422.7652187002823;422.7652187002823;422.7652187002823;422.7652187002823;422.7652187002823;422.7652187002823;422.7652187002823;['p', 'i', 'e', 'r', 'n', 'a'];0;[0.6150227999314666, 0.7279111994430423, 0.821195799857378, 0.9308156995102763, 1.0455914996564388, 1.1107195997610688];pierna;C:\2023\REPSWITCH21092023\REPSWITCH_excgange\REPSWITCH_excgange\data/450103_REPSWITCH1_version1_list3_2024-01-23_17h26.29.086_micRespv1l3_recorded\recording_micRespv1l3_2024-01-23_17h33.07.332.wav;425.7864402998239;426.2866079006344;None;425.7864402998239;425.7864402998239;425.7864402998239;425.7864402998239;425.7864402998239;425.7864402998239;;;;;;450103;001;2024-01-23_17h26.29.086;REPSWITCH1_version1_list3;2022.2.4;144.05174445139983;
REPSWITCH1/PICTURE_728.png;pulpo;type;darkblue;nontarget;1;NT;4;2;3;1;Stim8_Set4;1;repeat;81;80;81;0;80;80;80;;;;;;;;;;;;;;;;;;;;;;;426.2866079006344;427.44642760045826;427.44642760045826;427.44642760045826;427.44642760045826;427.44642760045826;427.44642760045826;427.44642760045826;427.44642760045826;['p', 'u', 'l', 'p', 'o'];0;[0.7040053997188807, 0.8465272998437285, 1.1187958996742964, 1.4919503992423415, 1.5879246992990375];pulpo;C:\2023\REPSWITCH21092023\REPSWITCH_excgange\REPSWITCH_excgange\data/450103_REPSWITCH1_version1_list3_2024-01-23_17h26.29.086_micRespv1l3_recorded\recording_micRespv1l3_2024-01-23_17h33.12.013.wav;430.46765000000596;430.9677386004478;None;430.46765000000596;430.46765000000596;430.46765000000596;430.46765000000596;430.46765000000596;430.46765000000596;;;;;;450103;001;2024-01-23_17h26.29.086;REPSWITCH1_version1_list3;2022.2.4;144.05174445139983;
REPSWITCH1/PICTURE_728.png;pulpo;speak;gold;switch;2;T;4;2;3;1;Stim8_Set4;0;None;82;81;82;0;81;81;81;;;;;;;;;;;;;;;;;;;;;;;430.9677386004478;432.00256340019405;432.00256340019405;432.00256340019405;432.00256340019405;432.00256340019405;432.00256340019405;432.00256340019405;432.00256340019405;None;0;;;C:\2023\REPSWITCH21092023\REPSWITCH_excgange\REPSWITCH_excgange\data/450103_REPSWITCH1_version1_list3_2024-01-23_17h26.29.086_micRespv1l3_recorded\recording_micRespv1l3_2024-01-23_17h33.16.568.wav;435.02383000031114;435.52381960023195;None;435.02383000031114;435.02383000031114;435.02383000031114;435.02383000031114;435.02383000031114;435.02383000031114;;;;;;450103;001;2024-01-23_17h26.29.086;REPSWITCH1_version1_list3;2022.2.4;144.05174445139983;
REPSWITCH1/PICTURE_235.png;aguja;type;darkblue;filler;1;F;4;2;3;1;Stim4_Set3;0;None;83;82;83;0;82;82;82;;;;;;;;;;;;;;;;;;;;;;;435.52381960023195;436.6003878004849;436.6003878004849;436.6003878004849;436.6003878004849;436.6003878004849;436.6003878004849;436.6003878004849;436.6003878004849;['a', 'g', 'u', 'j', 'a'];0;[0.8339539002627134, 1.0095154996961355, 1.1002011997625232, 1.2995413998141885, 1.349345300346613];aguja;C:\2023\REPSWITCH21092023\REPSWITCH_excgange\REPSWITCH_excgange\data/450103_REPSWITCH1_version1_list3_2024-01-23_17h26.29.086_micRespv1l3_recorded\recording_micRespv1l3_2024-01-23_17h33.21.167.wav;439.6285589002073;;None;439.6285589002073;439.6285589002073;439.6285589002073;439.6285589002073;439.6285589002073;439.6285589002073;;;;;;450103;001;2024-01-23_17h26.29.086;REPSWITCH1_version1_list3;2022.2.4;144.05174445139983;
REPSWITCH1/PICTURE_498.png;taza;speak;gold;nontarget;2;NT;4;2;3;1;Stim4_Set4;1;switch;84;83;84;0;83;83;83;;;;;;;;;;;;;;;;;;;;;;;440.12861980032176;441.24686160031706;441.24686160031706;441.24686160031706;441.24686160031706;441.24686160031706;441.24686160031706;441.24686160031706;441.24686160031706;None;0;;;C:\2023\REPSWITCH21092023\REPSWITCH_excgange\REPSWITCH_excgange\data/450103_REPSWITCH1_version1_list3_2024-01-23_17h26.29.086_micRespv1l3_recorded\recording_micRespv1l3_2024-01-23_17h33.25.813.wav;444.26812190003693;444.76812539994717;None;444.26812190003693;444.26812190003693;444.26812190003693;444.26812190003693;444.26812190003693;444.26812190003693;;;;;;450103;001;2024-01-23_17h26.29.086;REPSWITCH1_version1_list3;2022.2.4;144.05174445139983;
REPSWITCH1/PICTURE_498.png;taza;speak;gold;repeat;2;T;4;2;3;1;Stim4_Set4;0;None;85;84;85;0;84;84;84;;;;;;;;;;;;;;;;;;;;;;;444.76812539994717;445.81694759987295;445.81694759987295;445.81694759987295;445.81694759987295;445.81694759987295;445.81694759987295;445.81694759987295;445.81694759987295;None;0;;;C:\2023\REPSWITCH21092023\REPSWITCH_excgange\REPSWITCH_excgange\data/450103_REPSWITCH1_version1_list3_2024-01-23_17h26.29.086_micRespv1l3_recorded\recording_micRespv1l3_2024-01-23_17h33.30.383.wav;448.8381088003516;449.33816650044173;None;448.8381088003516;448.8381088003516;448.8381088003516;448.8381088003516;448.8381088003516;448.8381088003516;;;;;;450103;001;2024-01-23_17h26.29.086;REPSWITCH1_version1_list3;2022.2.4;144.05174445139983;
REPSWITCH1/PICTURE_719.png;baño;speak;gold;nontarget;2;NT;4;2;3;1;Stim2_Set4;0;None;86;85;86;0;85;85;85;;;;;;;;;;;;;;;;;;;;;;;449.33816650044173;450.4355765003711;450.4355765003711;450.4355765003711;450.4355765003711;450.4355765003711;450.4355765003711;450.4355765003711;450.4355765003711;None;0;;;C:\2023\REPSWITCH21092023\REPSWITCH_excgange\REPSWITCH_excgange\data/450103_REPSWITCH1_version1_list3_2024-01-23_17h26.29.086_micRespv1l3_recorded\recording_micRespv1l3_2024-01-23_17h33.35.002.wav;453.45678330026567;453.9568101000041;None;453.45678330026567;453.45678330026567;453.45678330026567;453.45678330026567;453.45678330026567;453.45678330026567;;;;;;450103;001;2024-01-23_17h26.29.086;REPSWITCH1_version1_list3;2022.2.4;144.05174445139983;
REPSWITCH1/PICTURE_719.png;baño;type;darkblue;switch;1;T;4;2;3;1;Stim2_Set4;0;None;87;86;87;0;86;86;86;;;;;;;;;;;;;;;;;;;;;;;453.9568101000041;455.1097469003871;455.1097469003871;455.1097469003871;455.1097469003871;455.1097469003871;455.1097469003871;455.1097469003871;455.1097469003871;['b', 'a', 'ñ', 'o'];0;[0.9665695996955037, 1.0642382996156812, 1.1967997997999191, 1.3031663000583649];baño;C:\2023\REPSWITCH21092023\REPSWITCH_excgange\REPSWITCH_excgange\data/450103_REPSWITCH1_version1_list3_2024-01-23_17h26.29.086_micRespv1l3_recorded\recording_micRespv1l3_2024-01-23_17h33.39.676.wav;458.131027600728;458.63106100074947;None;458.131027600728;458.131027600728;458.131027600728;458.131027600728;458.131027600728;458.131027600728;;;;;;450103;001;2024-01-23_17h26.29.086;REPSWITCH1_version1_list3;2022.2.4;144.05174445139983;
REPSWITCH1/PICTURE_320.png;iglesia;speak;gold;filler;2;F;4;2;3;1;Stim8_Set3;0;None;88;87;88;0;87;87;87;;;;;;;;;;;;;;;;;;;;;;;458.63106100074947;459.6659078998491;459.6659078998491;459.6659078998491;459.6659078998491;459.6659078998491;459.6659078998491;459.6659078998491;459.6659078998491;None;0;;;C:\2023\REPSWITCH21092023\REPSWITCH_excgange\REPSWITCH_excgange\data/450103_REPSWITCH1_version1_list3_2024-01-23_17h26.29.086_micRespv1l3_recorded\recording_micRespv1l3_2024-01-23_17h33.44.232.wav;462.6871520001441;463.18723409995437;None;462.6871520001441;462.6871520001441;462.6871520001441;462.6871520001441;462.6871520001441;462.6871520001441;;;;;;450103;001;2024-01-23_17h26.29.086;REPSWITCH1_version1_list3;2022.2.4;144.05174445139983;
REPSWITCH1/PICTURE_48.png;bombero;type;darkblue;nontarget;1;NT;4;2;3;1;Stim7_Set4;1;switch;89;88;89;0;88;88;88;;;;;;;;;;;;;;;;;;;;;;;463.18723409995437;464.24290470033884;464.24290470033884;464.24290470033884;464.24290470033884;464.24290470033884;464.24290470033884;464.24290470033884;464.24290470033884;['b', 'o', 'm', 'b', 'e', 'r', 'o'];0;[0.9727355996146798, 1.0973437996581197, 1.2039751000702381, 1.5531550999730825, 1.7964049000293016, 1.8402618998661637, 1.9382432997226715];bombero;C:\2023\REPSWITCH21092023\REPSWITCH_excgange\REPSWITCH_excgange\data/450103_REPSWITCH1_version1_list3_2024-01-23_17h26.29.086_micRespv1l3_recorded\recording_micRespv1l3_2024-01-23_17h33.48.810.wav;467.2641015006229;467.76420310046524;None;467.2641015006229;467.2641015006229;467.2641015006229;467.2641015006229;467.2641015006229;467.2641015006229;;;;;;450103;001;2024-01-23_17h26.29.086;REPSWITCH1_version1_list3;2022.2.4;144.05174445139983;
REPSWITCH1/PICTURE_48.png;bombero;speak;gold;switch;2;T;4;2;3;1;Stim7_Set4;0;None;90;89;90;0;89;89;89;;;;;;;;;;;;;;;;;;;;;;;467.76420310046524;468.8546032998711;468.8546032998711;468.8546032998711;468.8546032998711;468.8546032998711;468.8546032998711;468.8546032998711;468.8546032998711;None;0;;;C:\2023\REPSWITCH21092023\REPSWITCH_excgange\REPSWITCH_excgange\data/450103_REPSWITCH1_version1_list3_2024-01-23_17h26.29.086_micRespv1l3_recorded\recording_micRespv1l3_2024-01-23_17h33.53.422.wav;471.87589980009943;472.3759267004207;None;471.87589980009943;471.87589980009943;471.87589980009943;471.87589980009943;471.87589980009943;471.87589980009943;;;;;;450103;001;2024-01-23_17h26.29.086;REPSWITCH1_version1_list3;2022.2.4;144.05174445139983;
REPSWITCH1/PICTURE_576.png;guante;type;darkblue;filler;1;F;4;2;3;1;Stim1_Set3;0;None;91;90;91;0;90;90;90;;;;;;;;;;;;;;;;;;;;;;;472.3759267004207;473.4594449000433;473.4594449000433;473.4594449000433;473.4594449000433;473.4594449000433;473.4594449000433;473.4594449000433;473.4594449000433;['g', 'u', 'a', 'n', 't', 'e'];0;[1.0969585003331304, 1.1796730002388358, 1.249418499879539, 1.4145857002586126, 1.4992542006075382, 1.5472001004964113];guante;C:\2023\REPSWITCH21092023\REPSWITCH_excgange\REPSWITCH_excgange\data/450103_REPSWITCH1_version1_list3_2024-01-23_17h26.29.086_micRespv1l3_recorded\recording_micRespv1l3_2024-01-23_17h33.58.025.wav;476.4806046001613;476.98065400030464;None;476.4806046001613;476.4806046001613;476.4806046001613;476.4806046001613;476.4806046001613;476.4806046001613;;;;;;450103;001;2024-01-23_17h26.29.086;REPSWITCH1_version1_list3;2022.2.4;144.05174445139983;
REPSWITCH1/PICTURE_271.png;conejo;speak;gold;filler;2;F;4;2;3;1;Stim7_Set3;0;None;92;91;92;0;91;91;91;;;;;;;;;;;;;;;;;;;;;;;476.98065400030464;478.06416210066527;478.06416210066527;478.06416210066527;478.06416210066527;478.06416210066527;478.06416210066527;478.06416210066527;478.06416210066527;None;0;;;C:\2023\REPSWITCH21092023\REPSWITCH_excgange\REPSWITCH_excgange\data/450103_REPSWITCH1_version1_list3_2024-01-23_17h26.29.086_micRespv1l3_recorded\recording_micRespv1l3_2024-01-23_17h34.02.632.wav;481.09234860073775;481.5924812005833;None;481.09234860073775;481.09234860073775;481.09234860073775;481.09234860073775;481.09234860073775;481.09234860073775;;;;;;450103;001;2024-01-23_17h26.29.086;REPSWITCH1_version1_list3;2022.2.4;144.05174445139983;
REPSWITCH1/PICTURE_319.png;vaca;speak;gold;nontarget;2;NT;4;2;3;1;Stim1_Set4;1;repeat;93;92;93;0;92;92;92;;;;;;;;;;;;;;;;;;;;;;;481.5924812005833;482.7106394004077;482.7106394004077;482.7106394004077;482.7106394004077;482.7106394004077;482.7106394004077;482.7106394004077;482.7106394004077;None;0;;;C:\2023\REPSWITCH21092023\REPSWITCH_excgange\REPSWITCH_excgange\data/450103_REPSWITCH1_version1_list3_2024-01-23_17h26.29.086_micRespv1l3_recorded\recording_micRespv1l3_2024-01-23_17h34.07.277.wav;485.7318828003481;486.2319082999602;None;485.7318828003481;485.7318828003481;485.7318828003481;485.7318828003481;485.7318828003481;485.7318828003481;;;;;;450103;001;2024-01-23_17h26.29.086;REPSWITCH1_version1_list3;2022.2.4;144.05174445139983;
REPSWITCH1/PICTURE_319.png;vaca;speak;gold;repeat;2;T;4;2;3;1;Stim1_Set4;0;None;94;93;94;0;93;93;93;;;;;;;;;;;;;;;;;;;;;;;486.2319082999602;487.35703640058637;487.35703640058637;487.35703640058637;487.35703640058637;487.35703640058637;487.35703640058637;487.35703640058637;487.35703640058637;None;0;;;C:\2023\REPSWITCH21092023\REPSWITCH_excgange\REPSWITCH_excgange\data/450103_REPSWITCH1_version1_list3_2024-01-23_17h26.29.086_micRespv1l3_recorded\recording_micRespv1l3_2024-01-23_17h34.11.922.wav;490.3783659003675;490.8784297006205;None;490.3783659003675;490.3783659003675;490.3783659003675;490.3783659003675;490.3783659003675;490.3783659003675;;;;;;450103;001;2024-01-23_17h26.29.086;REPSWITCH1_version1_list3;2022.2.4;144.05174445139983;
REPSWITCH1/PICTURE_242.png;cartero;type;darkblue;filler;1;F;4;2;3;1;Stim3_Set3;0;None;95;94;95;0;94;94;94;;;;;;;;;;;;;;;;;;;;;;;490.8784297006205;492.0034880004823;492.0034880004823;492.0034880004823;492.0034880004823;492.0034880004823;492.0034880004823;492.0034880004823;492.0034880004823;['c', 'a', 'r', 't', 'e', 'r', 'o'];0;[0.9390505999326706, 1.0207716999575496, 1.2718631997704506, 1.48512339964509, 1.5558912996202707, 1.716350699774921, 1.8282149992883205];cartero;C:\2023\REPSWITCH21092023\REPSWITCH_excgange\REPSWITCH_excgange\data/450103_REPSWITCH1_version1_list3_2024-01-23_17h26.29.086_micRespv1l3_recorded\recording_micRespv1l3_2024-01-23_17h34.16.570.wav;495.02469540014863;495.5247718002647;None;495.02469540014863;495.02469540014863;495.02469540014863;495.02469540014863;495.02469540014863;495.02469540014863;;;;;;450103;001;2024-01-23_17h26.29.086;REPSWITCH1_version1_list3;2022.2.4;144.05174445139983;
REPSWITCH1/PICTURE_35.png;oreja;speak;gold;filler;2;F;4;2;3;1;Stim5_Set3;1;switch;96;95;96;0;95;95;95;;;;;;;;;;;;;;;;;;;;;;;495.5247718002647;496.6568700000644;496.6568700000644;496.6568700000644;496.6568700000644;496.6568700000644;496.6568700000644;496.6568700000644;496.6568700000644;None;0;;;C:\2023\REPSWITCH21092023\REPSWITCH_excgange\REPSWITCH_excgange\data/450103_REPSWITCH1_version1_list3_2024-01-23_17h26.29.086_micRespv1l3_recorded\recording_micRespv1l3_2024-01-23_17h34.21.224.wav;499.6850666999817;;None;499.6850666999817;499.6850666999817;499.6850666999817;499.6850666999817;499.6850666999817;499.6850666999817;;;;;;450103;001;2024-01-23_17h26.29.086;REPSWITCH1_version1_list3;2022.2.4;144.05174445139983;
REPSWITCH1/PICTURE_338.png;regalo;speak;gold;nontarget;2;NT;4;2;3;1;Stim6_Set4;1;repeat;97;96;97;0;96;96;96;;;;;;;;;;;;;;;;;;;;;;;500.1851142998785;501.2755719004199;501.2755719004199;501.2755719004199;501.2755719004199;501.2755719004199;501.2755719004199;501.2755719004199;501.2755719004199;None;0;;;C:\2023\REPSWITCH21092023\REPSWITCH_excgange\REPSWITCH_excgange\data/450103_REPSWITCH1_version1_list3_2024-01-23_17h26.29.086_micRespv1l3_recorded\recording_micRespv1l3_2024-01-23_17h34.25.842.wav;504.29678820073605;504.7968244999647;None;504.29678820073605;504.29678820073605;504.29678820073605;504.29678820073605;504.29678820073605;504.29678820073605;;;;;;450103;001;2024-01-23_17h26.29.086;REPSWITCH1_version1_list3;2022.2.4;144.05174445139983;
REPSWITCH1/PICTURE_338.png;regalo;type;darkblue;switch;1;T;4;2;3;1;Stim6_Set4;0;None;98;97;98;0;97;97;97;;;;;;;;;;;;;;;;;;;;;;;504.7968244999647;505.8386682998389;505.8386682998389;505.8386682998389;505.8386682998389;505.8386682998389;505.8386682998389;505.8386682998389;505.8386682998389;['r', 'e', 'g', 'a', 'l', 'o'];0;[0.6562881004065275, 0.7180789997801185, 0.9648909000679851, 1.041617900133133, 1.1512750005349517, 1.326668900437653];regalo;C:\2023\REPSWITCH21092023\REPSWITCH_excgange\REPSWITCH_excgange\data/450103_REPSWITCH1_version1_list3_2024-01-23_17h26.29.086_micRespv1l3_recorded\recording_micRespv1l3_2024-01-23_17h34.30.405.wav;508.86680120043457;;None;508.86680120043457;508.86680120043457;508.86680120043457;508.86680120043457;508.86680120043457;508.86680120043457;;;;;;450103;001;2024-01-23_17h26.29.086;REPSWITCH1_version1_list3;2022.2.4;144.05174445139983;
REPSWITCH1/PICTURE_687.png;camisa;type;darkblue;nontarget;1;NT;4;2;3;1;Stim5_Set4;0;None;99;98;99;0;98;98;98;;;;;;;;;;;;;;;;;;;;;;;509.36696030013263;510.5753661999479;510.5753661999479;510.5753661999479;510.5753661999479;510.5753661999479;510.5753661999479;510.5753661999479;510.5753661999479;['c', 'a', 'm', 'i', 's', 'a'];0;[0.8846199996769428, 0.9603291992098093, 1.0821821996942163, 1.1619152994826436, 1.228750399313867, 1.2992159994319081];camisa;C:\2023\REPSWITCH21092023\REPSWITCH_excgange\REPSWITCH_excgange\data/450103_REPSWITCH1_version1_list3_2024-01-23_17h26.29.086_micRespv1l3_recorded\recording_micRespv1l3_2024-01-23_17h34.35.142.wav;513.6035639001057;;None;513.6035639001057;513.6035639001057;513.6035639001057;513.6035639001057;513.6035639001057;513.6035639001057;;;;;;450103;001;2024-01-23_17h26.29.086;REPSWITCH1_version1_list3;2022.2.4;144.05174445139983;
REPSWITCH1/PICTURE_687.png;camisa;type;darkblue;repeat;1;T;4;2;3;1;Stim5_Set4;0;None;100;99;100;0;99;99;99;;;;;;;;;;;;;;;;;;;;;;;514.1036041006446;515.2218924006447;515.2218924006447;515.2218924006447;515.2218924006447;515.2218924006447;515.2218924006447;515.2218924006447;515.2218924006447;['c', 'a', 'm', 'i', 's', 'a'];0;[0.6419473998248577, 0.7207845998927951, 0.8715423997491598, 0.9472834002226591, 1.0270341001451015, 1.08687589969486];camisa;C:\2023\REPSWITCH21092023\REPSWITCH_excgange\REPSWITCH_excgange\data/450103_REPSWITCH1_version1_list3_2024-01-23_17h26.29.086_micRespv1l3_recorded\recording_micRespv1l3_2024-01-23_17h34.39.788.wav;518.2430437998846;518.7431102003902;None;518.2430437998846;518.2430437998846;518.2430437998846;518.2430437998846;518.2430437998846;518.2430437998846;;;;;;450103;001;2024-01-23_17h26.29.086;REPSWITCH1_version1_list3;2022.2.4;144.05174445139983;
REPSWITCH1/PICTURE_340.png;espejo;speak;gold;filler;2;F;4;2;3;1;Extra1;0;None;101;100;101;0;100;100;100;;;;;;;;;;;;;;;;;;;;;;;518.7431102003902;519.8335720002651;519.8335720002651;519.8335720002651;519.8335720002651;519.8335720002651;519.8335720002651;519.8335720002651;519.8335720002651;None;0;;;C:\2023\REPSWITCH21092023\REPSWITCH_excgange\REPSWITCH_excgange\data/450103_REPSWITCH1_version1_list3_2024-01-23_17h26.29.086_micRespv1l3_recorded\recording_micRespv1l3_2024-01-23_17h34.44.401.wav;522.8616794999689;;None;522.8616794999689;522.8616794999689;522.8616794999689;522.8616794999689;522.8616794999689;522.8616794999689;;;;;;450103;001;2024-01-23_17h26.29.086;REPSWITCH1_version1_list3;2022.2.4;144.05174445139983;
REPSWITCH1/PICTURE_610.png;miel;type;darkblue;filler;1;F;4;2;3;1;Stim2_Set3;0;None;102;101;102;0;101;101;101;;;;;;;;;;;;;;;;;;;;;;;523.3617598004639;524.4869370004162;524.4869370004162;524.4869370004162;524.4869370004162;524.4869370004162;524.4869370004162;524.4869370004162;524.4869370004162;['m', 'i', 'e', 'l'];0;[1.2217322997748852, 1.3221187992021441, 1.4273287998512387, 1.5080432994291186];miel;C:\2023\REPSWITCH21092023\REPSWITCH_excgange\REPSWITCH_excgange\data/450103_REPSWITCH1_version1_list3_2024-01-23_17h26.29.086_micRespv1l3_recorded\recording_micRespv1l3_2024-01-23_17h34.49.054.wav;527.5081680007279;528.0082355998456;space;527.5081680007279;527.5081680007279;527.5081680007279;527.5081680007279;527.5081680007279;527.5081680007279;528.0082355998456;528.0082355998456;7.854457099922001;;;450103;001;2024-01-23_17h26.29.086;REPSWITCH1_version1_list3;2022.2.4;144.05174445139983;
REPSWITCH1/PICTURE_8.png;pierna;type;darkblue;filler;1;F;1;4;3;1;Stim3_Set4;0;None;103;102;1;0;102;102;102;;;;;;;;;;;;;;;;;;;;;;;535.8703754004091;536.9817081000656;536.9817081000656;536.9817081000656;536.9817081000656;536.9817081000656;536.9817081000656;536.9817081000656;536.9817081000656;['p', 'i', 'e', 'r', 'n', 'a'];0;[0.7961766002699733, 0.8639061003923416, 0.9628322003409266, 1.040634199976921, 1.1555379005149007, 1.181444300338626];pierna;C:\2023\REPSWITCH21092023\REPSWITCH_excgange\REPSWITCH_excgange\data/450103_REPSWITCH1_version1_list3_2024-01-23_17h26.29.086_micRespv1l3_recorded\recording_micRespv1l3_2024-01-23_17h35.01.548.wav;540.0028653005138;540.5029258001596;None;540.0028653005138;540.0028653005138;540.0028653005138;540.0028653005138;540.0028653005138;540.0028653005138;;;;;;450103;001;2024-01-23_17h26.29.086;REPSWITCH1_version1_list3;2022.2.4;144.05174445139983;
REPSWITCH1/PICTURE_498.png;taza;speak;gold;filler;2;F;1;4;3;1;Stim4_Set4;0;None;104;103;2;0;103;103;103;;;;;;;;;;;;;;;;;;;;;;;540.5029258001596;541.5586873004213;541.5586873004213;541.5586873004213;541.5586873004213;541.5586873004213;541.5586873004213;541.5586873004213;541.5586873004213;None;0;;;C:\2023\REPSWITCH21092023\REPSWITCH_excgange\REPSWITCH_excgange\data/450103_REPSWITCH1_version1_list3_2024-01-23_17h26.29.086_micRespv1l3_recorded\recording_micRespv1l3_2024-01-23_17h35.06.125.wav;544.5798345999792;545.0799906998873;None;544.5798345999792;544.5798345999792;544.5798345999792;544.5798345999792;544.5798345999792;544.5798345999792;;;;;;450103;001;2024-01-23_17h26.29.086;REPSWITCH1_version1_list3;2022.2.4;144.05174445139983;
REPSWITCH1/PICTURE_19.png;pavo;speak;gold;nontarget;2;NT;1;4;3;1;Stim5_Set1;1;repeat;105;104;3;0;104;104;104;;;;;;;;;;;;;;;;;;;;;;;545.0799906998873;546.2815217003226;546.2815217003226;546.2815217003226;546.2815217003226;546.2815217003226;546.2815217003226;546.2815217003226;546.2815217003226;None;0;;;C:\2023\REPSWITCH21092023\REPSWITCH_excgange\REPSWITCH_excgange\data/450103_REPSWITCH1_version1_list3_2024-01-23_17h26.29.086_micRespv1l3_recorded\recording_micRespv1l3_2024-01-23_17h35.10.848.wav;549.3096779007465;;None;549.3096779007465;549.3096779007465;549.3096779007465;549.3096779007465;549.3096779007465;549.3096779007465;;;;;;450103;001;2024-01-23_17h26.29.086;REPSWITCH1_version1_list3;2022.2.4;144.05174445139983;
REPSWITCH1/PICTURE_19.png;pavo;speak;gold;repeat;2;T;1;4;3;1;Stim5_Set1;0;None;106;105;4;0;105;105;105;;;;;;;;;;;;;;;;;;;;;;;549.8096807003021;551.0043413005769;551.0043413005769;551.0043413005769;551.0043413005769;551.0043413005769;551.0043413005769;551.0043413005769;551.0043413005769;None;0;;;C:\2023\REPSWITCH21092023\REPSWITCH_excgange\REPSWITCH_excgange\data/450103_REPSWITCH1_version1_list3_2024-01-23_17h26.29.086_micRespv1l3_recorded\recording_micRespv1l3_2024-01-23_17h35.15.571.wav;554.0324696004391;;None;554.0324696004391;554.0324696004391;554.0324696004391;554.0324696004391;554.0324696004391;554.0324696004391;;;;;;450103;001;2024-01-23_17h26.29.086;REPSWITCH1_version1_list3;2022.2.4;144.05174445139983;
REPSWITCH1/PICTURE_319.png;vaca;type;darkblue;filler;1;F;1;4;3;1;Stim1_Set4;1;repeat;107;106;5;0;106;106;106;;;;;;;;;;;;;;;;;;;;;;;554.5326180998236;555.6299048000947;555.6299048000947;555.6299048000947;555.6299048000947;555.6299048000947;555.6299048000947;555.6299048000947;555.6299048000947;['v', 'a', 'c', 'a'];0;[1.019573099911213, 1.0873432997614145, 1.2839770000427961, 1.3736443994566798];vaca;C:\2023\REPSWITCH21092023\REPSWITCH_excgange\REPSWITCH_excgange\data/450103_REPSWITCH1_version1_list3_2024-01-23_17h26.29.086_micRespv1l3_recorded\recording_micRespv1l3_2024-01-23_17h35.20.196.wav;558.6511478004977;559.1512147001922;None;558.6511478004977;558.6511478004977;558.6511478004977;558.6511478004977;558.6511478004977;558.6511478004977;;;;;;450103;001;2024-01-23_17h26.29.086;REPSWITCH1_version1_list3;2022.2.4;144.05174445139983;
REPSWITCH1/PICTURE_169.png;espalda;speak;gold;nontarget;2;NT;1;4;3;1;Stim8_Set1;1;switch;108;107;6;0;107;107;107;;;;;;;;;;;;;;;;;;;;;;;559.1512147001922;560.2833694005385;560.2833694005385;560.2833694005385;560.2833694005385;560.2833694005385;560.2833694005385;560.2833694005385;560.2833694005385;None;0;;;C:\2023\REPSWITCH21092023\REPSWITCH_excgange\REPSWITCH_excgange\data/450103_REPSWITCH1_version1_list3_2024-01-23_17h26.29.086_micRespv1l3_recorded\recording_micRespv1l3_2024-01-23_17h35.24.850.wav;563.3114793002605;;None;563.3114793002605;563.3114793002605;563.3114793002605;563.3114793002605;563.3114793002605;563.3114793002605;;;;;;450103;001;2024-01-23_17h26.29.086;REPSWITCH1_version1_list3;2022.2.4;144.05174445139983;
REPSWITCH1/PICTURE_169.png;espalda;speak;gold;repeat;2;T;1;4;3;1;Stim8_Set1;0;None;109;108;7;0;108;108;108;;;;;;;;;;;;;;;;;;;;;;;563.8116089003161;564.8603038005531;564.8603038005531;564.8603038005531;564.8603038005531;564.8603038005531;564.8603038005531;564.8603038005531;564.8603038005531;None;0;;;C:\2023\REPSWITCH21092023\REPSWITCH_excgange\REPSWITCH_excgange\data/450103_REPSWITCH1_version1_list3_2024-01-23_17h26.29.086_micRespv1l3_recorded\recording_micRespv1l3_2024-01-23_17h35.29.426.wav;567.8815287007019;568.3816518001258;None;567.8815287007019;567.8815287007019;567.8815287007019;567.8815287007019;567.8815287007019;567.8815287007019;;;;;;450103;001;2024-01-23_17h26.29.086;REPSWITCH1_version1_list3;2022.2.4;144.05174445139983;
REPSWITCH1/PICTURE_728.png;pulpo;type;darkblue;filler;1;F;1;4;3;1;Stim8_Set4;0;None;110;109;8;0;109;109;109;;;;;;;;;;;;;;;;;;;;;;;568.3816518001258;569.4442242002115;569.4442242002115;569.4442242002115;569.4442242002115;569.4442242002115;569.4442242002115;569.4442242002115;569.4442242002115;['p', 'u', 'l', 'p', 'o'];0;[0.730307100340724, 0.8346432996913791, 1.0685024997219443, 1.2698250003159046, 1.4126588003709912];pulpo;C:\2023\REPSWITCH21092023\REPSWITCH_excgange\REPSWITCH_excgange\data/450103_REPSWITCH1_version1_list3_2024-01-23_17h26.29.086_micRespv1l3_recorded\recording_micRespv1l3_2024-01-23_17h35.34.010.wav;572.4655162002891;572.965530000627;None;572.4655162002891;572.4655162002891;572.4655162002891;572.4655162002891;572.4655162002891;572.4655162002891;;;;;;450103;001;2024-01-23_17h26.29.086;REPSWITCH1_version1_list3;2022.2.4;144.05174445139983;
REPSWITCH1/PICTURE_142.png;vaso;speak;gold;nontarget;2;NT;1;4;3;1;Stim7_Set1;1;switch;111;110;9;0;110;110;110;;;;;;;;;;;;;;;;;;;;;;;572.965530000627;574.1254608007148;574.1254608007148;574.1254608007148;574.1254608007148;574.1254608007148;574.1254608007148;574.1254608007148;574.1254608007148;None;0;;;C:\2023\REPSWITCH21092023\REPSWITCH_excgange\REPSWITCH_excgange\data/450103_REPSWITCH1_version1_list3_2024-01-23_17h26.29.086_micRespv1l3_recorded\recording_micRespv1l3_2024-01-23_17h35.38.691.wav;577.1466128006577;577.6466739000753;None;577.1466128006577;577.1466128006577;577.1466128006577;577.1466128006577;577.1466128006577;577.1466128006577;;;;;;450103;001;2024-01-23_17h26.29.086;REPSWITCH1_version1_list3;2022.2.4;144.05174445139983;
REPSWITCH1/PICTURE_142.png;vaso;type;darkblue;switch;1;T;1;4;3;1;Stim7_Set1;0;None;112;111;10;0;111;111;111;;;;;;;;;;;;;;;;;;;;;;;577.6466739000753;578.7996132001281;578.7996132001281;578.7996132001281;578.7996132001281;578.7996132001281;578.7996132001281;578.7996132001281;578.7996132001281;['v', 'a', 's', 'o'];0;[0.8479867000132799, 0.9127784995362163, 1.10008529946208, 1.219666900113225];vaso;C:\2023\REPSWITCH21092023\REPSWITCH_excgange\REPSWITCH_excgange\data/450103_REPSWITCH1_version1_list3_2024-01-23_17h26.29.086_micRespv1l3_recorded\recording_micRespv1l3_2024-01-23_17h35.43.365.wav;581.8209372004494;582.3209170000628;None;581.8209372004494;581.8209372004494;581.8209372004494;581.8209372004494;581.8209372004494;581.8209372004494;;;;;;450103;001;2024-01-23_17h26.29.086;REPSWITCH1_version1_list3;2022.2.4;144.05174445139983;
REPSWITCH1/PICTURE_338.png;regalo;type;darkblue;filler;1;F;1;4;3;1;Stim6_Set4;1;repeat;113;112;11;0;112;112;112;;;;;;;;;;;;;;;;;;;;;;;582.3209170000628;583.3488512998447;583.3488512998447;583.3488512998447;583.3488512998447;583.3488512998447;583.3488512998447;583.3488512998447;583.3488512998447;['r', 'e', 'g', 'a', 'l', 'o'];0;[0.8172455998137593, 0.8889257991686463, 1.1044154996052384, 1.1900334991514683, 1.2697294997051358, 1.4494657991454005];regalo;C:\2023\REPSWITCH21092023\REPSWITCH_excgange\REPSWITCH_excgange\data/450103_REPSWITCH1_version1_list3_2024-01-23_17h26.29.086_micRespv1l3_recorded\recording_micRespv1l3_2024-01-23_17h35.47.916.wav;586.377084100619;586.8770547006279;None;586.377084100619;586.377084100619;586.377084100619;586.377084100619;586.377084100619;586.377084100619;;;;;;450103;001;2024-01-23_17h26.29.086;REPSWITCH1_version1_list3;2022.2.4;144.05174445139983;
REPSWITCH1/PICTURE_135.png;traje;type;darkblue;nontarget;1;NT;1;4;3;1;Stim3_Set1;1;repeat;114;113;12;0;113;113;113;;;;;;;;;;;;;;;;;;;;;;;586.8770547006279;587.9188822004944;587.9188822004944;587.9188822004944;587.9188822004944;587.9188822004944;587.9188822004944;587.9188822004944;587.9188822004944;['t', 'r', 'a', 'j', 'e'];0;[0.8388338992372155, 0.8915745997801423, 0.9748257994651794, 1.0914992997422814, 1.1900976998731494];traje;C:\2023\REPSWITCH21092023\REPSWITCH_excgange\REPSWITCH_excgange\data/450103_REPSWITCH1_version1_list3_2024-01-23_17h26.29.086_micRespv1l3_recorded\recording_micRespv1l3_2024-01-23_17h35.52.486.wav;590.9470859002322;;None;590.9470859002322;590.9470859002322;590.9470859002322;590.9470859002322;590.9470859002322;590.9470859002322;;;;;;450103;001;2024-01-23_17h26.29.086;REPSWITCH1_version1_list3;2022.2.4;144.05174445139983;
REPSWITCH1/PICTURE_135.png;traje;speak;gold;switch;2;T;1;4;3;1;Stim3_Set1;0;None;115;114;13;0;114;114;114;;;;;;;;;;;;;;;;;;;;;;;591.4471901999786;592.5376122007146;592.5376122007146;592.5376122007146;592.5376122007146;592.5376122007146;592.5376122007146;592.5376122007146;592.5376122007146;None;0;;;C:\2023\REPSWITCH21092023\REPSWITCH_excgange\REPSWITCH_excgange\data/450103_REPSWITCH1_version1_list3_2024-01-23_17h26.29.086_micRespv1l3_recorded\recording_micRespv1l3_2024-01-23_17h35.57.104.wav;595.5587515002117;596.0589121999219;None;595.5587515002117;595.5587515002117;595.5587515002117;595.5587515002117;595.5587515002117;595.5587515002117;;;;;;450103;001;2024-01-23_17h26.29.086;REPSWITCH1_version1_list3;2022.2.4;144.05174445139983;
REPSWITCH1/PICTURE_381.png;fresa;speak;gold;nontarget;2;NT;1;4;3;1;Stim2_Set1;1;repeat;116;115;14;0;115;115;115;;;;;;;;;;;;;;;;;;;;;;;596.0589121999219;597.1353762000799;597.1353762000799;597.1353762000799;597.1353762000799;597.1353762000799;597.1353762000799;597.1353762000799;597.1353762000799;None;0;;;C:\2023\REPSWITCH21092023\REPSWITCH_excgange\REPSWITCH_excgange\data/450103_REPSWITCH1_version1_list3_2024-01-23_17h26.29.086_micRespv1l3_recorded\recording_micRespv1l3_2024-01-23_17h36.01.702.wav;600.1566031007096;600.6566460002214;None;600.1566031007096;600.1566031007096;600.1566031007096;600.1566031007096;600.1566031007096;600.1566031007096;;;;;;450103;001;2024-01-23_17h26.29.086;REPSWITCH1_version1_list3;2022.2.4;144.05174445139983;
REPSWITCH1/PICTURE_381.png;fresa;type;darkblue;switch;1;T;1;4;3;1;Stim2_Set1;0;None;117;116;15;0;116;116;116;;;;;;;;;;;;;;;;;;;;;;;600.6566460002214;601.7124228999019;601.7124228999019;601.7124228999019;601.7124228999019;601.7124228999019;601.7124228999019;601.7124228999019;601.7124228999019;['f', 'r', 'e', 's', 'a'];0;[0.7743780994787812, 1.1554336994886398, 1.2242006994783878, 1.586192799732089, 1.6858252994716167];fresa;C:\2023\REPSWITCH21092023\REPSWITCH_excgange\REPSWITCH_excgange\data/450103_REPSWITCH1_version1_list3_2024-01-23_17h26.29.086_micRespv1l3_recorded\recording_micRespv1l3_2024-01-23_17h36.06.279.wav;604.7336299000308;605.2336324006319;None;604.7336299000308;604.7336299000308;604.7336299000308;604.7336299000308;604.7336299000308;604.7336299000308;;;;;;450103;001;2024-01-23_17h26.29.086;REPSWITCH1_version1_list3;2022.2.4;144.05174445139983;
REPSWITCH1/PICTURE_48.png;bombero;type;darkblue;filler;1;F;1;4;3;1;Stim7_Set4;0;None;118;117;16;0;117;117;117;;;;;;;;;;;;;;;;;;;;;;;605.2336324006319;606.3241432998329;606.3241432998329;606.3241432998329;606.3241432998329;606.3241432998329;606.3241432998329;606.3241432998329;606.3241432998329;['b', 'o', 'm', 'b', 'e', 'r', 'o'];0;[0.9032406993210316, 0.9839936001226306, 1.1208432000130415, 1.2274540001526475, 1.4846393000334501, 1.5454163998365402, 1.6551332995295525];bombero;C:\2023\REPSWITCH21092023\REPSWITCH_excgange\REPSWITCH_excgange\data/450103_REPSWITCH1_version1_list3_2024-01-23_17h26.29.086_micRespv1l3_recorded\recording_micRespv1l3_2024-01-23_17h36.10.890.wav;609.3453707005829;609.8453807001933;None;609.3453707005829;609.3453707005829;609.3453707005829;609.3453707005829;609.3453707005829;609.3453707005829;;;;;;450103;001;2024-01-23_17h26.29.086;REPSWITCH1_version1_list3;2022.2.4;144.05174445139983;
REPSWITCH1/PICTURE_687.png;camisa;speak;gold;filler;2;F;1;4;3;1;Stim5_Set4;0;None;119;118;17;0;118;118;118;;;;;;;;;;;;;;;;;;;;;;;609.8453807001933;610.9080680999905;610.9080680999905;610.9080680999905;610.9080680999905;610.9080680999905;610.9080680999905;610.9080680999905;610.9080680999905;None;0;;;C:\2023\REPSWITCH21092023\REPSWITCH_excgange\REPSWITCH_excgange\data/450103_REPSWITCH1_version1_list3_2024-01-23_17h26.29.086_micRespv1l3_recorded\recording_micRespv1l3_2024-01-23_17h36.15.474.wav;613.9292082004249;614.4292985005304;None;613.9292082004249;613.9292082004249;613.9292082004249;613.9292082004249;613.9292082004249;613.9292082004249;;;;;;450103;001;2024-01-23_17h26.29.086;REPSWITCH1_version1_list3;2022.2.4;144.05174445139983;
REPSWITCH1/PICTURE_128.png;muñeca;type;darkblue;nontarget;1;NT;1;4;3;1;Stim4_Set1;0;None;120;119;18;0;119;119;119;;;;;;;;;;;;;;;;;;;;;;;614.4292985005304;615.5406561000273;615.5406561000273;615.5406561000273;615.5406561000273;615.5406561000273;615.5406561000273;615.5406561000273;615.5406561000273;['m', 'u', 'ñ', 'e', 'c', 'a'];0;[0.9317070990800858, 1.1210549995303154, 1.3196613993495703, 1.426333099603653, 1.7343210997059941, 1.8239746997132897];muñeca;C:\2023\REPSWITCH21092023\REPSWITCH_excgange\REPSWITCH_excgange\data/450103_REPSWITCH1_version1_list3_2024-01-23_17h26.29.086_micRespv1l3_recorded\recording_micRespv1l3_2024-01-23_17h36.20.106.wav;618.5617757001892;619.0618625003844;None;618.5617757001892;618.5617757001892;618.5617757001892;618.5617757001892;618.5617757001892;618.5617757001892;;;;;;450103;001;2024-01-23_17h26.29.086;REPSWITCH1_version1_list3;2022.2.4;144.05174445139983;
