image;correctAns;respModal;frameColor;repSwitch;sequence;target;set;block;list;exp_version;stimulus;baseline;baseline_condition;trial_no;psychopy_trial;Column1;trialsREPSWITCH.thisRepN;trialsREPSWITCH.thisTrialN;trialsREPSWITCH.thisN;trialsREPSWITCH.thisIndex;textWelcome.started;textboxInstrMain1.started;textboxInstrMain1_2.started;textboxInstrMain1_3.started;keyInstrMain.started;keyInstrMain.keys;keyInstrMain.rt;textboxInstrMain2.started;textboxInstrMain2_2.started;textboxInstrMain2_3.started;textboxInstrMain2_4.started;textboxInstrMain2_5.started;textboxInstrMain2_6.started;textboxInstrMain2_7.started;textboxInstrMain2_8.started;textboxInstrMain2_9.started;textboxInstrMain2_10.started;textboxInstrMain2_11.started;textboxInstrMain2_12.started;keyInstrMain2.started;keyInstrMain2.keys;keyInstrMain2.rt;fixationITI.started;fixationITI.stopped;polygonColour.started;polygonWhite.started;imageObject.started;polygonType.started;textInput.started;keyResp.started;micRespv2l3.started;polygonColour.stopped;polygonWhite.stopped;imageObject.stopped;polygonType.stopped;textInput.stopped;keyResp.stopped;keyResp.keys;keyResp.corr;keyResp.rt;subjResponse;micRespv2l3.clip;textBlankLoop.started;textBlankLoop.stopped;keyPause.keys;textboxPause.started;keyPause.started;keyPause.rt;textboxGoodbye.started;textboxGoodbye.stopped;participant;session;date;expName;psychopyVersion;frameRate;Column2
;;;;;;;;;;;;;;;;;;;;;8.9146862;11.4129978;11.4129978;11.4129978;11.4129978;space;5.7963957;;;;;;;;;;;;;;;;;;;;;;;;;;;;;;;;;;;;;;;;;;;;300203;1;2023-12-05_11h21.18.227;REPSWITCH1_version2_list3;2022.2.4;144.0297512;
;;;;;;;;;;;;;;;;;;;;;;;;;;;;17.2261959;17.2261959;17.2261959;17.2261959;17.2261959;17.2261959;17.2261959;17.2261959;17.2261959;17.2261959;17.2261959;17.2261959;17.2261959;space;4.5256269;;;;;;;;;;;;;;;;;;;;;;;;;;;;;300203;1;2023-12-05_11h21.18.227;REPSWITCH1_version2_list3;2022.2.4;144.0297512;
REPSWITCH1/PICTURE_663.png;columna;type;gold;filler;1;F;1;2;3;2;Extra6;0;None;1;0;1;0;0;0;0;;;;;;;;;;;;;;;;;;;;;;;21.8448579;22.935291;22.935291;22.935291;22.935291;22.935291;22.935291;22.935291;22.935291;25.9634302;25.9634302;25.9634302;25.9634302;25.9634302;25.9634302;['c', 'o', 'l', 'u', 'm', 'n', 'a'];0;[0.9107081005349755, 1.022369600366801, 1.175812900532037, 1.300574500579387, 1.5028988006524742, 1.6774287004955113, 1.767499700654298];columna;C:\2023\REPSWITCH21092023\REPSWITCH_excgange\REPSWITCH_excgange\data/300203_REPSWITCH1_version2_list3_2023-12-05_11h21.18.227_micRespv2l3_recorded\recording_micRespv2l3_2023-12-05_11h21.37.141.wav;25.9634302;26.4634937;None;;;;;;300203;1;2023-12-05_11h21.18.227;REPSWITCH1_version2_list3;2022.2.4;144.0297512;
REPSWITCH1/PICTURE_128.png;muñeca;speak;darkblue;nontarget;2;NT;1;2;3;2;Stim4_Set1;1;switch;2;1;2;0;1;1;1;;;;;;;;;;;;;;;;;;;;;;;26.4634937;27.5053445;27.5053445;27.5053445;27.5053445;27.5053445;27.5053445;27.5053445;27.5053445;30.5334766;30.5334766;30.5334766;30.5334766;30.5334766;30.5334766;None;0;;;C:\2023\REPSWITCH21092023\REPSWITCH_excgange\REPSWITCH_excgange\data/300203_REPSWITCH1_version2_list3_2023-12-05_11h21.18.227_micRespv2l3_recorded\recording_micRespv2l3_2023-12-05_11h21.41.709.wav;30.5334766;;None;;;;;;300203;1;2023-12-05_11h21.18.227;REPSWITCH1_version2_list3;2022.2.4;144.0297512;
REPSWITCH1/PICTURE_128.png;muñeca;speak;darkblue;repeat;2;T;1;2;3;2;Stim4_Set1;0;None;3;2;3;0;2;2;2;;;;;;;;;;;;;;;;;;;;;;;31.0335437;32.0684429;32.0684429;32.0684429;32.0684429;32.0684429;32.0684429;32.0684429;32.0684429;35.0896986;35.0896986;35.0896986;35.0896986;35.0896986;35.0896986;None;0;;;C:\2023\REPSWITCH21092023\REPSWITCH_excgange\REPSWITCH_excgange\data/300203_REPSWITCH1_version2_list3_2023-12-05_11h21.18.227_micRespv2l3_recorded\recording_micRespv2l3_2023-12-05_11h21.46.271.wav;35.0896986;35.5897252;None;;;;;;300203;1;2023-12-05_11h21.18.227;REPSWITCH1_version2_list3;2022.2.4;144.0297512;
REPSWITCH1/PICTURE_8.png;pierna;type;gold;filler;1;F;1;2;3;2;Stim3_Set4;0;None;4;3;4;0;3;3;3;;;;;;;;;;;;;;;;;;;;;;;35.5897252;36.7079369;36.7079369;36.7079369;36.7079369;36.7079369;36.7079369;36.7079369;36.7079369;39.7361233;39.7361233;39.7361233;39.7361233;39.7361233;39.7361233;['p', 'i', 'e', 'r', 'n', 'a'];0;[0.8537781005725265, 1.2038113004527986, 1.28154360037297, 1.3882037005387247, 1.5826018005609512, 1.7051917002536356];pierna;C:\2023\REPSWITCH21092023\REPSWITCH_excgange\REPSWITCH_excgange\data/300203_REPSWITCH1_version2_list3_2023-12-05_11h21.18.227_micRespv2l3_recorded\recording_micRespv2l3_2023-12-05_11h21.50.911.wav;39.7361233;;None;;;;;;300203;1;2023-12-05_11h21.18.227;REPSWITCH1_version2_list3;2022.2.4;144.0297512;
REPSWITCH1/PICTURE_135.png;traje;speak;darkblue;nontarget;2;NT;1;2;3;2;Stim3_Set1;1;switch;5;4;5;0;4;4;4;;;;;;;;;;;;;;;;;;;;;;;40.2361558;41.3335584;41.3335584;41.3335584;41.3335584;41.3335584;41.3335584;41.3335584;41.3335584;44.3548333;44.3548333;44.3548333;44.3548333;44.3548333;44.3548333;None;0;;;C:\2023\REPSWITCH21092023\REPSWITCH_excgange\REPSWITCH_excgange\data/300203_REPSWITCH1_version2_list3_2023-12-05_11h21.18.227_micRespv2l3_recorded\recording_micRespv2l3_2023-12-05_11h21.55.537.wav;44.3548333;44.8548156;None;;;;;;300203;1;2023-12-05_11h21.18.227;REPSWITCH1_version2_list3;2022.2.4;144.0297512;
REPSWITCH1/PICTURE_135.png;traje;speak;darkblue;repeat;2;T;1;2;3;2;Stim3_Set1;0;None;6;5;6;0;5;5;5;;;;;;;;;;;;;;;;;;;;;;;44.8548156;45.9521959;45.9521959;45.9521959;45.9521959;45.9521959;45.9521959;45.9521959;45.9521959;48.9733888;48.9733888;48.9733888;48.9733888;48.9733888;48.9733888;None;0;;;C:\2023\REPSWITCH21092023\REPSWITCH_excgange\REPSWITCH_excgange\data/300203_REPSWITCH1_version2_list3_2023-12-05_11h21.18.227_micRespv2l3_recorded\recording_micRespv2l3_2023-12-05_11h22.00.156.wav;48.9733888;49.4734679;None;;;;;;300203;1;2023-12-05_11h21.18.227;REPSWITCH1_version2_list3;2022.2.4;144.0297512;
REPSWITCH1/PICTURE_673.png;tenedor;type;gold;filler;1;F;1;2;3;2;Extra5;0;None;7;6;7;0;6;6;6;;;;;;;;;;;;;;;;;;;;;;;49.4734679;50.563939;50.563939;50.563939;50.563939;50.563939;50.563939;50.563939;50.563939;53.5852053;53.5852053;53.5852053;53.5852053;53.5852053;53.5852053;['t', 'e', 'n', 'e', 'd', 'o', 'r'];0;[0.7463136003352702, 0.8738767001777887, 0.9834721004590392, 1.1230402002111077, 1.3124694004654884, 1.4191254004836082, 1.510652500204742];tenedor;C:\2023\REPSWITCH21092023\REPSWITCH_excgange\REPSWITCH_excgange\data/300203_REPSWITCH1_version2_list3_2023-12-05_11h21.18.227_micRespv2l3_recorded\recording_micRespv2l3_2023-12-05_11h22.04.766.wav;53.5852053;54.0852064;None;;;;;;300203;1;2023-12-05_11h21.18.227;REPSWITCH1_version2_list3;2022.2.4;144.0297512;
REPSWITCH1/PICTURE_728.png;pulpo;speak;darkblue;filler;2;F;1;2;3;2;Stim8_Set4;0;None;8;7;8;0;7;7;7;;;;;;;;;;;;;;;;;;;;;;;54.0852064;55.1200759;55.1200759;55.1200759;55.1200759;55.1200759;55.1200759;55.1200759;55.1200759;58.1483035;58.1483035;58.1483035;58.1483035;58.1483035;58.1483035;None;0;;;C:\2023\REPSWITCH21092023\REPSWITCH_excgange\REPSWITCH_excgange\data/300203_REPSWITCH1_version2_list3_2023-12-05_11h21.18.227_micRespv2l3_recorded\recording_micRespv2l3_2023-12-05_11h22.09.324.wav;58.1483035;;None;;;;;;300203;1;2023-12-05_11h21.18.227;REPSWITCH1_version2_list3;2022.2.4;144.0297512;
REPSWITCH1/PICTURE_16.png;cazador;speak;darkblue;nontarget;2;NT;1;2;3;2;Stim6_Set1;1;repeat;9;8;9;0;8;8;8;;;;;;;;;;;;;;;;;;;;;;;58.6483754;59.863723;59.863723;59.863723;59.863723;59.863723;59.863723;59.863723;59.863723;62.8919235;62.8919235;62.8919235;62.8919235;62.8919235;62.8919235;None;0;;;C:\2023\REPSWITCH21092023\REPSWITCH_excgange\REPSWITCH_excgange\data/300203_REPSWITCH1_version2_list3_2023-12-05_11h21.18.227_micRespv2l3_recorded\recording_micRespv2l3_2023-12-05_11h22.14.067.wav;62.8919235;;None;;;;;;300203;1;2023-12-05_11h21.18.227;REPSWITCH1_version2_list3;2022.2.4;144.0297512;
REPSWITCH1/PICTURE_16.png;cazador;type;gold;switch;1;T;1;2;3;2;Stim6_Set1;0;None;10;9;10;0;9;9;9;;;;;;;;;;;;;;;;;;;;;;;63.3920098;64.4894485;64.4894485;64.4894485;64.4894485;64.4894485;64.4894485;64.4894485;64.4894485;67.5105475;67.5105475;67.5105475;67.5105475;67.5105475;67.5105475;['c', 'a', 'z', 'a', 'd', 'o', 'r'];0;[0.6833097003400326, 0.8496992001309991, 1.0719536999240518, 1.2736752000637352, 1.5323689999058843, 1.7107687001116574, 1.7715611001476645];cazador;C:\2023\REPSWITCH21092023\REPSWITCH_excgange\REPSWITCH_excgange\data/300203_REPSWITCH1_version2_list3_2023-12-05_11h21.18.227_micRespv2l3_recorded\recording_micRespv2l3_2023-12-05_11h22.18.693.wav;67.5105475;68.0106117;None;;;;;;300203;1;2023-12-05_11h21.18.227;REPSWITCH1_version2_list3;2022.2.4;144.0297512;
REPSWITCH1/PICTURE_498.png;taza;type;gold;filler;1;F;1;2;3;2;Stim4_Set4;1;repeat;11;10;11;0;10;10;10;;;;;;;;;;;;;;;;;;;;;;;68.0106117;69.1496993;69.1496993;69.1496993;69.1496993;69.1496993;69.1496993;69.1496993;69.1496993;72.1709846;72.1709846;72.1709846;72.1709846;72.1709846;72.1709846;['t', 'a', 'z', 'a'];0;[1.1984387002885342, 1.3239503004588187, 1.5247684004716575, 1.7062620003707707];taza;C:\2023\REPSWITCH21092023\REPSWITCH_excgange\REPSWITCH_excgange\data/300203_REPSWITCH1_version2_list3_2023-12-05_11h21.18.227_micRespv2l3_recorded\recording_micRespv2l3_2023-12-05_11h22.23.353.wav;72.1709846;72.6709845;None;;;;;;300203;1;2023-12-05_11h21.18.227;REPSWITCH1_version2_list3;2022.2.4;144.0297512;
REPSWITCH1/PICTURE_381.png;fresa;type;gold;nontarget;1;NT;1;2;3;2;Stim2_Set1;1;repeat;12;11;12;0;11;11;11;;;;;;;;;;;;;;;;;;;;;;;72.6709845;73.6919292;73.6919292;73.6919292;73.6919292;73.6919292;73.6919292;73.6919292;73.6919292;76.7131652;76.7131652;76.7131652;76.7131652;76.7131652;76.7131652;['f', 'r', 'e', 's', 'a'];0;[0.7494654003530741, 1.0333974002860487, 1.1527603003196418, 1.3462316002696753, 1.4857563003897667];fresa;C:\2023\REPSWITCH21092023\REPSWITCH_excgange\REPSWITCH_excgange\data/300203_REPSWITCH1_version2_list3_2023-12-05_11h21.18.227_micRespv2l3_recorded\recording_micRespv2l3_2023-12-05_11h22.27.895.wav;76.7131652;77.2132474;None;;;;;;300203;1;2023-12-05_11h21.18.227;REPSWITCH1_version2_list3;2022.2.4;144.0297512;
REPSWITCH1/PICTURE_381.png;fresa;speak;darkblue;switch;2;T;1;2;3;2;Stim2_Set1;0;None;13;12;13;0;12;12;12;;;;;;;;;;;;;;;;;;;;;;;77.2132474;78.3939802;78.3939802;78.3939802;78.3939802;78.3939802;78.3939802;78.3939802;78.3939802;81.4221365;81.4221365;81.4221365;81.4221365;81.4221365;81.4221365;None;0;;;C:\2023\REPSWITCH21092023\REPSWITCH_excgange\REPSWITCH_excgange\data/300203_REPSWITCH1_version2_list3_2023-12-05_11h21.18.227_micRespv2l3_recorded\recording_micRespv2l3_2023-12-05_11h22.32.598.wav;81.4221365;;None;;;;;;300203;1;2023-12-05_11h21.18.227;REPSWITCH1_version2_list3;2022.2.4;144.0297512;
REPSWITCH1/PICTURE_178.png;puente;speak;darkblue;nontarget;2;NT;1;2;3;2;Stim1_Set1;0;None;14;13;14;0;13;13;13;;;;;;;;;;;;;;;;;;;;;;;81.9221995;83.1306835;83.1306835;83.1306835;83.1306835;83.1306835;83.1306835;83.1306835;83.1306835;86.1589429;86.1589429;86.1589429;86.1589429;86.1589429;86.1589429;None;0;;;C:\2023\REPSWITCH21092023\REPSWITCH_excgange\REPSWITCH_excgange\data/300203_REPSWITCH1_version2_list3_2023-12-05_11h21.18.227_micRespv2l3_recorded\recording_micRespv2l3_2023-12-05_11h22.37.334.wav;86.1589429;;None;;;;;;300203;1;2023-12-05_11h21.18.227;REPSWITCH1_version2_list3;2022.2.4;144.0297512;
REPSWITCH1/PICTURE_178.png;puente;type;gold;switch;1;T;1;2;3;2;Stim1_Set1;0;None;15;14;15;0;14;14;14;;;;;;;;;;;;;;;;;;;;;;;86.6590049;87.7354832;87.7354832;87.7354832;87.7354832;87.7354832;87.7354832;87.7354832;87.7354832;90.7567061;90.7567061;90.7567061;90.7567061;90.7567061;90.7567061;['p', 'u', 'e', 'n', 't', 'e'];0;[0.5093570002354681, 0.6303454004228115, 0.7938163001090288, 0.9703802005387843, 1.3330105002969503, 1.516717600170523];puente;C:\2023\REPSWITCH21092023\REPSWITCH_excgange\REPSWITCH_excgange\data/300203_REPSWITCH1_version2_list3_2023-12-05_11h21.18.227_micRespv2l3_recorded\recording_micRespv2l3_2023-12-05_11h22.41.938.wav;90.7567061;91.2567653;None;;;;;;300203;1;2023-12-05_11h21.18.227;REPSWITCH1_version2_list3;2022.2.4;144.0297512;
REPSWITCH1/PICTURE_719.png;baño;speak;darkblue;filler;2;F;1;2;3;2;Stim2_Set4;0;None;16;15;16;0;15;15;15;;;;;;;;;;;;;;;;;;;;;;;91.2567653;92.4444551;92.4444551;92.4444551;92.4444551;92.4444551;92.4444551;92.4444551;92.4444551;95.4725677;95.4725677;95.4725677;95.4725677;95.4725677;95.4725677;None;0;;;C:\2023\REPSWITCH21092023\REPSWITCH_excgange\REPSWITCH_excgange\data/300203_REPSWITCH1_version2_list3_2023-12-05_11h21.18.227_micRespv2l3_recorded\recording_micRespv2l3_2023-12-05_11h22.46.648.wav;95.4725677;;None;;;;;;300203;1;2023-12-05_11h21.18.227;REPSWITCH1_version2_list3;2022.2.4;144.0297512;
REPSWITCH1/PICTURE_169.png;espalda;type;gold;nontarget;1;NT;1;2;3;2;Stim8_Set1;1;switch;17;16;17;0;16;16;16;;;;;;;;;;;;;;;;;;;;;;;95.9726518;97.1880856;97.1880856;97.1880856;97.1880856;97.1880856;97.1880856;97.1880856;97.1880856;100.2092915;100.2092915;100.2092915;100.2092915;100.2092915;100.2092915;['e', 's', 'p', 'a', 'l', 'd', 'a'];0;[1.0034024002961814, 1.1179768000729382, 1.2647304004058242, 1.3454196001403034, 1.507832400035113, 1.873892200179398, 2.0483669000677764];espalda;C:\2023\REPSWITCH21092023\REPSWITCH_excgange\REPSWITCH_excgange\data/300203_REPSWITCH1_version2_list3_2023-12-05_11h21.18.227_micRespv2l3_recorded\recording_micRespv2l3_2023-12-05_11h22.51.392.wav;100.2092915;100.709379;None;;;;;;300203;1;2023-12-05_11h21.18.227;REPSWITCH1_version2_list3;2022.2.4;144.0297512;
REPSWITCH1/PICTURE_169.png;espalda;type;gold;repeat;1;T;1;2;3;2;Stim8_Set1;0;None;18;17;18;0;17;17;17;;;;;;;;;;;;;;;;;;;;;;;100.709379;101.8276599;101.8276599;101.8276599;101.8276599;101.8276599;101.8276599;101.8276599;101.8276599;104.8489082;104.8489082;104.8489082;104.8489082;104.8489082;104.8489082;['e', 's', 'p', 'a', 'l', 'd', 'a'];0;[0.9244529004208744, 1.1901792003773153, 1.3733997005037963, 1.469077900517732, 1.702963000163436, 1.8963271002285182, 2.017741800285876];espalda;C:\2023\REPSWITCH21092023\REPSWITCH_excgange\REPSWITCH_excgange\data/300203_REPSWITCH1_version2_list3_2023-12-05_11h21.18.227_micRespv2l3_recorded\recording_micRespv2l3_2023-12-05_11h22.56.031.wav;104.8489082;105.348897;None;;;;;;300203;1;2023-12-05_11h21.18.227;REPSWITCH1_version2_list3;2022.2.4;144.0297512;
REPSWITCH1/PICTURE_48.png;bombero;speak;darkblue;filler;2;F;1;2;3;2;Stim7_Set4;1;switch;19;18;19;0;18;18;18;;;;;;;;;;;;;;;;;;;;;;;105.348897;106.5019024;106.5019024;106.5019024;106.5019024;106.5019024;106.5019024;106.5019024;106.5019024;109.5230271;109.5230271;109.5230271;109.5230271;109.5230271;109.5230271;None;0;;;C:\2023\REPSWITCH21092023\REPSWITCH_excgange\REPSWITCH_excgange\data/300203_REPSWITCH1_version2_list3_2023-12-05_11h21.18.227_micRespv2l3_recorded\recording_micRespv2l3_2023-12-05_11h23.00.705.wav;109.5230271;110.0231204;None;;;;;;300203;1;2023-12-05_11h21.18.227;REPSWITCH1_version2_list3;2022.2.4;144.0297512;
REPSWITCH1/PICTURE_19.png;pavo;type;gold;nontarget;1;NT;1;2;3;2;Stim5_Set1;1;switch;20;19;20;0;19;19;19;;;;;;;;;;;;;;;;;;;;;;;110.0231204;111.1622063;111.1622063;111.1622063;111.1622063;111.1622063;111.1622063;111.1622063;111.1622063;114.1904048;114.1904048;114.1904048;114.1904048;114.1904048;114.1904048;['p', 'a', 'b', 'o', 'backspace', 'backspace', 'v', 'o'];0;[0.745469800196588, 0.8291799002327025, 1.0008331001736224, 1.165249700192362, 1.6311947000212967, 1.8223802000284195, 1.9013494001701474, 2.0329458001069725];pavo;C:\2023\REPSWITCH21092023\REPSWITCH_excgange\REPSWITCH_excgange\data/300203_REPSWITCH1_version2_list3_2023-12-05_11h21.18.227_micRespv2l3_recorded\recording_micRespv2l3_2023-12-05_11h23.05.366.wav;114.1904048;;None;;;;;;300203;1;2023-12-05_11h21.18.227;REPSWITCH1_version2_list3;2022.2.4;144.0297512;
REPSWITCH1/PICTURE_19.png;pavo;type;gold;repeat;1;T;1;2;3;2;Stim5_Set1;0;None;21;20;21;0;20;20;20;;;;;;;;;;;;;;;;;;;;;;;114.6903666;115.8155572;115.8155572;115.8155572;115.8155572;115.8155572;115.8155572;115.8155572;115.8155572;118.8367406;118.8367406;118.8367406;118.8367406;118.8367406;118.8367406;['p', 'a', 'v', 'o'];0;[1.1432377002201974, 1.1980477003380656, 1.3706265999935567, 1.4712896002456546];pavo;C:\2023\REPSWITCH21092023\REPSWITCH_excgange\REPSWITCH_excgange\data/300203_REPSWITCH1_version2_list3_2023-12-05_11h21.18.227_micRespv2l3_recorded\recording_micRespv2l3_2023-12-05_11h23.10.018.wav;118.8367406;119.3368427;None;;;;;;300203;1;2023-12-05_11h21.18.227;REPSWITCH1_version2_list3;2022.2.4;144.0297512;
REPSWITCH1/PICTURE_319.png;vaca;speak;darkblue;filler;2;F;1;2;3;2;Stim1_Set4;0;None;22;21;22;0;21;21;21;;;;;;;;;;;;;;;;;;;;;;;119.3368427;120.3994687;120.3994687;120.3994687;120.3994687;120.3994687;120.3994687;120.3994687;120.3994687;123.4277263;123.4277263;123.4277263;123.4277263;123.4277263;123.4277263;None;0;;;C:\2023\REPSWITCH21092023\REPSWITCH_excgange\REPSWITCH_excgange\data/300203_REPSWITCH1_version2_list3_2023-12-05_11h21.18.227_micRespv2l3_recorded\recording_micRespv2l3_2023-12-05_11h23.14.603.wav;123.4277263;;None;;;;;;300203;1;2023-12-05_11h21.18.227;REPSWITCH1_version2_list3;2022.2.4;144.0297512;
REPSWITCH1/PICTURE_338.png;regalo;type;gold;filler;1;F;1;2;3;2;Stim6_Set4;0;None;23;22;23;0;22;22;22;;;;;;;;;;;;;;;;;;;;;;;123.9277229;125.0945869;125.0945869;125.0945869;125.0945869;125.0945869;125.0945869;125.0945869;125.0945869;128.1157671;128.1157671;128.1157671;128.1157671;128.1157671;128.1157671;['r', 'a', 'backspace', 'e', 'g', 'a', 'l', 'o'];0;[1.0047706002369523, 1.2012273003347218, 1.6250329003669322, 1.7273272005841136, 1.9236527001485229, 1.9987452002242208, 2.4206432001665235, 2.5755745004862547];regalo;C:\2023\REPSWITCH21092023\REPSWITCH_excgange\REPSWITCH_excgange\data/300203_REPSWITCH1_version2_list3_2023-12-05_11h21.18.227_micRespv2l3_recorded\recording_micRespv2l3_2023-12-05_11h23.19.297.wav;128.1157671;128.6158399;None;;;;;;300203;1;2023-12-05_11h21.18.227;REPSWITCH1_version2_list3;2022.2.4;144.0297512;
REPSWITCH1/PICTURE_142.png;vaso;type;gold;nontarget;1;NT;1;2;3;2;Stim7_Set1;0;None;24;23;24;0;23;23;23;;;;;;;;;;;;;;;;;;;;;;;128.6158399;129.657648;129.657648;129.657648;129.657648;129.657648;129.657648;129.657648;129.657648;132.6858269;132.6858269;132.6858269;132.6858269;132.6858269;132.6858269;['v', 'a', 's', 'o'];0;[1.245174300391227, 1.5705781006254256, 1.7659340002574027, 1.9017822002060711];vaso;C:\2023\REPSWITCH21092023\REPSWITCH_excgange\REPSWITCH_excgange\data/300203_REPSWITCH1_version2_list3_2023-12-05_11h21.18.227_micRespv2l3_recorded\recording_micRespv2l3_2023-12-05_11h23.23.862.wav;132.6858269;;None;;;;;;300203;1;2023-12-05_11h21.18.227;REPSWITCH1_version2_list3;2022.2.4;144.0297512;
REPSWITCH1/PICTURE_142.png;vaso;speak;darkblue;switch;2;T;1;2;3;2;Stim7_Set1;0;None;25;24;25;0;24;24;24;;;;;;;;;;;;;;;;;;;;;;;133.1858986;134.2832699;134.2832699;134.2832699;134.2832699;134.2832699;134.2832699;134.2832699;134.2832699;137.304464;137.304464;137.304464;137.304464;137.304464;137.304464;None;0;;;C:\2023\REPSWITCH21092023\REPSWITCH_excgange\REPSWITCH_excgange\data/300203_REPSWITCH1_version2_list3_2023-12-05_11h21.18.227_micRespv2l3_recorded\recording_micRespv2l3_2023-12-05_11h23.28.487.wav;137.304464;137.8045945;None;;;;;;300203;1;2023-12-05_11h21.18.227;REPSWITCH1_version2_list3;2022.2.4;144.0297512;
REPSWITCH1/PICTURE_687.png;camisa;type;gold;filler;1;F;1;2;3;2;Stim5_Set4;1;switch;26;25;26;0;25;25;25;;;;;;;;;;;;;;;;;;;;;;;137.8045945;138.8811329;138.8811329;138.8811329;138.8811329;138.8811329;138.8811329;138.8811329;138.8811329;141.9022731;141.9022731;141.9022731;141.9022731;141.9022731;141.9022731;['c', 'a', 'm', 'i', 's', 'a'];0;[1.0761021999642253, 1.1741201002150774, 1.2807284002192318, 1.3886977001093328, 1.4804831999354064, 1.5768377003259957];camisa;C:\2023\REPSWITCH21092023\REPSWITCH_excgange\REPSWITCH_excgange\data/300203_REPSWITCH1_version2_list3_2023-12-05_11h21.18.227_micRespv2l3_recorded\recording_micRespv2l3_2023-12-05_11h23.33.084.wav;141.9022731;142.4023561;None;;;;;;300203;1;2023-12-05_11h21.18.227;REPSWITCH1_version2_list3;2022.2.4;144.0297512;
REPSWITCH1/PICTURE_30.png;granja;type;gold;nontarget;1;NT;2;2;3;2;Stim5_Set2;0;None;27;26;27;0;26;26;26;;;;;;;;;;;;;;;;;;;;;;;142.4023561;143.4719753;143.4719753;143.4719753;143.4719753;143.4719753;143.4719753;143.4719753;143.4719753;146.5001386;146.5001386;146.5001386;146.5001386;146.5001386;146.5001386;['g', 'r', 'a', 'n', 'j', 'a'];0;[0.8838037005625665, 1.1389269004575908, 1.2728114002384245, 1.3757698005065322, 1.5820856001228094, 1.6727759004570544];granja;C:\2023\REPSWITCH21092023\REPSWITCH_excgange\REPSWITCH_excgange\data/300203_REPSWITCH1_version2_list3_2023-12-05_11h21.18.227_micRespv2l3_recorded\recording_micRespv2l3_2023-12-05_11h23.37.677.wav;146.5001386;147.0001878;None;;;;;;300203;1;2023-12-05_11h21.18.227;REPSWITCH1_version2_list3;2022.2.4;144.0297512;
REPSWITCH1/PICTURE_30.png;granja;type;gold;repeat;1;T;2;2;3;2;Stim5_Set2;0;None;28;27;28;0;27;27;27;;;;;;;;;;;;;;;;;;;;;;;147.0001878;148.1253365;148.1253365;148.1253365;148.1253365;148.1253365;148.1253365;148.1253365;148.1253365;151.1535058;151.1535058;151.1535058;151.1535058;151.1535058;151.1535058;['g', 'r', 'a', 'n', 'j', 'a'];0;[0.953500300180167, 1.166764299850911, 1.3122868002392352, 1.4016006998717785, 1.5973171000368893, 1.6989854001440108];granja;C:\2023\REPSWITCH21092023\REPSWITCH_excgange\REPSWITCH_excgange\data/300203_REPSWITCH1_version2_list3_2023-12-05_11h21.18.227_micRespv2l3_recorded\recording_micRespv2l3_2023-12-05_11h23.42.329.wav;151.1535058;;None;;;;;;300203;1;2023-12-05_11h21.18.227;REPSWITCH1_version2_list3;2022.2.4;144.0297512;
REPSWITCH1/PICTURE_128.png;muñeca;speak;darkblue;filler;2;F;2;2;3;2;Stim4_Set1;0;None;29;28;29;0;28;28;28;;;;;;;;;;;;;;;;;;;;;;;151.6535663;152.7023899;152.7023899;152.7023899;152.7023899;152.7023899;152.7023899;152.7023899;152.7023899;155.723536;155.723536;155.723536;155.723536;155.723536;155.723536;None;0;;;C:\2023\REPSWITCH21092023\REPSWITCH_excgange\REPSWITCH_excgange\data/300203_REPSWITCH1_version2_list3_2023-12-05_11h21.18.227_micRespv2l3_recorded\recording_micRespv2l3_2023-12-05_11h23.46.906.wav;155.723536;156.2236448;None;;;;;;300203;1;2023-12-05_11h21.18.227;REPSWITCH1_version2_list3;2022.2.4;144.0297512;
REPSWITCH1/PICTURE_264.png;mano;type;gold;nontarget;1;NT;2;2;3;2;Stim3_Set2;1;switch;30;29;30;0;29;29;29;;;;;;;;;;;;;;;;;;;;;;;156.2236448;157.3904649;157.3904649;157.3904649;157.3904649;157.3904649;157.3904649;157.3904649;157.3904649;160.4116684;160.4116684;160.4116684;160.4116684;160.4116684;160.4116684;['m', 'a', 'n', 'o'];0;[0.651774300262332, 0.7833152003586292, 0.8864300004206598, 0.990053300280124];mano;C:\2023\REPSWITCH21092023\REPSWITCH_excgange\REPSWITCH_excgange\data/300203_REPSWITCH1_version2_list3_2023-12-05_11h21.18.227_micRespv2l3_recorded\recording_micRespv2l3_2023-12-05_11h23.51.593.wav;160.4116684;160.9117555;None;;;;;;300203;1;2023-12-05_11h21.18.227;REPSWITCH1_version2_list3;2022.2.4;144.0297512;
REPSWITCH1/PICTURE_264.png;mano;type;gold;repeat;1;T;2;2;3;2;Stim3_Set2;0;None;31;30;31;0;30;30;30;;;;;;;;;;;;;;;;;;;;;;;160.9117555;161.967482;161.967482;161.967482;161.967482;161.967482;161.967482;161.967482;161.967482;164.9956844;164.9956844;164.9956844;164.9956844;164.9956844;164.9956844;['m', 'a', 'n', 'o'];0;[0.6740137999877334, 1.1345101003535092, 1.2361762002110481, 1.3368387003429234];mano;C:\2023\REPSWITCH21092023\REPSWITCH_excgange\REPSWITCH_excgange\data/300203_REPSWITCH1_version2_list3_2023-12-05_11h21.18.227_micRespv2l3_recorded\recording_micRespv2l3_2023-12-05_11h23.56.171.wav;164.9956844;;None;;;;;;300203;1;2023-12-05_11h21.18.227;REPSWITCH1_version2_list3;2022.2.4;144.0297512;
REPSWITCH1/PICTURE_175.png;pintor;type;gold;nontarget;1;NT;2;2;3;2;Stim1_Set2;0;None;32;31;32;0;31;31;31;;;;;;;;;;;;;;;;;;;;;;;165.4956919;166.7180532;166.7180532;166.7180532;166.7180532;166.7180532;166.7180532;166.7180532;166.7180532;169.7462553;169.7462553;169.7462553;169.7462553;169.7462553;169.7462553;['p', 'i', 'n', 't', 'o', 'r'];0;[1.0465999003499746, 1.1741321003064513, 1.2658550003543496, 1.414407200179994, 1.5211971001699567, 1.6281499001197517];pintor;C:\2023\REPSWITCH21092023\REPSWITCH_excgange\REPSWITCH_excgange\data/300203_REPSWITCH1_version2_list3_2023-12-05_11h21.18.227_micRespv2l3_recorded\recording_micRespv2l3_2023-12-05_11h24.00.922.wav;169.7462553;;None;;;;;;300203;1;2023-12-05_11h21.18.227;REPSWITCH1_version2_list3;2022.2.4;144.0297512;
REPSWITCH1/PICTURE_175.png;pintor;speak;darkblue;switch;2;T;2;2;3;2;Stim1_Set2;0;None;33;32;33;0;32;32;32;;;;;;;;;;;;;;;;;;;;;;;170.246315;171.3784331;171.3784331;171.3784331;171.3784331;171.3784331;171.3784331;171.3784331;171.3784331;174.3997078;174.3997078;174.3997078;174.3997078;174.3997078;174.3997078;None;0;;;C:\2023\REPSWITCH21092023\REPSWITCH_excgange\REPSWITCH_excgange\data/300203_REPSWITCH1_version2_list3_2023-12-05_11h21.18.227_micRespv2l3_recorded\recording_micRespv2l3_2023-12-05_11h24.05.582.wav;174.3997078;174.8997076;None;;;;;;300203;1;2023-12-05_11h21.18.227;REPSWITCH1_version2_list3;2022.2.4;144.0297512;
REPSWITCH1/PICTURE_135.png;traje;speak;darkblue;filler;2;F;2;2;3;2;Stim3_Set1;1;repeat;34;33;34;0;33;33;33;;;;;;;;;;;;;;;;;;;;;;;174.8997076;175.9762474;175.9762474;175.9762474;175.9762474;175.9762474;175.9762474;175.9762474;175.9762474;178.9974307;178.9974307;178.9974307;178.9974307;178.9974307;178.9974307;None;0;;;C:\2023\REPSWITCH21092023\REPSWITCH_excgange\REPSWITCH_excgange\data/300203_REPSWITCH1_version2_list3_2023-12-05_11h21.18.227_micRespv2l3_recorded\recording_micRespv2l3_2023-12-05_11h24.10.179.wav;178.9974307;179.4975067;None;;;;;;300203;1;2023-12-05_11h21.18.227;REPSWITCH1_version2_list3;2022.2.4;144.0297512;
REPSWITCH1/PICTURE_446.png;cerdo;speak;darkblue;nontarget;2;NT;2;2;3;2;Stim7_Set2;1;repeat;35;34;35;0;34;34;34;;;;;;;;;;;;;;;;;;;;;;;179.4975067;180.6366508;180.6366508;180.6366508;180.6366508;180.6366508;180.6366508;180.6366508;180.6366508;183.657836;183.657836;183.657836;183.657836;183.657836;183.657836;None;0;;;C:\2023\REPSWITCH21092023\REPSWITCH_excgange\REPSWITCH_excgange\data/300203_REPSWITCH1_version2_list3_2023-12-05_11h21.18.227_micRespv2l3_recorded\recording_micRespv2l3_2023-12-05_11h24.14.839.wav;183.657836;184.1578647;None;;;;;;300203;1;2023-12-05_11h21.18.227;REPSWITCH1_version2_list3;2022.2.4;144.0297512;
REPSWITCH1/PICTURE_446.png;cerdo;type;gold;switch;1;T;2;2;3;2;Stim7_Set2;0;None;36;35;36;0;35;35;35;;;;;;;;;;;;;;;;;;;;;;;184.1578647;185.2969829;185.2969829;185.2969829;185.2969829;185.2969829;185.2969829;185.2969829;185.2969829;188.3181392;188.3181392;188.3181392;188.3181392;188.3181392;188.3181392;['c', 'e', 'r', 'd', 'o'];0;[0.957617400214076, 1.200950300320983, 1.3013113006018102, 1.5225699003785849, 1.64813440060243];cerdo;C:\2023\REPSWITCH21092023\REPSWITCH_excgange\REPSWITCH_excgange\data/300203_REPSWITCH1_version2_list3_2023-12-05_11h21.18.227_micRespv2l3_recorded\recording_micRespv2l3_2023-12-05_11h24.19.500.wav;188.3181392;188.8182042;None;;;;;;300203;1;2023-12-05_11h21.18.227;REPSWITCH1_version2_list3;2022.2.4;144.0297512;
REPSWITCH1/PICTURE_152.png;caracol;type;gold;nontarget;1;NT;2;2;3;2;Stim2_Set2;1;repeat;37;36;37;0;36;36;36;;;;;;;;;;;;;;;;;;;;;;;188.8182042;190.0406032;190.0406032;190.0406032;190.0406032;190.0406032;190.0406032;190.0406032;190.0406032;193.0687491;193.0687491;193.0687491;193.0687491;193.0687491;193.0687491;['c', 'a', 'r', 'a', 'c', 'o', 'l'];0;[0.8827689001336694, 0.9945123004727066, 1.1001567002385855, 1.2639526003040373, 1.5008108001202345, 1.638341000303626, 1.8042008001357317];caracol;C:\2023\REPSWITCH21092023\REPSWITCH_excgange\REPSWITCH_excgange\data/300203_REPSWITCH1_version2_list3_2023-12-05_11h21.18.227_micRespv2l3_recorded\recording_micRespv2l3_2023-12-05_11h24.24.245.wav;193.0687491;;None;;;;;;300203;1;2023-12-05_11h21.18.227;REPSWITCH1_version2_list3;2022.2.4;144.0297512;
REPSWITCH1/PICTURE_152.png;caracol;speak;darkblue;switch;2;T;2;2;3;2;Stim2_Set2;0;None;38;37;38;0;37;37;37;;;;;;;;;;;;;;;;;;;;;;;193.5688234;194.603713;194.603713;194.603713;194.603713;194.603713;194.603713;194.603713;194.603713;197.6318581;197.6318581;197.6318581;197.6318581;197.6318581;197.6318581;None;0;;;C:\2023\REPSWITCH21092023\REPSWITCH_excgange\REPSWITCH_excgange\data/300203_REPSWITCH1_version2_list3_2023-12-05_11h21.18.227_micRespv2l3_recorded\recording_micRespv2l3_2023-12-05_11h24.28.808.wav;197.6318581;;None;;;;;;300203;1;2023-12-05_11h21.18.227;REPSWITCH1_version2_list3;2022.2.4;144.0297512;
REPSWITCH1/PICTURE_16.png;cazador;type;gold;filler;1;F;2;2;3;2;Stim6_Set1;0;None;39;38;39;0;38;38;38;;;;;;;;;;;;;;;;;;;;;;;198.1319246;199.2293066;199.2293066;199.2293066;199.2293066;199.2293066;199.2293066;199.2293066;199.2293066;202.2505679;202.2505679;202.2505679;202.2505679;202.2505679;202.2505679;['c', 'a', 'z', 'a', 'd', 'o', 'r'];0;[0.8124798000790179, 0.9400062002241611, 1.2878848002292216, 1.4911948004737496, 1.6945230001583695, 1.9068148001097143, 1.9955139001831412];cazador;C:\2023\REPSWITCH21092023\REPSWITCH_excgange\REPSWITCH_excgange\data/300203_REPSWITCH1_version2_list3_2023-12-05_11h21.18.227_micRespv2l3_recorded\recording_micRespv2l3_2023-12-05_11h24.33.433.wav;202.2505679;202.7505842;None;;;;;;300203;1;2023-12-05_11h21.18.227;REPSWITCH1_version2_list3;2022.2.4;144.0297512;
REPSWITCH1/PICTURE_381.png;fresa;speak;darkblue;filler;2;F;2;2;3;2;Stim2_Set1;0;None;40;39;40;0;39;39;39;;;;;;;;;;;;;;;;;;;;;;;202.7505842;203.7576569;203.7576569;203.7576569;203.7576569;203.7576569;203.7576569;203.7576569;203.7576569;206.7789079;206.7789079;206.7789079;206.7789079;206.7789079;206.7789079;None;0;;;C:\2023\REPSWITCH21092023\REPSWITCH_excgange\REPSWITCH_excgange\data/300203_REPSWITCH1_version2_list3_2023-12-05_11h21.18.227_micRespv2l3_recorded\recording_micRespv2l3_2023-12-05_11h24.37.961.wav;206.7789079;207.2790441;None;;;;;;300203;1;2023-12-05_11h21.18.227;REPSWITCH1_version2_list3;2022.2.4;144.0297512;
REPSWITCH1/PICTURE_19.png;pavo;type;gold;filler;1;F;2;2;3;2;Stim5_Set1;0;None;41;40;41;0;40;40;40;;;;;;;;;;;;;;;;;;;;;;;207.2790441;208.3068534;208.3068534;208.3068534;208.3068534;208.3068534;208.3068534;208.3068534;208.3068534;211.3351278;211.3351278;211.3351278;211.3351278;211.3351278;211.3351278;['p', 'a', 'v', 'o'];0;[0.7151120002381504, 0.757457900326699, 0.9640991003252566, 1.0842794002965093];pavo;C:\2023\REPSWITCH21092023\REPSWITCH_excgange\REPSWITCH_excgange\data/300203_REPSWITCH1_version2_list3_2023-12-05_11h21.18.227_micRespv2l3_recorded\recording_micRespv2l3_2023-12-05_11h24.42.511.wav;211.3351278;;None;;;;;;300203;1;2023-12-05_11h21.18.227;REPSWITCH1_version2_list3;2022.2.4;144.0297512;
REPSWITCH1/PICTURE_517.png;cuerda;speak;darkblue;nontarget;2;NT;2;2;3;2;Stim4_Set2;1;switch;42;41;42;0;41;41;41;;;;;;;;;;;;;;;;;;;;;;;211.8351169;212.9810833;212.9810833;212.9810833;212.9810833;212.9810833;212.9810833;212.9810833;212.9810833;216.0092734;216.0092734;216.0092734;216.0092734;216.0092734;216.0092734;None;0;;;C:\2023\REPSWITCH21092023\REPSWITCH_excgange\REPSWITCH_excgange\data/300203_REPSWITCH1_version2_list3_2023-12-05_11h21.18.227_micRespv2l3_recorded\recording_micRespv2l3_2023-12-05_11h24.47.185.wav;216.0092734;;None;;;;;;300203;1;2023-12-05_11h21.18.227;REPSWITCH1_version2_list3;2022.2.4;144.0297512;
REPSWITCH1/PICTURE_517.png;cuerda;speak;darkblue;repeat;2;T;2;2;3;2;Stim4_Set2;0;None;43;42;43;0;42;42;42;;;;;;;;;;;;;;;;;;;;;;;216.509328;217.5650446;217.5650446;217.5650446;217.5650446;217.5650446;217.5650446;217.5650446;217.5650446;220.5862346;220.5862346;220.5862346;220.5862346;220.5862346;220.5862346;None;0;;;C:\2023\REPSWITCH21092023\REPSWITCH_excgange\REPSWITCH_excgange\data/300203_REPSWITCH1_version2_list3_2023-12-05_11h21.18.227_micRespv2l3_recorded\recording_micRespv2l3_2023-12-05_11h24.51.768.wav;220.5862346;221.0863138;None;;;;;;300203;1;2023-12-05_11h21.18.227;REPSWITCH1_version2_list3;2022.2.4;144.0297512;
REPSWITCH1/PICTURE_178.png;puente;type;gold;filler;1;F;2;2;3;2;Stim1_Set1;0;None;44;43;44;0;43;43;43;;;;;;;;;;;;;;;;;;;;;;;221.0863138;222.1767702;222.1767702;222.1767702;222.1767702;222.1767702;222.1767702;222.1767702;222.1767702;225.204936;225.204936;225.204936;225.204936;225.204936;225.204936;['p', 'u', 'e', 'n', 't', 'e'];0;[0.7884890004061162, 0.8982598003931344, 1.0377936004661024, 1.1804610001854599, 1.3221668004989624, 1.4450511005707085];puente;C:\2023\REPSWITCH21092023\REPSWITCH_excgange\REPSWITCH_excgange\data/300203_REPSWITCH1_version2_list3_2023-12-05_11h21.18.227_micRespv2l3_recorded\recording_micRespv2l3_2023-12-05_11h24.56.380.wav;225.204936;;None;;;;;;300203;1;2023-12-05_11h21.18.227;REPSWITCH1_version2_list3;2022.2.4;144.0297512;
REPSWITCH1/PICTURE_199.png;falda;speak;darkblue;nontarget;2;NT;2;2;3;2;Stim8_Set2;1;switch;45;44;45;0;44;44;44;;;;;;;;;;;;;;;;;;;;;;;225.7049939;226.7746603;226.7746603;226.7746603;226.7746603;226.7746603;226.7746603;226.7746603;226.7746603;229.7957821;229.7957821;229.7957821;229.7957821;229.7957821;229.7957821;None;0;;;C:\2023\REPSWITCH21092023\REPSWITCH_excgange\REPSWITCH_excgange\data/300203_REPSWITCH1_version2_list3_2023-12-05_11h21.18.227_micRespv2l3_recorded\recording_micRespv2l3_2023-12-05_11h25.00.978.wav;229.7957821;230.2958684;None;;;;;;300203;1;2023-12-05_11h21.18.227;REPSWITCH1_version2_list3;2022.2.4;144.0297512;
REPSWITCH1/PICTURE_199.png;falda;speak;darkblue;repeat;2;T;2;2;3;2;Stim8_Set2;0;None;46;45;46;0;45;45;45;;;;;;;;;;;;;;;;;;;;;;;230.2958684;231.3515694;231.3515694;231.3515694;231.3515694;231.3515694;231.3515694;231.3515694;231.3515694;234.3798214;234.3798214;234.3798214;234.3798214;234.3798214;234.3798214;None;0;;;C:\2023\REPSWITCH21092023\REPSWITCH_excgange\REPSWITCH_excgange\data/300203_REPSWITCH1_version2_list3_2023-12-05_11h21.18.227_micRespv2l3_recorded\recording_micRespv2l3_2023-12-05_11h25.05.555.wav;234.3798214;;None;;;;;;300203;1;2023-12-05_11h21.18.227;REPSWITCH1_version2_list3;2022.2.4;144.0297512;
REPSWITCH1/PICTURE_169.png;espalda;type;gold;filler;1;F;2;2;3;2;Stim8_Set1;0;None;47;46;47;0;46;46;46;;;;;;;;;;;;;;;;;;;;;;;234.8798049;236.0119561;236.0119561;236.0119561;236.0119561;236.0119561;236.0119561;236.0119561;236.0119561;239.0331604;239.0331604;239.0331604;239.0331604;239.0331604;239.0331604;['e', 's', 'p', 'a', 'l', 'd', 'a'];0;[0.804338600486517, 0.9219473004341125, 1.0934477001428604, 1.2152205002494156, 1.3756431005895138, 1.5654238001443446, 1.695009800605476];espalda;C:\2023\REPSWITCH21092023\REPSWITCH_excgange\REPSWITCH_excgange\data/300203_REPSWITCH1_version2_list3_2023-12-05_11h21.18.227_micRespv2l3_recorded\recording_micRespv2l3_2023-12-05_11h25.10.215.wav;239.0331604;239.5331938;None;;;;;;300203;1;2023-12-05_11h21.18.227;REPSWITCH1_version2_list3;2022.2.4;144.0297512;
REPSWITCH1/PICTURE_142.png;vaso;speak;darkblue;filler;2;F;2;2;3;2;Stim7_Set1;0;None;48;47;48;0;47;47;47;;;;;;;;;;;;;;;;;;;;;;;239.5331938;240.6861703;240.6861703;240.6861703;240.6861703;240.6861703;240.6861703;240.6861703;240.6861703;243.7073339;243.7073339;243.7073339;243.7073339;243.7073339;243.7073339;None;0;;;C:\2023\REPSWITCH21092023\REPSWITCH_excgange\REPSWITCH_excgange\data/300203_REPSWITCH1_version2_list3_2023-12-05_11h21.18.227_micRespv2l3_recorded\recording_micRespv2l3_2023-12-05_11h25.14.889.wav;243.7073339;244.2074062;None;;;;;;300203;1;2023-12-05_11h21.18.227;REPSWITCH1_version2_list3;2022.2.4;144.0297512;
REPSWITCH1/PICTURE_552.png;manzana;speak;darkblue;nontarget;2;NT;2;2;3;2;Stim6_Set2;0;None;49;48;49;0;48;48;48;;;;;;;;;;;;;;;;;;;;;;;244.2074062;245.2770396;245.2770396;245.2770396;245.2770396;245.2770396;245.2770396;245.2770396;245.2770396;248.2982277;248.2982277;248.2982277;248.2982277;248.2982277;248.2982277;None;0;;;C:\2023\REPSWITCH21092023\REPSWITCH_excgange\REPSWITCH_excgange\data/300203_REPSWITCH1_version2_list3_2023-12-05_11h21.18.227_micRespv2l3_recorded\recording_micRespv2l3_2023-12-05_11h25.19.481.wav;248.2982277;248.7982863;None;;;;;;300203;1;2023-12-05_11h21.18.227;REPSWITCH1_version2_list3;2022.2.4;144.0297512;
REPSWITCH1/PICTURE_552.png;manzana;type;gold;switch;1;T;2;2;3;2;Stim6_Set2;0;None;50;49;50;0;49;49;49;;;;;;;;;;;;;;;;;;;;;;;248.7982863;249.8262396;249.8262396;249.8262396;249.8262396;249.8262396;249.8262396;249.8262396;249.8262396;252.8474313;252.8474313;252.8474313;252.8474313;252.8474313;252.8474313;['m', 'a', 'n', 'z', 'a', 'n', 'a'];0;[0.7905998001806438, 0.9617507001385093, 1.0942060998640954, 1.2560145002789795, 1.4543543001636863, 1.5789358001202345, 1.6845805998891592];manzana;C:\2023\REPSWITCH21092023\REPSWITCH_excgange\REPSWITCH_excgange\data/300203_REPSWITCH1_version2_list3_2023-12-05_11h21.18.227_micRespv2l3_recorded\recording_micRespv2l3_2023-12-05_11h25.24.030.wav;252.8474313;253.3475006;None;;;;;;300203;1;2023-12-05_11h21.18.227;REPSWITCH1_version2_list3;2022.2.4;144.0297512;
REPSWITCH1/PICTURE_590.png;escoba;speak;darkblue;filler;2;F;1;2;3;2;Extra3;0;None;51;50;51;0;50;50;50;;;;;;;;;;;;;;;;;;;;;;;253.3475006;254.4171653;254.4171653;254.4171653;254.4171653;254.4171653;254.4171653;254.4171653;254.4171653;257.4383903;257.4383903;257.4383903;257.4383903;257.4383903;257.4383903;None;0;;;C:\2023\REPSWITCH21092023\REPSWITCH_excgange\REPSWITCH_excgange\data/300203_REPSWITCH1_version2_list3_2023-12-05_11h21.18.227_micRespv2l3_recorded\recording_micRespv2l3_2023-12-05_11h25.28.620.wav;257.4383903;257.938385;space;257.938385;257.938385;5.6060966;;;300203;1;2023-12-05_11h21.18.227;REPSWITCH1_version2_list3;2022.2.4;144.0297512;
REPSWITCH1/PICTURE_552.png;manzana;type;gold;filler;1;F;3;2;3;2;Stim6_Set2;0;None;52;51;52;0;51;51;51;;;;;;;;;;;;;;;;;;;;;;;263.5572023;264.6753922;264.6753922;264.6753922;264.6753922;264.6753922;264.6753922;264.6753922;264.6753922;267.7035767;267.7035767;267.7035767;267.7035767;267.7035767;267.7035767;['m', 'a', 'n', 'z', 'a', 'n', 'a'];0;[0.8288386003114283, 0.9374639000743628, 1.013211800251156, 1.1518973000347614, 1.3533101002685726, 1.4629268003627658, 1.5836315001361072];manzana;C:\2023\REPSWITCH21092023\REPSWITCH_excgange\REPSWITCH_excgange\data/300203_REPSWITCH1_version2_list3_2023-12-05_11h21.18.227_micRespv2l3_recorded\recording_micRespv2l3_2023-12-05_11h25.38.879.wav;267.7035767;;None;;;;;;300203;1;2023-12-05_11h21.18.227;REPSWITCH1_version2_list3;2022.2.4;144.0297512;
REPSWITCH1/PICTURE_464.png;goma;type;gold;nontarget;1;NT;3;2;3;2;Stim6_Set3;1;repeat;53;52;53;0;52;52;52;;;;;;;;;;;;;;;;;;;;;;;268.2036211;269.314889;269.314889;269.314889;269.314889;269.314889;269.314889;269.314889;269.314889;272.3360991;272.3360991;272.3360991;272.3360991;272.3360991;272.3360991;['g', 'o', 'm', 'a'];0;[0.9014255004003644, 1.0393091002479196, 1.148573400452733, 1.2731594000943005];goma;C:\2023\REPSWITCH21092023\REPSWITCH_excgange\REPSWITCH_excgange\data/300203_REPSWITCH1_version2_list3_2023-12-05_11h21.18.227_micRespv2l3_recorded\recording_micRespv2l3_2023-12-05_11h25.43.517.wav;272.3360991;272.8362051;None;;;;;;300203;1;2023-12-05_11h21.18.227;REPSWITCH1_version2_list3;2022.2.4;144.0297512;
REPSWITCH1/PICTURE_464.png;goma;speak;darkblue;switch;2;T;3;2;3;2;Stim6_Set3;0;None;54;53;54;0;53;53;53;;;;;;;;;;;;;;;;;;;;;;;272.8362051;273.9892038;273.9892038;273.9892038;273.9892038;273.9892038;273.9892038;273.9892038;273.9892038;277.0172841;277.0172841;277.0172841;277.0172841;277.0172841;277.0172841;None;0;;;C:\2023\REPSWITCH21092023\REPSWITCH_excgange\REPSWITCH_excgange\data/300203_REPSWITCH1_version2_list3_2023-12-05_11h21.18.227_micRespv2l3_recorded\recording_micRespv2l3_2023-12-05_11h25.48.192.wav;277.0172841;;None;;;;;;300203;1;2023-12-05_11h21.18.227;REPSWITCH1_version2_list3;2022.2.4;144.0297512;
REPSWITCH1/PICTURE_30.png;granja;speak;darkblue;filler;2;F;3;2;3;2;Stim5_Set2;0;None;55;54;55;0;54;54;54;;;;;;;;;;;;;;;;;;;;;;;277.5173456;278.5244661;278.5244661;278.5244661;278.5244661;278.5244661;278.5244661;278.5244661;278.5244661;281.5526292;281.5526292;281.5526292;281.5526292;281.5526292;281.5526292;None;0;;;C:\2023\REPSWITCH21092023\REPSWITCH_excgange\REPSWITCH_excgange\data/300203_REPSWITCH1_version2_list3_2023-12-05_11h21.18.227_micRespv2l3_recorded\recording_micRespv2l3_2023-12-05_11h25.52.728.wav;281.5526292;;None;;;;;;300203;1;2023-12-05_11h21.18.227;REPSWITCH1_version2_list3;2022.2.4;144.0297512;
REPSWITCH1/PICTURE_235.png;aguja;speak;darkblue;nontarget;2;NT;3;2;3;2;Stim4_Set3;1;repeat;56;55;56;0;55;55;55;;;;;;;;;;;;;;;;;;;;;;;282.0526876;283.1222799;283.1222799;283.1222799;283.1222799;283.1222799;283.1222799;283.1222799;283.1222799;286.1435015;286.1435015;286.1435015;286.1435015;286.1435015;286.1435015;None;0;;;C:\2023\REPSWITCH21092023\REPSWITCH_excgange\REPSWITCH_excgange\data/300203_REPSWITCH1_version2_list3_2023-12-05_11h21.18.227_micRespv2l3_recorded\recording_micRespv2l3_2023-12-05_11h25.57.325.wav;286.1435015;286.64364;None;;;;;;300203;1;2023-12-05_11h21.18.227;REPSWITCH1_version2_list3;2022.2.4;144.0297512;
REPSWITCH1/PICTURE_235.png;aguja;type;gold;switch;1;T;3;2;3;2;Stim4_Set3;0;None;57;56;57;0;56;56;56;;;;;;;;;;;;;;;;;;;;;;;286.64364;287.7201056;287.7201056;287.7201056;287.7201056;287.7201056;287.7201056;287.7201056;287.7201056;290.7483417;290.7483417;290.7483417;290.7483417;290.7483417;290.7483417;['a', 'g', 'u', 'a', 'backspace', 'j', 'a'];0;[0.4706800002604723, 0.6257956004701555, 1.1725070006214082, 1.4908570004627109, 1.8601003005169332, 2.0673987003974617, 2.1885005002841353];aguja;C:\2023\REPSWITCH21092023\REPSWITCH_excgange\REPSWITCH_excgange\data/300203_REPSWITCH1_version2_list3_2023-12-05_11h21.18.227_micRespv2l3_recorded\recording_micRespv2l3_2023-12-05_11h26.01.924.wav;290.7483417;;None;;;;;;300203;1;2023-12-05_11h21.18.227;REPSWITCH1_version2_list3;2022.2.4;144.0297512;
REPSWITCH1/PICTURE_391.png;cadena;type;gold;filler;1;F;3;2;3;2;Extra2;0;None;58;57;58;0;57;57;57;;;;;;;;;;;;;;;;;;;;;;;291.2483177;292.297077;292.297077;292.297077;292.297077;292.297077;292.297077;292.297077;292.297077;295.3182925;295.3182925;295.3182925;295.3182925;295.3182925;295.3182925;['c', 'a', 'd', 'e', 'n', 'a'];0;[1.2487281998619437, 1.3633917002007365, 1.4880244000814855, 1.6656287000514567, 1.755686900112778, 1.8707443000748754];cadena;C:\2023\REPSWITCH21092023\REPSWITCH_excgange\REPSWITCH_excgange\data/300203_REPSWITCH1_version2_list3_2023-12-05_11h21.18.227_micRespv2l3_recorded\recording_micRespv2l3_2023-12-05_11h26.06.501.wav;295.3182925;295.8183647;None;;;;;;300203;1;2023-12-05_11h21.18.227;REPSWITCH1_version2_list3;2022.2.4;144.0297512;
REPSWITCH1/PICTURE_320.png;iglesia;type;gold;nontarget;1;NT;3;2;3;2;Stim8_Set3;0;None;59;58;59;0;58;58;58;;;;;;;;;;;;;;;;;;;;;;;295.8183647;296.8880203;296.8880203;296.8880203;296.8880203;296.8880203;296.8880203;296.8880203;296.8880203;299.9162111;299.9162111;299.9162111;299.9162111;299.9162111;299.9162111;['i', 'g', 'l', 'e', 's', 'i', 'a'];0;[0.7026631999760866, 0.8962853001430631, 1.1225668000988662, 1.2354867001995444, 1.4441646998748183, 1.5760229001753032, 1.720544199924916];iglesia;C:\2023\REPSWITCH21092023\REPSWITCH_excgange\REPSWITCH_excgange\data/300203_REPSWITCH1_version2_list3_2023-12-05_11h21.18.227_micRespv2l3_recorded\recording_micRespv2l3_2023-12-05_11h26.11.092.wav;299.9162111;;None;;;;;;300203;1;2023-12-05_11h21.18.227;REPSWITCH1_version2_list3;2022.2.4;144.0297512;
REPSWITCH1/PICTURE_320.png;iglesia;speak;darkblue;switch;2;T;3;2;3;2;Stim8_Set3;0;None;60;59;60;0;59;59;59;;;;;;;;;;;;;;;;;;;;;;;300.4162083;301.5066199;301.5066199;301.5066199;301.5066199;301.5066199;301.5066199;301.5066199;301.5066199;304.5348139;304.5348139;304.5348139;304.5348139;304.5348139;304.5348139;None;0;;;C:\2023\REPSWITCH21092023\REPSWITCH_excgange\REPSWITCH_excgange\data/300203_REPSWITCH1_version2_list3_2023-12-05_11h21.18.227_micRespv2l3_recorded\recording_micRespv2l3_2023-12-05_11h26.15.711.wav;304.5348139;;None;;;;;;300203;1;2023-12-05_11h21.18.227;REPSWITCH1_version2_list3;2022.2.4;144.0297512;
REPSWITCH1/PICTURE_175.png;pintor;type;gold;filler;1;F;3;2;3;2;Stim1_Set2;0;None;61;60;61;0;60;60;60;;;;;;;;;;;;;;;;;;;;;;;305.0348775;306.0906096;306.0906096;306.0906096;306.0906096;306.0906096;306.0906096;306.0906096;306.0906096;309.1117867;309.1117867;309.1117867;309.1117867;309.1117867;309.1117867;['p', 'i', 'n', 't', 'o', 'r'];0;[1.3406009003520012, 1.4502614000812173, 1.5480553000234067, 1.6734619000926614, 1.7970950002782047, 1.8844230002723634];pintor;C:\2023\REPSWITCH21092023\REPSWITCH_excgange\REPSWITCH_excgange\data/300203_REPSWITCH1_version2_list3_2023-12-05_11h21.18.227_micRespv2l3_recorded\recording_micRespv2l3_2023-12-05_11h26.20.294.wav;309.1117867;309.6118791;None;;;;;;300203;1;2023-12-05_11h21.18.227;REPSWITCH1_version2_list3;2022.2.4;144.0297512;
REPSWITCH1/PICTURE_271.png;conejo;speak;darkblue;nontarget;2;NT;3;2;3;2;Stim7_Set3;1;switch;62;61;62;0;61;61;61;;;;;;;;;;;;;;;;;;;;;;;309.6118791;310.8134642;310.8134642;310.8134642;310.8134642;310.8134642;310.8134642;310.8134642;310.8134642;313.8416016;313.8416016;313.8416016;313.8416016;313.8416016;313.8416016;None;0;;;C:\2023\REPSWITCH21092023\REPSWITCH_excgange\REPSWITCH_excgange\data/300203_REPSWITCH1_version2_list3_2023-12-05_11h21.18.227_micRespv2l3_recorded\recording_micRespv2l3_2023-12-05_11h26.25.017.wav;313.8416016;;None;;;;;;300203;1;2023-12-05_11h21.18.227;REPSWITCH1_version2_list3;2022.2.4;144.0297512;
REPSWITCH1/PICTURE_271.png;conejo;speak;darkblue;repeat;2;T;3;2;3;2;Stim7_Set3;0;None;63;62;63;0;62;62;62;;;;;;;;;;;;;;;;;;;;;;;314.3416478;315.3973843;315.3973843;315.3973843;315.3973843;315.3973843;315.3973843;315.3973843;315.3973843;318.4255062;318.4255062;318.4255062;318.4255062;318.4255062;318.4255062;None;0;;;C:\2023\REPSWITCH21092023\REPSWITCH_excgange\REPSWITCH_excgange\data/300203_REPSWITCH1_version2_list3_2023-12-05_11h21.18.227_micRespv2l3_recorded\recording_micRespv2l3_2023-12-05_11h26.29.601.wav;318.4255062;;None;;;;;;300203;1;2023-12-05_11h21.18.227;REPSWITCH1_version2_list3;2022.2.4;144.0297512;
REPSWITCH1/PICTURE_446.png;cerdo;speak;darkblue;filler;2;F;3;2;3;2;Stim7_Set2;0;None;64;63;64;0;63;63;63;;;;;;;;;;;;;;;;;;;;;;;318.9256036;320.0160049;320.0160049;320.0160049;320.0160049;320.0160049;320.0160049;320.0160049;320.0160049;323.0373287;323.0373287;323.0373287;323.0373287;323.0373287;323.0373287;None;0;;;C:\2023\REPSWITCH21092023\REPSWITCH_excgange\REPSWITCH_excgange\data/300203_REPSWITCH1_version2_list3_2023-12-05_11h21.18.227_micRespv2l3_recorded\recording_micRespv2l3_2023-12-05_11h26.34.218.wav;323.0373287;323.5372937;None;;;;;;300203;1;2023-12-05_11h21.18.227;REPSWITCH1_version2_list3;2022.2.4;144.0297512;
REPSWITCH1/PICTURE_152.png;caracol;type;gold;filler;1;F;3;2;3;2;Stim2_Set2;0;None;65;64;65;0;64;64;64;;;;;;;;;;;;;;;;;;;;;;;323.5372937;324.6277459;324.6277459;324.6277459;324.6277459;324.6277459;324.6277459;324.6277459;324.6277459;327.64893;327.64893;327.64893;327.64893;327.64893;327.64893;['c', 'a', 'r', 'a', 'c', 'o', 'l'];0;[0.7337616998702288, 0.8732838998548687, 0.9968721000477672, 1.1505783000029624, 1.362687500193715, 1.4713004999794066, 1.6544317998923361];caracol;C:\2023\REPSWITCH21092023\REPSWITCH_excgange\REPSWITCH_excgange\data/300203_REPSWITCH1_version2_list3_2023-12-05_11h21.18.227_micRespv2l3_recorded\recording_micRespv2l3_2023-12-05_11h26.38.830.wav;327.64893;328.1489951;None;;;;;;300203;1;2023-12-05_11h21.18.227;REPSWITCH1_version2_list3;2022.2.4;144.0297512;
REPSWITCH1/PICTURE_576.png;guante;speak;darkblue;nontarget;2;NT;3;2;3;2;Stim1_Set3;1;switch;66;65;66;0;65;65;65;;;;;;;;;;;;;;;;;;;;;;;328.1489951;329.308933;329.308933;329.308933;329.308933;329.308933;329.308933;329.308933;329.308933;332.3370474;332.3370474;332.3370474;332.3370474;332.3370474;332.3370474;None;0;;;C:\2023\REPSWITCH21092023\REPSWITCH_excgange\REPSWITCH_excgange\data/300203_REPSWITCH1_version2_list3_2023-12-05_11h21.18.227_micRespv2l3_recorded\recording_micRespv2l3_2023-12-05_11h26.43.512.wav;332.3370474;;None;;;;;;300203;1;2023-12-05_11h21.18.227;REPSWITCH1_version2_list3;2022.2.4;144.0297512;
REPSWITCH1/PICTURE_576.png;guante;speak;darkblue;repeat;2;T;3;2;3;2;Stim1_Set3;0;None;67;66;67;0;66;66;66;;;;;;;;;;;;;;;;;;;;;;;332.8371372;333.9831673;333.9831673;333.9831673;333.9831673;333.9831673;333.9831673;333.9831673;333.9831673;337.011283;337.011283;337.011283;337.011283;337.011283;337.011283;None;0;;;C:\2023\REPSWITCH21092023\REPSWITCH_excgange\REPSWITCH_excgange\data/300203_REPSWITCH1_version2_list3_2023-12-05_11h21.18.227_micRespv2l3_recorded\recording_micRespv2l3_2023-12-05_11h26.48.186.wav;337.011283;;None;;;;;;300203;1;2023-12-05_11h21.18.227;REPSWITCH1_version2_list3;2022.2.4;144.0297512;
REPSWITCH1/PICTURE_242.png;cartero;speak;darkblue;nontarget;2;NT;3;2;3;2;Stim3_Set3;0;None;68;67;68;0;67;67;67;;;;;;;;;;;;;;;;;;;;;;;337.5113364;338.6434507;338.6434507;338.6434507;338.6434507;338.6434507;338.6434507;338.6434507;338.6434507;341.6647078;341.6647078;341.6647078;341.6647078;341.6647078;341.6647078;None;0;;;C:\2023\REPSWITCH21092023\REPSWITCH_excgange\REPSWITCH_excgange\data/300203_REPSWITCH1_version2_list3_2023-12-05_11h21.18.227_micRespv2l3_recorded\recording_micRespv2l3_2023-12-05_11h26.52.846.wav;341.6647078;342.1647701;None;;;;;;300203;1;2023-12-05_11h21.18.227;REPSWITCH1_version2_list3;2022.2.4;144.0297512;
REPSWITCH1/PICTURE_242.png;cartero;type;gold;switch;1;T;3;2;3;2;Stim3_Set3;0;None;69;68;69;0;68;68;68;;;;;;;;;;;;;;;;;;;;;;;342.1647701;343.2760725;343.2760725;343.2760725;343.2760725;343.2760725;343.2760725;343.2760725;343.2760725;346.2972644;346.2972644;346.2972644;346.2972644;346.2972644;346.2972644;['c', 'a', 'r', 't', 'e', 'r', 'o'];0;[0.49160030018538237, 0.6611278001219034, 0.8105412004515529, 1.0437453002668917, 1.1882272004149854, 1.271908700466156, 1.4221704001538455];cartero;C:\2023\REPSWITCH21092023\REPSWITCH_excgange\REPSWITCH_excgange\data/300203_REPSWITCH1_version2_list3_2023-12-05_11h21.18.227_micRespv2l3_recorded\recording_micRespv2l3_2023-12-05_11h26.57.480.wav;346.2972644;346.7972822;None;;;;;;300203;1;2023-12-05_11h21.18.227;REPSWITCH1_version2_list3;2022.2.4;144.0297512;
REPSWITCH1/PICTURE_517.png;cuerda;speak;darkblue;filler;2;F;3;2;3;2;Stim4_Set2;0;None;70;69;70;0;69;69;69;;;;;;;;;;;;;;;;;;;;;;;346.7972822;348.0057944;348.0057944;348.0057944;348.0057944;348.0057944;348.0057944;348.0057944;348.0057944;351.0340323;351.0340323;351.0340323;351.0340323;351.0340323;351.0340323;None;0;;;C:\2023\REPSWITCH21092023\REPSWITCH_excgange\REPSWITCH_excgange\data/300203_REPSWITCH1_version2_list3_2023-12-05_11h21.18.227_micRespv2l3_recorded\recording_micRespv2l3_2023-12-05_11h27.02.209.wav;351.0340323;;None;;;;;;300203;1;2023-12-05_11h21.18.227;REPSWITCH1_version2_list3;2022.2.4;144.0297512;
REPSWITCH1/PICTURE_646.png;tronco;type;gold;filler;1;F;3;2;3;2;Extra4;0;None;71;70;71;0;70;70;70;;;;;;;;;;;;;;;;;;;;;;;351.5340397;352.5759201;352.5759201;352.5759201;352.5759201;352.5759201;352.5759201;352.5759201;352.5759201;355.6040248;355.6040248;355.6040248;355.6040248;355.6040248;355.6040248;['t', 'o', 'r', 'backspace', 'backspace', 'r', 'o', 'n', 'c'];0;[1.500152500346303, 1.6556174005381763, 1.7602605004794896, 2.165901300497353, 2.3214822001755238, 2.3985354006290436, 2.5450289002619684, 2.647689000237733, 2.910157300531864];tronc;C:\2023\REPSWITCH21092023\REPSWITCH_excgange\REPSWITCH_excgange\data/300203_REPSWITCH1_version2_list3_2023-12-05_11h21.18.227_micRespv2l3_recorded\recording_micRespv2l3_2023-12-05_11h27.06.780.wav;355.6040248;;None;;;;;;300203;1;2023-12-05_11h21.18.227;REPSWITCH1_version2_list3;2022.2.4;144.0297512;
REPSWITCH1/PICTURE_35.png;oreja;type;gold;nontarget;1;NT;3;2;3;2;Stim5_Set3;1;repeat;72;71;72;0;71;71;71;;;;;;;;;;;;;;;;;;;;;;;356.1041777;357.3056257;357.3056257;357.3056257;357.3056257;357.3056257;357.3056257;357.3056257;357.3056257;360.3269092;360.3269092;360.3269092;360.3269092;360.3269092;360.3269092;['o', 'r', 'e', 'j', 'a'];0;[1.0572321005165577, 1.616813700646162, 1.896817700471729, 2.0204126005992293, 2.138038200326264];oreja;C:\2023\REPSWITCH21092023\REPSWITCH_excgange\REPSWITCH_excgange\data/300203_REPSWITCH1_version2_list3_2023-12-05_11h21.18.227_micRespv2l3_recorded\recording_micRespv2l3_2023-12-05_11h27.11.509.wav;360.3269092;360.8269423;None;;;;;;300203;1;2023-12-05_11h21.18.227;REPSWITCH1_version2_list3;2022.2.4;144.0297512;
REPSWITCH1/PICTURE_35.png;oreja;type;gold;repeat;1;T;3;2;3;2;Stim5_Set3;0;None;73;72;73;0;72;72;72;;;;;;;;;;;;;;;;;;;;;;;360.8269423;361.9173572;361.9173572;361.9173572;361.9173572;361.9173572;361.9173572;361.9173572;361.9173572;364.9455207;364.9455207;364.9455207;364.9455207;364.9455207;364.9455207;['o', 'r', 'e', 'j', 'a'];0;[1.1954605001956224, 1.2921412005089223, 1.4682749002240598, 1.6187288002111018, 1.7134566004388034];oreja;C:\2023\REPSWITCH21092023\REPSWITCH_excgange\REPSWITCH_excgange\data/300203_REPSWITCH1_version2_list3_2023-12-05_11h21.18.227_micRespv2l3_recorded\recording_micRespv2l3_2023-12-05_11h27.16.120.wav;364.9455207;365.4455946;None;;;;;;300203;1;2023-12-05_11h21.18.227;REPSWITCH1_version2_list3;2022.2.4;144.0297512;
REPSWITCH1/PICTURE_199.png;falda;speak;darkblue;filler;2;F;3;2;3;2;Stim8_Set2;0;None;74;73;74;0;73;73;73;;;;;;;;;;;;;;;;;;;;;;;365.4455946;366.5360078;366.5360078;366.5360078;366.5360078;366.5360078;366.5360078;366.5360078;366.5360078;369.564208;369.564208;369.564208;369.564208;369.564208;369.564208;None;0;;;C:\2023\REPSWITCH21092023\REPSWITCH_excgange\REPSWITCH_excgange\data/300203_REPSWITCH1_version2_list3_2023-12-05_11h21.18.227_micRespv2l3_recorded\recording_micRespv2l3_2023-12-05_11h27.20.740.wav;369.564208;370.0642487;None;;;;;;300203;1;2023-12-05_11h21.18.227;REPSWITCH1_version2_list3;2022.2.4;144.0297512;
REPSWITCH1/PICTURE_610.png;miel;type;gold;nontarget;1;NT;3;2;3;2;Stim2_Set3;1;switch;75;74;75;0;74;74;74;;;;;;;;;;;;;;;;;;;;;;;370.0642487;371.2380247;371.2380247;371.2380247;371.2380247;371.2380247;371.2380247;371.2380247;371.2380247;374.2592481;374.2592481;374.2592481;374.2592481;374.2592481;374.2592481;['m', 'i', 'e', 'l'];0;[0.8650242001749575, 0.9827227001078427, 1.095247800461948, 1.242786000482738];miel;C:\2023\REPSWITCH21092023\REPSWITCH_excgange\REPSWITCH_excgange\data/300203_REPSWITCH1_version2_list3_2023-12-05_11h21.18.227_micRespv2l3_recorded\recording_micRespv2l3_2023-12-05_11h27.25.441.wav;374.2592481;374.7593092;None;;;;;;300203;1;2023-12-05_11h21.18.227;REPSWITCH1_version2_list3;2022.2.4;144.0297512;
REPSWITCH1/PICTURE_610.png;miel;type;gold;repeat;1;T;3;2;3;2;Stim2_Set3;0;None;76;75;76;0;75;75;75;;;;;;;;;;;;;;;;;;;;;;;374.7593092;375.9122405;375.9122405;375.9122405;375.9122405;375.9122405;375.9122405;375.9122405;375.9122405;378.9404036;378.9404036;378.9404036;378.9404036;378.9404036;378.9404036;['m', 'i', 'e', 'l'];0;[1.0023756003938615, 1.1188449002802372, 1.2085287002846599, 1.3181765000335872];miel;C:\2023\REPSWITCH21092023\REPSWITCH_excgange\REPSWITCH_excgange\data/300203_REPSWITCH1_version2_list3_2023-12-05_11h21.18.227_micRespv2l3_recorded\recording_micRespv2l3_2023-12-05_11h27.30.116.wav;378.9404036;;None;;;;;;300203;1;2023-12-05_11h21.18.227;REPSWITCH1_version2_list3;2022.2.4;144.0297512;
REPSWITCH1/PICTURE_264.png;mano;type;gold;filler;1;F;3;2;3;2;Stim3_Set2;1;repeat;77;76;77;0;76;76;76;;;;;;;;;;;;;;;;;;;;;;;379.4404837;380.4892855;380.4892855;380.4892855;380.4892855;380.4892855;380.4892855;380.4892855;380.4892855;383.51743;383.51743;383.51743;383.51743;383.51743;383.51743;['m', 'a', 'n', 'o'];0;[0.710306600201875, 0.7930103004910052, 0.8946333001367748, 0.9723532004281878];mano;C:\2023\REPSWITCH21092023\REPSWITCH_excgange\REPSWITCH_excgange\data/300203_REPSWITCH1_version2_list3_2023-12-05_11h21.18.227_micRespv2l3_recorded\recording_micRespv2l3_2023-12-05_11h27.34.693.wav;383.51743;;None;;;;;;300203;1;2023-12-05_11h21.18.227;REPSWITCH1_version2_list3;2022.2.4;144.0297512;
REPSWITCH1/PICTURE_464.png;goma;speak;darkblue;filler;2;F;4;2;3;2;Stim6_Set3;0;None;78;77;78;0;77;77;77;;;;;;;;;;;;;;;;;;;;;;;384.0174725;385.1148574;385.1148574;385.1148574;385.1148574;385.1148574;385.1148574;385.1148574;385.1148574;388.1360889;388.1360889;388.1360889;388.1360889;388.1360889;388.1360889;None;0;;;C:\2023\REPSWITCH21092023\REPSWITCH_excgange\REPSWITCH_excgange\data/300203_REPSWITCH1_version2_list3_2023-12-05_11h21.18.227_micRespv2l3_recorded\recording_micRespv2l3_2023-12-05_11h27.39.318.wav;388.1360889;388.6361641;None;;;;;;300203;1;2023-12-05_11h21.18.227;REPSWITCH1_version2_list3;2022.2.4;144.0297512;
REPSWITCH1/PICTURE_8.png;pierna;type;gold;nontarget;1;NT;4;2;3;2;Stim3_Set4;1;switch;79;78;79;0;78;78;78;;;;;;;;;;;;;;;;;;;;;;;388.6361641;389.7196396;389.7196396;389.7196396;389.7196396;389.7196396;389.7196396;389.7196396;389.7196396;392.7409436;392.7409436;392.7409436;392.7409436;392.7409436;392.7409436;['p', 'i', 'e', 'r', 'n', 'a'];0;[0.7826737002469599, 0.8885367000475526, 1.0091338003985584, 1.1187798003666103, 1.2227853001095355, 1.3887978000566363];pierna;C:\2023\REPSWITCH21092023\REPSWITCH_excgange\REPSWITCH_excgange\data/300203_REPSWITCH1_version2_list3_2023-12-05_11h21.18.227_micRespv2l3_recorded\recording_micRespv2l3_2023-12-05_11h27.43.922.wav;392.7409436;393.2409352;None;;;;;;300203;1;2023-12-05_11h21.18.227;REPSWITCH1_version2_list3;2022.2.4;144.0297512;
REPSWITCH1/PICTURE_8.png;pierna;type;gold;repeat;1;T;4;2;3;2;Stim3_Set4;0;None;80;79;80;0;79;79;79;;;;;;;;;;;;;;;;;;;;;;;393.2409352;394.3036019;394.3036019;394.3036019;394.3036019;394.3036019;394.3036019;394.3036019;394.3036019;397.3248215;397.3248215;397.3248215;397.3248215;397.3248215;397.3248215;['p', 'i', 'e', 'r', 'n', 'a'];0;[1.218521900009364, 1.3132019001059234, 1.4088571998290718, 1.4876140002161264, 1.62011650018394, 1.7616332001052797];pierna;C:\2023\REPSWITCH21092023\REPSWITCH_excgange\REPSWITCH_excgange\data/300203_REPSWITCH1_version2_list3_2023-12-05_11h21.18.227_micRespv2l3_recorded\recording_micRespv2l3_2023-12-05_11h27.48.507.wav;397.3248215;397.824866;None;;;;;;300203;1;2023-12-05_11h21.18.227;REPSWITCH1_version2_list3;2022.2.4;144.0297512;
REPSWITCH1/PICTURE_728.png;pulpo;type;gold;nontarget;1;NT;4;2;3;2;Stim8_Set4;1;repeat;81;80;81;0;80;80;80;;;;;;;;;;;;;;;;;;;;;;;397.824866;398.9153165;398.9153165;398.9153165;398.9153165;398.9153165;398.9153165;398.9153165;398.9153165;401.9365276;401.9365276;401.9365276;401.9365276;401.9365276;401.9365276;['p', 'u', 'l', 'o', 'backspace', 'p', 'o'];0;[0.8252260000444949, 0.9390948000364006, 1.10552420001477, 1.313158200122416, 1.6752407001331449, 1.909256000071764, 2.00592890009284];pulpo;C:\2023\REPSWITCH21092023\REPSWITCH_excgange\REPSWITCH_excgange\data/300203_REPSWITCH1_version2_list3_2023-12-05_11h21.18.227_micRespv2l3_recorded\recording_micRespv2l3_2023-12-05_11h27.53.119.wav;401.9365276;402.4365929;None;;;;;;300203;1;2023-12-05_11h21.18.227;REPSWITCH1_version2_list3;2022.2.4;144.0297512;
REPSWITCH1/PICTURE_728.png;pulpo;speak;darkblue;switch;2;T;4;2;3;2;Stim8_Set4;0;None;82;81;82;0;81;81;81;;;;;;;;;;;;;;;;;;;;;;;402.4365929;403.5131806;403.5131806;403.5131806;403.5131806;403.5131806;403.5131806;403.5131806;403.5131806;406.5412685;406.5412685;406.5412685;406.5412685;406.5412685;406.5412685;None;0;;;C:\2023\REPSWITCH21092023\REPSWITCH_excgange\REPSWITCH_excgange\data/300203_REPSWITCH1_version2_list3_2023-12-05_11h21.18.227_micRespv2l3_recorded\recording_micRespv2l3_2023-12-05_11h27.57.716.wav;406.5412685;;None;;;;;;300203;1;2023-12-05_11h21.18.227;REPSWITCH1_version2_list3;2022.2.4;144.0297512;
REPSWITCH1/PICTURE_235.png;aguja;type;gold;filler;1;F;4;2;3;2;Stim4_Set3;0;None;83;82;83;0;82;82;82;;;;;;;;;;;;;;;;;;;;;;;407.0413245;408.0623316;408.0623316;408.0623316;408.0623316;408.0623316;408.0623316;408.0623316;408.0623316;411.0835608;411.0835608;411.0835608;411.0835608;411.0835608;411.0835608;['a', 'g', 'u', 'j', 'a'];0;[0.8207853003405035, 0.9472308000549674, 1.0827370001934469, 1.3076187004335225, 1.3644168004393578];aguja;C:\2023\REPSWITCH21092023\REPSWITCH_excgange\REPSWITCH_excgange\data/300203_REPSWITCH1_version2_list3_2023-12-05_11h21.18.227_micRespv2l3_recorded\recording_micRespv2l3_2023-12-05_11h28.02.265.wav;411.0835608;411.583627;None;;;;;;300203;1;2023-12-05_11h21.18.227;REPSWITCH1_version2_list3;2022.2.4;144.0297512;
REPSWITCH1/PICTURE_498.png;taza;speak;darkblue;nontarget;2;NT;4;2;3;2;Stim4_Set4;1;switch;84;83;84;0;83;83;83;;;;;;;;;;;;;;;;;;;;;;;411.583627;412.7851537;412.7851537;412.7851537;412.7851537;412.7851537;412.7851537;412.7851537;412.7851537;415.8133204;415.8133204;415.8133204;415.8133204;415.8133204;415.8133204;None;0;;;C:\2023\REPSWITCH21092023\REPSWITCH_excgange\REPSWITCH_excgange\data/300203_REPSWITCH1_version2_list3_2023-12-05_11h21.18.227_micRespv2l3_recorded\recording_micRespv2l3_2023-12-05_11h28.06.988.wav;415.8133204;;None;;;;;;300203;1;2023-12-05_11h21.18.227;REPSWITCH1_version2_list3;2022.2.4;144.0297512;
REPSWITCH1/PICTURE_498.png;taza;speak;darkblue;repeat;2;T;4;2;3;2;Stim4_Set4;0;None;85;84;85;0;84;84;84;;;;;;;;;;;;;;;;;;;;;;;416.3133879;417.3482538;417.3482538;417.3482538;417.3482538;417.3482538;417.3482538;417.3482538;417.3482538;420.3764366;420.3764366;420.3764366;420.3764366;420.3764366;420.3764366;None;0;;;C:\2023\REPSWITCH21092023\REPSWITCH_excgange\REPSWITCH_excgange\data/300203_REPSWITCH1_version2_list3_2023-12-05_11h21.18.227_micRespv2l3_recorded\recording_micRespv2l3_2023-12-05_11h28.11.551.wav;420.3764366;;None;;;;;;300203;1;2023-12-05_11h21.18.227;REPSWITCH1_version2_list3;2022.2.4;144.0297512;
REPSWITCH1/PICTURE_719.png;baño;speak;darkblue;nontarget;2;NT;4;2;3;2;Stim2_Set4;0;None;86;85;86;0;85;85;85;;;;;;;;;;;;;;;;;;;;;;;420.8765128;421.9183334;421.9183334;421.9183334;421.9183334;421.9183334;421.9183334;421.9183334;421.9183334;424.9465413;424.9465413;424.9465413;424.9465413;424.9465413;424.9465413;None;0;;;C:\2023\REPSWITCH21092023\REPSWITCH_excgange\REPSWITCH_excgange\data/300203_REPSWITCH1_version2_list3_2023-12-05_11h21.18.227_micRespv2l3_recorded\recording_micRespv2l3_2023-12-05_11h28.16.122.wav;424.9465413;;None;;;;;;300203;1;2023-12-05_11h21.18.227;REPSWITCH1_version2_list3;2022.2.4;144.0297512;
REPSWITCH1/PICTURE_719.png;baño;type;gold;switch;1;T;4;2;3;2;Stim2_Set4;0;None;87;86;87;0;86;86;86;;;;;;;;;;;;;;;;;;;;;;;425.4465468;426.6064387;426.6064387;426.6064387;426.6064387;426.6064387;426.6064387;426.6064387;426.6064387;429.6346786;429.6346786;429.6346786;429.6346786;429.6346786;429.6346786;['b', 'a', 'ñ', 'o'];0;[0.5404724003747106, 0.6680491999723017, 0.785729099996388, 0.8767198999412358];baño;C:\2023\REPSWITCH21092023\REPSWITCH_excgange\REPSWITCH_excgange\data/300203_REPSWITCH1_version2_list3_2023-12-05_11h21.18.227_micRespv2l3_recorded\recording_micRespv2l3_2023-12-05_11h28.20.809.wav;429.6346786;;None;;;;;;300203;1;2023-12-05_11h21.18.227;REPSWITCH1_version2_list3;2022.2.4;144.0297512;
REPSWITCH1/PICTURE_320.png;iglesia;speak;darkblue;filler;2;F;4;2;3;2;Stim8_Set3;0;None;88;87;88;0;87;87;87;;;;;;;;;;;;;;;;;;;;;;;430.1346745;431.2667459;431.2667459;431.2667459;431.2667459;431.2667459;431.2667459;431.2667459;431.2667459;434.2879695;434.2879695;434.2879695;434.2879695;434.2879695;434.2879695;None;0;;;C:\2023\REPSWITCH21092023\REPSWITCH_excgange\REPSWITCH_excgange\data/300203_REPSWITCH1_version2_list3_2023-12-05_11h21.18.227_micRespv2l3_recorded\recording_micRespv2l3_2023-12-05_11h28.25.469.wav;434.2879695;434.7880674;None;;;;;;300203;1;2023-12-05_11h21.18.227;REPSWITCH1_version2_list3;2022.2.4;144.0297512;
REPSWITCH1/PICTURE_48.png;bombero;type;gold;nontarget;1;NT;4;2;3;2;Stim7_Set4;1;switch;89;88;89;0;88;88;88;;;;;;;;;;;;;;;;;;;;;;;434.7880674;435.8229947;435.8229947;435.8229947;435.8229947;435.8229947;435.8229947;435.8229947;435.8229947;438.8511631;438.8511631;438.8511631;438.8511631;438.8511631;438.8511631;['o', 'backspace', 'v', 'o', 'm', 'backspace', 'backspace', 'backspace', 'b', 'o', 'm'];0;[1.1170148001983762, 1.4738669004291296, 1.5704993004910648, 1.6792050004005432, 1.7838938003405929, 2.143054200336337, 2.298541000112891, 2.4560823002830148, 2.833548600319773, 2.895308800507337, 2.9763179002329707];bom;C:\2023\REPSWITCH21092023\REPSWITCH_excgange\REPSWITCH_excgange\data/300203_REPSWITCH1_version2_list3_2023-12-05_11h21.18.227_micRespv2l3_recorded\recording_micRespv2l3_2023-12-05_11h28.30.026.wav;438.8511631;439.3511643;None;;;;;;300203;1;2023-12-05_11h21.18.227;REPSWITCH1_version2_list3;2022.2.4;144.0297512;
REPSWITCH1/PICTURE_48.png;bombero;speak;darkblue;switch;2;T;4;2;3;2;Stim7_Set4;0;None;90;89;90;0;89;89;89;;;;;;;;;;;;;;;;;;;;;;;439.3511643;440.4901857;440.4901857;440.4901857;440.4901857;440.4901857;440.4901857;440.4901857;440.4901857;443.5114155;443.5114155;443.5114155;443.5114155;443.5114155;443.5114155;None;0;;;C:\2023\REPSWITCH21092023\REPSWITCH_excgange\REPSWITCH_excgange\data/300203_REPSWITCH1_version2_list3_2023-12-05_11h21.18.227_micRespv2l3_recorded\recording_micRespv2l3_2023-12-05_11h28.34.693.wav;443.5114155;444.0115063;None;;;;;;300203;1;2023-12-05_11h21.18.227;REPSWITCH1_version2_list3;2022.2.4;144.0297512;
REPSWITCH1/PICTURE_576.png;guante;type;gold;filler;1;F;4;2;3;2;Stim1_Set3;0;None;91;90;91;0;90;90;90;;;;;;;;;;;;;;;;;;;;;;;444.0115063;445.1088808;445.1088808;445.1088808;445.1088808;445.1088808;445.1088808;445.1088808;445.1088808;448.1370399;448.1370399;448.1370399;448.1370399;448.1370399;448.1370399;['h', 'backspace', 'h', 'backspace', 'g', 'u'];0;[1.6089395000599325, 2.134179800283164, 2.411248800344765, 2.7331674001179636, 2.8457802003249526, 2.9613764001987875];gu;C:\2023\REPSWITCH21092023\REPSWITCH_excgange\REPSWITCH_excgange\data/300203_REPSWITCH1_version2_list3_2023-12-05_11h21.18.227_micRespv2l3_recorded\recording_micRespv2l3_2023-12-05_11h28.39.312.wav;448.1370399;;None;;;;;;300203;1;2023-12-05_11h21.18.227;REPSWITCH1_version2_list3;2022.2.4;144.0297512;
REPSWITCH1/PICTURE_271.png;conejo;speak;darkblue;filler;2;F;4;2;3;2;Stim7_Set3;0;None;92;91;92;0;91;91;91;;;;;;;;;;;;;;;;;;;;;;;448.6371111;449.755386;449.755386;449.755386;449.755386;449.755386;449.755386;449.755386;449.755386;452.7834948;452.7834948;452.7834948;452.7834948;452.7834948;452.7834948;None;0;;;C:\2023\REPSWITCH21092023\REPSWITCH_excgange\REPSWITCH_excgange\data/300203_REPSWITCH1_version2_list3_2023-12-05_11h21.18.227_micRespv2l3_recorded\recording_micRespv2l3_2023-12-05_11h28.43.960.wav;452.7834948;;None;;;;;;300203;1;2023-12-05_11h21.18.227;REPSWITCH1_version2_list3;2022.2.4;144.0297512;
REPSWITCH1/PICTURE_319.png;vaca;speak;darkblue;nontarget;2;NT;4;2;3;2;Stim1_Set4;1;repeat;93;92;93;0;92;92;92;;;;;;;;;;;;;;;;;;;;;;;453.283557;454.2906294;454.2906294;454.2906294;454.2906294;454.2906294;454.2906294;454.2906294;454.2906294;457.3118701;457.3118701;457.3118701;457.3118701;457.3118701;457.3118701;None;0;;;C:\2023\REPSWITCH21092023\REPSWITCH_excgange\REPSWITCH_excgange\data/300203_REPSWITCH1_version2_list3_2023-12-05_11h21.18.227_micRespv2l3_recorded\recording_micRespv2l3_2023-12-05_11h28.48.493.wav;457.3118701;457.8120102;None;;;;;;300203;1;2023-12-05_11h21.18.227;REPSWITCH1_version2_list3;2022.2.4;144.0297512;
REPSWITCH1/PICTURE_319.png;vaca;speak;darkblue;repeat;2;T;4;2;3;2;Stim1_Set4;0;None;94;93;94;0;93;93;93;;;;;;;;;;;;;;;;;;;;;;;457.8120102;458.8329653;458.8329653;458.8329653;458.8329653;458.8329653;458.8329653;458.8329653;458.8329653;461.8541368;461.8541368;461.8541368;461.8541368;461.8541368;461.8541368;None;0;;;C:\2023\REPSWITCH21092023\REPSWITCH_excgange\REPSWITCH_excgange\data/300203_REPSWITCH1_version2_list3_2023-12-05_11h21.18.227_micRespv2l3_recorded\recording_micRespv2l3_2023-12-05_11h28.53.036.wav;461.8541368;462.3541795;None;;;;;;300203;1;2023-12-05_11h21.18.227;REPSWITCH1_version2_list3;2022.2.4;144.0297512;
REPSWITCH1/PICTURE_242.png;cartero;type;gold;filler;1;F;4;2;3;2;Stim3_Set3;0;None;95;94;95;0;94;94;94;;;;;;;;;;;;;;;;;;;;;;;462.3541795;463.4029653;463.4029653;463.4029653;463.4029653;463.4029653;463.4029653;463.4029653;463.4029653;466.4311353;466.4311353;466.4311353;466.4311353;466.4311353;466.4311353;['c', 'a', 'r', 't', 'e', 'r', 'o'];0;[0.7685791002586484, 0.9539479003287852, 1.0725585999898612, 1.288880500011146, 1.3785229003988206, 1.492140999995172, 1.6679218001663685];cartero;C:\2023\REPSWITCH21092023\REPSWITCH_excgange\REPSWITCH_excgange\data/300203_REPSWITCH1_version2_list3_2023-12-05_11h21.18.227_micRespv2l3_recorded\recording_micRespv2l3_2023-12-05_11h28.57.607.wav;466.4311353;;None;;;;;;300203;1;2023-12-05_11h21.18.227;REPSWITCH1_version2_list3;2022.2.4;144.0297512;
REPSWITCH1/PICTURE_35.png;oreja;speak;darkblue;filler;2;F;4;2;3;2;Stim5_Set3;1;switch;96;95;96;0;95;95;95;;;;;;;;;;;;;;;;;;;;;;;466.9311749;467.9590968;467.9590968;467.9590968;467.9590968;467.9590968;467.9590968;467.9590968;467.9590968;470.9872479;470.9872479;470.9872479;470.9872479;470.9872479;470.9872479;None;0;;;C:\2023\REPSWITCH21092023\REPSWITCH_excgange\REPSWITCH_excgange\data/300203_REPSWITCH1_version2_list3_2023-12-05_11h21.18.227_micRespv2l3_recorded\recording_micRespv2l3_2023-12-05_11h29.02.163.wav;470.9872479;;None;;;;;;300203;1;2023-12-05_11h21.18.227;REPSWITCH1_version2_list3;2022.2.4;144.0297512;
REPSWITCH1/PICTURE_338.png;regalo;speak;darkblue;nontarget;2;NT;4;2;3;2;Stim6_Set4;1;repeat;97;96;97;0;96;96;96;;;;;;;;;;;;;;;;;;;;;;;471.4873161;472.5083624;472.5083624;472.5083624;472.5083624;472.5083624;472.5083624;472.5083624;472.5083624;475.5295395;475.5295395;475.5295395;475.5295395;475.5295395;475.5295395;None;0;;;C:\2023\REPSWITCH21092023\REPSWITCH_excgange\REPSWITCH_excgange\data/300203_REPSWITCH1_version2_list3_2023-12-05_11h21.18.227_micRespv2l3_recorded\recording_micRespv2l3_2023-12-05_11h29.06.712.wav;475.5295395;476.0295939;None;;;;;;300203;1;2023-12-05_11h21.18.227;REPSWITCH1_version2_list3;2022.2.4;144.0297512;
REPSWITCH1/PICTURE_338.png;regalo;type;gold;switch;1;T;4;2;3;2;Stim6_Set4;0;None;98;97;98;0;97;97;97;;;;;;;;;;;;;;;;;;;;;;;476.0295939;477.1130709;477.1130709;477.1130709;477.1130709;477.1130709;477.1130709;477.1130709;477.1130709;480.1343129;480.1343129;480.1343129;480.1343129;480.1343129;480.1343129;['r', 'e', 'g', 'a', 'l', 'o'];0;[0.7938537001609802, 0.9353549000807106, 1.121754300314933, 1.231499600224197, 1.3926140004768968, 1.5671057002618909];regalo;C:\2023\REPSWITCH21092023\REPSWITCH_excgange\REPSWITCH_excgange\data/300203_REPSWITCH1_version2_list3_2023-12-05_11h21.18.227_micRespv2l3_recorded\recording_micRespv2l3_2023-12-05_11h29.11.315.wav;480.1343129;480.6343577;None;;;;;;300203;1;2023-12-05_11h21.18.227;REPSWITCH1_version2_list3;2022.2.4;144.0297512;
REPSWITCH1/PICTURE_687.png;camisa;type;gold;nontarget;1;NT;4;2;3;2;Stim5_Set4;0;None;99;98;99;0;98;98;98;;;;;;;;;;;;;;;;;;;;;;;480.6343577;481.8151157;481.8151157;481.8151157;481.8151157;481.8151157;481.8151157;481.8151157;481.8151157;484.8433142;484.8433142;484.8433142;484.8433142;484.8433142;484.8433142;['c', 'a', 'm', 'i', 's', 'a'];0;[0.6815495998598635, 0.7911721998825669, 0.9571675998158753, 1.3847348000854254, 1.4928814000450075, 1.8350416999310255];camisa;C:\2023\REPSWITCH21092023\REPSWITCH_excgange\REPSWITCH_excgange\data/300203_REPSWITCH1_version2_list3_2023-12-05_11h21.18.227_micRespv2l3_recorded\recording_micRespv2l3_2023-12-05_11h29.16.019.wav;484.8433142;;None;;;;;;300203;1;2023-12-05_11h21.18.227;REPSWITCH1_version2_list3;2022.2.4;144.0297512;
REPSWITCH1/PICTURE_687.png;camisa;type;gold;repeat;1;T;4;2;3;2;Stim5_Set4;0;None;100;99;100;0;99;99;99;;;;;;;;;;;;;;;;;;;;;;;485.3433096;486.4545997;486.4545997;486.4545997;486.4545997;486.4545997;486.4545997;486.4545997;486.4545997;489.4827975;489.4827975;489.4827975;489.4827975;489.4827975;489.4827975;['c', 'a', 'm', 'i', 's', 'a'];0;[0.6353804003447294, 0.7400147002190351, 0.8599300002679229, 0.9828136004507542, 1.0465655005536973, 1.1600838005542755];camisa;C:\2023\REPSWITCH21092023\REPSWITCH_excgange\REPSWITCH_excgange\data/300203_REPSWITCH1_version2_list3_2023-12-05_11h21.18.227_micRespv2l3_recorded\recording_micRespv2l3_2023-12-05_11h29.20.658.wav;489.4827975;;None;;;;;;300203;1;2023-12-05_11h21.18.227;REPSWITCH1_version2_list3;2022.2.4;144.0297512;
REPSWITCH1/PICTURE_340.png;espejo;speak;darkblue;filler;2;F;4;2;3;2;Extra1;0;None;101;100;101;0;100;100;100;;;;;;;;;;;;;;;;;;;;;;;489.9829065;491.1496617;491.1496617;491.1496617;491.1496617;491.1496617;491.1496617;491.1496617;491.1496617;494.1708487;494.1708487;494.1708487;494.1708487;494.1708487;494.1708487;None;0;;;C:\2023\REPSWITCH21092023\REPSWITCH_excgange\REPSWITCH_excgange\data/300203_REPSWITCH1_version2_list3_2023-12-05_11h21.18.227_micRespv2l3_recorded\recording_micRespv2l3_2023-12-05_11h29.25.353.wav;494.1708487;494.6709731;None;;;;;;300203;1;2023-12-05_11h21.18.227;REPSWITCH1_version2_list3;2022.2.4;144.0297512;
REPSWITCH1/PICTURE_610.png;miel;type;gold;filler;1;F;4;2;3;2;Stim2_Set3;0;None;102;101;102;0;101;101;101;;;;;;;;;;;;;;;;;;;;;;;494.6709731;495.7752601;495.7752601;495.7752601;495.7752601;495.7752601;495.7752601;495.7752601;495.7752601;498.796494;498.796494;498.796494;498.796494;498.796494;498.796494;['m', 'm', 'i', 'backspace', 'backspace', 'i', 'e', 'l'];0;[0.764656400308013, 0.9425960001535714, 0.9814546001143754, 1.45359030039981, 1.5891304002143443, 1.793440000154078, 1.9031736003234982, 2.038636500481516];miel;C:\2023\REPSWITCH21092023\REPSWITCH_excgange\REPSWITCH_excgange\data/300203_REPSWITCH1_version2_list3_2023-12-05_11h21.18.227_micRespv2l3_recorded\recording_micRespv2l3_2023-12-05_11h29.29.978.wav;498.796494;499.296556;space;499.296556;499.296556;8.625678801;;;300203;1;2023-12-05_11h21.18.227;REPSWITCH1_version2_list3;2022.2.4;144.0297512;
REPSWITCH1/PICTURE_8.png;pierna;type;gold;filler;1;F;1;4;3;2;Stim3_Set4;0;None;103;102;1;0;102;102;102;;;;;;;;;;;;;;;;;;;;;;;507.9296344;509.0200692;509.0200692;509.0200692;509.0200692;509.0200692;509.0200692;509.0200692;509.0200692;512.0412546;512.0412546;512.0412546;512.0412546;512.0412546;512.0412546;['p', 'i', 'e', 'r', 'n', 'a'];0;[0.664894100278616, 0.7904638000763953, 0.9171003000810742, 0.9978010002523661, 1.1382935005240142, 1.281905900221318];pierna;C:\2023\REPSWITCH21092023\REPSWITCH_excgange\REPSWITCH_excgange\data/300203_REPSWITCH1_version2_list3_2023-12-05_11h21.18.227_micRespv2l3_recorded\recording_micRespv2l3_2023-12-05_11h29.43.223.wav;512.0412546;512.5413301;None;;;;;;300203;1;2023-12-05_11h21.18.227;REPSWITCH1_version2_list3;2022.2.4;144.0297512;
REPSWITCH1/PICTURE_498.png;taza;speak;darkblue;filler;2;F;1;4;3;2;Stim4_Set4;0;None;104;103;2;0;103;103;103;;;;;;;;;;;;;;;;;;;;;;;512.5413301;513.6317915;513.6317915;513.6317915;513.6317915;513.6317915;513.6317915;513.6317915;513.6317915;516.6600147;516.6600147;516.6600147;516.6600147;516.6600147;516.6600147;None;0;;;C:\2023\REPSWITCH21092023\REPSWITCH_excgange\REPSWITCH_excgange\data/300203_REPSWITCH1_version2_list3_2023-12-05_11h21.18.227_micRespv2l3_recorded\recording_micRespv2l3_2023-12-05_11h29.47.835.wav;516.6600147;;None;;;;;;300203;1;2023-12-05_11h21.18.227;REPSWITCH1_version2_list3;2022.2.4;144.0297512;
REPSWITCH1/PICTURE_19.png;pavo;speak;darkblue;nontarget;2;NT;1;4;3;2;Stim5_Set1;1;repeat;105;104;3;0;104;104;104;;;;;;;;;;;;;;;;;;;;;;;517.1600208;518.2851908;518.2851908;518.2851908;518.2851908;518.2851908;518.2851908;518.2851908;518.2851908;521.3133912;521.3133912;521.3133912;521.3133912;521.3133912;521.3133912;None;0;;;C:\2023\REPSWITCH21092023\REPSWITCH_excgange\REPSWITCH_excgange\data/300203_REPSWITCH1_version2_list3_2023-12-05_11h21.18.227_micRespv2l3_recorded\recording_micRespv2l3_2023-12-05_11h29.52.489.wav;521.3133912;;None;;;;;;300203;1;2023-12-05_11h21.18.227;REPSWITCH1_version2_list3;2022.2.4;144.0297512;
REPSWITCH1/PICTURE_19.png;pavo;speak;darkblue;repeat;2;T;1;4;3;2;Stim5_Set1;0;None;106;105;4;0;105;105;105;;;;;;;;;;;;;;;;;;;;;;;521.8133833;522.8690773;522.8690773;522.8690773;522.8690773;522.8690773;522.8690773;522.8690773;522.8690773;525.8972403;525.8972403;525.8972403;525.8972403;525.8972403;525.8972403;None;0;;;C:\2023\REPSWITCH21092023\REPSWITCH_excgange\REPSWITCH_excgange\data/300203_REPSWITCH1_version2_list3_2023-12-05_11h21.18.227_micRespv2l3_recorded\recording_micRespv2l3_2023-12-05_11h29.57.073.wav;525.8972403;;None;;;;;;300203;1;2023-12-05_11h21.18.227;REPSWITCH1_version2_list3;2022.2.4;144.0297512;
REPSWITCH1/PICTURE_319.png;vaca;type;gold;filler;1;F;1;4;3;2;Stim1_Set4;1;repeat;107;106;5;0;106;106;106;;;;;;;;;;;;;;;;;;;;;;;526.3973932;527.522548;527.522548;527.522548;527.522548;527.522548;527.522548;527.522548;527.522548;530.5436898;530.5436898;530.5436898;530.5436898;530.5436898;530.5436898;['v', 'a', 'c', 'a'];0;[0.9236364006064832, 1.228646400384605, 1.3650607005693018, 1.4866144005209208];vaca;C:\2023\REPSWITCH21092023\REPSWITCH_excgange\REPSWITCH_excgange\data/300203_REPSWITCH1_version2_list3_2023-12-05_11h21.18.227_micRespv2l3_recorded\recording_micRespv2l3_2023-12-05_11h30.01.725.wav;530.5436898;531.0437871;None;;;;;;300203;1;2023-12-05_11h21.18.227;REPSWITCH1_version2_list3;2022.2.4;144.0297512;
REPSWITCH1/PICTURE_169.png;espalda;speak;darkblue;nontarget;2;NT;1;4;3;2;Stim8_Set1;1;switch;108;107;6;0;107;107;107;;;;;;;;;;;;;;;;;;;;;;;531.0437871;532.0717495;532.0717495;532.0717495;532.0717495;532.0717495;532.0717495;532.0717495;532.0717495;535.0929059;535.0929059;535.0929059;535.0929059;535.0929059;535.0929059;None;0;;;C:\2023\REPSWITCH21092023\REPSWITCH_excgange\REPSWITCH_excgange\data/300203_REPSWITCH1_version2_list3_2023-12-05_11h21.18.227_micRespv2l3_recorded\recording_micRespv2l3_2023-12-05_11h30.06.275.wav;535.0929059;535.593002;None;;;;;;300203;1;2023-12-05_11h21.18.227;REPSWITCH1_version2_list3;2022.2.4;144.0297512;
REPSWITCH1/PICTURE_169.png;espalda;speak;darkblue;repeat;2;T;1;4;3;2;Stim8_Set1;0;None;109;108;7;0;108;108;108;;;;;;;;;;;;;;;;;;;;;;;535.593002;536.7250847;536.7250847;536.7250847;536.7250847;536.7250847;536.7250847;536.7250847;536.7250847;539.7462889;539.7462889;539.7462889;539.7462889;539.7462889;539.7462889;None;0;;;C:\2023\REPSWITCH21092023\REPSWITCH_excgange\REPSWITCH_excgange\data/300203_REPSWITCH1_version2_list3_2023-12-05_11h21.18.227_micRespv2l3_recorded\recording_micRespv2l3_2023-12-05_11h30.10.928.wav;539.7462889;540.2463798;None;;;;;;300203;1;2023-12-05_11h21.18.227;REPSWITCH1_version2_list3;2022.2.4;144.0297512;
REPSWITCH1/PICTURE_728.png;pulpo;type;gold;filler;1;F;1;4;3;2;Stim8_Set4;0;None;110;109;8;0;109;109;109;;;;;;;;;;;;;;;;;;;;;;;540.2463798;541.3229296;541.3229296;541.3229296;541.3229296;541.3229296;541.3229296;541.3229296;541.3229296;544.3441762;544.3441762;544.3441762;544.3441762;544.3441762;544.3441762;['p', 'u', 'l', 'p', 'o'];0;[0.8220215006731451, 0.9300252003595233, 1.1323076002299786, 1.3679243004880846, 1.4730679006315768];pulpo;C:\2023\REPSWITCH21092023\REPSWITCH_excgange\REPSWITCH_excgange\data/300203_REPSWITCH1_version2_list3_2023-12-05_11h21.18.227_micRespv2l3_recorded\recording_micRespv2l3_2023-12-05_11h30.15.526.wav;544.3441762;544.8441805;None;;;;;;300203;1;2023-12-05_11h21.18.227;REPSWITCH1_version2_list3;2022.2.4;144.0297512;
REPSWITCH1/PICTURE_142.png;vaso;speak;darkblue;nontarget;2;NT;1;4;3;2;Stim7_Set1;1;switch;111;110;9;0;110;110;110;;;;;;;;;;;;;;;;;;;;;;;544.8441805;545.8999745;545.8999745;545.8999745;545.8999745;545.8999745;545.8999745;545.8999745;545.8999745;548.9211543;548.9211543;548.9211543;548.9211543;548.9211543;548.9211543;None;0;;;C:\2023\REPSWITCH21092023\REPSWITCH_excgange\REPSWITCH_excgange\data/300203_REPSWITCH1_version2_list3_2023-12-05_11h21.18.227_micRespv2l3_recorded\recording_micRespv2l3_2023-12-05_11h30.20.103.wav;548.9211543;549.4211718;None;;;;;;300203;1;2023-12-05_11h21.18.227;REPSWITCH1_version2_list3;2022.2.4;144.0297512;
REPSWITCH1/PICTURE_142.png;vaso;type;gold;switch;1;T;1;4;3;2;Stim7_Set1;0;None;112;111;10;0;111;111;111;;;;;;;;;;;;;;;;;;;;;;;549.4211718;550.4491323;550.4491323;550.4491323;550.4491323;550.4491323;550.4491323;550.4491323;550.4491323;553.4703209;553.4703209;553.4703209;553.4703209;553.4703209;553.4703209;['v', 'a', 's', 'o'];0;[0.8140818001702428, 1.0424244003370404, 1.4512713002040982, 1.5798628004267812];vaso;C:\2023\REPSWITCH21092023\REPSWITCH_excgange\REPSWITCH_excgange\data/300203_REPSWITCH1_version2_list3_2023-12-05_11h21.18.227_micRespv2l3_recorded\recording_micRespv2l3_2023-12-05_11h30.24.652.wav;553.4703209;553.9703959;None;;;;;;300203;1;2023-12-05_11h21.18.227;REPSWITCH1_version2_list3;2022.2.4;144.0297512;
REPSWITCH1/PICTURE_338.png;regalo;type;gold;filler;1;F;1;4;3;2;Stim6_Set4;1;repeat;113;112;11;0;112;112;112;;;;;;;;;;;;;;;;;;;;;;;553.9703959;555.0261345;555.0261345;555.0261345;555.0261345;555.0261345;555.0261345;555.0261345;555.0261345;558.0473233;558.0473233;558.0473233;558.0473233;558.0473233;558.0473233;['r', 'e', 'g', 'l', 'a', 'backspace', 'backspace', 'a', 'l', 'o'];0;[0.7131707002408803, 0.8149735005572438, 1.0244789002463222, 1.1772460006177425, 1.3401551004499197, 1.6032773004844785, 1.7490638005547225, 1.8241792004555464, 1.945118700619787, 2.100565100554377];regalo;C:\2023\REPSWITCH21092023\REPSWITCH_excgange\REPSWITCH_excgange\data/300203_REPSWITCH1_version2_list3_2023-12-05_11h21.18.227_micRespv2l3_recorded\recording_micRespv2l3_2023-12-05_11h30.29.229.wav;558.0473233;558.5473849;None;;;;;;300203;1;2023-12-05_11h21.18.227;REPSWITCH1_version2_list3;2022.2.4;144.0297512;
REPSWITCH1/PICTURE_135.png;traje;type;gold;nontarget;1;NT;1;4;3;2;Stim3_Set1;1;repeat;114;113;12;0;113;113;113;;;;;;;;;;;;;;;;;;;;;;;558.5473849;559.6030905;559.6030905;559.6030905;559.6030905;559.6030905;559.6030905;559.6030905;559.6030905;562.6312587;562.6312587;562.6312587;562.6312587;562.6312587;562.6312587;['t', 'r', 'a', 'j', 'e'];0;[0.7088132002390921, 0.9151551998220384, 1.0217677000910044, 1.144481800030917, 1.3345873998478055];traje;C:\2023\REPSWITCH21092023\REPSWITCH_excgange\REPSWITCH_excgange\data/300203_REPSWITCH1_version2_list3_2023-12-05_11h21.18.227_micRespv2l3_recorded\recording_micRespv2l3_2023-12-05_11h30.33.807.wav;562.6312587;;None;;;;;;300203;1;2023-12-05_11h21.18.227;REPSWITCH1_version2_list3;2022.2.4;144.0297512;
REPSWITCH1/PICTURE_135.png;traje;speak;darkblue;switch;2;T;1;4;3;2;Stim3_Set1;0;None;115;114;13;0;114;114;114;;;;;;;;;;;;;;;;;;;;;;;563.131326;564.312109;564.312109;564.312109;564.312109;564.312109;564.312109;564.312109;564.312109;567.3332542;567.3332542;567.3332542;567.3332542;567.3332542;567.3332542;None;0;;;C:\2023\REPSWITCH21092023\REPSWITCH_excgange\REPSWITCH_excgange\data/300203_REPSWITCH1_version2_list3_2023-12-05_11h21.18.227_micRespv2l3_recorded\recording_micRespv2l3_2023-12-05_11h30.38.516.wav;567.3332542;567.8333277;None;;;;;;300203;1;2023-12-05_11h21.18.227;REPSWITCH1_version2_list3;2022.2.4;144.0297512;
REPSWITCH1/PICTURE_381.png;fresa;speak;darkblue;nontarget;2;NT;1;4;3;2;Stim2_Set1;1;repeat;116;115;14;0;115;115;115;;;;;;;;;;;;;;;;;;;;;;;567.8333277;568.937685;568.937685;568.937685;568.937685;568.937685;568.937685;568.937685;568.937685;571.9589026;571.9589026;571.9589026;571.9589026;571.9589026;571.9589026;None;0;;;C:\2023\REPSWITCH21092023\REPSWITCH_excgange\REPSWITCH_excgange\data/300203_REPSWITCH1_version2_list3_2023-12-05_11h21.18.227_micRespv2l3_recorded\recording_micRespv2l3_2023-12-05_11h30.43.141.wav;571.9589026;572.4589704;None;;;;;;300203;1;2023-12-05_11h21.18.227;REPSWITCH1_version2_list3;2022.2.4;144.0297512;
REPSWITCH1/PICTURE_381.png;fresa;type;gold;switch;1;T;1;4;3;2;Stim2_Set1;0;None;117;116;15;0;116;116;116;;;;;;;;;;;;;;;;;;;;;;;572.4589704;573.6119489;573.6119489;573.6119489;573.6119489;573.6119489;573.6119489;573.6119489;573.6119489;576.6331872;576.6331872;576.6331872;576.6331872;576.6331872;576.6331872;['f', 'r', 'e', 's', 'a'];0;[0.644438000395894, 0.8418849003501236, 1.115982800256461, 1.3364537004381418, 1.6142379003576934];fresa;C:\2023\REPSWITCH21092023\REPSWITCH_excgange\REPSWITCH_excgange\data/300203_REPSWITCH1_version2_list3_2023-12-05_11h21.18.227_micRespv2l3_recorded\recording_micRespv2l3_2023-12-05_11h30.47.815.wav;576.6331872;577.133243;None;;;;;;300203;1;2023-12-05_11h21.18.227;REPSWITCH1_version2_list3;2022.2.4;144.0297512;
REPSWITCH1/PICTURE_48.png;bombero;type;gold;filler;1;F;1;4;3;2;Stim7_Set4;0;None;118;117;16;0;117;117;117;;;;;;;;;;;;;;;;;;;;;;;577.133243;578.25835;578.25835;578.25835;578.25835;578.25835;578.25835;578.25835;578.25835;581.2865133;581.2865133;581.2865133;581.2865133;581.2865133;581.2865133;['b', 'o', 'm', 'b', 'e', 'r', 'o'];0;[0.9969653999432921, 1.5601886003278196, 1.7883607000112534, 1.9432089002802968, 2.183160100132227, 2.3077507000416517, 2.418482200242579];bombero;C:\2023\REPSWITCH21092023\REPSWITCH_excgange\REPSWITCH_excgange\data/300203_REPSWITCH1_version2_list3_2023-12-05_11h21.18.227_micRespv2l3_recorded\recording_micRespv2l3_2023-12-05_11h30.52.462.wav;581.2865133;;None;;;;;;300203;1;2023-12-05_11h21.18.227;REPSWITCH1_version2_list3;2022.2.4;144.0297512;
REPSWITCH1/PICTURE_687.png;camisa;speak;darkblue;filler;2;F;1;4;3;2;Stim5_Set4;0;None;119;118;17;0;118;118;118;;;;;;;;;;;;;;;;;;;;;;;581.7866479;582.8562293;582.8562293;582.8562293;582.8562293;582.8562293;582.8562293;582.8562293;582.8562293;585.8843868;585.8843868;585.8843868;585.8843868;585.8843868;585.8843868;None;0;;;C:\2023\REPSWITCH21092023\REPSWITCH_excgange\REPSWITCH_excgange\data/300203_REPSWITCH1_version2_list3_2023-12-05_11h21.18.227_micRespv2l3_recorded\recording_micRespv2l3_2023-12-05_11h30.57.060.wav;585.8843868;;None;;;;;;300203;1;2023-12-05_11h21.18.227;REPSWITCH1_version2_list3;2022.2.4;144.0297512;
REPSWITCH1/PICTURE_128.png;muñeca;type;gold;nontarget;1;NT;1;4;3;2;Stim4_Set1;0;None;120;119;18;0;119;119;119;;;;;;;;;;;;;;;;;;;;;;;586.3843702;587.4748471;587.4748471;587.4748471;587.4748471;587.4748471;587.4748471;587.4748471;587.4748471;590.4960617;590.4960617;590.4960617;590.4960617;590.4960617;590.4960617;['m', 'u', 'ñ', 'e', 'c', 'a'];0;[0.9508844004012644, 1.1631526001729071, 1.4372508004307747, 1.5917285005562007, 1.900357000529766, 2.084777000360191];muñeca;C:\2023\REPSWITCH21092023\REPSWITCH_excgange\REPSWITCH_excgange\data/300203_REPSWITCH1_version2_list3_2023-12-05_11h21.18.227_micRespv2l3_recorded\recording_micRespv2l3_2023-12-05_11h31.01.677.wav;590.4960617;590.9961267;None;;;;;;300203;1;2023-12-05_11h21.18.227;REPSWITCH1_version2_list3;2022.2.4;144.0297512;
REPSWITCH1/PICTURE_128.png;muñeca;type;gold;repeat;1;T;1;4;3;2;Stim4_Set1;0;None;121;120;19;0;120;120;120;;;;;;;;;;;;;;;;;;;;;;;590.9961267;592.1213332;592.1213332;592.1213332;592.1213332;592.1213332;592.1213332;592.1213332;592.1213332;595.1494485;595.1494485;595.1494485;595.1494485;595.1494485;595.1494485;['m', 'u', 'ñ', 'e', 'c', 'a'];0;[0.6656841998919845, 0.8729777000844479, 1.243330900091678, 1.3736169999465346, 1.655587799847126, 1.7833615001291037];muñeca;C:\2023\REPSWITCH21092023\REPSWITCH_excgange\REPSWITCH_excgange\data/300203_REPSWITCH1_version2_list3_2023-12-05_11h21.18.227_micRespv2l3_recorded\recording_micRespv2l3_2023-12-05_11h31.06.325.wav;595.1494485;;None;;;;;;300203;1;2023-12-05_11h21.18.227;REPSWITCH1_version2_list3;2022.2.4;144.0297512;
REPSWITCH1/PICTURE_719.png;baño;speak;darkblue;filler;2;F;1;4;3;2;Stim2_Set4;1;switch;122;121;20;0;121;121;121;;;;;;;;;;;;;;;;;;;;;;;595.6495177;596.7469701;596.7469701;596.7469701;596.7469701;596.7469701;596.7469701;596.7469701;596.7469701;599.7680928;599.7680928;599.7680928;599.7680928;599.7680928;599.7680928;None;0;;;C:\2023\REPSWITCH21092023\REPSWITCH_excgange\REPSWITCH_excgange\data/300203_REPSWITCH1_version2_list3_2023-12-05_11h21.18.227_micRespv2l3_recorded\recording_micRespv2l3_2023-12-05_11h31.10.950.wav;599.7680928;600.2681413;None;;;;;;300203;1;2023-12-05_11h21.18.227;REPSWITCH1_version2_list3;2022.2.4;144.0297512;
REPSWITCH1/PICTURE_178.png;puente;type;gold;nontarget;1;NT;1;4;3;2;Stim1_Set1;1;switch;123;122;21;0;122;122;122;;;;;;;;;;;;;;;;;;;;;;;600.2681413;601.3446956;601.3446956;601.3446956;601.3446956;601.3446956;601.3446956;601.3446956;601.3446956;604.3659403;604.3659403;604.3659403;604.3659403;604.3659403;604.3659403;['p', 'u', 'e', 'n', 't', 'e'];0;[1.2020168001763523, 1.2734729005023837, 1.4259482002817094, 1.5395728005096316, 1.6831003003753722, 1.7668201006017625];puente;C:\2023\REPSWITCH21092023\REPSWITCH_excgange\REPSWITCH_excgange\data/300203_REPSWITCH1_version2_list3_2023-12-05_11h21.18.227_micRespv2l3_recorded\recording_micRespv2l3_2023-12-05_11h31.15.547.wav;604.3659403;604.8660744;None;;;;;;300203;1;2023-12-05_11h21.18.227;REPSWITCH1_version2_list3;2022.2.4;144.0297512;
REPSWITCH1/PICTURE_178.png;puente;type;gold;repeat;1;T;1;4;3;2;Stim1_Set1;0;None;124;123;22;0;123;123;123;;;;;;;;;;;;;;;;;;;;;;;604.8660744;606.039797;606.039797;606.039797;606.039797;606.039797;606.039797;606.039797;606.039797;609.0679535;609.0679535;609.0679535;609.0679535;609.0679535;609.0679535;['p', 'u', 'e', 'n', 't', 'e'];0;[0.7252021003514528, 0.7979457005858421, 0.9514372004196048, 1.0510649005882442, 1.195995700545609, 1.2986410004086792];puente;C:\2023\REPSWITCH21092023\REPSWITCH_excgange\REPSWITCH_excgange\data/300203_REPSWITCH1_version2_list3_2023-12-05_11h21.18.227_micRespv2l3_recorded\recording_micRespv2l3_2023-12-05_11h31.20.244.wav;609.0679535;609.5680131;None;;;;;;300203;1;2023-12-05_11h21.18.227;REPSWITCH1_version2_list3;2022.2.4;144.0297512;
REPSWITCH1/PICTURE_16.png;cazador;type;gold;nontarget;1;NT;1;4;3;2;Stim6_Set1;1;repeat;125;124;23;0;124;124;124;;;;;;;;;;;;;;;;;;;;;;;609.5680131;610.7070291;610.7070291;610.7070291;610.7070291;610.7070291;610.7070291;610.7070291;610.7070291;613.7282593;613.7282593;613.7282593;613.7282593;613.7282593;613.7282593;['c', 'a', 'z', 'a', 'd', 'o', 'r'];0;[0.7910424005240202, 0.9255889002233744, 1.1458114003762603, 1.3253093003295362, 1.5297519005835056, 1.644369000568986, 1.7460386003367603];cazador;C:\2023\REPSWITCH21092023\REPSWITCH_excgange\REPSWITCH_excgange\data/300203_REPSWITCH1_version2_list3_2023-12-05_11h21.18.227_micRespv2l3_recorded\recording_micRespv2l3_2023-12-05_11h31.24.911.wav;613.7282593;614.2283238;None;;;;;;300203;1;2023-12-05_11h21.18.227;REPSWITCH1_version2_list3;2022.2.4;144.0297512;
REPSWITCH1/PICTURE_16.png;cazador;speak;darkblue;switch;2;T;1;4;3;2;Stim6_Set1;0;None;126;125;24;0;125;125;125;;;;;;;;;;;;;;;;;;;;;;;614.2283238;615.2909857;615.2909857;615.2909857;615.2909857;615.2909857;615.2909857;615.2909857;615.2909857;618.3191391;618.3191391;618.3191391;618.3191391;618.3191391;618.3191391;None;0;;;C:\2023\REPSWITCH21092023\REPSWITCH_excgange\REPSWITCH_excgange\data/300203_REPSWITCH1_version2_list3_2023-12-05_11h21.18.227_micRespv2l3_recorded\recording_micRespv2l3_2023-12-05_11h31.29.495.wav;618.3191391;;None;;;;;;300203;1;2023-12-05_11h21.18.227;REPSWITCH1_version2_list3;2022.2.4;144.0297512;
REPSWITCH1/PICTURE_19.png;pavo;type;gold;filler;1;F;2;4;3;2;Stim5_Set1;0;None;127;126;25;0;126;126;126;;;;;;;;;;;;;;;;;;;;;;;618.8192105;619.9026901;619.9026901;619.9026901;619.9026901;619.9026901;619.9026901;619.9026901;619.9026901;622.9308767;622.9308767;622.9308767;622.9308767;622.9308767;622.9308767;['p', 'a', 'v', 'o'];0;[0.9485229002311826, 1.0601876000873744, 1.31859470019117, 1.5867700004018843];pavo;C:\2023\REPSWITCH21092023\REPSWITCH_excgange\REPSWITCH_excgange\data/300203_REPSWITCH1_version2_list3_2023-12-05_11h21.18.227_micRespv2l3_recorded\recording_micRespv2l3_2023-12-05_11h31.34.107.wav;622.9308767;;None;;;;;;300203;1;2023-12-05_11h21.18.227;REPSWITCH1_version2_list3;2022.2.4;144.0297512;
REPSWITCH1/PICTURE_199.png;falda;type;gold;nontarget;1;NT;2;4;3;2;Stim8_Set2;1;repeat;128;127;26;0;127;127;127;;;;;;;;;;;;;;;;;;;;;;;623.4309608;624.5144914;624.5144914;624.5144914;624.5144914;624.5144914;624.5144914;624.5144914;624.5144914;627.5356266;627.5356266;627.5356266;627.5356266;627.5356266;627.5356266;['f', 'a', 'l', 'd', 'a'];0;[0.8236214001663029, 0.9661663002334535, 1.1179868001490831, 1.2376706004142761, 1.364160600118339];falda;C:\2023\REPSWITCH21092023\REPSWITCH_excgange\REPSWITCH_excgange\data/300203_REPSWITCH1_version2_list3_2023-12-05_11h21.18.227_micRespv2l3_recorded\recording_micRespv2l3_2023-12-05_11h31.38.717.wav;627.5356266;628.0357221;None;;;;;;300203;1;2023-12-05_11h21.18.227;REPSWITCH1_version2_list3;2022.2.4;144.0297512;
REPSWITCH1/PICTURE_199.png;falda;type;gold;repeat;1;T;2;4;3;2;Stim8_Set2;0;None;129;128;27;0;128;128;128;;;;;;;;;;;;;;;;;;;;;;;628.0357221;629.0844642;629.0844642;629.0844642;629.0844642;629.0844642;629.0844642;629.0844642;629.0844642;632.112652;632.112652;632.112652;632.112652;632.112652;632.112652;['f', 'a', 'l', 'd', 'a'];0;[0.7070262003690004, 0.8525313003920019, 1.0581509000621736, 1.286136600188911, 1.442107300274074];falda;C:\2023\REPSWITCH21092023\REPSWITCH_excgange\REPSWITCH_excgange\data/300203_REPSWITCH1_version2_list3_2023-12-05_11h21.18.227_micRespv2l3_recorded\recording_micRespv2l3_2023-12-05_11h31.43.288.wav;632.112652;;None;;;;;;300203;1;2023-12-05_11h21.18.227;REPSWITCH1_version2_list3;2022.2.4;144.0297512;
REPSWITCH1/PICTURE_178.png;puente;speak;darkblue;filler;2;F;2;4;3;2;Stim1_Set1;1;switch;130;129;28;0;129;129;129;;;;;;;;;;;;;;;;;;;;;;;632.6126837;633.6962492;633.6962492;633.6962492;633.6962492;633.6962492;633.6962492;633.6962492;633.6962492;636.7244088;636.7244088;636.7244088;636.7244088;636.7244088;636.7244088;None;0;;;C:\2023\REPSWITCH21092023\REPSWITCH_excgange\REPSWITCH_excgange\data/300203_REPSWITCH1_version2_list3_2023-12-05_11h21.18.227_micRespv2l3_recorded\recording_micRespv2l3_2023-12-05_11h31.47.899.wav;636.7244088;;None;;;;;;300203;1;2023-12-05_11h21.18.227;REPSWITCH1_version2_list3;2022.2.4;144.0297512;
REPSWITCH1/PICTURE_517.png;cuerda;type;gold;nontarget;1;NT;2;4;3;2;Stim4_Set2;1;switch;131;130;29;0;130;130;130;;;;;;;;;;;;;;;;;;;;;;;637.2244346;638.363536;638.363536;638.363536;638.363536;638.363536;638.363536;638.363536;638.363536;641.3916668;641.3916668;641.3916668;641.3916668;641.3916668;641.3916668;['c', 'u', 'e', 'r', 'd', 'a'];0;[0.9818497002124786, 1.121370400302112, 1.2250316003337502, 1.3146959003061056, 1.5279800002463162, 1.710907300002873];cuerda;C:\2023\REPSWITCH21092023\REPSWITCH_excgange\REPSWITCH_excgange\data/300203_REPSWITCH1_version2_list3_2023-12-05_11h21.18.227_micRespv2l3_recorded\recording_micRespv2l3_2023-12-05_11h31.52.567.wav;641.3916668;;None;;;;;;300203;1;2023-12-05_11h21.18.227;REPSWITCH1_version2_list3;2022.2.4;144.0297512;
REPSWITCH1/PICTURE_517.png;cuerda;type;gold;repeat;1;T;2;4;3;2;Stim4_Set2;0;None;132;131;30;0;131;131;131;;;;;;;;;;;;;;;;;;;;;;;641.891717;642.9544165;642.9544165;642.9544165;642.9544165;642.9544165;642.9544165;642.9544165;642.9544165;645.982532;645.982532;645.982532;645.982532;645.982532;645.982532;['c', 'u', 'e', 'r', 'd', 'a'];0;[0.9182007000781596, 1.0198057000525296, 1.123494400177151, 1.2082162001170218, 1.4175626002252102, 1.5590916001237929];cuerda;C:\2023\REPSWITCH21092023\REPSWITCH_excgange\REPSWITCH_excgange\data/300203_REPSWITCH1_version2_list3_2023-12-05_11h21.18.227_micRespv2l3_recorded\recording_micRespv2l3_2023-12-05_11h31.57.158.wav;645.982532;;None;;;;;;300203;1;2023-12-05_11h21.18.227;REPSWITCH1_version2_list3;2022.2.4;144.0297512;
REPSWITCH1/PICTURE_169.png;espalda;type;gold;filler;1;F;2;4;3;2;Stim8_Set1;0;None;133;132;31;0;132;132;132;;;;;;;;;;;;;;;;;;;;;;;646.4825946;647.5244605;647.5244605;647.5244605;647.5244605;647.5244605;647.5244605;647.5244605;647.5244605;650.5525801;650.5525801;650.5525801;650.5525801;650.5525801;650.5525801;['e', 's', 'p', 'a', 'l', 'd', 'd', 'a', 'backspace', 'backspace', 'a'];0;[0.7567223999649286, 0.8852087003178895, 1.0670014000497758, 1.1615583999082446, 1.3389781001023948, 1.4979383000172675, 1.9901022999547422, 2.0280726002529263, 2.556749400217086, 2.7032949002459645, 2.7830365002155304];espalda;C:\2023\REPSWITCH21092023\REPSWITCH_excgange\REPSWITCH_excgange\data/300203_REPSWITCH1_version2_list3_2023-12-05_11h21.18.227_micRespv2l3_recorded\recording_micRespv2l3_2023-12-05_11h32.01.728.wav;650.5525801;;None;;;;;;300203;1;2023-12-05_11h21.18.227;REPSWITCH1_version2_list3;2022.2.4;144.0297512;
REPSWITCH1/PICTURE_673.png;tenedor;speak;darkblue;filler;2;F;2;4;3;2;Extra5;0;None;134;133;32;0;133;133;133;;;;;;;;;;;;;;;;;;;;;;;651.052717;652.1153068;652.1153068;652.1153068;652.1153068;652.1153068;652.1153068;652.1153068;652.1153068;655.1365418;655.1365418;655.1365418;655.1365418;655.1365418;655.1365418;None;0;;;C:\2023\REPSWITCH21092023\REPSWITCH_excgange\REPSWITCH_excgange\data/300203_REPSWITCH1_version2_list3_2023-12-05_11h21.18.227_micRespv2l3_recorded\recording_micRespv2l3_2023-12-05_11h32.06.318.wav;655.1365418;655.6366599;None;;;;;;300203;1;2023-12-05_11h21.18.227;REPSWITCH1_version2_list3;2022.2.4;144.0297512;
REPSWITCH1/PICTURE_142.png;vaso;type;gold;filler;1;F;2;4;3;2;Stim7_Set1;1;switch;135;134;33;0;134;134;134;;;;;;;;;;;;;;;;;;;;;;;655.6366599;656.7131338;656.7131338;656.7131338;656.7131338;656.7131338;656.7131338;656.7131338;656.7131338;659.7413293;659.7413293;659.7413293;659.7413293;659.7413293;659.7413293;['v', 'a', 's', 'o'];0;[0.7188471001572907, 0.9315171004272997, 1.1727381004020572, 1.3391915000975132];vaso;C:\2023\REPSWITCH21092023\REPSWITCH_excgange\REPSWITCH_excgange\data/300203_REPSWITCH1_version2_list3_2023-12-05_11h21.18.227_micRespv2l3_recorded\recording_micRespv2l3_2023-12-05_11h32.10.917.wav;659.7413293;;None;;;;;;300203;1;2023-12-05_11h21.18.227;REPSWITCH1_version2_list3;2022.2.4;144.0297512;
REPSWITCH1/PICTURE_552.png;manzana;type;gold;nontarget;1;NT;2;4;3;2;Stim6_Set2;1;repeat;136;135;34;0;135;135;135;;;;;;;;;;;;;;;;;;;;;;;660.2413281;661.3804022;661.3804022;661.3804022;661.3804022;661.3804022;661.3804022;661.3804022;661.3804022;664.4085779;664.4085779;664.4085779;664.4085779;664.4085779;664.4085779;['m', 'a', 'n', 'z', 'a', 'n', 'a'];0;[0.6869020001031458, 0.8124898001551628, 0.8823152002878487, 1.0167759000323713, 1.2091196002438664, 1.3047990999184549, 1.430375900119543];manzana;C:\2023\REPSWITCH21092023\REPSWITCH_excgange\REPSWITCH_excgange\data/300203_REPSWITCH1_version2_list3_2023-12-05_11h21.18.227_micRespv2l3_recorded\recording_micRespv2l3_2023-12-05_11h32.15.585.wav;664.4085779;;None;;;;;;300203;1;2023-12-05_11h21.18.227;REPSWITCH1_version2_list3;2022.2.4;144.0297512;
REPSWITCH1/PICTURE_552.png;manzana;speak;darkblue;switch;1;T;2;4;3;2;Stim6_Set2;0;None;137;136;35;0;136;136;136;;;;;;;;;;;;;;;;;;;;;;;664.9086572;666.0685885;666.0685885;666.0685885;666.0685885;666.0685885;666.0685885;666.0685885;666.0685885;669.0966829;669.0966829;669.0966829;669.0966829;669.0966829;669.0966829;None;0;;;C:\2023\REPSWITCH21092023\REPSWITCH_excgange\REPSWITCH_excgange\data/300203_REPSWITCH1_version2_list3_2023-12-05_11h21.18.227_micRespv2l3_recorded\recording_micRespv2l3_2023-12-05_11h32.20.273.wav;669.0966829;;None;;;;;;300203;1;2023-12-05_11h21.18.227;REPSWITCH1_version2_list3;2022.2.4;144.0297512;
REPSWITCH1/PICTURE_135.png;traje;speak;darkblue;filler;2;F;2;4;3;2;Stim3_Set1;0;None;138;137;36;0;137;137;137;;;;;;;;;;;;;;;;;;;;;;;669.596756;670.6802452;670.6802452;670.6802452;670.6802452;670.6802452;670.6802452;670.6802452;670.6802452;673.7084707;673.7084707;673.7084707;673.7084707;673.7084707;673.7084707;None;0;;;C:\2023\REPSWITCH21092023\REPSWITCH_excgange\REPSWITCH_excgange\data/300203_REPSWITCH1_version2_list3_2023-12-05_11h21.18.227_micRespv2l3_recorded\recording_micRespv2l3_2023-12-05_11h32.24.883.wav;673.7084707;;None;;;;;;300203;1;2023-12-05_11h21.18.227;REPSWITCH1_version2_list3;2022.2.4;144.0297512;
REPSWITCH1/PICTURE_152.png;caracol;speak;darkblue;nontarget;2;NT;2;4;3;2;Stim2_Set2;1;repeat;139;138;37;0;138;138;138;;;;;;;;;;;;;;;;;;;;;;;674.2085501;675.2711543;675.2711543;675.2711543;675.2711543;675.2711543;675.2711543;675.2711543;675.2711543;678.2992597;678.2992597;678.2992597;678.2992597;678.2992597;678.2992597;None;0;;;C:\2023\REPSWITCH21092023\REPSWITCH_excgange\REPSWITCH_excgange\data/300203_REPSWITCH1_version2_list3_2023-12-05_11h21.18.227_micRespv2l3_recorded\recording_micRespv2l3_2023-12-05_11h32.29.475.wav;678.2992597;;None;;;;;;300203;1;2023-12-05_11h21.18.227;REPSWITCH1_version2_list3;2022.2.4;144.0297512;
