image;correctAns;respModal;frameColor;repSwitch;sequence;target;set;block;list;exp_version;stimulus;baseline;baseline_condition;trial_no;psychopy_trial;Column1;trialsREPSWITCH.thisRepN;trialsREPSWITCH.thisTrialN;trialsREPSWITCH.thisN;trialsREPSWITCH.thisIndex;textWelcome.started;textboxInstrMain1.started;textboxInstrMain1_2.started;textboxInstrMain1_3.started;keyInstrMain.started;keyInstrMain.keys;keyInstrMain.rt;textboxInstrMain2.started;textboxInstrMain2_2.started;textboxInstrMain2_3.started;textboxInstrMain2_4.started;textboxInstrMain2_5.started;textboxInstrMain2_6.started;textboxInstrMain2_7.started;textboxInstrMain2_8.started;textboxInstrMain2_9.started;textboxInstrMain2_10.started;textboxInstrMain2_11.started;textboxInstrMain2_12.started;keyInstrMain2.started;keyInstrMain2.keys;keyInstrMain2.rt;fixationITI.started;fixationITI.stopped;polygonColour.started;polygonWhite.started;imageObject.started;polygonType.started;textInput.started;keyResp.started;micRespv1l2.started;keyResp.keys;keyResp.corr;subjResponse;micRespv1l2.clip;textBlankLoop.started;textBlankLoop.stopped;keyPause.keys;polygonColour.stopped;polygonWhite.stopped;imageObject.stopped;polygonType.stopped;textInput.stopped;keyResp.stopped;keyResp.rt;textboxPause.started;keyPause.started;keyPause.rt;textboxGoodbye.started;textboxGoodbye.stopped;participant;session;date;expName;psychopyVersion;frameRate;Column2
;;;;;;;;;;;;;;;;;;;;;10.8011315;13.2958357;13.2958357;13.2958357;13.2958357;space;9.7005116;;;;;;;;;;;;;;;;;;;;;;;;;;;;;;;;;;;;;;;;;;;;190102;1;2023-11-30_12h48.08.240;REPSWITCH1_version1_list2;2022.2.4;143.9316957;
;;;;;;;;;;;;;;;;;;;;;;;;;;;;23.0124236;23.0124236;23.0124236;23.0124236;23.0124236;23.0124236;23.0124236;23.0124236;23.0124236;23.0124236;23.0124236;23.0124236;23.0124236;space;4.1851689;;;;;;;;;;;;;;;;;;;;;;;;;;;;;190102;1;2023-11-30_12h48.08.240;REPSWITCH1_version1_list2;2022.2.4;143.9316957;
REPSWITCH1/PICTURE_646.png;tronco;speak;gold;filler;2;F;1;3;2;1;Extra4;0;None;1;0;1;0;0;0;0;;;;;;;;;;;;;;;;;;;;;;;27.2907533;28.3603853;28.3603853;28.3603853;28.3603853;28.3603853;28.3603853;28.3603853;28.3603853;None;0;;C:\2023\REPSWITCH21092023\REPSWITCH_excgange\REPSWITCH_excgange\data/190102_REPSWITCH1_version1_list2_2023-11-30_12h48.08.240_micRespv1l2_recorded\recording_micRespv1l2_2023-11-30_12h48.30.674.wav;31.3815708;31.8816322;None;;;;;;;;;;;;;190102;1;2023-11-30_12h48.08.240;REPSWITCH1_version1_list2;2022.2.4;143.9316957;
REPSWITCH1/PICTURE_340.png;espejo;type;darkblue;filler;1;F;1;3;2;1;Extra1;0;None;2;1;2;0;1;1;1;;;;;;;;;;;;;;;;;;;;;;;31.8816322;32.9025829;32.9025829;32.9025829;32.9025829;32.9025829;32.9025829;32.9025829;32.9025829;['e', 's', 'p', 'e', 'j', 'o'];0;espejo;C:\2023\REPSWITCH21092023\REPSWITCH_excgange\REPSWITCH_excgange\data/190102_REPSWITCH1_version1_list2_2023-11-30_12h48.08.240_micRespv1l2_recorded\recording_micRespv1l2_2023-11-30_12h48.35.220.wav;35.9238132;36.4238552;None;35.9238132;35.9238132;35.9238132;35.9238132;35.9238132;35.9238132;[1.019496199907735, 1.221130199963227, 1.3666458998341113, 1.4871513999532908, 1.7084389999508858, 2.494857099838555];;;;;;190102;1;2023-11-30_12h48.08.240;REPSWITCH1_version1_list2;2022.2.4;143.9316957;
REPSWITCH1/PICTURE_338.png;regalo;speak;gold;filler;2;F;1;3;2;1;Stim6_Set4;0;None;3;2;3;0;2;2;2;;;;;;;;;;;;;;;;;;;;;;;36.4238552;37.5143072;37.5143072;37.5143072;37.5143072;37.5143072;37.5143072;37.5143072;37.5143072;None;0;;C:\2023\REPSWITCH21092023\REPSWITCH_excgange\REPSWITCH_excgange\data/190102_REPSWITCH1_version1_list2_2023-11-30_12h48.08.240_micRespv1l2_recorded\recording_micRespv1l2_2023-11-30_12h48.39.832.wav;40.5424639;;None;40.5424639;40.5424639;40.5424639;40.5424639;40.5424639;40.5424639;;;;;;;190102;1;2023-11-30_12h48.08.240;REPSWITCH1_version1_list2;2022.2.4;143.9316957;
REPSWITCH1/PICTURE_142.png;vaso;speak;gold;nontarget;2;NT;1;3;2;1;Stim7_Set1;1;repeat;4;3;4;0;3;3;3;;;;;;;;;;;;;;;;;;;;;;;41.0425512;42.2024306;42.2024306;42.2024306;42.2024306;42.2024306;42.2024306;42.2024306;42.2024306;None;0;;C:\2023\REPSWITCH21092023\REPSWITCH_excgange\REPSWITCH_excgange\data/190102_REPSWITCH1_version1_list2_2023-11-30_12h48.08.240_micRespv1l2_recorded\recording_micRespv1l2_2023-11-30_12h48.44.518.wav;45.2236607;45.7237084;None;45.2236607;45.2236607;45.2236607;45.2236607;45.2236607;45.2236607;;;;;;;190102;1;2023-11-30_12h48.08.240;REPSWITCH1_version1_list2;2022.2.4;143.9316957;
REPSWITCH1/PICTURE_142.png;vaso;speak;gold;repeat;2;T;1;3;2;1;Stim7_Set1;0;None;5;4;5;0;4;4;4;;;;;;;;;;;;;;;;;;;;;;;45.7237084;46.8071988;46.8071988;46.8071988;46.8071988;46.8071988;46.8071988;46.8071988;46.8071988;None;0;;C:\2023\REPSWITCH21092023\REPSWITCH_excgange\REPSWITCH_excgange\data/190102_REPSWITCH1_version1_list2_2023-11-30_12h48.08.240_micRespv1l2_recorded\recording_micRespv1l2_2023-11-30_12h48.49.124.wav;49.8285096;50.3284919;None;49.8285096;49.8285096;49.8285096;49.8285096;49.8285096;49.8285096;;;;;;;190102;1;2023-11-30_12h48.08.240;REPSWITCH1_version1_list2;2022.2.4;143.9316957;
REPSWITCH1/PICTURE_498.png;taza;type;darkblue;filler;1;F;1;3;2;1;Stim4_Set4;0;None;6;5;6;0;5;5;5;;;;;;;;;;;;;;;;;;;;;;;50.3284919;51.5092089;51.5092089;51.5092089;51.5092089;51.5092089;51.5092089;51.5092089;51.5092089;['t', 'a', 'z', 'a'];0;taza;C:\2023\REPSWITCH21092023\REPSWITCH_excgange\REPSWITCH_excgange\data/190102_REPSWITCH1_version1_list2_2023-11-30_12h48.08.240_micRespv1l2_recorded\recording_micRespv1l2_2023-11-30_12h48.53.826.wav;54.5304086;55.0305582;None;54.5304086;54.5304086;54.5304086;54.5304086;54.5304086;54.5304086;[1.1283342998940498, 1.6976948999799788, 1.8681534000206739, 2.018710399977863];;;;;;190102;1;2023-11-30_12h48.08.240;REPSWITCH1_version1_list2;2022.2.4;143.9316957;
REPSWITCH1/PICTURE_16.png;cazador;speak;gold;nontarget;2;NT;1;3;2;1;Stim6_Set1;1;switch;7;6;7;0;6;6;6;;;;;;;;;;;;;;;;;;;;;;;55.0305582;56.1695643;56.1695643;56.1695643;56.1695643;56.1695643;56.1695643;56.1695643;56.1695643;None;0;;C:\2023\REPSWITCH21092023\REPSWITCH_excgange\REPSWITCH_excgange\data/190102_REPSWITCH1_version1_list2_2023-11-30_12h48.08.240_micRespv1l2_recorded\recording_micRespv1l2_2023-11-30_12h48.58.487.wav;59.1977114;;None;59.1977114;59.1977114;59.1977114;59.1977114;59.1977114;59.1977114;;;;;;;190102;1;2023-11-30_12h48.08.240;REPSWITCH1_version1_list2;2022.2.4;143.9316957;
REPSWITCH1/PICTURE_16.png;cazador;speak;gold;repeat;2;T;1;3;2;1;Stim6_Set1;0;None;8;7;8;0;7;7;7;;;;;;;;;;;;;;;;;;;;;;;59.6977836;60.7048743;60.7048743;60.7048743;60.7048743;60.7048743;60.7048743;60.7048743;60.7048743;None;0;;C:\2023\REPSWITCH21092023\REPSWITCH_excgange\REPSWITCH_excgange\data/190102_REPSWITCH1_version1_list2_2023-11-30_12h48.08.240_micRespv1l2_recorded\recording_micRespv1l2_2023-11-30_12h49.03.022.wav;63.7260412;64.2261337;None;63.7260412;63.7260412;63.7260412;63.7260412;63.7260412;63.7260412;;;;;;;190102;1;2023-11-30_12h48.08.240;REPSWITCH1_version1_list2;2022.2.4;143.9316957;
REPSWITCH1/PICTURE_719.png;baño;type;darkblue;filler;1;F;1;3;2;1;Stim2_Set4;0;None;9;8;9;0;8;8;8;;;;;;;;;;;;;;;;;;;;;;;64.2261337;65.281817;65.281817;65.281817;65.281817;65.281817;65.281817;65.281817;65.281817;['b', 'a', 'ñ', 'o'];0;baño;C:\2023\REPSWITCH21092023\REPSWITCH_excgange\REPSWITCH_excgange\data/190102_REPSWITCH1_version1_list2_2023-11-30_12h48.08.240_micRespv1l2_recorded\recording_micRespv1l2_2023-11-30_12h49.07.599.wav;68.309988;;None;68.309988;68.309988;68.309988;68.309988;68.309988;68.309988;[1.0731966998428106, 1.5127552999183536, 2.0910761000122875, 2.2744692999403924];;;;;;190102;1;2023-11-30_12h48.08.240;REPSWITCH1_version1_list2;2022.2.4;143.9316957;
REPSWITCH1/PICTURE_169.png;espalda;speak;gold;nontarget;2;NT;1;3;2;1;Stim8_Set1;0;None;10;9;10;0;9;9;9;;;;;;;;;;;;;;;;;;;;;;;68.81004;69.9630738;69.9630738;69.9630738;69.9630738;69.9630738;69.9630738;69.9630738;69.9630738;None;0;;C:\2023\REPSWITCH21092023\REPSWITCH_excgange\REPSWITCH_excgange\data/190102_REPSWITCH1_version1_list2_2023-11-30_12h48.08.240_micRespv1l2_recorded\recording_micRespv1l2_2023-11-30_12h49.12.280.wav;72.9911425;;None;72.9911425;72.9911425;72.9911425;72.9911425;72.9911425;72.9911425;;;;;;;190102;1;2023-11-30_12h48.08.240;REPSWITCH1_version1_list2;2022.2.4;143.9316957;
REPSWITCH1/PICTURE_169.png;espalda;type;darkblue;switch;1;T;1;3;2;1;Stim8_Set1;0;None;11;10;11;0;10;10;10;;;;;;;;;;;;;;;;;;;;;;;73.4912542;74.5538712;74.5538712;74.5538712;74.5538712;74.5538712;74.5538712;74.5538712;74.5538712;['e', 's', 'p', 'a', 'l', 'd', 'a'];0;espalda;C:\2023\REPSWITCH21092023\REPSWITCH_excgange\REPSWITCH_excgange\data/190102_REPSWITCH1_version1_list2_2023-11-30_12h48.08.240_micRespv1l2_recorded\recording_micRespv1l2_2023-11-30_12h49.16.870.wav;77.5751326;78.0751833;None;77.5751326;77.5751326;77.5751326;77.5751326;77.5751326;77.5751326;[1.0729792001657188, 1.3749504999723285, 1.566386500140652, 1.6749815000221133, 1.7846464000176638, 2.047363999998197, 2.109158900100738];;;;;;190102;1;2023-11-30_12h48.08.240;REPSWITCH1_version1_list2;2022.2.4;143.9316957;
REPSWITCH1/PICTURE_687.png;camisa;type;darkblue;filler;1;F;1;3;2;1;Stim5_Set4;0;None;12;11;12;0;11;11;11;;;;;;;;;;;;;;;;;;;;;;;78.0751833;79.2072934;79.2072934;79.2072934;79.2072934;79.2072934;79.2072934;79.2072934;79.2072934;['c', 'a', 'm', 'i', 's', 'a'];0;camisa;C:\2023\REPSWITCH21092023\REPSWITCH_excgange\REPSWITCH_excgange\data/190102_REPSWITCH1_version1_list2_2023-11-30_12h48.08.240_micRespv1l2_recorded\recording_micRespv1l2_2023-11-30_12h49.21.525.wav;82.2354297;;None;82.2354297;82.2354297;82.2354297;82.2354297;82.2354297;82.2354297;[1.672616799827665, 1.7971333998721093, 2.1509573999792337, 2.2960418998263776, 2.414618599927053, 2.5525225999299437];;;;;;190102;1;2023-11-30_12h48.08.240;REPSWITCH1_version1_list2;2022.2.4;143.9316957;
REPSWITCH1/PICTURE_178.png;puente;type;darkblue;nontarget;1;NT;1;3;2;1;Stim1_Set1;1;repeat;13;12;13;0;12;12;12;;;;;;;;;;;;;;;;;;;;;;;82.7355085;83.8676048;83.8676048;83.8676048;83.8676048;83.8676048;83.8676048;83.8676048;83.8676048;['p', 'u', 'e', 'n', 't', 'e'];0;puente;C:\2023\REPSWITCH21092023\REPSWITCH_excgange\REPSWITCH_excgange\data/190102_REPSWITCH1_version1_list2_2023-11-30_12h48.08.240_micRespv1l2_recorded\recording_micRespv1l2_2023-11-30_12h49.26.184.wav;86.8888097;87.3888765;None;86.8888097;86.8888097;86.8888097;86.8888097;86.8888097;86.8888097;[1.1119936001487076, 1.5097066001035273, 1.6763302001636475, 1.844797900179401, 2.0143468000460416, 2.066135800210759];;;;;;190102;1;2023-11-30_12h48.08.240;REPSWITCH1_version1_list2;2022.2.4;143.9316957;
REPSWITCH1/PICTURE_178.png;puente;speak;gold;switch;2;T;1;3;2;1;Stim1_Set1;0;None;14;13;14;0;13;13;13;;;;;;;;;;;;;;;;;;;;;;;87.3888765;88.5141084;88.5141084;88.5141084;88.5141084;88.5141084;88.5141084;88.5141084;88.5141084;None;0;;C:\2023\REPSWITCH21092023\REPSWITCH_excgange\REPSWITCH_excgange\data/190102_REPSWITCH1_version1_list2_2023-11-30_12h48.08.240_micRespv1l2_recorded\recording_micRespv1l2_2023-11-30_12h49.30.830.wav;91.535344;92.0353508;None;91.535344;91.535344;91.535344;91.535344;91.535344;91.535344;;;;;;;190102;1;2023-11-30_12h48.08.240;REPSWITCH1_version1_list2;2022.2.4;143.9316957;
REPSWITCH1/PICTURE_128.png;muñeca;speak;gold;nontarget;2;NT;1;3;2;1;Stim4_Set1;1;repeat;15;14;15;0;14;14;14;;;;;;;;;;;;;;;;;;;;;;;92.0353508;93.1883071;93.1883071;93.1883071;93.1883071;93.1883071;93.1883071;93.1883071;93.1883071;None;0;;C:\2023\REPSWITCH21092023\REPSWITCH_excgange\REPSWITCH_excgange\data/190102_REPSWITCH1_version1_list2_2023-11-30_12h48.08.240_micRespv1l2_recorded\recording_micRespv1l2_2023-11-30_12h49.35.504.wav;96.2095048;96.7095595;None;96.2095048;96.2095048;96.2095048;96.2095048;96.2095048;96.2095048;;;;;;;190102;1;2023-11-30_12h48.08.240;REPSWITCH1_version1_list2;2022.2.4;143.9316957;
REPSWITCH1/PICTURE_128.png;muñeca;type;darkblue;switch;1;T;1;3;2;1;Stim4_Set1;0;None;16;15;16;0;15;15;15;;;;;;;;;;;;;;;;;;;;;;;96.7095595;97.8694597;97.8694597;97.8694597;97.8694597;97.8694597;97.8694597;97.8694597;97.8694597;['m', 'u', 'ñ', 'e', 'c', 'a'];0;muñeca;C:\2023\REPSWITCH21092023\REPSWITCH_excgange\REPSWITCH_excgange\data/190102_REPSWITCH1_version1_list2_2023-11-30_12h48.08.240_micRespv1l2_recorded\recording_micRespv1l2_2023-11-30_12h49.40.185.wav;100.8906434;101.3907319;None;100.8906434;100.8906434;100.8906434;100.8906434;100.8906434;100.8906434;[0.8043164000846446, 1.0993780000135303, 1.4770945999771357, 1.6934164001140743, 1.9161485000513494, 2.005846200045198];;;;;;190102;1;2023-11-30_12h48.08.240;REPSWITCH1_version1_list2;2022.2.4;143.9316957;
REPSWITCH1/PICTURE_319.png;vaca;speak;gold;filler;2;F;1;3;2;1;Stim1_Set4;1;switch;17;16;17;0;16;16;16;;;;;;;;;;;;;;;;;;;;;;;101.3907319;102.411768;102.411768;102.411768;102.411768;102.411768;102.411768;102.411768;102.411768;None;0;;C:\2023\REPSWITCH21092023\REPSWITCH_excgange\REPSWITCH_excgange\data/190102_REPSWITCH1_version1_list2_2023-11-30_12h48.08.240_micRespv1l2_recorded\recording_micRespv1l2_2023-11-30_12h49.44.729.wav;105.4329305;105.9329527;None;105.4329305;105.4329305;105.4329305;105.4329305;105.4329305;105.4329305;;;;;;;190102;1;2023-11-30_12h48.08.240;REPSWITCH1_version1_list2;2022.2.4;143.9316957;
REPSWITCH1/PICTURE_728.png;pulpo;speak;gold;filler;2;F;1;3;2;1;Stim8_Set4;0;None;18;17;18;0;17;17;17;;;;;;;;;;;;;;;;;;;;;;;105.9329527;106.9817308;106.9817308;106.9817308;106.9817308;106.9817308;106.9817308;106.9817308;106.9817308;None;0;;C:\2023\REPSWITCH21092023\REPSWITCH_excgange\REPSWITCH_excgange\data/190102_REPSWITCH1_version1_list2_2023-11-30_12h48.08.240_micRespv1l2_recorded\recording_micRespv1l2_2023-11-30_12h49.49.298.wav;110.0029966;110.5030137;None;110.0029966;110.0029966;110.0029966;110.0029966;110.0029966;110.0029966;;;;;;;190102;1;2023-11-30_12h48.08.240;REPSWITCH1_version1_list2;2022.2.4;143.9316957;
REPSWITCH1/PICTURE_381.png;fresa;type;darkblue;nontarget;1;NT;1;3;2;1;Stim2_Set1;1;switch;19;18;19;0;18;18;18;;;;;;;;;;;;;;;;;;;;;;;110.5030137;111.6768601;111.6768601;111.6768601;111.6768601;111.6768601;111.6768601;111.6768601;111.6768601;['f', 'r', 'e', 's', 'a'];0;fresa;C:\2023\REPSWITCH21092023\REPSWITCH_excgange\REPSWITCH_excgange\data/190102_REPSWITCH1_version1_list2_2023-11-30_12h48.08.240_micRespv1l2_recorded\recording_micRespv1l2_2023-11-30_12h49.53.993.wav;114.6980066;115.1980949;None;114.6980066;114.6980066;114.6980066;114.6980066;114.6980066;114.6980066;[1.1319877000059932, 1.3064395000692457, 1.5028456000145525, 1.6344058001413941, 1.7440373001154512];;;;;;190102;1;2023-11-30_12h48.08.240;REPSWITCH1_version1_list2;2022.2.4;143.9316957;
REPSWITCH1/PICTURE_381.png;fresa;type;darkblue;repeat;1;T;1;3;2;1;Stim2_Set1;0;None;20;19;20;0;19;19;19;;;;;;;;;;;;;;;;;;;;;;;115.1980949;116.3301662;116.3301662;116.3301662;116.3301662;116.3301662;116.3301662;116.3301662;116.3301662;['f', 'r', 's', 'a', 'backspace', 'backspace'];0;fr;C:\2023\REPSWITCH21092023\REPSWITCH_excgange\REPSWITCH_excgange\data/190102_REPSWITCH1_version1_list2_2023-11-30_12h48.08.240_micRespv1l2_recorded\recording_micRespv1l2_2023-11-30_12h49.58.646.wav;119.3514247;119.8514655;None;119.3514247;119.3514247;119.3514247;119.3514247;119.3514247;119.3514247;[1.159412399865687, 1.3218390999827534, 1.6992649000603706, 1.9437181998509914, 2.453025999944657, 2.6025355998426676];;;;;;190102;1;2023-11-30_12h48.08.240;REPSWITCH1_version1_list2;2022.2.4;143.9316957;
REPSWITCH1/PICTURE_8.png;pierna;speak;gold;filler;2;F;1;3;2;1;Stim3_Set4;0;None;21;20;21;0;20;20;20;;;;;;;;;;;;;;;;;;;;;;;119.8514655;120.9627533;120.9627533;120.9627533;120.9627533;120.9627533;120.9627533;120.9627533;120.9627533;None;0;;C:\2023\REPSWITCH21092023\REPSWITCH_excgange\REPSWITCH_excgange\data/190102_REPSWITCH1_version1_list2_2023-11-30_12h48.08.240_micRespv1l2_recorded\recording_micRespv1l2_2023-11-30_12h50.03.279.wav;123.984006;124.4840074;None;123.984006;123.984006;123.984006;123.984006;123.984006;123.984006;;;;;;;190102;1;2023-11-30_12h48.08.240;REPSWITCH1_version1_list2;2022.2.4;143.9316957;
REPSWITCH1/PICTURE_48.png;bombero;speak;gold;filler;2;F;1;3;2;1;Stim7_Set4;0;None;22;21;22;0;21;21;21;;;;;;;;;;;;;;;;;;;;;;;124.4840074;125.5744843;125.5744843;125.5744843;125.5744843;125.5744843;125.5744843;125.5744843;125.5744843;None;0;;C:\2023\REPSWITCH21092023\REPSWITCH_excgange\REPSWITCH_excgange\data/190102_REPSWITCH1_version1_list2_2023-11-30_12h48.08.240_micRespv1l2_recorded\recording_micRespv1l2_2023-11-30_12h50.07.891.wav;128.5957303;129.0957335;None;128.5957303;128.5957303;128.5957303;128.5957303;128.5957303;128.5957303;;;;;;;190102;1;2023-11-30_12h48.08.240;REPSWITCH1_version1_list2;2022.2.4;143.9316957;
REPSWITCH1/PICTURE_135.png;traje;type;darkblue;nontarget;1;NT;1;3;2;1;Stim3_Set1;1;switch;23;22;23;0;22;22;22;;;;;;;;;;;;;;;;;;;;;;;129.0957335;130.1861884;130.1861884;130.1861884;130.1861884;130.1861884;130.1861884;130.1861884;130.1861884;['t', 'r', 'a', 'j', 'e'];0;traje;C:\2023\REPSWITCH21092023\REPSWITCH_excgange\REPSWITCH_excgange\data/190102_REPSWITCH1_version1_list2_2023-11-30_12h48.08.240_micRespv1l2_recorded\recording_micRespv1l2_2023-11-30_12h50.12.502.wav;133.2073787;133.7074565;None;133.2073787;133.2073787;133.2073787;133.2073787;133.2073787;133.2073787;[1.1584004000760615, 1.296933599980548, 1.4294981001876295, 1.7416722001507878, 1.9092895002104342];;;;;;190102;1;2023-11-30_12h48.08.240;REPSWITCH1_version1_list2;2022.2.4;143.9316957;
REPSWITCH1/PICTURE_135.png;traje;type;darkblue;repeat;1;T;1;3;2;1;Stim3_Set1;0;None;24;23;24;0;23;23;23;;;;;;;;;;;;;;;;;;;;;;;133.7074565;134.7492875;134.7492875;134.7492875;134.7492875;134.7492875;134.7492875;134.7492875;134.7492875;['t', 'r', 'a', 'j', 'e'];0;traje;C:\2023\REPSWITCH21092023\REPSWITCH_excgange\REPSWITCH_excgange\data/190102_REPSWITCH1_version1_list2_2023-11-30_12h48.08.240_micRespv1l2_recorded\recording_micRespv1l2_2023-11-30_12h50.17.066.wav;137.7775054;;None;137.7775054;137.7775054;137.7775054;137.7775054;137.7775054;137.7775054;[0.8932584000285715, 1.0287097999826074, 2.0342103999573737, 2.2227294000331312, 2.55878739990294];;;;;;190102;1;2023-11-30_12h48.08.240;REPSWITCH1_version1_list2;2022.2.4;143.9316957;
REPSWITCH1/PICTURE_19.png;pavo;type;darkblue;nontarget;1;NT;1;3;2;1;Stim5_Set1;1;repeat;25;24;25;0;24;24;24;;;;;;;;;;;;;;;;;;;;;;;138.2775054;139.35401;139.35401;139.35401;139.35401;139.35401;139.35401;139.35401;139.35401;['p', 'a', 'v', 'o'];0;pavo;C:\2023\REPSWITCH21092023\REPSWITCH_excgange\REPSWITCH_excgange\data/190102_REPSWITCH1_version1_list2_2023-11-30_12h48.08.240_micRespv1l2_recorded\recording_micRespv1l2_2023-11-30_12h50.21.671.wav;142.3822851;;None;142.3822851;142.3822851;142.3822851;142.3822851;142.3822851;142.3822851;[1.1710039998870343, 1.3035629999358207, 1.7440495998598635, 1.925477499840781];;;;;;190102;1;2023-11-30_12h48.08.240;REPSWITCH1_version1_list2;2022.2.4;143.9316957;
REPSWITCH1/PICTURE_19.png;pavo;speak;gold;switch;2;T;1;3;2;1;Stim5_Set1;0;None;26;25;26;0;25;25;25;;;;;;;;;;;;;;;;;;;;;;;142.8822638;143.9379586;143.9379586;143.9379586;143.9379586;143.9379586;143.9379586;143.9379586;143.9379586;None;0;;C:\2023\REPSWITCH21092023\REPSWITCH_excgange\REPSWITCH_excgange\data/190102_REPSWITCH1_version1_list2_2023-11-30_12h48.08.240_micRespv1l2_recorded\recording_micRespv1l2_2023-11-30_12h50.26.255.wav;146.9661208;;None;146.9661208;146.9661208;146.9661208;146.9661208;146.9661208;146.9661208;;;;;;;190102;1;2023-11-30_12h48.08.240;REPSWITCH1_version1_list2;2022.2.4;143.9316957;
REPSWITCH1/PICTURE_142.png;vaso;speak;gold;filler;2;F;2;3;2;1;Stim7_Set1;0;None;27;26;27;0;26;26;26;;;;;;;;;;;;;;;;;;;;;;;147.4662074;148.6538761;148.6538761;148.6538761;148.6538761;148.6538761;148.6538761;148.6538761;148.6538761;None;0;;C:\2023\REPSWITCH21092023\REPSWITCH_excgange\REPSWITCH_excgange\data/190102_REPSWITCH1_version1_list2_2023-11-30_12h48.08.240_micRespv1l2_recorded\recording_micRespv1l2_2023-11-30_12h50.30.971.wav;151.6750589;152.1751653;None;151.6750589;151.6750589;151.6750589;151.6750589;151.6750589;151.6750589;;;;;;;190102;1;2023-11-30_12h48.08.240;REPSWITCH1_version1_list2;2022.2.4;143.9316957;
REPSWITCH1/PICTURE_135.png;traje;type;darkblue;filler;1;F;2;3;2;1;Stim3_Set1;0;None;28;27;28;0;27;27;27;;;;;;;;;;;;;;;;;;;;;;;152.1751653;153.251713;153.251713;153.251713;153.251713;153.251713;153.251713;153.251713;153.251713;['t', 'r', 'a', 'j', 'e'];0;traje;C:\2023\REPSWITCH21092023\REPSWITCH_excgange\REPSWITCH_excgange\data/190102_REPSWITCH1_version1_list2_2023-11-30_12h48.08.240_micRespv1l2_recorded\recording_micRespv1l2_2023-11-30_12h50.35.568.wav;156.2729577;156.7729446;None;156.2729577;156.2729577;156.2729577;156.2729577;156.2729577;156.2729577;[1.142433299915865, 1.285617700079456, 1.406508200103417, 1.6837814999744296, 1.8263000999577343];;;;;;190102;1;2023-11-30_12h48.08.240;REPSWITCH1_version1_list2;2022.2.4;143.9316957;
REPSWITCH1/PICTURE_446.png;cerdo;type;darkblue;nontarget;1;NT;2;3;2;1;Stim7_Set2;0;None;29;28;29;0;28;28;28;;;;;;;;;;;;;;;;;;;;;;;156.7729446;157.960657;157.960657;157.960657;157.960657;157.960657;157.960657;157.960657;157.960657;['c', 'e', 'r', 'd', 'o'];0;cerdo;C:\2023\REPSWITCH21092023\REPSWITCH_excgange\REPSWITCH_excgange\data/190102_REPSWITCH1_version1_list2_2023-11-30_12h48.08.240_micRespv1l2_recorded\recording_micRespv1l2_2023-11-30_12h50.40.278.wav;160.9888108;;None;160.9888108;160.9888108;160.9888108;160.9888108;160.9888108;160.9888108;[1.1891188998706639, 1.3518989998847246, 1.531589499907568, 1.737948999973014, 1.8565110999625176];;;;;;190102;1;2023-11-30_12h48.08.240;REPSWITCH1_version1_list2;2022.2.4;143.9316957;
REPSWITCH1/PICTURE_446.png;cerdo;type;darkblue;repeat;1;T;2;3;2;1;Stim7_Set2;0;None;30;29;30;0;29;29;29;;;;;;;;;;;;;;;;;;;;;;;161.4888542;162.502883;162.502883;162.502883;162.502883;162.502883;162.502883;162.502883;162.502883;['c', 'e', 'r', 'd', 'o'];0;cerdo;C:\2023\REPSWITCH21092023\REPSWITCH_excgange\REPSWITCH_excgange\data/190102_REPSWITCH1_version1_list2_2023-11-30_12h48.08.240_micRespv1l2_recorded\recording_micRespv1l2_2023-11-30_12h50.44.820.wav;165.5311351;;None;165.5311351;165.5311351;165.5311351;165.5311351;165.5311351;165.5311351;[1.0421196001116186, 1.241470400011167, 1.3958394001238048, 1.5988479000516236, 1.7523668000940233];;;;;;190102;1;2023-11-30_12h48.08.240;REPSWITCH1_version1_list2;2022.2.4;143.9316957;
REPSWITCH1/PICTURE_16.png;cazador;speak;gold;filler;2;F;2;3;2;1;Stim6_Set1;0;None;31;30;31;0;30;30;30;;;;;;;;;;;;;;;;;;;;;;;166.0312011;167.1563446;167.1563446;167.1563446;167.1563446;167.1563446;167.1563446;167.1563446;167.1563446;None;0;;C:\2023\REPSWITCH21092023\REPSWITCH_excgange\REPSWITCH_excgange\data/190102_REPSWITCH1_version1_list2_2023-11-30_12h48.08.240_micRespv1l2_recorded\recording_micRespv1l2_2023-11-30_12h50.49.473.wav;170.1774907;170.6776612;None;170.1774907;170.1774907;170.1774907;170.1774907;170.1774907;170.1774907;;;;;;;190102;1;2023-11-30_12h48.08.240;REPSWITCH1_version1_list2;2022.2.4;143.9316957;
REPSWITCH1/PICTURE_552.png;manzana;type;darkblue;nontarget;1;NT;2;3;2;1;Stim6_Set2;1;switch;32;31;32;0;31;31;31;;;;;;;;;;;;;;;;;;;;;;;170.6776612;171.8096788;171.8096788;171.8096788;171.8096788;171.8096788;171.8096788;171.8096788;171.8096788;['f', 'e', 's', 'a'];0;fesa;C:\2023\REPSWITCH21092023\REPSWITCH_excgange\REPSWITCH_excgange\data/190102_REPSWITCH1_version1_list2_2023-11-30_12h48.08.240_micRespv1l2_recorded\recording_micRespv1l2_2023-11-30_12h50.54.126.wav;174.8309485;175.3310191;None;174.8309485;174.8309485;174.8309485;174.8309485;174.8309485;174.8309485;[1.1205543999094516, 1.59911990002729, 1.7739478999283165, 1.872664999915287];;;;;;190102;1;2023-11-30_12h48.08.240;REPSWITCH1_version1_list2;2022.2.4;143.9316957;
REPSWITCH1/PICTURE_552.png;manzana;type;darkblue;repeat;1;T;2;3;2;1;Stim6_Set2;0;None;33;32;33;0;32;32;32;;;;;;;;;;;;;;;;;;;;;;;175.3310191;176.3588995;176.3588995;176.3588995;176.3588995;176.3588995;176.3588995;176.3588995;176.3588995;['m', 'a', 'n', 'z', 'a', 'n', 'a'];0;manzana;C:\2023\REPSWITCH21092023\REPSWITCH_excgange\REPSWITCH_excgange\data/190102_REPSWITCH1_version1_list2_2023-11-30_12h48.08.240_micRespv1l2_recorded\recording_micRespv1l2_2023-11-30_12h50.58.676.wav;179.3870263;;None;179.3870263;179.3870263;179.3870263;179.3870263;179.3870263;179.3870263;[0.6455304999835789, 0.8013324998319149, 0.9121778998523951, 1.1095186998136342, 1.2490518998820335, 1.3280660000164062, 1.404217999894172];;;;;;190102;1;2023-11-30_12h48.08.240;REPSWITCH1_version1_list2;2022.2.4;143.9316957;
REPSWITCH1/PICTURE_517.png;cuerda;type;darkblue;nontarget;1;NT;2;3;2;1;Stim4_Set2;0;None;34;33;34;0;33;33;33;;;;;;;;;;;;;;;;;;;;;;;179.8871247;181.0608692;181.0608692;181.0608692;181.0608692;181.0608692;181.0608692;181.0608692;181.0608692;['c', 'u', 'e', 'r', 'd', 'a'];0;cuerda;C:\2023\REPSWITCH21092023\REPSWITCH_excgange\REPSWITCH_excgange\data/190102_REPSWITCH1_version1_list2_2023-11-30_12h48.08.240_micRespv1l2_recorded\recording_micRespv1l2_2023-11-30_12h51.03.377.wav;184.0821204;184.5821687;None;184.0821204;184.0821204;184.0821204;184.0821204;184.0821204;184.0821204;[1.011663099983707, 1.286987700033933, 1.4504650000017136, 1.5951209000777453, 1.8092087002005428, 1.8968766001053154];;;;;;190102;1;2023-11-30_12h48.08.240;REPSWITCH1_version1_list2;2022.2.4;143.9316957;
REPSWITCH1/PICTURE_517.png;cuerda;speak;gold;switch;2;T;2;3;2;1;Stim4_Set2;0;None;35;34;35;0;34;34;34;;;;;;;;;;;;;;;;;;;;;;;184.5821687;185.603124;185.603124;185.603124;185.603124;185.603124;185.603124;185.603124;185.603124;None;0;;C:\2023\REPSWITCH21092023\REPSWITCH_excgange\REPSWITCH_excgange\data/190102_REPSWITCH1_version1_list2_2023-11-30_12h48.08.240_micRespv1l2_recorded\recording_micRespv1l2_2023-11-30_12h51.07.920.wav;188.6313077;;None;188.6313077;188.6313077;188.6313077;188.6313077;188.6313077;188.6313077;;;;;;;190102;1;2023-11-30_12h48.08.240;REPSWITCH1_version1_list2;2022.2.4;143.9316957;
REPSWITCH1/PICTURE_169.png;espalda;speak;gold;filler;2;F;2;3;2;1;Stim8_Set1;1;repeat;36;35;36;0;35;35;35;;;;;;;;;;;;;;;;;;;;;;;189.1313912;190.2427051;190.2427051;190.2427051;190.2427051;190.2427051;190.2427051;190.2427051;190.2427051;None;0;;C:\2023\REPSWITCH21092023\REPSWITCH_excgange\REPSWITCH_excgange\data/190102_REPSWITCH1_version1_list2_2023-11-30_12h48.08.240_micRespv1l2_recorded\recording_micRespv1l2_2023-11-30_12h51.12.559.wav;193.2638386;193.7639385;None;193.2638386;193.2638386;193.2638386;193.2638386;193.2638386;193.2638386;;;;;;;190102;1;2023-11-30_12h48.08.240;REPSWITCH1_version1_list2;2022.2.4;143.9316957;
REPSWITCH1/PICTURE_30.png;granja;speak;gold;nontarget;2;NT;2;3;2;1;Stim5_Set2;1;repeat;37;36;37;0;36;36;36;;;;;;;;;;;;;;;;;;;;;;;193.7639385;194.9098939;194.9098939;194.9098939;194.9098939;194.9098939;194.9098939;194.9098939;194.9098939;None;0;;C:\2023\REPSWITCH21092023\REPSWITCH_excgange\REPSWITCH_excgange\data/190102_REPSWITCH1_version1_list2_2023-11-30_12h48.08.240_micRespv1l2_recorded\recording_micRespv1l2_2023-11-30_12h51.17.228.wav;197.9381;;None;197.9381;197.9381;197.9381;197.9381;197.9381;197.9381;;;;;;;190102;1;2023-11-30_12h48.08.240;REPSWITCH1_version1_list2;2022.2.4;143.9316957;
REPSWITCH1/PICTURE_30.png;granja;type;darkblue;switch;1;T;2;3;2;1;Stim5_Set2;0;None;38;37;38;0;37;37;37;;;;;;;;;;;;;;;;;;;;;;;198.4381626;199.4799377;199.4799377;199.4799377;199.4799377;199.4799377;199.4799377;199.4799377;199.4799377;['g', 'r', 'a', 'n', 'j', 'a'];0;granja;C:\2023\REPSWITCH21092023\REPSWITCH_excgange\REPSWITCH_excgange\data/190102_REPSWITCH1_version1_list2_2023-11-30_12h48.08.240_micRespv1l2_recorded\recording_micRespv1l2_2023-11-30_12h51.21.797.wav;202.5081436;;None;202.5081436;202.5081436;202.5081436;202.5081436;202.5081436;202.5081436;[1.1774287999141961, 1.353821599856019, 1.552285599987954, 1.7878050999715924, 1.9582231999374926, 2.01744329999201];;;;;;190102;1;2023-11-30_12h48.08.240;REPSWITCH1_version1_list2;2022.2.4;143.9316957;
REPSWITCH1/PICTURE_128.png;muñeca;type;darkblue;filler;1;F;2;3;2;1;Stim4_Set1;1;repeat;39;38;39;0;38;38;38;;;;;;;;;;;;;;;;;;;;;;;203.0082061;204.0291801;204.0291801;204.0291801;204.0291801;204.0291801;204.0291801;204.0291801;204.0291801;['m', 'u', 'ñ', 'e', 'c', 'a'];0;muñeca;C:\2023\REPSWITCH21092023\REPSWITCH_excgange\REPSWITCH_excgange\data/190102_REPSWITCH1_version1_list2_2023-11-30_12h48.08.240_micRespv1l2_recorded\recording_micRespv1l2_2023-11-30_12h51.26.346.wav;207.0573547;;None;207.0573547;207.0573547;207.0573547;207.0573547;207.0573547;207.0573547;[0.9499071000609547, 1.1613749999087304, 1.6887753000482917, 1.8303626999258995, 2.351873500039801, 2.441568400012329];;;;;;190102;1;2023-11-30_12h48.08.240;REPSWITCH1_version1_list2;2022.2.4;143.9316957;
REPSWITCH1/PICTURE_199.png;falda;type;darkblue;nontarget;1;NT;2;3;2;1;Stim8_Set2;0;None;40;39;40;0;39;39;39;;;;;;;;;;;;;;;;;;;;;;;207.5574123;208.5714762;208.5714762;208.5714762;208.5714762;208.5714762;208.5714762;208.5714762;208.5714762;['f', 'a', 'l', 'd', 'a'];0;falda;C:\2023\REPSWITCH21092023\REPSWITCH_excgange\REPSWITCH_excgange\data/190102_REPSWITCH1_version1_list2_2023-11-30_12h48.08.240_micRespv1l2_recorded\recording_micRespv1l2_2023-11-30_12h51.30.888.wav;211.5926771;212.0927211;None;211.5926771;211.5926771;211.5926771;211.5926771;211.5926771;211.5926771;[1.1310511999763548, 1.2426603001076728, 1.5486502998974174, 1.8117633000947535, 1.875567700015381];;;;;;190102;1;2023-11-30_12h48.08.240;REPSWITCH1_version1_list2;2022.2.4;143.9316957;
REPSWITCH1/PICTURE_199.png;falda;speak;gold;switch;2;T;2;3;2;1;Stim8_Set2;0;None;41;40;41;0;40;40;40;;;;;;;;;;;;;;;;;;;;;;;212.0927211;213.2040053;213.2040053;213.2040053;213.2040053;213.2040053;213.2040053;213.2040053;213.2040053;None;0;;C:\2023\REPSWITCH21092023\REPSWITCH_excgange\REPSWITCH_excgange\data/190102_REPSWITCH1_version1_list2_2023-11-30_12h48.08.240_micRespv1l2_recorded\recording_micRespv1l2_2023-11-30_12h51.35.521.wav;216.2321536;;None;216.2321536;216.2321536;216.2321536;216.2321536;216.2321536;216.2321536;;;;;;;190102;1;2023-11-30_12h48.08.240;REPSWITCH1_version1_list2;2022.2.4;143.9316957;
REPSWITCH1/PICTURE_152.png;caracol;speak;gold;nontarget;2;NT;2;3;2;1;Stim2_Set2;1;switch;42;41;42;0;41;41;41;;;;;;;;;;;;;;;;;;;;;;;216.7322229;217.8573863;217.8573863;217.8573863;217.8573863;217.8573863;217.8573863;217.8573863;217.8573863;None;0;;C:\2023\REPSWITCH21092023\REPSWITCH_excgange\REPSWITCH_excgange\data/190102_REPSWITCH1_version1_list2_2023-11-30_12h48.08.240_micRespv1l2_recorded\recording_micRespv1l2_2023-11-30_12h51.40.174.wav;220.8855312;;None;220.8855312;220.8855312;220.8855312;220.8855312;220.8855312;220.8855312;;;;;;;190102;1;2023-11-30_12h48.08.240;REPSWITCH1_version1_list2;2022.2.4;143.9316957;
REPSWITCH1/PICTURE_152.png;caracol;speak;gold;repeat;2;T;2;3;2;1;Stim2_Set2;0;None;43;42;43;0;42;42;42;;;;;;;;;;;;;;;;;;;;;;;221.3855987;222.4343976;222.4343976;222.4343976;222.4343976;222.4343976;222.4343976;222.4343976;222.4343976;None;0;;C:\2023\REPSWITCH21092023\REPSWITCH_excgange\REPSWITCH_excgange\data/190102_REPSWITCH1_version1_list2_2023-11-30_12h48.08.240_micRespv1l2_recorded\recording_micRespv1l2_2023-11-30_12h51.44.751.wav;225.4625362;;None;225.4625362;225.4625362;225.4625362;225.4625362;225.4625362;225.4625362;;;;;;;190102;1;2023-11-30_12h48.08.240;REPSWITCH1_version1_list2;2022.2.4;143.9316957;
REPSWITCH1/PICTURE_381.png;fresa;type;darkblue;filler;1;F;2;3;2;1;Stim2_Set1;0;None;44;43;44;0;43;43;43;;;;;;;;;;;;;;;;;;;;;;;225.962606;227.0321906;227.0321906;227.0321906;227.0321906;227.0321906;227.0321906;227.0321906;227.0321906;['f', 'r', 's', 'a', 'backspace', 'backspace'];0;fr;C:\2023\REPSWITCH21092023\REPSWITCH_excgange\REPSWITCH_excgange\data/190102_REPSWITCH1_version1_list2_2023-11-30_12h48.08.240_micRespv1l2_recorded\recording_micRespv1l2_2023-11-30_12h51.49.349.wav;230.0603656;;None;230.0603656;230.0603656;230.0603656;230.0603656;230.0603656;230.0603656;[1.493874300038442, 1.6675078000407666, 1.9678134999703616, 2.1202884998638183, 2.663612100062892, 2.8032500999979675];;;;;;190102;1;2023-11-30_12h48.08.240;REPSWITCH1_version1_list2;2022.2.4;143.9316957;
REPSWITCH1/PICTURE_175.png;pintor;speak;gold;nontarget;2;NT;2;3;2;1;Stim1_Set2;1;switch;45;44;45;0;44;44;44;;;;;;;;;;;;;;;;;;;;;;;230.5604148;231.6647345;231.6647345;231.6647345;231.6647345;231.6647345;231.6647345;231.6647345;231.6647345;None;0;;C:\2023\REPSWITCH21092023\REPSWITCH_excgange\REPSWITCH_excgange\data/190102_REPSWITCH1_version1_list2_2023-11-30_12h48.08.240_micRespv1l2_recorded\recording_micRespv1l2_2023-11-30_12h51.53.982.wav;234.692883;;None;234.692883;234.692883;234.692883;234.692883;234.692883;234.692883;;;;;;;190102;1;2023-11-30_12h48.08.240;REPSWITCH1_version1_list2;2022.2.4;143.9316957;
REPSWITCH1/PICTURE_175.png;pintor;speak;gold;repeat;2;T;2;3;2;1;Stim1_Set2;0;None;46;45;46;0;45;45;45;;;;;;;;;;;;;;;;;;;;;;;235.19294;236.2834107;236.2834107;236.2834107;236.2834107;236.2834107;236.2834107;236.2834107;236.2834107;None;0;;C:\2023\REPSWITCH21092023\REPSWITCH_excgange\REPSWITCH_excgange\data/190102_REPSWITCH1_version1_list2_2023-11-30_12h48.08.240_micRespv1l2_recorded\recording_micRespv1l2_2023-11-30_12h51.58.600.wav;239.3045965;239.8046906;None;239.3045965;239.3045965;239.3045965;239.3045965;239.3045965;239.3045965;;;;;;;190102;1;2023-11-30_12h48.08.240;REPSWITCH1_version1_list2;2022.2.4;143.9316957;
REPSWITCH1/PICTURE_178.png;puente;type;darkblue;filler;1;F;2;3;2;1;Stim1_Set1;0;None;47;46;47;0;46;46;46;;;;;;;;;;;;;;;;;;;;;;;239.8046906;240.9506936;240.9506936;240.9506936;240.9506936;240.9506936;240.9506936;240.9506936;240.9506936;['p', 'u', 'e', 'n', 't', 'e'];0;puente;C:\2023\REPSWITCH21092023\REPSWITCH_excgange\REPSWITCH_excgange\data/190102_REPSWITCH1_version1_list2_2023-11-30_12h48.08.240_micRespv1l2_recorded\recording_micRespv1l2_2023-11-30_12h52.03.268.wav;243.9788085;;None;243.9788085;243.9788085;243.9788085;243.9788085;243.9788085;243.9788085;[0.9640840000938624, 1.4749292000196874, 1.6003932999446988, 1.7020118001382798, 1.887448800029233, 1.9392246000934392];;;;;;190102;1;2023-11-30_12h48.08.240;REPSWITCH1_version1_list2;2022.2.4;143.9316957;
REPSWITCH1/PICTURE_19.png;pavo;speak;gold;filler;2;F;2;3;2;1;Stim5_Set1;0;None;48;47;48;0;47;47;47;;;;;;;;;;;;;;;;;;;;;;;244.4789076;245.5554778;245.5554778;245.5554778;245.5554778;245.5554778;245.5554778;245.5554778;245.5554778;None;0;;C:\2023\REPSWITCH21092023\REPSWITCH_excgange\REPSWITCH_excgange\data/190102_REPSWITCH1_version1_list2_2023-11-30_12h48.08.240_micRespv1l2_recorded\recording_micRespv1l2_2023-11-30_12h52.07.873.wav;248.5766416;249.0767163;None;248.5766416;248.5766416;248.5766416;248.5766416;248.5766416;248.5766416;;;;;;;190102;1;2023-11-30_12h48.08.240;REPSWITCH1_version1_list2;2022.2.4;143.9316957;
REPSWITCH1/PICTURE_264.png;mano;speak;gold;nontarget;2;NT;2;3;2;1;Stim3_Set2;1;repeat;49;48;49;0;48;48;48;;;;;;;;;;;;;;;;;;;;;;;249.0767163;250.1602266;250.1602266;250.1602266;250.1602266;250.1602266;250.1602266;250.1602266;250.1602266;None;0;;C:\2023\REPSWITCH21092023\REPSWITCH_excgange\REPSWITCH_excgange\data/190102_REPSWITCH1_version1_list2_2023-11-30_12h48.08.240_micRespv1l2_recorded\recording_micRespv1l2_2023-11-30_12h52.12.477.wav;253.181452;253.6815073;None;253.181452;253.181452;253.181452;253.181452;253.181452;253.181452;;;;;;;190102;1;2023-11-30_12h48.08.240;REPSWITCH1_version1_list2;2022.2.4;143.9316957;
REPSWITCH1/PICTURE_264.png;mano;type;darkblue;switch;1;T;2;3;2;1;Stim3_Set2;0;None;50;49;50;0;49;49;49;;;;;;;;;;;;;;;;;;;;;;;253.6815073;254.7511541;254.7511541;254.7511541;254.7511541;254.7511541;254.7511541;254.7511541;254.7511541;['m', 'a', 'n', 'o'];0;mano;C:\2023\REPSWITCH21092023\REPSWITCH_excgange\REPSWITCH_excgange\data/190102_REPSWITCH1_version1_list2_2023-11-30_12h48.08.240_micRespv1l2_recorded\recording_micRespv1l2_2023-11-30_12h52.17.068.wav;257.7723996;258.2723966;None;257.7723996;257.7723996;257.7723996;257.7723996;257.7723996;257.7723996;[0.9901272000279278, 1.1814812999218702, 1.2861283998936415, 1.4956813999451697];;;;;;190102;1;2023-11-30_12h48.08.240;REPSWITCH1_version1_list2;2022.2.4;143.9316957;
REPSWITCH1/PICTURE_446.png;cerdo;type;darkblue;filler;1;F;3;3;2;1;Stim7_Set2;0;None;51;50;51;0;50;50;50;;;;;;;;;;;;;;;;;;;;;;;258.2723966;259.3211645;259.3211645;259.3211645;259.3211645;259.3211645;259.3211645;259.3211645;259.3211645;['c', 'e', 'r', 'd', 'o'];0;cerdo;C:\2023\REPSWITCH21092023\REPSWITCH_excgange\REPSWITCH_excgange\data/190102_REPSWITCH1_version1_list2_2023-11-30_12h48.08.240_micRespv1l2_recorded\recording_micRespv1l2_2023-11-30_12h52.21.637.wav;262.3423722;262.8424987;space;262.3423722;262.3423722;262.3423722;262.3423722;262.3423722;262.3423722;[0.8717710999771953, 1.087873199954629, 1.2871113999281079, 1.6434750000480562, 1.747585300123319];262.8424987;262.8424987;9.0724559;;;190102;1;2023-11-30_12h48.08.240;REPSWITCH1_version1_list2;2022.2.4;143.9316957;
REPSWITCH1/PICTURE_235.png;aguja;type;darkblue;nontarget;1;NT;3;3;2;1;Stim4_Set3;1;repeat;52;51;52;0;51;51;51;;;;;;;;;;;;;;;;;;;;;;;271.9269356;273.107661;273.107661;273.107661;273.107661;273.107661;273.107661;273.107661;273.107661;['a', 'g', 'u', 'j', 'a'];0;aguja;C:\2023\REPSWITCH21092023\REPSWITCH_excgange\REPSWITCH_excgange\data/190102_REPSWITCH1_version1_list2_2023-11-30_12h48.08.240_micRespv1l2_recorded\recording_micRespv1l2_2023-11-30_12h52.35.423.wav;276.128898;276.6290162;None;276.128898;276.128898;276.128898;276.128898;276.128898;276.128898;[1.470012999838218, 1.9442375998478383, 2.1551806998904794, 2.4771350999362767, 2.5678365998901427];;;;;;190102;1;2023-11-30_12h48.08.240;REPSWITCH1_version1_list2;2022.2.4;143.9316957;
REPSWITCH1/PICTURE_235.png;aguja;speak;gold;switch;2;T;3;3;2;1;Stim4_Set3;0;None;53;52;53;0;52;52;52;;;;;;;;;;;;;;;;;;;;;;;276.6290162;277.6916712;277.6916712;277.6916712;277.6916712;277.6916712;277.6916712;277.6916712;277.6916712;None;0;;C:\2023\REPSWITCH21092023\REPSWITCH_excgange\REPSWITCH_excgange\data/190102_REPSWITCH1_version1_list2_2023-11-30_12h48.08.240_micRespv1l2_recorded\recording_micRespv1l2_2023-11-30_12h52.40.008.wav;280.7128802;281.2128725;None;280.7128802;280.7128802;280.7128802;280.7128802;280.7128802;280.7128802;;;;;;;190102;1;2023-11-30_12h48.08.240;REPSWITCH1_version1_list2;2022.2.4;143.9316957;
REPSWITCH1/PICTURE_552.png;manzana;speak;gold;filler;2;F;3;3;2;1;Stim6_Set2;0;None;54;53;54;0;53;53;53;;;;;;;;;;;;;;;;;;;;;;;281.2128725;282.3172632;282.3172632;282.3172632;282.3172632;282.3172632;282.3172632;282.3172632;282.3172632;None;0;;C:\2023\REPSWITCH21092023\REPSWITCH_excgange\REPSWITCH_excgange\data/190102_REPSWITCH1_version1_list2_2023-11-30_12h48.08.240_micRespv1l2_recorded\recording_micRespv1l2_2023-11-30_12h52.44.634.wav;285.3453843;;None;285.3453843;285.3453843;285.3453843;285.3453843;285.3453843;285.3453843;;;;;;;190102;1;2023-11-30_12h48.08.240;REPSWITCH1_version1_list2;2022.2.4;143.9316957;
REPSWITCH1/PICTURE_271.png;conejo;speak;gold;nontarget;2;NT;3;3;2;1;Stim7_Set3;1;repeat;55;54;55;0;54;54;54;;;;;;;;;;;;;;;;;;;;;;;285.8454348;287.0748321;287.0748321;287.0748321;287.0748321;287.0748321;287.0748321;287.0748321;287.0748321;None;0;;C:\2023\REPSWITCH21092023\REPSWITCH_excgange\REPSWITCH_excgange\data/190102_REPSWITCH1_version1_list2_2023-11-30_12h48.08.240_micRespv1l2_recorded\recording_micRespv1l2_2023-11-30_12h52.49.391.wav;290.0960113;290.5960575;None;290.0960113;290.0960113;290.0960113;290.0960113;290.0960113;290.0960113;;;;;;;190102;1;2023-11-30_12h48.08.240;REPSWITCH1_version1_list2;2022.2.4;143.9316957;
REPSWITCH1/PICTURE_271.png;conejo;type;darkblue;switch;1;T;3;3;2;1;Stim7_Set3;0;None;56;55;56;0;55;55;55;;;;;;;;;;;;;;;;;;;;;;;290.5960575;291.6865398;291.6865398;291.6865398;291.6865398;291.6865398;291.6865398;291.6865398;291.6865398;['c', 'o', 'n', 'e', 'j', 'o'];0;conejo;C:\2023\REPSWITCH21092023\REPSWITCH_excgange\REPSWITCH_excgange\data/190102_REPSWITCH1_version1_list2_2023-11-30_12h48.08.240_micRespv1l2_recorded\recording_micRespv1l2_2023-11-30_12h52.54.003.wav;294.7146593;;None;294.7146593;294.7146593;294.7146593;294.7146593;294.7146593;294.7146593;[0.9965105999726802, 1.132697300054133, 1.3815258999820799, 1.5322893999982625, 1.6657976999413222, 1.824429600033909];;;;;;190102;1;2023-11-30_12h48.08.240;REPSWITCH1_version1_list2;2022.2.4;143.9316957;
REPSWITCH1/PICTURE_610.png;miel;type;darkblue;nontarget;1;NT;3;3;2;1;Stim2_Set3;1;repeat;57;56;57;0;56;56;56;;;;;;;;;;;;;;;;;;;;;;;295.2147044;296.3677232;296.3677232;296.3677232;296.3677232;296.3677232;296.3677232;296.3677232;296.3677232;['m', 'i', 'e', 'l'];0;miel;C:\2023\REPSWITCH21092023\REPSWITCH_excgange\REPSWITCH_excgange\data/190102_REPSWITCH1_version1_list2_2023-11-30_12h48.08.240_micRespv1l2_recorded\recording_micRespv1l2_2023-11-30_12h52.58.684.wav;299.3958082;;None;299.3958082;299.3958082;299.3958082;299.3958082;299.3958082;299.3958082;[0.9369389000348747, 1.1275739001575857, 1.276398700196296, 1.4468149000313133];;;;;;190102;1;2023-11-30_12h48.08.240;REPSWITCH1_version1_list2;2022.2.4;143.9316957;
REPSWITCH1/PICTURE_610.png;miel;speak;gold;switch;2;T;3;3;2;1;Stim2_Set3;0;None;58;57;58;0;57;57;57;;;;;;;;;;;;;;;;;;;;;;;299.8959739;301.0557579;301.0557579;301.0557579;301.0557579;301.0557579;301.0557579;301.0557579;301.0557579;None;0;;C:\2023\REPSWITCH21092023\REPSWITCH_excgange\REPSWITCH_excgange\data/190102_REPSWITCH1_version1_list2_2023-11-30_12h48.08.240_micRespv1l2_recorded\recording_micRespv1l2_2023-11-30_12h53.03.372.wav;304.0839269;;None;304.0839269;304.0839269;304.0839269;304.0839269;304.0839269;304.0839269;;;;;;;190102;1;2023-11-30_12h48.08.240;REPSWITCH1_version1_list2;2022.2.4;143.9316957;
REPSWITCH1/PICTURE_199.png;falda;type;darkblue;filler;1;F;3;3;2;1;Stim8_Set2;0;None;59;58;59;0;58;58;58;;;;;;;;;;;;;;;;;;;;;;;304.5840872;305.6606017;305.6606017;305.6606017;305.6606017;305.6606017;305.6606017;305.6606017;305.6606017;['f', 'a', 'l', 'd', 'a'];0;falda;C:\2023\REPSWITCH21092023\REPSWITCH_excgange\REPSWITCH_excgange\data/190102_REPSWITCH1_version1_list2_2023-11-30_12h48.08.240_micRespv1l2_recorded\recording_micRespv1l2_2023-11-30_12h53.07.976.wav;308.6817493;309.1818183;None;308.6817493;308.6817493;308.6817493;308.6817493;308.6817493;308.6817493;[1.3494843000080436, 1.4989790001418442, 1.746300300117582, 2.0031507001258433, 2.0739114000461996];;;;;;190102;1;2023-11-30_12h48.08.240;REPSWITCH1_version1_list2;2022.2.4;143.9316957;
REPSWITCH1/PICTURE_464.png;goma;speak;gold;nontarget;2;NT;3;3;2;1;Stim6_Set3;1;switch;60;59;60;0;59;59;59;;;;;;;;;;;;;;;;;;;;;;;309.1818183;310.334757;310.334757;310.334757;310.334757;310.334757;310.334757;310.334757;310.334757;None;0;;C:\2023\REPSWITCH21092023\REPSWITCH_excgange\REPSWITCH_excgange\data/190102_REPSWITCH1_version1_list2_2023-11-30_12h48.08.240_micRespv1l2_recorded\recording_micRespv1l2_2023-11-30_12h53.12.651.wav;313.3629823;;None;313.3629823;313.3629823;313.3629823;313.3629823;313.3629823;313.3629823;;;;;;;190102;1;2023-11-30_12h48.08.240;REPSWITCH1_version1_list2;2022.2.4;143.9316957;
REPSWITCH1/PICTURE_464.png;goma;speak;gold;repeat;2;T;3;3;2;1;Stim6_Set3;0;None;61;60;61;0;60;60;60;;;;;;;;;;;;;;;;;;;;;;;313.8630147;314.9395261;314.9395261;314.9395261;314.9395261;314.9395261;314.9395261;314.9395261;314.9395261;None;0;;C:\2023\REPSWITCH21092023\REPSWITCH_excgange\REPSWITCH_excgange\data/190102_REPSWITCH1_version1_list2_2023-11-30_12h48.08.240_micRespv1l2_recorded\recording_micRespv1l2_2023-11-30_12h53.17.255.wav;317.9607528;318.4607991;None;317.9607528;317.9607528;317.9607528;317.9607528;317.9607528;317.9607528;;;;;;;190102;1;2023-11-30_12h48.08.240;REPSWITCH1_version1_list2;2022.2.4;143.9316957;
REPSWITCH1/PICTURE_152.png;caracol;type;darkblue;filler;1;F;3;3;2;1;Stim2_Set2;0;None;62;61;62;0;61;61;61;;;;;;;;;;;;;;;;;;;;;;;318.4607991;319.6971747;319.6971747;319.6971747;319.6971747;319.6971747;319.6971747;319.6971747;319.6971747;['c', 'a', 'r', 'a', 'c', 'o', 'l'];0;caracol;C:\2023\REPSWITCH21092023\REPSWITCH_excgange\REPSWITCH_excgange\data/190102_REPSWITCH1_version1_list2_2023-11-30_12h48.08.240_micRespv1l2_recorded\recording_micRespv1l2_2023-11-30_12h53.22.014.wav;322.718302;323.2184852;None;322.718302;322.718302;322.718302;322.718302;322.718302;322.718302;[1.034373400034383, 1.1579646000172943, 1.2725458000786602, 1.3565960999112576, 1.4780687000602484, 1.8368834001012146, 1.9714335999451578];;;;;;190102;1;2023-11-30_12h48.08.240;REPSWITCH1_version1_list2;2022.2.4;143.9316957;
REPSWITCH1/PICTURE_320.png;iglesia;speak;gold;nontarget;2;NT;3;3;2;1;Stim8_Set3;1;switch;63;62;63;0;62;62;62;;;;;;;;;;;;;;;;;;;;;;;323.2184852;324.3505242;324.3505242;324.3505242;324.3505242;324.3505242;324.3505242;324.3505242;324.3505242;None;0;;C:\2023\REPSWITCH21092023\REPSWITCH_excgange\REPSWITCH_excgange\data/190102_REPSWITCH1_version1_list2_2023-11-30_12h48.08.240_micRespv1l2_recorded\recording_micRespv1l2_2023-11-30_12h53.26.667.wav;327.3716917;327.8717548;None;327.3716917;327.3716917;327.3716917;327.3716917;327.3716917;327.3716917;;;;;;;190102;1;2023-11-30_12h48.08.240;REPSWITCH1_version1_list2;2022.2.4;143.9316957;
REPSWITCH1/PICTURE_320.png;iglesia;speak;gold;repeat;2;T;3;3;2;1;Stim8_Set3;0;None;64;63;64;0;63;63;63;;;;;;;;;;;;;;;;;;;;;;;327.8717548;328.9205265;328.9205265;328.9205265;328.9205265;328.9205265;328.9205265;328.9205265;328.9205265;None;0;;C:\2023\REPSWITCH21092023\REPSWITCH_excgange\REPSWITCH_excgange\data/190102_REPSWITCH1_version1_list2_2023-11-30_12h48.08.240_micRespv1l2_recorded\recording_micRespv1l2_2023-11-30_12h53.31.237.wav;331.9418126;332.4418167;None;331.9418126;331.9418126;331.9418126;331.9418126;331.9418126;331.9418126;;;;;;;190102;1;2023-11-30_12h48.08.240;REPSWITCH1_version1_list2;2022.2.4;143.9316957;
REPSWITCH1/PICTURE_35.png;oreja;speak;gold;nontarget;2;NT;3;3;2;1;Stim5_Set3;0;None;65;64;65;0;64;64;64;;;;;;;;;;;;;;;;;;;;;;;332.4418167;333.6017466;333.6017466;333.6017466;333.6017466;333.6017466;333.6017466;333.6017466;333.6017466;None;0;;C:\2023\REPSWITCH21092023\REPSWITCH_excgange\REPSWITCH_excgange\data/190102_REPSWITCH1_version1_list2_2023-11-30_12h48.08.240_micRespv1l2_recorded\recording_micRespv1l2_2023-11-30_12h53.35.918.wav;336.6229135;337.123068;None;336.6229135;336.6229135;336.6229135;336.6229135;336.6229135;336.6229135;;;;;;;190102;1;2023-11-30_12h48.08.240;REPSWITCH1_version1_list2;2022.2.4;143.9316957;
REPSWITCH1/PICTURE_35.png;oreja;type;darkblue;switch;1;T;3;3;2;1;Stim5_Set3;0;None;66;65;66;0;65;65;65;;;;;;;;;;;;;;;;;;;;;;;337.123068;338.3662135;338.3662135;338.3662135;338.3662135;338.3662135;338.3662135;338.3662135;338.3662135;['o', 'r', 'e', 'j', 'a'];0;oreja;C:\2023\REPSWITCH21092023\REPSWITCH_excgange\REPSWITCH_excgange\data/190102_REPSWITCH1_version1_list2_2023-11-30_12h48.08.240_micRespv1l2_recorded\recording_micRespv1l2_2023-11-30_12h53.40.682.wav;341.3874289;341.8875281;None;341.3874289;341.3874289;341.3874289;341.3874289;341.3874289;341.3874289;[1.0316576000768691, 1.4416322999168187, 1.5881461999379098, 1.9309648999478668, 2.0724855000153184];;;;;;190102;1;2023-11-30_12h48.08.240;REPSWITCH1_version1_list2;2022.2.4;143.9316957;
REPSWITCH1/PICTURE_517.png;cuerda;speak;gold;filler;2;F;3;3;2;1;Stim4_Set2;0;None;67;66;67;0;66;66;66;;;;;;;;;;;;;;;;;;;;;;;341.8875281;343.0057171;343.0057171;343.0057171;343.0057171;343.0057171;343.0057171;343.0057171;343.0057171;None;0;;C:\2023\REPSWITCH21092023\REPSWITCH_excgange\REPSWITCH_excgange\data/190102_REPSWITCH1_version1_list2_2023-11-30_12h48.08.240_micRespv1l2_recorded\recording_micRespv1l2_2023-11-30_12h53.45.322.wav;346.0269715;346.5270067;None;346.0269715;346.0269715;346.0269715;346.0269715;346.0269715;346.0269715;;;;;;;190102;1;2023-11-30_12h48.08.240;REPSWITCH1_version1_list2;2022.2.4;143.9316957;
REPSWITCH1/PICTURE_30.png;granja;type;darkblue;filler;1;F;3;3;2;1;Stim5_Set2;1;switch;68;67;68;0;67;67;67;;;;;;;;;;;;;;;;;;;;;;;346.5270067;347.5618682;347.5618682;347.5618682;347.5618682;347.5618682;347.5618682;347.5618682;347.5618682;['g', 'r', 'a', 'n', 'j', 'a'];0;granja;C:\2023\REPSWITCH21092023\REPSWITCH_excgange\REPSWITCH_excgange\data/190102_REPSWITCH1_version1_list2_2023-11-30_12h48.08.240_micRespv1l2_recorded\recording_micRespv1l2_2023-11-30_12h53.49.879.wav;350.5900589;351.0901836;None;350.5900589;350.5900589;350.5900589;350.5900589;350.5900589;350.5900589;[1.141098199877888, 1.3094583998899907, 1.4415239000227302, 1.7319904000032693, 1.8755220999009907, 1.9493119998369366];;;;;;190102;1;2023-11-30_12h48.08.240;REPSWITCH1_version1_list2;2022.2.4;143.9316957;
REPSWITCH1/PICTURE_242.png;cartero;type;darkblue;nontarget;1;NT;3;3;2;1;Stim3_Set3;0;None;69;68;69;0;68;68;68;;;;;;;;;;;;;;;;;;;;;;;351.0901836;352.1249551;352.1249551;352.1249551;352.1249551;352.1249551;352.1249551;352.1249551;352.1249551;None;0;;C:\2023\REPSWITCH21092023\REPSWITCH_excgange\REPSWITCH_excgange\data/190102_REPSWITCH1_version1_list2_2023-11-30_12h48.08.240_micRespv1l2_recorded\recording_micRespv1l2_2023-11-30_12h53.54.441.wav;355.1531708;;None;355.1531708;355.1531708;355.1531708;355.1531708;355.1531708;355.1531708;;;;;;;190102;1;2023-11-30_12h48.08.240;REPSWITCH1_version1_list2;2022.2.4;143.9316957;
REPSWITCH1/PICTURE_242.png;cartero;type;darkblue;repeat;1;T;3;3;2;1;Stim3_Set3;0;None;70;69;70;0;69;69;69;;;;;;;;;;;;;;;;;;;;;;;355.6532165;356.8339046;356.8339046;356.8339046;356.8339046;356.8339046;356.8339046;356.8339046;356.8339046;['c', 'a', 'r', 't', 'e', 'r', 'o'];0;cartero;C:\2023\REPSWITCH21092023\REPSWITCH_excgange\REPSWITCH_excgange\data/190102_REPSWITCH1_version1_list2_2023-11-30_12h48.08.240_micRespv1l2_recorded\recording_micRespv1l2_2023-11-30_12h53.59.150.wav;359.8551295;360.355201;None;359.8551295;359.8551295;359.8551295;359.8551295;359.8551295;359.8551295;[0.7755704000592232, 0.882695599924773, 0.9966355001088232, 1.1560994000174105, 1.2737782001495361, 1.381783900083974, 1.7912395999301225];;;;;;190102;1;2023-11-30_12h48.08.240;REPSWITCH1_version1_list2;2022.2.4;143.9316957;
REPSWITCH1/PICTURE_264.png;mano;speak;gold;filler;2;F;3;3;2;1;Stim3_Set2;1;switch;71;70;71;0;70;70;70;;;;;;;;;;;;;;;;;;;;;;;360.355201;361.4039853;361.4039853;361.4039853;361.4039853;361.4039853;361.4039853;361.4039853;361.4039853;None;0;;C:\2023\REPSWITCH21092023\REPSWITCH_excgange\REPSWITCH_excgange\data/190102_REPSWITCH1_version1_list2_2023-11-30_12h48.08.240_micRespv1l2_recorded\recording_micRespv1l2_2023-11-30_12h54.03.720.wav;364.4251582;364.9252629;None;364.4251582;364.4251582;364.4251582;364.4251582;364.4251582;364.4251582;;;;;;;190102;1;2023-11-30_12h48.08.240;REPSWITCH1_version1_list2;2022.2.4;143.9316957;
REPSWITCH1/PICTURE_576.png;guante;type;darkblue;nontarget;1;NT;3;3;2;1;Stim1_Set3;1;switch;72;71;72;0;71;71;71;;;;;;;;;;;;;;;;;;;;;;;364.9252629;366.0226311;366.0226311;366.0226311;366.0226311;366.0226311;366.0226311;366.0226311;366.0226311;['g', 'u', 'a', 'n', 't', 'e'];0;guante;C:\2023\REPSWITCH21092023\REPSWITCH_excgange\REPSWITCH_excgange\data/190102_REPSWITCH1_version1_list2_2023-11-30_12h48.08.240_micRespv1l2_recorded\recording_micRespv1l2_2023-11-30_12h54.08.340.wav;369.0507581;;None;369.0507581;369.0507581;369.0507581;369.0507581;369.0507581;369.0507581;[1.0280220001004636, 1.2052021999843419, 1.3456727000884712, 1.4503222000785172, 1.6517101000063121, 1.7693205000832677];;;;;;190102;1;2023-11-30_12h48.08.240;REPSWITCH1_version1_list2;2022.2.4;143.9316957;
REPSWITCH1/PICTURE_576.png;guante;type;darkblue;repeat;1;T;3;3;2;1;Stim1_Set3;0;None;73;72;73;0;72;72;72;;;;;;;;;;;;;;;;;;;;;;;369.5508459;370.6273775;370.6273775;370.6273775;370.6273775;370.6273775;370.6273775;370.6273775;370.6273775;['g', 'u', 'a', 'n', 't', 'e'];0;guante;C:\2023\REPSWITCH21092023\REPSWITCH_excgange\REPSWITCH_excgange\data/190102_REPSWITCH1_version1_list2_2023-11-30_12h48.08.240_micRespv1l2_recorded\recording_micRespv1l2_2023-11-30_12h54.12.944.wav;373.6486284;374.1486787;None;373.6486284;373.6486284;373.6486284;373.6486284;373.6486284;373.6486284;[0.7553825001232326, 0.9327779000159353, 1.0792459000367671, 1.1559747999999672, 1.3334306001197547, 1.4435298000462353];;;;;;190102;1;2023-11-30_12h48.08.240;REPSWITCH1_version1_list2;2022.2.4;143.9316957;
REPSWITCH1/PICTURE_175.png;pintor;speak;gold;filler;2;F;3;3;2;1;Stim1_Set2;0;None;74;73;74;0;73;73;73;;;;;;;;;;;;;;;;;;;;;;;374.1486787;375.2669173;375.2669173;375.2669173;375.2669173;375.2669173;375.2669173;375.2669173;375.2669173;None;0;;C:\2023\REPSWITCH21092023\REPSWITCH_excgange\REPSWITCH_excgange\data/190102_REPSWITCH1_version1_list2_2023-11-30_12h48.08.240_micRespv1l2_recorded\recording_micRespv1l2_2023-11-30_12h54.17.583.wav;378.295069;;None;378.295069;378.295069;378.295069;378.295069;378.295069;378.295069;;;;;;;190102;1;2023-11-30_12h48.08.240;REPSWITCH1_version1_list2;2022.2.4;143.9316957;
REPSWITCH1/PICTURE_498.png;taza;type;darkblue;nontarget;1;NT;4;3;2;1;Stim4_Set4;0;None;75;74;75;0;74;74;74;;;;;;;;;;;;;;;;;;;;;;;378.7951353;379.9550501;379.9550501;379.9550501;379.9550501;379.9550501;379.9550501;379.9550501;379.9550501;['t', 'a', 'z', 'a'];0;taza;C:\2023\REPSWITCH21092023\REPSWITCH_excgange\REPSWITCH_excgange\data/190102_REPSWITCH1_version1_list2_2023-11-30_12h48.08.240_micRespv1l2_recorded\recording_micRespv1l2_2023-11-30_12h54.22.271.wav;382.9762373;383.4763047;None;382.9762373;382.9762373;382.9762373;382.9762373;382.9762373;382.9762373;[0.965321599971503, 1.0659711000043899, 1.2603266998194158, 1.3688628999516368];;;;;;190102;1;2023-11-30_12h48.08.240;REPSWITCH1_version1_list2;2022.2.4;143.9316957;
REPSWITCH1/PICTURE_498.png;taza;type;darkblue;repeat;1;T;4;3;2;1;Stim4_Set4;0;None;76;75;76;0;75;75;75;;;;;;;;;;;;;;;;;;;;;;;383.4763047;384.5597844;384.5597844;384.5597844;384.5597844;384.5597844;384.5597844;384.5597844;384.5597844;['t', 'a', 'z', 'a'];0;taza;C:\2023\REPSWITCH21092023\REPSWITCH_excgange\REPSWITCH_excgange\data/190102_REPSWITCH1_version1_list2_2023-11-30_12h48.08.240_micRespv1l2_recorded\recording_micRespv1l2_2023-11-30_12h54.26.876.wav;387.5809729;388.0811513;None;387.5809729;387.5809729;387.5809729;387.5809729;387.5809729;387.5809729;[0.7596171000041068, 0.8575088998768479, 1.0249050999991596, 1.1734420999418944];;;;;;190102;1;2023-11-30_12h48.08.240;REPSWITCH1_version1_list2;2022.2.4;143.9316957;
REPSWITCH1/PICTURE_235.png;aguja;speak;gold;filler;2;F;4;3;2;1;Stim4_Set3;0;None;77;76;77;0;76;76;76;;;;;;;;;;;;;;;;;;;;;;;388.0811513;389.2131444;389.2131444;389.2131444;389.2131444;389.2131444;389.2131444;389.2131444;389.2131444;None;0;;C:\2023\REPSWITCH21092023\REPSWITCH_excgange\REPSWITCH_excgange\data/190102_REPSWITCH1_version1_list2_2023-11-30_12h48.08.240_micRespv1l2_recorded\recording_micRespv1l2_2023-11-30_12h54.31.530.wav;392.2413456;;None;392.2413456;392.2413456;392.2413456;392.2413456;392.2413456;392.2413456;;;;;;;190102;1;2023-11-30_12h48.08.240;REPSWITCH1_version1_list2;2022.2.4;143.9316957;
REPSWITCH1/PICTURE_338.png;regalo;type;darkblue;nontarget;1;NT;4;3;2;1;Stim6_Set4;1;switch;78;77;78;0;77;77;77;;;;;;;;;;;;;;;;;;;;;;;392.741412;393.8527023;393.8527023;393.8527023;393.8527023;393.8527023;393.8527023;393.8527023;393.8527023;['r', 'e', 'g', 'a', 'l', 'o'];0;regalo;C:\2023\REPSWITCH21092023\REPSWITCH_excgange\REPSWITCH_excgange\data/190102_REPSWITCH1_version1_list2_2023-11-30_12h48.08.240_micRespv1l2_recorded\recording_micRespv1l2_2023-11-30_12h54.36.170.wav;396.8808228;;None;396.8808228;396.8808228;396.8808228;396.8808228;396.8808228;396.8808228;[1.0052568998653442, 1.1906769999768585, 1.4418242999818176, 1.568500299938023, 1.78775139991194, 1.8934573999140412];;;;;;190102;1;2023-11-30_12h48.08.240;REPSWITCH1_version1_list2;2022.2.4;143.9316957;
REPSWITCH1/PICTURE_338.png;regalo;speak;gold;switch;2;T;4;3;2;1;Stim6_Set4;0;None;79;78;79;0;78;78;78;;;;;;;;;;;;;;;;;;;;;;;397.3808799;398.4782491;398.4782491;398.4782491;398.4782491;398.4782491;398.4782491;398.4782491;398.4782491;None;0;;C:\2023\REPSWITCH21092023\REPSWITCH_excgange\REPSWITCH_excgange\data/190102_REPSWITCH1_version1_list2_2023-11-30_12h48.08.240_micRespv1l2_recorded\recording_micRespv1l2_2023-11-30_12h54.40.795.wav;401.5064546;402.0064946;None;401.5064546;401.5064546;401.5064546;401.5064546;401.5064546;401.5064546;;;;;;;190102;1;2023-11-30_12h48.08.240;REPSWITCH1_version1_list2;2022.2.4;143.9316957;
REPSWITCH1/PICTURE_719.png;baño;speak;gold;nontarget;2;NT;4;3;2;1;Stim2_Set4;1;repeat;80;79;80;0;79;79;79;;;;;;;;;;;;;;;;;;;;;;;402.0064946;403.1386245;403.1386245;403.1386245;403.1386245;403.1386245;403.1386245;403.1386245;403.1386245;None;0;;C:\2023\REPSWITCH21092023\REPSWITCH_excgange\REPSWITCH_excgange\data/190102_REPSWITCH1_version1_list2_2023-11-30_12h48.08.240_micRespv1l2_recorded\recording_micRespv1l2_2023-11-30_12h54.45.455.wav;406.1667578;;None;406.1667578;406.1667578;406.1667578;406.1667578;406.1667578;406.1667578;;;;;;;190102;1;2023-11-30_12h48.08.240;REPSWITCH1_version1_list2;2022.2.4;143.9316957;
REPSWITCH1/PICTURE_719.png;baño;speak;gold;repeat;2;T;4;3;2;1;Stim2_Set4;0;None;81;80;81;0;80;80;80;;;;;;;;;;;;;;;;;;;;;;;406.6669115;407.7641869;407.7641869;407.7641869;407.7641869;407.7641869;407.7641869;407.7641869;407.7641869;None;0;;C:\2023\REPSWITCH21092023\REPSWITCH_excgange\REPSWITCH_excgange\data/190102_REPSWITCH1_version1_list2_2023-11-30_12h48.08.240_micRespv1l2_recorded\recording_micRespv1l2_2023-11-30_12h54.50.080.wav;410.7923839;;None;410.7923839;410.7923839;410.7923839;410.7923839;410.7923839;410.7923839;;;;;;;190102;1;2023-11-30_12h48.08.240;REPSWITCH1_version1_list2;2022.2.4;143.9316957;
REPSWITCH1/PICTURE_271.png;conejo;type;darkblue;filler;1;F;4;3;2;1;Stim7_Set3;0;None;82;81;82;0;81;81;81;;;;;;;;;;;;;;;;;;;;;;;411.292515;412.4315016;412.4315016;412.4315016;412.4315016;412.4315016;412.4315016;412.4315016;412.4315016;['c', 'o', 'n', 'e', 'j', 'o'];0;conejo;C:\2023\REPSWITCH21092023\REPSWITCH_excgange\REPSWITCH_excgange\data/190102_REPSWITCH1_version1_list2_2023-11-30_12h48.08.240_micRespv1l2_recorded\recording_micRespv1l2_2023-11-30_12h54.54.749.wav;415.4596308;415.9597025;None;415.4596308;415.4596308;415.4596308;415.4596308;415.4596308;415.4596308;[0.9787698998115957, 1.120280799921602, 1.3475028998218477, 1.5210173998493701, 1.6319685999769717, 1.8196360999718308];;;;;;190102;1;2023-11-30_12h48.08.240;REPSWITCH1_version1_list2;2022.2.4;143.9316957;
REPSWITCH1/PICTURE_610.png;miel;speak;gold;filler;2;F;4;3;2;1;Stim2_Set3;0;None;83;82;83;0;82;82;82;;;;;;;;;;;;;;;;;;;;;;;415.9597025;417.0362581;417.0362581;417.0362581;417.0362581;417.0362581;417.0362581;417.0362581;417.0362581;None;0;;C:\2023\REPSWITCH21092023\REPSWITCH_excgange\REPSWITCH_excgange\data/190102_REPSWITCH1_version1_list2_2023-11-30_12h48.08.240_micRespv1l2_recorded\recording_micRespv1l2_2023-11-30_12h54.59.352.wav;420.0644449;;None;420.0644449;420.0644449;420.0644449;420.0644449;420.0644449;420.0644449;;;;;;;190102;1;2023-11-30_12h48.08.240;REPSWITCH1_version1_list2;2022.2.4;143.9316957;
REPSWITCH1/PICTURE_687.png;camisa;speak;gold;nontarget;2;NT;4;3;2;1;Stim5_Set4;1;repeat;84;83;84;0;83;83;83;;;;;;;;;;;;;;;;;;;;;;;420.5644991;421.5924745;421.5924745;421.5924745;421.5924745;421.5924745;421.5924745;421.5924745;421.5924745;None;0;;C:\2023\REPSWITCH21092023\REPSWITCH_excgange\REPSWITCH_excgange\data/190102_REPSWITCH1_version1_list2_2023-11-30_12h48.08.240_micRespv1l2_recorded\recording_micRespv1l2_2023-11-30_12h55.03.909.wav;424.6136399;425.1136787;None;424.6136399;424.6136399;424.6136399;424.6136399;424.6136399;424.6136399;;;;;;;190102;1;2023-11-30_12h48.08.240;REPSWITCH1_version1_list2;2022.2.4;143.9316957;
REPSWITCH1/PICTURE_687.png;camisa;type;darkblue;switch;1;T;4;3;2;1;Stim5_Set4;0;None;85;84;85;0;84;84;84;;;;;;;;;;;;;;;;;;;;;;;425.1136787;426.2110552;426.2110552;426.2110552;426.2110552;426.2110552;426.2110552;426.2110552;426.2110552;['c', 'a', 'm', 'i', 's', 'a'];0;camisa;C:\2023\REPSWITCH21092023\REPSWITCH_excgange\REPSWITCH_excgange\data/190102_REPSWITCH1_version1_list2_2023-11-30_12h48.08.240_micRespv1l2_recorded\recording_micRespv1l2_2023-11-30_12h55.08.526.wav;429.2323109;429.7324291;None;429.2323109;429.2323109;429.2323109;429.2323109;429.2323109;429.2323109;[1.0275678001344204, 1.1411230999510735, 1.4587222000118345, 1.603982200147584, 1.7335343000013381, 1.878050500061363];;;;;;190102;1;2023-11-30_12h48.08.240;REPSWITCH1_version1_list2;2022.2.4;143.9316957;
REPSWITCH1/PICTURE_319.png;vaca;type;darkblue;nontarget;1;NT;4;3;2;1;Stim1_Set4;0;None;86;85;86;0;85;85;85;;;;;;;;;;;;;;;;;;;;;;;429.7324291;430.9131519;430.9131519;430.9131519;430.9131519;430.9131519;430.9131519;430.9131519;430.9131519;['v', 'a', 'c', 'a'];0;vaca;C:\2023\REPSWITCH21092023\REPSWITCH_excgange\REPSWITCH_excgange\data/190102_REPSWITCH1_version1_list2_2023-11-30_12h48.08.240_micRespv1l2_recorded\recording_micRespv1l2_2023-11-30_12h55.13.229.wav;433.9412554;;None;433.9412554;433.9412554;433.9412554;433.9412554;433.9412554;433.9412554;[1.2723761000670493, 1.3957396000623703, 1.5402997999917716, 1.5921194001566619];;;;;;190102;1;2023-11-30_12h48.08.240;REPSWITCH1_version1_list2;2022.2.4;143.9316957;
REPSWITCH1/PICTURE_319.png;vaca;speak;gold;switch;2;T;4;3;2;1;Stim1_Set4;0;None;87;86;87;0;86;86;86;;;;;;;;;;;;;;;;;;;;;;;434.4413033;435.5664973;435.5664973;435.5664973;435.5664973;435.5664973;435.5664973;435.5664973;435.5664973;None;0;;C:\2023\REPSWITCH21092023\REPSWITCH_excgange\REPSWITCH_excgange\data/190102_REPSWITCH1_version1_list2_2023-11-30_12h48.08.240_micRespv1l2_recorded\recording_micRespv1l2_2023-11-30_12h55.17.883.wav;438.594644;;None;438.594644;438.594644;438.594644;438.594644;438.594644;438.594644;;;;;;;190102;1;2023-11-30_12h48.08.240;REPSWITCH1_version1_list2;2022.2.4;143.9316957;
REPSWITCH1/PICTURE_464.png;goma;type;darkblue;filler;1;F;4;3;2;1;Stim6_Set3;1;switch;88;87;88;0;87;87;87;;;;;;;;;;;;;;;;;;;;;;;439.0946818;440.1643169;440.1643169;440.1643169;440.1643169;440.1643169;440.1643169;440.1643169;440.1643169;['g', 'o', 'a', 'backspace', 'm'];0;gom;C:\2023\REPSWITCH21092023\REPSWITCH_excgange\REPSWITCH_excgange\data/190102_REPSWITCH1_version1_list2_2023-11-30_12h48.08.240_micRespv1l2_recorded\recording_micRespv1l2_2023-11-30_12h55.22.480.wav;443.1854968;443.6855826;None;443.1854968;443.1854968;443.1854968;443.1854968;443.1854968;443.1854968;[1.5346047000493854, 1.827624100027606, 2.0758512001484632, 2.710302999941632, 2.974364300025627];;;;;;190102;1;2023-11-30_12h48.08.240;REPSWITCH1_version1_list2;2022.2.4;143.9316957;
REPSWITCH1/PICTURE_728.png;pulpo;speak;gold;nontarget;2;NT;4;3;2;1;Stim8_Set4;1;switch;89;88;89;0;88;88;88;;;;;;;;;;;;;;;;;;;;;;;443.6855826;444.78988;444.78988;444.78988;444.78988;444.78988;444.78988;444.78988;444.78988;None;0;;C:\2023\REPSWITCH21092023\REPSWITCH_excgange\REPSWITCH_excgange\data/190102_REPSWITCH1_version1_list2_2023-11-30_12h48.08.240_micRespv1l2_recorded\recording_micRespv1l2_2023-11-30_12h55.27.106.wav;447.8111333;448.3111931;None;447.8111333;447.8111333;447.8111333;447.8111333;447.8111333;447.8111333;;;;;;;190102;1;2023-11-30_12h48.08.240;REPSWITCH1_version1_list2;2022.2.4;143.9316957;
REPSWITCH1/PICTURE_728.png;pulpo;speak;gold;repeat;2;T;4;3;2;1;Stim8_Set4;0;None;90;89;90;0;89;89;89;;;;;;;;;;;;;;;;;;;;;;;448.3111931;449.4641444;449.4641444;449.4641444;449.4641444;449.4641444;449.4641444;449.4641444;449.4641444;None;0;;C:\2023\REPSWITCH21092023\REPSWITCH_excgange\REPSWITCH_excgange\data/190102_REPSWITCH1_version1_list2_2023-11-30_12h48.08.240_micRespv1l2_recorded\recording_micRespv1l2_2023-11-30_12h55.31.780.wav;452.4853157;452.9854131;None;452.4853157;452.4853157;452.4853157;452.4853157;452.4853157;452.4853157;;;;;;;190102;1;2023-11-30_12h48.08.240;REPSWITCH1_version1_list2;2022.2.4;143.9316957;
REPSWITCH1/PICTURE_320.png;iglesia;type;darkblue;filler;1;F;4;3;2;1;Stim8_Set3;0;None;91;90;91;0;90;90;90;;;;;;;;;;;;;;;;;;;;;;;452.9854131;454.1036879;454.1036879;454.1036879;454.1036879;454.1036879;454.1036879;454.1036879;454.1036879;['i', 'g', 'l', 'e', 's', 'i', 'a'];0;iglesia;C:\2023\REPSWITCH21092023\REPSWITCH_excgange\REPSWITCH_excgange\data/190102_REPSWITCH1_version1_list2_2023-11-30_12h48.08.240_micRespv1l2_recorded\recording_micRespv1l2_2023-11-30_12h55.36.420.wav;457.1248205;457.6249129;None;457.1248205;457.1248205;457.1248205;457.1248205;457.1248205;457.1248205;[1.511062900070101, 1.749264100100845, 2.0103875999338925, 2.173941600136459, 2.3224063999950886, 2.444902600022033, 2.517681800061837];;;;;;190102;1;2023-11-30_12h48.08.240;REPSWITCH1_version1_list2;2022.2.4;143.9316957;
REPSWITCH1/PICTURE_576.png;guante;speak;gold;filler;2;F;4;3;2;1;Stim1_Set3;0;None;92;91;92;0;91;91;91;;;;;;;;;;;;;;;;;;;;;;;457.6249129;458.7153359;458.7153359;458.7153359;458.7153359;458.7153359;458.7153359;458.7153359;458.7153359;None;0;;C:\2023\REPSWITCH21092023\REPSWITCH_excgange\REPSWITCH_excgange\data/190102_REPSWITCH1_version1_list2_2023-11-30_12h48.08.240_micRespv1l2_recorded\recording_micRespv1l2_2023-11-30_12h55.41.033.wav;461.7435586;;None;461.7435586;461.7435586;461.7435586;461.7435586;461.7435586;461.7435586;;;;;;;190102;1;2023-11-30_12h48.08.240;REPSWITCH1_version1_list2;2022.2.4;143.9316957;
REPSWITCH1/PICTURE_8.png;pierna;speak;gold;nontarget;2;NT;4;3;2;1;Stim3_Set4;1;repeat;93;92;93;0;92;92;92;;;;;;;;;;;;;;;;;;;;;;;462.2435756;463.3339742;463.3339742;463.3339742;463.3339742;463.3339742;463.3339742;463.3339742;463.3339742;None;0;;C:\2023\REPSWITCH21092023\REPSWITCH_excgange\REPSWITCH_excgange\data/190102_REPSWITCH1_version1_list2_2023-11-30_12h48.08.240_micRespv1l2_recorded\recording_micRespv1l2_2023-11-30_12h55.45.650.wav;466.3551926;466.8553009;None;466.3551926;466.3551926;466.3551926;466.3551926;466.3551926;466.3551926;;;;;;;190102;1;2023-11-30_12h48.08.240;REPSWITCH1_version1_list2;2022.2.4;143.9316957;
REPSWITCH1/PICTURE_8.png;pierna;type;darkblue;switch;1;T;4;3;2;1;Stim3_Set4;0;None;94;93;94;0;93;93;93;;;;;;;;;;;;;;;;;;;;;;;466.8553009;468.1054398;468.1054398;468.1054398;468.1054398;468.1054398;468.1054398;468.1054398;468.1054398;['p', 'i', 'e', 'r', 'n', 'a'];0;pierna;C:\2023\REPSWITCH21092023\REPSWITCH_excgange\REPSWITCH_excgange\data/190102_REPSWITCH1_version1_list2_2023-11-30_12h48.08.240_micRespv1l2_recorded\recording_micRespv1l2_2023-11-30_12h55.50.421.wav;471.1266733;471.6267256;None;471.1266733;471.1266733;471.1266733;471.1266733;471.1266733;471.1266733;[1.0628134000580758, 1.3192493000533432, 1.5637157999444753, 1.7272068001329899, 1.8447726001031697, 2.056038400158286];;;;;;190102;1;2023-11-30_12h48.08.240;REPSWITCH1_version1_list2;2022.2.4;143.9316957;
REPSWITCH1/PICTURE_673.png;tenedor;speak;gold;filler;2;F;4;3;2;1;Extra5;0;None;95;94;95;0;94;94;94;;;;;;;;;;;;;;;;;;;;;;;471.6267256;472.7380284;472.7380284;472.7380284;472.7380284;472.7380284;472.7380284;472.7380284;472.7380284;None;0;;C:\2023\REPSWITCH21092023\REPSWITCH_excgange\REPSWITCH_excgange\data/190102_REPSWITCH1_version1_list2_2023-11-30_12h48.08.240_micRespv1l2_recorded\recording_micRespv1l2_2023-11-30_12h55.55.055.wav;475.7592386;476.2592997;None;475.7592386;475.7592386;475.7592386;475.7592386;475.7592386;475.7592386;;;;;;;190102;1;2023-11-30_12h48.08.240;REPSWITCH1_version1_list2;2022.2.4;143.9316957;
REPSWITCH1/PICTURE_35.png;oreja;type;darkblue;filler;1;F;4;3;2;1;Stim5_Set3;1;switch;96;95;96;0;95;95;95;;;;;;;;;;;;;;;;;;;;;;;476.2592997;477.419173;477.419173;477.419173;477.419173;477.419173;477.419173;477.419173;477.419173;['o', 'r', 'e', 'j', 'a'];0;oreja;C:\2023\REPSWITCH21092023\REPSWITCH_excgange\REPSWITCH_excgange\data/190102_REPSWITCH1_version1_list2_2023-11-30_12h48.08.240_micRespv1l2_recorded\recording_micRespv1l2_2023-11-30_12h55.59.736.wav;480.4403694;480.9404701;None;480.4403694;480.4403694;480.4403694;480.4403694;480.4403694;480.4403694;[1.0565152000635862, 1.3106511000078171, 1.496072300011292, 1.7158417000900954, 1.838452500058338];;;;;;190102;1;2023-11-30_12h48.08.240;REPSWITCH1_version1_list2;2022.2.4;143.9316957;
REPSWITCH1/PICTURE_663.png;columna;speak;gold;filler;2;F;4;3;2;1;Extra6;0;None;97;96;97;0;96;96;96;;;;;;;;;;;;;;;;;;;;;;;480.9404701;482.0517069;482.0517069;482.0517069;482.0517069;482.0517069;482.0517069;482.0517069;482.0517069;None;0;;C:\2023\REPSWITCH21092023\REPSWITCH_excgange\REPSWITCH_excgange\data/190102_REPSWITCH1_version1_list2_2023-11-30_12h48.08.240_micRespv1l2_recorded\recording_micRespv1l2_2023-11-30_12h56.04.369.wav;485.07988;;None;485.07988;485.07988;485.07988;485.07988;485.07988;485.07988;;;;;;;190102;1;2023-11-30_12h48.08.240;REPSWITCH1_version1_list2;2022.2.4;143.9316957;
REPSWITCH1/PICTURE_242.png;cartero;type;darkblue;filler;1;F;4;3;2;1;Stim3_Set3;1;switch;98;97;98;0;97;97;97;;;;;;;;;;;;;;;;;;;;;;;485.5799742;486.6287771;486.6287771;486.6287771;486.6287771;486.6287771;486.6287771;486.6287771;486.6287771;['c', 'a', 'r', 't', 'e', 'r', 'o'];0;cartero;C:\2023\REPSWITCH21092023\REPSWITCH_excgange\REPSWITCH_excgange\data/190102_REPSWITCH1_version1_list2_2023-11-30_12h48.08.240_micRespv1l2_recorded\recording_micRespv1l2_2023-11-30_12h56.08.945.wav;489.6499769;490.1500145;None;489.6499769;489.6499769;489.6499769;489.6499769;489.6499769;489.6499769;[1.6068747998215258, 1.7178826997987926, 1.888295799959451, 2.0417824999894947, 2.1623773998580873, 2.3248676999937743, 2.5102359999436885];;;;;;190102;1;2023-11-30_12h48.08.240;REPSWITCH1_version1_list2;2022.2.4;143.9316957;
REPSWITCH1/PICTURE_48.png;bombero;type;darkblue;nontarget;1;NT;4;3;2;1;Stim7_Set4;1;repeat;99;98;99;0;98;98;98;;;;;;;;;;;;;;;;;;;;;;;490.1500145;491.2960592;491.2960592;491.2960592;491.2960592;491.2960592;491.2960592;491.2960592;491.2960592;['b', 'o', 'm', 'b', 'e', 'r', 'o'];0;bombero;C:\2023\REPSWITCH21092023\REPSWITCH_excgange\REPSWITCH_excgange\data/190102_REPSWITCH1_version1_list2_2023-11-30_12h48.08.240_micRespv1l2_recorded\recording_micRespv1l2_2023-11-30_12h56.13.613.wav;494.3241727;;None;494.3241727;494.3241727;494.3241727;494.3241727;494.3241727;494.3241727;[1.2790932001080364, 1.4386175000108778, 2.2249772001523525, 2.437265000073239, 2.533941000001505, 2.684433000162244, 2.8179731001146138];;;;;;190102;1;2023-11-30_12h48.08.240;REPSWITCH1_version1_list2;2022.2.4;143.9316957;
REPSWITCH1/PICTURE_48.png;bombero;type;darkblue;repeat;1;T;4;3;2;1;Stim7_Set4;0;None;100;99;100;0;99;99;99;;;;;;;;;;;;;;;;;;;;;;;494.8243134;495.9424318;495.9424318;495.9424318;495.9424318;495.9424318;495.9424318;495.9424318;495.9424318;['b', 'o', 'm', 'b', 'e', 'r', 'o'];0;bombero;C:\2023\REPSWITCH21092023\REPSWITCH_excgange\REPSWITCH_excgange\data/190102_REPSWITCH1_version1_list2_2023-11-30_12h48.08.240_micRespv1l2_recorded\recording_micRespv1l2_2023-11-30_12h56.18.260.wav;498.9636989;499.4637851;None;498.9636989;498.9636989;498.9636989;498.9636989;498.9636989;498.9636989;[0.9387167000677437, 1.1074286000803113, 1.2908131000585854, 1.6087541000451893, 1.7134026000276208, 1.8738705001305789, 1.99077929998748];;;;;;190102;1;2023-11-30_12h48.08.240;REPSWITCH1_version1_list2;2022.2.4;143.9316957;
REPSWITCH1/PICTURE_391.png;cadena;speak;gold;filler;2;F;4;3;2;1;Extra2;0;None;101;100;101;0;100;100;100;;;;;;;;;;;;;;;;;;;;;;;499.4637851;500.5402391;500.5402391;500.5402391;500.5402391;500.5402391;500.5402391;500.5402391;500.5402391;None;0;;C:\2023\REPSWITCH21092023\REPSWITCH_excgange\REPSWITCH_excgange\data/190102_REPSWITCH1_version1_list2_2023-11-30_12h48.08.240_micRespv1l2_recorded\recording_micRespv1l2_2023-11-30_12h56.22.857.wav;503.568442;;None;503.568442;503.568442;503.568442;503.568442;503.568442;503.568442;;;;;;;190102;1;2023-11-30_12h48.08.240;REPSWITCH1_version1_list2;2022.2.4;143.9316957;
REPSWITCH1/PICTURE_590.png;escoba;type;darkblue;filler;1;F;4;3;2;1;Extra3;0;None;102;101;102;0;101;101;101;;;;;;;;;;;;;;;;;;;;;;;504.0685009;505.2284055;505.2284055;505.2284055;505.2284055;505.2284055;505.2284055;505.2284055;505.2284055;['e', 's', 'c', 'o', 'b', 'a'];0;escoba;C:\2023\REPSWITCH21092023\REPSWITCH_excgange\REPSWITCH_excgange\data/190102_REPSWITCH1_version1_list2_2023-11-30_12h48.08.240_micRespv1l2_recorded\recording_micRespv1l2_2023-11-30_12h56.27.546.wav;508.2565511;;space;508.2565511;508.2565511;508.2565511;508.2565511;508.2565511;508.2565511;[0.9095822998788208, 1.085016299970448, 1.4098967998288572, 1.6537156000267714, 1.8869313998147845, 1.97797070001252];508.7565991;508.7565991;8.0779953;;;190102;1;2023-11-30_12h48.08.240;REPSWITCH1_version1_list2;2022.2.4;143.9316957;
REPSWITCH1/PICTURE_340.png;espejo;type;darkblue;filler;1;F;1;1;2;1;Extra1;0;None;103;102;1;0;102;102;102;;;;;;;;;;;;;;;;;;;;;;;516.8479564;517.9522544;517.9522544;517.9522544;517.9522544;517.9522544;517.9522544;517.9522544;517.9522544;['e', 's', 'p', 'e', 'j', 'o'];0;espejo;C:\2023\REPSWITCH21092023\REPSWITCH_excgange\REPSWITCH_excgange\data/190102_REPSWITCH1_version1_list2_2023-11-30_12h48.08.240_micRespv1l2_recorded\recording_micRespv1l2_2023-11-30_12h56.40.270.wav;520.9804308;;None;520.9804308;520.9804308;520.9804308;520.9804308;520.9804308;520.9804308;[0.9056084000039846, 1.0769078000448644, 1.2384496999438852, 1.3456123999785632, 1.7630539000965655, 1.9496140000410378];;;;;;190102;1;2023-11-30_12h48.08.240;REPSWITCH1_version1_list2;2022.2.4;143.9316957;
REPSWITCH1/PICTURE_391.png;cadena;speak;gold;filler;2;F;1;1;2;1;Extra2;0;None;104;103;2;0;103;103;103;;;;;;;;;;;;;;;;;;;;;;;521.4805099;522.598735;522.598735;522.598735;522.598735;522.598735;522.598735;522.598735;522.598735;None;0;;C:\2023\REPSWITCH21092023\REPSWITCH_excgange\REPSWITCH_excgange\data/190102_REPSWITCH1_version1_list2_2023-11-30_12h48.08.240_micRespv1l2_recorded\recording_micRespv1l2_2023-11-30_12h56.44.916.wav;525.6268859;;None;525.6268859;525.6268859;525.6268859;525.6268859;525.6268859;525.6268859;;;;;;;190102;1;2023-11-30_12h48.08.240;REPSWITCH1_version1_list2;2022.2.4;143.9316957;
REPSWITCH1/PICTURE_178.png;puente;speak;gold;nontarget;2;NT;1;1;2;1;Stim1_Set1;1;repeat;105;104;3;0;104;104;104;;;;;;;;;;;;;;;;;;;;;;;526.1269397;527.300725;527.300725;527.300725;527.300725;527.300725;527.300725;527.300725;527.300725;None;0;;C:\2023\REPSWITCH21092023\REPSWITCH_excgange\REPSWITCH_excgange\data/190102_REPSWITCH1_version1_list2_2023-11-30_12h48.08.240_micRespv1l2_recorded\recording_micRespv1l2_2023-11-30_12h56.49.617.wav;530.3220209;530.8220003;None;530.3220209;530.3220209;530.3220209;530.3220209;530.3220209;530.3220209;;;;;;;190102;1;2023-11-30_12h48.08.240;REPSWITCH1_version1_list2;2022.2.4;143.9316957;
REPSWITCH1/PICTURE_178.png;puente;speak;gold;repeat;2;T;1;1;2;1;Stim1_Set1;0;None;106;105;4;0;105;105;105;;;;;;;;;;;;;;;;;;;;;;;530.8220003;531.8638062;531.8638062;531.8638062;531.8638062;531.8638062;531.8638062;531.8638062;531.8638062;None;0;;C:\2023\REPSWITCH21092023\REPSWITCH_excgange\REPSWITCH_excgange\data/190102_REPSWITCH1_version1_list2_2023-11-30_12h48.08.240_micRespv1l2_recorded\recording_micRespv1l2_2023-11-30_12h56.54.180.wav;534.8850398;535.3851081;None;534.8850398;534.8850398;534.8850398;534.8850398;534.8850398;534.8850398;;;;;;;190102;1;2023-11-30_12h48.08.240;REPSWITCH1_version1_list2;2022.2.4;143.9316957;
REPSWITCH1/PICTURE_319.png;vaca;type;darkblue;filler;1;F;1;1;2;1;Stim1_Set4;0;None;107;106;5;0;106;106;106;;;;;;;;;;;;;;;;;;;;;;;535.3851081;536.4547241;536.4547241;536.4547241;536.4547241;536.4547241;536.4547241;536.4547241;536.4547241;['v', 'a', 'c', 'a'];0;vaca;C:\2023\REPSWITCH21092023\REPSWITCH_excgange\REPSWITCH_excgange\data/190102_REPSWITCH1_version1_list2_2023-11-30_12h48.08.240_micRespv1l2_recorded\recording_micRespv1l2_2023-11-30_12h56.58.771.wav;539.4759993;539.9760126;None;539.4759993;539.4759993;539.4759993;539.4759993;539.4759993;539.4759993;[1.0495967001188546, 1.15059470012784, 1.2565467001404613, 1.318309900118038];;;;;;190102;1;2023-11-30_12h48.08.240;REPSWITCH1_version1_list2;2022.2.4;143.9316957;
REPSWITCH1/PICTURE_381.png;fresa;speak;gold;nontarget;2;NT;1;1;2;1;Stim2_Set1;1;switch;108;107;6;0;107;107;107;;;;;;;;;;;;;;;;;;;;;;;539.9760126;541.0872676;541.0872676;541.0872676;541.0872676;541.0872676;541.0872676;541.0872676;541.0872676;None;0;;C:\2023\REPSWITCH21092023\REPSWITCH_excgange\REPSWITCH_excgange\data/190102_REPSWITCH1_version1_list2_2023-11-30_12h48.08.240_micRespv1l2_recorded\recording_micRespv1l2_2023-11-30_12h57.03.404.wav;544.108451;544.6085557;None;544.108451;544.108451;544.108451;544.108451;544.108451;544.108451;;;;;;;190102;1;2023-11-30_12h48.08.240;REPSWITCH1_version1_list2;2022.2.4;143.9316957;
REPSWITCH1/PICTURE_381.png;fresa;speak;gold;repeat;2;T;1;1;2;1;Stim2_Set1;0;None;109;108;7;0;108;108;108;;;;;;;;;;;;;;;;;;;;;;;544.6085557;545.6643063;545.6643063;545.6643063;545.6643063;545.6643063;545.6643063;545.6643063;545.6643063;None;0;;C:\2023\REPSWITCH21092023\REPSWITCH_excgange\REPSWITCH_excgange\data/190102_REPSWITCH1_version1_list2_2023-11-30_12h48.08.240_micRespv1l2_recorded\recording_micRespv1l2_2023-11-30_12h57.07.982.wav;548.692472;;None;548.692472;548.692472;548.692472;548.692472;548.692472;548.692472;;;;;;;190102;1;2023-11-30_12h48.08.240;REPSWITCH1_version1_list2;2022.2.4;143.9316957;
REPSWITCH1/PICTURE_719.png;baño;type;darkblue;filler;1;F;1;1;2;1;Stim2_Set4;1;switch;110;109;8;0;109;109;109;;;;;;;;;;;;;;;;;;;;;;;549.1924664;550.2967762;550.2967762;550.2967762;550.2967762;550.2967762;550.2967762;550.2967762;550.2967762;['b', 'a', 'ñ', 'o'];0;baño;C:\2023\REPSWITCH21092023\REPSWITCH_excgange\REPSWITCH_excgange\data/190102_REPSWITCH1_version1_list2_2023-11-30_12h48.08.240_micRespv1l2_recorded\recording_micRespv1l2_2023-11-30_12h57.12.614.wav;553.3180248;553.8180901;None;553.3180248;553.3180248;553.3180248;553.3180248;553.3180248;553.3180248;[0.9674662000034004, 1.1378943000454456, 1.4969498000573367, 1.6437775001395494];;;;;;190102;1;2023-11-30_12h48.08.240;REPSWITCH1_version1_list2;2022.2.4;143.9316957;
REPSWITCH1/PICTURE_135.png;traje;speak;gold;nontarget;2;NT;1;1;2;1;Stim3_Set1;0;None;111;110;9;0;110;110;110;;;;;;;;;;;;;;;;;;;;;;;553.8180901;554.8807384;554.8807384;554.8807384;554.8807384;554.8807384;554.8807384;554.8807384;554.8807384;None;0;;C:\2023\REPSWITCH21092023\REPSWITCH_excgange\REPSWITCH_excgange\data/190102_REPSWITCH1_version1_list2_2023-11-30_12h48.08.240_micRespv1l2_recorded\recording_micRespv1l2_2023-11-30_12h57.17.197.wav;557.9019207;558.4020196;None;557.9019207;557.9019207;557.9019207;557.9019207;557.9019207;557.9019207;;;;;;;190102;1;2023-11-30_12h48.08.240;REPSWITCH1_version1_list2;2022.2.4;143.9316957;
REPSWITCH1/PICTURE_135.png;traje;type;darkblue;switch;1;T;1;1;2;1;Stim3_Set1;0;None;112;111;10;0;111;111;111;;;;;;;;;;;;;;;;;;;;;;;558.4020196;559.478611;559.478611;559.478611;559.478611;559.478611;559.478611;559.478611;559.478611;['t', 'r', 'a', 'j', 'e'];0;traje;C:\2023\REPSWITCH21092023\REPSWITCH_excgange\REPSWITCH_excgange\data/190102_REPSWITCH1_version1_list2_2023-11-30_12h48.08.240_micRespv1l2_recorded\recording_micRespv1l2_2023-11-30_12h57.21.795.wav;562.5067557;;None;562.5067557;562.5067557;562.5067557;562.5067557;562.5067557;562.5067557;[1.0564516000449657, 1.1929556000977755, 1.322552400175482, 1.607604700140655, 1.7091019002255052];;;;;;190102;1;2023-11-30_12h48.08.240;REPSWITCH1_version1_list2;2022.2.4;143.9316957;
REPSWITCH1/PICTURE_687.png;camisa;speak;gold;filler;2;F;1;1;2;1;Stim5_Set4;0;None;113;112;11;0;112;112;112;;;;;;;;;;;;;;;;;;;;;;;563.0067666;564.1806191;564.1806191;564.1806191;564.1806191;564.1806191;564.1806191;564.1806191;564.1806191;None;0;;C:\2023\REPSWITCH21092023\REPSWITCH_excgange\REPSWITCH_excgange\data/190102_REPSWITCH1_version1_list2_2023-11-30_12h48.08.240_micRespv1l2_recorded\recording_micRespv1l2_2023-11-30_12h57.26.497.wav;567.2017491;567.7018312;None;567.2017491;567.2017491;567.2017491;567.2017491;567.2017491;567.2017491;;;;;;;190102;1;2023-11-30_12h48.08.240;REPSWITCH1_version1_list2;2022.2.4;143.9316957;
REPSWITCH1/PICTURE_128.png;muñeca;type;darkblue;nontarget;1;NT;1;1;2;1;Stim4_Set1;1;switch;114;113;12;0;113;113;113;;;;;;;;;;;;;;;;;;;;;;;567.7018312;568.8131342;568.8131342;568.8131342;568.8131342;568.8131342;568.8131342;568.8131342;568.8131342;['m', 'u', 'ñ', 'e', 'c', 'a'];0;muñeca;C:\2023\REPSWITCH21092023\REPSWITCH_excgange\REPSWITCH_excgange\data/190102_REPSWITCH1_version1_list2_2023-11-30_12h48.08.240_micRespv1l2_recorded\recording_micRespv1l2_2023-11-30_12h57.31.129.wav;571.8343412;572.3344019;None;571.8343412;571.8343412;571.8343412;571.8343412;571.8343412;571.8343412;[1.127135599963367, 1.3713144999928772, 1.674567800015211, 1.8472889999393374, 2.0329726000782102, 2.14292629994452];;;;;;190102;1;2023-11-30_12h48.08.240;REPSWITCH1_version1_list2;2022.2.4;143.9316957;
REPSWITCH1/PICTURE_128.png;muñeca;speak;gold;switch;2;T;1;1;2;1;Stim4_Set1;0;None;115;114;13;0;114;114;114;;;;;;;;;;;;;;;;;;;;;;;572.3344019;573.4456914;573.4456914;573.4456914;573.4456914;573.4456914;573.4456914;573.4456914;573.4456914;None;0;;C:\2023\REPSWITCH21092023\REPSWITCH_excgange\REPSWITCH_excgange\data/190102_REPSWITCH1_version1_list2_2023-11-30_12h48.08.240_micRespv1l2_recorded\recording_micRespv1l2_2023-11-30_12h57.35.762.wav;576.473832;;None;576.473832;576.473832;576.473832;576.473832;576.473832;576.473832;;;;;;;190102;1;2023-11-30_12h48.08.240;REPSWITCH1_version1_list2;2022.2.4;143.9316957;
REPSWITCH1/PICTURE_8.png;pierna;speak;gold;filler;2;F;1;1;2;1;Stim3_Set4;0;None;116;115;14;0;115;115;115;;;;;;;;;;;;;;;;;;;;;;;576.9739004;578.036593;578.036593;578.036593;578.036593;578.036593;578.036593;578.036593;578.036593;None;0;;C:\2023\REPSWITCH21092023\REPSWITCH_excgange\REPSWITCH_excgange\data/190102_REPSWITCH1_version1_list2_2023-11-30_12h48.08.240_micRespv1l2_recorded\recording_micRespv1l2_2023-11-30_12h57.40.353.wav;581.0578058;581.5578429;None;581.0578058;581.0578058;581.0578058;581.0578058;581.0578058;581.0578058;;;;;;;190102;1;2023-11-30_12h48.08.240;REPSWITCH1_version1_list2;2022.2.4;143.9316957;
REPSWITCH1/PICTURE_19.png;pavo;speak;gold;nontarget;2;NT;1;1;2;1;Stim5_Set1;0;None;117;116;15;0;116;116;116;;;;;;;;;;;;;;;;;;;;;;;581.5578429;582.6691622;582.6691622;582.6691622;582.6691622;582.6691622;582.6691622;582.6691622;582.6691622;None;0;;C:\2023\REPSWITCH21092023\REPSWITCH_excgange\REPSWITCH_excgange\data/190102_REPSWITCH1_version1_list2_2023-11-30_12h48.08.240_micRespv1l2_recorded\recording_micRespv1l2_2023-11-30_12h57.44.985.wav;585.6902877;586.1903866;None;585.6902877;585.6902877;585.6902877;585.6902877;585.6902877;585.6902877;;;;;;;190102;1;2023-11-30_12h48.08.240;REPSWITCH1_version1_list2;2022.2.4;143.9316957;
REPSWITCH1/PICTURE_19.png;pavo;type;darkblue;switch;1;T;1;1;2;1;Stim5_Set1;0;None;118;117;16;0;117;117;117;;;;;;;;;;;;;;;;;;;;;;;586.1903866;587.3155254;587.3155254;587.3155254;587.3155254;587.3155254;587.3155254;587.3155254;587.3155254;['p', 'a', 'v', 'o'];0;pavo;C:\2023\REPSWITCH21092023\REPSWITCH_excgange\REPSWITCH_excgange\data/190102_REPSWITCH1_version1_list2_2023-11-30_12h48.08.240_micRespv1l2_recorded\recording_micRespv1l2_2023-11-30_12h57.49.632.wav;590.3368031;590.8368027;None;590.3368031;590.3368031;590.3368031;590.3368031;590.3368031;590.3368031;[0.918406399898231, 1.0599132999777794, 1.3820344998966902, 1.5107920998707414];;;;;;190102;1;2023-11-30_12h48.08.240;REPSWITCH1_version1_list2;2022.2.4;143.9316957;
REPSWITCH1/PICTURE_16.png;cazador;type;darkblue;nontarget;1;NT;1;1;2;1;Stim6_Set1;1;switch;119;118;17;0;118;118;118;;;;;;;;;;;;;;;;;;;;;;;590.8368027;591.9412183;591.9412183;591.9412183;591.9412183;591.9412183;591.9412183;591.9412183;591.9412183;['c', 'a', 'z', 'a', 'd', 'o', 'r'];0;cazador;C:\2023\REPSWITCH21092023\REPSWITCH_excgange\REPSWITCH_excgange\data/190102_REPSWITCH1_version1_list2_2023-11-30_12h48.08.240_micRespv1l2_recorded\recording_micRespv1l2_2023-11-30_12h57.54.258.wav;594.9623327;595.462506;None;594.9623327;594.9623327;594.9623327;594.9623327;594.9623327;594.9623327;[1.202264399966225, 1.3009244001004845, 1.554098900174722, 1.6705120000988245, 2.135836200090125, 2.2763096000999212, 2.3670426001772285];;;;;;190102;1;2023-11-30_12h48.08.240;REPSWITCH1_version1_list2;2022.2.4;143.9316957;
REPSWITCH1/PICTURE_16.png;cazador;type;darkblue;repeat;1;T;1;1;2;1;Stim6_Set1;0;None;120;119;18;0;119;119;119;;;;;;;;;;;;;;;;;;;;;;;595.462506;596.5043098;596.5043098;596.5043098;596.5043098;596.5043098;596.5043098;596.5043098;596.5043098;['c', 'a', 'z', 'a', 'd', 'o', 'r'];0;cazador;C:\2023\REPSWITCH21092023\REPSWITCH_excgange\REPSWITCH_excgange\data/190102_REPSWITCH1_version1_list2_2023-11-30_12h48.08.240_micRespv1l2_recorded\recording_micRespv1l2_2023-11-30_12h57.58.821.wav;599.525436;600.0255236;None;599.525436;599.525436;599.525436;599.525436;599.525436;599.525436;[0.9715289999730885, 1.0572500000707805, 1.2300863999407738, 1.4353877000976354, 1.6446934000123292, 1.8130824000108987, 1.931687500094995];;;;;;190102;1;2023-11-30_12h48.08.240;REPSWITCH1_version1_list2;2022.2.4;143.9316957;
REPSWITCH1/PICTURE_498.png;taza;speak;gold;filler;2;F;1;1;2;1;Stim4_Set4;0;None;121;120;19;0;120;120;120;;;;;;;;;;;;;;;;;;;;;;;600.0255236;601.081284;601.081284;601.081284;601.081284;601.081284;601.081284;601.081284;601.081284;None;0;;C:\2023\REPSWITCH21092023\REPSWITCH_excgange\REPSWITCH_excgange\data/190102_REPSWITCH1_version1_list2_2023-11-30_12h48.08.240_micRespv1l2_recorded\recording_micRespv1l2_2023-11-30_12h58.03.398.wav;604.109488;;None;604.109488;604.109488;604.109488;604.109488;604.109488;604.109488;;;;;;;190102;1;2023-11-30_12h48.08.240;REPSWITCH1_version1_list2;2022.2.4;143.9316957;
REPSWITCH1/PICTURE_48.png;bombero;type;darkblue;filler;1;F;1;1;2;1;Stim7_Set4;0;None;122;121;20;0;121;121;121;;;;;;;;;;;;;;;;;;;;;;;604.6094679;605.630458;605.630458;605.630458;605.630458;605.630458;605.630458;605.630458;605.630458;['b', 'o', 'm', 'b', 'e', 'r', 'o'];0;bombero;C:\2023\REPSWITCH21092023\REPSWITCH_excgange\REPSWITCH_excgange\data/190102_REPSWITCH1_version1_list2_2023-11-30_12h48.08.240_micRespv1l2_recorded\recording_micRespv1l2_2023-11-30_12h58.07.947.wav;608.6517066;609.1517037;None;608.6517066;608.6517066;608.6517066;608.6517066;608.6517066;608.6517066;[1.0777847999706864, 1.2451947999652475, 1.5650148999411613, 1.8581782998517156, 2.0139899000059813, 2.1435602998826653, 2.276544200023636];;;;;;190102;1;2023-11-30_12h48.08.240;REPSWITCH1_version1_list2;2022.2.4;143.9316957;
REPSWITCH1/PICTURE_142.png;vaso;type;darkblue;nontarget;1;NT;1;1;2;1;Stim7_Set1;1;repeat;123;122;21;0;122;122;122;;;;;;;;;;;;;;;;;;;;;;;609.1517037;610.2352132;610.2352132;610.2352132;610.2352132;610.2352132;610.2352132;610.2352132;610.2352132;['v', 'a', 's', 'o'];0;vaso;C:\2023\REPSWITCH21092023\REPSWITCH_excgange\REPSWITCH_excgange\data/190102_REPSWITCH1_version1_list2_2023-11-30_12h48.08.240_micRespv1l2_recorded\recording_micRespv1l2_2023-11-30_12h58.12.551.wav;613.2564392;613.7565074;None;613.2564392;613.2564392;613.2564392;613.2564392;613.2564392;613.2564392;[1.3893259998876601, 1.506029199808836, 1.7734976999927312, 1.9742550000082701];;;;;;190102;1;2023-11-30_12h48.08.240;REPSWITCH1_version1_list2;2022.2.4;143.9316957;
REPSWITCH1/PICTURE_142.png;vaso;type;darkblue;repeat;1;T;1;1;2;1;Stim7_Set1;0;None;124;123;22;0;123;123;123;;;;;;;;;;;;;;;;;;;;;;;613.7565074;614.9025506;614.9025506;614.9025506;614.9025506;614.9025506;614.9025506;614.9025506;614.9025506;['v', 'a', 's', 'o'];0;vaso;C:\2023\REPSWITCH21092023\REPSWITCH_excgange\REPSWITCH_excgange\data/190102_REPSWITCH1_version1_list2_2023-11-30_12h48.08.240_micRespv1l2_recorded\recording_micRespv1l2_2023-11-30_12h58.17.219.wav;617.9306981;;None;617.9306981;617.9306981;617.9306981;617.9306981;617.9306981;617.9306981;[0.8229924000333995, 0.9057058999314904, 1.077132800128311, 1.2589426001068205];;;;;;190102;1;2023-11-30_12h48.08.240;REPSWITCH1_version1_list2;2022.2.4;143.9316957;
REPSWITCH1/PICTURE_338.png;regalo;speak;gold;filler;2;F;1;1;2;1;Stim6_Set4;1;switch;125;124;23;0;124;124;124;;;;;;;;;;;;;;;;;;;;;;;618.4306996;619.6531045;619.6531045;619.6531045;619.6531045;619.6531045;619.6531045;619.6531045;619.6531045;None;0;;C:\2023\REPSWITCH21092023\REPSWITCH_excgange\REPSWITCH_excgange\data/190102_REPSWITCH1_version1_list2_2023-11-30_12h48.08.240_micRespv1l2_recorded\recording_micRespv1l2_2023-11-30_12h58.21.970.wav;622.6743429;623.1744048;None;622.6743429;622.6743429;622.6743429;622.6743429;622.6743429;622.6743429;;;;;;;190102;1;2023-11-30_12h48.08.240;REPSWITCH1_version1_list2;2022.2.4;143.9316957;
REPSWITCH1/PICTURE_728.png;pulpo;type;darkblue;filler;1;F;1;1;2;1;Stim8_Set4;1;switch;126;125;24;0;125;125;125;;;;;;;;;;;;;;;;;;;;;;;623.1744048;624.3343305;624.3343305;624.3343305;624.3343305;624.3343305;624.3343305;624.3343305;624.3343305;['p', 'u', 'l', 'o'];0;pulo;C:\2023\REPSWITCH21092023\REPSWITCH_excgange\REPSWITCH_excgange\data/190102_REPSWITCH1_version1_list2_2023-11-30_12h48.08.240_micRespv1l2_recorded\recording_micRespv1l2_2023-11-30_12h58.26.650.wav;627.3555154;627.8555524;None;627.3555154;627.3555154;627.3555154;627.3555154;627.3555154;627.3555154;[1.0401934999972582, 1.3409877999220043, 1.6271015000529587, 1.9589456000830978];;;;;;190102;1;2023-11-30_12h48.08.240;REPSWITCH1_version1_list2;2022.2.4;143.9316957;
REPSWITCH1/PICTURE_169.png;espalda;type;darkblue;nontarget;1;NT;1;1;2;1;Stim8_Set1;1;repeat;127;126;25;0;126;126;126;;;;;;;;;;;;;;;;;;;;;;;627.8555524;628.9321281;628.9321281;628.9321281;628.9321281;628.9321281;628.9321281;628.9321281;628.9321281;['e', 's', 'p', 'a', 'd', 'a'];0;espada;C:\2023\REPSWITCH21092023\REPSWITCH_excgange\REPSWITCH_excgange\data/190102_REPSWITCH1_version1_list2_2023-11-30_12h48.08.240_micRespv1l2_recorded\recording_micRespv1l2_2023-11-30_12h58.31.249.wav;631.9533984;632.4533958;None;631.9533984;631.9533984;631.9533984;631.9533984;631.9533984;631.9533984;[1.0443571000359952, 1.196065800031647, 1.364449700107798, 1.4638480001594871, 1.8072097999975085, 1.868820199975744];;;;;;190102;1;2023-11-30_12h48.08.240;REPSWITCH1_version1_list2;2022.2.4;143.9316957;
REPSWITCH1/PICTURE_169.png;espalda;speak;gold;switch;2;T;1;1;2;1;Stim8_Set1;0;None;128;127;26;0;127;127;127;;;;;;;;;;;;;;;;;;;;;;;632.4533958;633.6619014;633.6619014;633.6619014;633.6619014;633.6619014;633.6619014;633.6619014;633.6619014;None;0;;C:\2023\REPSWITCH21092023\REPSWITCH_excgange\REPSWITCH_excgange\data/190102_REPSWITCH1_version1_list2_2023-11-30_12h48.08.240_micRespv1l2_recorded\recording_micRespv1l2_2023-11-30_12h58.35.979.wav;636.690064;;None;636.690064;636.690064;636.690064;636.690064;636.690064;636.690064;;;;;;;190102;1;2023-11-30_12h48.08.240;REPSWITCH1_version1_list2;2022.2.4;143.9316957;
REPSWITCH1/PICTURE_178.png;puente;speak;gold;filler;2;F;2;1;2;1;Stim1_Set1;0;None;129;128;27;0;128;128;128;;;;;;;;;;;;;;;;;;;;;;;637.1901283;638.3153005;638.3153005;638.3153005;638.3153005;638.3153005;638.3153005;638.3153005;638.3153005;None;0;;C:\2023\REPSWITCH21092023\REPSWITCH_excgange\REPSWITCH_excgange\data/190102_REPSWITCH1_version1_list2_2023-11-30_12h48.08.240_micRespv1l2_recorded\recording_micRespv1l2_2023-11-30_12h58.40.632.wav;641.336548;641.836629;None;641.336548;641.336548;641.336548;641.336548;641.336548;641.336548;;;;;;;190102;1;2023-11-30_12h48.08.240;REPSWITCH1_version1_list2;2022.2.4;143.9316957;
REPSWITCH1/PICTURE_175.png;pintor;type;darkblue;nontarget;1;NT;2;1;2;1;Stim1_Set2;1;switch;130;129;28;0;129;129;129;;;;;;;;;;;;;;;;;;;;;;;641.836629;642.9617746;642.9617746;642.9617746;642.9617746;642.9617746;642.9617746;642.9617746;642.9617746;['p', 'i', 'n', 't', 'o', 'r'];0;pintor;C:\2023\REPSWITCH21092023\REPSWITCH_excgange\REPSWITCH_excgange\data/190102_REPSWITCH1_version1_list2_2023-11-30_12h48.08.240_micRespv1l2_recorded\recording_micRespv1l2_2023-11-30_12h58.45.278.wav;645.9829588;646.4830195;None;645.9829588;645.9829588;645.9829588;645.9829588;645.9829588;645.9829588;[1.2773704000283033, 1.5039419000968337, 1.7055166000500321, 1.9387370001059026, 2.088224499952048, 2.230773000046611];;;;;;190102;1;2023-11-30_12h48.08.240;REPSWITCH1_version1_list2;2022.2.4;143.9316957;
REPSWITCH1/PICTURE_175.png;pintor;type;darkblue;repeat;1;T;2;1;2;1;Stim1_Set2;0;None;131;130;29;0;130;130;130;;;;;;;;;;;;;;;;;;;;;;;646.4830195;647.6151681;647.6151681;647.6151681;647.6151681;647.6151681;647.6151681;647.6151681;647.6151681;['p', 'i', 'n', 't', 'o', 'r'];0;pintor;C:\2023\REPSWITCH21092023\REPSWITCH_excgange\REPSWITCH_excgange\data/190102_REPSWITCH1_version1_list2_2023-11-30_12h48.08.240_micRespv1l2_recorded\recording_micRespv1l2_2023-11-30_12h58.49.932.wav;650.6432857;;None;650.6432857;650.6432857;650.6432857;650.6432857;650.6432857;650.6432857;[1.1669477000832558, 1.3785230999346823, 1.5738196999300271, 1.8059897001367062, 1.9525337999220937, 2.109009000007063];;;;;;190102;1;2023-11-30_12h48.08.240;REPSWITCH1_version1_list2;2022.2.4;143.9316957;
REPSWITCH1/PICTURE_381.png;fresa;speak;gold;filler;2;F;2;1;2;1;Stim2_Set1;0;None;132;131;30;0;131;131;131;;;;;;;;;;;;;;;;;;;;;;;651.1433527;652.1781852;652.1781852;652.1781852;652.1781852;652.1781852;652.1781852;652.1781852;652.1781852;None;0;;C:\2023\REPSWITCH21092023\REPSWITCH_excgange\REPSWITCH_excgange\data/190102_REPSWITCH1_version1_list2_2023-11-30_12h48.08.240_micRespv1l2_recorded\recording_micRespv1l2_2023-11-30_12h58.54.496.wav;655.2063783;;None;655.2063783;655.2063783;655.2063783;655.2063783;655.2063783;655.2063783;;;;;;;190102;1;2023-11-30_12h48.08.240;REPSWITCH1_version1_list2;2022.2.4;143.9316957;
REPSWITCH1/PICTURE_152.png;caracol;type;darkblue;nontarget;1;NT;2;1;2;1;Stim2_Set2;1;switch;133;132;31;0;132;132;132;;;;;;;;;;;;;;;;;;;;;;;655.7064497;656.8455574;656.8455574;656.8455574;656.8455574;656.8455574;656.8455574;656.8455574;656.8455574;['c', 'a', 'r', 'a', 'c', 'o', 'l'];0;caracol;C:\2023\REPSWITCH21092023\REPSWITCH_excgange\REPSWITCH_excgange\data/190102_REPSWITCH1_version1_list2_2023-11-30_12h48.08.240_micRespv1l2_recorded\recording_micRespv1l2_2023-11-30_12h58.59.162.wav;659.8666815;660.3667589;None;659.8666815;659.8666815;659.8666815;659.8666815;659.8666815;659.8666815;[1.2503025999758393, 1.3540001998189837, 1.4669697999488562, 1.5501575998496264, 1.7604438997805119, 1.9800428999587893, 2.1265406999737024];;;;;;190102;1;2023-11-30_12h48.08.240;REPSWITCH1_version1_list2;2022.2.4;143.9316957;
REPSWITCH1/PICTURE_152.png;caracol;type;darkblue;repeat;1;T;2;1;2;1;Stim2_Set2;0;None;134;133;32;0;133;133;133;;;;;;;;;;;;;;;;;;;;;;;660.3667589;661.4016437;661.4016437;661.4016437;661.4016437;661.4016437;661.4016437;661.4016437;661.4016437;['c', 'a', 'r', 'a', 'c', 'o', 'l'];0;caracol;C:\2023\REPSWITCH21092023\REPSWITCH_excgange\REPSWITCH_excgange\data/190102_REPSWITCH1_version1_list2_2023-11-30_12h48.08.240_micRespv1l2_recorded\recording_micRespv1l2_2023-11-30_12h59.03.718.wav;664.4228765;664.9229334;None;664.4228765;664.4228765;664.4228765;664.4228765;664.4228765;664.4228765;[0.7912663999013603, 0.8944278999697417, 1.0199035999830812, 1.0750469998456538, 1.3310467000119388, 1.5954769998788834, 1.734969399869442];;;;;;190102;1;2023-11-30_12h48.08.240;REPSWITCH1_version1_list2;2022.2.4;143.9316957;
REPSWITCH1/PICTURE_128.png;muñeca;speak;gold;filler;2;F;2;1;2;1;Stim4_Set1;0;None;135;134;33;0;134;134;134;;;;;;;;;;;;;;;;;;;;;;;664.9229334;666.1036277;666.1036277;666.1036277;666.1036277;666.1036277;666.1036277;666.1036277;666.1036277;None;0;;C:\2023\REPSWITCH21092023\REPSWITCH_excgange\REPSWITCH_excgange\data/190102_REPSWITCH1_version1_list2_2023-11-30_12h48.08.240_micRespv1l2_recorded\recording_micRespv1l2_2023-11-30_12h59.08.420.wav;669.1318537;;None;669.1318537;669.1318537;669.1318537;669.1318537;669.1318537;669.1318537;;;;;;;190102;1;2023-11-30_12h48.08.240;REPSWITCH1_version1_list2;2022.2.4;143.9316957;
REPSWITCH1/PICTURE_264.png;mano;type;darkblue;nontarget;1;NT;2;1;2;1;Stim3_Set2;0;None;136;135;34;0;135;135;135;;;;;;;;;;;;;;;;;;;;;;;669.6318723;670.7639693;670.7639693;670.7639693;670.7639693;670.7639693;670.7639693;670.7639693;670.7639693;['m', 'a', 'n', 'o'];0;mano;C:\2023\REPSWITCH21092023\REPSWITCH_excgange\REPSWITCH_excgange\data/190102_REPSWITCH1_version1_list2_2023-11-30_12h48.08.240_micRespv1l2_recorded\recording_micRespv1l2_2023-11-30_12h59.13.081.wav;673.7851781;674.2852661;None;673.7851781;673.7851781;673.7851781;673.7851781;673.7851781;673.7851781;[0.8553614998236299, 0.9659752999432385, 1.0589152998290956, 1.2739659999497235];;;;;;190102;1;2023-11-30_12h48.08.240;REPSWITCH1_version1_list2;2022.2.4;143.9316957;
REPSWITCH1/PICTURE_264.png;mano;speak;gold;switch;2;T;2;1;2;1;Stim3_Set2;0;None;137;136;35;0;136;136;136;;;;;;;;;;;;;;;;;;;;;;;674.2852661;675.3410321;675.3410321;675.3410321;675.3410321;675.3410321;675.3410321;675.3410321;675.3410321;None;0;;C:\2023\REPSWITCH21092023\REPSWITCH_excgange\REPSWITCH_excgange\data/190102_REPSWITCH1_version1_list2_2023-11-30_12h48.08.240_micRespv1l2_recorded\recording_micRespv1l2_2023-11-30_12h59.17.658.wav;678.3622027;678.862341;None;678.3622027;678.3622027;678.3622027;678.3622027;678.3622027;678.3622027;;;;;;;190102;1;2023-11-30_12h48.08.240;REPSWITCH1_version1_list2;2022.2.4;143.9316957;
REPSWITCH1/PICTURE_517.png;cuerda;speak;gold;nontarget;2;NT;2;1;2;1;Stim4_Set2;1;repeat;138;137;36;0;137;137;137;;;;;;;;;;;;;;;;;;;;;;;678.862341;679.9665583;679.9665583;679.9665583;679.9665583;679.9665583;679.9665583;679.9665583;679.9665583;None;0;;C:\2023\REPSWITCH21092023\REPSWITCH_excgange\REPSWITCH_excgange\data/190102_REPSWITCH1_version1_list2_2023-11-30_12h48.08.240_micRespv1l2_recorded\recording_micRespv1l2_2023-11-30_12h59.22.283.wav;682.9877954;683.4878716;None;682.9877954;682.9877954;682.9877954;682.9877954;682.9877954;682.9877954;;;;;;;190102;1;2023-11-30_12h48.08.240;REPSWITCH1_version1_list2;2022.2.4;143.9316957;
REPSWITCH1/PICTURE_517.png;cuerda;type;darkblue;switch;1;T;2;1;2;1;Stim4_Set2;0;None;139;138;37;0;138;138;138;;;;;;;;;;;;;;;;;;;;;;;683.4878716;684.6755201;684.6755201;684.6755201;684.6755201;684.6755201;684.6755201;684.6755201;684.6755201;['c', 'u', 'e', 'r', 'r', 'd', 'a'];0;cuerrda;C:\2023\REPSWITCH21092023\REPSWITCH_excgange\REPSWITCH_excgange\data/190102_REPSWITCH1_version1_list2_2023-11-30_12h48.08.240_micRespv1l2_recorded\recording_micRespv1l2_2023-11-30_12h59.26.992.wav;687.6967344;688.1968232;None;687.6967344;687.6967344;687.6967344;687.6967344;687.6967344;687.6967344;[0.9336721000727266, 1.152928699972108, 1.3004292999394238, 1.4586008000187576, 1.4847957999445498, 1.6403167999815196, 1.701092999894172];;;;;;190102;1;2023-11-30_12h48.08.240;REPSWITCH1_version1_list2;2022.2.4;143.9316957;
REPSWITCH1/PICTURE_135.png;traje;type;darkblue;filler;1;F;2;1;2;1;Stim3_Set1;0;None;140;139;38;0;139;139;139;;;;;;;;;;;;;;;;;;;;;;;688.1968232;689.3567068;689.3567068;689.3567068;689.3567068;689.3567068;689.3567068;689.3567068;689.3567068;['t', 'r', 'a', 'j', 'e'];0;traje;C:\2023\REPSWITCH21092023\REPSWITCH_excgange\REPSWITCH_excgange\data/190102_REPSWITCH1_version1_list2_2023-11-30_12h48.08.240_micRespv1l2_recorded\recording_micRespv1l2_2023-11-30_12h59.31.672.wav;692.3779999;692.8779947;None;692.3779999;692.3779999;692.3779999;692.3779999;692.3779999;692.3779999;[1.0671757999807596, 1.210137799847871, 1.3078097999095917, 1.5769215999171138, 1.6965307998470962];;;;;;190102;1;2023-11-30_12h48.08.240;REPSWITCH1_version1_list2;2022.2.4;143.9316957;
REPSWITCH1/PICTURE_30.png;granja;type;darkblue;nontarget;1;NT;2;1;2;1;Stim5_Set2;1;repeat;141;140;39;0;140;140;140;;;;;;;;;;;;;;;;;;;;;;;692.8779947;693.9545315;693.9545315;693.9545315;693.9545315;693.9545315;693.9545315;693.9545315;693.9545315;['g', 'r', 'a', 'n', 'j', 'a'];0;granja;C:\2023\REPSWITCH21092023\REPSWITCH_excgange\REPSWITCH_excgange\data/190102_REPSWITCH1_version1_list2_2023-11-30_12h48.08.240_micRespv1l2_recorded\recording_micRespv1l2_2023-11-30_12h59.36.272.wav;696.9827448;;None;696.9827448;696.9827448;696.9827448;696.9827448;696.9827448;696.9827448;[1.0761070000007749, 1.2190608999226242, 1.3536163000389934, 1.581891099922359, 1.7241372000426054, 1.782019800040871];;;;;;190102;1;2023-11-30_12h48.08.240;REPSWITCH1_version1_list2;2022.2.4;143.9316957;
REPSWITCH1/PICTURE_30.png;granja;speak;gold;switch;2;T;2;1;2;1;Stim5_Set2;0;None;142;141;40;0;141;141;141;;;;;;;;;;;;;;;;;;;;;;;697.4827361;698.5870475;698.5870475;698.5870475;698.5870475;698.5870475;698.5870475;698.5870475;698.5870475;None;0;;C:\2023\REPSWITCH21092023\REPSWITCH_excgange\REPSWITCH_excgange\data/190102_REPSWITCH1_version1_list2_2023-11-30_12h48.08.240_micRespv1l2_recorded\recording_micRespv1l2_2023-11-30_12h59.40.904.wav;701.6152485;;None;701.6152485;701.6152485;701.6152485;701.6152485;701.6152485;701.6152485;;;;;;;190102;1;2023-11-30_12h48.08.240;REPSWITCH1_version1_list2;2022.2.4;143.9316957;
