image;correctAns;respModal;frameColor;repSwitch;sequence;target;set;block;list;exp_version;stimulus;baseline;baseline_condition;trial_no;psychopy_trial;Column1;trialsREPSWITCH.thisRepN;trialsREPSWITCH.thisTrialN;trialsREPSWITCH.thisN;trialsREPSWITCH.thisIndex;textWelcome.started;textboxInstrMain1.started;textboxInstrMain1_2.started;textboxInstrMain1_3.started;keyInstrMain.started;keyInstrMain.keys;keyInstrMain.rt;textboxInstrMain2.started;textboxInstrMain2_2.started;textboxInstrMain2_3.started;textboxInstrMain2_4.started;textboxInstrMain2_5.started;textboxInstrMain2_6.started;textboxInstrMain2_7.started;textboxInstrMain2_8.started;textboxInstrMain2_9.started;textboxInstrMain2_10.started;textboxInstrMain2_11.started;textboxInstrMain2_12.started;keyInstrMain2.started;keyInstrMain2.keys;keyInstrMain2.rt;fixationITI.started;fixationITI.stopped;polygonColour.started;polygonWhite.started;imageObject.started;polygonType.started;textInput.started;keyResp.started;micRespv1l2.started;keyResp.keys;keyResp.corr;subjResponse;micRespv1l2.clip;textBlankLoop.started;textBlankLoop.stopped;keyPause.keys;polygonColour.stopped;polygonWhite.stopped;imageObject.stopped;polygonType.stopped;textInput.stopped;keyResp.stopped;keyResp.rt;textboxPause.started;keyPause.started;keyPause.rt;textboxGoodbye.started;textboxGoodbye.stopped;participant;session;date;expName;psychopyVersion;frameRate;Column2
;;;;;;;;;;;;;;;;;;;;;8.874326399993151;11.367066599894315;11.367066599894315;11.367066599894315;11.367066599894315;space;2.288411299698055;;;;;;;;;;;;;;;;;;;;;;;;;;;;;;;;;;;;;;;;;;;;350102;001;2023-12-12_15h10.50.951;REPSWITCH1_version1_list2;2022.2.4;143.86150175267852;
;;;;;;;;;;;;;;;;;;;;;;;;;;;;13.672938900068402;13.672938900068402;13.672938900068402;13.672938900068402;13.672938900068402;13.672938900068402;13.672938900068402;13.672938900068402;13.672938900068402;13.672938900068402;13.672938900068402;13.672938900068402;13.672938900068402;space;1.4716429999098182;;;;;;;;;;;;;;;;;;;;;;;;;;;;;350102;001;2023-12-12_15h10.50.951;REPSWITCH1_version1_list2;2022.2.4;143.86150175267852;
REPSWITCH1/PICTURE_646.png;tronco;speak;gold;filler;2;F;1;3;2;1;Extra4;0;None;1;0;1;0;0;0;0;;;;;;;;;;;;;;;;;;;;;;;15.235606799833477;16.3400717000477;16.3400717000477;16.3400717000477;16.3400717000477;16.3400717000477;16.3400717000477;16.3400717000477;16.3400717000477;None;0;;C:\2023\REPSWITCH21092023\REPSWITCH_excgange\REPSWITCH_excgange\data/350102_REPSWITCH1_version1_list2_2023-12-12_15h10.50.951_micRespv1l2_recorded\recording_micRespv1l2_2023-12-12_15h11.03.302.wav;19.36124930018559;19.861250900197774;None;;;;;;;;;;;;;350102;001;2023-12-12_15h10.50.951;REPSWITCH1_version1_list2;2022.2.4;143.86150175267852;
REPSWITCH1/PICTURE_340.png;espejo;type;darkblue;filler;1;F;1;3;2;1;Extra1;0;None;2;1;2;0;1;1;1;;;;;;;;;;;;;;;;;;;;;;;19.861250900197774;20.916949599981308;20.916949599981308;20.916949599981308;20.916949599981308;20.916949599981308;20.916949599981308;20.916949599981308;20.916949599981308;['e', 's', 'p', 'e', 'j', 'o'];0;espejo;C:\2023\REPSWITCH21092023\REPSWITCH_excgange\REPSWITCH_excgange\data/350102_REPSWITCH1_version1_list2_2023-12-12_15h10.50.951_micRespv1l2_recorded\recording_micRespv1l2_2023-12-12_15h11.07.884.wav;23.938133399933577;24.43830499984324;None;23.938133399933577;23.938133399933577;23.938133399933577;23.938133399933577;23.938133399933577;23.938133399933577;[1.1569344997406006, 1.3247871999628842, 1.4623091998510063, 1.5573904998600483, 2.2702336995862424, 2.3646637997590005];;;;;;350102;001;2023-12-12_15h10.50.951;REPSWITCH1_version1_list2;2022.2.4;143.86150175267852;
REPSWITCH1/PICTURE_338.png;regalo;speak;gold;filler;2;F;1;3;2;1;Stim6_Set4;0;None;3;2;3;0;2;2;2;;;;;;;;;;;;;;;;;;;;;;;24.43830499984324;25.53560610022396;25.53560610022396;25.53560610022396;25.53560610022396;25.53560610022396;25.53560610022396;25.53560610022396;25.53560610022396;None;0;;C:\2023\REPSWITCH21092023\REPSWITCH_excgange\REPSWITCH_excgange\data/350102_REPSWITCH1_version1_list2_2023-12-12_15h10.50.951_micRespv1l2_recorded\recording_micRespv1l2_2023-12-12_15h11.12.503.wav;28.556800300255418;29.05689960019663;None;28.556800300255418;28.556800300255418;28.556800300255418;28.556800300255418;28.556800300255418;28.556800300255418;;;;;;;350102;001;2023-12-12_15h10.50.951;REPSWITCH1_version1_list2;2022.2.4;143.86150175267852;
REPSWITCH1/PICTURE_142.png;vaso;speak;gold;nontarget;2;NT;1;3;2;1;Stim7_Set1;1;repeat;4;3;4;0;3;3;3;;;;;;;;;;;;;;;;;;;;;;;29.05689960019663;30.14730350021273;30.14730350021273;30.14730350021273;30.14730350021273;30.14730350021273;30.14730350021273;30.14730350021273;30.14730350021273;None;0;;C:\2023\REPSWITCH21092023\REPSWITCH_excgange\REPSWITCH_excgange\data/350102_REPSWITCH1_version1_list2_2023-12-12_15h10.50.951_micRespv1l2_recorded\recording_micRespv1l2_2023-12-12_15h11.17.114.wav;33.168511299882084;33.66864169994369;None;33.168511299882084;33.168511299882084;33.168511299882084;33.168511299882084;33.168511299882084;33.168511299882084;;;;;;;350102;001;2023-12-12_15h10.50.951;REPSWITCH1_version1_list2;2022.2.4;143.86150175267852;
REPSWITCH1/PICTURE_142.png;vaso;speak;gold;repeat;2;T;1;3;2;1;Stim7_Set1;0;None;5;4;5;0;4;4;4;;;;;;;;;;;;;;;;;;;;;;;33.66864169994369;34.75207820022479;34.75207820022479;34.75207820022479;34.75207820022479;34.75207820022479;34.75207820022479;34.75207820022479;34.75207820022479;None;0;;C:\2023\REPSWITCH21092023\REPSWITCH_excgange\REPSWITCH_excgange\data/350102_REPSWITCH1_version1_list2_2023-12-12_15h10.50.951_micRespv1l2_recorded\recording_micRespv1l2_2023-12-12_15h11.21.719.wav;37.77332649985328;38.27338590007275;None;37.77332649985328;37.77332649985328;37.77332649985328;37.77332649985328;37.77332649985328;37.77332649985328;;;;;;;350102;001;2023-12-12_15h10.50.951;REPSWITCH1_version1_list2;2022.2.4;143.86150175267852;
REPSWITCH1/PICTURE_498.png;taza;type;darkblue;filler;1;F;1;3;2;1;Stim4_Set4;0;None;6;5;6;0;5;5;5;;;;;;;;;;;;;;;;;;;;;;;38.27338590007275;39.3012850000523;39.3012850000523;39.3012850000523;39.3012850000523;39.3012850000523;39.3012850000523;39.3012850000523;39.3012850000523;['t', 'a', 'z', 'a'];0;taza;C:\2023\REPSWITCH21092023\REPSWITCH_excgange\REPSWITCH_excgange\data/350102_REPSWITCH1_version1_list2_2023-12-12_15h10.50.951_micRespv1l2_recorded\recording_micRespv1l2_2023-12-12_15h11.26.268.wav;42.32250620005652;42.822595899924636;None;42.32250620005652;42.32250620005652;42.32250620005652;42.32250620005652;42.32250620005652;42.32250620005652;[1.2021574000827968, 1.281884899828583, 1.4924770998768508, 1.6474301000125706];;;;;;350102;001;2023-12-12_15h10.50.951;REPSWITCH1_version1_list2;2022.2.4;143.86150175267852;
REPSWITCH1/PICTURE_16.png;cazador;speak;gold;nontarget;2;NT;1;3;2;1;Stim6_Set1;1;switch;7;6;7;0;6;6;6;;;;;;;;;;;;;;;;;;;;;;;42.822595899924636;43.913080600090325;43.913080600090325;43.913080600090325;43.913080600090325;43.913080600090325;43.913080600090325;43.913080600090325;43.913080600090325;None;0;;C:\2023\REPSWITCH21092023\REPSWITCH_excgange\REPSWITCH_excgange\data/350102_REPSWITCH1_version1_list2_2023-12-12_15h10.50.951_micRespv1l2_recorded\recording_micRespv1l2_2023-12-12_15h11.30.880.wav;46.93424220010638;47.43428980000317;None;46.93424220010638;46.93424220010638;46.93424220010638;46.93424220010638;46.93424220010638;46.93424220010638;;;;;;;350102;001;2023-12-12_15h10.50.951;REPSWITCH1_version1_list2;2022.2.4;143.86150175267852;
REPSWITCH1/PICTURE_16.png;cazador;speak;gold;repeat;2;T;1;3;2;1;Stim6_Set1;0;None;8;7;8;0;7;7;7;;;;;;;;;;;;;;;;;;;;;;;47.43428980000317;48.53869510022923;48.53869510022923;48.53869510022923;48.53869510022923;48.53869510022923;48.53869510022923;48.53869510022923;48.53869510022923;None;0;;C:\2023\REPSWITCH21092023\REPSWITCH_excgange\REPSWITCH_excgange\data/350102_REPSWITCH1_version1_list2_2023-12-12_15h10.50.951_micRespv1l2_recorded\recording_micRespv1l2_2023-12-12_15h11.35.505.wav;51.55983729986474;52.05991750024259;None;51.55983729986474;51.55983729986474;51.55983729986474;51.55983729986474;51.55983729986474;51.55983729986474;;;;;;;350102;001;2023-12-12_15h10.50.951;REPSWITCH1_version1_list2;2022.2.4;143.86150175267852;
REPSWITCH1/PICTURE_719.png;baño;type;darkblue;filler;1;F;1;3;2;1;Stim2_Set4;0;None;9;8;9;0;8;8;8;;;;;;;;;;;;;;;;;;;;;;;52.05991750024259;53.11562569998205;53.11562569998205;53.11562569998205;53.11562569998205;53.11562569998205;53.11562569998205;53.11562569998205;53.11562569998205;['b', 'a', 'ñ', 'o'];0;baño;C:\2023\REPSWITCH21092023\REPSWITCH_excgange\REPSWITCH_excgange\data/350102_REPSWITCH1_version1_list2_2023-12-12_15h10.50.951_micRespv1l2_recorded\recording_micRespv1l2_2023-12-12_15h11.40.082.wav;56.13680309988558;56.63696700008586;None;56.13680309988558;56.13680309988558;56.13680309988558;56.13680309988558;56.13680309988558;56.13680309988558;[1.034717199858278, 1.1641207998618484, 1.6564867002889514, 1.8198341000825167];;;;;;350102;001;2023-12-12_15h10.50.951;REPSWITCH1_version1_list2;2022.2.4;143.86150175267852;
REPSWITCH1/PICTURE_169.png;espalda;speak;gold;nontarget;2;NT;1;3;2;1;Stim8_Set1;0;None;10;9;10;0;9;9;9;;;;;;;;;;;;;;;;;;;;;;;56.63696700008586;57.699525999836624;57.699525999836624;57.699525999836624;57.699525999836624;57.699525999836624;57.699525999836624;57.699525999836624;57.699525999836624;None;0;;C:\2023\REPSWITCH21092023\REPSWITCH_excgange\REPSWITCH_excgange\data/350102_REPSWITCH1_version1_list2_2023-12-12_15h10.50.951_micRespv1l2_recorded\recording_micRespv1l2_2023-12-12_15h11.44.667.wav;60.72074140002951;61.22091139992699;None;60.72074140002951;60.72074140002951;60.72074140002951;60.72074140002951;60.72074140002951;60.72074140002951;;;;;;;350102;001;2023-12-12_15h10.50.951;REPSWITCH1_version1_list2;2022.2.4;143.86150175267852;
REPSWITCH1/PICTURE_169.png;espalda;type;darkblue;switch;1;T;1;3;2;1;Stim8_Set1;0;None;11;10;11;0;10;10;10;;;;;;;;;;;;;;;;;;;;;;;61.22091139992699;62.31126239988953;62.31126239988953;62.31126239988953;62.31126239988953;62.31126239988953;62.31126239988953;62.31126239988953;62.31126239988953;['e', 's', 'p', 'a', 'l', 'd', 'a'];0;espalda;C:\2023\REPSWITCH21092023\REPSWITCH_excgange\REPSWITCH_excgange\data/350102_REPSWITCH1_version1_list2_2023-12-12_15h10.50.951_micRespv1l2_recorded\recording_micRespv1l2_2023-12-12_15h11.49.278.wav;65.33254060009494;65.83251069998369;None;65.33254060009494;65.33254060009494;65.33254060009494;65.33254060009494;65.33254060009494;65.33254060009494;[0.9990519997663796, 1.1982505000196397, 1.305936699733138, 1.4175457996316254, 1.5610724999569356, 1.6687082997523248, 1.855050599668175];;;;;;350102;001;2023-12-12_15h10.50.951;REPSWITCH1_version1_list2;2022.2.4;143.86150175267852;
REPSWITCH1/PICTURE_687.png;camisa;type;darkblue;filler;1;F;1;3;2;1;Stim5_Set4;0;None;12;11;12;0;11;11;11;;;;;;;;;;;;;;;;;;;;;;;65.83251069998369;66.86744449986145;66.86744449986145;66.86744449986145;66.86744449986145;66.86744449986145;66.86744449986145;66.86744449986145;66.86744449986145;['c', 'a', 'm', 'i', 's', 'a'];0;camisa;C:\2023\REPSWITCH21092023\REPSWITCH_excgange\REPSWITCH_excgange\data/350102_REPSWITCH1_version1_list2_2023-12-12_15h10.50.951_micRespv1l2_recorded\recording_micRespv1l2_2023-12-12_15h11.53.835.wav;69.89556000009179;;None;69.89556000009179;69.89556000009179;69.89556000009179;69.89556000009179;69.89556000009179;69.89556000009179;[1.5086721000261605, 1.6282390002161264, 1.8966469001024961, 2.069073900114745, 2.1378994998522103, 2.3331885002553463];;;;;;350102;001;2023-12-12_15h10.50.951;REPSWITCH1_version1_list2;2022.2.4;143.86150175267852;
REPSWITCH1/PICTURE_178.png;puente;type;darkblue;nontarget;1;NT;1;3;2;1;Stim1_Set1;1;repeat;13;12;13;0;12;12;12;;;;;;;;;;;;;;;;;;;;;;;70.39560850011185;71.52775090001523;71.52775090001523;71.52775090001523;71.52775090001523;71.52775090001523;71.52775090001523;71.52775090001523;71.52775090001523;['p', 'u', 'e', 'n', 't', 'e'];0;puente;C:\2023\REPSWITCH21092023\REPSWITCH_excgange\REPSWITCH_excgange\data/350102_REPSWITCH1_version1_list2_2023-12-12_15h10.50.951_micRespv1l2_recorded\recording_micRespv1l2_2023-12-12_15h11.58.495.wav;74.55591299990192;;None;74.55591299990192;74.55591299990192;74.55591299990192;74.55591299990192;74.55591299990192;74.55591299990192;[1.4284028001129627, 1.8284252998419106, 1.932078099809587, 2.062722499947995, 2.194576600100845, 2.413154900074005];;;;;;350102;001;2023-12-12_15h10.50.951;REPSWITCH1_version1_list2;2022.2.4;143.86150175267852;
REPSWITCH1/PICTURE_178.png;puente;speak;gold;switch;2;T;1;3;2;1;Stim1_Set1;0;None;14;13;14;0;13;13;13;;;;;;;;;;;;;;;;;;;;;;;75.05597880017012;76.0699892998673;76.0699892998673;76.0699892998673;76.0699892998673;76.0699892998673;76.0699892998673;76.0699892998673;76.0699892998673;None;0;;C:\2023\REPSWITCH21092023\REPSWITCH_excgange\REPSWITCH_excgange\data/350102_REPSWITCH1_version1_list2_2023-12-12_15h10.50.951_micRespv1l2_recorded\recording_micRespv1l2_2023-12-12_15h12.03.037.wav;79.09129020012915;79.59136949991807;None;79.09129020012915;79.09129020012915;79.09129020012915;79.09129020012915;79.09129020012915;79.09129020012915;;;;;;;350102;001;2023-12-12_15h10.50.951;REPSWITCH1_version1_list2;2022.2.4;143.86150175267852;
REPSWITCH1/PICTURE_128.png;muñeca;speak;gold;nontarget;2;NT;1;3;2;1;Stim4_Set1;1;repeat;15;14;15;0;14;14;14;;;;;;;;;;;;;;;;;;;;;;;79.59136949991807;80.60538779990748;80.60538779990748;80.60538779990748;80.60538779990748;80.60538779990748;80.60538779990748;80.60538779990748;80.60538779990748;None;0;;C:\2023\REPSWITCH21092023\REPSWITCH_excgange\REPSWITCH_excgange\data/350102_REPSWITCH1_version1_list2_2023-12-12_15h10.50.951_micRespv1l2_recorded\recording_micRespv1l2_2023-12-12_15h12.07.572.wav;83.62651460012421;84.12664239993319;None;83.62651460012421;83.62651460012421;83.62651460012421;83.62651460012421;83.62651460012421;83.62651460012421;;;;;;;350102;001;2023-12-12_15h10.50.951;REPSWITCH1_version1_list2;2022.2.4;143.86150175267852;
REPSWITCH1/PICTURE_128.png;muñeca;type;darkblue;switch;1;T;1;3;2;1;Stim4_Set1;0;None;16;15;16;0;15;15;15;;;;;;;;;;;;;;;;;;;;;;;84.12664239993319;85.18229359993711;85.18229359993711;85.18229359993711;85.18229359993711;85.18229359993711;85.18229359993711;85.18229359993711;85.18229359993711;['m', 'u', 'ñ', 'e', 'c', 'a'];0;muñeca;C:\2023\REPSWITCH21092023\REPSWITCH_excgange\REPSWITCH_excgange\data/350102_REPSWITCH1_version1_list2_2023-12-12_15h10.50.951_micRespv1l2_recorded\recording_micRespv1l2_2023-12-12_15h12.12.149.wav;88.2035113000311;88.70357570005581;None;88.2035113000311;88.2035113000311;88.2035113000311;88.2035113000311;88.2035113000311;88.2035113000311;[0.9920427999459207, 1.1976411999203265, 1.578821400180459, 1.68146779993549, 1.9525707000866532, 2.0252847000956535];;;;;;350102;001;2023-12-12_15h10.50.951;REPSWITCH1_version1_list2;2022.2.4;143.86150175267852;
REPSWITCH1/PICTURE_319.png;vaca;speak;gold;filler;2;F;1;3;2;1;Stim1_Set4;1;switch;17;16;17;0;16;16;16;;;;;;;;;;;;;;;;;;;;;;;88.70357570005581;89.75237540015951;89.75237540015951;89.75237540015951;89.75237540015951;89.75237540015951;89.75237540015951;89.75237540015951;89.75237540015951;None;0;;C:\2023\REPSWITCH21092023\REPSWITCH_excgange\REPSWITCH_excgange\data/350102_REPSWITCH1_version1_list2_2023-12-12_15h10.50.951_micRespv1l2_recorded\recording_micRespv1l2_2023-12-12_15h12.16.719.wav;92.7735486002639;93.27360740024596;None;92.7735486002639;92.7735486002639;92.7735486002639;92.7735486002639;92.7735486002639;92.7735486002639;;;;;;;350102;001;2023-12-12_15h10.50.951;REPSWITCH1_version1_list2;2022.2.4;143.86150175267852;
REPSWITCH1/PICTURE_728.png;pulpo;speak;gold;filler;2;F;1;3;2;1;Stim8_Set4;0;None;18;17;18;0;17;17;17;;;;;;;;;;;;;;;;;;;;;;;93.27360740024596;94.46826120000333;94.46826120000333;94.46826120000333;94.46826120000333;94.46826120000333;94.46826120000333;94.46826120000333;94.46826120000333;None;0;;C:\2023\REPSWITCH21092023\REPSWITCH_excgange\REPSWITCH_excgange\data/350102_REPSWITCH1_version1_list2_2023-12-12_15h10.50.951_micRespv1l2_recorded\recording_micRespv1l2_2023-12-12_15h12.21.436.wav;97.48943790001795;97.98952399985865;None;97.48943790001795;97.48943790001795;97.48943790001795;97.48943790001795;97.48943790001795;97.48943790001795;;;;;;;350102;001;2023-12-12_15h10.50.951;REPSWITCH1_version1_list2;2022.2.4;143.86150175267852;
REPSWITCH1/PICTURE_381.png;fresa;type;darkblue;nontarget;1;NT;1;3;2;1;Stim2_Set1;1;switch;19;18;19;0;18;18;18;;;;;;;;;;;;;;;;;;;;;;;97.98952399985865;99.13550799991935;99.13550799991935;99.13550799991935;99.13550799991935;99.13550799991935;99.13550799991935;99.13550799991935;99.13550799991935;['f', 'r', 'e', 's', 'a'];0;fresa;C:\2023\REPSWITCH21092023\REPSWITCH_excgange\REPSWITCH_excgange\data/350102_REPSWITCH1_version1_list2_2023-12-12_15h10.50.951_micRespv1l2_recorded\recording_micRespv1l2_2023-12-12_15h12.26.103.wav;102.15672930004075;102.65681910002604;None;102.15672930004075;102.15672930004075;102.15672930004075;102.15672930004075;102.15672930004075;102.15672930004075;[1.63702919986099, 1.8134201001375914, 1.9968032999895513, 2.1814938001334667, 2.3768477998673916];;;;;;350102;001;2023-12-12_15h10.50.951;REPSWITCH1_version1_list2;2022.2.4;143.86150175267852;
REPSWITCH1/PICTURE_381.png;fresa;type;darkblue;repeat;1;T;1;3;2;1;Stim2_Set1;0;None;20;19;20;0;19;19;19;;;;;;;;;;;;;;;;;;;;;;;102.65681910002604;103.73340929998085;103.73340929998085;103.73340929998085;103.73340929998085;103.73340929998085;103.73340929998085;103.73340929998085;103.73340929998085;['f', 'r', 'e', 's', 'a'];0;fresa;C:\2023\REPSWITCH21092023\REPSWITCH_excgange\REPSWITCH_excgange\data/350102_REPSWITCH1_version1_list2_2023-12-12_15h10.50.951_micRespv1l2_recorded\recording_micRespv1l2_2023-12-12_15h12.30.701.wav;106.761515900027;;None;106.761515900027;106.761515900027;106.761515900027;106.761515900027;106.761515900027;106.761515900027;[1.138970599975437, 1.337658400181681, 1.88419030001387, 2.083460799884051, 2.269824500195682];;;;;;350102;001;2023-12-12_15h10.50.951;REPSWITCH1_version1_list2;2022.2.4;143.86150175267852;
REPSWITCH1/PICTURE_8.png;pierna;speak;gold;filler;2;F;1;3;2;1;Stim3_Set4;0;None;21;20;21;0;20;20;20;;;;;;;;;;;;;;;;;;;;;;;107.26156440004706;108.3034604000859;108.3034604000859;108.3034604000859;108.3034604000859;108.3034604000859;108.3034604000859;108.3034604000859;108.3034604000859;None;0;;C:\2023\REPSWITCH21092023\REPSWITCH_excgange\REPSWITCH_excgange\data/350102_REPSWITCH1_version1_list2_2023-12-12_15h10.50.951_micRespv1l2_recorded\recording_micRespv1l2_2023-12-12_15h12.35.271.wav;111.33154310006648;;None;111.33154310006648;111.33154310006648;111.33154310006648;111.33154310006648;111.33154310006648;111.33154310006648;;;;;;;350102;001;2023-12-12_15h10.50.951;REPSWITCH1_version1_list2;2022.2.4;143.86150175267852;
REPSWITCH1/PICTURE_48.png;bombero;speak;gold;filler;2;F;1;3;2;1;Stim7_Set4;0;None;22;21;22;0;21;21;21;;;;;;;;;;;;;;;;;;;;;;;111.83160760020837;112.85953080002218;112.85953080002218;112.85953080002218;112.85953080002218;112.85953080002218;112.85953080002218;112.85953080002218;112.85953080002218;None;0;;C:\2023\REPSWITCH21092023\REPSWITCH_excgange\REPSWITCH_excgange\data/350102_REPSWITCH1_version1_list2_2023-12-12_15h10.50.951_micRespv1l2_recorded\recording_micRespv1l2_2023-12-12_15h12.39.827.wav;115.88077470008284;116.38091249996796;None;115.88077470008284;115.88077470008284;115.88077470008284;115.88077470008284;115.88077470008284;115.88077470008284;;;;;;;350102;001;2023-12-12_15h10.50.951;REPSWITCH1_version1_list2;2022.2.4;143.86150175267852;
REPSWITCH1/PICTURE_135.png;traje;type;darkblue;nontarget;1;NT;1;3;2;1;Stim3_Set1;1;switch;23;22;23;0;22;22;22;;;;;;;;;;;;;;;;;;;;;;;116.38091249996796;117.48513389984146;117.48513389984146;117.48513389984146;117.48513389984146;117.48513389984146;117.48513389984146;117.48513389984146;117.48513389984146;['t', 'r', 'a', 'j', 'e'];0;traje;C:\2023\REPSWITCH21092023\REPSWITCH_excgange\REPSWITCH_excgange\data/350102_REPSWITCH1_version1_list2_2023-12-12_15h10.50.951_micRespv1l2_recorded\recording_micRespv1l2_2023-12-12_15h12.44.452.wav;120.50639209989458;121.00643080007285;None;120.50639209989458;120.50639209989458;120.50639209989458;120.50639209989458;120.50639209989458;120.50639209989458;[1.2982394001446664, 1.4576965998858213, 1.5958770997822285, 2.0148049001581967, 2.0582840000279248];;;;;;350102;001;2023-12-12_15h10.50.951;REPSWITCH1_version1_list2;2022.2.4;143.86150175267852;
REPSWITCH1/PICTURE_135.png;traje;type;darkblue;repeat;1;T;1;3;2;1;Stim3_Set1;0;None;24;23;24;0;23;23;23;;;;;;;;;;;;;;;;;;;;;;;121.00643080007285;122.09684950020164;122.09684950020164;122.09684950020164;122.09684950020164;122.09684950020164;122.09684950020164;122.09684950020164;122.09684950020164;['t', 'r', 'a', 'j', 'e'];0;traje;C:\2023\REPSWITCH21092023\REPSWITCH_excgange\REPSWITCH_excgange\data/350102_REPSWITCH1_version1_list2_2023-12-12_15h10.50.951_micRespv1l2_recorded\recording_micRespv1l2_2023-12-12_15h12.49.064.wav;125.11805889988318;125.6181625998579;None;125.11805889988318;125.11805889988318;125.11805889988318;125.11805889988318;125.11805889988318;125.11805889988318;[1.096775900106877, 1.2463726000860333, 1.3609138000756502, 1.7476050001569092, 1.780489600263536];;;;;;350102;001;2023-12-12_15h10.50.951;REPSWITCH1_version1_list2;2022.2.4;143.86150175267852;
REPSWITCH1/PICTURE_19.png;pavo;type;darkblue;nontarget;1;NT;1;3;2;1;Stim5_Set1;1;repeat;25;24;25;0;24;24;24;;;;;;;;;;;;;;;;;;;;;;;125.6181625998579;126.66000210028142;126.66000210028142;126.66000210028142;126.66000210028142;126.66000210028142;126.66000210028142;126.66000210028142;126.66000210028142;['p', 'a', 'v', 'o'];0;pavo;C:\2023\REPSWITCH21092023\REPSWITCH_excgange\REPSWITCH_excgange\data/350102_REPSWITCH1_version1_list2_2023-12-12_15h10.50.951_micRespv1l2_recorded\recording_micRespv1l2_2023-12-12_15h12.53.628.wav;129.68821220006794;;None;129.68821220006794;129.68821220006794;129.68821220006794;129.68821220006794;129.68821220006794;129.68821220006794;[1.2665125001221895, 1.3742023999802768, 1.6395479999482632, 1.7766414997167885];;;;;;350102;001;2023-12-12_15h10.50.951;REPSWITCH1_version1_list2;2022.2.4;143.86150175267852;
REPSWITCH1/PICTURE_19.png;pavo;speak;gold;switch;2;T;1;3;2;1;Stim5_Set1;0;None;26;25;26;0;25;25;25;;;;;;;;;;;;;;;;;;;;;;;130.18821190018207;131.285581599921;131.285581599921;131.285581599921;131.285581599921;131.285581599921;131.285581599921;131.285581599921;131.285581599921;None;0;;C:\2023\REPSWITCH21092023\REPSWITCH_excgange\REPSWITCH_excgange\data/350102_REPSWITCH1_version1_list2_2023-12-12_15h10.50.951_micRespv1l2_recorded\recording_micRespv1l2_2023-12-12_15h12.58.253.wav;134.31374240014702;;None;134.31374240014702;134.31374240014702;134.31374240014702;134.31374240014702;134.31374240014702;134.31374240014702;;;;;;;350102;001;2023-12-12_15h10.50.951;REPSWITCH1_version1_list2;2022.2.4;143.86150175267852;
REPSWITCH1/PICTURE_142.png;vaso;speak;gold;filler;2;F;2;3;2;1;Stim7_Set1;0;None;27;26;27;0;26;26;26;;;;;;;;;;;;;;;;;;;;;;;134.8138071000576;135.89734710007906;135.89734710007906;135.89734710007906;135.89734710007906;135.89734710007906;135.89734710007906;135.89734710007906;135.89734710007906;None;0;;C:\2023\REPSWITCH21092023\REPSWITCH_excgange\REPSWITCH_excgange\data/350102_REPSWITCH1_version1_list2_2023-12-12_15h10.50.951_micRespv1l2_recorded\recording_micRespv1l2_2023-12-12_15h13.02.864.wav;138.918490299955;139.41855619987473;None;138.918490299955;138.918490299955;138.918490299955;138.918490299955;138.918490299955;138.918490299955;;;;;;;350102;001;2023-12-12_15h10.50.951;REPSWITCH1_version1_list2;2022.2.4;143.86150175267852;
REPSWITCH1/PICTURE_135.png;traje;type;darkblue;filler;1;F;2;3;2;1;Stim3_Set1;0;None;28;27;28;0;27;27;27;;;;;;;;;;;;;;;;;;;;;;;139.41855619987473;140.55761040002108;140.55761040002108;140.55761040002108;140.55761040002108;140.55761040002108;140.55761040002108;140.55761040002108;140.55761040002108;['t', 'r', 'a', 'j', 'e'];0;traje;C:\2023\REPSWITCH21092023\REPSWITCH_excgange\REPSWITCH_excgange\data/350102_REPSWITCH1_version1_list2_2023-12-12_15h10.50.951_micRespv1l2_recorded\recording_micRespv1l2_2023-12-12_15h13.07.524.wav;143.57890760013834;144.0788974002935;None;143.57890760013834;143.57890760013834;143.57890760013834;143.57890760013834;143.57890760013834;143.57890760013834;[1.198605400044471, 1.3540814998559654, 1.4613298000767827, 1.8588197999633849, 1.9076907997950912];;;;;;350102;001;2023-12-12_15h10.50.951;REPSWITCH1_version1_list2;2022.2.4;143.86150175267852;
REPSWITCH1/PICTURE_446.png;cerdo;type;darkblue;nontarget;1;NT;2;3;2;1;Stim7_Set2;0;None;29;28;29;0;28;28;28;;;;;;;;;;;;;;;;;;;;;;;144.0788974002935;145.09993220027536;145.09993220027536;145.09993220027536;145.09993220027536;145.09993220027536;145.09993220027536;145.09993220027536;145.09993220027536;['c', 'e', 'r', 'd', 'o'];0;cerdo;C:\2023\REPSWITCH21092023\REPSWITCH_excgange\REPSWITCH_excgange\data/350102_REPSWITCH1_version1_list2_2023-12-12_15h10.50.951_micRespv1l2_recorded\recording_micRespv1l2_2023-12-12_15h13.12.067.wav;148.128122900147;;None;148.128122900147;148.128122900147;148.128122900147;148.128122900147;148.128122900147;148.128122900147;[1.091082299593836, 1.204802299849689, 1.4004115997813642, 1.584699499886483, 1.6623908998444676];;;;;;350102;001;2023-12-12_15h10.50.951;REPSWITCH1_version1_list2;2022.2.4;143.86150175267852;
REPSWITCH1/PICTURE_446.png;cerdo;type;darkblue;repeat;1;T;2;3;2;1;Stim7_Set2;0;None;30;29;30;0;29;29;29;;;;;;;;;;;;;;;;;;;;;;;148.62811070028692;149.78105519991368;149.78105519991368;149.78105519991368;149.78105519991368;149.78105519991368;149.78105519991368;149.78105519991368;149.78105519991368;['c', 'e', 'r', 'd', 'o'];0;cerdo;C:\2023\REPSWITCH21092023\REPSWITCH_excgange\REPSWITCH_excgange\data/350102_REPSWITCH1_version1_list2_2023-12-12_15h10.50.951_micRespv1l2_recorded\recording_micRespv1l2_2023-12-12_15h13.16.748.wav;152.80928310006857;;None;152.80928310006857;152.80928310006857;152.80928310006857;152.80928310006857;152.80928310006857;152.80928310006857;[1.0078890998847783, 1.326048499904573, 1.4955124999396503, 1.665962700266391, 1.770720100030303];;;;;;350102;001;2023-12-12_15h10.50.951;REPSWITCH1_version1_list2;2022.2.4;143.86150175267852;
REPSWITCH1/PICTURE_16.png;cazador;speak;gold;filler;2;F;2;3;2;1;Stim6_Set1;0;None;31;30;31;0;30;30;30;;;;;;;;;;;;;;;;;;;;;;;153.30929369991645;154.33727120002732;154.33727120002732;154.33727120002732;154.33727120002732;154.33727120002732;154.33727120002732;154.33727120002732;154.33727120002732;None;0;;C:\2023\REPSWITCH21092023\REPSWITCH_excgange\REPSWITCH_excgange\data/350102_REPSWITCH1_version1_list2_2023-12-12_15h10.50.951_micRespv1l2_recorded\recording_micRespv1l2_2023-12-12_15h13.21.304.wav;157.3653710000217;;None;157.3653710000217;157.3653710000217;157.3653710000217;157.3653710000217;157.3653710000217;157.3653710000217;;;;;;;350102;001;2023-12-12_15h10.50.951;REPSWITCH1_version1_list2;2022.2.4;143.86150175267852;
REPSWITCH1/PICTURE_552.png;manzana;type;darkblue;nontarget;1;NT;2;3;2;1;Stim6_Set2;1;switch;32;31;32;0;31;31;31;;;;;;;;;;;;;;;;;;;;;;;157.86542790010571;158.9558920999989;158.9558920999989;158.9558920999989;158.9558920999989;158.9558920999989;158.9558920999989;158.9558920999989;158.9558920999989;['m', 'a', 'n', 'z', 'a', 'n', 'a'];0;manzana;C:\2023\REPSWITCH21092023\REPSWITCH_excgange\REPSWITCH_excgange\data/350102_REPSWITCH1_version1_list2_2023-12-12_15h10.50.951_micRespv1l2_recorded\recording_micRespv1l2_2023-12-12_15h13.25.924.wav;161.98403679998592;;None;161.98403679998592;161.98403679998592;161.98403679998592;161.98403679998592;161.98403679998592;161.98403679998592;[1.2684603999368846, 1.9261239999905229, 2.144330400042236, 2.22417449997738, 2.4142344002611935, 2.524380899965763, 2.5821274002082646];;;;;;350102;001;2023-12-12_15h10.50.951;REPSWITCH1_version1_list2;2022.2.4;143.86150175267852;
REPSWITCH1/PICTURE_552.png;manzana;type;darkblue;repeat;1;T;2;3;2;1;Stim6_Set2;0;None;33;32;33;0;32;32;32;;;;;;;;;;;;;;;;;;;;;;;162.48410200001672;163.63010790012777;163.63010790012777;163.63010790012777;163.63010790012777;163.63010790012777;163.63010790012777;163.63010790012777;163.63010790012777;['m', 'a', 'n', 'z', 'a', 'n', 'a'];0;manzana;C:\2023\REPSWITCH21092023\REPSWITCH_excgange\REPSWITCH_excgange\data/350102_REPSWITCH1_version1_list2_2023-12-12_15h10.50.951_micRespv1l2_recorded\recording_micRespv1l2_2023-12-12_15h13.30.598.wav;166.6582710002549;;None;166.6582710002549;166.6582710002549;166.6582710002549;166.6582710002549;166.6582710002549;166.6582710002549;[0.8082324997521937, 0.9058863995596766, 1.015481099486351, 1.18813919974491, 1.3725734995678067, 1.4981431998312473, 1.5453345994465053];;;;;;350102;001;2023-12-12_15h10.50.951;REPSWITCH1_version1_list2;2022.2.4;143.86150175267852;
REPSWITCH1/PICTURE_517.png;cuerda;type;darkblue;nontarget;1;NT;2;3;2;1;Stim4_Set2;0;None;34;33;34;0;33;33;33;;;;;;;;;;;;;;;;;;;;;;;167.1583157000132;168.24178220005706;168.24178220005706;168.24178220005706;168.24178220005706;168.24178220005706;168.24178220005706;168.24178220005706;168.24178220005706;['c', 'u', 'e', 'r', 'd', 'a'];0;cuerda;C:\2023\REPSWITCH21092023\REPSWITCH_excgange\REPSWITCH_excgange\data/350102_REPSWITCH1_version1_list2_2023-12-12_15h10.50.951_micRespv1l2_recorded\recording_micRespv1l2_2023-12-12_15h13.35.209.wav;171.2630797000602;171.7630952000618;None;171.2630797000602;171.2630797000602;171.2630797000602;171.2630797000602;171.2630797000602;171.2630797000602;[1.0593750001862645, 1.2041755001991987, 1.30998450005427, 1.5053131999447942, 1.6797024998813868, 1.8789888001047075];;;;;;350102;001;2023-12-12_15h10.50.951;REPSWITCH1_version1_list2;2022.2.4;143.86150175267852;
REPSWITCH1/PICTURE_517.png;cuerda;speak;gold;switch;2;T;2;3;2;1;Stim4_Set2;0;None;35;34;35;0;34;34;34;;;;;;;;;;;;;;;;;;;;;;;171.7630952000618;172.8326737000607;172.8326737000607;172.8326737000607;172.8326737000607;172.8326737000607;172.8326737000607;172.8326737000607;172.8326737000607;None;0;;C:\2023\REPSWITCH21092023\REPSWITCH_excgange\REPSWITCH_excgange\data/350102_REPSWITCH1_version1_list2_2023-12-12_15h10.50.951_micRespv1l2_recorded\recording_micRespv1l2_2023-12-12_15h13.39.799.wav;175.8539001001045;176.35404800018296;None;175.8539001001045;175.8539001001045;175.8539001001045;175.8539001001045;175.8539001001045;175.8539001001045;;;;;;;350102;001;2023-12-12_15h10.50.951;REPSWITCH1_version1_list2;2022.2.4;143.86150175267852;
REPSWITCH1/PICTURE_169.png;espalda;speak;gold;filler;2;F;2;3;2;1;Stim8_Set1;1;repeat;36;35;36;0;35;35;35;;;;;;;;;;;;;;;;;;;;;;;176.35404800018296;177.45139890024439;177.45139890024439;177.45139890024439;177.45139890024439;177.45139890024439;177.45139890024439;177.45139890024439;177.45139890024439;None;0;;C:\2023\REPSWITCH21092023\REPSWITCH_excgange\REPSWITCH_excgange\data/350102_REPSWITCH1_version1_list2_2023-12-12_15h10.50.951_micRespv1l2_recorded\recording_micRespv1l2_2023-12-12_15h13.44.418.wav;180.47261899989098;180.97260039998218;None;180.47261899989098;180.47261899989098;180.47261899989098;180.47261899989098;180.47261899989098;180.47261899989098;;;;;;;350102;001;2023-12-12_15h10.50.951;REPSWITCH1_version1_list2;2022.2.4;143.86150175267852;
REPSWITCH1/PICTURE_30.png;granja;speak;gold;nontarget;2;NT;2;3;2;1;Stim5_Set2;1;repeat;37;36;37;0;36;36;36;;;;;;;;;;;;;;;;;;;;;;;180.97260039998218;182.03528749989346;182.03528749989346;182.03528749989346;182.03528749989346;182.03528749989346;182.03528749989346;182.03528749989346;182.03528749989346;None;0;;C:\2023\REPSWITCH21092023\REPSWITCH_excgange\REPSWITCH_excgange\data/350102_REPSWITCH1_version1_list2_2023-12-12_15h10.50.951_micRespv1l2_recorded\recording_micRespv1l2_2023-12-12_15h13.49.003.wav;185.06344969989732;185.56349010020494;None;185.06344969989732;185.06344969989732;185.06344969989732;185.06344969989732;185.06344969989732;185.06344969989732;;;;;;;350102;001;2023-12-12_15h10.50.951;REPSWITCH1_version1_list2;2022.2.4;143.86150175267852;
REPSWITCH1/PICTURE_30.png;granja;type;darkblue;switch;1;T;2;3;2;1;Stim5_Set2;0;None;38;37;38;0;37;37;37;;;;;;;;;;;;;;;;;;;;;;;185.56349010020494;186.76504820026457;186.76504820026457;186.76504820026457;186.76504820026457;186.76504820026457;186.76504820026457;186.76504820026457;186.76504820026457;['g', 'r', 'a', 'n', 'j', 'a'];0;granja;C:\2023\REPSWITCH21092023\REPSWITCH_excgange\REPSWITCH_excgange\data/350102_REPSWITCH1_version1_list2_2023-12-12_15h10.50.951_micRespv1l2_recorded\recording_micRespv1l2_2023-12-12_15h13.53.732.wav;189.78625650005415;190.2863584998995;None;189.78625650005415;189.78625650005415;189.78625650005415;189.78625650005415;189.78625650005415;189.78625650005415;[1.5650190995074809, 1.7486285995692015, 1.8602833994664252, 2.2838681996800005, 2.3755240999162197, 2.4931536996737123];;;;;;350102;001;2023-12-12_15h10.50.951;REPSWITCH1_version1_list2;2022.2.4;143.86150175267852;
REPSWITCH1/PICTURE_128.png;muñeca;type;darkblue;filler;1;F;2;3;2;1;Stim4_Set1;1;repeat;39;38;39;0;38;38;38;;;;;;;;;;;;;;;;;;;;;;;190.2863584998995;191.37678520008922;191.37678520008922;191.37678520008922;191.37678520008922;191.37678520008922;191.37678520008922;191.37678520008922;191.37678520008922;['m', 'u', 'ñ', 'e', 'c', 'a'];0;muñeca;C:\2023\REPSWITCH21092023\REPSWITCH_excgange\REPSWITCH_excgange\data/350102_REPSWITCH1_version1_list2_2023-12-12_15h10.50.951_micRespv1l2_recorded\recording_micRespv1l2_2023-12-12_15h13.58.344.wav;194.39797350019217;194.89807810029015;None;194.39797350019217;194.39797350019217;194.39797350019217;194.39797350019217;194.39797350019217;194.39797350019217;[1.0305031002499163, 1.4271940002217889, 2.00137609988451, 2.1020106999203563, 2.424347400199622, 2.491143099963665];;;;;;350102;001;2023-12-12_15h10.50.951;REPSWITCH1_version1_list2;2022.2.4;143.86150175267852;
REPSWITCH1/PICTURE_199.png;falda;type;darkblue;nontarget;1;NT;2;3;2;1;Stim8_Set2;0;None;40;39;40;0;39;39;39;;;;;;;;;;;;;;;;;;;;;;;194.89807810029015;196.01626820024103;196.01626820024103;196.01626820024103;196.01626820024103;196.01626820024103;196.01626820024103;196.01626820024103;196.01626820024103;['f', 'a', 'l', 'd', 'a'];0;falda;C:\2023\REPSWITCH21092023\REPSWITCH_excgange\REPSWITCH_excgange\data/350102_REPSWITCH1_version1_list2_2023-12-12_15h10.50.951_micRespv1l2_recorded\recording_micRespv1l2_2023-12-12_15h14.02.984.wav;199.0444304998964;;None;199.0444304998964;199.0444304998964;199.0444304998964;199.0444304998964;199.0444304998964;199.0444304998964;[1.4111438998952508, 1.651302699930966, 1.761549700051546, 1.9045436000451446, 2.0784469000063837];;;;;;350102;001;2023-12-12_15h10.50.951;REPSWITCH1_version1_list2;2022.2.4;143.86150175267852;
REPSWITCH1/PICTURE_199.png;falda;speak;gold;switch;2;T;2;3;2;1;Stim8_Set2;0;None;41;40;41;0;40;40;40;;;;;;;;;;;;;;;;;;;;;;;199.54447739990428;200.6349603999406;200.6349603999406;200.6349603999406;200.6349603999406;200.6349603999406;200.6349603999406;200.6349603999406;200.6349603999406;None;0;;C:\2023\REPSWITCH21092023\REPSWITCH_excgange\REPSWITCH_excgange\data/350102_REPSWITCH1_version1_list2_2023-12-12_15h10.50.951_micRespv1l2_recorded\recording_micRespv1l2_2023-12-12_15h14.07.603.wav;203.6631395998411;;None;203.6631395998411;203.6631395998411;203.6631395998411;203.6631395998411;203.6631395998411;203.6631395998411;;;;;;;350102;001;2023-12-12_15h10.50.951;REPSWITCH1_version1_list2;2022.2.4;143.86150175267852;
REPSWITCH1/PICTURE_152.png;caracol;speak;gold;nontarget;2;NT;2;3;2;1;Stim2_Set2;1;switch;42;41;42;0;41;41;41;;;;;;;;;;;;;;;;;;;;;;;204.16321909986436;205.33693830017;205.33693830017;205.33693830017;205.33693830017;205.33693830017;205.33693830017;205.33693830017;205.33693830017;None;0;;C:\2023\REPSWITCH21092023\REPSWITCH_excgange\REPSWITCH_excgange\data/350102_REPSWITCH1_version1_list2_2023-12-12_15h10.50.951_micRespv1l2_recorded\recording_micRespv1l2_2023-12-12_15h14.12.304.wav;208.358160499949;208.85824060020968;None;208.358160499949;208.358160499949;208.358160499949;208.358160499949;208.358160499949;208.358160499949;;;;;;;350102;001;2023-12-12_15h10.50.951;REPSWITCH1_version1_list2;2022.2.4;143.86150175267852;
REPSWITCH1/PICTURE_152.png;caracol;speak;gold;repeat;2;T;2;3;2;1;Stim2_Set2;0;None;43;42;43;0;42;42;42;;;;;;;;;;;;;;;;;;;;;;;208.85824060020968;209.94868549983948;209.94868549983948;209.94868549983948;209.94868549983948;209.94868549983948;209.94868549983948;209.94868549983948;209.94868549983948;None;0;;C:\2023\REPSWITCH21092023\REPSWITCH_excgange\REPSWITCH_excgange\data/350102_REPSWITCH1_version1_list2_2023-12-12_15h10.50.951_micRespv1l2_recorded\recording_micRespv1l2_2023-12-12_15h14.16.915.wav;212.9698918000795;213.4699504999444;None;212.9698918000795;212.9698918000795;212.9698918000795;212.9698918000795;212.9698918000795;212.9698918000795;;;;;;;350102;001;2023-12-12_15h10.50.951;REPSWITCH1_version1_list2;2022.2.4;143.86150175267852;
REPSWITCH1/PICTURE_381.png;fresa;type;darkblue;filler;1;F;2;3;2;1;Stim2_Set1;0;None;44;43;44;0;43;43;43;;;;;;;;;;;;;;;;;;;;;;;213.4699504999444;214.56738230027258;214.56738230027258;214.56738230027258;214.56738230027258;214.56738230027258;214.56738230027258;214.56738230027258;214.56738230027258;['f', 'r', 'e', 's', 'a'];0;fresa;C:\2023\REPSWITCH21092023\REPSWITCH_excgange\REPSWITCH_excgange\data/350102_REPSWITCH1_version1_list2_2023-12-12_15h10.50.951_micRespv1l2_recorded\recording_micRespv1l2_2023-12-12_15h14.21.535.wav;217.5954812001437;;None;217.5954812001437;217.5954812001437;217.5954812001437;217.5954812001437;217.5954812001437;217.5954812001437;[1.1205182000994682, 1.2978465999476612, 1.456330900080502, 1.5749214999377728, 1.7513707000762224];;;;;;350102;001;2023-12-12_15h10.50.951;REPSWITCH1_version1_list2;2022.2.4;143.86150175267852;
REPSWITCH1/PICTURE_175.png;pintor;speak;gold;nontarget;2;NT;2;3;2;1;Stim1_Set2;1;switch;45;44;45;0;44;44;44;;;;;;;;;;;;;;;;;;;;;;;218.0955205000937;219.2068580999039;219.2068580999039;219.2068580999039;219.2068580999039;219.2068580999039;219.2068580999039;219.2068580999039;219.2068580999039;None;0;;C:\2023\REPSWITCH21092023\REPSWITCH_excgange\REPSWITCH_excgange\data/350102_REPSWITCH1_version1_list2_2023-12-12_15h10.50.951_micRespv1l2_recorded\recording_micRespv1l2_2023-12-12_15h14.26.173.wav;222.22805549995974;222.72815239988267;None;222.22805549995974;222.22805549995974;222.22805549995974;222.22805549995974;222.22805549995974;222.22805549995974;;;;;;;350102;001;2023-12-12_15h10.50.951;REPSWITCH1_version1_list2;2022.2.4;143.86150175267852;
REPSWITCH1/PICTURE_175.png;pintor;speak;gold;repeat;2;T;2;3;2;1;Stim1_Set2;0;None;46;45;46;0;45;45;45;;;;;;;;;;;;;;;;;;;;;;;222.72815239988267;223.75600440008566;223.75600440008566;223.75600440008566;223.75600440008566;223.75600440008566;223.75600440008566;223.75600440008566;223.75600440008566;None;0;;C:\2023\REPSWITCH21092023\REPSWITCH_excgange\REPSWITCH_excgange\data/350102_REPSWITCH1_version1_list2_2023-12-12_15h10.50.951_micRespv1l2_recorded\recording_micRespv1l2_2023-12-12_15h14.30.723.wav;226.7772328001447;227.27730379998684;None;226.7772328001447;226.7772328001447;226.7772328001447;226.7772328001447;226.7772328001447;226.7772328001447;;;;;;;350102;001;2023-12-12_15h10.50.951;REPSWITCH1_version1_list2;2022.2.4;143.86150175267852;
REPSWITCH1/PICTURE_178.png;puente;type;darkblue;filler;1;F;2;3;2;1;Stim1_Set1;0;None;47;46;47;0;46;46;46;;;;;;;;;;;;;;;;;;;;;;;227.27730379998684;228.35387070011348;228.35387070011348;228.35387070011348;228.35387070011348;228.35387070011348;228.35387070011348;228.35387070011348;228.35387070011348;['p', 'u', 'e', 'n', 't', 'e'];0;puente;C:\2023\REPSWITCH21092023\REPSWITCH_excgange\REPSWITCH_excgange\data/350102_REPSWITCH1_version1_list2_2023-12-12_15h10.50.951_micRespv1l2_recorded\recording_micRespv1l2_2023-12-12_15h14.35.321.wav;231.38201430020854;231.88207500008866;None;231.38201430020854;231.38201430020854;231.38201430020854;231.38201430020854;231.38201430020854;231.38201430020854;[1.3887636996805668, 1.6805535997264087, 1.7712617996148765, 1.9247678997926414, 2.0543279997073114, 2.254961199592799];;;;;;350102;001;2023-12-12_15h10.50.951;REPSWITCH1_version1_list2;2022.2.4;143.86150175267852;
REPSWITCH1/PICTURE_19.png;pavo;speak;gold;filler;2;F;2;3;2;1;Stim5_Set1;0;None;48;47;48;0;47;47;47;;;;;;;;;;;;;;;;;;;;;;;231.88207500008866;232.93781260028481;232.93781260028481;232.93781260028481;232.93781260028481;232.93781260028481;232.93781260028481;232.93781260028481;232.93781260028481;None;0;;C:\2023\REPSWITCH21092023\REPSWITCH_excgange\REPSWITCH_excgange\data/350102_REPSWITCH1_version1_list2_2023-12-12_15h10.50.951_micRespv1l2_recorded\recording_micRespv1l2_2023-12-12_15h14.39.905.wav;235.96595379989594;;None;235.96595379989594;235.96595379989594;235.96595379989594;235.96595379989594;235.96595379989594;235.96595379989594;;;;;;;350102;001;2023-12-12_15h10.50.951;REPSWITCH1_version1_list2;2022.2.4;143.86150175267852;
REPSWITCH1/PICTURE_264.png;mano;speak;gold;nontarget;2;NT;2;3;2;1;Stim3_Set2;1;repeat;49;48;49;0;48;48;48;;;;;;;;;;;;;;;;;;;;;;;236.46608179993927;237.55643719993532;237.55643719993532;237.55643719993532;237.55643719993532;237.55643719993532;237.55643719993532;237.55643719993532;237.55643719993532;None;0;;C:\2023\REPSWITCH21092023\REPSWITCH_excgange\REPSWITCH_excgange\data/350102_REPSWITCH1_version1_list2_2023-12-12_15h10.50.951_micRespv1l2_recorded\recording_micRespv1l2_2023-12-12_15h14.44.524.wav;240.57763900002465;241.0777417998761;None;240.57763900002465;240.57763900002465;240.57763900002465;240.57763900002465;240.57763900002465;240.57763900002465;;;;;;;350102;001;2023-12-12_15h10.50.951;REPSWITCH1_version1_list2;2022.2.4;143.86150175267852;
REPSWITCH1/PICTURE_264.png;mano;type;darkblue;switch;1;T;2;3;2;1;Stim3_Set2;0;None;50;49;50;0;49;49;49;;;;;;;;;;;;;;;;;;;;;;;241.0777417998761;242.13349639996886;242.13349639996886;242.13349639996886;242.13349639996886;242.13349639996886;242.13349639996886;242.13349639996886;242.13349639996886;['m', 'a', 'n', 'o'];0;mano;C:\2023\REPSWITCH21092023\REPSWITCH_excgange\REPSWITCH_excgange\data/350102_REPSWITCH1_version1_list2_2023-12-12_15h10.50.951_micRespv1l2_recorded\recording_micRespv1l2_2023-12-12_15h14.49.101.wav;245.16157970018685;;None;245.16157970018685;245.16157970018685;245.16157970018685;245.16157970018685;245.16157970018685;245.16157970018685;[1.1041451999917626, 1.2177575998939574, 1.400209499988705, 1.5234266999177635];;;;;;350102;001;2023-12-12_15h10.50.951;REPSWITCH1_version1_list2;2022.2.4;143.86150175267852;
REPSWITCH1/PICTURE_446.png;cerdo;type;darkblue;filler;1;F;3;3;2;1;Stim7_Set2;0;None;51;50;51;0;50;50;50;;;;;;;;;;;;;;;;;;;;;;;245.66175090009347;246.71047319984064;246.71047319984064;246.71047319984064;246.71047319984064;246.71047319984064;246.71047319984064;246.71047319984064;246.71047319984064;['c', 'e', 'r', 'd', 'o'];0;cerdo;C:\2023\REPSWITCH21092023\REPSWITCH_excgange\REPSWITCH_excgange\data/350102_REPSWITCH1_version1_list2_2023-12-12_15h10.50.951_micRespv1l2_recorded\recording_micRespv1l2_2023-12-12_15h14.53.678.wav;249.7316176998429;250.23171880003065;space;249.7316176998429;249.7316176998429;249.7316176998429;249.7316176998429;249.7316176998429;249.7316176998429;[1.1066450998187065, 1.2172619001939893, 1.3952838000841439, 1.5841308999806643, 1.709006099961698];250.23171880003065;250.23171880003065;2.5517982998862863;;;350102;001;2023-12-12_15h10.50.951;REPSWITCH1_version1_list2;2022.2.4;143.86150175267852;
REPSWITCH1/PICTURE_235.png;aguja;type;darkblue;nontarget;1;NT;3;3;2;1;Stim4_Set3;1;repeat;52;51;52;0;51;51;51;;;;;;;;;;;;;;;;;;;;;;;252.79454859998077;253.9474654002115;253.9474654002115;253.9474654002115;253.9474654002115;253.9474654002115;253.9474654002115;253.9474654002115;253.9474654002115;['a', 'g', 'u', 'j', 'a'];0;aguja;C:\2023\REPSWITCH21092023\REPSWITCH_excgange\REPSWITCH_excgange\data/350102_REPSWITCH1_version1_list2_2023-12-12_15h10.50.951_micRespv1l2_recorded\recording_micRespv1l2_2023-12-12_15h15.00.914.wav;256.9686847999692;257.468776400201;None;256.9686847999692;256.9686847999692;256.9686847999692;256.9686847999692;256.9686847999692;256.9686847999692;[1.2362269996665418, 1.44057899992913, 1.8305144999176264, 1.9891420998610556, 2.056337599642575];;;;;;350102;001;2023-12-12_15h10.50.951;REPSWITCH1_version1_list2;2022.2.4;143.86150175267852;
REPSWITCH1/PICTURE_235.png;aguja;speak;gold;switch;2;T;3;3;2;1;Stim4_Set3;0;None;53;52;53;0;52;52;52;;;;;;;;;;;;;;;;;;;;;;;257.468776400201;258.58700919989496;258.58700919989496;258.58700919989496;258.58700919989496;258.58700919989496;258.58700919989496;258.58700919989496;258.58700919989496;None;0;;C:\2023\REPSWITCH21092023\REPSWITCH_excgange\REPSWITCH_excgange\data/350102_REPSWITCH1_version1_list2_2023-12-12_15h10.50.951_micRespv1l2_recorded\recording_micRespv1l2_2023-12-12_15h15.05.555.wav;261.61518070008606;;None;261.61518070008606;261.61518070008606;261.61518070008606;261.61518070008606;261.61518070008606;261.61518070008606;;;;;;;350102;001;2023-12-12_15h10.50.951;REPSWITCH1_version1_list2;2022.2.4;143.86150175267852;
REPSWITCH1/PICTURE_552.png;manzana;speak;gold;filler;2;F;3;3;2;1;Stim6_Set2;0;None;54;53;54;0;53;53;53;;;;;;;;;;;;;;;;;;;;;;;262.1152194002643;263.26122030010447;263.26122030010447;263.26122030010447;263.26122030010447;263.26122030010447;263.26122030010447;263.26122030010447;263.26122030010447;None;0;;C:\2023\REPSWITCH21092023\REPSWITCH_excgange\REPSWITCH_excgange\data/350102_REPSWITCH1_version1_list2_2023-12-12_15h10.50.951_micRespv1l2_recorded\recording_micRespv1l2_2023-12-12_15h15.10.228.wav;266.28935420000926;;None;266.28935420000926;266.28935420000926;266.28935420000926;266.28935420000926;266.28935420000926;266.28935420000926;;;;;;;350102;001;2023-12-12_15h10.50.951;REPSWITCH1_version1_list2;2022.2.4;143.86150175267852;
REPSWITCH1/PICTURE_271.png;conejo;speak;gold;nontarget;2;NT;3;3;2;1;Stim7_Set3;1;repeat;55;54;55;0;54;54;54;;;;;;;;;;;;;;;;;;;;;;;266.7894199001603;267.831306300126;267.831306300126;267.831306300126;267.831306300126;267.831306300126;267.831306300126;267.831306300126;267.831306300126;None;0;;C:\2023\REPSWITCH21092023\REPSWITCH_excgange\REPSWITCH_excgange\data/350102_REPSWITCH1_version1_list2_2023-12-12_15h10.50.951_micRespv1l2_recorded\recording_micRespv1l2_2023-12-12_15h15.14.799.wav;270.8524402002804;271.35251990007237;None;270.8524402002804;270.8524402002804;270.8524402002804;270.8524402002804;270.8524402002804;270.8524402002804;;;;;;;350102;001;2023-12-12_15h10.50.951;REPSWITCH1_version1_list2;2022.2.4;143.86150175267852;
REPSWITCH1/PICTURE_271.png;conejo;type;darkblue;switch;1;T;3;3;2;1;Stim7_Set3;0;None;56;55;56;0;55;55;55;;;;;;;;;;;;;;;;;;;;;;;271.35251990007237;272.48461190005764;272.48461190005764;272.48461190005764;272.48461190005764;272.48461190005764;272.48461190005764;272.48461190005764;272.48461190005764;['c', 'o', 'n', 'e', 'j', 'o'];0;conejo;C:\2023\REPSWITCH21092023\REPSWITCH_excgange\REPSWITCH_excgange\data/350102_REPSWITCH1_version1_list2_2023-12-12_15h10.50.951_micRespv1l2_recorded\recording_micRespv1l2_2023-12-12_15h15.19.451.wav;275.5127874002792;;None;275.5127874002792;275.5127874002792;275.5127874002792;275.5127874002792;275.5127874002792;275.5127874002792;[1.176520399749279, 1.3459172998555005, 1.487149799708277, 1.6077547995373607, 1.758621999528259, 1.8739808998070657];;;;;;350102;001;2023-12-12_15h10.50.951;REPSWITCH1_version1_list2;2022.2.4;143.86150175267852;
REPSWITCH1/PICTURE_610.png;miel;type;darkblue;nontarget;1;NT;3;3;2;1;Stim2_Set3;1;repeat;57;56;57;0;56;56;56;;;;;;;;;;;;;;;;;;;;;;;276.0128593998961;277.1380047998391;277.1380047998391;277.1380047998391;277.1380047998391;277.1380047998391;277.1380047998391;277.1380047998391;277.1380047998391;['m', 'i', 'e', 'l'];0;miel;C:\2023\REPSWITCH21092023\REPSWITCH_excgange\REPSWITCH_excgange\data/350102_REPSWITCH1_version1_list2_2023-12-12_15h10.50.951_micRespv1l2_recorded\recording_micRespv1l2_2023-12-12_15h15.24.104.wav;280.15932960016653;280.65932440012693;None;280.15932960016653;280.15932960016653;280.15932960016653;280.15932960016653;280.15932960016653;280.15932960016653;[1.009056699462235, 1.1276587997563183, 1.1874489998444915, 1.3439193996600807];;;;;;350102;001;2023-12-12_15h10.50.951;REPSWITCH1_version1_list2;2022.2.4;143.86150175267852;
REPSWITCH1/PICTURE_610.png;miel;speak;gold;switch;2;T;3;3;2;1;Stim2_Set3;0;None;58;57;58;0;57;57;57;;;;;;;;;;;;;;;;;;;;;;;280.65932440012693;281.74975930014625;281.74975930014625;281.74975930014625;281.74975930014625;281.74975930014625;281.74975930014625;281.74975930014625;281.74975930014625;None;0;;C:\2023\REPSWITCH21092023\REPSWITCH_excgange\REPSWITCH_excgange\data/350102_REPSWITCH1_version1_list2_2023-12-12_15h10.50.951_micRespv1l2_recorded\recording_micRespv1l2_2023-12-12_15h15.28.717.wav;284.77093550004065;285.2710313000716;None;284.77093550004065;284.77093550004065;284.77093550004065;284.77093550004065;284.77093550004065;284.77093550004065;;;;;;;350102;001;2023-12-12_15h10.50.951;REPSWITCH1_version1_list2;2022.2.4;143.86150175267852;
REPSWITCH1/PICTURE_199.png;falda;type;darkblue;filler;1;F;3;3;2;1;Stim8_Set2;0;None;59;58;59;0;58;58;58;;;;;;;;;;;;;;;;;;;;;;;285.2710313000716;286.3475469001569;286.3475469001569;286.3475469001569;286.3475469001569;286.3475469001569;286.3475469001569;286.3475469001569;286.3475469001569;['f', 'a', 'l', 'd', 'a'];0;falda;C:\2023\REPSWITCH21092023\REPSWITCH_excgange\REPSWITCH_excgange\data/350102_REPSWITCH1_version1_list2_2023-12-12_15h10.50.951_micRespv1l2_recorded\recording_micRespv1l2_2023-12-12_15h15.33.314.wav;289.3688010000624;289.86886040028185;None;289.3688010000624;289.3688010000624;289.3688010000624;289.3688010000624;289.3688010000624;289.3688010000624;[1.2753393994644284, 1.5374535997398198, 1.636783699505031, 1.7603538995608687, 1.9606872997246683];;;;;;350102;001;2023-12-12_15h10.50.951;REPSWITCH1_version1_list2;2022.2.4;143.86150175267852;
REPSWITCH1/PICTURE_464.png;goma;speak;gold;nontarget;2;NT;3;3;2;1;Stim6_Set3;1;switch;60;59;60;0;59;59;59;;;;;;;;;;;;;;;;;;;;;;;289.86886040028185;290.93152050022036;290.93152050022036;290.93152050022036;290.93152050022036;290.93152050022036;290.93152050022036;290.93152050022036;290.93152050022036;None;0;;C:\2023\REPSWITCH21092023\REPSWITCH_excgange\REPSWITCH_excgange\data/350102_REPSWITCH1_version1_list2_2023-12-12_15h10.50.951_micRespv1l2_recorded\recording_micRespv1l2_2023-12-12_15h15.37.898.wav;293.9527370999567;294.452797499951;None;293.9527370999567;293.9527370999567;293.9527370999567;293.9527370999567;293.9527370999567;293.9527370999567;;;;;;;350102;001;2023-12-12_15h10.50.951;REPSWITCH1_version1_list2;2022.2.4;143.86150175267852;
REPSWITCH1/PICTURE_464.png;goma;speak;gold;repeat;2;T;3;3;2;1;Stim6_Set3;0;None;61;60;61;0;60;60;60;;;;;;;;;;;;;;;;;;;;;;;294.452797499951;295.5016087000258;295.5016087000258;295.5016087000258;295.5016087000258;295.5016087000258;295.5016087000258;295.5016087000258;295.5016087000258;None;0;;C:\2023\REPSWITCH21092023\REPSWITCH_excgange\REPSWITCH_excgange\data/350102_REPSWITCH1_version1_list2_2023-12-12_15h10.50.951_micRespv1l2_recorded\recording_micRespv1l2_2023-12-12_15h15.42.469.wav;298.5227752001956;299.0228422000073;None;298.5227752001956;298.5227752001956;298.5227752001956;298.5227752001956;298.5227752001956;298.5227752001956;;;;;;;350102;001;2023-12-12_15h10.50.951;REPSWITCH1_version1_list2;2022.2.4;143.86150175267852;
REPSWITCH1/PICTURE_152.png;caracol;type;darkblue;filler;1;F;3;3;2;1;Stim2_Set2;0;None;62;61;62;0;61;61;61;;;;;;;;;;;;;;;;;;;;;;;299.0228422000073;300.0993508002721;300.0993508002721;300.0993508002721;300.0993508002721;300.0993508002721;300.0993508002721;300.0993508002721;300.0993508002721;['c', 'a', 'r', 'a', 'c', 'o', 'l'];0;caracol;C:\2023\REPSWITCH21092023\REPSWITCH_excgange\REPSWITCH_excgange\data/350102_REPSWITCH1_version1_list2_2023-12-12_15h10.50.951_micRespv1l2_recorded\recording_micRespv1l2_2023-12-12_15h15.47.066.wav;303.1275173998438;;None;303.1275173998438;303.1275173998438;303.1275173998438;303.1275173998438;303.1275173998438;303.1275173998438;[1.041429600212723, 1.2716763000935316, 1.424161999952048, 1.4880328997969627, 1.7759770001284778, 1.9763413001783192, 2.1236775000579655];;;;;;350102;001;2023-12-12_15h10.50.951;REPSWITCH1_version1_list2;2022.2.4;143.86150175267852;
REPSWITCH1/PICTURE_320.png;iglesia;speak;gold;nontarget;2;NT;3;3;2;1;Stim8_Set3;1;switch;63;62;63;0;62;62;62;;;;;;;;;;;;;;;;;;;;;;;303.6275705001317;304.6417089002207;304.6417089002207;304.6417089002207;304.6417089002207;304.6417089002207;304.6417089002207;304.6417089002207;304.6417089002207;None;0;;C:\2023\REPSWITCH21092023\REPSWITCH_excgange\REPSWITCH_excgange\data/350102_REPSWITCH1_version1_list2_2023-12-12_15h10.50.951_micRespv1l2_recorded\recording_micRespv1l2_2023-12-12_15h15.51.610.wav;307.66980609996244;308.1699421000667;None;307.66980609996244;307.66980609996244;307.66980609996244;307.66980609996244;307.66980609996244;307.66980609996244;;;;;;;350102;001;2023-12-12_15h10.50.951;REPSWITCH1_version1_list2;2022.2.4;143.86150175267852;
REPSWITCH1/PICTURE_320.png;iglesia;speak;gold;repeat;2;T;3;3;2;1;Stim8_Set3;0;None;64;63;64;0;63;63;63;;;;;;;;;;;;;;;;;;;;;;;308.1699421000667;309.2533884001896;309.2533884001896;309.2533884001896;309.2533884001896;309.2533884001896;309.2533884001896;309.2533884001896;309.2533884001896;None;0;;C:\2023\REPSWITCH21092023\REPSWITCH_excgange\REPSWITCH_excgange\data/350102_REPSWITCH1_version1_list2_2023-12-12_15h10.50.951_micRespv1l2_recorded\recording_micRespv1l2_2023-12-12_15h15.56.221.wav;312.28152459999546;;None;312.28152459999546;312.28152459999546;312.28152459999546;312.28152459999546;312.28152459999546;312.28152459999546;;;;;;;350102;001;2023-12-12_15h10.50.951;REPSWITCH1_version1_list2;2022.2.4;143.86150175267852;
REPSWITCH1/PICTURE_35.png;oreja;speak;gold;nontarget;2;NT;3;3;2;1;Stim5_Set3;0;None;65;64;65;0;64;64;64;;;;;;;;;;;;;;;;;;;;;;;312.78156469995156;313.9414772000164;313.9414772000164;313.9414772000164;313.9414772000164;313.9414772000164;313.9414772000164;313.9414772000164;313.9414772000164;None;0;;C:\2023\REPSWITCH21092023\REPSWITCH_excgange\REPSWITCH_excgange\data/350102_REPSWITCH1_version1_list2_2023-12-12_15h10.50.951_micRespv1l2_recorded\recording_micRespv1l2_2023-12-12_15h16.00.908.wav;316.96270320005715;317.46282610017806;None;316.96270320005715;316.96270320005715;316.96270320005715;316.96270320005715;316.96270320005715;316.96270320005715;;;;;;;350102;001;2023-12-12_15h10.50.951;REPSWITCH1_version1_list2;2022.2.4;143.86150175267852;
REPSWITCH1/PICTURE_35.png;oreja;type;darkblue;switch;1;T;3;3;2;1;Stim5_Set3;0;None;66;65;66;0;65;65;65;;;;;;;;;;;;;;;;;;;;;;;317.46282610017806;318.55319900019094;318.55319900019094;318.55319900019094;318.55319900019094;318.55319900019094;318.55319900019094;318.55319900019094;318.55319900019094;['o', 'r', 'e', 'j', 'a'];0;oreja;C:\2023\REPSWITCH21092023\REPSWITCH_excgange\REPSWITCH_excgange\data/350102_REPSWITCH1_version1_list2_2023-12-12_15h10.50.951_micRespv1l2_recorded\recording_micRespv1l2_2023-12-12_15h16.05.520.wav;321.57438499992713;322.07443360006437;None;321.57438499992713;321.57438499992713;321.57438499992713;321.57438499992713;321.57438499992713;321.57438499992713;[0.8911302001215518, 1.0123974001035094, 1.2169961002655327, 1.382948700338602, 1.4698362001217902];;;;;;350102;001;2023-12-12_15h10.50.951;REPSWITCH1_version1_list2;2022.2.4;143.86150175267852;
REPSWITCH1/PICTURE_517.png;cuerda;speak;gold;filler;2;F;3;3;2;1;Stim4_Set2;0;None;67;66;67;0;66;66;66;;;;;;;;;;;;;;;;;;;;;;;322.07443360006437;323.1719149998389;323.1719149998389;323.1719149998389;323.1719149998389;323.1719149998389;323.1719149998389;323.1719149998389;323.1719149998389;None;0;;C:\2023\REPSWITCH21092023\REPSWITCH_excgange\REPSWITCH_excgange\data/350102_REPSWITCH1_version1_list2_2023-12-12_15h10.50.951_micRespv1l2_recorded\recording_micRespv1l2_2023-12-12_15h16.10.138.wav;326.19307360006496;326.69320579990745;None;326.19307360006496;326.19307360006496;326.19307360006496;326.19307360006496;326.19307360006496;326.19307360006496;;;;;;;350102;001;2023-12-12_15h10.50.951;REPSWITCH1_version1_list2;2022.2.4;143.86150175267852;
REPSWITCH1/PICTURE_30.png;granja;type;darkblue;filler;1;F;3;3;2;1;Stim5_Set2;1;switch;68;67;68;0;67;67;67;;;;;;;;;;;;;;;;;;;;;;;326.69320579990745;327.7766479002312;327.7766479002312;327.7766479002312;327.7766479002312;327.7766479002312;327.7766479002312;327.7766479002312;327.7766479002312;['f', 'backspace', 'g', 'r', 'a', 'n', 'j'];0;granj;C:\2023\REPSWITCH21092023\REPSWITCH_excgange\REPSWITCH_excgange\data/350102_REPSWITCH1_version1_list2_2023-12-12_15h10.50.951_micRespv1l2_recorded\recording_micRespv1l2_2023-12-12_15h16.14.744.wav;330.8048514998518;;None;330.8048514998518;330.8048514998518;330.8048514998518;330.8048514998518;330.8048514998518;330.8048514998518;[1.3148993998765945, 1.9549864996224642, 2.23407969949767, 2.4403124996460974, 2.6945100999437273, 2.7687181998044252, 2.967887499835342];;;;;;350102;001;2023-12-12_15h10.50.951;REPSWITCH1_version1_list2;2022.2.4;143.86150175267852;
REPSWITCH1/PICTURE_242.png;cartero;type;darkblue;nontarget;1;NT;3;3;2;1;Stim3_Set3;0;None;69;68;69;0;68;68;68;;;;;;;;;;;;;;;;;;;;;;;331.3048475999385;332.37446490023285;332.37446490023285;332.37446490023285;332.37446490023285;332.37446490023285;332.37446490023285;332.37446490023285;332.37446490023285;['c', 'a', 'r', 't', 'e', 'r', 'o'];0;cartero;C:\2023\REPSWITCH21092023\REPSWITCH_excgange\REPSWITCH_excgange\data/350102_REPSWITCH1_version1_list2_2023-12-12_15h10.50.951_micRespv1l2_recorded\recording_micRespv1l2_2023-12-12_15h16.19.341.wav;335.3956698998809;335.89579530013725;None;335.3956698998809;335.3956698998809;335.3956698998809;335.3956698998809;335.3956698998809;335.3956698998809;[1.0747559000737965, 1.3006660998798907, 1.565003799740225, 1.7703583999536932, 1.991610599681735, 2.11122029973194, 2.727625200059265];;;;;;350102;001;2023-12-12_15h10.50.951;REPSWITCH1_version1_list2;2022.2.4;143.86150175267852;
REPSWITCH1/PICTURE_242.png;cartero;type;darkblue;repeat;1;T;3;3;2;1;Stim3_Set3;0;None;70;69;70;0;69;69;69;;;;;;;;;;;;;;;;;;;;;;;335.89579530013725;337.00002190005034;337.00002190005034;337.00002190005034;337.00002190005034;337.00002190005034;337.00002190005034;337.00002190005034;337.00002190005034;['c', 'a', 'r', 't', 'e', 'r', 'o'];0;cartero;C:\2023\REPSWITCH21092023\REPSWITCH_excgange\REPSWITCH_excgange\data/350102_REPSWITCH1_version1_list2_2023-12-12_15h10.50.951_micRespv1l2_recorded\recording_micRespv1l2_2023-12-12_15h16.23.967.wav;340.02820810023695;;None;340.02820810023695;340.02820810023695;340.02820810023695;340.02820810023695;340.02820810023695;340.02820810023695;[0.8014451996423304, 1.0277419998310506, 1.1194005995057523, 1.181176099460572, 1.3207388995215297, 1.4928077994845808, 1.633394599892199];;;;;;350102;001;2023-12-12_15h10.50.951;REPSWITCH1_version1_list2;2022.2.4;143.86150175267852;
REPSWITCH1/PICTURE_264.png;mano;speak;gold;filler;2;F;3;3;2;1;Stim3_Set2;1;switch;71;70;71;0;70;70;70;;;;;;;;;;;;;;;;;;;;;;;340.5282805999741;341.6395570002496;341.6395570002496;341.6395570002496;341.6395570002496;341.6395570002496;341.6395570002496;341.6395570002496;341.6395570002496;None;0;;C:\2023\REPSWITCH21092023\REPSWITCH_excgange\REPSWITCH_excgange\data/350102_REPSWITCH1_version1_list2_2023-12-12_15h10.50.951_micRespv1l2_recorded\recording_micRespv1l2_2023-12-12_15h16.28.607.wav;344.66771579999477;;None;344.66771579999477;344.66771579999477;344.66771579999477;344.66771579999477;344.66771579999477;344.66771579999477;;;;;;;350102;001;2023-12-12_15h10.50.951;REPSWITCH1_version1_list2;2022.2.4;143.86150175267852;
REPSWITCH1/PICTURE_576.png;guante;type;darkblue;nontarget;1;NT;3;3;2;1;Stim1_Set3;1;switch;72;71;72;0;71;71;71;;;;;;;;;;;;;;;;;;;;;;;345.1677836002782;346.29293600004166;346.29293600004166;346.29293600004166;346.29293600004166;346.29293600004166;346.29293600004166;346.29293600004166;346.29293600004166;['g', 'u', 'a', 'b', 'n', 't', 'e'];0;guante;C:\2023\REPSWITCH21092023\REPSWITCH_excgange\REPSWITCH_excgange\data/350102_REPSWITCH1_version1_list2_2023-12-12_15h10.50.951_micRespv1l2_recorded\recording_micRespv1l2_2023-12-12_15h16.33.260.wav;349.3211059002206;;None;349.3211059002206;349.3211059002206;349.3211059002206;349.3211059002206;349.3211059002206;349.3211059002206;[1.1575603000819683, 1.4190903999842703, 1.5077952998690307, 1.6918835998512805, 1.69288200000301, 2.6090954998508096, 2.8234772998839617];;;;;;350102;001;2023-12-12_15h10.50.951;REPSWITCH1_version1_list2;2022.2.4;143.86150175267852;
REPSWITCH1/PICTURE_576.png;guante;type;darkblue;repeat;1;T;3;3;2;1;Stim1_Set3;0;None;73;72;73;0;72;72;72;;;;;;;;;;;;;;;;;;;;;;;349.8212342001498;351.0226916000247;351.0226916000247;351.0226916000247;351.0226916000247;351.0226916000247;351.0226916000247;351.0226916000247;351.0226916000247;['g', 'u', 'a', 'n', 't', 'e'];0;guante;C:\2023\REPSWITCH21092023\REPSWITCH_excgange\REPSWITCH_excgange\data/350102_REPSWITCH1_version1_list2_2023-12-12_15h10.50.951_micRespv1l2_recorded\recording_micRespv1l2_2023-12-12_15h16.37.991.wav;354.0508920000866;;None;354.0508920000866;354.0508920000866;354.0508920000866;354.0508920000866;354.0508920000866;354.0508920000866;[0.8525817994959652, 0.9906322997994721, 1.0946735995821655, 1.2255721995607018, 1.3730174996890128, 1.5685787997208536];;;;;;350102;001;2023-12-12_15h10.50.951;REPSWITCH1_version1_list2;2022.2.4;143.86150175267852;
REPSWITCH1/PICTURE_175.png;pintor;speak;gold;filler;2;F;3;3;2;1;Stim1_Set2;0;None;74;73;74;0;73;73;73;;;;;;;;;;;;;;;;;;;;;;;354.5510331001133;355.58584879990667;355.58584879990667;355.58584879990667;355.58584879990667;355.58584879990667;355.58584879990667;355.58584879990667;355.58584879990667;None;0;;C:\2023\REPSWITCH21092023\REPSWITCH_excgange\REPSWITCH_excgange\data/350102_REPSWITCH1_version1_list2_2023-12-12_15h10.50.951_micRespv1l2_recorded\recording_micRespv1l2_2023-12-12_15h16.42.553.wav;358.61399580026045;;None;358.61399580026045;358.61399580026045;358.61399580026045;358.61399580026045;358.61399580026045;358.61399580026045;;;;;;;350102;001;2023-12-12_15h10.50.951;REPSWITCH1_version1_list2;2022.2.4;143.86150175267852;
REPSWITCH1/PICTURE_498.png;taza;type;darkblue;nontarget;1;NT;4;3;2;1;Stim4_Set4;0;None;75;74;75;0;74;74;74;;;;;;;;;;;;;;;;;;;;;;;359.1140521001071;360.32948209997267;360.32948209997267;360.32948209997267;360.32948209997267;360.32948209997267;360.32948209997267;360.32948209997267;360.32948209997267;['t', 'a', 'z', 'a'];0;taza;C:\2023\REPSWITCH21092023\REPSWITCH_excgange\REPSWITCH_excgange\data/350102_REPSWITCH1_version1_list2_2023-12-12_15h10.50.951_micRespv1l2_recorded\recording_micRespv1l2_2023-12-12_15h16.47.296.wav;363.3576580998488;;None;363.3576580998488;363.3576580998488;363.3576580998488;363.3576580998488;363.3576580998488;363.3576580998488;[1.0195275996811688, 1.1231729998253286, 1.568399699870497, 1.835799299646169];;;;;;350102;001;2023-12-12_15h10.50.951;REPSWITCH1_version1_list2;2022.2.4;143.86150175267852;
REPSWITCH1/PICTURE_498.png;taza;type;darkblue;repeat;1;T;4;3;2;1;Stim4_Set4;0;None;76;75;76;0;75;75;75;;;;;;;;;;;;;;;;;;;;;;;363.857723900117;365.0523838000372;365.0523838000372;365.0523838000372;365.0523838000372;365.0523838000372;365.0523838000372;365.0523838000372;365.0523838000372;['t', 'a', 'z', 'a'];0;taza;C:\2023\REPSWITCH21092023\REPSWITCH_excgange\REPSWITCH_excgange\data/350102_REPSWITCH1_version1_list2_2023-12-12_15h10.50.951_micRespv1l2_recorded\recording_micRespv1l2_2023-12-12_15h16.52.019.wav;368.0804812000133;;None;368.0804812000133;368.0804812000133;368.0804812000133;368.0804812000133;368.0804812000133;368.0804812000133;[1.2506987997330725, 1.36533119995147, 1.5712972995825112, 1.7585465996526182];;;;;;350102;001;2023-12-12_15h10.50.951;REPSWITCH1_version1_list2;2022.2.4;143.86150175267852;
REPSWITCH1/PICTURE_235.png;aguja;speak;gold;filler;2;F;4;3;2;1;Stim4_Set3;0;None;77;76;77;0;76;76;76;;;;;;;;;;;;;;;;;;;;;;;368.58055149996653;369.6432400001213;369.6432400001213;369.6432400001213;369.6432400001213;369.6432400001213;369.6432400001213;369.6432400001213;369.6432400001213;None;0;;C:\2023\REPSWITCH21092023\REPSWITCH_excgange\REPSWITCH_excgange\data/350102_REPSWITCH1_version1_list2_2023-12-12_15h10.50.951_micRespv1l2_recorded\recording_micRespv1l2_2023-12-12_15h16.56.610.wav;372.6713662999682;;None;372.6713662999682;372.6713662999682;372.6713662999682;372.6713662999682;372.6713662999682;372.6713662999682;;;;;;;350102;001;2023-12-12_15h10.50.951;REPSWITCH1_version1_list2;2022.2.4;143.86150175267852;
REPSWITCH1/PICTURE_338.png;regalo;type;darkblue;nontarget;1;NT;4;3;2;1;Stim6_Set4;1;switch;78;77;78;0;77;77;77;;;;;;;;;;;;;;;;;;;;;;;373.171431499999;374.2271644002758;374.2271644002758;374.2271644002758;374.2271644002758;374.2271644002758;374.2271644002758;374.2271644002758;374.2271644002758;['r', 'e', 'g', 'a', 'l', 'o'];0;regalo;C:\2023\REPSWITCH21092023\REPSWITCH_excgange\REPSWITCH_excgange\data/350102_REPSWITCH1_version1_list2_2023-12-12_15h10.50.951_micRespv1l2_recorded\recording_micRespv1l2_2023-12-12_15h17.01.195.wav;377.25535920029506;;None;377.25535920029506;377.25535920029506;377.25535920029506;377.25535920029506;377.25535920029506;377.25535920029506;[1.0068723000586033, 1.1356842000968754, 1.314389199949801, 1.4271208997815847, 1.7361507997848094, 1.8860001000575721];;;;;;350102;001;2023-12-12_15h10.50.951;REPSWITCH1_version1_list2;2022.2.4;143.86150175267852;
REPSWITCH1/PICTURE_338.png;regalo;speak;gold;switch;2;T;4;3;2;1;Stim6_Set4;0;None;79;78;79;0;78;78;78;;;;;;;;;;;;;;;;;;;;;;;377.755362899974;378.901352299843;378.901352299843;378.901352299843;378.901352299843;378.901352299843;378.901352299843;378.901352299843;378.901352299843;None;0;;C:\2023\REPSWITCH21092023\REPSWITCH_excgange\REPSWITCH_excgange\data/350102_REPSWITCH1_version1_list2_2023-12-12_15h10.50.951_micRespv1l2_recorded\recording_micRespv1l2_2023-12-12_15h17.05.869.wav;381.9295965000056;;None;381.9295965000056;381.9295965000056;381.9295965000056;381.9295965000056;381.9295965000056;381.9295965000056;;;;;;;350102;001;2023-12-12_15h10.50.951;REPSWITCH1_version1_list2;2022.2.4;143.86150175267852;
REPSWITCH1/PICTURE_719.png;baño;speak;gold;nontarget;2;NT;4;3;2;1;Stim2_Set4;1;repeat;80;79;80;0;79;79;79;;;;;;;;;;;;;;;;;;;;;;;382.42961160000414;383.5686738002114;383.5686738002114;383.5686738002114;383.5686738002114;383.5686738002114;383.5686738002114;383.5686738002114;383.5686738002114;None;0;;C:\2023\REPSWITCH21092023\REPSWITCH_excgange\REPSWITCH_excgange\data/350102_REPSWITCH1_version1_list2_2023-12-12_15h10.50.951_micRespv1l2_recorded\recording_micRespv1l2_2023-12-12_15h17.10.536.wav;386.5968936001882;;None;386.5968936001882;386.5968936001882;386.5968936001882;386.5968936001882;386.5968936001882;386.5968936001882;;;;;;;350102;001;2023-12-12_15h10.50.951;REPSWITCH1_version1_list2;2022.2.4;143.86150175267852;
REPSWITCH1/PICTURE_719.png;baño;speak;gold;repeat;2;T;4;3;2;1;Stim2_Set4;0;None;81;80;81;0;80;80;80;;;;;;;;;;;;;;;;;;;;;;;387.0968913002871;388.1526399999857;388.1526399999857;388.1526399999857;388.1526399999857;388.1526399999857;388.1526399999857;388.1526399999857;388.1526399999857;None;0;;C:\2023\REPSWITCH21092023\REPSWITCH_excgange\REPSWITCH_excgange\data/350102_REPSWITCH1_version1_list2_2023-12-12_15h10.50.951_micRespv1l2_recorded\recording_micRespv1l2_2023-12-12_15h17.15.119.wav;391.17382179992273;391.67388290027156;None;391.17382179992273;391.17382179992273;391.17382179992273;391.17382179992273;391.17382179992273;391.17382179992273;;;;;;;350102;001;2023-12-12_15h10.50.951;REPSWITCH1_version1_list2;2022.2.4;143.86150175267852;
REPSWITCH1/PICTURE_271.png;conejo;type;darkblue;filler;1;F;4;3;2;1;Stim7_Set3;0;None;82;81;82;0;81;81;81;;;;;;;;;;;;;;;;;;;;;;;391.67388290027156;392.8616014001891;392.8616014001891;392.8616014001891;392.8616014001891;392.8616014001891;392.8616014001891;392.8616014001891;392.8616014001891;['c', 'o', 'n', 'e', 'j', 'o'];0;conejo;C:\2023\REPSWITCH21092023\REPSWITCH_excgange\REPSWITCH_excgange\data/350102_REPSWITCH1_version1_list2_2023-12-12_15h10.50.951_micRespv1l2_recorded\recording_micRespv1l2_2023-12-12_15h17.19.829.wav;395.8828445998952;396.38289880007505;None;395.8828445998952;395.8828445998952;395.8828445998952;395.8828445998952;395.8828445998952;395.8828445998952;[0.8889154000207782, 1.2439565998502076, 1.4322930998168886, 1.5697280997410417, 1.715273399837315, 1.8327699000947177];;;;;;350102;001;2023-12-12_15h10.50.951;REPSWITCH1_version1_list2;2022.2.4;143.86150175267852;
REPSWITCH1/PICTURE_610.png;miel;speak;gold;filler;2;F;4;3;2;1;Stim2_Set3;0;None;83;82;83;0;82;82;82;;;;;;;;;;;;;;;;;;;;;;;396.38289880007505;397.4454592000693;397.4454592000693;397.4454592000693;397.4454592000693;397.4454592000693;397.4454592000693;397.4454592000693;397.4454592000693;None;0;;C:\2023\REPSWITCH21092023\REPSWITCH_excgange\REPSWITCH_excgange\data/350102_REPSWITCH1_version1_list2_2023-12-12_15h10.50.951_micRespv1l2_recorded\recording_micRespv1l2_2023-12-12_15h17.24.413.wav;400.4736494999379;400.9737122999504;None;400.4736494999379;400.4736494999379;400.4736494999379;400.4736494999379;400.4736494999379;400.4736494999379;;;;;;;350102;001;2023-12-12_15h10.50.951;REPSWITCH1_version1_list2;2022.2.4;143.86150175267852;
REPSWITCH1/PICTURE_687.png;camisa;speak;gold;nontarget;2;NT;4;3;2;1;Stim5_Set4;1;repeat;84;83;84;0;83;83;83;;;;;;;;;;;;;;;;;;;;;;;400.9737122999504;402.015575800091;402.015575800091;402.015575800091;402.015575800091;402.015575800091;402.015575800091;402.015575800091;402.015575800091;None;0;;C:\2023\REPSWITCH21092023\REPSWITCH_excgange\REPSWITCH_excgange\data/350102_REPSWITCH1_version1_list2_2023-12-12_15h10.50.951_micRespv1l2_recorded\recording_micRespv1l2_2023-12-12_15h17.28.982.wav;405.0367507999763;405.536833900027;None;405.0367507999763;405.0367507999763;405.0367507999763;405.0367507999763;405.0367507999763;405.0367507999763;;;;;;;350102;001;2023-12-12_15h10.50.951;REPSWITCH1_version1_list2;2022.2.4;143.86150175267852;
REPSWITCH1/PICTURE_687.png;camisa;type;darkblue;switch;1;T;4;3;2;1;Stim5_Set4;0;None;85;84;85;0;84;84;84;;;;;;;;;;;;;;;;;;;;;;;405.536833900027;406.65503659984097;406.65503659984097;406.65503659984097;406.65503659984097;406.65503659984097;406.65503659984097;406.65503659984097;406.65503659984097;['c', 'm', 'a', 'backspace', 'backspace', 'a', 'm'];0;cam;C:\2023\REPSWITCH21092023\REPSWITCH_excgange\REPSWITCH_excgange\data/350102_REPSWITCH1_version1_list2_2023-12-12_15h10.50.951_micRespv1l2_recorded\recording_micRespv1l2_2023-12-12_15h17.33.622.wav;409.6762486002408;410.17629500012845;None;409.6762486002408;409.6762486002408;409.6762486002408;409.6762486002408;409.6762486002408;409.6762486002408;[0.7949053002521396, 1.1173866000026464, 1.6492876000702381, 2.3563276999630034, 2.511792399920523, 2.656255300156772, 2.8924680002965033];;;;;;350102;001;2023-12-12_15h10.50.951;REPSWITCH1_version1_list2;2022.2.4;143.86150175267852;
REPSWITCH1/PICTURE_319.png;vaca;type;darkblue;nontarget;1;NT;4;3;2;1;Stim1_Set4;0;None;86;85;86;0;85;85;85;;;;;;;;;;;;;;;;;;;;;;;410.17629500012845;411.2875811001286;411.2875811001286;411.2875811001286;411.2875811001286;411.2875811001286;411.2875811001286;411.2875811001286;411.2875811001286;['v', 'a', 'c', 'a'];0;vaca;C:\2023\REPSWITCH21092023\REPSWITCH_excgange\REPSWITCH_excgange\data/350102_REPSWITCH1_version1_list2_2023-12-12_15h10.50.951_micRespv1l2_recorded\recording_micRespv1l2_2023-12-12_15h17.38.254.wav;414.30876050004736;414.80885090027004;None;414.30876050004736;414.30876050004736;414.30876050004736;414.30876050004736;414.30876050004736;414.30876050004736;[0.9428555001504719, 1.0006229998543859, 1.1471667997539043, 1.2119375001639128];;;;;;350102;001;2023-12-12_15h10.50.951;REPSWITCH1_version1_list2;2022.2.4;143.86150175267852;
REPSWITCH1/PICTURE_319.png;vaca;speak;gold;switch;2;T;4;3;2;1;Stim1_Set4;0;None;87;86;87;0;86;86;86;;;;;;;;;;;;;;;;;;;;;;;414.80885090027004;415.91317229997367;415.91317229997367;415.91317229997367;415.91317229997367;415.91317229997367;415.91317229997367;415.91317229997367;415.91317229997367;None;0;;C:\2023\REPSWITCH21092023\REPSWITCH_excgange\REPSWITCH_excgange\data/350102_REPSWITCH1_version1_list2_2023-12-12_15h10.50.951_micRespv1l2_recorded\recording_micRespv1l2_2023-12-12_15h17.42.880.wav;418.94132550014183;;None;418.94132550014183;418.94132550014183;418.94132550014183;418.94132550014183;418.94132550014183;418.94132550014183;;;;;;;350102;001;2023-12-12_15h10.50.951;REPSWITCH1_version1_list2;2022.2.4;143.86150175267852;
REPSWITCH1/PICTURE_464.png;goma;type;darkblue;filler;1;F;4;3;2;1;Stim6_Set3;1;switch;88;87;88;0;87;87;87;;;;;;;;;;;;;;;;;;;;;;;419.4413888002746;420.4762762002647;420.4762762002647;420.4762762002647;420.4762762002647;420.4762762002647;420.4762762002647;420.4762762002647;420.4762762002647;['g', 'o', 'm', 'a'];0;goma;C:\2023\REPSWITCH21092023\REPSWITCH_excgange\REPSWITCH_excgange\data/350102_REPSWITCH1_version1_list2_2023-12-12_15h10.50.951_micRespv1l2_recorded\recording_micRespv1l2_2023-12-12_15h17.47.442.wav;423.4975473000668;423.99763360014185;None;423.4975473000668;423.4975473000668;423.4975473000668;423.4975473000668;423.4975473000668;423.4975473000668;[1.194185100030154, 1.3783892998471856, 1.4985503000207245, 1.593159900046885];;;;;;350102;001;2023-12-12_15h10.50.951;REPSWITCH1_version1_list2;2022.2.4;143.86150175267852;
REPSWITCH1/PICTURE_728.png;pulpo;speak;gold;nontarget;2;NT;4;3;2;1;Stim8_Set4;1;switch;89;88;89;0;88;88;88;;;;;;;;;;;;;;;;;;;;;;;423.99763360014185;425.0463283001445;425.0463283001445;425.0463283001445;425.0463283001445;425.0463283001445;425.0463283001445;425.0463283001445;425.0463283001445;None;0;;C:\2023\REPSWITCH21092023\REPSWITCH_excgange\REPSWITCH_excgange\data/350102_REPSWITCH1_version1_list2_2023-12-12_15h10.50.951_micRespv1l2_recorded\recording_micRespv1l2_2023-12-12_15h17.52.013.wav;428.07448279997334;;None;428.07448279997334;428.07448279997334;428.07448279997334;428.07448279997334;428.07448279997334;428.07448279997334;;;;;;;350102;001;2023-12-12_15h10.50.951;REPSWITCH1_version1_list2;2022.2.4;143.86150175267852;
REPSWITCH1/PICTURE_728.png;pulpo;speak;gold;repeat;2;T;4;3;2;1;Stim8_Set4;0;None;90;89;90;0;89;89;89;;;;;;;;;;;;;;;;;;;;;;;428.5745310001075;429.7066562999971;429.7066562999971;429.7066562999971;429.7066562999971;429.7066562999971;429.7066562999971;429.7066562999971;429.7066562999971;None;0;;C:\2023\REPSWITCH21092023\REPSWITCH_excgange\REPSWITCH_excgange\data/350102_REPSWITCH1_version1_list2_2023-12-12_15h10.50.951_micRespv1l2_recorded\recording_micRespv1l2_2023-12-12_15h17.56.674.wav;432.7348452000879;;None;432.7348452000879;432.7348452000879;432.7348452000879;432.7348452000879;432.7348452000879;432.7348452000879;;;;;;;350102;001;2023-12-12_15h10.50.951;REPSWITCH1_version1_list2;2022.2.4;143.86150175267852;
REPSWITCH1/PICTURE_320.png;iglesia;type;darkblue;filler;1;F;4;3;2;1;Stim8_Set3;0;None;91;90;91;0;90;90;90;;;;;;;;;;;;;;;;;;;;;;;433.23489780025557;434.26280190004036;434.26280190004036;434.26280190004036;434.26280190004036;434.26280190004036;434.26280190004036;434.26280190004036;434.26280190004036;['i', 'g', 'l', 'e', 's', 'i', 'a'];0;iglesia;C:\2023\REPSWITCH21092023\REPSWITCH_excgange\REPSWITCH_excgange\data/350102_REPSWITCH1_version1_list2_2023-12-12_15h10.50.951_micRespv1l2_recorded\recording_micRespv1l2_2023-12-12_15h18.01.230.wav;437.28401440009475;437.7841758001596;None;437.28401440009475;437.28401440009475;437.28401440009475;437.28401440009475;437.28401440009475;437.28401440009475;[1.089811199810356, 1.273413599934429, 1.4468310996890068, 1.5741619998589158, 1.7675173999741673, 1.8711756998673081, 1.968839899636805];;;;;;350102;001;2023-12-12_15h10.50.951;REPSWITCH1_version1_list2;2022.2.4;143.86150175267852;
REPSWITCH1/PICTURE_576.png;guante;speak;gold;filler;2;F;4;3;2;1;Stim1_Set3;0;None;92;91;92;0;91;91;91;;;;;;;;;;;;;;;;;;;;;;;437.7841758001596;438.9162480002269;438.9162480002269;438.9162480002269;438.9162480002269;438.9162480002269;438.9162480002269;438.9162480002269;438.9162480002269;None;0;;C:\2023\REPSWITCH21092023\REPSWITCH_excgange\REPSWITCH_excgange\data/350102_REPSWITCH1_version1_list2_2023-12-12_15h10.50.951_micRespv1l2_recorded\recording_micRespv1l2_2023-12-12_15h18.05.883.wav;441.93738509994;442.43745960015804;None;441.93738509994;441.93738509994;441.93738509994;441.93738509994;441.93738509994;441.93738509994;;;;;;;350102;001;2023-12-12_15h10.50.951;REPSWITCH1_version1_list2;2022.2.4;143.86150175267852;
REPSWITCH1/PICTURE_8.png;pierna;speak;gold;nontarget;2;NT;4;3;2;1;Stim3_Set4;1;repeat;93;92;93;0;92;92;92;;;;;;;;;;;;;;;;;;;;;;;442.43745960015804;443.6182078998536;443.6182078998536;443.6182078998536;443.6182078998536;443.6182078998536;443.6182078998536;443.6182078998536;443.6182078998536;None;0;;C:\2023\REPSWITCH21092023\REPSWITCH_excgange\REPSWITCH_excgange\data/350102_REPSWITCH1_version1_list2_2023-12-12_15h10.50.951_micRespv1l2_recorded\recording_micRespv1l2_2023-12-12_15h18.10.585.wav;446.6394051001407;447.13946720026433;None;446.6394051001407;446.6394051001407;446.6394051001407;446.6394051001407;446.6394051001407;446.6394051001407;;;;;;;350102;001;2023-12-12_15h10.50.951;REPSWITCH1_version1_list2;2022.2.4;143.86150175267852;
REPSWITCH1/PICTURE_8.png;pierna;type;darkblue;switch;1;T;4;3;2;1;Stim3_Set4;0;None;94;93;94;0;93;93;93;;;;;;;;;;;;;;;;;;;;;;;447.13946720026433;448.1812779000029;448.1812779000029;448.1812779000029;448.1812779000029;448.1812779000029;448.1812779000029;448.1812779000029;448.1812779000029;['p', 'i', 'e', 'r', 'n', 'a'];0;pierna;C:\2023\REPSWITCH21092023\REPSWITCH_excgange\REPSWITCH_excgange\data/350102_REPSWITCH1_version1_list2_2023-12-12_15h10.50.951_micRespv1l2_recorded\recording_micRespv1l2_2023-12-12_15h18.15.148.wav;451.2024896000512;451.7025891998783;None;451.2024896000512;451.2024896000512;451.2024896000512;451.2024896000512;451.2024896000512;451.2024896000512;[1.0360521995462477, 1.1975003997795284, 1.2333878995850682, 1.4147745994850993, 1.5227511995472014, 1.6207272997125983];;;;;;350102;001;2023-12-12_15h10.50.951;REPSWITCH1_version1_list2;2022.2.4;143.86150175267852;
REPSWITCH1/PICTURE_673.png;tenedor;speak;gold;filler;2;F;4;3;2;1;Extra5;0;None;95;94;95;0;94;94;94;;;;;;;;;;;;;;;;;;;;;;;451.7025891998783;452.8068792000413;452.8068792000413;452.8068792000413;452.8068792000413;452.8068792000413;452.8068792000413;452.8068792000413;452.8068792000413;None;0;;C:\2023\REPSWITCH21092023\REPSWITCH_excgange\REPSWITCH_excgange\data/350102_REPSWITCH1_version1_list2_2023-12-12_15h10.50.951_micRespv1l2_recorded\recording_micRespv1l2_2023-12-12_15h18.19.775.wav;455.8351091002114;;None;455.8351091002114;455.8351091002114;455.8351091002114;455.8351091002114;455.8351091002114;455.8351091002114;;;;;;;350102;001;2023-12-12_15h10.50.951;REPSWITCH1_version1_list2;2022.2.4;143.86150175267852;
REPSWITCH1/PICTURE_35.png;oreja;type;darkblue;filler;1;F;4;3;2;1;Stim5_Set3;1;switch;96;95;96;0;95;95;95;;;;;;;;;;;;;;;;;;;;;;;456.33514019986615;457.4741676999256;457.4741676999256;457.4741676999256;457.4741676999256;457.4741676999256;457.4741676999256;457.4741676999256;457.4741676999256;['o', 'r', 'e', 'j', 'a'];0;oreja;C:\2023\REPSWITCH21092023\REPSWITCH_excgange\REPSWITCH_excgange\data/350102_REPSWITCH1_version1_list2_2023-12-12_15h10.50.951_micRespv1l2_recorded\recording_micRespv1l2_2023-12-12_15h18.24.442.wav;460.49538400024176;460.9954526000656;None;460.49538400024176;460.49538400024176;460.49538400024176;460.49538400024176;460.49538400024176;460.49538400024176;[0.9368378999643028, 1.0465639997273684, 1.245069199707359, 1.3945462997071445, 1.5111563000828028];;;;;;350102;001;2023-12-12_15h10.50.951;REPSWITCH1_version1_list2;2022.2.4;143.86150175267852;
REPSWITCH1/PICTURE_663.png;columna;speak;gold;filler;2;F;4;3;2;1;Extra6;0;None;97;96;97;0;96;96;96;;;;;;;;;;;;;;;;;;;;;;;460.9954526000656;462.0650772000663;462.0650772000663;462.0650772000663;462.0650772000663;462.0650772000663;462.0650772000663;462.0650772000663;462.0650772000663;None;0;;C:\2023\REPSWITCH21092023\REPSWITCH_excgange\REPSWITCH_excgange\data/350102_REPSWITCH1_version1_list2_2023-12-12_15h10.50.951_micRespv1l2_recorded\recording_micRespv1l2_2023-12-12_15h18.29.033.wav;465.0932256998494;465.5932871000841;None;465.0932256998494;465.0932256998494;465.0932256998494;465.0932256998494;465.0932256998494;465.0932256998494;;;;;;;350102;001;2023-12-12_15h10.50.951;REPSWITCH1_version1_list2;2022.2.4;143.86150175267852;
REPSWITCH1/PICTURE_242.png;cartero;type;darkblue;filler;1;F;4;3;2;1;Stim3_Set3;1;switch;98;97;98;0;97;97;97;;;;;;;;;;;;;;;;;;;;;;;465.5932871000841;466.6143335001543;466.6143335001543;466.6143335001543;466.6143335001543;466.6143335001543;466.6143335001543;466.6143335001543;466.6143335001543;['c', 'a', 'r', 't', 'e', 'r', 'o'];0;cartero;C:\2023\REPSWITCH21092023\REPSWITCH_excgange\REPSWITCH_excgange\data/350102_REPSWITCH1_version1_list2_2023-12-12_15h10.50.951_micRespv1l2_recorded\recording_micRespv1l2_2023-12-12_15h18.33.580.wav;469.63547539990395;470.1355671999045;None;469.63547539990395;469.63547539990395;469.63547539990395;469.63547539990395;469.63547539990395;469.63547539990395;[1.0383963994681835, 1.2742973999120295, 1.377959399484098, 1.470638099592179, 1.5699775996617973, 1.7505556996911764, 1.9080701996572316];;;;;;350102;001;2023-12-12_15h10.50.951;REPSWITCH1_version1_list2;2022.2.4;143.86150175267852;
REPSWITCH1/PICTURE_48.png;bombero;type;darkblue;nontarget;1;NT;4;3;2;1;Stim7_Set4;1;repeat;99;98;99;0;98;98;98;;;;;;;;;;;;;;;;;;;;;;;470.1355671999045;471.22604910004884;471.22604910004884;471.22604910004884;471.22604910004884;471.22604910004884;471.22604910004884;471.22604910004884;471.22604910004884;['b', 'o', 'n', 'backspace', 'm'];0;bom;C:\2023\REPSWITCH21092023\REPSWITCH_excgange\REPSWITCH_excgange\data/350102_REPSWITCH1_version1_list2_2023-12-12_15h10.50.951_micRespv1l2_recorded\recording_micRespv1l2_2023-12-12_15h18.38.193.wav;474.25416440004483;;None;474.25416440004483;474.25416440004483;474.25416440004483;474.25416440004483;474.25416440004483;474.25416440004483;[1.3879936998710036, 1.5245342999696732, 1.6245943997055292, 2.4849725998938084, 2.823097199667245];;;;;;350102;001;2023-12-12_15h10.50.951;REPSWITCH1_version1_list2;2022.2.4;143.86150175267852;
REPSWITCH1/PICTURE_48.png;bombero;type;darkblue;repeat;1;T;4;3;2;1;Stim7_Set4;0;None;100;99;100;0;99;99;99;;;;;;;;;;;;;;;;;;;;;;;474.75422520004213;475.7891425001435;475.7891425001435;475.7891425001435;475.7891425001435;475.7891425001435;475.7891425001435;475.7891425001435;475.7891425001435;['b', 'o', 'm', 'b', 'e', 'r', 'o'];0;bombero;C:\2023\REPSWITCH21092023\REPSWITCH_excgange\REPSWITCH_excgange\data/350102_REPSWITCH1_version1_list2_2023-12-12_15h10.50.951_micRespv1l2_recorded\recording_micRespv1l2_2023-12-12_15h18.42.756.wav;478.81725430022925;;None;478.81725430022925;478.81725430022925;478.81725430022925;478.81725430022925;478.81725430022925;478.81725430022925;[0.9705085996538401, 1.1816299995407462, 1.3580698994919658, 1.5962403998710215, 1.6789980996400118, 1.845965199638158, 1.902555599808693];;;;;;350102;001;2023-12-12_15h10.50.951;REPSWITCH1_version1_list2;2022.2.4;143.86150175267852;
REPSWITCH1/PICTURE_391.png;cadena;speak;gold;filler;2;F;4;3;2;1;Extra2;0;None;101;100;101;0;100;100;100;;;;;;;;;;;;;;;;;;;;;;;479.31728779990226;480.4703142000362;480.4703142000362;480.4703142000362;480.4703142000362;480.4703142000362;480.4703142000362;480.4703142000362;480.4703142000362;None;0;;C:\2023\REPSWITCH21092023\REPSWITCH_excgange\REPSWITCH_excgange\data/350102_REPSWITCH1_version1_list2_2023-12-12_15h10.50.951_micRespv1l2_recorded\recording_micRespv1l2_2023-12-12_15h18.47.437.wav;483.4984058998525;;None;483.4984058998525;483.4984058998525;483.4984058998525;483.4984058998525;483.4984058998525;483.4984058998525;;;;;;;350102;001;2023-12-12_15h10.50.951;REPSWITCH1_version1_list2;2022.2.4;143.86150175267852;
REPSWITCH1/PICTURE_590.png;escoba;type;darkblue;filler;1;F;4;3;2;1;Extra3;0;None;102;101;102;0;101;101;101;;;;;;;;;;;;;;;;;;;;;;;483.99846770009026;485.16533609991893;485.16533609991893;485.16533609991893;485.16533609991893;485.16533609991893;485.16533609991893;485.16533609991893;485.16533609991893;['e', 's', 'c', 'o', 'b', 'a'];0;escoba;C:\2023\REPSWITCH21092023\REPSWITCH_excgange\REPSWITCH_excgange\data/350102_REPSWITCH1_version1_list2_2023-12-12_15h10.50.951_micRespv1l2_recorded\recording_micRespv1l2_2023-12-12_15h18.52.132.wav;488.18653429998085;488.6865960001014;space;488.18653429998085;488.18653429998085;488.18653429998085;488.18653429998085;488.18653429998085;488.18653429998085;[1.2627467000856996, 1.4444384002126753, 1.7282489999197423, 1.8249411000870168, 2.100134199950844, 2.206803699955344];488.6865960001014;488.6865960001014;5.431449200026691;;;350102;001;2023-12-12_15h10.50.951;REPSWITCH1_version1_list2;2022.2.4;143.86150175267852;
REPSWITCH1/PICTURE_340.png;espejo;type;darkblue;filler;1;F;1;1;2;1;Extra1;0;None;103;102;1;0;102;102;102;;;;;;;;;;;;;;;;;;;;;;;494.1317664999515;495.23613339988515;495.23613339988515;495.23613339988515;495.23613339988515;495.23613339988515;495.23613339988515;495.23613339988515;495.23613339988515;['e', 's', 'e', 'j', 'o'];0;esejo;C:\2023\REPSWITCH21092023\REPSWITCH_excgange\REPSWITCH_excgange\data/350102_REPSWITCH1_version1_list2_2023-12-12_15h10.50.951_micRespv1l2_recorded\recording_micRespv1l2_2023-12-12_15h19.02.203.wav;498.2573469998315;498.75734880007803;None;498.2573469998315;498.2573469998315;498.2573469998315;498.2573469998315;498.2573469998315;498.2573469998315;[1.8508923999033868, 2.0295703997835517, 2.454171999823302, 2.5358948996290565, 2.61662989994511];;;;;;350102;001;2023-12-12_15h10.50.951;REPSWITCH1_version1_list2;2022.2.4;143.86150175267852;
REPSWITCH1/PICTURE_391.png;cadena;speak;gold;filler;2;F;1;1;2;1;Extra2;0;None;104;103;2;0;103;103;103;;;;;;;;;;;;;;;;;;;;;;;498.75734880007803;499.882578200195;499.882578200195;499.882578200195;499.882578200195;499.882578200195;499.882578200195;499.882578200195;499.882578200195;None;0;;C:\2023\REPSWITCH21092023\REPSWITCH_excgange\REPSWITCH_excgange\data/350102_REPSWITCH1_version1_list2_2023-12-12_15h10.50.951_micRespv1l2_recorded\recording_micRespv1l2_2023-12-12_15h19.06.851.wav;502.9107029000297;;None;502.9107029000297;502.9107029000297;502.9107029000297;502.9107029000297;502.9107029000297;502.9107029000297;;;;;;;350102;001;2023-12-12_15h10.50.951;REPSWITCH1_version1_list2;2022.2.4;143.86150175267852;
REPSWITCH1/PICTURE_178.png;puente;speak;gold;nontarget;2;NT;1;1;2;1;Stim1_Set1;1;repeat;105;104;3;0;104;104;104;;;;;;;;;;;;;;;;;;;;;;;503.4108321000822;504.49428980005905;504.49428980005905;504.49428980005905;504.49428980005905;504.49428980005905;504.49428980005905;504.49428980005905;504.49428980005905;None;0;;C:\2023\REPSWITCH21092023\REPSWITCH_excgange\REPSWITCH_excgange\data/350102_REPSWITCH1_version1_list2_2023-12-12_15h10.50.951_micRespv1l2_recorded\recording_micRespv1l2_2023-12-12_15h19.11.461.wav;507.51543560018763;508.0155338002369;None;507.51543560018763;507.51543560018763;507.51543560018763;507.51543560018763;507.51543560018763;507.51543560018763;;;;;;;350102;001;2023-12-12_15h10.50.951;REPSWITCH1_version1_list2;2022.2.4;143.86150175267852;
REPSWITCH1/PICTURE_178.png;puente;speak;gold;repeat;2;T;1;1;2;1;Stim1_Set1;0;None;106;105;4;0;105;105;105;;;;;;;;;;;;;;;;;;;;;;;508.0155338002369;509.1059599998407;509.1059599998407;509.1059599998407;509.1059599998407;509.1059599998407;509.1059599998407;509.1059599998407;509.1059599998407;None;0;;C:\2023\REPSWITCH21092023\REPSWITCH_excgange\REPSWITCH_excgange\data/350102_REPSWITCH1_version1_list2_2023-12-12_15h10.50.951_micRespv1l2_recorded\recording_micRespv1l2_2023-12-12_15h19.16.073.wav;512.1271860999987;512.6272729998454;None;512.1271860999987;512.1271860999987;512.1271860999987;512.1271860999987;512.1271860999987;512.1271860999987;;;;;;;350102;001;2023-12-12_15h10.50.951;REPSWITCH1_version1_list2;2022.2.4;143.86150175267852;
REPSWITCH1/PICTURE_319.png;vaca;type;darkblue;filler;1;F;1;1;2;1;Stim1_Set4;0;None;107;106;5;0;106;106;106;;;;;;;;;;;;;;;;;;;;;;;512.6272729998454;513.6551773999818;513.6551773999818;513.6551773999818;513.6551773999818;513.6551773999818;513.6551773999818;513.6551773999818;513.6551773999818;['v', 'a', 'c', 'a'];0;vaca;C:\2023\REPSWITCH21092023\REPSWITCH_excgange\REPSWITCH_excgange\data/350102_REPSWITCH1_version1_list2_2023-12-12_15h10.50.951_micRespv1l2_recorded\recording_micRespv1l2_2023-12-12_15h19.20.622.wav;516.6833100002259;;None;516.6833100002259;516.6833100002259;516.6833100002259;516.6833100002259;516.6833100002259;516.6833100002259;[0.9059775997884572, 0.9608114999718964, 1.1158460997976363, 1.1637194999493659];;;;;;350102;001;2023-12-12_15h10.50.951;REPSWITCH1_version1_list2;2022.2.4;143.86150175267852;
REPSWITCH1/PICTURE_381.png;fresa;speak;gold;nontarget;2;NT;1;1;2;1;Stim2_Set1;1;switch;108;107;6;0;107;107;107;;;;;;;;;;;;;;;;;;;;;;;517.1833772999234;518.4197355001234;518.4197355001234;518.4197355001234;518.4197355001234;518.4197355001234;518.4197355001234;518.4197355001234;518.4197355001234;None;0;;C:\2023\REPSWITCH21092023\REPSWITCH_excgange\REPSWITCH_excgange\data/350102_REPSWITCH1_version1_list2_2023-12-12_15h10.50.951_micRespv1l2_recorded\recording_micRespv1l2_2023-12-12_15h19.25.387.wav;521.4479272002354;;None;521.4479272002354;521.4479272002354;521.4479272002354;521.4479272002354;521.4479272002354;521.4479272002354;;;;;;;350102;001;2023-12-12_15h10.50.951;REPSWITCH1_version1_list2;2022.2.4;143.86150175267852;
REPSWITCH1/PICTURE_381.png;fresa;speak;gold;repeat;2;T;1;1;2;1;Stim2_Set1;0;None;109;108;7;0;108;108;108;;;;;;;;;;;;;;;;;;;;;;;521.9479029001668;523.0730689000338;523.0730689000338;523.0730689000338;523.0730689000338;523.0730689000338;523.0730689000338;523.0730689000338;523.0730689000338;None;0;;C:\2023\REPSWITCH21092023\REPSWITCH_excgange\REPSWITCH_excgange\data/350102_REPSWITCH1_version1_list2_2023-12-12_15h10.50.951_micRespv1l2_recorded\recording_micRespv1l2_2023-12-12_15h19.30.039.wav;526.0942759001628;526.5943360002711;None;526.0942759001628;526.0942759001628;526.0942759001628;526.0942759001628;526.0942759001628;526.0942759001628;;;;;;;350102;001;2023-12-12_15h10.50.951;REPSWITCH1_version1_list2;2022.2.4;143.86150175267852;
REPSWITCH1/PICTURE_719.png;baño;type;darkblue;filler;1;F;1;1;2;1;Stim2_Set4;1;switch;110;109;8;0;109;109;109;;;;;;;;;;;;;;;;;;;;;;;526.5943360002711;527.7265039999038;527.7265039999038;527.7265039999038;527.7265039999038;527.7265039999038;527.7265039999038;527.7265039999038;527.7265039999038;['b', 'a', 'ñ', 'o'];0;baño;C:\2023\REPSWITCH21092023\REPSWITCH_excgange\REPSWITCH_excgange\data/350102_REPSWITCH1_version1_list2_2023-12-12_15h10.50.951_micRespv1l2_recorded\recording_micRespv1l2_2023-12-12_15h19.34.694.wav;530.7546243001707;531.2547698998824;None;530.7546243001707;530.7546243001707;530.7546243001707;530.7546243001707;530.7546243001707;530.7546243001707;[1.0265434999018908, 1.1899409997276962, 1.5958618996664882, 1.7188299000263214];;;;;;350102;001;2023-12-12_15h10.50.951;REPSWITCH1_version1_list2;2022.2.4;143.86150175267852;
REPSWITCH1/PICTURE_135.png;traje;speak;gold;nontarget;2;NT;1;1;2;1;Stim3_Set1;0;None;111;110;9;0;110;110;110;;;;;;;;;;;;;;;;;;;;;;;531.2547698998824;532.3589917002246;532.3589917002246;532.3589917002246;532.3589917002246;532.3589917002246;532.3589917002246;532.3589917002246;532.3589917002246;None;0;;C:\2023\REPSWITCH21092023\REPSWITCH_excgange\REPSWITCH_excgange\data/350102_REPSWITCH1_version1_list2_2023-12-12_15h10.50.951_micRespv1l2_recorded\recording_micRespv1l2_2023-12-12_15h19.39.326.wav;535.3802585001104;535.8802775000222;None;535.3802585001104;535.3802585001104;535.3802585001104;535.3802585001104;535.3802585001104;535.3802585001104;;;;;;;350102;001;2023-12-12_15h10.50.951;REPSWITCH1_version1_list2;2022.2.4;143.86150175267852;
REPSWITCH1/PICTURE_135.png;traje;type;darkblue;switch;1;T;1;1;2;1;Stim3_Set1;0;None;112;111;10;0;111;111;111;;;;;;;;;;;;;;;;;;;;;;;535.8802775000222;537.0332337999716;537.0332337999716;537.0332337999716;537.0332337999716;537.0332337999716;537.0332337999716;537.0332337999716;537.0332337999716;['t', 'r', 'a', 'j', 'e'];0;traje;C:\2023\REPSWITCH21092023\REPSWITCH_excgange\REPSWITCH_excgange\data/350102_REPSWITCH1_version1_list2_2023-12-12_15h10.50.951_micRespv1l2_recorded\recording_micRespv1l2_2023-12-12_15h19.44.000.wav;540.0545133999549;540.554491400253;None;540.0545133999549;540.0545133999549;540.0545133999549;540.0545133999549;540.0545133999549;540.0545133999549;[1.1424435996450484, 1.289922900032252, 1.363674699794501, 1.730840299744159, 2.654329299926758];;;;;;350102;001;2023-12-12_15h10.50.951;REPSWITCH1_version1_list2;2022.2.4;143.86150175267852;
REPSWITCH1/PICTURE_687.png;camisa;speak;gold;filler;2;F;1;1;2;1;Stim5_Set4;0;None;113;112;11;0;112;112;112;;;;;;;;;;;;;;;;;;;;;;;540.554491400253;541.5824262001552;541.5824262001552;541.5824262001552;541.5824262001552;541.5824262001552;541.5824262001552;541.5824262001552;541.5824262001552;None;0;;C:\2023\REPSWITCH21092023\REPSWITCH_excgange\REPSWITCH_excgange\data/350102_REPSWITCH1_version1_list2_2023-12-12_15h10.50.951_micRespv1l2_recorded\recording_micRespv1l2_2023-12-12_15h19.48.550.wav;544.6106103998609;;None;544.6106103998609;544.6106103998609;544.6106103998609;544.6106103998609;544.6106103998609;544.6106103998609;;;;;;;350102;001;2023-12-12_15h10.50.951;REPSWITCH1_version1_list2;2022.2.4;143.86150175267852;
REPSWITCH1/PICTURE_128.png;muñeca;type;darkblue;nontarget;1;NT;1;1;2;1;Stim4_Set1;1;switch;114;113;12;0;113;113;113;;;;;;;;;;;;;;;;;;;;;;;545.1106795002706;546.2219491000287;546.2219491000287;546.2219491000287;546.2219491000287;546.2219491000287;546.2219491000287;546.2219491000287;546.2219491000287;['m', 'u', 'ñ', 'e', 'c', 'a'];0;muñeca;C:\2023\REPSWITCH21092023\REPSWITCH_excgange\REPSWITCH_excgange\data/350102_REPSWITCH1_version1_list2_2023-12-12_15h10.50.951_micRespv1l2_recorded\recording_micRespv1l2_2023-12-12_15h19.53.189.wav;549.2501094001345;;None;549.2501094001345;549.2501094001345;549.2501094001345;549.2501094001345;549.2501094001345;549.2501094001345;[1.5643206997774541, 1.7108122995123267, 2.2491555996239185, 2.3657323997467756, 2.5999832996167243, 2.6587817994877696];;;;;;350102;001;2023-12-12_15h10.50.951;REPSWITCH1_version1_list2;2022.2.4;143.86150175267852;
REPSWITCH1/PICTURE_128.png;muñeca;speak;gold;switch;2;T;1;1;2;1;Stim4_Set1;0;None;115;114;13;0;114;114;114;;;;;;;;;;;;;;;;;;;;;;;549.7501620999537;550.8614558000118;550.8614558000118;550.8614558000118;550.8614558000118;550.8614558000118;550.8614558000118;550.8614558000118;550.8614558000118;None;0;;C:\2023\REPSWITCH21092023\REPSWITCH_excgange\REPSWITCH_excgange\data/350102_REPSWITCH1_version1_list2_2023-12-12_15h10.50.951_micRespv1l2_recorded\recording_micRespv1l2_2023-12-12_15h19.57.829.wav;553.8826909000054;554.3828027001582;None;553.8826909000054;553.8826909000054;553.8826909000054;553.8826909000054;553.8826909000054;553.8826909000054;;;;;;;350102;001;2023-12-12_15h10.50.951;REPSWITCH1_version1_list2;2022.2.4;143.86150175267852;
REPSWITCH1/PICTURE_8.png;pierna;speak;gold;filler;2;F;1;1;2;1;Stim3_Set4;0;None;116;115;14;0;115;115;115;;;;;;;;;;;;;;;;;;;;;;;554.3828027001582;555.4036838002503;555.4036838002503;555.4036838002503;555.4036838002503;555.4036838002503;555.4036838002503;555.4036838002503;555.4036838002503;None;0;;C:\2023\REPSWITCH21092023\REPSWITCH_excgange\REPSWITCH_excgange\data/350102_REPSWITCH1_version1_list2_2023-12-12_15h10.50.951_micRespv1l2_recorded\recording_micRespv1l2_2023-12-12_15h20.02.370.wav;558.4249301999807;558.9249904998578;None;558.4249301999807;558.4249301999807;558.4249301999807;558.4249301999807;558.4249301999807;558.4249301999807;;;;;;;350102;001;2023-12-12_15h10.50.951;REPSWITCH1_version1_list2;2022.2.4;143.86150175267852;
REPSWITCH1/PICTURE_19.png;pavo;speak;gold;nontarget;2;NT;1;1;2;1;Stim5_Set1;0;None;117;116;15;0;116;116;116;;;;;;;;;;;;;;;;;;;;;;;558.9249904998578;560.0084668002091;560.0084668002091;560.0084668002091;560.0084668002091;560.0084668002091;560.0084668002091;560.0084668002091;560.0084668002091;None;0;;C:\2023\REPSWITCH21092023\REPSWITCH_excgange\REPSWITCH_excgange\data/350102_REPSWITCH1_version1_list2_2023-12-12_15h10.50.951_micRespv1l2_recorded\recording_micRespv1l2_2023-12-12_15h20.06.975.wav;563.0296634002589;563.5297583001666;None;563.0296634002589;563.0296634002589;563.0296634002589;563.0296634002589;563.0296634002589;563.0296634002589;;;;;;;350102;001;2023-12-12_15h10.50.951;REPSWITCH1_version1_list2;2022.2.4;143.86150175267852;
REPSWITCH1/PICTURE_19.png;pavo;type;darkblue;switch;1;T;1;1;2;1;Stim5_Set1;0;None;118;117;16;0;117;117;117;;;;;;;;;;;;;;;;;;;;;;;563.5297583001666;564.6479743001983;564.6479743001983;564.6479743001983;564.6479743001983;564.6479743001983;564.6479743001983;564.6479743001983;564.6479743001983;['p', 'a', 'v', 'o'];0;pavo;C:\2023\REPSWITCH21092023\REPSWITCH_excgange\REPSWITCH_excgange\data/350102_REPSWITCH1_version1_list2_2023-12-12_15h10.50.951_micRespv1l2_recorded\recording_micRespv1l2_2023-12-12_15h20.11.616.wav;567.6761564998887;;None;567.6761564998887;567.6761564998887;567.6761564998887;567.6761564998887;567.6761564998887;567.6761564998887;[1.3651914997026324, 1.4790548998862505, 1.7949852999299765, 1.8737344997934997];;;;;;350102;001;2023-12-12_15h10.50.951;REPSWITCH1_version1_list2;2022.2.4;143.86150175267852;
REPSWITCH1/PICTURE_16.png;cazador;type;darkblue;nontarget;1;NT;1;1;2;1;Stim6_Set1;1;switch;119;118;17;0;118;118;118;;;;;;;;;;;;;;;;;;;;;;;568.1762069002725;569.2458116002381;569.2458116002381;569.2458116002381;569.2458116002381;569.2458116002381;569.2458116002381;569.2458116002381;569.2458116002381;['c', 'a', 'z', 'a', 'd', 'o', 'r'];0;cazador;C:\2023\REPSWITCH21092023\REPSWITCH_excgange\REPSWITCH_excgange\data/350102_REPSWITCH1_version1_list2_2023-12-12_15h10.50.951_micRespv1l2_recorded\recording_micRespv1l2_2023-12-12_15h20.16.212.wav;572.267024199944;572.7671205000952;None;572.267024199944;572.267024199944;572.267024199944;572.267024199944;572.267024199944;572.267024199944;[0.9318396998569369, 1.1685003000311553, 1.3636847999878228, 1.5362702999264002, 1.7146181999705732, 1.8033250998705626, 1.9144242997281253];;;;;;350102;001;2023-12-12_15h10.50.951;REPSWITCH1_version1_list2;2022.2.4;143.86150175267852;
REPSWITCH1/PICTURE_16.png;cazador;type;darkblue;repeat;1;T;1;1;2;1;Stim6_Set1;0;None;120;119;18;0;119;119;119;;;;;;;;;;;;;;;;;;;;;;;572.7671205000952;573.8853414999321;573.8853414999321;573.8853414999321;573.8853414999321;573.8853414999321;573.8853414999321;573.8853414999321;573.8853414999321;['c', 'a', 'a', 'z', 'a', 'd', 'o', 'r'];0;caazador;C:\2023\REPSWITCH21092023\REPSWITCH_excgange\REPSWITCH_excgange\data/350102_REPSWITCH1_version1_list2_2023-12-12_15h10.50.951_micRespv1l2_recorded\recording_micRespv1l2_2023-12-12_15h20.20.853.wav;576.9134349999949;;None;576.9134349999949;576.9134349999949;576.9134349999949;576.9134349999949;576.9134349999949;576.9134349999949;[0.7329571000300348, 0.9787869998253882, 1.0525393998250365, 1.1831064000725746, 1.3605030002072453, 1.529363099951297, 1.6336906999349594, 1.7194138001650572];;;;;;350102;001;2023-12-12_15h10.50.951;REPSWITCH1_version1_list2;2022.2.4;143.86150175267852;
REPSWITCH1/PICTURE_498.png;taza;speak;gold;filler;2;F;1;1;2;1;Stim4_Set4;0;None;121;120;19;0;120;120;120;;;;;;;;;;;;;;;;;;;;;;;577.4135123998858;578.5386558999307;578.5386558999307;578.5386558999307;578.5386558999307;578.5386558999307;578.5386558999307;578.5386558999307;578.5386558999307;None;0;;C:\2023\REPSWITCH21092023\REPSWITCH_excgange\REPSWITCH_excgange\data/350102_REPSWITCH1_version1_list2_2023-12-12_15h10.50.951_micRespv1l2_recorded\recording_micRespv1l2_2023-12-12_15h20.25.506.wav;581.5598694998771;582.059973299969;None;581.5598694998771;581.5598694998771;581.5598694998771;581.5598694998771;581.5598694998771;581.5598694998771;;;;;;;350102;001;2023-12-12_15h10.50.951;REPSWITCH1_version1_list2;2022.2.4;143.86150175267852;
