image;correctAns;respModal;frameColor;repSwitch;sequence;target;set;block;list;exp_version;stimulus;baseline;baseline_condition;trial_no;psychopy_trial;Column1;trialsREPSWITCH.thisRepN;trialsREPSWITCH.thisTrialN;trialsREPSWITCH.thisN;trialsREPSWITCH.thisIndex;textWelcome.started;textboxInstrMain1.started;textboxInstrMain1_2.started;textboxInstrMain1_3.started;keyInstrMain.started;keyInstrMain.keys;keyInstrMain.rt;textboxInstrMain2.started;textboxInstrMain2_2.started;textboxInstrMain2_3.started;textboxInstrMain2_4.started;textboxInstrMain2_5.started;textboxInstrMain2_6.started;textboxInstrMain2_7.started;textboxInstrMain2_8.started;textboxInstrMain2_9.started;textboxInstrMain2_10.started;textboxInstrMain2_11.started;textboxInstrMain2_12.started;keyInstrMain2.started;keyInstrMain2.keys;keyInstrMain2.rt;fixationITI.started;fixationITI.stopped;polygonColour.started;polygonWhite.started;imageObject.started;polygonType.started;textInput.started;keyResp.started;micRespv2l4.started;polygonColour.stopped;polygonWhite.stopped;imageObject.stopped;polygonType.stopped;textInput.stopped;keyResp.stopped;keyResp.keys;keyResp.corr;keyResp.rt;subjResponse;micRespv2l4.clip;textBlankLoop.started;textBlankLoop.stopped;keyPause.keys;textboxPause.started;keyPause.started;keyPause.rt;textboxGoodbye.started;textboxGoodbye.stopped;participant;session;date;expName;psychopyVersion;frameRate;Column2
;;;;;;;;;;;;;;;;;;;;;8.47117909998633;10.965372999897227;10.965372999897227;10.965372999897227;10.965372999897227;space;2.163957400014624;;;;;;;;;;;;;;;;;;;;;;;;;;;;;;;;;;;;;;;;;;;;240204;001;2023-12-01_16h45.36.179;REPSWITCH1_version2_list4;2022.2.4;143.96422816658344;
;;;;;;;;;;;;;;;;;;;;;;;;;;;;13.146218799985945;13.146218799985945;13.146218799985945;13.146218799985945;13.146218799985945;13.146218799985945;13.146218799985945;13.146218799985945;13.146218799985945;13.146218799985945;13.146218799985945;13.146218799985945;13.146218799985945;space;2.286376800155267;;;;;;;;;;;;;;;;;;;;;;;;;;;;;240204;001;2023-12-01_16h45.36.179;REPSWITCH1_version2_list4;2022.2.4;143.96422816658344;
REPSWITCH1/PICTURE_8.png;pierna;type;gold;filler;1;F;1;4;4;2;Stim3_Set4;0;None;1;0;1;0;0;0;0;;;;;;;;;;;;;;;;;;;;;;;15.528428500052541;16.625807699980214;16.625807699980214;16.625807699980214;16.625807699980214;16.625807699980214;16.625807699980214;16.625807699980214;16.625807699980214;19.654049299890175;19.654049299890175;19.654049299890175;19.654049299890175;19.654049299890175;19.654049299890175;['p', 'i', 'e', 'r', 'n', 'a'];0;[2.1449347999878228, 2.2984037999995053, 2.3552058001514524, 2.4179557999596, 2.5027044001035392, 2.614896100014448];pierna;C:\2023\REPSWITCH21092023\REPSWITCH_excgange\REPSWITCH_excgange\data/240204_REPSWITCH1_version2_list4_2023-12-01_16h45.36.179_micRespv2l4_recorded\recording_micRespv2l4_2023-12-01_16h45.49.120.wav;19.654049299890175;20.154074599966407;None;;;;;;240204;001;2023-12-01_16h45.36.179;REPSWITCH1_version2_list4;2022.2.4;143.96422816658344;
REPSWITCH1/PICTURE_498.png;taza;speak;darkblue;filler;2;F;1;4;4;2;Stim4_Set4;0;None;2;1;2;0;1;1;1;;;;;;;;;;;;;;;;;;;;;;;20.154074599966407;21.279224399942905;21.279224399942905;21.279224399942905;21.279224399942905;21.279224399942905;21.279224399942905;21.279224399942905;21.279224399942905;24.307453700108454;24.307453700108454;24.307453700108454;24.307453700108454;24.307453700108454;24.307453700108454;None;0;;;C:\2023\REPSWITCH21092023\REPSWITCH_excgange\REPSWITCH_excgange\data/240204_REPSWITCH1_version2_list4_2023-12-01_16h45.36.179_micRespv2l4_recorded\recording_micRespv2l4_2023-12-01_16h45.53.771.wav;24.307453700108454;;None;;;;;;240204;001;2023-12-01_16h45.36.179;REPSWITCH1_version2_list4;2022.2.4;143.96422816658344;
REPSWITCH1/PICTURE_19.png;pavo;speak;darkblue;nontarget;2;NT;1;4;4;2;Stim5_Set1;1;repeat;3;2;3;0;2;2;2;;;;;;;;;;;;;;;;;;;;;;;24.807440100004897;25.828484599944204;25.828484599944204;25.828484599944204;25.828484599944204;25.828484599944204;25.828484599944204;25.828484599944204;25.828484599944204;28.84962569992058;28.84962569992058;28.84962569992058;28.84962569992058;28.84962569992058;28.84962569992058;None;0;;;C:\2023\REPSWITCH21092023\REPSWITCH_excgange\REPSWITCH_excgange\data/240204_REPSWITCH1_version2_list4_2023-12-01_16h45.36.179_micRespv2l4_recorded\recording_micRespv2l4_2023-12-01_16h45.58.319.wav;28.84962569992058;29.3497085000854;None;;;;;;240204;001;2023-12-01_16h45.36.179;REPSWITCH1_version2_list4;2022.2.4;143.96422816658344;
REPSWITCH1/PICTURE_19.png;pavo;speak;darkblue;repeat;2;T;1;4;4;2;Stim5_Set1;0;None;4;3;4;0;3;3;3;;;;;;;;;;;;;;;;;;;;;;;29.3497085000854;30.5581996999681;30.5581996999681;30.5581996999681;30.5581996999681;30.5581996999681;30.5581996999681;30.5581996999681;30.5581996999681;33.58637519995682;33.58637519995682;33.58637519995682;33.58637519995682;33.58637519995682;33.58637519995682;None;0;;;C:\2023\REPSWITCH21092023\REPSWITCH_excgange\REPSWITCH_excgange\data/240204_REPSWITCH1_version2_list4_2023-12-01_16h45.36.179_micRespv2l4_recorded\recording_micRespv2l4_2023-12-01_16h46.03.050.wav;33.58637519995682;;None;;;;;;240204;001;2023-12-01_16h45.36.179;REPSWITCH1_version2_list4;2022.2.4;143.96422816658344;
REPSWITCH1/PICTURE_319.png;vaca;type;gold;filler;1;F;1;4;4;2;Stim1_Set4;1;repeat;5;4;5;0;4;4;4;;;;;;;;;;;;;;;;;;;;;;;34.0864987000823;35.16994119994342;35.16994119994342;35.16994119994342;35.16994119994342;35.16994119994342;35.16994119994342;35.16994119994342;35.16994119994342;38.191165700089186;38.191165700089186;38.191165700089186;38.191165700089186;38.191165700089186;38.191165700089186;['v', 'a', 'c', 'a'];0;[1.1730411001481116, 1.2447376002091914, 1.3723013002891093, 1.4530429001897573];vaca;C:\2023\REPSWITCH21092023\REPSWITCH_excgange\REPSWITCH_excgange\data/240204_REPSWITCH1_version2_list4_2023-12-01_16h45.36.179_micRespv2l4_recorded\recording_micRespv2l4_2023-12-01_16h46.07.661.wav;38.191165700089186;38.69122779997997;None;;;;;;240204;001;2023-12-01_16h45.36.179;REPSWITCH1_version2_list4;2022.2.4;143.96422816658344;
REPSWITCH1/PICTURE_169.png;espalda;speak;darkblue;nontarget;2;NT;1;4;4;2;Stim8_Set1;1;switch;6;5;6;0;5;5;5;;;;;;;;;;;;;;;;;;;;;;;38.69122779997997;39.87892789999023;39.87892789999023;39.87892789999023;39.87892789999023;39.87892789999023;39.87892789999023;39.87892789999023;39.87892789999023;42.900186700047925;42.900186700047925;42.900186700047925;42.900186700047925;42.900186700047925;42.900186700047925;None;0;;;C:\2023\REPSWITCH21092023\REPSWITCH_excgange\REPSWITCH_excgange\data/240204_REPSWITCH1_version2_list4_2023-12-01_16h45.36.179_micRespv2l4_recorded\recording_micRespv2l4_2023-12-01_16h46.12.370.wav;42.900186700047925;43.4001728000585;None;;;;;;240204;001;2023-12-01_16h45.36.179;REPSWITCH1_version2_list4;2022.2.4;143.96422816658344;
REPSWITCH1/PICTURE_169.png;espalda;speak;darkblue;repeat;2;T;1;4;4;2;Stim8_Set1;0;None;7;6;7;0;6;6;6;;;;;;;;;;;;;;;;;;;;;;;43.4001728000585;44.56700149993412;44.56700149993412;44.56700149993412;44.56700149993412;44.56700149993412;44.56700149993412;44.56700149993412;44.56700149993412;47.58829559991136;47.58829559991136;47.58829559991136;47.58829559991136;47.58829559991136;47.58829559991136;None;0;;;C:\2023\REPSWITCH21092023\REPSWITCH_excgange\REPSWITCH_excgange\data/240204_REPSWITCH1_version2_list4_2023-12-01_16h45.36.179_micRespv2l4_recorded\recording_micRespv2l4_2023-12-01_16h46.17.058.wav;47.58829559991136;48.08829140011221;None;;;;;;240204;001;2023-12-01_16h45.36.179;REPSWITCH1_version2_list4;2022.2.4;143.96422816658344;
REPSWITCH1/PICTURE_728.png;pulpo;type;gold;filler;1;F;1;4;4;2;Stim8_Set4;0;None;8;7;8;0;7;7;7;;;;;;;;;;;;;;;;;;;;;;;48.08829140011221;49.20647220010869;49.20647220010869;49.20647220010869;49.20647220010869;49.20647220010869;49.20647220010869;49.20647220010869;49.20647220010869;52.22779619996436;52.22779619996436;52.22779619996436;52.22779619996436;52.22779619996436;52.22779619996436;['p', 'u', 'l', 'p', 'o'];0;[1.8233964000828564, 2.047582400031388, 2.403201699955389, 2.5607030000537634, 2.6654129999224097];pulpo;C:\2023\REPSWITCH21092023\REPSWITCH_excgange\REPSWITCH_excgange\data/240204_REPSWITCH1_version2_list4_2023-12-01_16h45.36.179_micRespv2l4_recorded\recording_micRespv2l4_2023-12-01_16h46.21.697.wav;52.22779619996436;52.727794100064784;None;;;;;;240204;001;2023-12-01_16h45.36.179;REPSWITCH1_version2_list4;2022.2.4;143.96422816658344;
REPSWITCH1/PICTURE_142.png;vaso;speak;darkblue;nontarget;2;NT;1;4;4;2;Stim7_Set1;1;switch;9;8;9;0;8;8;8;;;;;;;;;;;;;;;;;;;;;;;52.727794100064784;53.93634089990519;53.93634089990519;53.93634089990519;53.93634089990519;53.93634089990519;53.93634089990519;53.93634089990519;53.93634089990519;56.96450409991667;56.96450409991667;56.96450409991667;56.96450409991667;56.96450409991667;56.96450409991667;None;0;;;C:\2023\REPSWITCH21092023\REPSWITCH_excgange\REPSWITCH_excgange\data/240204_REPSWITCH1_version2_list4_2023-12-01_16h45.36.179_micRespv2l4_recorded\recording_micRespv2l4_2023-12-01_16h46.26.428.wav;56.96450409991667;;None;;;;;;240204;001;2023-12-01_16h45.36.179;REPSWITCH1_version2_list4;2022.2.4;143.96422816658344;
REPSWITCH1/PICTURE_142.png;vaso;type;gold;switch;1;T;1;4;4;2;Stim7_Set1;0;None;10;9;10;0;9;9;9;;;;;;;;;;;;;;;;;;;;;;;57.46448100009002;58.520233700051904;58.520233700051904;58.520233700051904;58.520233700051904;58.520233700051904;58.520233700051904;58.520233700051904;58.520233700051904;61.541414600098506;61.541414600098506;61.541414600098506;61.541414600098506;61.541414600098506;61.541414600098506;['v', 'a', 's', 'o'];0;[0.6935305001679808, 0.826067800167948, 0.9137860999908298, 1.0531772000249475];vaso;C:\2023\REPSWITCH21092023\REPSWITCH_excgange\REPSWITCH_excgange\data/240204_REPSWITCH1_version2_list4_2023-12-01_16h45.36.179_micRespv2l4_recorded\recording_micRespv2l4_2023-12-01_16h46.31.011.wav;61.541414600098506;62.04147109994665;None;;;;;;240204;001;2023-12-01_16h45.36.179;REPSWITCH1_version2_list4;2022.2.4;143.96422816658344;
REPSWITCH1/PICTURE_338.png;regalo;type;gold;filler;1;F;1;4;4;2;Stim6_Set4;1;repeat;11;10;11;0;10;10;10;;;;;;;;;;;;;;;;;;;;;;;62.04147109994665;63.17361610010266;63.17361610010266;63.17361610010266;63.17361610010266;63.17361610010266;63.17361610010266;63.17361610010266;63.17361610010266;66.201846400043;66.201846400043;66.201846400043;66.201846400043;66.201846400043;66.201846400043;['r', 'e', 'g', 'a', 'l', 'o'];0;[1.1986462001223117, 1.2643769001588225, 1.3770406001713127, 1.4617543001659214, 1.4976394001860172, 1.8697021000552922];regalo;C:\2023\REPSWITCH21092023\REPSWITCH_excgange\REPSWITCH_excgange\data/240204_REPSWITCH1_version2_list4_2023-12-01_16h45.36.179_micRespv2l4_recorded\recording_micRespv2l4_2023-12-01_16h46.35.665.wav;66.201846400043;;None;;;;;;240204;001;2023-12-01_16h45.36.179;REPSWITCH1_version2_list4;2022.2.4;143.96422816658344;
REPSWITCH1/PICTURE_135.png;traje;type;gold;nontarget;1;NT;1;4;4;2;Stim3_Set1;1;repeat;12;11;12;0;11;11;11;;;;;;;;;;;;;;;;;;;;;;;66.70184540003538;67.81316690007225;67.81316690007225;67.81316690007225;67.81316690007225;67.81316690007225;67.81316690007225;67.81316690007225;67.81316690007225;70.84134000004269;70.84134000004269;70.84134000004269;70.84134000004269;70.84134000004269;70.84134000004269;['t', 'r', 'a', 'j', 'e'];0;[1.0496603001374751, 1.118799899937585, 1.2048526001162827, 1.3059350000694394, 1.379323499975726];traje;C:\2023\REPSWITCH21092023\REPSWITCH_excgange\REPSWITCH_excgange\data/240204_REPSWITCH1_version2_list4_2023-12-01_16h45.36.179_micRespv2l4_recorded\recording_micRespv2l4_2023-12-01_16h46.40.305.wav;70.84134000004269;;None;;;;;;240204;001;2023-12-01_16h45.36.179;REPSWITCH1_version2_list4;2022.2.4;143.96422816658344;
REPSWITCH1/PICTURE_135.png;traje;speak;darkblue;switch;2;T;1;4;4;2;Stim3_Set1;0;None;13;12;13;0;12;12;12;;;;;;;;;;;;;;;;;;;;;;;71.34140389994718;72.41099200001918;72.41099200001918;72.41099200001918;72.41099200001918;72.41099200001918;72.41099200001918;72.41099200001918;72.41099200001918;75.43917770008557;75.43917770008557;75.43917770008557;75.43917770008557;75.43917770008557;75.43917770008557;None;0;;;C:\2023\REPSWITCH21092023\REPSWITCH_excgange\REPSWITCH_excgange\data/240204_REPSWITCH1_version2_list4_2023-12-01_16h45.36.179_micRespv2l4_recorded\recording_micRespv2l4_2023-12-01_16h46.44.903.wav;75.43917770008557;;None;;;;;;240204;001;2023-12-01_16h45.36.179;REPSWITCH1_version2_list4;2022.2.4;143.96422816658344;
REPSWITCH1/PICTURE_381.png;fresa;speak;darkblue;nontarget;2;NT;1;4;4;2;Stim2_Set1;1;repeat;14;13;14;0;13;13;13;;;;;;;;;;;;;;;;;;;;;;;75.93916169996373;77.0087596999947;77.0087596999947;77.0087596999947;77.0087596999947;77.0087596999947;77.0087596999947;77.0087596999947;77.0087596999947;80.02998579991981;80.02998579991981;80.02998579991981;80.02998579991981;80.02998579991981;80.02998579991981;None;0;;;C:\2023\REPSWITCH21092023\REPSWITCH_excgange\REPSWITCH_excgange\data/240204_REPSWITCH1_version2_list4_2023-12-01_16h45.36.179_micRespv2l4_recorded\recording_micRespv2l4_2023-12-01_16h46.49.500.wav;80.02998579991981;80.53004750004038;None;;;;;;240204;001;2023-12-01_16h45.36.179;REPSWITCH1_version2_list4;2022.2.4;143.96422816658344;
REPSWITCH1/PICTURE_381.png;fresa;type;gold;switch;1;T;1;4;4;2;Stim2_Set1;0;None;15;14;15;0;14;14;14;;;;;;;;;;;;;;;;;;;;;;;80.53004750004038;81.57190839992836;81.57190839992836;81.57190839992836;81.57190839992836;81.57190839992836;81.57190839992836;81.57190839992836;81.57190839992836;84.60004350007512;84.60004350007512;84.60004350007512;84.60004350007512;84.60004350007512;84.60004350007512;['f', 'r', 'e', 's', 'a'];0;[0.9874366000294685, 1.0911453000735492, 1.117936700116843, 1.3139941000845283, 1.4445946000050753];fresa;C:\2023\REPSWITCH21092023\REPSWITCH_excgange\REPSWITCH_excgange\data/240204_REPSWITCH1_version2_list4_2023-12-01_16h45.36.179_micRespv2l4_recorded\recording_micRespv2l4_2023-12-01_16h46.54.063.wav;84.60004350007512;;None;;;;;;240204;001;2023-12-01_16h45.36.179;REPSWITCH1_version2_list4;2022.2.4;143.96422816658344;
REPSWITCH1/PICTURE_48.png;bombero;type;gold;filler;1;F;1;4;4;2;Stim7_Set4;0;None;16;15;16;0;15;15;15;;;;;;;;;;;;;;;;;;;;;;;85.10016179992817;86.17659709998406;86.17659709998406;86.17659709998406;86.17659709998406;86.17659709998406;86.17659709998406;86.17659709998406;86.17659709998406;89.20486430008896;89.20486430008896;89.20486430008896;89.20486430008896;89.20486430008896;89.20486430008896;['b', 'o', 'm', 'b', 'e', 'r', 'o'];0;[1.0237785000354052, 1.1683241999708116, 1.3570175000932068, 1.564328300068155, 1.7825825000181794, 1.8533509001135826, 2.0698691001161933];bombero;C:\2023\REPSWITCH21092023\REPSWITCH_excgange\REPSWITCH_excgange\data/240204_REPSWITCH1_version2_list4_2023-12-01_16h45.36.179_micRespv2l4_recorded\recording_micRespv2l4_2023-12-01_16h46.58.667.wav;89.20486430008896;;None;;;;;;240204;001;2023-12-01_16h45.36.179;REPSWITCH1_version2_list4;2022.2.4;143.96422816658344;
REPSWITCH1/PICTURE_687.png;camisa;speak;darkblue;filler;2;F;1;4;4;2;Stim5_Set4;0;None;17;16;17;0;16;16;16;;;;;;;;;;;;;;;;;;;;;;;89.70486139995046;90.73970669996925;90.73970669996925;90.73970669996925;90.73970669996925;90.73970669996925;90.73970669996925;90.73970669996925;90.73970669996925;93.76096439990215;93.76096439990215;93.76096439990215;93.76096439990215;93.76096439990215;93.76096439990215;None;0;;;C:\2023\REPSWITCH21092023\REPSWITCH_excgange\REPSWITCH_excgange\data/240204_REPSWITCH1_version2_list4_2023-12-01_16h45.36.179_micRespv2l4_recorded\recording_micRespv2l4_2023-12-01_16h47.03.231.wav;93.76096439990215;94.26101520005614;None;;;;;;240204;001;2023-12-01_16h45.36.179;REPSWITCH1_version2_list4;2022.2.4;143.96422816658344;
REPSWITCH1/PICTURE_128.png;muñeca;type;gold;nontarget;1;NT;1;4;4;2;Stim4_Set1;0;None;18;17;18;0;17;17;17;;;;;;;;;;;;;;;;;;;;;;;94.26101520005614;95.35144430003129;95.35144430003129;95.35144430003129;95.35144430003129;95.35144430003129;95.35144430003129;95.35144430003129;95.35144430003129;98.37957799993455;98.37957799993455;98.37957799993455;98.37957799993455;98.37957799993455;98.37957799993455;['m', 'u', 'l', 'e', 'backspace', 'backspace'];0;[0.9770120002795011, 1.1178203001618385, 1.3581869001500309, 1.387460700236261, 2.1709569001104683, 2.290630900301039, 2.9849774001631886];muñ;C:\2023\REPSWITCH21092023\REPSWITCH_excgange\REPSWITCH_excgange\data/240204_REPSWITCH1_version2_list4_2023-12-01_16h45.36.179_micRespv2l4_recorded\recording_micRespv2l4_2023-12-01_16h47.07.843.wav;98.37957799993455;98.87966830004007;None;;;;;;240204;001;2023-12-01_16h45.36.179;REPSWITCH1_version2_list4;2022.2.4;143.96422816658344;
REPSWITCH1/PICTURE_128.png;muñeca;type;gold;repeat;1;T;1;4;4;2;Stim4_Set1;0;None;19;18;19;0;18;18;18;;;;;;;;;;;;;;;;;;;;;;;98.87966830004007;99.9214665000327;99.9214665000327;99.9214665000327;99.9214665000327;99.9214665000327;99.9214665000327;99.9214665000327;99.9214665000327;102.94964149990119;102.94964149990119;102.94964149990119;102.94964149990119;102.94964149990119;102.94964149990119;['m', 'u', 'ñ', 'e', 'c', 'a'];0;[1.1928537001367658, 1.3383625000715256, 2.227784400107339, 2.262668500188738, 2.4430226001422852, 2.656349000055343];muñeca;C:\2023\REPSWITCH21092023\REPSWITCH_excgange\REPSWITCH_excgange\data/240204_REPSWITCH1_version2_list4_2023-12-01_16h45.36.179_micRespv2l4_recorded\recording_micRespv2l4_2023-12-01_16h47.12.413.wav;102.94964149990119;;None;;;;;;240204;001;2023-12-01_16h45.36.179;REPSWITCH1_version2_list4;2022.2.4;143.96422816658344;
REPSWITCH1/PICTURE_719.png;baño;speak;darkblue;filler;2;F;1;4;4;2;Stim2_Set4;1;switch;20;19;20;0;19;19;19;;;;;;;;;;;;;;;;;;;;;;;103.44972079992294;104.59568529995158;104.59568529995158;104.59568529995158;104.59568529995158;104.59568529995158;104.59568529995158;104.59568529995158;104.59568529995158;107.61689299996942;107.61689299996942;107.61689299996942;107.61689299996942;107.61689299996942;107.61689299996942;None;0;;;C:\2023\REPSWITCH21092023\REPSWITCH_excgange\REPSWITCH_excgange\data/240204_REPSWITCH1_version2_list4_2023-12-01_16h45.36.179_micRespv2l4_recorded\recording_micRespv2l4_2023-12-01_16h47.17.087.wav;107.61689299996942;108.11695969989523;None;;;;;;240204;001;2023-12-01_16h45.36.179;REPSWITCH1_version2_list4;2022.2.4;143.96422816658344;
REPSWITCH1/PICTURE_178.png;puente;type;gold;nontarget;1;NT;1;4;4;2;Stim1_Set1;1;switch;21;20;21;0;20;20;20;;;;;;;;;;;;;;;;;;;;;;;108.11695969989523;109.20048570004292;109.20048570004292;109.20048570004292;109.20048570004292;109.20048570004292;109.20048570004292;109.20048570004292;109.20048570004292;112.22170350002125;112.22170350002125;112.22170350002125;112.22170350002125;112.22170350002125;112.22170350002125;['p', 'u', 'e', 'n', 't', 'e'];0;[1.2043839001562446, 1.4082109001465142, 1.500530200311914, 1.6091925001237541, 1.6491685002110898, 1.7088545002043247];puente;C:\2023\REPSWITCH21092023\REPSWITCH_excgange\REPSWITCH_excgange\data/240204_REPSWITCH1_version2_list4_2023-12-01_16h45.36.179_micRespv2l4_recorded\recording_micRespv2l4_2023-12-01_16h47.21.691.wav;112.22170350002125;112.72175380005501;None;;;;;;240204;001;2023-12-01_16h45.36.179;REPSWITCH1_version2_list4;2022.2.4;143.96422816658344;
REPSWITCH1/PICTURE_178.png;puente;type;gold;repeat;1;T;1;4;4;2;Stim1_Set1;0;None;22;21;22;0;21;21;21;;;;;;;;;;;;;;;;;;;;;;;112.72175380005501;113.81220640009269;113.81220640009269;113.81220640009269;113.81220640009269;113.81220640009269;113.81220640009269;113.81220640009269;113.81220640009269;116.83339869999327;116.83339869999327;116.83339869999327;116.83339869999327;116.83339869999327;116.83339869999327;['p', 'u', 'e', 'n', 't', 'e'];0;[0.8249172999057919, 0.9787095999345183, 1.0145769999362528, 1.106493700062856, 1.121440399903804, 1.202179100131616];puente;C:\2023\REPSWITCH21092023\REPSWITCH_excgange\REPSWITCH_excgange\data/240204_REPSWITCH1_version2_list4_2023-12-01_16h45.36.179_micRespv2l4_recorded\recording_micRespv2l4_2023-12-01_16h47.26.304.wav;116.83339869999327;117.33345689997077;None;;;;;;240204;001;2023-12-01_16h45.36.179;REPSWITCH1_version2_list4;2022.2.4;143.96422816658344;
REPSWITCH1/PICTURE_16.png;cazador;type;gold;nontarget;1;NT;1;4;4;2;Stim6_Set1;1;repeat;23;22;23;0;22;22;22;;;;;;;;;;;;;;;;;;;;;;;117.33345689997077;118.36832190002315;118.36832190002315;118.36832190002315;118.36832190002315;118.36832190002315;118.36832190002315;118.36832190002315;118.36832190002315;121.39655670011416;121.39655670011416;121.39655670011416;121.39655670011416;121.39655670011416;121.39655670011416;['c', 'a', 'a', 'backspace', 'z'];0;[0.9230473001953214, 0.9748997001443058, 1.803302900167182, 2.4951150002889335, 2.927713700104505];caz;C:\2023\REPSWITCH21092023\REPSWITCH_excgange\REPSWITCH_excgange\data/240204_REPSWITCH1_version2_list4_2023-12-01_16h45.36.179_micRespv2l4_recorded\recording_micRespv2l4_2023-12-01_16h47.30.859.wav;121.39655670011416;;None;;;;;;240204;001;2023-12-01_16h45.36.179;REPSWITCH1_version2_list4;2022.2.4;143.96422816658344;
REPSWITCH1/PICTURE_16.png;cazador;speak;darkblue;switch;2;T;1;4;4;2;Stim6_Set1;0;None;24;23;24;0;23;23;23;;;;;;;;;;;;;;;;;;;;;;;121.89661929989234;123.04953379998915;123.04953379998915;123.04953379998915;123.04953379998915;123.04953379998915;123.04953379998915;123.04953379998915;123.04953379998915;126.0776901000645;126.0776901000645;126.0776901000645;126.0776901000645;126.0776901000645;126.0776901000645;None;0;;;C:\2023\REPSWITCH21092023\REPSWITCH_excgange\REPSWITCH_excgange\data/240204_REPSWITCH1_version2_list4_2023-12-01_16h45.36.179_micRespv2l4_recorded\recording_micRespv2l4_2023-12-01_16h47.35.541.wav;126.0776901000645;;None;;;;;;240204;001;2023-12-01_16h45.36.179;REPSWITCH1_version2_list4;2022.2.4;143.96422816658344;
REPSWITCH1/PICTURE_19.png;pavo;type;gold;filler;1;F;2;4;4;2;Stim5_Set1;0;None;25;24;25;0;24;24;24;;;;;;;;;;;;;;;;;;;;;;;126.57775690010749;127.74454630003311;127.74454630003311;127.74454630003311;127.74454630003311;127.74454630003311;127.74454630003311;127.74454630003311;127.74454630003311;130.7727489999961;130.7727489999961;130.7727489999961;130.7727489999961;130.7727489999961;130.7727489999961;['p', 'a', 'v', 'o'];0;[1.3360959000419825, 1.4018612999934703, 1.488949100021273, 1.6041968001518399];pavo;C:\2023\REPSWITCH21092023\REPSWITCH_excgange\REPSWITCH_excgange\data/240204_REPSWITCH1_version2_list4_2023-12-01_16h45.36.179_micRespv2l4_recorded\recording_micRespv2l4_2023-12-01_16h47.40.236.wav;130.7727489999961;;None;;;;;;240204;001;2023-12-01_16h45.36.179;REPSWITCH1_version2_list4;2022.2.4;143.96422816658344;
REPSWITCH1/PICTURE_199.png;falda;type;gold;nontarget;1;NT;2;4;4;2;Stim8_Set2;1;repeat;26;25;26;0;25;25;25;;;;;;;;;;;;;;;;;;;;;;;131.2728079999797;132.3354325001128;132.3354325001128;132.3354325001128;132.3354325001128;132.3354325001128;132.3354325001128;132.3354325001128;132.3354325001128;135.3636690999847;135.3636690999847;135.3636690999847;135.3636690999847;135.3636690999847;135.3636690999847;['f', 'a', 'l', 'd', 'a'];0;[1.2370462000835687, 1.3446800999809057, 1.4194132001139224, 1.5230644999537617, 1.593962199985981];falda;C:\2023\REPSWITCH21092023\REPSWITCH_excgange\REPSWITCH_excgange\data/240204_REPSWITCH1_version2_list4_2023-12-01_16h45.36.179_micRespv2l4_recorded\recording_micRespv2l4_2023-12-01_16h47.44.827.wav;135.3636690999847;;None;;;;;;240204;001;2023-12-01_16h45.36.179;REPSWITCH1_version2_list4;2022.2.4;143.96422816658344;
REPSWITCH1/PICTURE_199.png;falda;type;gold;repeat;1;T;2;4;4;2;Stim8_Set2;0;None;27;26;27;0;26;26;26;;;;;;;;;;;;;;;;;;;;;;;135.8636890000198;136.93325329991058;136.93325329991058;136.93325329991058;136.93325329991058;136.93325329991058;136.93325329991058;136.93325329991058;136.93325329991058;139.9614498000592;139.9614498000592;139.9614498000592;139.9614498000592;139.9614498000592;139.9614498000592;['f', 'a', 'l', 'd', 'a'];0;[0.8002504003234208, 0.884026300162077, 1.0251460003200918, 1.128724800189957, 1.2204336002469063];falda;C:\2023\REPSWITCH21092023\REPSWITCH_excgange\REPSWITCH_excgange\data/240204_REPSWITCH1_version2_list4_2023-12-01_16h45.36.179_micRespv2l4_recorded\recording_micRespv2l4_2023-12-01_16h47.49.425.wav;139.9614498000592;140.46148930001073;None;;;;;;240204;001;2023-12-01_16h45.36.179;REPSWITCH1_version2_list4;2022.2.4;143.96422816658344;
REPSWITCH1/PICTURE_178.png;puente;speak;darkblue;filler;2;F;2;4;4;2;Stim1_Set1;1;switch;28;27;28;0;27;27;27;;;;;;;;;;;;;;;;;;;;;;;140.46148930001073;141.468624799978;141.468624799978;141.468624799978;141.468624799978;141.468624799978;141.468624799978;141.468624799978;141.468624799978;144.4967755000107;144.4967755000107;144.4967755000107;144.4967755000107;144.4967755000107;144.4967755000107;None;0;;;C:\2023\REPSWITCH21092023\REPSWITCH_excgange\REPSWITCH_excgange\data/240204_REPSWITCH1_version2_list4_2023-12-01_16h45.36.179_micRespv2l4_recorded\recording_micRespv2l4_2023-12-01_16h47.53.959.wav;144.4967755000107;;None;;;;;;240204;001;2023-12-01_16h45.36.179;REPSWITCH1_version2_list4;2022.2.4;143.96422816658344;
REPSWITCH1/PICTURE_517.png;cuerda;type;gold;nontarget;1;NT;2;4;4;2;Stim4_Set2;1;switch;29;28;29;0;28;28;28;;;;;;;;;;;;;;;;;;;;;;;144.99689930002205;146.0664047000464;146.0664047000464;146.0664047000464;146.0664047000464;146.0664047000464;146.0664047000464;146.0664047000464;146.0664047000464;149.0945580000989;149.0945580000989;149.0945580000989;149.0945580000989;149.0945580000989;149.0945580000989;['c', 'u', 'e', 'r', 'd', 'a'];0;[1.4994755000807345, 1.5802022002171725, 1.6456073001027107, 1.7034098003059626, 1.8751538002397865, 1.9521680001635104];cuerda;C:\2023\REPSWITCH21092023\REPSWITCH_excgange\REPSWITCH_excgange\data/240204_REPSWITCH1_version2_list4_2023-12-01_16h45.36.179_micRespv2l4_recorded\recording_micRespv2l4_2023-12-01_16h47.58.558.wav;149.0945580000989;149.5946466999594;None;;;;;;240204;001;2023-12-01_16h45.36.179;REPSWITCH1_version2_list4;2022.2.4;143.96422816658344;
REPSWITCH1/PICTURE_517.png;cuerda;type;gold;repeat;1;T;2;4;4;2;Stim4_Set2;0;None;30;29;30;0;29;29;29;;;;;;;;;;;;;;;;;;;;;;;149.5946466999594;150.6295030999463;150.6295030999463;150.6295030999463;150.6295030999463;150.6295030999463;150.6295030999463;150.6295030999463;150.6295030999463;153.65072300005704;153.65072300005704;153.65072300005704;153.65072300005704;153.65072300005704;153.65072300005704;['c', 'u', 'e', 'r', 'd', 'a'];0;[0.6619091001339257, 0.7436574001330882, 0.770570500055328, 0.8340133000165224, 1.0073853000067174, 1.0682709000539035];cuerda;C:\2023\REPSWITCH21092023\REPSWITCH_excgange\REPSWITCH_excgange\data/240204_REPSWITCH1_version2_list4_2023-12-01_16h45.36.179_micRespv2l4_recorded\recording_micRespv2l4_2023-12-01_16h48.03.121.wav;153.65072300005704;154.15080840000883;None;;;;;;240204;001;2023-12-01_16h45.36.179;REPSWITCH1_version2_list4;2022.2.4;143.96422816658344;
REPSWITCH1/PICTURE_169.png;espalda;type;gold;filler;1;F;2;4;4;2;Stim8_Set1;0;None;31;30;31;0;30;30;30;;;;;;;;;;;;;;;;;;;;;;;154.15080840000883;155.2134587999899;155.2134587999899;155.2134587999899;155.2134587999899;155.2134587999899;155.2134587999899;155.2134587999899;155.2134587999899;158.24161010002717;158.24161010002717;158.24161010002717;158.24161010002717;158.24161010002717;158.24161010002717;['e', 's', 'p', 'a', 'd', 'backspace', 'l', 'd', 'a'];0;[0.8690382000058889, 1.0295565000269562, 1.1053633999545127, 1.228880099952221, 1.3893140000291169, 2.2512133999262005, 2.848158299922943, 2.9109179999213666, 2.9578396999277174];espalda;C:\2023\REPSWITCH21092023\REPSWITCH_excgange\REPSWITCH_excgange\data/240204_REPSWITCH1_version2_list4_2023-12-01_16h45.36.179_micRespv2l4_recorded\recording_micRespv2l4_2023-12-01_16h48.07.705.wav;158.24161010002717;;None;;;;;;240204;001;2023-12-01_16h45.36.179;REPSWITCH1_version2_list4;2022.2.4;143.96422816658344;
REPSWITCH1/PICTURE_673.png;tenedor;speak;darkblue;filler;2;F;2;4;4;2;Extra5;0;None;32;31;32;0;31;31;31;;;;;;;;;;;;;;;;;;;;;;;158.74169300007634;159.93631200003438;159.93631200003438;159.93631200003438;159.93631200003438;159.93631200003438;159.93631200003438;159.93631200003438;159.93631200003438;162.9574847999029;162.9574847999029;162.9574847999029;162.9574847999029;162.9574847999029;162.9574847999029;None;0;;;C:\2023\REPSWITCH21092023\REPSWITCH_excgange\REPSWITCH_excgange\data/240204_REPSWITCH1_version2_list4_2023-12-01_16h45.36.179_micRespv2l4_recorded\recording_micRespv2l4_2023-12-01_16h48.12.427.wav;162.9574847999029;163.45756489993073;None;;;;;;240204;001;2023-12-01_16h45.36.179;REPSWITCH1_version2_list4;2022.2.4;143.96422816658344;
REPSWITCH1/PICTURE_142.png;vaso;type;gold;filler;1;F;2;4;4;2;Stim7_Set1;1;switch;33;32;33;0;32;32;32;;;;;;;;;;;;;;;;;;;;;;;163.45756489993073;164.5341648000758;164.5341648000758;164.5341648000758;164.5341648000758;164.5341648000758;164.5341648000758;164.5341648000758;164.5341648000758;167.55533619993366;167.55533619993366;167.55533619993366;167.55533619993366;167.55533619993366;167.55533619993366;['v', 'a', 's', 'o'];0;[0.9328177000861615, 0.9955924001988024, 1.0763011001981795, 1.1550687002018094];vaso;C:\2023\REPSWITCH21092023\REPSWITCH_excgange\REPSWITCH_excgange\data/240204_REPSWITCH1_version2_list4_2023-12-01_16h45.36.179_micRespv2l4_recorded\recording_micRespv2l4_2023-12-01_16h48.17.026.wav;167.55533619993366;168.05545890005305;None;;;;;;240204;001;2023-12-01_16h45.36.179;REPSWITCH1_version2_list4;2022.2.4;143.96422816658344;
REPSWITCH1/PICTURE_552.png;manzana;type;gold;nontarget;1;NT;2;4;4;2;Stim6_Set2;1;repeat;34;33;34;0;33;33;33;;;;;;;;;;;;;;;;;;;;;;;168.05545890005305;169.11109249992296;169.11109249992296;169.11109249992296;169.11109249992296;169.11109249992296;169.11109249992296;169.11109249992296;169.11109249992296;172.1392826999072;172.1392826999072;172.1392826999072;172.1392826999072;172.1392826999072;172.1392826999072;['m', 'a', 'n', 'z', 's', 'z', 'a', 'n', 'a'];0;[0.9094006000086665, 0.9383001001551747, 1.046931000193581, 1.2462718000169843, 1.250218200031668, 2.125011899974197, 2.2339453001040965, 2.2558352001942694, 2.3840139000676572];manszana;C:\2023\REPSWITCH21092023\REPSWITCH_excgange\REPSWITCH_excgange\data/240204_REPSWITCH1_version2_list4_2023-12-01_16h45.36.179_micRespv2l4_recorded\recording_micRespv2l4_2023-12-01_16h48.21.602.wav;172.1392826999072;;None;;;;;;240204;001;2023-12-01_16h45.36.179;REPSWITCH1_version2_list4;2022.2.4;143.96422816658344;
REPSWITCH1/PICTURE_552.png;manzana;speak;darkblue;switch;1;T;2;4;4;2;Stim6_Set2;0;None;35;34;35;0;34;34;34;;;;;;;;;;;;;;;;;;;;;;;172.63933130004443;173.79924559989013;173.79924559989013;173.79924559989013;173.79924559989013;173.79924559989013;173.79924559989013;173.79924559989013;173.79924559989013;176.82045209989883;176.82045209989883;176.82045209989883;176.82045209989883;176.82045209989883;176.82045209989883;None;0;;;C:\2023\REPSWITCH21092023\REPSWITCH_excgange\REPSWITCH_excgange\data/240204_REPSWITCH1_version2_list4_2023-12-01_16h45.36.179_micRespv2l4_recorded\recording_micRespv2l4_2023-12-01_16h48.26.291.wav;176.82045209989883;177.3204904999584;None;;;;;;240204;001;2023-12-01_16h45.36.179;REPSWITCH1_version2_list4;2022.2.4;143.96422816658344;
REPSWITCH1/PICTURE_135.png;traje;speak;darkblue;filler;2;F;2;4;4;2;Stim3_Set1;0;None;36;35;36;0;35;35;35;;;;;;;;;;;;;;;;;;;;;;;177.3204904999584;178.47349689994007;178.47349689994007;178.47349689994007;178.47349689994007;178.47349689994007;178.47349689994007;178.47349689994007;178.47349689994007;181.50169500010088;181.50169500010088;181.50169500010088;181.50169500010088;181.50169500010088;181.50169500010088;None;0;;;C:\2023\REPSWITCH21092023\REPSWITCH_excgange\REPSWITCH_excgange\data/240204_REPSWITCH1_version2_list4_2023-12-01_16h45.36.179_micRespv2l4_recorded\recording_micRespv2l4_2023-12-01_16h48.30.965.wav;181.50169500010088;;None;;;;;;240204;001;2023-12-01_16h45.36.179;REPSWITCH1_version2_list4;2022.2.4;143.96422816658344;
REPSWITCH1/PICTURE_152.png;caracol;speak;darkblue;nontarget;2;NT;2;4;4;2;Stim2_Set2;1;repeat;37;36;37;0;36;36;36;;;;;;;;;;;;;;;;;;;;;;;182.00169879989699;183.07133470010012;183.07133470010012;183.07133470010012;183.07133470010012;183.07133470010012;183.07133470010012;183.07133470010012;183.07133470010012;186.09941920009442;186.09941920009442;186.09941920009442;186.09941920009442;186.09941920009442;186.09941920009442;None;0;;;C:\2023\REPSWITCH21092023\REPSWITCH_excgange\REPSWITCH_excgange\data/240204_REPSWITCH1_version2_list4_2023-12-01_16h45.36.179_micRespv2l4_recorded\recording_micRespv2l4_2023-12-01_16h48.35.563.wav;186.09941920009442;;None;;;;;;240204;001;2023-12-01_16h45.36.179;REPSWITCH1_version2_list4;2022.2.4;143.96422816658344;
REPSWITCH1/PICTURE_152.png;caracol;type;gold;switch;1;T;2;4;4;2;Stim2_Set2;0;None;38;37;38;0;37;37;37;;;;;;;;;;;;;;;;;;;;;;;186.5994857000187;187.6899168000091;187.6899168000091;187.6899168000091;187.6899168000091;187.6899168000091;187.6899168000091;187.6899168000091;187.6899168000091;190.71818850003183;190.71818850003183;190.71818850003183;190.71818850003183;190.71818850003183;190.71818850003183;['c', 'a', 'r', 'a', 'c', 'o', 'l'];0;[0.9670226001180708, 1.1065572001971304, 1.2257985000032932, 1.3194884001277387, 1.9653026000596583, 2.0503813000395894, 2.2031543001066893];caracol;C:\2023\REPSWITCH21092023\REPSWITCH_excgange\REPSWITCH_excgange\data/240204_REPSWITCH1_version2_list4_2023-12-01_16h45.36.179_micRespv2l4_recorded\recording_micRespv2l4_2023-12-01_16h48.40.182.wav;190.71818850003183;;None;;;;;;240204;001;2023-12-01_16h45.36.179;REPSWITCH1_version2_list4;2022.2.4;143.96422816658344;
REPSWITCH1/PICTURE_381.png;fresa;type;gold;filler;1;F;2;4;4;2;Stim2_Set1;0;None;39;38;39;0;38;38;38;;;;;;;;;;;;;;;;;;;;;;;191.21823010011576;192.287751799915;192.287751799915;192.287751799915;192.287751799915;192.287751799915;192.287751799915;192.287751799915;192.287751799915;195.30899280006997;195.30899280006997;195.30899280006997;195.30899280006997;195.30899280006997;195.30899280006997;['f', 'r', 'e', 's', 'a'];0;[0.9846904003061354, 1.0853780002798885, 1.1482437001541257, 1.3375699003227055, 1.4807625003159046];fresa;C:\2023\REPSWITCH21092023\REPSWITCH_excgange\REPSWITCH_excgange\data/240204_REPSWITCH1_version2_list4_2023-12-01_16h45.36.179_micRespv2l4_recorded\recording_micRespv2l4_2023-12-01_16h48.44.778.wav;195.30899280006997;195.80903130001388;None;;;;;;240204;001;2023-12-01_16h45.36.179;REPSWITCH1_version2_list4;2022.2.4;143.96422816658344;
REPSWITCH1/PICTURE_446.png;cerdo;type;gold;nontarget;1;NT;2;4;4;2;Stim7_Set2;1;repeat;40;39;40;0;39;39;39;;;;;;;;;;;;;;;;;;;;;;;195.80903130001388;196.89946150011383;196.89946150011383;196.89946150011383;196.89946150011383;196.89946150011383;196.89946150011383;196.89946150011383;196.89946150011383;199.92764519993216;199.92764519993216;199.92764519993216;199.92764519993216;199.92764519993216;199.92764519993216;['c', 'e', 'r', 'd', 'o'];0;[0.9879273001570255, 1.0669873000588268, 1.1437618001364172, 1.3530714001972228, 1.4916731000412256];cerdo;C:\2023\REPSWITCH21092023\REPSWITCH_excgange\REPSWITCH_excgange\data/240204_REPSWITCH1_version2_list4_2023-12-01_16h45.36.179_micRespv2l4_recorded\recording_micRespv2l4_2023-12-01_16h48.49.391.wav;199.92764519993216;;None;;;;;;240204;001;2023-12-01_16h45.36.179;REPSWITCH1_version2_list4;2022.2.4;143.96422816658344;
REPSWITCH1/PICTURE_446.png;cerdo;speak;darkblue;switch;2;T;2;4;4;2;Stim7_Set2;0;None;41;40;41;0;40;40;40;;;;;;;;;;;;;;;;;;;;;;;200.4277129000984;201.66404079995118;201.66404079995118;201.66404079995118;201.66404079995118;201.66404079995118;201.66404079995118;201.66404079995118;201.66404079995118;204.68521980009973;204.68521980009973;204.68521980009973;204.68521980009973;204.68521980009973;204.68521980009973;None;0;;;C:\2023\REPSWITCH21092023\REPSWITCH_excgange\REPSWITCH_excgange\data/240204_REPSWITCH1_version2_list4_2023-12-01_16h45.36.179_micRespv2l4_recorded\recording_micRespv2l4_2023-12-01_16h48.54.156.wav;204.68521980009973;205.1852871000301;None;;;;;;240204;001;2023-12-01_16h45.36.179;REPSWITCH1_version2_list4;2022.2.4;143.96422816658344;
REPSWITCH1/PICTURE_264.png;mano;speak;darkblue;nontarget;2;NT;2;4;4;2;Stim3_Set2;0;None;42;41;42;0;41;41;41;;;;;;;;;;;;;;;;;;;;;;;205.1852871000301;206.33128649997525;206.33128649997525;206.33128649997525;206.33128649997525;206.33128649997525;206.33128649997525;206.33128649997525;206.33128649997525;209.35246549989097;209.35246549989097;209.35246549989097;209.35246549989097;209.35246549989097;209.35246549989097;None;0;;;C:\2023\REPSWITCH21092023\REPSWITCH_excgange\REPSWITCH_excgange\data/240204_REPSWITCH1_version2_list4_2023-12-01_16h45.36.179_micRespv2l4_recorded\recording_micRespv2l4_2023-12-01_16h48.58.822.wav;209.35246549989097;209.85252559999935;None;;;;;;240204;001;2023-12-01_16h45.36.179;REPSWITCH1_version2_list4;2022.2.4;143.96422816658344;
REPSWITCH1/PICTURE_264.png;mano;speak;darkblue;repeat;2;T;2;4;4;2;Stim3_Set2;0;None;43;42;43;0;42;42;42;;;;;;;;;;;;;;;;;;;;;;;209.85252559999935;210.99853289988823;210.99853289988823;210.99853289988823;210.99853289988823;210.99853289988823;210.99853289988823;210.99853289988823;210.99853289988823;214.01978019997478;214.01978019997478;214.01978019997478;214.01978019997478;214.01978019997478;214.01978019997478;None;0;;;C:\2023\REPSWITCH21092023\REPSWITCH_excgange\REPSWITCH_excgange\data/240204_REPSWITCH1_version2_list4_2023-12-01_16h45.36.179_micRespv2l4_recorded\recording_micRespv2l4_2023-12-01_16h49.03.489.wav;214.01978019997478;214.51982549997047;None;;;;;;240204;001;2023-12-01_16h45.36.179;REPSWITCH1_version2_list4;2022.2.4;143.96422816658344;
REPSWITCH1/PICTURE_128.png;muñeca;type;gold;filler;1;F;2;4;4;2;Stim4_Set1;0;None;44;43;44;0;43;43;43;;;;;;;;;;;;;;;;;;;;;;;214.51982549997047;215.63116550003178;215.63116550003178;215.63116550003178;215.63116550003178;215.63116550003178;215.63116550003178;215.63116550003178;215.63116550003178;218.652309600031;218.652309600031;218.652309600031;218.652309600031;218.652309600031;218.652309600031;['m', 'u', 'l', 'ñ', 'e', 'c', 'a'];0;[0.8641333000268787, 0.9996554001700133, 1.2288888001348823, 1.229884000029415, 1.3046319000422955, 1.8132746000774205, 1.8731922002043575];mulñeca;C:\2023\REPSWITCH21092023\REPSWITCH_excgange\REPSWITCH_excgange\data/240204_REPSWITCH1_version2_list4_2023-12-01_16h45.36.179_micRespv2l4_recorded\recording_micRespv2l4_2023-12-01_16h49.08.122.wav;218.652309600031;219.152431699913;None;;;;;;240204;001;2023-12-01_16h45.36.179;REPSWITCH1_version2_list4;2022.2.4;143.96422816658344;
REPSWITCH1/PICTURE_30.png;granja;speak;darkblue;nontarget;2;NT;2;4;4;2;Stim5_Set2;1;switch;45;44;45;0;44;44;44;;;;;;;;;;;;;;;;;;;;;;;219.152431699913;220.333121499978;220.333121499978;220.333121499978;220.333121499978;220.333121499978;220.333121499978;220.333121499978;220.333121499978;223.3612808000762;223.3612808000762;223.3612808000762;223.3612808000762;223.3612808000762;223.3612808000762;None;0;;;C:\2023\REPSWITCH21092023\REPSWITCH_excgange\REPSWITCH_excgange\data/240204_REPSWITCH1_version2_list4_2023-12-01_16h45.36.179_micRespv2l4_recorded\recording_micRespv2l4_2023-12-01_16h49.12.826.wav;223.3612808000762;223.86132830008864;None;;;;;;240204;001;2023-12-01_16h45.36.179;REPSWITCH1_version2_list4;2022.2.4;143.96422816658344;
REPSWITCH1/PICTURE_30.png;granja;speak;darkblue;repeat;2;T;2;4;4;2;Stim5_Set2;0;None;46;45;46;0;45;45;45;;;;;;;;;;;;;;;;;;;;;;;223.86132830008864;225.04211020004004;225.04211020004004;225.04211020004004;225.04211020004004;225.04211020004004;225.04211020004004;225.04211020004004;225.04211020004004;228.0702390000224;228.0702390000224;228.0702390000224;228.0702390000224;228.0702390000224;228.0702390000224;None;0;;;C:\2023\REPSWITCH21092023\REPSWITCH_excgange\REPSWITCH_excgange\data/240204_REPSWITCH1_version2_list4_2023-12-01_16h45.36.179_micRespv2l4_recorded\recording_micRespv2l4_2023-12-01_16h49.17.534.wav;228.0702390000224;;None;;;;;;240204;001;2023-12-01_16h45.36.179;REPSWITCH1_version2_list4;2022.2.4;143.96422816658344;
REPSWITCH1/PICTURE_646.png;tronco;type;gold;filler;1;F;2;4;4;2;Extra4;0;None;47;46;47;0;46;46;46;;;;;;;;;;;;;;;;;;;;;;;228.5702953999862;229.70930889993906;229.70930889993906;229.70930889993906;229.70930889993906;229.70930889993906;229.70930889993906;229.70930889993906;229.70930889993906;232.73053169995546;232.73053169995546;232.73053169995546;232.73053169995546;232.73053169995546;232.73053169995546;['t', 'r', 'o', 'n', 'c', 'o'];0;[0.9866381001193076, 1.0524426002521068, 1.1743116001598537, 1.5820538001134992, 1.726533300243318, 1.77437030011788];tronco;C:\2023\REPSWITCH21092023\REPSWITCH_excgange\REPSWITCH_excgange\data/240204_REPSWITCH1_version2_list4_2023-12-01_16h45.36.179_micRespv2l4_recorded\recording_micRespv2l4_2023-12-01_16h49.22.201.wav;232.73053169995546;233.23062469996512;None;;;;;;240204;001;2023-12-01_16h45.36.179;REPSWITCH1_version2_list4;2022.2.4;143.96422816658344;
REPSWITCH1/PICTURE_16.png;cazador;speak;darkblue;filler;2;F;2;4;4;2;Stim6_Set1;0;None;48;47;48;0;47;47;47;;;;;;;;;;;;;;;;;;;;;;;233.23062469996512;234.38355590007268;234.38355590007268;234.38355590007268;234.38355590007268;234.38355590007268;234.38355590007268;234.38355590007268;234.38355590007268;237.41172680002637;237.41172680002637;237.41172680002637;237.41172680002637;237.41172680002637;237.41172680002637;None;0;;;C:\2023\REPSWITCH21092023\REPSWITCH_excgange\REPSWITCH_excgange\data/240204_REPSWITCH1_version2_list4_2023-12-01_16h45.36.179_micRespv2l4_recorded\recording_micRespv2l4_2023-12-01_16h49.26.875.wav;237.41172680002637;;None;;;;;;240204;001;2023-12-01_16h45.36.179;REPSWITCH1_version2_list4;2022.2.4;143.96422816658344;
REPSWITCH1/PICTURE_175.png;pintor;speak;darkblue;nontarget;2;NT;2;4;4;2;Stim1_Set2;1;repeat;49;48;49;0;48;48;48;;;;;;;;;;;;;;;;;;;;;;;237.91187390009873;239.0022249999456;239.0022249999456;239.0022249999456;239.0022249999456;239.0022249999456;239.0022249999456;239.0022249999456;239.0022249999456;242.0303764999844;242.0303764999844;242.0303764999844;242.0303764999844;242.0303764999844;242.0303764999844;['p', 'backspace'];0;[1.336603800067678, 2.9614651000592858];;C:\2023\REPSWITCH21092023\REPSWITCH_excgange\REPSWITCH_excgange\data/240204_REPSWITCH1_version2_list4_2023-12-01_16h45.36.179_micRespv2l4_recorded\recording_micRespv2l4_2023-12-01_16h49.31.494.wav;242.0303764999844;;None;;;;;;240204;001;2023-12-01_16h45.36.179;REPSWITCH1_version2_list4;2022.2.4;143.96422816658344;
REPSWITCH1/PICTURE_175.png;pintor;type;gold;switch;1;T;2;4;4;2;Stim1_Set2;0;None;50;49;50;0;49;49;49;;;;;;;;;;;;;;;;;;;;;;;242.53043880010955;243.6626196000725;243.6626196000725;243.6626196000725;243.6626196000725;243.6626196000725;243.6626196000725;243.6626196000725;243.6626196000725;246.69073030003347;246.69073030003347;246.69073030003347;246.69073030003347;246.69073030003347;246.69073030003347;['p', 'i', 'n', 't', 'o', 'r'];0;[0.8038157001137733, 1.3709203000180423, 1.5192589000798762, 1.6537326001562178, 1.693704399978742, 2.155085999984294];pintor;C:\2023\REPSWITCH21092023\REPSWITCH_excgange\REPSWITCH_excgange\data/240204_REPSWITCH1_version2_list4_2023-12-01_16h45.36.179_micRespv2l4_recorded\recording_micRespv2l4_2023-12-01_16h49.36.154.wav;246.69073030003347;;None;;;;;;240204;001;2023-12-01_16h45.36.179;REPSWITCH1_version2_list4;2022.2.4;143.96422816658344;
REPSWITCH1/PICTURE_663.png;columna;speak;darkblue;filler;2;F;4;4;4;2;Extra6;0;None;51;50;51;0;50;50;50;;;;;;;;;;;;;;;;;;;;;;;247.1907949000597;248.22566769993864;248.22566769993864;248.22566769993864;248.22566769993864;248.22566769993864;248.22566769993864;248.22566769993864;248.22566769993864;251.2537897999864;251.2537897999864;251.2537897999864;251.2537897999864;251.2537897999864;251.2537897999864;None;0;;;C:\2023\REPSWITCH21092023\REPSWITCH_excgange\REPSWITCH_excgange\data/240204_REPSWITCH1_version2_list4_2023-12-01_16h45.36.179_micRespv2l4_recorded\recording_micRespv2l4_2023-12-01_16h49.40.718.wav;251.2537897999864;;space;251.75389480008744;251.75389480008744;1.788672000169754;;;240204;001;2023-12-01_16h45.36.179;REPSWITCH1_version2_list4;2022.2.4;143.96422816658344;
REPSWITCH1/PICTURE_35.png;oreja;type;gold;nontarget;1;NT;3;4;4;2;Stim5_Set3;0;None;52;51;52;0;51;51;51;;;;;;;;;;;;;;;;;;;;;;;253.55272940010764;254.62238930002786;254.62238930002786;254.62238930002786;254.62238930002786;254.62238930002786;254.62238930002786;254.62238930002786;254.62238930002786;257.6504796000663;257.6504796000663;257.6504796000663;257.6504796000663;257.6504796000663;257.6504796000663;['o', 'r', 'e', 'j', 'a'];0;[0.9131478001363575, 1.001852200133726, 1.0606464000884444, 1.1383764001075178, 1.2549549001269042];oreja;C:\2023\REPSWITCH21092023\REPSWITCH_excgange\REPSWITCH_excgange\data/240204_REPSWITCH1_version2_list4_2023-12-01_16h45.36.179_micRespv2l4_recorded\recording_micRespv2l4_2023-12-01_16h49.47.114.wav;257.6504796000663;258.1506415999029;None;;;;;;240204;001;2023-12-01_16h45.36.179;REPSWITCH1_version2_list4;2022.2.4;143.96422816658344;
REPSWITCH1/PICTURE_35.png;oreja;speak;darkblue;switch;2;T;3;4;4;2;Stim5_Set3;0;None;53;52;53;0;52;52;52;;;;;;;;;;;;;;;;;;;;;;;258.1506415999029;259.1576584998984;259.1576584998984;259.1576584998984;259.1576584998984;259.1576584998984;259.1576584998984;259.1576584998984;259.1576584998984;262.1858192998916;262.1858192998916;262.1858192998916;262.1858192998916;262.1858192998916;262.1858192998916;None;0;;;C:\2023\REPSWITCH21092023\REPSWITCH_excgange\REPSWITCH_excgange\data/240204_REPSWITCH1_version2_list4_2023-12-01_16h45.36.179_micRespv2l4_recorded\recording_micRespv2l4_2023-12-01_16h49.51.649.wav;262.1858192998916;;None;;;;;;240204;001;2023-12-01_16h45.36.179;REPSWITCH1_version2_list4;2022.2.4;143.96422816658344;
REPSWITCH1/PICTURE_199.png;falda;speak;darkblue;filler;2;F;3;4;4;2;Stim8_Set2;0;None;54;53;54;0;53;53;53;;;;;;;;;;;;;;;;;;;;;;;262.6858922999818;263.9013294999022;263.9013294999022;263.9013294999022;263.9013294999022;263.9013294999022;263.9013294999022;263.9013294999022;263.9013294999022;266.9226079999935;266.9226079999935;266.9226079999935;266.9226079999935;266.9226079999935;266.9226079999935;None;0;;;C:\2023\REPSWITCH21092023\REPSWITCH_excgange\REPSWITCH_excgange\data/240204_REPSWITCH1_version2_list4_2023-12-01_16h45.36.179_micRespv2l4_recorded\recording_micRespv2l4_2023-12-01_16h49.56.392.wav;266.9226079999935;267.42260419996455;None;;;;;;240204;001;2023-12-01_16h45.36.179;REPSWITCH1_version2_list4;2022.2.4;143.96422816658344;
REPSWITCH1/PICTURE_576.png;guante;speak;darkblue;nontarget;2;NT;3;4;4;2;Stim1_Set3;1;repeat;55;54;55;0;54;54;54;;;;;;;;;;;;;;;;;;;;;;;267.42260419996455;268.5685970999766;268.5685970999766;268.5685970999766;268.5685970999766;268.5685970999766;268.5685970999766;268.5685970999766;268.5685970999766;271.58984000002965;271.58984000002965;271.58984000002965;271.58984000002965;271.58984000002965;271.58984000002965;None;0;;;C:\2023\REPSWITCH21092023\REPSWITCH_excgange\REPSWITCH_excgange\data/240204_REPSWITCH1_version2_list4_2023-12-01_16h45.36.179_micRespv2l4_recorded\recording_micRespv2l4_2023-12-01_16h50.01.059.wav;271.58984000002965;272.0898806999903;None;;;;;;240204;001;2023-12-01_16h45.36.179;REPSWITCH1_version2_list4;2022.2.4;143.96422816658344;
REPSWITCH1/PICTURE_576.png;guante;type;gold;switch;1;T;3;4;4;2;Stim1_Set3;0;None;56;55;56;0;55;55;55;;;;;;;;;;;;;;;;;;;;;;;272.0898806999903;273.14558160002343;273.14558160002343;273.14558160002343;273.14558160002343;273.14558160002343;273.14558160002343;273.14558160002343;273.14558160002343;276.1668688999489;276.1668688999489;276.1668688999489;276.1668688999489;276.1668688999489;276.1668688999489;['g', 'u', 'a', 'n', 't', 'e'];0;[0.8451794001739472, 0.9188801001291722, 1.0424286001361907, 1.0594090002123266, 1.1335523000452667, 1.2151814000681043];guante;C:\2023\REPSWITCH21092023\REPSWITCH_excgange\REPSWITCH_excgange\data/240204_REPSWITCH1_version2_list4_2023-12-01_16h45.36.179_micRespv2l4_recorded\recording_micRespv2l4_2023-12-01_16h50.05.637.wav;276.1668688999489;276.6668938000221;None;;;;;;240204;001;2023-12-01_16h45.36.179;REPSWITCH1_version2_list4;2022.2.4;143.96422816658344;
REPSWITCH1/PICTURE_517.png;cuerda;type;gold;filler;1;F;3;4;4;2;Stim4_Set2;1;repeat;57;56;57;0;56;56;56;;;;;;;;;;;;;;;;;;;;;;;276.6668938000221;277.7503601999488;277.7503601999488;277.7503601999488;277.7503601999488;277.7503601999488;277.7503601999488;277.7503601999488;277.7503601999488;280.7716155999806;280.7716155999806;280.7716155999806;280.7716155999806;280.7716155999806;280.7716155999806;['c', 'u', 'e', 'e', 'u', 'r', 'd', 'a'];0;[0.9291452001780272, 0.9759232001379132, 1.0207778001204133, 1.0347219002433121, 1.0357244000770152, 1.082876100204885, 1.2481221002526581, 1.3148929001763463];cueeurda;C:\2023\REPSWITCH21092023\REPSWITCH_excgange\REPSWITCH_excgange\data/240204_REPSWITCH1_version2_list4_2023-12-01_16h45.36.179_micRespv2l4_recorded\recording_micRespv2l4_2023-12-01_16h50.10.242.wav;280.7716155999806;281.2716602999717;None;;;;;;240204;001;2023-12-01_16h45.36.179;REPSWITCH1_version2_list4;2022.2.4;143.96422816658344;
REPSWITCH1/PICTURE_271.png;conejo;type;gold;nontarget;1;NT;3;4;4;2;Stim7_Set3;1;repeat;58;57;58;0;57;57;57;;;;;;;;;;;;;;;;;;;;;;;281.2716602999717;282.32737380010076;282.32737380010076;282.32737380010076;282.32737380010076;282.32737380010076;282.32737380010076;282.32737380010076;282.32737380010076;285.3485469999723;285.3485469999723;285.3485469999723;285.3485469999723;285.3485469999723;285.3485469999723;['c', 'o', 'n', 'e', 'j', 'o'];0;[0.9878835002891719, 1.0217565002385527, 1.1712646002415568, 1.2011594001669437, 1.6613200001884252, 1.8336438001133502];conejo;C:\2023\REPSWITCH21092023\REPSWITCH_excgange\REPSWITCH_excgange\data/240204_REPSWITCH1_version2_list4_2023-12-01_16h45.36.179_micRespv2l4_recorded\recording_micRespv2l4_2023-12-01_16h50.14.819.wav;285.3485469999723;285.84872779995203;None;;;;;;240204;001;2023-12-01_16h45.36.179;REPSWITCH1_version2_list4;2022.2.4;143.96422816658344;
REPSWITCH1/PICTURE_271.png;conejo;speak;darkblue;switch;2;T;3;4;4;2;Stim7_Set3;0;None;59;58;59;0;58;58;58;;;;;;;;;;;;;;;;;;;;;;;285.84872779995203;286.91823510010727;286.91823510010727;286.91823510010727;286.91823510010727;286.91823510010727;286.91823510010727;286.91823510010727;286.91823510010727;289.9464024999179;289.9464024999179;289.9464024999179;289.9464024999179;289.9464024999179;289.9464024999179;None;0;;;C:\2023\REPSWITCH21092023\REPSWITCH_excgange\REPSWITCH_excgange\data/240204_REPSWITCH1_version2_list4_2023-12-01_16h45.36.179_micRespv2l4_recorded\recording_micRespv2l4_2023-12-01_16h50.19.410.wav;289.9464024999179;;None;;;;;;240204;001;2023-12-01_16h45.36.179;REPSWITCH1_version2_list4;2022.2.4;143.96422816658344;
REPSWITCH1/PICTURE_552.png;manzana;type;gold;filler;1;F;3;4;4;2;Stim6_Set2;0;None;60;59;60;0;59;59;59;;;;;;;;;;;;;;;;;;;;;;;290.44645210006274;291.5230763000436;291.5230763000436;291.5230763000436;291.5230763000436;291.5230763000436;291.5230763000436;291.5230763000436;291.5230763000436;294.5442816000432;294.5442816000432;294.5442816000432;294.5442816000432;294.5442816000432;294.5442816000432;['m', 'a', 'n', 'z', 'a', 'n', 'a'];0;[0.8375599002465606, 0.9311962001956999, 1.0218887000810355, 1.5692350000608712, 1.6928525001276284, 1.7994972001761198, 1.8795554002281278];manzana;C:\2023\REPSWITCH21092023\REPSWITCH_excgange\REPSWITCH_excgange\data/240204_REPSWITCH1_version2_list4_2023-12-01_16h45.36.179_micRespv2l4_recorded\recording_micRespv2l4_2023-12-01_16h50.24.015.wav;294.5442816000432;295.04428320005536;None;;;;;;240204;001;2023-12-01_16h45.36.179;REPSWITCH1_version2_list4;2022.2.4;143.96422816658344;
REPSWITCH1/PICTURE_242.png;cartero;speak;darkblue;nontarget;2;NT;3;4;4;2;Stim3_Set3;1;switch;61;60;61;0;60;60;60;;;;;;;;;;;;;;;;;;;;;;;295.04428320005536;296.1972497999668;296.1972497999668;296.1972497999668;296.1972497999668;296.1972497999668;296.1972497999668;296.1972497999668;296.1972497999668;299.22537399991415;299.22537399991415;299.22537399991415;299.22537399991415;299.22537399991415;299.22537399991415;None;0;;;C:\2023\REPSWITCH21092023\REPSWITCH_excgange\REPSWITCH_excgange\data/240204_REPSWITCH1_version2_list4_2023-12-01_16h45.36.179_micRespv2l4_recorded\recording_micRespv2l4_2023-12-01_16h50.28.689.wav;299.22537399991415;;None;;;;;;240204;001;2023-12-01_16h45.36.179;REPSWITCH1_version2_list4;2022.2.4;143.96422816658344;
REPSWITCH1/PICTURE_242.png;cartero;speak;darkblue;repeat;2;T;3;4;4;2;Stim3_Set3;0;None;62;61;62;0;61;61;61;;;;;;;;;;;;;;;;;;;;;;;299.725442700088;300.91317260009237;300.91317260009237;300.91317260009237;300.91317260009237;300.91317260009237;300.91317260009237;300.91317260009237;300.91317260009237;303.9343882999383;303.9343882999383;303.9343882999383;303.9343882999383;303.9343882999383;303.9343882999383;None;0;;;C:\2023\REPSWITCH21092023\REPSWITCH_excgange\REPSWITCH_excgange\data/240204_REPSWITCH1_version2_list4_2023-12-01_16h45.36.179_micRespv2l4_recorded\recording_micRespv2l4_2023-12-01_16h50.33.404.wav;303.9343882999383;304.4343824000098;None;;;;;;240204;001;2023-12-01_16h45.36.179;REPSWITCH1_version2_list4;2022.2.4;143.96422816658344;
REPSWITCH1/PICTURE_152.png;caracol;speak;darkblue;filler;2;F;3;4;4;2;Stim2_Set2;0;None;63;62;63;0;62;62;62;;;;;;;;;;;;;;;;;;;;;;;304.4343824000098;305.5456741999369;305.5456741999369;305.5456741999369;305.5456741999369;305.5456741999369;305.5456741999369;305.5456741999369;305.5456741999369;308.56687520002015;308.56687520002015;308.56687520002015;308.56687520002015;308.56687520002015;308.56687520002015;None;0;;;C:\2023\REPSWITCH21092023\REPSWITCH_excgange\REPSWITCH_excgange\data/240204_REPSWITCH1_version2_list4_2023-12-01_16h45.36.179_micRespv2l4_recorded\recording_micRespv2l4_2023-12-01_16h50.38.037.wav;308.56687520002015;309.06697689997964;None;;;;;;240204;001;2023-12-01_16h45.36.179;REPSWITCH1_version2_list4;2022.2.4;143.96422816658344;
REPSWITCH1/PICTURE_446.png;cerdo;type;gold;filler;1;F;3;4;4;2;Stim7_Set2;1;switch;64;63;64;0;63;63;63;;;;;;;;;;;;;;;;;;;;;;;309.06697689997964;310.12269049999304;310.12269049999304;310.12269049999304;310.12269049999304;310.12269049999304;310.12269049999304;310.12269049999304;310.12269049999304;313.15085080009885;313.15085080009885;313.15085080009885;313.15085080009885;313.15085080009885;313.15085080009885;['c', 'e', 'r', 'd', 'o'];0;[0.7873225000221282, 0.8961265000980347, 0.9479822001885623, 1.1672383002005517, 1.2728922001551837];cerdo;C:\2023\REPSWITCH21092023\REPSWITCH_excgange\REPSWITCH_excgange\data/240204_REPSWITCH1_version2_list4_2023-12-01_16h45.36.179_micRespv2l4_recorded\recording_micRespv2l4_2023-12-01_16h50.42.614.wav;313.15085080009885;;None;;;;;;240204;001;2023-12-01_16h45.36.179;REPSWITCH1_version2_list4;2022.2.4;143.96422816658344;
REPSWITCH1/PICTURE_610.png;miel;speak;darkblue;nontarget;2;NT;3;4;4;2;Stim2_Set3;1;switch;65;64;65;0;64;64;64;;;;;;;;;;;;;;;;;;;;;;;313.6509040000383;314.67881239997223;314.67881239997223;314.67881239997223;314.67881239997223;314.67881239997223;314.67881239997223;314.67881239997223;314.67881239997223;317.70706659997813;317.70706659997813;317.70706659997813;317.70706659997813;317.70706659997813;317.70706659997813;None;0;;;C:\2023\REPSWITCH21092023\REPSWITCH_excgange\REPSWITCH_excgange\data/240204_REPSWITCH1_version2_list4_2023-12-01_16h45.36.179_micRespv2l4_recorded\recording_micRespv2l4_2023-12-01_16h50.47.171.wav;317.70706659997813;;None;;;;;;240204;001;2023-12-01_16h45.36.179;REPSWITCH1_version2_list4;2022.2.4;143.96422816658344;
REPSWITCH1/PICTURE_610.png;miel;speak;darkblue;repeat;2;T;3;4;4;2;Stim2_Set3;0;None;66;65;66;0;65;65;65;;;;;;;;;;;;;;;;;;;;;;;318.2070478000678;319.31833259994164;319.31833259994164;319.31833259994164;319.31833259994164;319.31833259994164;319.31833259994164;319.31833259994164;319.31833259994164;322.3395297001116;322.3395297001116;322.3395297001116;322.3395297001116;322.3395297001116;322.3395297001116;None;0;;;C:\2023\REPSWITCH21092023\REPSWITCH_excgange\REPSWITCH_excgange\data/240204_REPSWITCH1_version2_list4_2023-12-01_16h45.36.179_micRespv2l4_recorded\recording_micRespv2l4_2023-12-01_16h50.51.809.wav;322.3395297001116;322.839617599966;None;;;;;;240204;001;2023-12-01_16h45.36.179;REPSWITCH1_version2_list4;2022.2.4;143.96422816658344;
REPSWITCH1/PICTURE_320.png;iglesia;speak;darkblue;nontarget;2;NT;3;4;4;2;Stim8_Set3;1;repeat;67;66;67;0;66;66;66;;;;;;;;;;;;;;;;;;;;;;;322.839617599966;323.978732699994;323.978732699994;323.978732699994;323.978732699994;323.978732699994;323.978732699994;323.978732699994;323.978732699994;327.0068379000295;327.0068379000295;327.0068379000295;327.0068379000295;327.0068379000295;327.0068379000295;None;0;;;C:\2023\REPSWITCH21092023\REPSWITCH_excgange\REPSWITCH_excgange\data/240204_REPSWITCH1_version2_list4_2023-12-01_16h45.36.179_micRespv2l4_recorded\recording_micRespv2l4_2023-12-01_16h50.56.471.wav;327.0068379000295;;None;;;;;;240204;001;2023-12-01_16h45.36.179;REPSWITCH1_version2_list4;2022.2.4;143.96422816658344;
REPSWITCH1/PICTURE_320.png;iglesia;type;gold;switch;1;T;3;4;4;2;Stim8_Set3;0;None;68;67;68;0;67;67;67;;;;;;;;;;;;;;;;;;;;;;;327.5068806000054;328.604249099968;328.604249099968;328.604249099968;328.604249099968;328.604249099968;328.604249099968;328.604249099968;328.604249099968;331.6254531000741;331.6254531000741;331.6254531000741;331.6254531000741;331.6254531000741;331.6254531000741;['i', 'g', 'e', 'backspace', 'l', 'e', 'i', 'a'];0;[0.8555588000454009, 0.9289279000367969, 1.1312744999304414, 2.209618099965155, 2.463773899944499, 2.521530600031838, 2.664519299985841, 2.791357000125572];igleia;C:\2023\REPSWITCH21092023\REPSWITCH_excgange\REPSWITCH_excgange\data/240204_REPSWITCH1_version2_list4_2023-12-01_16h45.36.179_micRespv2l4_recorded\recording_micRespv2l4_2023-12-01_16h51.01.096.wav;331.6254531000741;332.1255499001127;None;;;;;;240204;001;2023-12-01_16h45.36.179;REPSWITCH1_version2_list4;2022.2.4;143.96422816658344;
REPSWITCH1/PICTURE_30.png;granja;speak;darkblue;filler;2;F;3;4;4;2;Stim5_Set2;0;None;69;68;69;0;68;68;68;;;;;;;;;;;;;;;;;;;;;;;332.1255499001127;333.23683910002;333.23683910002;333.23683910002;333.23683910002;333.23683910002;333.23683910002;333.23683910002;333.23683910002;336.26498709991574;336.26498709991574;336.26498709991574;336.26498709991574;336.26498709991574;336.26498709991574;None;0;;;C:\2023\REPSWITCH21092023\REPSWITCH_excgange\REPSWITCH_excgange\data/240204_REPSWITCH1_version2_list4_2023-12-01_16h45.36.179_micRespv2l4_recorded\recording_micRespv2l4_2023-12-01_16h51.05.728.wav;336.26498709991574;;None;;;;;;240204;001;2023-12-01_16h45.36.179;REPSWITCH1_version2_list4;2022.2.4;143.96422816658344;
REPSWITCH1/PICTURE_264.png;mano;type;gold;filler;1;F;3;4;4;2;Stim3_Set2;0;None;70;69;70;0;69;69;69;;;;;;;;;;;;;;;;;;;;;;;336.7650518999435;337.8902076999657;337.8902076999657;337.8902076999657;337.8902076999657;337.8902076999657;337.8902076999657;337.8902076999657;337.8902076999657;340.91140710003674;340.91140710003674;340.91140710003674;340.91140710003674;340.91140710003674;340.91140710003674;['m', 'a', 'n', 'o'];0;[0.99941819999367, 1.0661792000755668, 1.1472192001529038, 1.2547067000996321];mano;C:\2023\REPSWITCH21092023\REPSWITCH_excgange\REPSWITCH_excgange\data/240204_REPSWITCH1_version2_list4_2023-12-01_16h45.36.179_micRespv2l4_recorded\recording_micRespv2l4_2023-12-01_16h51.10.382.wav;340.91140710003674;341.4114747000858;None;;;;;;240204;001;2023-12-01_16h45.36.179;REPSWITCH1_version2_list4;2022.2.4;143.96422816658344;
REPSWITCH1/PICTURE_464.png;goma;type;gold;nontarget;1;NT;3;4;4;2;Stim6_Set3;0;None;71;70;71;0;70;70;70;;;;;;;;;;;;;;;;;;;;;;;341.4114747000858;342.47413449990563;342.47413449990563;342.47413449990563;342.47413449990563;342.47413449990563;342.47413449990563;342.47413449990563;342.47413449990563;345.50228979997337;345.50228979997337;345.50228979997337;345.50228979997337;345.50228979997337;345.50228979997337;['g', 'o', 'm', 'a'];0;[1.0315746001433581, 1.1063235001638532, 1.2269066001754254, 1.2757407000754029];goma;C:\2023\REPSWITCH21092023\REPSWITCH_excgange\REPSWITCH_excgange\data/240204_REPSWITCH1_version2_list4_2023-12-01_16h45.36.179_micRespv2l4_recorded\recording_micRespv2l4_2023-12-01_16h51.14.965.wav;345.50228979997337;;None;;;;;;240204;001;2023-12-01_16h45.36.179;REPSWITCH1_version2_list4;2022.2.4;143.96422816658344;
REPSWITCH1/PICTURE_464.png;goma;type;gold;repeat;1;T;3;4;4;2;Stim6_Set3;0;None;72;71;72;0;71;71;71;;;;;;;;;;;;;;;;;;;;;;;346.00235580001026;347.05814040009864;347.05814040009864;347.05814040009864;347.05814040009864;347.05814040009864;347.05814040009864;347.05814040009864;347.05814040009864;350.0792793999426;350.0792793999426;350.0792793999426;350.0792793999426;350.0792793999426;350.0792793999426;['g', 'o', 'm', 'a'];0;[0.7880136002786458, 0.8104869001545012, 0.9451829001773149, 0.9790731002576649];goma;C:\2023\REPSWITCH21092023\REPSWITCH_excgange\REPSWITCH_excgange\data/240204_REPSWITCH1_version2_list4_2023-12-01_16h45.36.179_micRespv2l4_recorded\recording_micRespv2l4_2023-12-01_16h51.19.549.wav;350.0792793999426;350.57941000000574;None;;;;;;240204;001;2023-12-01_16h45.36.179;REPSWITCH1_version2_list4;2022.2.4;143.96422816658344;
REPSWITCH1/PICTURE_175.png;pintor;speak;darkblue;filler;2;F;3;4;4;2;Stim1_Set2;0;None;73;72;73;0;72;72;72;;;;;;;;;;;;;;;;;;;;;;;350.57941000000574;351.62809729995206;351.62809729995206;351.62809729995206;351.62809729995206;351.62809729995206;351.62809729995206;351.62809729995206;351.62809729995206;354.6563399999868;354.6563399999868;354.6563399999868;354.6563399999868;354.6563399999868;354.6563399999868;None;0;;;C:\2023\REPSWITCH21092023\REPSWITCH_excgange\REPSWITCH_excgange\data/240204_REPSWITCH1_version2_list4_2023-12-01_16h45.36.179_micRespv2l4_recorded\recording_micRespv2l4_2023-12-01_16h51.24.120.wav;354.6563399999868;355.15641469997354;None;;;;;;240204;001;2023-12-01_16h45.36.179;REPSWITCH1_version2_list4;2022.2.4;143.96422816658344;
REPSWITCH1/PICTURE_235.png;aguja;type;gold;nontarget;1;NT;3;4;4;2;Stim4_Set3;1;switch;74;73;74;0;73;73;73;;;;;;;;;;;;;;;;;;;;;;;355.15641469997354;356.26762689999305;356.26762689999305;356.26762689999305;356.26762689999305;356.26762689999305;356.26762689999305;356.26762689999305;356.26762689999305;359.28884970000945;359.28884970000945;359.28884970000945;359.28884970000945;359.28884970000945;359.28884970000945;['a', 'g', 'u', 'j', 'a'];0;[1.3283287000376731, 1.431974200066179, 1.4987518000416458, 1.7636556001380086, 1.8434150002431124];aguja;C:\2023\REPSWITCH21092023\REPSWITCH_excgange\REPSWITCH_excgange\data/240204_REPSWITCH1_version2_list4_2023-12-01_16h45.36.179_micRespv2l4_recorded\recording_micRespv2l4_2023-12-01_16h51.28.758.wav;359.28884970000945;359.78898889990523;None;;;;;;240204;001;2023-12-01_16h45.36.179;REPSWITCH1_version2_list4;2022.2.4;143.96422816658344;
REPSWITCH1/PICTURE_235.png;aguja;type;gold;repeat;1;T;3;4;4;2;Stim4_Set3;0;None;75;74;75;0;74;74;74;;;;;;;;;;;;;;;;;;;;;;;359.78898889990523;360.8585214000195;360.8585214000195;360.8585214000195;360.8585214000195;360.8585214000195;360.8585214000195;360.8585214000195;360.8585214000195;363.8866673000157;363.8866673000157;363.8866673000157;363.8866673000157;363.8866673000157;363.8866673000157;['a', 'g', 'u', 'j', 'a'];0;[0.5734370001591742, 0.6432009001728147, 0.6641285002697259, 0.8250862001441419, 0.9147823001258075];aguja;C:\2023\REPSWITCH21092023\REPSWITCH_excgange\REPSWITCH_excgange\data/240204_REPSWITCH1_version2_list4_2023-12-01_16h45.36.179_micRespv2l4_recorded\recording_micRespv2l4_2023-12-01_16h51.33.350.wav;363.8866673000157;;None;;;;;;240204;001;2023-12-01_16h45.36.179;REPSWITCH1_version2_list4;2022.2.4;143.96422816658344;
REPSWITCH1/PICTURE_576.png;guante;type;gold;filler;1;F;4;4;4;2;Stim1_Set3;1;repeat;76;75;76;0;75;75;75;;;;;;;;;;;;;;;;;;;;;;;364.3867413001135;365.5396908998955;365.5396908998955;365.5396908998955;365.5396908998955;365.5396908998955;365.5396908998955;365.5396908998955;365.5396908998955;368.5608596999664;368.5608596999664;368.5608596999664;368.5608596999664;368.5608596999664;368.5608596999664;['g', 'u', 'a', 'n', 't', 'e'];0;[1.199161000084132, 1.2798826999496669, 1.3526125000789762, 1.4333711001090705, 1.5330411999020725, 1.5939108000602573];guante;C:\2023\REPSWITCH21092023\REPSWITCH_excgange\REPSWITCH_excgange\data/240204_REPSWITCH1_version2_list4_2023-12-01_16h45.36.179_micRespv2l4_recorded\recording_micRespv2l4_2023-12-01_16h51.38.031.wav;368.5608596999664;369.06096479995176;None;;;;;;240204;001;2023-12-01_16h45.36.179;REPSWITCH1_version2_list4;2022.2.4;143.96422816658344;
REPSWITCH1/PICTURE_340.png;espejo;speak;darkblue;filler;2;F;4;4;4;2;Extra1;0;None;77;76;77;0;76;76;76;;;;;;;;;;;;;;;;;;;;;;;369.06096479995176;370.15143189998344;370.15143189998344;370.15143189998344;370.15143189998344;370.15143189998344;370.15143189998344;370.15143189998344;370.15143189998344;373.17964469990693;373.17964469990693;373.17964469990693;373.17964469990693;373.17964469990693;373.17964469990693;None;0;;;C:\2023\REPSWITCH21092023\REPSWITCH_excgange\REPSWITCH_excgange\data/240204_REPSWITCH1_version2_list4_2023-12-01_16h45.36.179_micRespv2l4_recorded\recording_micRespv2l4_2023-12-01_16h51.42.644.wav;373.17964469990693;;None;;;;;;240204;001;2023-12-01_16h45.36.179;REPSWITCH1_version2_list4;2022.2.4;143.96422816658344;
REPSWITCH1/PICTURE_464.png;goma;speak;darkblue;filler;2;F;4;4;4;2;Stim6_Set3;1;repeat;78;77;78;0;77;77;77;;;;;;;;;;;;;;;;;;;;;;;373.6796224000864;374.73533910000697;374.73533910000697;374.73533910000697;374.73533910000697;374.73533910000697;374.73533910000697;374.73533910000697;374.73533910000697;377.75655289995484;377.75655289995484;377.75655289995484;377.75655289995484;377.75655289995484;377.75655289995484;None;0;;;C:\2023\REPSWITCH21092023\REPSWITCH_excgange\REPSWITCH_excgange\data/240204_REPSWITCH1_version2_list4_2023-12-01_16h45.36.179_micRespv2l4_recorded\recording_micRespv2l4_2023-12-01_16h51.47.226.wav;377.75655289995484;378.25661189993843;None;;;;;;240204;001;2023-12-01_16h45.36.179;REPSWITCH1_version2_list4;2022.2.4;143.96422816658344;
REPSWITCH1/PICTURE_338.png;regalo;type;gold;nontarget;1;NT;4;4;4;2;Stim6_Set4;0;None;79;78;79;0;78;78;78;;;;;;;;;;;;;;;;;;;;;;;378.25661189993843;379.3886985001154;379.3886985001154;379.3886985001154;379.3886985001154;379.3886985001154;379.3886985001154;379.3886985001154;379.3886985001154;382.4099377000239;382.4099377000239;382.4099377000239;382.4099377000239;382.4099377000239;382.4099377000239;['r', 'e', 'g', 'a', 'l', 'o'];0;[1.0709814000874758, 1.136509400093928, 1.2600230001844466, 1.3377801000606269, 1.4145813002251089, 1.5640169000253081];regalo;C:\2023\REPSWITCH21092023\REPSWITCH_excgange\REPSWITCH_excgange\data/240204_REPSWITCH1_version2_list4_2023-12-01_16h45.36.179_micRespv2l4_recorded\recording_micRespv2l4_2023-12-01_16h51.51.879.wav;382.4099377000239;382.90999979991466;None;;;;;;240204;001;2023-12-01_16h45.36.179;REPSWITCH1_version2_list4;2022.2.4;143.96422816658344;
REPSWITCH1/PICTURE_338.png;regalo;type;gold;repeat;1;T;4;4;4;2;Stim6_Set4;0;None;80;79;80;0;79;79;79;;;;;;;;;;;;;;;;;;;;;;;382.90999979991466;383.96571190003306;383.96571190003306;383.96571190003306;383.96571190003306;383.96571190003306;383.96571190003306;383.96571190003306;383.96571190003306;386.9869681999553;386.9869681999553;386.9869681999553;386.9869681999553;386.9869681999553;386.9869681999553;['r', 'e', 'g', 'a', 'l', 'o'];0;[0.7327190001960844, 0.792524500284344, 0.8922090001869947, 0.9918753001838923, 1.1912735002115369, 1.3253310001455247];regalo;C:\2023\REPSWITCH21092023\REPSWITCH_excgange\REPSWITCH_excgange\data/240204_REPSWITCH1_version2_list4_2023-12-01_16h45.36.179_micRespv2l4_recorded\recording_micRespv2l4_2023-12-01_16h51.56.456.wav;386.9869681999553;387.4869808999356;None;;;;;;240204;001;2023-12-01_16h45.36.179;REPSWITCH1_version2_list4;2022.2.4;143.96422816658344;
REPSWITCH1/PICTURE_8.png;pierna;type;gold;nontarget;1;NT;4;4;4;2;Stim3_Set4;1;repeat;81;80;81;0;80;80;80;;;;;;;;;;;;;;;;;;;;;;;387.4869808999356;388.55656110006385;388.55656110006385;388.55656110006385;388.55656110006385;388.55656110006385;388.55656110006385;388.55656110006385;388.55656110006385;391.5777887001168;391.5777887001168;391.5777887001168;391.5777887001168;391.5777887001168;391.5777887001168;['p', 'e', 'i', 'r', 'n', 'a'];0;[0.9749372000806034, 1.0998058002442122, 1.1057847002521157, 1.1636463000904769, 1.3021163002122194, 1.3529423002619296];peirna;C:\2023\REPSWITCH21092023\REPSWITCH_excgange\REPSWITCH_excgange\data/240204_REPSWITCH1_version2_list4_2023-12-01_16h45.36.179_micRespv2l4_recorded\recording_micRespv2l4_2023-12-01_16h52.01.047.wav;391.5777887001168;392.0778793001082;None;;;;;;240204;001;2023-12-01_16h45.36.179;REPSWITCH1_version2_list4;2022.2.4;143.96422816658344;
REPSWITCH1/PICTURE_8.png;pierna;speak;darkblue;switch;2;T;4;4;4;2;Stim3_Set4;0;None;82;81;82;0;81;81;81;;;;;;;;;;;;;;;;;;;;;;;392.0778793001082;393.21693199989386;393.21693199989386;393.21693199989386;393.21693199989386;393.21693199989386;393.21693199989386;393.21693199989386;393.21693199989386;396.2381351001095;396.2381351001095;396.2381351001095;396.2381351001095;396.2381351001095;396.2381351001095;None;0;;;C:\2023\REPSWITCH21092023\REPSWITCH_excgange\REPSWITCH_excgange\data/240204_REPSWITCH1_version2_list4_2023-12-01_16h45.36.179_micRespv2l4_recorded\recording_micRespv2l4_2023-12-01_16h52.05.708.wav;396.2381351001095;396.7382076000795;None;;;;;;240204;001;2023-12-01_16h45.36.179;REPSWITCH1_version2_list4;2022.2.4;143.96422816658344;
REPSWITCH1/PICTURE_271.png;conejo;type;gold;filler;1;F;4;4;4;2;Stim7_Set3;0;None;83;82;83;0;82;82;82;;;;;;;;;;;;;;;;;;;;;;;396.7382076000795;397.77999809989706;397.77999809989706;397.77999809989706;397.77999809989706;397.77999809989706;397.77999809989706;397.77999809989706;397.77999809989706;400.8012306999881;400.8012306999881;400.8012306999881;400.8012306999881;400.8012306999881;400.8012306999881;['c', 'o', 'e', 'n', 'j', 'o'];0;[0.7658740000333637, 0.8057144999038428, 0.9283940999303013, 0.9542296000290662, 1.128010499989614, 1.2864210000261664];coenjo;C:\2023\REPSWITCH21092023\REPSWITCH_excgange\REPSWITCH_excgange\data/240204_REPSWITCH1_version2_list4_2023-12-01_16h45.36.179_micRespv2l4_recorded\recording_micRespv2l4_2023-12-01_16h52.10.271.wav;400.8012306999881;401.3012689000461;None;;;;;;240204;001;2023-12-01_16h45.36.179;REPSWITCH1_version2_list4;2022.2.4;143.96422816658344;
REPSWITCH1/PICTURE_687.png;camisa;speak;darkblue;nontarget;2;NT;4;4;4;2;Stim5_Set4;1;switch;84;83;84;0;83;83;83;;;;;;;;;;;;;;;;;;;;;;;401.3012689000461;402.4195356001146;402.4195356001146;402.4195356001146;402.4195356001146;402.4195356001146;402.4195356001146;402.4195356001146;402.4195356001146;405.4407188000623;405.4407188000623;405.4407188000623;405.4407188000623;405.4407188000623;405.4407188000623;None;0;;;C:\2023\REPSWITCH21092023\REPSWITCH_excgange\REPSWITCH_excgange\data/240204_REPSWITCH1_version2_list4_2023-12-01_16h45.36.179_micRespv2l4_recorded\recording_micRespv2l4_2023-12-01_16h52.14.911.wav;405.4407188000623;405.94081469997764;None;;;;;;240204;001;2023-12-01_16h45.36.179;REPSWITCH1_version2_list4;2022.2.4;143.96422816658344;
REPSWITCH1/PICTURE_687.png;camisa;speak;darkblue;repeat;2;T;4;4;4;2;Stim5_Set4;0;None;85;84;85;0;84;84;84;;;;;;;;;;;;;;;;;;;;;;;405.94081469997764;407.03120819991454;407.03120819991454;407.03120819991454;407.03120819991454;407.03120819991454;407.03120819991454;407.03120819991454;407.03120819991454;410.0524359000847;410.0524359000847;410.0524359000847;410.0524359000847;410.0524359000847;410.0524359000847;None;0;;;C:\2023\REPSWITCH21092023\REPSWITCH_excgange\REPSWITCH_excgange\data/240204_REPSWITCH1_version2_list4_2023-12-01_16h45.36.179_micRespv2l4_recorded\recording_micRespv2l4_2023-12-01_16h52.19.522.wav;410.0524359000847;410.552507000044;None;;;;;;240204;001;2023-12-01_16h45.36.179;REPSWITCH1_version2_list4;2022.2.4;143.96422816658344;
REPSWITCH1/PICTURE_319.png;vaca;speak;darkblue;nontarget;2;NT;4;4;4;2;Stim1_Set4;0;None;86;85;86;0;85;85;85;;;;;;;;;;;;;;;;;;;;;;;410.552507000044;411.60825069993734;411.60825069993734;411.60825069993734;411.60825069993734;411.60825069993734;411.60825069993734;411.60825069993734;411.60825069993734;414.6363615000155;414.6363615000155;414.6363615000155;414.6363615000155;414.6363615000155;414.6363615000155;None;0;;;C:\2023\REPSWITCH21092023\REPSWITCH_excgange\REPSWITCH_excgange\data/240204_REPSWITCH1_version2_list4_2023-12-01_16h45.36.179_micRespv2l4_recorded\recording_micRespv2l4_2023-12-01_16h52.24.100.wav;414.6363615000155;;None;;;;;;240204;001;2023-12-01_16h45.36.179;REPSWITCH1_version2_list4;2022.2.4;143.96422816658344;
REPSWITCH1/PICTURE_319.png;vaca;type;gold;switch;1;T;4;4;4;2;Stim1_Set4;0;None;87;86;87;0;86;86;86;;;;;;;;;;;;;;;;;;;;;;;415.1364182999823;416.2894135999959;416.2894135999959;416.2894135999959;416.2894135999959;416.2894135999959;416.2894135999959;416.2894135999959;416.2894135999959;419.3106078999117;419.3106078999117;419.3106078999117;419.3106078999117;419.3106078999117;419.3106078999117;['v', 'a', 'c', 'a'];0;[0.76318410015665, 0.8578299002256244, 1.0105818000156432, 1.0813484000973403];vaca;C:\2023\REPSWITCH21092023\REPSWITCH_excgange\REPSWITCH_excgange\data/240204_REPSWITCH1_version2_list4_2023-12-01_16h45.36.179_micRespv2l4_recorded\recording_micRespv2l4_2023-12-01_16h52.28.781.wav;419.3106078999117;419.8107608000282;None;;;;;;240204;001;2023-12-01_16h45.36.179;REPSWITCH1_version2_list4;2022.2.4;143.96422816658344;
REPSWITCH1/PICTURE_242.png;cartero;speak;darkblue;filler;2;F;4;4;4;2;Stim3_Set3;0;None;88;87;88;0;87;87;87;;;;;;;;;;;;;;;;;;;;;;;419.8107608000282;420.89415799989365;420.89415799989365;420.89415799989365;420.89415799989365;420.89415799989365;420.89415799989365;420.89415799989365;420.89415799989365;423.9154250000138;423.9154250000138;423.9154250000138;423.9154250000138;423.9154250000138;423.9154250000138;None;0;;;C:\2023\REPSWITCH21092023\REPSWITCH_excgange\REPSWITCH_excgange\data/240204_REPSWITCH1_version2_list4_2023-12-01_16h45.36.179_micRespv2l4_recorded\recording_micRespv2l4_2023-12-01_16h52.33.385.wav;423.9154250000138;424.4154405000154;None;;;;;;240204;001;2023-12-01_16h45.36.179;REPSWITCH1_version2_list4;2022.2.4;143.96422816658344;
REPSWITCH1/PICTURE_498.png;taza;type;gold;nontarget;1;NT;4;4;4;2;Stim4_Set4;1;switch;89;88;89;0;88;88;88;;;;;;;;;;;;;;;;;;;;;;;424.4154405000154;425.51281800004654;425.51281800004654;425.51281800004654;425.51281800004654;425.51281800004654;425.51281800004654;425.51281800004654;425.51281800004654;428.5340589999687;428.5340589999687;428.5340589999687;428.5340589999687;428.5340589999687;428.5340589999687;['t', 'a', 'z', 'a'];0;[0.945900300052017, 1.035510400077328, 1.3674217001534998, 1.5790362001862377];taza;C:\2023\REPSWITCH21092023\REPSWITCH_excgange\REPSWITCH_excgange\data/240204_REPSWITCH1_version2_list4_2023-12-01_16h45.36.179_micRespv2l4_recorded\recording_micRespv2l4_2023-12-01_16h52.38.003.wav;428.5340589999687;429.0341179999523;None;;;;;;240204;001;2023-12-01_16h45.36.179;REPSWITCH1_version2_list4;2022.2.4;143.96422816658344;
REPSWITCH1/PICTURE_498.png;taza;speak;darkblue;switch;2;T;4;4;4;2;Stim4_Set4;0;None;90;89;90;0;89;89;89;;;;;;;;;;;;;;;;;;;;;;;429.0341179999523;430.2079195000697;430.2079195000697;430.2079195000697;430.2079195000697;430.2079195000697;430.2079195000697;430.2079195000697;430.2079195000697;433.23608940001577;433.23608940001577;433.23608940001577;433.23608940001577;433.23608940001577;433.23608940001577;None;0;;;C:\2023\REPSWITCH21092023\REPSWITCH_excgange\REPSWITCH_excgange\data/240204_REPSWITCH1_version2_list4_2023-12-01_16h45.36.179_micRespv2l4_recorded\recording_micRespv2l4_2023-12-01_16h52.42.700.wav;433.23608940001577;;None;;;;;;240204;001;2023-12-01_16h45.36.179;REPSWITCH1_version2_list4;2022.2.4;143.96422816658344;
REPSWITCH1/PICTURE_391.png;cadena;type;gold;filler;1;F;4;4;4;2;Extra2;0;None;91;90;91;0;90;90;90;;;;;;;;;;;;;;;;;;;;;;;433.7361141999718;434.9237565000076;434.9237565000076;434.9237565000076;434.9237565000076;434.9237565000076;434.9237565000076;434.9237565000076;434.9237565000076;437.9450137000531;437.9450137000531;437.9450137000531;437.9450137000531;437.9450137000531;437.9450137000531;['c', 'a', 'd', 'e', 'n', 'a'];0;[0.9464330000337213, 1.01622510002926, 1.186613499885425, 1.2873223000206053, 1.420133400009945, 1.5108380999881774];cadena;C:\2023\REPSWITCH21092023\REPSWITCH_excgange\REPSWITCH_excgange\data/240204_REPSWITCH1_version2_list4_2023-12-01_16h45.36.179_micRespv2l4_recorded\recording_micRespv2l4_2023-12-01_16h52.47.414.wav;437.9450137000531;438.4450618000701;None;;;;;;240204;001;2023-12-01_16h45.36.179;REPSWITCH1_version2_list4;2022.2.4;143.96422816658344;
REPSWITCH1/PICTURE_610.png;miel;speak;darkblue;filler;2;F;4;4;4;2;Stim2_Set3;0;None;92;91;92;0;91;91;91;;;;;;;;;;;;;;;;;;;;;;;438.4450618000701;439.4938161999453;439.4938161999453;439.4938161999453;439.4938161999453;439.4938161999453;439.4938161999453;439.4938161999453;439.4938161999453;442.5220749999862;442.5220749999862;442.5220749999862;442.5220749999862;442.5220749999862;442.5220749999862;None;0;;;C:\2023\REPSWITCH21092023\REPSWITCH_excgange\REPSWITCH_excgange\data/240204_REPSWITCH1_version2_list4_2023-12-01_16h45.36.179_micRespv2l4_recorded\recording_micRespv2l4_2023-12-01_16h52.51.985.wav;442.5220749999862;;None;;;;;;240204;001;2023-12-01_16h45.36.179;REPSWITCH1_version2_list4;2022.2.4;143.96422816658344;
REPSWITCH1/PICTURE_48.png;bombero;speak;darkblue;nontarget;2;NT;4;4;4;2;Stim7_Set4;1;repeat;93;92;93;0;92;92;92;;;;;;;;;;;;;;;;;;;;;;;443.0220625998918;444.1472241000738;444.1472241000738;444.1472241000738;444.1472241000738;444.1472241000738;444.1472241000738;444.1472241000738;444.1472241000738;447.1753607999999;447.1753607999999;447.1753607999999;447.1753607999999;447.1753607999999;447.1753607999999;None;0;;;C:\2023\REPSWITCH21092023\REPSWITCH_excgange\REPSWITCH_excgange\data/240204_REPSWITCH1_version2_list4_2023-12-01_16h45.36.179_micRespv2l4_recorded\recording_micRespv2l4_2023-12-01_16h52.56.639.wav;447.1753607999999;;None;;;;;;240204;001;2023-12-01_16h45.36.179;REPSWITCH1_version2_list4;2022.2.4;143.96422816658344;
REPSWITCH1/PICTURE_48.png;bombero;speak;darkblue;repeat;2;T;4;4;4;2;Stim7_Set4;0;None;94;93;94;0;93;93;93;;;;;;;;;;;;;;;;;;;;;;;447.67550119990483;448.7867024000734;448.7867024000734;448.7867024000734;448.7867024000734;448.7867024000734;448.7867024000734;448.7867024000734;448.7867024000734;451.80794339999557;451.80794339999557;451.80794339999557;451.80794339999557;451.80794339999557;451.80794339999557;None;0;;;C:\2023\REPSWITCH21092023\REPSWITCH_excgange\REPSWITCH_excgange\data/240204_REPSWITCH1_version2_list4_2023-12-01_16h45.36.179_micRespv2l4_recorded\recording_micRespv2l4_2023-12-01_16h53.01.278.wav;451.80794339999557;452.3080049001146;None;;;;;;240204;001;2023-12-01_16h45.36.179;REPSWITCH1_version2_list4;2022.2.4;143.96422816658344;
REPSWITCH1/PICTURE_320.png;iglesia;type;gold;filler;1;F;4;4;4;2;Stim8_Set3;1;switch;95;94;95;0;94;94;94;;;;;;;;;;;;;;;;;;;;;;;452.3080049001146;453.3428414000664;453.3428414000664;453.3428414000664;453.3428414000664;453.3428414000664;453.3428414000664;453.3428414000664;453.3428414000664;456.3641377000604;456.3641377000604;456.3641377000604;456.3641377000604;456.3641377000604;456.3641377000604;['i', 'g', 'l', 'e', 's', 'i', 'a'];0;[0.9449263999704272, 1.044680600054562, 1.148288100026548, 1.20409270003438, 1.710798199987039, 1.8085309001617134, 1.8538383999839425];iglesia;C:\2023\REPSWITCH21092023\REPSWITCH_excgange\REPSWITCH_excgange\data/240204_REPSWITCH1_version2_list4_2023-12-01_16h45.36.179_micRespv2l4_recorded\recording_micRespv2l4_2023-12-01_16h53.05.834.wav;456.3641377000604;456.86422959994525;None;;;;;;240204;001;2023-12-01_16h45.36.179;REPSWITCH1_version2_list4;2022.2.4;143.96422816658344;
REPSWITCH1/PICTURE_35.png;oreja;speak;darkblue;filler;2;F;4;4;4;2;Stim5_Set3;0;None;96;95;96;0;95;95;95;;;;;;;;;;;;;;;;;;;;;;;456.86422959994525;457.885205199942;457.885205199942;457.885205199942;457.885205199942;457.885205199942;457.885205199942;457.885205199942;457.885205199942;460.913276999956;460.913276999956;460.913276999956;460.913276999956;460.913276999956;460.913276999956;None;0;;;C:\2023\REPSWITCH21092023\REPSWITCH_excgange\REPSWITCH_excgange\data/240204_REPSWITCH1_version2_list4_2023-12-01_16h45.36.179_micRespv2l4_recorded\recording_micRespv2l4_2023-12-01_16h53.10.377.wav;460.913276999956;;None;;;;;;240204;001;2023-12-01_16h45.36.179;REPSWITCH1_version2_list4;2022.2.4;143.96422816658344;
REPSWITCH1/PICTURE_728.png;pulpo;speak;darkblue;nontarget;2;NT;4;4;4;2;Stim8_Set4;1;repeat;97;96;97;0;96;96;96;;;;;;;;;;;;;;;;;;;;;;;461.4133299998939;462.4690684999805;462.4690684999805;462.4690684999805;462.4690684999805;462.4690684999805;462.4690684999805;462.4690684999805;462.4690684999805;465.49026159988716;465.49026159988716;465.49026159988716;465.49026159988716;465.49026159988716;465.49026159988716;None;0;;;C:\2023\REPSWITCH21092023\REPSWITCH_excgange\REPSWITCH_excgange\data/240204_REPSWITCH1_version2_list4_2023-12-01_16h45.36.179_micRespv2l4_recorded\recording_micRespv2l4_2023-12-01_16h53.14.960.wav;465.49026159988716;465.9903218001127;None;;;;;;240204;001;2023-12-01_16h45.36.179;REPSWITCH1_version2_list4;2022.2.4;143.96422816658344;
REPSWITCH1/PICTURE_728.png;pulpo;type;gold;switch;1;T;4;4;4;2;Stim8_Set4;0;None;98;97;98;0;97;97;97;;;;;;;;;;;;;;;;;;;;;;;465.9903218001127;467.08077170001343;467.08077170001343;467.08077170001343;467.08077170001343;467.08077170001343;467.08077170001343;467.08077170001343;467.08077170001343;470.10200989991426;470.10200989991426;470.10200989991426;470.10200989991426;470.10200989991426;470.10200989991426;['p', 'u', 'l', 'p', 'o'];0;[1.6306056000757962, 1.819061400135979, 2.5386573001742363, 2.6692292001098394, 2.7857929000165313];pulpo;C:\2023\REPSWITCH21092023\REPSWITCH_excgange\REPSWITCH_excgange\data/240204_REPSWITCH1_version2_list4_2023-12-01_16h45.36.179_micRespv2l4_recorded\recording_micRespv2l4_2023-12-01_16h53.19.572.wav;470.10200989991426;470.6020651999861;None;;;;;;240204;001;2023-12-01_16h45.36.179;REPSWITCH1_version2_list4;2022.2.4;143.96422816658344;
REPSWITCH1/PICTURE_590.png;escoba;speak;darkblue;filler;2;F;4;4;4;2;Extra3;0;None;99;98;99;0;98;98;98;;;;;;;;;;;;;;;;;;;;;;;470.6020651999861;471.70646009990014;471.70646009990014;471.70646009990014;471.70646009990014;471.70646009990014;471.70646009990014;471.70646009990014;471.70646009990014;474.7345902000088;474.7345902000088;474.7345902000088;474.7345902000088;474.7345902000088;474.7345902000088;None;0;;;C:\2023\REPSWITCH21092023\REPSWITCH_excgange\REPSWITCH_excgange\data/240204_REPSWITCH1_version2_list4_2023-12-01_16h45.36.179_micRespv2l4_recorded\recording_micRespv2l4_2023-12-01_16h53.24.198.wav;474.7345902000088;;None;;;;;;240204;001;2023-12-01_16h45.36.179;REPSWITCH1_version2_list4;2022.2.4;143.96422816658344;
REPSWITCH1/PICTURE_235.png;aguja;type;gold;filler;1;F;4;4;4;2;Stim4_Set3;0;None;100;99;100;0;99;99;99;;;;;;;;;;;;;;;;;;;;;;;475.234633800108;476.2556239000987;476.2556239000987;476.2556239000987;476.2556239000987;476.2556239000987;476.2556239000987;476.2556239000987;476.2556239000987;479.2768359000329;479.2768359000329;479.2768359000329;479.2768359000329;479.2768359000329;479.2768359000329;['a', 'g', 'u', 'j', 'a'];0;[0.8630945000331849, 0.965727600036189, 1.0474680000916123, 1.196003100136295, 1.2637211999390274];aguja;C:\2023\REPSWITCH21092023\REPSWITCH_excgange\REPSWITCH_excgange\data/240204_REPSWITCH1_version2_list4_2023-12-01_16h45.36.179_micRespv2l4_recorded\recording_micRespv2l4_2023-12-01_16h53.28.746.wav;479.2768359000329;479.7768920001108;None;;;;;;240204;001;2023-12-01_16h45.36.179;REPSWITCH1_version2_list4;2022.2.4;143.96422816658344;
REPSWITCH1/PICTURE_719.png;baño;type;gold;nontarget;1;NT;4;4;4;2;Stim2_Set4;1;repeat;101;100;101;0;100;100;100;;;;;;;;;;;;;;;;;;;;;;;479.7768920001108;480.8326010000892;480.8326010000892;480.8326010000892;480.8326010000892;480.8326010000892;480.8326010000892;480.8326010000892;480.8326010000892;483.86080279992893;483.86080279992893;483.86080279992893;483.86080279992893;483.86080279992893;483.86080279992893;['b', 'a', 'ñ', 'o'];0;[0.9955657001119107, 1.086201900150627, 1.4431533999741077, 1.5809846001211554];baño;C:\2023\REPSWITCH21092023\REPSWITCH_excgange\REPSWITCH_excgange\data/240204_REPSWITCH1_version2_list4_2023-12-01_16h45.36.179_micRespv2l4_recorded\recording_micRespv2l4_2023-12-01_16h53.33.324.wav;483.86080279992893;;None;;;;;;240204;001;2023-12-01_16h45.36.179;REPSWITCH1_version2_list4;2022.2.4;143.96422816658344;
REPSWITCH1/PICTURE_719.png;baño;type;gold;repeat;1;T;4;4;4;2;Stim2_Set4;0;None;102;101;102;0;101;101;101;;;;;;;;;;;;;;;;;;;;;;;484.3608872999903;485.46520250011235;485.46520250011235;485.46520250011235;485.46520250011235;485.46520250011235;485.46520250011235;485.46520250011235;485.46520250011235;488.493365699891;488.493365699891;488.493365699891;488.493365699891;488.493365699891;488.493365699891;['b', 'a', 'ñ', 'o'];0;[0.6728707002475858, 0.7503465001937002, 1.1164879000280052, 1.2360583001282066];baño;C:\2023\REPSWITCH21092023\REPSWITCH_excgange\REPSWITCH_excgange\data/240204_REPSWITCH1_version2_list4_2023-12-01_16h45.36.179_micRespv2l4_recorded\recording_micRespv2l4_2023-12-01_16h53.37.956.wav;488.493365699891;;space;488.9933573999442;488.9933573999442;1.0075863001402467;;;240204;001;2023-12-01_16h45.36.179;REPSWITCH1_version2_list4;2022.2.4;143.96422816658344;
REPSWITCH1/PICTURE_646.png;tronco;speak;darkblue;filler;2;F;1;3;4;2;Extra4;0;None;103;102;1;0;102;102;102;;;;;;;;;;;;;;;;;;;;;;;490.0143500000704;491.07705059996806;491.07705059996806;491.07705059996806;491.07705059996806;491.07705059996806;491.07705059996806;491.07705059996806;491.07705059996806;494.10519929998554;494.10519929998554;494.10519929998554;494.10519929998554;494.10519929998554;494.10519929998554;None;0;;;C:\2023\REPSWITCH21092023\REPSWITCH_excgange\REPSWITCH_excgange\data/240204_REPSWITCH1_version2_list4_2023-12-01_16h45.36.179_micRespv2l4_recorded\recording_micRespv2l4_2023-12-01_16h53.43.569.wav;494.10519929998554;;None;;;;;;240204;001;2023-12-01_16h45.36.179;REPSWITCH1_version2_list4;2022.2.4;143.96422816658344;
REPSWITCH1/PICTURE_340.png;espejo;type;gold;filler;1;F;1;3;4;2;Extra1;0;None;104;103;2;0;103;103;103;;;;;;;;;;;;;;;;;;;;;;;494.6052045999095;495.62618070002645;495.62618070002645;495.62618070002645;495.62618070002645;495.62618070002645;495.62618070002645;495.62618070002645;495.62618070002645;498.6544194999151;498.6544194999151;498.6544194999151;498.6544194999151;498.6544194999151;498.6544194999151;['e', 's', 'p', 'e', 'j', 'o'];0;[0.7870302000083029, 0.9405179000459611, 1.4757912000641227, 1.6679227000568062, 2.24377500009723, 2.3016135999932885];espejo;C:\2023\REPSWITCH21092023\REPSWITCH_excgange\REPSWITCH_excgange\data/240204_REPSWITCH1_version2_list4_2023-12-01_16h45.36.179_micRespv2l4_recorded\recording_micRespv2l4_2023-12-01_16h53.48.118.wav;498.6544194999151;;None;;;;;;240204;001;2023-12-01_16h45.36.179;REPSWITCH1_version2_list4;2022.2.4;143.96422816658344;
REPSWITCH1/PICTURE_338.png;regalo;speak;darkblue;filler;2;F;1;3;4;2;Stim6_Set4;0;None;105;104;3;0;104;104;104;;;;;;;;;;;;;;;;;;;;;;;499.1544151001144;500.3143329999875;500.3143329999875;500.3143329999875;500.3143329999875;500.3143329999875;500.3143329999875;500.3143329999875;500.3143329999875;503.3355692999903;503.3355692999903;503.3355692999903;503.3355692999903;503.3355692999903;503.3355692999903;None;0;;;C:\2023\REPSWITCH21092023\REPSWITCH_excgange\REPSWITCH_excgange\data/240204_REPSWITCH1_version2_list4_2023-12-01_16h45.36.179_micRespv2l4_recorded\recording_micRespv2l4_2023-12-01_16h53.52.806.wav;503.3355692999903;503.83561110007577;None;;;;;;240204;001;2023-12-01_16h45.36.179;REPSWITCH1_version2_list4;2022.2.4;143.96422816658344;
REPSWITCH1/PICTURE_142.png;vaso;speak;darkblue;nontarget;2;NT;1;3;4;2;Stim7_Set1;1;repeat;106;105;4;0;105;105;105;;;;;;;;;;;;;;;;;;;;;;;503.83561110007577;504.8565738000907;504.8565738000907;504.8565738000907;504.8565738000907;504.8565738000907;504.8565738000907;504.8565738000907;504.8565738000907;507.88481689989567;507.88481689989567;507.88481689989567;507.88481689989567;507.88481689989567;507.88481689989567;None;0;;;C:\2023\REPSWITCH21092023\REPSWITCH_excgange\REPSWITCH_excgange\data/240204_REPSWITCH1_version2_list4_2023-12-01_16h45.36.179_micRespv2l4_recorded\recording_micRespv2l4_2023-12-01_16h53.57.348.wav;507.88481689989567;;None;;;;;;240204;001;2023-12-01_16h45.36.179;REPSWITCH1_version2_list4;2022.2.4;143.96422816658344;
REPSWITCH1/PICTURE_142.png;vaso;speak;darkblue;repeat;2;T;1;3;4;2;Stim7_Set1;0;None;107;106;5;0;106;106;106;;;;;;;;;;;;;;;;;;;;;;;508.3848166000098;509.46132209990174;509.46132209990174;509.46132209990174;509.46132209990174;509.46132209990174;509.46132209990174;509.46132209990174;509.46132209990174;512.4826595999766;512.4826595999766;512.4826595999766;512.4826595999766;512.4826595999766;512.4826595999766;None;0;;;C:\2023\REPSWITCH21092023\REPSWITCH_excgange\REPSWITCH_excgange\data/240204_REPSWITCH1_version2_list4_2023-12-01_16h45.36.179_micRespv2l4_recorded\recording_micRespv2l4_2023-12-01_16h54.01.953.wav;512.4826595999766;512.982642200077;None;;;;;;240204;001;2023-12-01_16h45.36.179;REPSWITCH1_version2_list4;2022.2.4;143.96422816658344;
REPSWITCH1/PICTURE_498.png;taza;type;gold;filler;1;F;1;3;4;2;Stim4_Set4;0;None;108;107;6;0;107;107;107;;;;;;;;;;;;;;;;;;;;;;;512.982642200077;514.1286434000358;514.1286434000358;514.1286434000358;514.1286434000358;514.1286434000358;514.1286434000358;514.1286434000358;514.1286434000358;517.1567973999772;517.1567973999772;517.1567973999772;517.1567973999772;517.1567973999772;517.1567973999772;['t', 'a', 'z', 'a'];0;[0.8567487001419067, 0.9192737000994384, 1.2308388000819832, 1.3274753000587225];taza;C:\2023\REPSWITCH21092023\REPSWITCH_excgange\REPSWITCH_excgange\data/240204_REPSWITCH1_version2_list4_2023-12-01_16h45.36.179_micRespv2l4_recorded\recording_micRespv2l4_2023-12-01_16h54.06.620.wav;517.1567973999772;;None;;;;;;240204;001;2023-12-01_16h45.36.179;REPSWITCH1_version2_list4;2022.2.4;143.96422816658344;
REPSWITCH1/PICTURE_16.png;cazador;speak;darkblue;nontarget;2;NT;1;3;4;2;Stim6_Set1;1;switch;109;108;7;0;108;108;108;;;;;;;;;;;;;;;;;;;;;;;517.6568436000962;518.7750776000321;518.7750776000321;518.7750776000321;518.7750776000321;518.7750776000321;518.7750776000321;518.7750776000321;518.7750776000321;521.7962797000073;521.7962797000073;521.7962797000073;521.7962797000073;521.7962797000073;521.7962797000073;None;0;;;C:\2023\REPSWITCH21092023\REPSWITCH_excgange\REPSWITCH_excgange\data/240204_REPSWITCH1_version2_list4_2023-12-01_16h45.36.179_micRespv2l4_recorded\recording_micRespv2l4_2023-12-01_16h54.11.266.wav;521.7962797000073;522.2963286999147;None;;;;;;240204;001;2023-12-01_16h45.36.179;REPSWITCH1_version2_list4;2022.2.4;143.96422816658344;
REPSWITCH1/PICTURE_16.png;cazador;speak;darkblue;repeat;2;T;1;3;4;2;Stim6_Set1;0;None;110;109;8;0;109;109;109;;;;;;;;;;;;;;;;;;;;;;;522.2963286999147;523.3242717999965;523.3242717999965;523.3242717999965;523.3242717999965;523.3242717999965;523.3242717999965;523.3242717999965;523.3242717999965;526.3455143999308;526.3455143999308;526.3455143999308;526.3455143999308;526.3455143999308;526.3455143999308;None;0;;;C:\2023\REPSWITCH21092023\REPSWITCH_excgange\REPSWITCH_excgange\data/240204_REPSWITCH1_version2_list4_2023-12-01_16h45.36.179_micRespv2l4_recorded\recording_micRespv2l4_2023-12-01_16h54.15.815.wav;526.3455143999308;526.8455666999798;None;;;;;;240204;001;2023-12-01_16h45.36.179;REPSWITCH1_version2_list4;2022.2.4;143.96422816658344;
REPSWITCH1/PICTURE_719.png;baño;type;gold;filler;1;F;1;3;4;2;Stim2_Set4;0;None;111;110;9;0;110;110;110;;;;;;;;;;;;;;;;;;;;;;;526.8455666999798;528.026359600015;528.026359600015;528.026359600015;528.026359600015;528.026359600015;528.026359600015;528.026359600015;528.026359600015;531.0475635000039;531.0475635000039;531.0475635000039;531.0475635000039;531.0475635000039;531.0475635000039;['b', 'a', 'ñ', 'o'];0;[0.7812790002208203, 0.8589178002439439, 1.2011621003039181, 1.3287645000964403];baño;C:\2023\REPSWITCH21092023\REPSWITCH_excgange\REPSWITCH_excgange\data/240204_REPSWITCH1_version2_list4_2023-12-01_16h45.36.179_micRespv2l4_recorded\recording_micRespv2l4_2023-12-01_16h54.20.517.wav;531.0475635000039;531.5475850000512;None;;;;;;240204;001;2023-12-01_16h45.36.179;REPSWITCH1_version2_list4;2022.2.4;143.96422816658344;
REPSWITCH1/PICTURE_169.png;espalda;speak;darkblue;nontarget;2;NT;1;3;4;2;Stim8_Set1;0;None;112;111;10;0;111;111;111;;;;;;;;;;;;;;;;;;;;;;;531.5475850000512;532.6310558000114;532.6310558000114;532.6310558000114;532.6310558000114;532.6310558000114;532.6310558000114;532.6310558000114;532.6310558000114;535.6592045999132;535.6592045999132;535.6592045999132;535.6592045999132;535.6592045999132;535.6592045999132;None;0;;;C:\2023\REPSWITCH21092023\REPSWITCH_excgange\REPSWITCH_excgange\data/240204_REPSWITCH1_version2_list4_2023-12-01_16h45.36.179_micRespv2l4_recorded\recording_micRespv2l4_2023-12-01_16h54.25.122.wav;535.6592045999132;;None;;;;;;240204;001;2023-12-01_16h45.36.179;REPSWITCH1_version2_list4;2022.2.4;143.96422816658344;
REPSWITCH1/PICTURE_169.png;espalda;type;gold;switch;1;T;1;3;4;2;Stim8_Set1;0;None;113;112;11;0;112;112;112;;;;;;;;;;;;;;;;;;;;;;;536.1592927998863;537.2844847999513;537.2844847999513;537.2844847999513;537.2844847999513;537.2844847999513;537.2844847999513;537.2844847999513;537.2844847999513;540.3056928999722;540.3056928999722;540.3056928999722;540.3056928999722;540.3056928999722;540.3056928999722;['e', 's', 'p', 'a', 'l', 'd', 'a'];0;[0.8916488999966532, 1.0424977999646217, 1.7013091000262648, 1.8013150000479072, 1.8391869000624865, 1.946835800074041, 2.0195798999629915];espalda;C:\2023\REPSWITCH21092023\REPSWITCH_excgange\REPSWITCH_excgange\data/240204_REPSWITCH1_version2_list4_2023-12-01_16h45.36.179_micRespv2l4_recorded\recording_micRespv2l4_2023-12-01_16h54.29.776.wav;540.3056928999722;540.8057361000683;None;;;;;;240204;001;2023-12-01_16h45.36.179;REPSWITCH1_version2_list4;2022.2.4;143.96422816658344;
REPSWITCH1/PICTURE_687.png;camisa;type;gold;filler;1;F;1;3;4;2;Stim5_Set4;0;None;114;113;12;0;113;113;113;;;;;;;;;;;;;;;;;;;;;;;540.8057361000683;541.8753458999563;541.8753458999563;541.8753458999563;541.8753458999563;541.8753458999563;541.8753458999563;541.8753458999563;541.8753458999563;544.8966002000961;544.8966002000961;544.8966002000961;544.8966002000961;544.8966002000961;544.8966002000961;['c', 'a', 'm', 'i', 's', 'a'];0;[1.0243635999504477, 1.0742031999398023, 1.270770699949935, 1.3874240000732243, 1.4272473000455648, 1.5559610000345856];camisa;C:\2023\REPSWITCH21092023\REPSWITCH_excgange\REPSWITCH_excgange\data/240204_REPSWITCH1_version2_list4_2023-12-01_16h45.36.179_micRespv2l4_recorded\recording_micRespv2l4_2023-12-01_16h54.34.367.wav;544.8966002000961;545.3966137000825;None;;;;;;240204;001;2023-12-01_16h45.36.179;REPSWITCH1_version2_list4;2022.2.4;143.96422816658344;
REPSWITCH1/PICTURE_178.png;puente;type;gold;nontarget;1;NT;1;3;4;2;Stim1_Set1;1;repeat;115;114;13;0;114;114;114;;;;;;;;;;;;;;;;;;;;;;;545.3966137000825;546.4939727000892;546.4939727000892;546.4939727000892;546.4939727000892;546.4939727000892;546.4939727000892;546.4939727000892;546.4939727000892;549.5221643000841;549.5221643000841;549.5221643000841;549.5221643000841;549.5221643000841;549.5221643000841;['p', 'u', 'e', 't', 'n', 'e'];0;[0.8036725001875311, 1.4405375001952052, 1.5482400001492351, 1.6358905001543462, 1.64086510008201, 1.7218628001865];puetne;C:\2023\REPSWITCH21092023\REPSWITCH_excgange\REPSWITCH_excgange\data/240204_REPSWITCH1_version2_list4_2023-12-01_16h45.36.179_micRespv2l4_recorded\recording_micRespv2l4_2023-12-01_16h54.38.986.wav;549.5221643000841;;None;;;;;;240204;001;2023-12-01_16h45.36.179;REPSWITCH1_version2_list4;2022.2.4;143.96422816658344;
REPSWITCH1/PICTURE_178.png;puente;speak;darkblue;switch;2;T;1;3;4;2;Stim1_Set1;0;None;116;115;14;0;115;115;115;;;;;;;;;;;;;;;;;;;;;;;550.0222054000478;551.0848632999696;551.0848632999696;551.0848632999696;551.0848632999696;551.0848632999696;551.0848632999696;551.0848632999696;551.0848632999696;554.1061084999237;554.1061084999237;554.1061084999237;554.1061084999237;554.1061084999237;554.1061084999237;None;0;;;C:\2023\REPSWITCH21092023\REPSWITCH_excgange\REPSWITCH_excgange\data/240204_REPSWITCH1_version2_list4_2023-12-01_16h45.36.179_micRespv2l4_recorded\recording_micRespv2l4_2023-12-01_16h54.43.576.wav;554.1061084999237;554.606173499953;None;;;;;;240204;001;2023-12-01_16h45.36.179;REPSWITCH1_version2_list4;2022.2.4;143.96422816658344;
REPSWITCH1/PICTURE_128.png;muñeca;speak;darkblue;nontarget;2;NT;1;3;4;2;Stim4_Set1;1;repeat;117;116;15;0;116;116;116;;;;;;;;;;;;;;;;;;;;;;;554.606173499953;555.7868691999465;555.7868691999465;555.7868691999465;555.7868691999465;555.7868691999465;555.7868691999465;555.7868691999465;555.7868691999465;558.8080980000086;558.8080980000086;558.8080980000086;558.8080980000086;558.8080980000086;558.8080980000086;None;0;;;C:\2023\REPSWITCH21092023\REPSWITCH_excgange\REPSWITCH_excgange\data/240204_REPSWITCH1_version2_list4_2023-12-01_16h45.36.179_micRespv2l4_recorded\recording_micRespv2l4_2023-12-01_16h54.48.278.wav;558.8080980000086;559.3081728001125;None;;;;;;240204;001;2023-12-01_16h45.36.179;REPSWITCH1_version2_list4;2022.2.4;143.96422816658344;
REPSWITCH1/PICTURE_128.png;muñeca;type;gold;switch;1;T;1;3;4;2;Stim4_Set1;0;None;118;117;16;0;117;117;117;;;;;;;;;;;;;;;;;;;;;;;559.3081728001125;560.5027624999639;560.5027624999639;560.5027624999639;560.5027624999639;560.5027624999639;560.5027624999639;560.5027624999639;560.5027624999639;563.5239941999316;563.5239941999316;563.5239941999316;563.5239941999316;563.5239941999316;563.5239941999316;['m', 'u', 'ñ', 'e', 'c', 'a'];0;[0.8787760001141578, 1.0514893000945449, 1.5981553001329303, 1.6490339001175016, 1.8075366001576185, 1.8855702001601458];muñeca;C:\2023\REPSWITCH21092023\REPSWITCH_excgange\REPSWITCH_excgange\data/240204_REPSWITCH1_version2_list4_2023-12-01_16h45.36.179_micRespv2l4_recorded\recording_micRespv2l4_2023-12-01_16h54.52.994.wav;563.5239941999316;564.024055799935;None;;;;;;240204;001;2023-12-01_16h45.36.179;REPSWITCH1_version2_list4;2022.2.4;143.96422816658344;
REPSWITCH1/PICTURE_319.png;vaca;speak;darkblue;filler;2;F;1;3;4;2;Stim1_Set4;1;switch;119;118;17;0;118;118;118;;;;;;;;;;;;;;;;;;;;;;;564.024055799935;565.0936944999266;565.0936944999266;565.0936944999266;565.0936944999266;565.0936944999266;565.0936944999266;565.0936944999266;565.0936944999266;568.1218304000795;568.1218304000795;568.1218304000795;568.1218304000795;568.1218304000795;568.1218304000795;None;0;;;C:\2023\REPSWITCH21092023\REPSWITCH_excgange\REPSWITCH_excgange\data/240204_REPSWITCH1_version2_list4_2023-12-01_16h45.36.179_micRespv2l4_recorded\recording_micRespv2l4_2023-12-01_16h54.57.585.wav;568.1218304000795;;None;;;;;;240204;001;2023-12-01_16h45.36.179;REPSWITCH1_version2_list4;2022.2.4;143.96422816658344;
REPSWITCH1/PICTURE_728.png;pulpo;speak;darkblue;filler;2;F;1;3;4;2;Stim8_Set4;0;None;120;119;18;0;119;119;119;;;;;;;;;;;;;;;;;;;;;;;568.6219013999216;569.6498060999438;569.6498060999438;569.6498060999438;569.6498060999438;569.6498060999438;569.6498060999438;569.6498060999438;569.6498060999438;572.6710222000256;572.6710222000256;572.6710222000256;572.6710222000256;572.6710222000256;572.6710222000256;['p', 'u', 'l', 'p', 'o'];0;[0.8838204999919981, 1.068324400112033, 1.498466500081122, 1.6120261000469327, 1.705676200101152];pulpo;C:\2023\REPSWITCH21092023\REPSWITCH_excgange\REPSWITCH_excgange\data/240204_REPSWITCH1_version2_list4_2023-12-01_16h45.36.179_micRespv2l4_recorded\recording_micRespv2l4_2023-12-01_16h55.02.141.wav;572.6710222000256;573.171104399953;None;;;;;;240204;001;2023-12-01_16h45.36.179;REPSWITCH1_version2_list4;2022.2.4;143.96422816658344;
REPSWITCH1/PICTURE_381.png;fresa;type;gold;nontarget;1;NT;1;3;4;2;Stim2_Set1;1;switch;121;120;19;0;120;120;120;;;;;;;;;;;;;;;;;;;;;;;573.171104399953;574.3588195000775;574.3588195000775;574.3588195000775;574.3588195000775;574.3588195000775;574.3588195000775;574.3588195000775;574.3588195000775;577.3869181000628;577.3869181000628;577.3869181000628;577.3869181000628;577.3869181000628;577.3869181000628;['f', 'r', 'e', 's', 'a'];0;[0.9296426000073552, 1.002573600038886, 1.045689000049606, 1.2430465000215918, 1.3476726000662893];fresa;C:\2023\REPSWITCH21092023\REPSWITCH_excgange\REPSWITCH_excgange\data/240204_REPSWITCH1_version2_list4_2023-12-01_16h45.36.179_micRespv2l4_recorded\recording_micRespv2l4_2023-12-01_16h55.06.850.wav;577.3869181000628;;None;;;;;;240204;001;2023-12-01_16h45.36.179;REPSWITCH1_version2_list4;2022.2.4;143.96422816658344;
