image;correctAns;respModal;frameColor;repSwitch;sequence;target;set;block;list;exp_version;stimulus;baseline;baseline_condition;trial_no;psychopy_trial;Column1;trialsREPSWITCH.thisRepN;trialsREPSWITCH.thisTrialN;trialsREPSWITCH.thisN;trialsREPSWITCH.thisIndex;textWelcome.started;textboxInstrMain1.started;textboxInstrMain1_2.started;textboxInstrMain1_3.started;keyInstrMain.started;keyInstrMain.keys;keyInstrMain.rt;textboxInstrMain2.started;textboxInstrMain2_2.started;textboxInstrMain2_3.started;textboxInstrMain2_4.started;textboxInstrMain2_5.started;textboxInstrMain2_6.started;textboxInstrMain2_7.started;textboxInstrMain2_8.started;textboxInstrMain2_9.started;textboxInstrMain2_10.started;textboxInstrMain2_11.started;textboxInstrMain2_12.started;keyInstrMain2.started;keyInstrMain2.keys;keyInstrMain2.rt;fixationITI.started;fixationITI.stopped;polygonColour.started;polygonWhite.started;imageObject.started;polygonType.started;textInput.started;keyResp.started;micRespv1l3.started;keyResp.keys;keyResp.corr;keyResp.rt;subjResponse;micRespv1l3.clip;textBlankLoop.started;textBlankLoop.stopped;keyPause.keys;polygonColour.stopped;polygonWhite.stopped;imageObject.stopped;polygonType.stopped;textInput.stopped;keyResp.stopped;textboxPause.started;keyPause.started;keyPause.rt;textboxGoodbye.started;textboxGoodbye.stopped;participant;session;date;expName;psychopyVersion;frameRate;Column2
;;;;;;;;;;;;;;;;;;;;;9.100895199924707;11.598733899882063;11.598733899882063;11.598733899882063;11.598733899882063;space;3.419864699942991;;;;;;;;;;;;;;;;;;;;;;;;;;;;;;;;;;;;;;;;;;;;210103;001;2023-12-01_11h22.53.067;REPSWITCH1_version1_list3;2022.2.4;143.88199375664644;
;;;;;;;;;;;;;;;;;;;;;;;;;;;;15.036671299953014;15.036671299953014;15.036671299953014;15.036671299953014;15.036671299953014;15.036671299953014;15.036671299953014;15.036671299953014;15.036671299953014;15.036671299953014;15.036671299953014;15.036671299953014;15.036671299953014;space;1.61457490012981;;;;;;;;;;;;;;;;;;;;;;;;;;;;;210103;001;2023-12-01_11h22.53.067;REPSWITCH1_version1_list3;2022.2.4;143.88199375664644;
REPSWITCH1/PICTURE_663.png;columna;type;darkblue;filler;1;F;1;2;3;1;Extra6;0;None;1;0;1;0;0;0;0;;;;;;;;;;;;;;;;;;;;;;;16.752154800109565;17.870428000111133;17.870428000111133;17.870428000111133;17.870428000111133;17.870428000111133;17.870428000111133;17.870428000111133;17.870428000111133;['c', 'o', 'u', 'backspace'];0;[1.739209699910134, 1.861758799990639, 2.0872269000392407, 2.6950127000454813];co;C:\2023\REPSWITCH21092023\REPSWITCH_excgange\REPSWITCH_excgange\data/210103_REPSWITCH1_version1_list3_2023-12-01_11h22.53.067_micRespv1l3_recorded\recording_micRespv1l3_2023-12-01_11h23.06.720.wav;20.89170109992847;21.39168299990706;None;;;;;;;;;;;;210103;001;2023-12-01_11h22.53.067;REPSWITCH1_version1_list3;2022.2.4;143.88199375664644;
REPSWITCH1/PICTURE_128.png;muñeca;speak;gold;nontarget;2;NT;1;2;3;1;Stim4_Set1;1;switch;2;1;2;0;1;1;1;;;;;;;;;;;;;;;;;;;;;;;21.39168299990706;22.475152099970728;22.475152099970728;22.475152099970728;22.475152099970728;22.475152099970728;22.475152099970728;22.475152099970728;22.475152099970728;['m', 'backspace'];0;[1.0998802001122385, 2.0713136000558734];;C:\2023\REPSWITCH21092023\REPSWITCH_excgange\REPSWITCH_excgange\data/210103_REPSWITCH1_version1_list3_2023-12-01_11h22.53.067_micRespv1l3_recorded\recording_micRespv1l3_2023-12-01_11h23.11.328.wav;25.503318700008094;;None;25.503318700008094;25.503318700008094;25.503318700008094;25.503318700008094;25.503318700008094;25.503318700008094;;;;;;210103;001;2023-12-01_11h22.53.067;REPSWITCH1_version1_list3;2022.2.4;143.88199375664644;
REPSWITCH1/PICTURE_128.png;muñeca;speak;gold;repeat;2;T;1;2;3;1;Stim4_Set1;0;None;3;2;3;0;2;2;2;;;;;;;;;;;;;;;;;;;;;;;26.003394099883735;27.059118600096554;27.059118600096554;27.059118600096554;27.059118600096554;27.059118600096554;27.059118600096554;27.059118600096554;27.059118600096554;None;0;;;C:\2023\REPSWITCH21092023\REPSWITCH_excgange\REPSWITCH_excgange\data/210103_REPSWITCH1_version1_list3_2023-12-01_11h22.53.067_micRespv1l3_recorded\recording_micRespv1l3_2023-12-01_11h23.15.912.wav;30.08030360005796;30.580353500088677;None;30.08030360005796;30.08030360005796;30.08030360005796;30.08030360005796;30.08030360005796;30.08030360005796;;;;;;210103;001;2023-12-01_11h22.53.067;REPSWITCH1_version1_list3;2022.2.4;143.88199375664644;
REPSWITCH1/PICTURE_8.png;pierna;type;darkblue;filler;1;F;1;2;3;1;Stim3_Set4;0;None;4;3;4;0;3;3;3;;;;;;;;;;;;;;;;;;;;;;;30.580353500088677;31.62218900001608;31.62218900001608;31.62218900001608;31.62218900001608;31.62218900001608;31.62218900001608;31.62218900001608;31.62218900001608;['p', 'i', 'e', 'r', 'n', 'a'];0;[0.779110899893567, 1.00498849991709, 1.1687346000690013, 1.2963004999328405, 1.427543899975717, 1.5376834000926465];pierna;C:\2023\REPSWITCH21092023\REPSWITCH_excgange\REPSWITCH_excgange\data/210103_REPSWITCH1_version1_list3_2023-12-01_11h22.53.067_micRespv1l3_recorded\recording_micRespv1l3_2023-12-01_11h23.20.475.wav;34.64341700007208;35.14345350000076;None;34.64341700007208;34.64341700007208;34.64341700007208;34.64341700007208;34.64341700007208;34.64341700007208;;;;;;210103;001;2023-12-01_11h22.53.067;REPSWITCH1_version1_list3;2022.2.4;143.88199375664644;
REPSWITCH1/PICTURE_135.png;traje;speak;gold;nontarget;2;NT;1;2;3;1;Stim3_Set1;1;switch;5;4;5;0;4;4;4;;;;;;;;;;;;;;;;;;;;;;;35.14345350000076;36.24092660006136;36.24092660006136;36.24092660006136;36.24092660006136;36.24092660006136;36.24092660006136;36.24092660006136;36.24092660006136;None;0;;;C:\2023\REPSWITCH21092023\REPSWITCH_excgange\REPSWITCH_excgange\data/210103_REPSWITCH1_version1_list3_2023-12-01_11h22.53.067_micRespv1l3_recorded\recording_micRespv1l3_2023-12-01_11h23.25.094.wav;39.26210499997251;39.76212180010043;None;39.26210499997251;39.26210499997251;39.26210499997251;39.26210499997251;39.26210499997251;39.26210499997251;;;;;;210103;001;2023-12-01_11h22.53.067;REPSWITCH1_version1_list3;2022.2.4;143.88199375664644;
REPSWITCH1/PICTURE_135.png;traje;speak;gold;repeat;2;T;1;2;3;1;Stim3_Set1;0;None;6;5;6;0;5;5;5;;;;;;;;;;;;;;;;;;;;;;;39.76212180010043;40.79008370009251;40.79008370009251;40.79008370009251;40.79008370009251;40.79008370009251;40.79008370009251;40.79008370009251;40.79008370009251;None;0;;;C:\2023\REPSWITCH21092023\REPSWITCH_excgange\REPSWITCH_excgange\data/210103_REPSWITCH1_version1_list3_2023-12-01_11h22.53.067_micRespv1l3_recorded\recording_micRespv1l3_2023-12-01_11h23.29.643.wav;43.81126020010561;44.311404400039464;None;43.81126020010561;43.81126020010561;43.81126020010561;43.81126020010561;43.81126020010561;43.81126020010561;;;;;;210103;001;2023-12-01_11h22.53.067;REPSWITCH1_version1_list3;2022.2.4;143.88199375664644;
REPSWITCH1/PICTURE_673.png;tenedor;type;darkblue;filler;1;F;1;2;3;1;Extra5;0;None;7;6;7;0;6;6;6;;;;;;;;;;;;;;;;;;;;;;;44.311404400039464;45.46429740008898;45.46429740008898;45.46429740008898;45.46429740008898;45.46429740008898;45.46429740008898;45.46429740008898;45.46429740008898;['t', 'e', 'n', 'e', 'd', 'o', 'r'];0;[0.9993042999412864, 1.100958599941805, 1.2464695000089705, 1.3411240000277758, 1.5465611999388784, 1.655203799949959, 1.777785399928689];tenedor;C:\2023\REPSWITCH21092023\REPSWITCH_excgange\REPSWITCH_excgange\data/210103_REPSWITCH1_version1_list3_2023-12-01_11h22.53.067_micRespv1l3_recorded\recording_micRespv1l3_2023-12-01_11h23.34.317.wav;48.485496500041336;48.98566009989008;None;48.485496500041336;48.485496500041336;48.485496500041336;48.485496500041336;48.485496500041336;48.485496500041336;;;;;;210103;001;2023-12-01_11h22.53.067;REPSWITCH1_version1_list3;2022.2.4;143.88199375664644;
REPSWITCH1/PICTURE_728.png;pulpo;speak;gold;filler;2;F;1;2;3;1;Stim8_Set4;0;None;8;7;8;0;7;7;7;;;;;;;;;;;;;;;;;;;;;;;48.98566009989008;49.99270899989642;49.99270899989642;49.99270899989642;49.99270899989642;49.99270899989642;49.99270899989642;49.99270899989642;49.99270899989642;None;0;;;C:\2023\REPSWITCH21092023\REPSWITCH_excgange\REPSWITCH_excgange\data/210103_REPSWITCH1_version1_list3_2023-12-01_11h22.53.067_micRespv1l3_recorded\recording_micRespv1l3_2023-12-01_11h23.38.846.wav;53.01389629999176;53.51396039989777;None;53.01389629999176;53.01389629999176;53.01389629999176;53.01389629999176;53.01389629999176;53.01389629999176;;;;;;210103;001;2023-12-01_11h22.53.067;REPSWITCH1_version1_list3;2022.2.4;143.88199375664644;
REPSWITCH1/PICTURE_16.png;cazador;speak;gold;nontarget;2;NT;1;2;3;1;Stim6_Set1;1;repeat;9;8;9;0;8;8;8;;;;;;;;;;;;;;;;;;;;;;;53.51396039989777;54.541926299920306;54.541926299920306;54.541926299920306;54.541926299920306;54.541926299920306;54.541926299920306;54.541926299920306;54.541926299920306;None;0;;;C:\2023\REPSWITCH21092023\REPSWITCH_excgange\REPSWITCH_excgange\data/210103_REPSWITCH1_version1_list3_2023-12-01_11h22.53.067_micRespv1l3_recorded\recording_micRespv1l3_2023-12-01_11h23.43.396.wav;57.56306229997426;58.06314600002952;None;57.56306229997426;57.56306229997426;57.56306229997426;57.56306229997426;57.56306229997426;57.56306229997426;;;;;;210103;001;2023-12-01_11h22.53.067;REPSWITCH1_version1_list3;2022.2.4;143.88199375664644;
REPSWITCH1/PICTURE_16.png;cazador;type;darkblue;switch;1;T;1;2;3;1;Stim6_Set1;0;None;10;9;10;0;9;9;9;;;;;;;;;;;;;;;;;;;;;;;58.06314600002952;59.153574199881405;59.153574199881405;59.153574199881405;59.153574199881405;59.153574199881405;59.153574199881405;59.153574199881405;59.153574199881405;['c', 'a', 'z', 'a', 'd', 'o', 'r'];0;[0.7754061999730766, 0.8740683998912573, 1.1631024999078363, 1.4112333999946713, 1.6622995999641716, 1.7858553999103606, 1.906488699838519];cazador;C:\2023\REPSWITCH21092023\REPSWITCH_excgange\REPSWITCH_excgange\data/210103_REPSWITCH1_version1_list3_2023-12-01_11h22.53.067_micRespv1l3_recorded\recording_micRespv1l3_2023-12-01_11h23.48.007.wav;62.181788800051436;;None;62.181788800051436;62.181788800051436;62.181788800051436;62.181788800051436;62.181788800051436;62.181788800051436;;;;;;210103;001;2023-12-01_11h22.53.067;REPSWITCH1_version1_list3;2022.2.4;143.88199375664644;
REPSWITCH1/PICTURE_498.png;taza;type;darkblue;filler;1;F;1;2;3;1;Stim4_Set4;1;repeat;11;10;11;0;10;10;10;;;;;;;;;;;;;;;;;;;;;;;62.68182100006379;63.876448000082746;63.876448000082746;63.876448000082746;63.876448000082746;63.876448000082746;63.876448000082746;63.876448000082746;63.876448000082746;['t', 'a', 'z', 'a'];0;[0.8818772998638451, 0.9986378999892622, 1.28781669982709, 1.6247425000183284];taza;C:\2023\REPSWITCH21092023\REPSWITCH_excgange\REPSWITCH_excgange\data/210103_REPSWITCH1_version1_list3_2023-12-01_11h22.53.067_micRespv1l3_recorded\recording_micRespv1l3_2023-12-01_11h23.52.730.wav;66.89765829988755;67.3977224000264;None;66.89765829988755;66.89765829988755;66.89765829988755;66.89765829988755;66.89765829988755;66.89765829988755;;;;;;210103;001;2023-12-01_11h22.53.067;REPSWITCH1_version1_list3;2022.2.4;143.88199375664644;
REPSWITCH1/PICTURE_381.png;fresa;type;darkblue;nontarget;1;NT;1;2;3;1;Stim2_Set1;1;repeat;12;11;12;0;11;11;11;;;;;;;;;;;;;;;;;;;;;;;67.3977224000264;68.44644459988922;68.44644459988922;68.44644459988922;68.44644459988922;68.44644459988922;68.44644459988922;68.44644459988922;68.44644459988922;['f', 'r', 'e', 's', 'a'];0;[0.9322096998803318, 1.2481461998540908, 1.3258632000070065, 1.6079378998838365, 1.6806995999068022];fresa;C:\2023\REPSWITCH21092023\REPSWITCH_excgange\REPSWITCH_excgange\data/210103_REPSWITCH1_version1_list3_2023-12-01_11h22.53.067_micRespv1l3_recorded\recording_micRespv1l3_2023-12-01_11h23.57.299.wav;71.46766149997711;71.96780369989574;None;71.46766149997711;71.46766149997711;71.46766149997711;71.46766149997711;71.46766149997711;71.46766149997711;;;;;;210103;001;2023-12-01_11h22.53.067;REPSWITCH1_version1_list3;2022.2.4;143.88199375664644;
REPSWITCH1/PICTURE_381.png;fresa;speak;gold;switch;2;T;1;2;3;1;Stim2_Set1;0;None;13;12;13;0;12;12;12;;;;;;;;;;;;;;;;;;;;;;;71.96780369989574;72.98878589994274;72.98878589994274;72.98878589994274;72.98878589994274;72.98878589994274;72.98878589994274;72.98878589994274;72.98878589994274;None;0;;;C:\2023\REPSWITCH21092023\REPSWITCH_excgange\REPSWITCH_excgange\data/210103_REPSWITCH1_version1_list3_2023-12-01_11h22.53.067_micRespv1l3_recorded\recording_micRespv1l3_2023-12-01_11h24.01.842.wav;76.0099541998934;76.51002350007184;None;76.0099541998934;76.0099541998934;76.0099541998934;76.0099541998934;76.0099541998934;76.0099541998934;;;;;;210103;001;2023-12-01_11h22.53.067;REPSWITCH1_version1_list3;2022.2.4;143.88199375664644;
REPSWITCH1/PICTURE_178.png;puente;speak;gold;nontarget;2;NT;1;2;3;1;Stim1_Set1;0;None;14;13;14;0;13;13;13;;;;;;;;;;;;;;;;;;;;;;;76.51002350007184;77.6282315000426;77.6282315000426;77.6282315000426;77.6282315000426;77.6282315000426;77.6282315000426;77.6282315000426;77.6282315000426;None;0;;;C:\2023\REPSWITCH21092023\REPSWITCH_excgange\REPSWITCH_excgange\data/210103_REPSWITCH1_version1_list3_2023-12-01_11h22.53.067_micRespv1l3_recorded\recording_micRespv1l3_2023-12-01_11h24.06.482.wav;80.65646929992363;;None;80.65646929992363;80.65646929992363;80.65646929992363;80.65646929992363;80.65646929992363;80.65646929992363;;;;;;210103;001;2023-12-01_11h22.53.067;REPSWITCH1_version1_list3;2022.2.4;143.88199375664644;
REPSWITCH1/PICTURE_178.png;puente;type;darkblue;switch;1;T;1;2;3;1;Stim1_Set1;0;None;15;14;15;0;14;14;14;;;;;;;;;;;;;;;;;;;;;;;81.15646420000121;82.295520799933;82.295520799933;82.295520799933;82.295520799933;82.295520799933;82.295520799933;82.295520799933;82.295520799933;['p', 'u', 'e', 'n', 't', 'e'];0;[0.9290636000223458, 1.249333000043407, 1.424184399889782, 1.5448827999643981, 1.6865600999444723, 1.7494757000822574];puente;C:\2023\REPSWITCH21092023\REPSWITCH_excgange\REPSWITCH_excgange\data/210103_REPSWITCH1_version1_list3_2023-12-01_11h22.53.067_micRespv1l3_recorded\recording_micRespv1l3_2023-12-01_11h24.11.148.wav;85.32367320009507;;None;85.32367320009507;85.32367320009507;85.32367320009507;85.32367320009507;85.32367320009507;85.32367320009507;;;;;;210103;001;2023-12-01_11h22.53.067;REPSWITCH1_version1_list3;2022.2.4;143.88199375664644;
REPSWITCH1/PICTURE_719.png;baño;speak;gold;filler;2;F;1;2;3;1;Stim2_Set4;0;None;16;15;16;0;15;15;15;;;;;;;;;;;;;;;;;;;;;;;85.82374659995548;86.93497729999945;86.93497729999945;86.93497729999945;86.93497729999945;86.93497729999945;86.93497729999945;86.93497729999945;86.93497729999945;None;0;;;C:\2023\REPSWITCH21092023\REPSWITCH_excgange\REPSWITCH_excgange\data/210103_REPSWITCH1_version1_list3_2023-12-01_11h22.53.067_micRespv1l3_recorded\recording_micRespv1l3_2023-12-01_11h24.15.788.wav;89.9631803999655;;None;89.9631803999655;89.9631803999655;89.9631803999655;89.9631803999655;89.9631803999655;89.9631803999655;;;;;;210103;001;2023-12-01_11h22.53.067;REPSWITCH1_version1_list3;2022.2.4;143.88199375664644;
REPSWITCH1/PICTURE_169.png;espalda;type;darkblue;nontarget;1;NT;1;2;3;1;Stim8_Set1;1;switch;17;16;17;0;16;16;16;;;;;;;;;;;;;;;;;;;;;;;90.4632900999859;91.57448949990794;91.57448949990794;91.57448949990794;91.57448949990794;91.57448949990794;91.57448949990794;91.57448949990794;91.57448949990794;['e', 's', 'p', 'a', 'l', 'd', 'a'];0;[0.8983520001638681, 1.0890763001516461, 1.2796661001630127, 1.384531200164929, 1.583821500185877, 1.6745524001307786, 1.7502945000305772];espalda;C:\2023\REPSWITCH21092023\REPSWITCH_excgange\REPSWITCH_excgange\data/210103_REPSWITCH1_version1_list3_2023-12-01_11h22.53.067_micRespv1l3_recorded\recording_micRespv1l3_2023-12-01_11h24.20.427.wav;94.59573920001276;95.09579559997655;None;94.59573920001276;94.59573920001276;94.59573920001276;94.59573920001276;94.59573920001276;94.59573920001276;;;;;;210103;001;2023-12-01_11h22.53.067;REPSWITCH1_version1_list3;2022.2.4;143.88199375664644;
REPSWITCH1/PICTURE_169.png;espalda;type;darkblue;repeat;1;T;1;2;3;1;Stim8_Set1;0;None;18;17;18;0;17;17;17;;;;;;;;;;;;;;;;;;;;;;;95.09579559997655;96.13071479997598;96.13071479997598;96.13071479997598;96.13071479997598;96.13071479997598;96.13071479997598;96.13071479997598;96.13071479997598;['e', 's', 'p', 'a', 'l', 'd', 'a'];0;[1.574967300053686, 1.7703104000538588, 1.96065660007298, 2.0563294000457972, 2.2327998999971896, 2.3264800999313593, 2.3962286000605673];espalda;C:\2023\REPSWITCH21092023\REPSWITCH_excgange\REPSWITCH_excgange\data/210103_REPSWITCH1_version1_list3_2023-12-01_11h22.53.067_micRespv1l3_recorded\recording_micRespv1l3_2023-12-01_11h24.24.984.wav;99.15888289990835;;None;99.15888289990835;99.15888289990835;99.15888289990835;99.15888289990835;99.15888289990835;99.15888289990835;;;;;;210103;001;2023-12-01_11h22.53.067;REPSWITCH1_version1_list3;2022.2.4;143.88199375664644;
REPSWITCH1/PICTURE_48.png;bombero;speak;gold;filler;2;F;1;2;3;1;Stim7_Set4;1;switch;19;18;19;0;18;18;18;;;;;;;;;;;;;;;;;;;;;;;99.65889970003627;100.72156640002504;100.72156640002504;100.72156640002504;100.72156640002504;100.72156640002504;100.72156640002504;100.72156640002504;100.72156640002504;None;0;;;C:\2023\REPSWITCH21092023\REPSWITCH_excgange\REPSWITCH_excgange\data/210103_REPSWITCH1_version1_list3_2023-12-01_11h22.53.067_micRespv1l3_recorded\recording_micRespv1l3_2023-12-01_11h24.29.575.wav;103.74978569988161;;None;103.74978569988161;103.74978569988161;103.74978569988161;103.74978569988161;103.74978569988161;103.74978569988161;;;;;;210103;001;2023-12-01_11h22.53.067;REPSWITCH1_version1_list3;2022.2.4;143.88199375664644;
REPSWITCH1/PICTURE_19.png;pavo;type;darkblue;nontarget;1;NT;1;2;3;1;Stim5_Set1;1;switch;20;19;20;0;19;19;19;;;;;;;;;;;;;;;;;;;;;;;104.24977519991808;105.367973000044;105.367973000044;105.367973000044;105.367973000044;105.367973000044;105.367973000044;105.367973000044;105.367973000044;['p', 'a', 'v', 'o'];0;[0.8037726001348346, 0.918357599992305, 1.1335427002049983, 1.2890817001461983];pavo;C:\2023\REPSWITCH21092023\REPSWITCH_excgange\REPSWITCH_excgange\data/210103_REPSWITCH1_version1_list3_2023-12-01_11h22.53.067_micRespv1l3_recorded\recording_micRespv1l3_2023-12-01_11h24.34.221.wav;108.39615439996123;;None;108.39615439996123;108.39615439996123;108.39615439996123;108.39615439996123;108.39615439996123;108.39615439996123;;;;;;210103;001;2023-12-01_11h22.53.067;REPSWITCH1_version1_list3;2022.2.4;143.88199375664644;
REPSWITCH1/PICTURE_19.png;pavo;type;darkblue;repeat;1;T;1;2;3;1;Stim5_Set1;0;None;21;20;21;0;20;20;20;;;;;;;;;;;;;;;;;;;;;;;108.89619449991733;109.93803509999998;109.93803509999998;109.93803509999998;109.93803509999998;109.93803509999998;109.93803509999998;109.93803509999998;109.93803509999998;['p', 'a', 'v', 'o'];0;[1.1664456999860704, 1.2694853998254985, 1.4954322997946292, 1.6099381998647004];pavo;C:\2023\REPSWITCH21092023\REPSWITCH_excgange\REPSWITCH_excgange\data/210103_REPSWITCH1_version1_list3_2023-12-01_11h22.53.067_micRespv1l3_recorded\recording_micRespv1l3_2023-12-01_11h24.38.792.wav;112.96619859989733;;None;112.96619859989733;112.96619859989733;112.96619859989733;112.96619859989733;112.96619859989733;112.96619859989733;;;;;;210103;001;2023-12-01_11h22.53.067;REPSWITCH1_version1_list3;2022.2.4;143.88199375664644;
REPSWITCH1/PICTURE_319.png;vaca;speak;gold;filler;2;F;1;2;3;1;Stim1_Set4;0;None;22;21;22;0;21;21;21;;;;;;;;;;;;;;;;;;;;;;;113.4662387999706;114.57061189995147;114.57061189995147;114.57061189995147;114.57061189995147;114.57061189995147;114.57061189995147;114.57061189995147;114.57061189995147;None;0;;;C:\2023\REPSWITCH21092023\REPSWITCH_excgange\REPSWITCH_excgange\data/210103_REPSWITCH1_version1_list3_2023-12-01_11h22.53.067_micRespv1l3_recorded\recording_micRespv1l3_2023-12-01_11h24.43.423.wav;117.59185079997405;118.09187579993159;None;117.59185079997405;117.59185079997405;117.59185079997405;117.59185079997405;117.59185079997405;117.59185079997405;;;;;;210103;001;2023-12-01_11h22.53.067;REPSWITCH1_version1_list3;2022.2.4;143.88199375664644;
REPSWITCH1/PICTURE_338.png;regalo;type;darkblue;filler;1;F;1;2;3;1;Stim6_Set4;0;None;23;22;23;0;22;22;22;;;;;;;;;;;;;;;;;;;;;;;118.09187579993159;119.22397750010714;119.22397750010714;119.22397750010714;119.22397750010714;119.22397750010714;119.22397750010714;119.22397750010714;119.22397750010714;['r', 'e', 'g', 'a', 'l', 'o'];0;[0.8971365999896079, 1.0436156999785453, 1.2822124001104385, 1.4018514999188483, 1.618898899992928, 1.8511153999716043];regalo;C:\2023\REPSWITCH21092023\REPSWITCH_excgange\REPSWITCH_excgange\data/210103_REPSWITCH1_version1_list3_2023-12-01_11h22.53.067_micRespv1l3_recorded\recording_micRespv1l3_2023-12-01_11h24.48.078.wav;122.25210379995406;122.7521794999484;None;122.25210379995406;122.25210379995406;122.25210379995406;122.25210379995406;122.25210379995406;122.25210379995406;;;;;;210103;001;2023-12-01_11h22.53.067;REPSWITCH1_version1_list3;2022.2.4;143.88199375664644;
REPSWITCH1/PICTURE_142.png;vaso;type;darkblue;nontarget;1;NT;1;2;3;1;Stim7_Set1;0;None;24;23;24;0;23;23;23;;;;;;;;;;;;;;;;;;;;;;;122.7521794999484;123.79402350005694;123.79402350005694;123.79402350005694;123.79402350005694;123.79402350005694;123.79402350005694;123.79402350005694;123.79402350005694;['v', 'a', 's', 'o'];0;[1.6379790999926627, 1.7209805001039058, 1.9482128999661654, 2.0602318001911044];vaso;C:\2023\REPSWITCH21092023\REPSWITCH_excgange\REPSWITCH_excgange\data/210103_REPSWITCH1_version1_list3_2023-12-01_11h22.53.067_micRespv1l3_recorded\recording_micRespv1l3_2023-12-01_11h24.52.648.wav;126.8221664999146;;None;126.8221664999146;126.8221664999146;126.8221664999146;126.8221664999146;126.8221664999146;126.8221664999146;;;;;;210103;001;2023-12-01_11h22.53.067;REPSWITCH1_version1_list3;2022.2.4;143.88199375664644;
REPSWITCH1/PICTURE_142.png;vaso;speak;gold;switch;2;T;1;2;3;1;Stim7_Set1;0;None;25;24;25;0;24;24;24;;;;;;;;;;;;;;;;;;;;;;;127.32222190010361;128.37795159989037;128.37795159989037;128.37795159989037;128.37795159989037;128.37795159989037;128.37795159989037;128.37795159989037;128.37795159989037;None;0;;;C:\2023\REPSWITCH21092023\REPSWITCH_excgange\REPSWITCH_excgange\data/210103_REPSWITCH1_version1_list3_2023-12-01_11h22.53.067_micRespv1l3_recorded\recording_micRespv1l3_2023-12-01_11h24.57.232.wav;131.4061547999736;;None;131.4061547999736;131.4061547999736;131.4061547999736;131.4061547999736;131.4061547999736;131.4061547999736;;;;;;210103;001;2023-12-01_11h22.53.067;REPSWITCH1_version1_list3;2022.2.4;143.88199375664644;
REPSWITCH1/PICTURE_687.png;camisa;type;darkblue;filler;1;F;1;2;3;1;Stim5_Set4;1;switch;26;25;26;0;25;25;25;;;;;;;;;;;;;;;;;;;;;;;131.9061851000879;132.9688657000661;132.9688657000661;132.9688657000661;132.9688657000661;132.9688657000661;132.9688657000661;132.9688657000661;132.9688657000661;['c', 'a', 'm', 'i', 's', 'a'];0;[1.1046086000278592, 1.1883513000793755, 1.4647681000642478, 1.5482038999907672, 1.6598710000980645, 1.7375553001184016];camisa;C:\2023\REPSWITCH21092023\REPSWITCH_excgange\REPSWITCH_excgange\data/210103_REPSWITCH1_version1_list3_2023-12-01_11h22.53.067_micRespv1l3_recorded\recording_micRespv1l3_2023-12-01_11h25.01.821.wav;135.99705670005642;;None;135.99705670005642;135.99705670005642;135.99705670005642;135.99705670005642;135.99705670005642;135.99705670005642;;;;;;210103;001;2023-12-01_11h22.53.067;REPSWITCH1_version1_list3;2022.2.4;143.88199375664644;
REPSWITCH1/PICTURE_30.png;granja;type;darkblue;nontarget;1;NT;2;2;3;1;Stim5_Set2;0;None;27;26;27;0;26;26;26;;;;;;;;;;;;;;;;;;;;;;;136.49705010000616;137.6083048998844;137.6083048998844;137.6083048998844;137.6083048998844;137.6083048998844;137.6083048998844;137.6083048998844;137.6083048998844;['g', 'r', 'a', 'n', 'j', 'a'];0;[1.4042630000039935, 1.6499302999582142, 1.8725022000726312, 2.0509522000793368, 2.365112300030887, 2.4418587000109255];granja;C:\2023\REPSWITCH21092023\REPSWITCH_excgange\REPSWITCH_excgange\data/210103_REPSWITCH1_version1_list3_2023-12-01_11h22.53.067_micRespv1l3_recorded\recording_micRespv1l3_2023-12-01_11h25.06.463.wav;140.63649250008166;141.1365567999892;None;140.63649250008166;140.63649250008166;140.63649250008166;140.63649250008166;140.63649250008166;140.63649250008166;;;;;;210103;001;2023-12-01_11h22.53.067;REPSWITCH1_version1_list3;2022.2.4;143.88199375664644;
REPSWITCH1/PICTURE_30.png;granja;type;darkblue;repeat;1;T;2;2;3;1;Stim5_Set2;0;None;28;27;28;0;27;27;27;;;;;;;;;;;;;;;;;;;;;;;141.1365567999892;142.16449550003745;142.16449550003745;142.16449550003745;142.16449550003745;142.16449550003745;142.16449550003745;142.16449550003745;142.16449550003745;['g', 'r', 'a', 'n', 'j', 'a'];0;[0.7294980001170188, 0.9502793001011014, 1.0539247000124305, 1.211407900089398, 1.4685329000931233, 1.5193597001489252];granja;C:\2023\REPSWITCH21092023\REPSWITCH_excgange\REPSWITCH_excgange\data/210103_REPSWITCH1_version1_list3_2023-12-01_11h22.53.067_micRespv1l3_recorded\recording_micRespv1l3_2023-12-01_11h25.11.018.wav;145.19264640007168;;None;145.19264640007168;145.19264640007168;145.19264640007168;145.19264640007168;145.19264640007168;145.19264640007168;;;;;;210103;001;2023-12-01_11h22.53.067;REPSWITCH1_version1_list3;2022.2.4;143.88199375664644;
REPSWITCH1/PICTURE_128.png;muñeca;speak;gold;filler;2;F;2;2;3;1;Stim4_Set1;0;None;29;28;29;0;28;28;28;;;;;;;;;;;;;;;;;;;;;;;145.69271419988945;146.7483926001005;146.7483926001005;146.7483926001005;146.7483926001005;146.7483926001005;146.7483926001005;146.7483926001005;146.7483926001005;None;0;;;C:\2023\REPSWITCH21092023\REPSWITCH_excgange\REPSWITCH_excgange\data/210103_REPSWITCH1_version1_list3_2023-12-01_11h22.53.067_micRespv1l3_recorded\recording_micRespv1l3_2023-12-01_11h25.15.602.wav;149.77657509990968;;None;149.77657509990968;149.77657509990968;149.77657509990968;149.77657509990968;149.77657509990968;149.77657509990968;;;;;;210103;001;2023-12-01_11h22.53.067;REPSWITCH1_version1_list3;2022.2.4;143.88199375664644;
REPSWITCH1/PICTURE_264.png;mano;type;darkblue;nontarget;1;NT;2;2;3;1;Stim3_Set2;1;switch;30;29;30;0;29;29;29;;;;;;;;;;;;;;;;;;;;;;;150.27664890000597;151.3740302999504;151.3740302999504;151.3740302999504;151.3740302999504;151.3740302999504;151.3740302999504;151.3740302999504;151.3740302999504;['m', 'a', 'n', 'o'];0;[0.8272885999176651, 0.9817673999350518, 1.1073600000236183, 1.2305387000087649];mano;C:\2023\REPSWITCH21092023\REPSWITCH_excgange\REPSWITCH_excgange\data/210103_REPSWITCH1_version1_list3_2023-12-01_11h22.53.067_micRespv1l3_recorded\recording_micRespv1l3_2023-12-01_11h25.20.227.wav;154.39521689992398;154.89528209995478;None;154.39521689992398;154.39521689992398;154.39521689992398;154.39521689992398;154.39521689992398;154.39521689992398;;;;;;210103;001;2023-12-01_11h22.53.067;REPSWITCH1_version1_list3;2022.2.4;143.88199375664644;
REPSWITCH1/PICTURE_264.png;mano;type;darkblue;repeat;1;T;2;2;3;1;Stim3_Set2;0;None;31;30;31;0;30;30;30;;;;;;;;;;;;;;;;;;;;;;;154.89528209995478;155.93022549990565;155.93022549990565;155.93022549990565;155.93022549990565;155.93022549990565;155.93022549990565;155.93022549990565;155.93022549990565;['m', 'a', 'n', 'o'];0;[0.8014320998918265, 0.9748476999811828, 1.1206022000405937, 1.2332130998838693];mano;C:\2023\REPSWITCH21092023\REPSWITCH_excgange\REPSWITCH_excgange\data/210103_REPSWITCH1_version1_list3_2023-12-01_11h22.53.067_micRespv1l3_recorded\recording_micRespv1l3_2023-12-01_11h25.24.783.wav;158.9514045000542;159.451460900018;None;158.9514045000542;158.9514045000542;158.9514045000542;158.9514045000542;158.9514045000542;158.9514045000542;;;;;;210103;001;2023-12-01_11h22.53.067;REPSWITCH1_version1_list3;2022.2.4;143.88199375664644;
REPSWITCH1/PICTURE_175.png;pintor;type;darkblue;nontarget;1;NT;2;2;3;1;Stim1_Set2;0;None;32;31;32;0;31;31;31;;;;;;;;;;;;;;;;;;;;;;;159.451460900018;160.55582250002772;160.55582250002772;160.55582250002772;160.55582250002772;160.55582250002772;160.55582250002772;160.55582250002772;160.55582250002772;['p', 'i', 'n', 't', 'o', 'r'];0;[1.0223409000318497, 1.2537831999361515, 1.3813127998728305, 1.5268645000178367, 1.6467746999114752, 1.7533911999780685];pintor;C:\2023\REPSWITCH21092023\REPSWITCH_excgange\REPSWITCH_excgange\data/210103_REPSWITCH1_version1_list3_2023-12-01_11h22.53.067_micRespv1l3_recorded\recording_micRespv1l3_2023-12-01_11h25.29.409.wav;163.5840189999435;;None;163.5840189999435;163.5840189999435;163.5840189999435;163.5840189999435;163.5840189999435;163.5840189999435;;;;;;210103;001;2023-12-01_11h22.53.067;REPSWITCH1_version1_list3;2022.2.4;143.88199375664644;
REPSWITCH1/PICTURE_175.png;pintor;speak;gold;switch;2;T;2;2;3;1;Stim1_Set2;0;None;33;32;33;0;32;32;32;;;;;;;;;;;;;;;;;;;;;;;164.08400569995865;165.22997580002993;165.22997580002993;165.22997580002993;165.22997580002993;165.22997580002993;165.22997580002993;165.22997580002993;165.22997580002993;None;0;;;C:\2023\REPSWITCH21092023\REPSWITCH_excgange\REPSWITCH_excgange\data/210103_REPSWITCH1_version1_list3_2023-12-01_11h22.53.067_micRespv1l3_recorded\recording_micRespv1l3_2023-12-01_11h25.34.083.wav;168.25120349996723;168.75125500001013;None;168.25120349996723;168.25120349996723;168.25120349996723;168.25120349996723;168.25120349996723;168.25120349996723;;;;;;210103;001;2023-12-01_11h22.53.067;REPSWITCH1_version1_list3;2022.2.4;143.88199375664644;
REPSWITCH1/PICTURE_135.png;traje;speak;gold;filler;2;F;2;2;3;1;Stim3_Set1;1;repeat;34;33;34;0;33;33;33;;;;;;;;;;;;;;;;;;;;;;;168.75125500001013;169.8486363000702;169.8486363000702;169.8486363000702;169.8486363000702;169.8486363000702;169.8486363000702;169.8486363000702;169.8486363000702;None;0;;;C:\2023\REPSWITCH21092023\REPSWITCH_excgange\REPSWITCH_excgange\data/210103_REPSWITCH1_version1_list3_2023-12-01_11h22.53.067_micRespv1l3_recorded\recording_micRespv1l3_2023-12-01_11h25.38.702.wav;172.869942399906;173.3699590000324;None;172.869942399906;172.869942399906;172.869942399906;172.869942399906;172.869942399906;172.869942399906;;;;;;210103;001;2023-12-01_11h22.53.067;REPSWITCH1_version1_list3;2022.2.4;143.88199375664644;
REPSWITCH1/PICTURE_446.png;cerdo;speak;gold;nontarget;2;NT;2;2;3;1;Stim7_Set2;1;repeat;35;34;35;0;34;34;34;;;;;;;;;;;;;;;;;;;;;;;173.3699590000324;174.390915799886;174.390915799886;174.390915799886;174.390915799886;174.390915799886;174.390915799886;174.390915799886;174.390915799886;None;0;;;C:\2023\REPSWITCH21092023\REPSWITCH_excgange\REPSWITCH_excgange\data/210103_REPSWITCH1_version1_list3_2023-12-01_11h22.53.067_micRespv1l3_recorded\recording_micRespv1l3_2023-12-01_11h25.43.243.wav;177.41212740004994;177.91225200006738;None;177.41212740004994;177.41212740004994;177.41212740004994;177.41212740004994;177.41212740004994;177.41212740004994;;;;;;210103;001;2023-12-01_11h22.53.067;REPSWITCH1_version1_list3;2022.2.4;143.88199375664644;
REPSWITCH1/PICTURE_446.png;cerdo;type;darkblue;switch;1;T;2;2;3;1;Stim7_Set2;0;None;36;35;36;0;35;35;35;;;;;;;;;;;;;;;;;;;;;;;177.91225200006738;179.0512679000385;179.0512679000385;179.0512679000385;179.0512679000385;179.0512679000385;179.0512679000385;179.0512679000385;179.0512679000385;['c', 'e', 'r', 'd', 'o'];0;[0.6998091000132263, 0.9699067999608815, 1.1064766999334097, 1.347965900087729, 1.4748297000769526];cerdo;C:\2023\REPSWITCH21092023\REPSWITCH_excgange\REPSWITCH_excgange\data/210103_REPSWITCH1_version1_list3_2023-12-01_11h22.53.067_micRespv1l3_recorded\recording_micRespv1l3_2023-12-01_11h25.47.905.wav;182.07943659997545;;None;182.07943659997545;182.07943659997545;182.07943659997545;182.07943659997545;182.07943659997545;182.07943659997545;;;;;;210103;001;2023-12-01_11h22.53.067;REPSWITCH1_version1_list3;2022.2.4;143.88199375664644;
REPSWITCH1/PICTURE_152.png;caracol;type;darkblue;nontarget;1;NT;2;2;3;1;Stim2_Set2;1;repeat;37;36;37;0;36;36;36;;;;;;;;;;;;;;;;;;;;;;;182.57948400010355;183.64914939994924;183.64914939994924;183.64914939994924;183.64914939994924;183.64914939994924;183.64914939994924;183.64914939994924;183.64914939994924;['c', 'a', 'r', 'a', 'c', 'o', 'l'];0;[0.7521784000564367, 0.8787330000195652, 1.0562232001684606, 1.1798233999870718, 1.421968000009656, 1.5336148000787944, 1.7406073999591172];caracol;C:\2023\REPSWITCH21092023\REPSWITCH_excgange\REPSWITCH_excgange\data/210103_REPSWITCH1_version1_list3_2023-12-01_11h22.53.067_micRespv1l3_recorded\recording_micRespv1l3_2023-12-01_11h25.52.503.wav;186.6772970999591;;None;186.6772970999591;186.6772970999591;186.6772970999591;186.6772970999591;186.6772970999591;186.6772970999591;;;;;;210103;001;2023-12-01_11h22.53.067;REPSWITCH1_version1_list3;2022.2.4;143.88199375664644;
REPSWITCH1/PICTURE_152.png;caracol;speak;gold;switch;2;T;2;2;3;1;Stim2_Set2;0;None;38;37;38;0;37;37;37;;;;;;;;;;;;;;;;;;;;;;;187.17731179995462;188.30245999991894;188.30245999991894;188.30245999991894;188.30245999991894;188.30245999991894;188.30245999991894;188.30245999991894;188.30245999991894;None;0;;;C:\2023\REPSWITCH21092023\REPSWITCH_excgange\REPSWITCH_excgange\data/210103_REPSWITCH1_version1_list3_2023-12-01_11h22.53.067_micRespv1l3_recorded\recording_micRespv1l3_2023-12-01_11h25.57.156.wav;191.32366249989718;191.82376609998755;None;191.32366249989718;191.32366249989718;191.32366249989718;191.32366249989718;191.32366249989718;191.32366249989718;;;;;;210103;001;2023-12-01_11h22.53.067;REPSWITCH1_version1_list3;2022.2.4;143.88199375664644;
REPSWITCH1/PICTURE_16.png;cazador;type;darkblue;filler;1;F;2;2;3;1;Stim6_Set1;0;None;39;38;39;0;38;38;38;;;;;;;;;;;;;;;;;;;;;;;191.82376609998755;192.89338880009018;192.89338880009018;192.89338880009018;192.89338880009018;192.89338880009018;192.89338880009018;192.89338880009018;192.89338880009018;['c', 'a', 'z', 'a', 'd', 'o', 'r'];0;[0.935476099839434, 1.0322064999490976, 1.3611192998941988, 1.6194584998302162, 1.805059699807316, 1.9236255998257548, 2.049222899833694];cazador;C:\2023\REPSWITCH21092023\REPSWITCH_excgange\REPSWITCH_excgange\data/210103_REPSWITCH1_version1_list3_2023-12-01_11h22.53.067_micRespv1l3_recorded\recording_micRespv1l3_2023-12-01_11h26.01.747.wav;195.9215462000575;;None;195.9215462000575;195.9215462000575;195.9215462000575;195.9215462000575;195.9215462000575;195.9215462000575;;;;;;210103;001;2023-12-01_11h22.53.067;REPSWITCH1_version1_list3;2022.2.4;143.88199375664644;
REPSWITCH1/PICTURE_381.png;fresa;speak;gold;filler;2;F;2;2;3;1;Stim2_Set1;0;None;40;39;40;0;39;39;39;;;;;;;;;;;;;;;;;;;;;;;196.42158890003338;197.51893049990758;197.51893049990758;197.51893049990758;197.51893049990758;197.51893049990758;197.51893049990758;197.51893049990758;197.51893049990758;None;0;;;C:\2023\REPSWITCH21092023\REPSWITCH_excgange\REPSWITCH_excgange\data/210103_REPSWITCH1_version1_list3_2023-12-01_11h22.53.067_micRespv1l3_recorded\recording_micRespv1l3_2023-12-01_11h26.06.371.wav;200.54022970004007;201.04023310006596;None;200.54022970004007;200.54022970004007;200.54022970004007;200.54022970004007;200.54022970004007;200.54022970004007;;;;;;210103;001;2023-12-01_11h22.53.067;REPSWITCH1_version1_list3;2022.2.4;143.88199375664644;
REPSWITCH1/PICTURE_19.png;pavo;type;darkblue;filler;1;F;2;2;3;1;Stim5_Set1;0;None;41;40;41;0;40;40;40;;;;;;;;;;;;;;;;;;;;;;;201.04023310006596;202.12375380005687;202.12375380005687;202.12375380005687;202.12375380005687;202.12375380005687;202.12375380005687;202.12375380005687;202.12375380005687;['p', 'a', 'v', 'o'];0;[0.8101842999458313, 0.9241271999198943, 1.0686047000344843, 1.1957381998654455];pavo;C:\2023\REPSWITCH21092023\REPSWITCH_excgange\REPSWITCH_excgange\data/210103_REPSWITCH1_version1_list3_2023-12-01_11h22.53.067_micRespv1l3_recorded\recording_micRespv1l3_2023-12-01_11h26.10.977.wav;205.14493190008216;205.64501000009477;None;205.14493190008216;205.14493190008216;205.14493190008216;205.14493190008216;205.14493190008216;205.14493190008216;;;;;;210103;001;2023-12-01_11h22.53.067;REPSWITCH1_version1_list3;2022.2.4;143.88199375664644;
REPSWITCH1/PICTURE_517.png;cuerda;speak;gold;nontarget;2;NT;2;2;3;1;Stim4_Set2;1;switch;42;41;42;0;41;41;41;;;;;;;;;;;;;;;;;;;;;;;205.64501000009477;206.67991399997845;206.67991399997845;206.67991399997845;206.67991399997845;206.67991399997845;206.67991399997845;206.67991399997845;206.67991399997845;None;0;;;C:\2023\REPSWITCH21092023\REPSWITCH_excgange\REPSWITCH_excgange\data/210103_REPSWITCH1_version1_list3_2023-12-01_11h22.53.067_micRespv1l3_recorded\recording_micRespv1l3_2023-12-01_11h26.15.534.wav;209.70805180002935;;None;209.70805180002935;209.70805180002935;209.70805180002935;209.70805180002935;209.70805180002935;209.70805180002935;;;;;;210103;001;2023-12-01_11h22.53.067;REPSWITCH1_version1_list3;2022.2.4;143.88199375664644;
REPSWITCH1/PICTURE_517.png;cuerda;speak;gold;repeat;2;T;2;2;3;1;Stim4_Set2;0;None;43;42;43;0;42;42;42;;;;;;;;;;;;;;;;;;;;;;;210.2080959000159;211.29158179997467;211.29158179997467;211.29158179997467;211.29158179997467;211.29158179997467;211.29158179997467;211.29158179997467;211.29158179997467;None;0;;;C:\2023\REPSWITCH21092023\REPSWITCH_excgange\REPSWITCH_excgange\data/210103_REPSWITCH1_version1_list3_2023-12-01_11h22.53.067_micRespv1l3_recorded\recording_micRespv1l3_2023-12-01_11h26.20.144.wav;214.31281809997745;214.81296809995547;None;214.31281809997745;214.31281809997745;214.31281809997745;214.31281809997745;214.31281809997745;214.31281809997745;;;;;;210103;001;2023-12-01_11h22.53.067;REPSWITCH1_version1_list3;2022.2.4;143.88199375664644;
REPSWITCH1/PICTURE_178.png;puente;type;darkblue;filler;1;F;2;2;3;1;Stim1_Set1;0;None;44;43;44;0;43;43;43;;;;;;;;;;;;;;;;;;;;;;;214.81296809995547;216.02145239990205;216.02145239990205;216.02145239990205;216.02145239990205;216.02145239990205;216.02145239990205;216.02145239990205;216.02145239990205;['p', 'u', 'e', 'n', 't', 'e'];0;[0.9572229001205415, 1.2711308000143617, 1.5183311002328992, 1.6100285002030432, 1.7744726000819355, 1.8571960001718253];puente;C:\2023\REPSWITCH21092023\REPSWITCH_excgange\REPSWITCH_excgange\data/210103_REPSWITCH1_version1_list3_2023-12-01_11h22.53.067_micRespv1l3_recorded\recording_micRespv1l3_2023-12-01_11h26.24.875.wav;219.04961770004593;;None;219.04961770004593;219.04961770004593;219.04961770004593;219.04961770004593;219.04961770004593;219.04961770004593;;;;;;210103;001;2023-12-01_11h22.53.067;REPSWITCH1_version1_list3;2022.2.4;143.88199375664644;
REPSWITCH1/PICTURE_199.png;falda;speak;gold;nontarget;2;NT;2;2;3;1;Stim8_Set2;1;switch;45;44;45;0;44;44;44;;;;;;;;;;;;;;;;;;;;;;;219.54961919994093;220.6469775000587;220.6469775000587;220.6469775000587;220.6469775000587;220.6469775000587;220.6469775000587;220.6469775000587;220.6469775000587;None;0;;;C:\2023\REPSWITCH21092023\REPSWITCH_excgange\REPSWITCH_excgange\data/210103_REPSWITCH1_version1_list3_2023-12-01_11h22.53.067_micRespv1l3_recorded\recording_micRespv1l3_2023-12-01_11h26.29.500.wav;223.6752140999306;224.1752122999169;None;223.6752140999306;223.6752140999306;223.6752140999306;223.6752140999306;223.6752140999306;223.6752140999306;;;;;;210103;001;2023-12-01_11h22.53.067;REPSWITCH1_version1_list3;2022.2.4;143.88199375664644;
REPSWITCH1/PICTURE_199.png;falda;speak;gold;repeat;2;T;2;2;3;1;Stim8_Set2;0;None;46;45;46;0;45;45;45;;;;;;;;;;;;;;;;;;;;;;;224.1752122999169;225.2517524000723;225.2517524000723;225.2517524000723;225.2517524000723;225.2517524000723;225.2517524000723;225.2517524000723;225.2517524000723;None;0;;;C:\2023\REPSWITCH21092023\REPSWITCH_excgange\REPSWITCH_excgange\data/210103_REPSWITCH1_version1_list3_2023-12-01_11h22.53.067_micRespv1l3_recorded\recording_micRespv1l3_2023-12-01_11h26.34.105.wav;228.27299290010706;228.77306440006942;None;228.27299290010706;228.27299290010706;228.27299290010706;228.27299290010706;228.27299290010706;228.27299290010706;;;;;;210103;001;2023-12-01_11h22.53.067;REPSWITCH1_version1_list3;2022.2.4;143.88199375664644;
REPSWITCH1/PICTURE_169.png;espalda;type;darkblue;filler;1;F;2;2;3;1;Stim8_Set1;0;None;47;46;47;0;46;46;46;;;;;;;;;;;;;;;;;;;;;;;228.77306440006942;229.9120918000117;229.9120918000117;229.9120918000117;229.9120918000117;229.9120918000117;229.9120918000117;229.9120918000117;229.9120918000117;['e', 's', 'p', 'a', 'l', 'd', 'a'];0;[0.8186757999937981, 1.1239241999574006, 1.3962971998844296, 1.5239099999889731, 1.6893437998369336, 1.7843303999397904, 1.871905299834907];espalda;C:\2023\REPSWITCH21092023\REPSWITCH_excgange\REPSWITCH_excgange\data/210103_REPSWITCH1_version1_list3_2023-12-01_11h22.53.067_micRespv1l3_recorded\recording_micRespv1l3_2023-12-01_11h26.38.765.wav;232.9333969000727;233.4333939999342;None;232.9333969000727;232.9333969000727;232.9333969000727;232.9333969000727;232.9333969000727;232.9333969000727;;;;;;210103;001;2023-12-01_11h22.53.067;REPSWITCH1_version1_list3;2022.2.4;143.88199375664644;
REPSWITCH1/PICTURE_142.png;vaso;speak;gold;filler;2;F;2;2;3;1;Stim7_Set1;0;None;48;47;48;0;47;47;47;;;;;;;;;;;;;;;;;;;;;;;233.4333939999342;234.70445109996945;234.70445109996945;234.70445109996945;234.70445109996945;234.70445109996945;234.70445109996945;234.70445109996945;234.70445109996945;None;0;;;C:\2023\REPSWITCH21092023\REPSWITCH_excgange\REPSWITCH_excgange\data/210103_REPSWITCH1_version1_list3_2023-12-01_11h22.53.067_micRespv1l3_recorded\recording_micRespv1l3_2023-12-01_11h26.43.557.wav;237.73256770009175;;None;237.73256770009175;237.73256770009175;237.73256770009175;237.73256770009175;237.73256770009175;237.73256770009175;;;;;;210103;001;2023-12-01_11h22.53.067;REPSWITCH1_version1_list3;2022.2.4;143.88199375664644;
REPSWITCH1/PICTURE_552.png;manzana;speak;gold;nontarget;2;NT;2;2;3;1;Stim6_Set2;0;None;49;48;49;0;48;48;48;;;;;;;;;;;;;;;;;;;;;;;238.23263389989734;239.2744217000436;239.2744217000436;239.2744217000436;239.2744217000436;239.2744217000436;239.2744217000436;239.2744217000436;239.2744217000436;None;0;;;C:\2023\REPSWITCH21092023\REPSWITCH_excgange\REPSWITCH_excgange\data/210103_REPSWITCH1_version1_list3_2023-12-01_11h22.53.067_micRespv1l3_recorded\recording_micRespv1l3_2023-12-01_11h26.48.128.wav;242.29563560010865;242.79573339992203;None;242.29563560010865;242.29563560010865;242.29563560010865;242.29563560010865;242.29563560010865;242.29563560010865;;;;;;210103;001;2023-12-01_11h22.53.067;REPSWITCH1_version1_list3;2022.2.4;143.88199375664644;
REPSWITCH1/PICTURE_552.png;manzana;type;darkblue;switch;1;T;2;2;3;1;Stim6_Set2;0;None;50;49;50;0;49;49;49;;;;;;;;;;;;;;;;;;;;;;;242.79573339992203;243.81674930010922;243.81674930010922;243.81674930010922;243.81674930010922;243.81674930010922;243.81674930010922;243.81674930010922;243.81674930010922;['m', 'a', 'n', 'z', 'a', 'n', 'a'];0;[0.9674849000293761, 1.1489190999418497, 1.3251738001126796, 1.468751800013706, 1.712874999968335, 2.342818600125611, 2.4480972001329064];manzana;C:\2023\REPSWITCH21092023\REPSWITCH_excgange\REPSWITCH_excgange\data/210103_REPSWITCH1_version1_list3_2023-12-01_11h22.53.067_micRespv1l3_recorded\recording_micRespv1l3_2023-12-01_11h26.52.670.wav;246.83790059993044;247.338069899939;None;246.83790059993044;246.83790059993044;246.83790059993044;246.83790059993044;246.83790059993044;246.83790059993044;;;;;;210103;001;2023-12-01_11h22.53.067;REPSWITCH1_version1_list3;2022.2.4;143.88199375664644;
REPSWITCH1/PICTURE_590.png;escoba;speak;gold;filler;2;F;1;2;3;1;Extra3;0;None;51;50;51;0;50;50;50;;;;;;;;;;;;;;;;;;;;;;;247.338069899939;248.37288579996675;248.37288579996675;248.37288579996675;248.37288579996675;248.37288579996675;248.37288579996675;248.37288579996675;248.37288579996675;None;0;;;C:\2023\REPSWITCH21092023\REPSWITCH_excgange\REPSWITCH_excgange\data/210103_REPSWITCH1_version1_list3_2023-12-01_11h22.53.067_micRespv1l3_recorded\recording_micRespv1l3_2023-12-01_11h26.57.227.wav;251.40103870001622;;space;251.40103870001622;251.40103870001622;251.40103870001622;251.40103870001622;251.40103870001622;251.40103870001622;251.9010761999525;251.9010761999525;1.4716845001094043;;;210103;001;2023-12-01_11h22.53.067;REPSWITCH1_version1_list3;2022.2.4;143.88199375664644;
REPSWITCH1/PICTURE_552.png;manzana;type;darkblue;filler;1;F;3;2;3;1;Stim6_Set2;0;None;52;51;52;0;51;51;51;;;;;;;;;;;;;;;;;;;;;;;253.38045609998517;254.498731700005;254.498731700005;254.498731700005;254.498731700005;254.498731700005;254.498731700005;254.498731700005;254.498731700005;['m', 'a', 'n', 'z', 'a', 'n', 'a'];0;[1.4129478998947889, 1.5354770999401808, 1.6650338999461383, 1.8015811999794096, 2.0214933999814093, 2.0942122999113053, 2.2268205999862403];manzana;C:\2023\REPSWITCH21092023\REPSWITCH_excgange\REPSWITCH_excgange\data/210103_REPSWITCH1_version1_list3_2023-12-01_11h22.53.067_micRespv1l3_recorded\recording_micRespv1l3_2023-12-01_11h27.03.352.wav;257.5198969999328;258.0200310999062;None;257.5198969999328;257.5198969999328;257.5198969999328;257.5198969999328;257.5198969999328;257.5198969999328;;;;;;210103;001;2023-12-01_11h22.53.067;REPSWITCH1_version1_list3;2022.2.4;143.88199375664644;
REPSWITCH1/PICTURE_464.png;goma;type;darkblue;nontarget;1;NT;3;2;3;1;Stim6_Set3;1;repeat;53;52;53;0;52;52;52;;;;;;;;;;;;;;;;;;;;;;;258.0200310999062;259.2562084000092;259.2562084000092;259.2562084000092;259.2562084000092;259.2562084000092;259.2562084000092;259.2562084000092;259.2562084000092;['g', 'o', 'm', 'a'];0;[1.508741700090468, 1.6034176999237388, 1.700347299920395, 1.8019709000363946];goma;C:\2023\REPSWITCH21092023\REPSWITCH_excgange\REPSWITCH_excgange\data/210103_REPSWITCH1_version1_list3_2023-12-01_11h22.53.067_micRespv1l3_recorded\recording_micRespv1l3_2023-12-01_11h27.08.109.wav;262.27746580005623;262.7775340999942;None;262.27746580005623;262.27746580005623;262.27746580005623;262.27746580005623;262.27746580005623;262.27746580005623;;;;;;210103;001;2023-12-01_11h22.53.067;REPSWITCH1_version1_list3;2022.2.4;143.88199375664644;
REPSWITCH1/PICTURE_464.png;goma;speak;gold;switch;2;T;3;2;3;1;Stim6_Set3;0;None;54;53;54;0;53;53;53;;;;;;;;;;;;;;;;;;;;;;;262.7775340999942;263.937456500018;263.937456500018;263.937456500018;263.937456500018;263.937456500018;263.937456500018;263.937456500018;263.937456500018;None;0;;;C:\2023\REPSWITCH21092023\REPSWITCH_excgange\REPSWITCH_excgange\data/210103_REPSWITCH1_version1_list3_2023-12-01_11h22.53.067_micRespv1l3_recorded\recording_micRespv1l3_2023-12-01_11h27.12.790.wav;266.958708900027;267.4586869000923;None;266.958708900027;266.958708900027;266.958708900027;266.958708900027;266.958708900027;266.958708900027;;;;;;210103;001;2023-12-01_11h22.53.067;REPSWITCH1_version1_list3;2022.2.4;143.88199375664644;
REPSWITCH1/PICTURE_30.png;granja;speak;gold;filler;2;F;3;2;3;1;Stim5_Set2;0;None;55;54;55;0;54;54;54;;;;;;;;;;;;;;;;;;;;;;;267.4586869000923;268.52136210002936;268.52136210002936;268.52136210002936;268.52136210002936;268.52136210002936;268.52136210002936;268.52136210002936;268.52136210002936;None;0;;;C:\2023\REPSWITCH21092023\REPSWITCH_excgange\REPSWITCH_excgange\data/210103_REPSWITCH1_version1_list3_2023-12-01_11h22.53.067_micRespv1l3_recorded\recording_micRespv1l3_2023-12-01_11h27.17.376.wav;271.5495428000577;272.04957680008374;None;271.5495428000577;271.5495428000577;271.5495428000577;271.5495428000577;271.5495428000577;271.5495428000577;;;;;;210103;001;2023-12-01_11h22.53.067;REPSWITCH1_version1_list3;2022.2.4;143.88199375664644;
REPSWITCH1/PICTURE_235.png;aguja;speak;gold;nontarget;2;NT;3;2;3;1;Stim4_Set3;1;repeat;56;55;56;0;55;55;55;;;;;;;;;;;;;;;;;;;;;;;272.04957680008374;273.12612579995766;273.12612579995766;273.12612579995766;273.12612579995766;273.12612579995766;273.12612579995766;273.12612579995766;273.12612579995766;None;0;;;C:\2023\REPSWITCH21092023\REPSWITCH_excgange\REPSWITCH_excgange\data/210103_REPSWITCH1_version1_list3_2023-12-01_11h22.53.067_micRespv1l3_recorded\recording_micRespv1l3_2023-12-01_11h27.21.980.wav;276.15425559994765;;None;276.15425559994765;276.15425559994765;276.15425559994765;276.15425559994765;276.15425559994765;276.15425559994765;;;;;;210103;001;2023-12-01_11h22.53.067;REPSWITCH1_version1_list3;2022.2.4;143.88199375664644;
REPSWITCH1/PICTURE_235.png;aguja;type;darkblue;switch;1;T;3;2;3;1;Stim4_Set3;0;None;57;56;57;0;56;56;56;;;;;;;;;;;;;;;;;;;;;;;276.6543260999024;277.7239639000036;277.7239639000036;277.7239639000036;277.7239639000036;277.7239639000036;277.7239639000036;277.7239639000036;277.7239639000036;['a', 'g', 'u', 'j', 'a'];0;[1.111789499875158, 1.327046199934557, 1.4848654998932034, 1.7150353998877108, 1.823712700046599];aguja;C:\2023\REPSWITCH21092023\REPSWITCH_excgange\REPSWITCH_excgange\data/210103_REPSWITCH1_version1_list3_2023-12-01_11h22.53.067_micRespv1l3_recorded\recording_micRespv1l3_2023-12-01_11h27.26.576.wav;280.7451408999041;281.2452034999151;None;280.7451408999041;280.7451408999041;280.7451408999041;280.7451408999041;280.7451408999041;280.7451408999041;;;;;;210103;001;2023-12-01_11h22.53.067;REPSWITCH1_version1_list3;2022.2.4;143.88199375664644;
REPSWITCH1/PICTURE_391.png;cadena;type;darkblue;filler;1;F;3;2;3;1;Extra2;0;None;58;57;58;0;57;57;57;;;;;;;;;;;;;;;;;;;;;;;281.2452034999151;282.2731321998872;282.2731321998872;282.2731321998872;282.2731321998872;282.2731321998872;282.2731321998872;282.2731321998872;282.2731321998872;['c', 'a', 'd', 'e', 'n', 'a'];0;[1.117495299782604, 1.2510452999267727, 1.4941984999459237, 1.6823074999265373, 1.7806819998659194, 1.9183835999574512];cadena;C:\2023\REPSWITCH21092023\REPSWITCH_excgange\REPSWITCH_excgange\data/210103_REPSWITCH1_version1_list3_2023-12-01_11h22.53.067_micRespv1l3_recorded\recording_micRespv1l3_2023-12-01_11h27.31.126.wav;285.30130989989266;;None;285.30130989989266;285.30130989989266;285.30130989989266;285.30130989989266;285.30130989989266;285.30130989989266;;;;;;210103;001;2023-12-01_11h22.53.067;REPSWITCH1_version1_list3;2022.2.4;143.88199375664644;
REPSWITCH1/PICTURE_320.png;iglesia;type;darkblue;nontarget;1;NT;3;2;3;1;Stim8_Set3;0;None;59;58;59;0;58;58;58;;;;;;;;;;;;;;;;;;;;;;;285.80138160008937;287.0029406999238;287.0029406999238;287.0029406999238;287.0029406999238;287.0029406999238;287.0029406999238;287.0029406999238;287.0029406999238;['i', 'g', 'l', 'e', 's', 'i', 'a'];0;[1.652989000082016, 1.786567599978298, 1.907126999925822, 2.0158154000528157, 2.229376700008288, 2.345990200061351, 2.4576111000496894];iglesia;C:\2023\REPSWITCH21092023\REPSWITCH_excgange\REPSWITCH_excgange\data/210103_REPSWITCH1_version1_list3_2023-12-01_11h22.53.067_micRespv1l3_recorded\recording_micRespv1l3_2023-12-01_11h27.35.857.wav;290.0311519999523;;None;290.0311519999523;290.0311519999523;290.0311519999523;290.0311519999523;290.0311519999523;290.0311519999523;;;;;;210103;001;2023-12-01_11h22.53.067;REPSWITCH1_version1_list3;2022.2.4;143.88199375664644;
REPSWITCH1/PICTURE_320.png;iglesia;speak;gold;switch;2;T;3;2;3;1;Stim8_Set3;0;None;60;59;60;0;59;59;59;;;;;;;;;;;;;;;;;;;;;;;290.5311326000374;291.68408080004156;291.68408080004156;291.68408080004156;291.68408080004156;291.68408080004156;291.68408080004156;291.68408080004156;291.68408080004156;None;0;;;C:\2023\REPSWITCH21092023\REPSWITCH_excgange\REPSWITCH_excgange\data/210103_REPSWITCH1_version1_list3_2023-12-01_11h22.53.067_micRespv1l3_recorded\recording_micRespv1l3_2023-12-01_11h27.40.538.wav;294.7122518001124;;None;294.7122518001124;294.7122518001124;294.7122518001124;294.7122518001124;294.7122518001124;294.7122518001124;;;;;;210103;001;2023-12-01_11h22.53.067;REPSWITCH1_version1_list3;2022.2.4;143.88199375664644;
REPSWITCH1/PICTURE_175.png;pintor;type;darkblue;filler;1;F;3;2;3;1;Stim1_Set2;0;None;61;60;61;0;60;60;60;;;;;;;;;;;;;;;;;;;;;;;295.2123392999638;296.240238300059;296.240238300059;296.240238300059;296.240238300059;296.240238300059;296.240238300059;296.240238300059;296.240238300059;['p', 'i', 'n', 't', 'o', 'r'];0;[1.0194184000138193, 1.248644599923864, 1.3542881000321358, 1.4748757998459041, 1.6108693999703974, 1.7054397000465542];pintor;C:\2023\REPSWITCH21092023\REPSWITCH_excgange\REPSWITCH_excgange\data/210103_REPSWITCH1_version1_list3_2023-12-01_11h22.53.067_micRespv1l3_recorded\recording_micRespv1l3_2023-12-01_11h27.45.093.wav;299.26148650003597;299.7615350999404;None;299.26148650003597;299.26148650003597;299.26148650003597;299.26148650003597;299.26148650003597;299.26148650003597;;;;;;210103;001;2023-12-01_11h22.53.067;REPSWITCH1_version1_list3;2022.2.4;143.88199375664644;
REPSWITCH1/PICTURE_271.png;conejo;speak;gold;nontarget;2;NT;3;2;3;1;Stim7_Set3;1;switch;62;61;62;0;61;61;61;;;;;;;;;;;;;;;;;;;;;;;299.7615350999404;300.8311411999166;300.8311411999166;300.8311411999166;300.8311411999166;300.8311411999166;300.8311411999166;300.8311411999166;300.8311411999166;None;0;;;C:\2023\REPSWITCH21092023\REPSWITCH_excgange\REPSWITCH_excgange\data/210103_REPSWITCH1_version1_list3_2023-12-01_11h22.53.067_micRespv1l3_recorded\recording_micRespv1l3_2023-12-01_11h27.49.685.wav;303.85931199998595;;None;303.85931199998595;303.85931199998595;303.85931199998595;303.85931199998595;303.85931199998595;303.85931199998595;;;;;;210103;001;2023-12-01_11h22.53.067;REPSWITCH1_version1_list3;2022.2.4;143.88199375664644;
REPSWITCH1/PICTURE_271.png;conejo;speak;gold;repeat;2;T;3;2;3;1;Stim7_Set3;0;None;63;62;63;0;62;62;62;;;;;;;;;;;;;;;;;;;;;;;304.3593703000806;305.4498157999478;305.4498157999478;305.4498157999478;305.4498157999478;305.4498157999478;305.4498157999478;305.4498157999478;305.4498157999478;None;0;;;C:\2023\REPSWITCH21092023\REPSWITCH_excgange\REPSWITCH_excgange\data/210103_REPSWITCH1_version1_list3_2023-12-01_11h22.53.067_micRespv1l3_recorded\recording_micRespv1l3_2023-12-01_11h27.54.303.wav;308.47797159990296;;None;308.47797159990296;308.47797159990296;308.47797159990296;308.47797159990296;308.47797159990296;308.47797159990296;;;;;;210103;001;2023-12-01_11h22.53.067;REPSWITCH1_version1_list3;2022.2.4;143.88199375664644;
REPSWITCH1/PICTURE_446.png;cerdo;speak;gold;filler;2;F;3;2;3;1;Stim7_Set2;0;None;64;63;64;0;63;63;63;;;;;;;;;;;;;;;;;;;;;;;308.97800090000965;310.04761540004984;310.04761540004984;310.04761540004984;310.04761540004984;310.04761540004984;310.04761540004984;310.04761540004984;310.04761540004984;None;0;;;C:\2023\REPSWITCH21092023\REPSWITCH_excgange\REPSWITCH_excgange\data/210103_REPSWITCH1_version1_list3_2023-12-01_11h22.53.067_micRespv1l3_recorded\recording_micRespv1l3_2023-12-01_11h27.58.900.wav;313.0758618998807;;None;313.0758618998807;313.0758618998807;313.0758618998807;313.0758618998807;313.0758618998807;313.0758618998807;;;;;;210103;001;2023-12-01_11h22.53.067;REPSWITCH1_version1_list3;2022.2.4;143.88199375664644;
REPSWITCH1/PICTURE_152.png;caracol;type;darkblue;filler;1;F;3;2;3;1;Stim2_Set2;0;None;65;64;65;0;64;64;64;;;;;;;;;;;;;;;;;;;;;;;313.57585499994457;314.7496092999354;314.7496092999354;314.7496092999354;314.7496092999354;314.7496092999354;314.7496092999354;314.7496092999354;314.7496092999354;['c', 'a', 'r', 'a', 'c', 'o', 'l'];0;[0.8644015998579562, 1.1271502999588847, 1.2846870999783278, 1.4978207999374717, 1.7103667999617755, 1.8369807999115437, 2.062223199987784];caracol;C:\2023\REPSWITCH21092023\REPSWITCH_excgange\REPSWITCH_excgange\data/210103_REPSWITCH1_version1_list3_2023-12-01_11h22.53.067_micRespv1l3_recorded\recording_micRespv1l3_2023-12-01_11h28.03.603.wav;317.77093339990824;318.2709234999493;None;317.77093339990824;317.77093339990824;317.77093339990824;317.77093339990824;317.77093339990824;317.77093339990824;;;;;;210103;001;2023-12-01_11h22.53.067;REPSWITCH1_version1_list3;2022.2.4;143.88199375664644;
REPSWITCH1/PICTURE_576.png;guante;speak;gold;nontarget;2;NT;3;2;3;1;Stim1_Set3;1;switch;66;65;66;0;65;65;65;;;;;;;;;;;;;;;;;;;;;;;318.2709234999493;319.31964330002666;319.31964330002666;319.31964330002666;319.31964330002666;319.31964330002666;319.31964330002666;319.31964330002666;319.31964330002666;None;0;;;C:\2023\REPSWITCH21092023\REPSWITCH_excgange\REPSWITCH_excgange\data/210103_REPSWITCH1_version1_list3_2023-12-01_11h22.53.067_micRespv1l3_recorded\recording_micRespv1l3_2023-12-01_11h28.08.173.wav;322.34785280004144;322.8478892999701;None;322.34785280004144;322.34785280004144;322.34785280004144;322.34785280004144;322.34785280004144;322.34785280004144;;;;;;210103;001;2023-12-01_11h22.53.067;REPSWITCH1_version1_list3;2022.2.4;143.88199375664644;
REPSWITCH1/PICTURE_576.png;guante;speak;gold;repeat;2;T;3;2;3;1;Stim1_Set3;0;None;67;66;67;0;66;66;66;;;;;;;;;;;;;;;;;;;;;;;322.8478892999701;323.92446959996596;323.92446959996596;323.92446959996596;323.92446959996596;323.92446959996596;323.92446959996596;323.92446959996596;323.92446959996596;None;0;;;C:\2023\REPSWITCH21092023\REPSWITCH_excgange\REPSWITCH_excgange\data/210103_REPSWITCH1_version1_list3_2023-12-01_11h22.53.067_micRespv1l3_recorded\recording_micRespv1l3_2023-12-01_11h28.12.777.wav;326.9456503998954;327.44574619992636;None;326.9456503998954;326.9456503998954;326.9456503998954;326.9456503998954;326.9456503998954;326.9456503998954;;;;;;210103;001;2023-12-01_11h22.53.067;REPSWITCH1_version1_list3;2022.2.4;143.88199375664644;
REPSWITCH1/PICTURE_242.png;cartero;speak;gold;nontarget;2;NT;3;2;3;1;Stim3_Set3;0;None;68;67;68;0;67;67;67;;;;;;;;;;;;;;;;;;;;;;;327.44574619992636;328.54308549989946;328.54308549989946;328.54308549989946;328.54308549989946;328.54308549989946;328.54308549989946;328.54308549989946;328.54308549989946;None;0;;;C:\2023\REPSWITCH21092023\REPSWITCH_excgange\REPSWITCH_excgange\data/210103_REPSWITCH1_version1_list3_2023-12-01_11h22.53.067_micRespv1l3_recorded\recording_micRespv1l3_2023-12-01_11h28.17.397.wav;331.5712590001058;;None;331.5712590001058;331.5712590001058;331.5712590001058;331.5712590001058;331.5712590001058;331.5712590001058;;;;;;210103;001;2023-12-01_11h22.53.067;REPSWITCH1_version1_list3;2022.2.4;143.88199375664644;
REPSWITCH1/PICTURE_242.png;cartero;type;darkblue;switch;1;T;3;2;3;1;Stim3_Set3;0;None;69;68;69;0;68;68;68;;;;;;;;;;;;;;;;;;;;;;;332.07134569995105;333.1618411000818;333.1618411000818;333.1618411000818;333.1618411000818;333.1618411000818;333.1618411000818;333.1618411000818;333.1618411000818;['c', 'a', 'r', 't', 'e', 'r', 'o'];0;[0.7886531001422554, 0.955070500029251, 1.1344702001661062, 1.3347738001029938, 1.4291940999682993, 1.5487931000534445, 1.670379500137642];cartero;C:\2023\REPSWITCH21092023\REPSWITCH_excgange\REPSWITCH_excgange\data/210103_REPSWITCH1_version1_list3_2023-12-01_11h22.53.067_micRespv1l3_recorded\recording_micRespv1l3_2023-12-01_11h28.22.014.wav;336.1830005000811;336.6830619999673;None;336.1830005000811;336.1830005000811;336.1830005000811;336.1830005000811;336.1830005000811;336.1830005000811;;;;;;210103;001;2023-12-01_11h22.53.067;REPSWITCH1_version1_list3;2022.2.4;143.88199375664644;
REPSWITCH1/PICTURE_517.png;cuerda;speak;gold;filler;2;F;3;2;3;1;Stim4_Set2;0;None;70;69;70;0;69;69;69;;;;;;;;;;;;;;;;;;;;;;;336.6830619999673;337.78045250009745;337.78045250009745;337.78045250009745;337.78045250009745;337.78045250009745;337.78045250009745;337.78045250009745;337.78045250009745;None;0;;;C:\2023\REPSWITCH21092023\REPSWITCH_excgange\REPSWITCH_excgange\data/210103_REPSWITCH1_version1_list3_2023-12-01_11h22.53.067_micRespv1l3_recorded\recording_micRespv1l3_2023-12-01_11h28.26.633.wav;340.80164499999955;341.3017283999361;None;340.80164499999955;340.80164499999955;340.80164499999955;340.80164499999955;340.80164499999955;340.80164499999955;;;;;;210103;001;2023-12-01_11h22.53.067;REPSWITCH1_version1_list3;2022.2.4;143.88199375664644;
REPSWITCH1/PICTURE_646.png;tronco;type;darkblue;filler;1;F;3;2;3;1;Extra4;0;None;71;70;71;0;70;70;70;;;;;;;;;;;;;;;;;;;;;;;341.3017283999361;342.36441590008326;342.36441590008326;342.36441590008326;342.36441590008326;342.36441590008326;342.36441590008326;342.36441590008326;342.36441590008326;['t', 'r', 'o', 'n', 'c', 'o'];0;[1.1040306000504643, 1.3289073000196368, 1.4364883999805897, 1.5485156001523137, 1.6422018001321703, 1.7707275000866503];tronco;C:\2023\REPSWITCH21092023\REPSWITCH_excgange\REPSWITCH_excgange\data/210103_REPSWITCH1_version1_list3_2023-12-01_11h22.53.067_micRespv1l3_recorded\recording_micRespv1l3_2023-12-01_11h28.31.218.wav;345.392524600029;;None;345.392524600029;345.392524600029;345.392524600029;345.392524600029;345.392524600029;345.392524600029;;;;;;210103;001;2023-12-01_11h22.53.067;REPSWITCH1_version1_list3;2022.2.4;143.88199375664644;
REPSWITCH1/PICTURE_35.png;oreja;type;darkblue;nontarget;1;NT;3;2;3;1;Stim5_Set3;1;repeat;72;71;72;0;71;71;71;;;;;;;;;;;;;;;;;;;;;;;345.892603199929;347.05246910010464;347.05246910010464;347.05246910010464;347.05246910010464;347.05246910010464;347.05246910010464;347.05246910010464;347.05246910010464;['o', 'r', 'e', 'j', 'a'];0;[1.1362590999342501, 1.2657802999019623, 1.3325866998638958, 1.4682698999531567, 1.5758668999187648];oreja;C:\2023\REPSWITCH21092023\REPSWITCH_excgange\REPSWITCH_excgange\data/210103_REPSWITCH1_version1_list3_2023-12-01_11h22.53.067_micRespv1l3_recorded\recording_micRespv1l3_2023-12-01_11h28.35.906.wav;350.0806547999382;;None;350.0806547999382;350.0806547999382;350.0806547999382;350.0806547999382;350.0806547999382;350.0806547999382;;;;;;210103;001;2023-12-01_11h22.53.067;REPSWITCH1_version1_list3;2022.2.4;143.88199375664644;
REPSWITCH1/PICTURE_35.png;oreja;type;darkblue;repeat;1;T;3;2;3;1;Stim5_Set3;0;None;73;72;73;0;72;72;72;;;;;;;;;;;;;;;;;;;;;;;350.58079680008814;351.64334070007317;351.64334070007317;351.64334070007317;351.64334070007317;351.64334070007317;351.64334070007317;351.64334070007317;351.64334070007317;['o', 'r', 'e', 'j', 'a'];0;[0.7573756999336183, 0.9112584998365492, 0.9716590999159962, 1.1017330000177026, 1.2053934000432491];oreja;C:\2023\REPSWITCH21092023\REPSWITCH_excgange\REPSWITCH_excgange\data/210103_REPSWITCH1_version1_list3_2023-12-01_11h22.53.067_micRespv1l3_recorded\recording_micRespv1l3_2023-12-01_11h28.40.497.wav;354.671539099887;;None;354.671539099887;354.671539099887;354.671539099887;354.671539099887;354.671539099887;354.671539099887;;;;;;210103;001;2023-12-01_11h22.53.067;REPSWITCH1_version1_list3;2022.2.4;143.88199375664644;
REPSWITCH1/PICTURE_199.png;falda;speak;gold;filler;2;F;3;2;3;1;Stim8_Set2;0;None;74;73;74;0;73;73;73;;;;;;;;;;;;;;;;;;;;;;;355.1716805000324;356.2690177001059;356.2690177001059;356.2690177001059;356.2690177001059;356.2690177001059;356.2690177001059;356.2690177001059;356.2690177001059;None;0;;;C:\2023\REPSWITCH21092023\REPSWITCH_excgange\REPSWITCH_excgange\data/210103_REPSWITCH1_version1_list3_2023-12-01_11h22.53.067_micRespv1l3_recorded\recording_micRespv1l3_2023-12-01_11h28.45.122.wav;359.29016939993016;359.7902420000173;None;359.29016939993016;359.29016939993016;359.29016939993016;359.29016939993016;359.29016939993016;359.29016939993016;;;;;;210103;001;2023-12-01_11h22.53.067;REPSWITCH1_version1_list3;2022.2.4;143.88199375664644;
REPSWITCH1/PICTURE_610.png;miel;type;darkblue;nontarget;1;NT;3;2;3;1;Stim2_Set3;1;switch;75;74;75;0;74;74;74;;;;;;;;;;;;;;;;;;;;;;;359.7902420000173;360.8320814999752;360.8320814999752;360.8320814999752;360.8320814999752;360.8320814999752;360.8320814999752;360.8320814999752;360.8320814999752;['m', 'i', 'e', 'l'];0;[1.1494136000983417, 1.3197602999862283, 1.4981859000399709, 1.618829800048843];miel;C:\2023\REPSWITCH21092023\REPSWITCH_excgange\REPSWITCH_excgange\data/210103_REPSWITCH1_version1_list3_2023-12-01_11h22.53.067_micRespv1l3_recorded\recording_micRespv1l3_2023-12-01_11h28.49.685.wav;363.8532704000827;364.35343839996494;None;363.8532704000827;363.8532704000827;363.8532704000827;363.8532704000827;363.8532704000827;363.8532704000827;;;;;;210103;001;2023-12-01_11h22.53.067;REPSWITCH1_version1_list3;2022.2.4;143.88199375664644;
REPSWITCH1/PICTURE_610.png;miel;type;darkblue;repeat;1;T;3;2;3;1;Stim2_Set3;0;None;76;75;76;0;75;75;75;;;;;;;;;;;;;;;;;;;;;;;364.35343839996494;365.485518099973;365.485518099973;365.485518099973;365.485518099973;365.485518099973;365.485518099973;365.485518099973;365.485518099973;['m', 'i', 'e', 'l'];0;[0.860650299815461, 0.9973909000400454, 1.1572841999586672, 1.2588690998964012];miel;C:\2023\REPSWITCH21092023\REPSWITCH_excgange\REPSWITCH_excgange\data/210103_REPSWITCH1_version1_list3_2023-12-01_11h22.53.067_micRespv1l3_recorded\recording_micRespv1l3_2023-12-01_11h28.54.340.wav;368.5136353999842;;None;368.5136353999842;368.5136353999842;368.5136353999842;368.5136353999842;368.5136353999842;368.5136353999842;;;;;;210103;001;2023-12-01_11h22.53.067;REPSWITCH1_version1_list3;2022.2.4;143.88199375664644;
REPSWITCH1/PICTURE_264.png;mano;type;darkblue;filler;1;F;3;2;3;1;Stim3_Set2;1;repeat;77;76;77;0;76;76;76;;;;;;;;;;;;;;;;;;;;;;;369.01376800006256;370.13196190004237;370.13196190004237;370.13196190004237;370.13196190004237;370.13196190004237;370.13196190004237;370.13196190004237;370.13196190004237;['m', 'a', 'n', 'o'];0;[0.7755396000575274, 0.9469645998906344, 1.059081899933517, 1.1631346999201924];mano;C:\2023\REPSWITCH21092023\REPSWITCH_excgange\REPSWITCH_excgange\data/210103_REPSWITCH1_version1_list3_2023-12-01_11h22.53.067_micRespv1l3_recorded\recording_micRespv1l3_2023-12-01_11h28.58.985.wav;373.1601295999717;;None;373.1601295999717;373.1601295999717;373.1601295999717;373.1601295999717;373.1601295999717;373.1601295999717;;;;;;210103;001;2023-12-01_11h22.53.067;REPSWITCH1_version1_list3;2022.2.4;143.88199375664644;
REPSWITCH1/PICTURE_464.png;goma;speak;gold;filler;2;F;4;2;3;1;Stim6_Set3;0;None;78;77;78;0;77;77;77;;;;;;;;;;;;;;;;;;;;;;;373.6601187000051;374.78531579999253;374.78531579999253;374.78531579999253;374.78531579999253;374.78531579999253;374.78531579999253;374.78531579999253;374.78531579999253;None;0;;;C:\2023\REPSWITCH21092023\REPSWITCH_excgange\REPSWITCH_excgange\data/210103_REPSWITCH1_version1_list3_2023-12-01_11h22.53.067_micRespv1l3_recorded\recording_micRespv1l3_2023-12-01_11h29.03.638.wav;377.8064949000254;378.3065905999392;None;377.8064949000254;377.8064949000254;377.8064949000254;377.8064949000254;377.8064949000254;377.8064949000254;;;;;;210103;001;2023-12-01_11h22.53.067;REPSWITCH1_version1_list3;2022.2.4;143.88199375664644;
REPSWITCH1/PICTURE_8.png;pierna;type;darkblue;nontarget;1;NT;4;2;3;1;Stim3_Set4;1;switch;79;78;79;0;78;78;78;;;;;;;;;;;;;;;;;;;;;;;378.3065905999392;379.4178394000046;379.4178394000046;379.4178394000046;379.4178394000046;379.4178394000046;379.4178394000046;379.4178394000046;379.4178394000046;['p', 'i', 'e', 'r', 'n', 'a'];0;[0.9429558999836445, 1.159551399992779, 1.3263932999689132, 1.4015298997983336, 1.5135276999790221, 1.6506445999257267];pierna;C:\2023\REPSWITCH21092023\REPSWITCH_excgange\REPSWITCH_excgange\data/210103_REPSWITCH1_version1_list3_2023-12-01_11h22.53.067_micRespv1l3_recorded\recording_micRespv1l3_2023-12-01_11h29.08.270.wav;382.4390523999464;382.9391123999376;None;382.4390523999464;382.4390523999464;382.4390523999464;382.4390523999464;382.4390523999464;382.4390523999464;;;;;;210103;001;2023-12-01_11h22.53.067;REPSWITCH1_version1_list3;2022.2.4;143.88199375664644;
REPSWITCH1/PICTURE_8.png;pierna;type;darkblue;repeat;1;T;4;2;3;1;Stim3_Set4;0;None;80;79;80;0;79;79;79;;;;;;;;;;;;;;;;;;;;;;;382.9391123999376;384.1129187999759;384.1129187999759;384.1129187999759;384.1129187999759;384.1129187999759;384.1129187999759;384.1129187999759;384.1129187999759;['p', 'i', 'e', 'r', 'n', 'a'];0;[0.8191959999967366, 1.1182931000366807, 1.250052500050515, 1.3081980999559164, 1.4270317999180406, 1.5456356999929994];pierna;C:\2023\REPSWITCH21092023\REPSWITCH_excgange\REPSWITCH_excgange\data/210103_REPSWITCH1_version1_list3_2023-12-01_11h22.53.067_micRespv1l3_recorded\recording_micRespv1l3_2023-12-01_11h29.12.966.wav;387.13417449989356;387.63417689991184;None;387.13417449989356;387.13417449989356;387.13417449989356;387.13417449989356;387.13417449989356;387.13417449989356;;;;;;210103;001;2023-12-01_11h22.53.067;REPSWITCH1_version1_list3;2022.2.4;143.88199375664644;
REPSWITCH1/PICTURE_728.png;pulpo;type;darkblue;nontarget;1;NT;4;2;3;1;Stim8_Set4;1;repeat;81;80;81;0;80;80;80;;;;;;;;;;;;;;;;;;;;;;;387.63417689991184;388.68992680008523;388.68992680008523;388.68992680008523;388.68992680008523;388.68992680008523;388.68992680008523;388.68992680008523;388.68992680008523;['p', 'u', 'l', 'p', 'o'];0;[0.8406551999505609, 1.0383949000388384, 1.2386012999340892, 1.5690830999519676, 1.6219357999507338];pulpo;C:\2023\REPSWITCH21092023\REPSWITCH_excgange\REPSWITCH_excgange\data/210103_REPSWITCH1_version1_list3_2023-12-01_11h22.53.067_micRespv1l3_recorded\recording_micRespv1l3_2023-12-01_11h29.17.542.wav;391.7110993999522;392.2111663001124;None;391.7110993999522;391.7110993999522;391.7110993999522;391.7110993999522;391.7110993999522;391.7110993999522;;;;;;210103;001;2023-12-01_11h22.53.067;REPSWITCH1_version1_list3;2022.2.4;143.88199375664644;
REPSWITCH1/PICTURE_728.png;pulpo;speak;gold;switch;2;T;4;2;3;1;Stim8_Set4;0;None;82;81;82;0;81;81;81;;;;;;;;;;;;;;;;;;;;;;;392.2111663001124;393.31548970006406;393.31548970006406;393.31548970006406;393.31548970006406;393.31548970006406;393.31548970006406;393.31548970006406;393.31548970006406;None;0;;;C:\2023\REPSWITCH21092023\REPSWITCH_excgange\REPSWITCH_excgange\data/210103_REPSWITCH1_version1_list3_2023-12-01_11h22.53.067_micRespv1l3_recorded\recording_micRespv1l3_2023-12-01_11h29.22.168.wav;396.33673659991473;396.83681029989384;None;396.33673659991473;396.33673659991473;396.33673659991473;396.33673659991473;396.33673659991473;396.33673659991473;;;;;;210103;001;2023-12-01_11h22.53.067;REPSWITCH1_version1_list3;2022.2.4;143.88199375664644;
REPSWITCH1/PICTURE_235.png;aguja;type;darkblue;filler;1;F;4;2;3;1;Stim4_Set3;0;None;83;82;83;0;82;82;82;;;;;;;;;;;;;;;;;;;;;;;396.83681029989384;397.8647298999131;397.8647298999131;397.8647298999131;397.8647298999131;397.8647298999131;397.8647298999131;397.8647298999131;397.8647298999131;['a', 'g', 'u', 'j', 'a'];0;[0.7396875999402255, 0.9314345999155194, 1.0928841000422835, 1.3273853999562562, 1.8336841000709683];aguja;C:\2023\REPSWITCH21092023\REPSWITCH_excgange\REPSWITCH_excgange\data/210103_REPSWITCH1_version1_list3_2023-12-01_11h22.53.067_micRespv1l3_recorded\recording_micRespv1l3_2023-12-01_11h29.26.718.wav;400.89287350000814;;None;400.89287350000814;400.89287350000814;400.89287350000814;400.89287350000814;400.89287350000814;400.89287350000814;;;;;;210103;001;2023-12-01_11h22.53.067;REPSWITCH1_version1_list3;2022.2.4;143.88199375664644;
REPSWITCH1/PICTURE_498.png;taza;speak;gold;nontarget;2;NT;4;2;3;1;Stim4_Set4;1;switch;84;83;84;0;83;83;83;;;;;;;;;;;;;;;;;;;;;;;401.39295680006035;402.43480630009435;402.43480630009435;402.43480630009435;402.43480630009435;402.43480630009435;402.43480630009435;402.43480630009435;402.43480630009435;None;0;;;C:\2023\REPSWITCH21092023\REPSWITCH_excgange\REPSWITCH_excgange\data/210103_REPSWITCH1_version1_list3_2023-12-01_11h22.53.067_micRespv1l3_recorded\recording_micRespv1l3_2023-12-01_11h29.31.288.wav;405.46295209997334;;None;405.46295209997334;405.46295209997334;405.46295209997334;405.46295209997334;405.46295209997334;405.46295209997334;;;;;;210103;001;2023-12-01_11h22.53.067;REPSWITCH1_version1_list3;2022.2.4;143.88199375664644;
REPSWITCH1/PICTURE_498.png;taza;speak;gold;repeat;2;T;4;2;3;1;Stim4_Set4;0;None;85;84;85;0;84;84;84;;;;;;;;;;;;;;;;;;;;;;;405.96297640004195;407.03951260005124;407.03951260005124;407.03951260005124;407.03951260005124;407.03951260005124;407.03951260005124;407.03951260005124;407.03951260005124;None;0;;;C:\2023\REPSWITCH21092023\REPSWITCH_excgange\REPSWITCH_excgange\data/210103_REPSWITCH1_version1_list3_2023-12-01_11h22.53.067_micRespv1l3_recorded\recording_micRespv1l3_2023-12-01_11h29.35.892.wav;410.06079360004514;410.56081010005437;None;410.06079360004514;410.06079360004514;410.06079360004514;410.06079360004514;410.06079360004514;410.06079360004514;;;;;;210103;001;2023-12-01_11h22.53.067;REPSWITCH1_version1_list3;2022.2.4;143.88199375664644;
REPSWITCH1/PICTURE_719.png;baño;speak;gold;nontarget;2;NT;4;2;3;1;Stim2_Set4;0;None;86;85;86;0;85;85;85;;;;;;;;;;;;;;;;;;;;;;;410.56081010005437;411.7416171999648;411.7416171999648;411.7416171999648;411.7416171999648;411.7416171999648;411.7416171999648;411.7416171999648;411.7416171999648;None;0;;;C:\2023\REPSWITCH21092023\REPSWITCH_excgange\REPSWITCH_excgange\data/210103_REPSWITCH1_version1_list3_2023-12-01_11h22.53.067_micRespv1l3_recorded\recording_micRespv1l3_2023-12-01_11h29.40.594.wav;414.76276719989255;415.26283659995534;None;414.76276719989255;414.76276719989255;414.76276719989255;414.76276719989255;414.76276719989255;414.76276719989255;;;;;;210103;001;2023-12-01_11h22.53.067;REPSWITCH1_version1_list3;2022.2.4;143.88199375664644;
REPSWITCH1/PICTURE_719.png;baño;type;darkblue;switch;1;T;4;2;3;1;Stim2_Set4;0;None;87;86;87;0;86;86;86;;;;;;;;;;;;;;;;;;;;;;;415.26283659995534;416.3323981000576;416.3323981000576;416.3323981000576;416.3323981000576;416.3323981000576;416.3323981000576;416.3323981000576;416.3323981000576;None;0;;;C:\2023\REPSWITCH21092023\REPSWITCH_excgange\REPSWITCH_excgange\data/210103_REPSWITCH1_version1_list3_2023-12-01_11h22.53.067_micRespv1l3_recorded\recording_micRespv1l3_2023-12-01_11h29.45.185.wav;419.3536149999127;419.85371730010957;None;419.3536149999127;419.3536149999127;419.3536149999127;419.3536149999127;419.3536149999127;419.3536149999127;;;;;;210103;001;2023-12-01_11h22.53.067;REPSWITCH1_version1_list3;2022.2.4;143.88199375664644;
REPSWITCH1/PICTURE_320.png;iglesia;speak;gold;filler;2;F;4;2;3;1;Stim8_Set3;0;None;88;87;88;0;87;87;87;;;;;;;;;;;;;;;;;;;;;;;419.85371730010957;420.909432800021;420.909432800021;420.909432800021;420.909432800021;420.909432800021;420.909432800021;420.909432800021;420.909432800021;None;0;;;C:\2023\REPSWITCH21092023\REPSWITCH_excgange\REPSWITCH_excgange\data/210103_REPSWITCH1_version1_list3_2023-12-01_11h22.53.067_micRespv1l3_recorded\recording_micRespv1l3_2023-12-01_11h29.49.763.wav;423.9306367998943;424.430686699925;None;423.9306367998943;423.9306367998943;423.9306367998943;423.9306367998943;423.9306367998943;423.9306367998943;;;;;;210103;001;2023-12-01_11h22.53.067;REPSWITCH1_version1_list3;2022.2.4;143.88199375664644;
REPSWITCH1/PICTURE_48.png;bombero;type;darkblue;nontarget;1;NT;4;2;3;1;Stim7_Set4;1;switch;89;88;89;0;88;88;88;;;;;;;;;;;;;;;;;;;;;;;424.430686699925;425.5905720000155;425.5905720000155;425.5905720000155;425.5905720000155;425.5905720000155;425.5905720000155;425.5905720000155;425.5905720000155;['b', 'o', 'm', 'b', 'e', 'r'];0;[1.1792927000205964, 2.262540299911052, 2.411013700067997, 2.6607468998990953, 2.747172199888155, 2.8401649999432266];bomber;C:\2023\REPSWITCH21092023\REPSWITCH_excgange\REPSWITCH_excgange\data/210103_REPSWITCH1_version1_list3_2023-12-01_11h22.53.067_micRespv1l3_recorded\recording_micRespv1l3_2023-12-01_11h29.54.443.wav;428.61188139999285;429.11187650007196;None;428.61188139999285;428.61188139999285;428.61188139999285;428.61188139999285;428.61188139999285;428.61188139999285;;;;;;210103;001;2023-12-01_11h22.53.067;REPSWITCH1_version1_list3;2022.2.4;143.88199375664644;
REPSWITCH1/PICTURE_48.png;bombero;speak;gold;switch;2;T;4;2;3;1;Stim7_Set4;0;None;90;89;90;0;89;89;89;;;;;;;;;;;;;;;;;;;;;;;429.11187650007196;430.1953235999681;430.1953235999681;430.1953235999681;430.1953235999681;430.1953235999681;430.1953235999681;430.1953235999681;430.1953235999681;None;0;;;C:\2023\REPSWITCH21092023\REPSWITCH_excgange\REPSWITCH_excgange\data/210103_REPSWITCH1_version1_list3_2023-12-01_11h22.53.067_micRespv1l3_recorded\recording_micRespv1l3_2023-12-01_11h29.59.049.wav;433.2166206999682;433.71664429991506;None;433.2166206999682;433.2166206999682;433.2166206999682;433.2166206999682;433.2166206999682;433.2166206999682;;;;;;210103;001;2023-12-01_11h22.53.067;REPSWITCH1_version1_list3;2022.2.4;143.88199375664644;
REPSWITCH1/PICTURE_576.png;guante;type;darkblue;filler;1;F;4;2;3;1;Stim1_Set3;0;None;91;90;91;0;90;90;90;;;;;;;;;;;;;;;;;;;;;;;433.71664429991506;434.8070515000727;434.8070515000727;434.8070515000727;434.8070515000727;434.8070515000727;434.8070515000727;434.8070515000727;434.8070515000727;['g', 'u', 'a', 'n', 't', 'e'];0;[0.7820395000744611, 0.9305402000900358, 1.0730739999562502, 1.2446386001538485, 1.3831081001553684, 1.4599733999930322];guante;C:\2023\REPSWITCH21092023\REPSWITCH_excgange\REPSWITCH_excgange\data/210103_REPSWITCH1_version1_list3_2023-12-01_11h22.53.067_micRespv1l3_recorded\recording_micRespv1l3_2023-12-01_11h30.03.660.wav;437.8282608999871;438.32843820005655;None;437.8282608999871;437.8282608999871;437.8282608999871;437.8282608999871;437.8282608999871;437.8282608999871;;;;;;210103;001;2023-12-01_11h22.53.067;REPSWITCH1_version1_list3;2022.2.4;143.88199375664644;
REPSWITCH1/PICTURE_271.png;conejo;speak;gold;filler;2;F;4;2;3;1;Stim7_Set3;0;None;92;91;92;0;91;91;91;;;;;;;;;;;;;;;;;;;;;;;438.32843820005655;439.43959859991446;439.43959859991446;439.43959859991446;439.43959859991446;439.43959859991446;439.43959859991446;439.43959859991446;439.43959859991446;None;0;;;C:\2023\REPSWITCH21092023\REPSWITCH_excgange\REPSWITCH_excgange\data/210103_REPSWITCH1_version1_list3_2023-12-01_11h22.53.067_micRespv1l3_recorded\recording_micRespv1l3_2023-12-01_11h30.08.292.wav;442.4608144001104;442.9609862000216;None;442.4608144001104;442.4608144001104;442.4608144001104;442.4608144001104;442.4608144001104;442.4608144001104;;;;;;210103;001;2023-12-01_11h22.53.067;REPSWITCH1_version1_list3;2022.2.4;143.88199375664644;
REPSWITCH1/PICTURE_319.png;vaca;speak;gold;nontarget;2;NT;4;2;3;1;Stim1_Set4;1;repeat;93;92;93;0;92;92;92;;;;;;;;;;;;;;;;;;;;;;;442.9609862000216;444.0721569999587;444.0721569999587;444.0721569999587;444.0721569999587;444.0721569999587;444.0721569999587;444.0721569999587;444.0721569999587;None;0;;;C:\2023\REPSWITCH21092023\REPSWITCH_excgange\REPSWITCH_excgange\data/210103_REPSWITCH1_version1_list3_2023-12-01_11h22.53.067_micRespv1l3_recorded\recording_micRespv1l3_2023-12-01_11h30.12.925.wav;447.0934021999128;447.59346839995123;None;447.0934021999128;447.0934021999128;447.0934021999128;447.0934021999128;447.0934021999128;447.0934021999128;;;;;;210103;001;2023-12-01_11h22.53.067;REPSWITCH1_version1_list3;2022.2.4;143.88199375664644;
REPSWITCH1/PICTURE_319.png;vaca;speak;gold;repeat;2;T;4;2;3;1;Stim1_Set4;0;None;94;93;94;0;93;93;93;;;;;;;;;;;;;;;;;;;;;;;447.59346839995123;448.6352931999136;448.6352931999136;448.6352931999136;448.6352931999136;448.6352931999136;448.6352931999136;448.6352931999136;448.6352931999136;None;0;;;C:\2023\REPSWITCH21092023\REPSWITCH_excgange\REPSWITCH_excgange\data/210103_REPSWITCH1_version1_list3_2023-12-01_11h22.53.067_micRespv1l3_recorded\recording_micRespv1l3_2023-12-01_11h30.17.488.wav;451.6564670999069;452.1565707998816;None;451.6564670999069;451.6564670999069;451.6564670999069;451.6564670999069;451.6564670999069;451.6564670999069;;;;;;210103;001;2023-12-01_11h22.53.067;REPSWITCH1_version1_list3;2022.2.4;143.88199375664644;
REPSWITCH1/PICTURE_242.png;cartero;type;darkblue;filler;1;F;4;2;3;1;Stim3_Set3;0;None;95;94;95;0;94;94;94;;;;;;;;;;;;;;;;;;;;;;;452.1565707998816;453.20532559999265;453.20532559999265;453.20532559999265;453.20532559999265;453.20532559999265;453.20532559999265;453.20532559999265;453.20532559999265;['c', 'a', 'r', 't', 'e', 'r', 'o'];0;[0.8366517999675125, 1.0072476000059396, 1.1925866999663413, 1.4457465999294072, 1.5314893999602646, 1.6760072000324726, 1.781647500116378];cartero;C:\2023\REPSWITCH21092023\REPSWITCH_excgange\REPSWITCH_excgange\data/210103_REPSWITCH1_version1_list3_2023-12-01_11h22.53.067_micRespv1l3_recorded\recording_micRespv1l3_2023-12-01_11h30.22.058.wav;456.22651170007885;456.72661600005813;None;456.22651170007885;456.22651170007885;456.22651170007885;456.22651170007885;456.22651170007885;456.22651170007885;;;;;;210103;001;2023-12-01_11h22.53.067;REPSWITCH1_version1_list3;2022.2.4;143.88199375664644;
REPSWITCH1/PICTURE_35.png;oreja;speak;gold;filler;2;F;4;2;3;1;Stim5_Set3;1;switch;96;95;96;0;95;95;95;;;;;;;;;;;;;;;;;;;;;;;456.72661600005813;457.88654639991;457.88654639991;457.88654639991;457.88654639991;457.88654639991;457.88654639991;457.88654639991;457.88654639991;None;0;;;C:\2023\REPSWITCH21092023\REPSWITCH_excgange\REPSWITCH_excgange\data/210103_REPSWITCH1_version1_list3_2023-12-01_11h22.53.067_micRespv1l3_recorded\recording_micRespv1l3_2023-12-01_11h30.26.741.wav;460.91466340003535;;None;460.91466340003535;460.91466340003535;460.91466340003535;460.91466340003535;460.91466340003535;460.91466340003535;;;;;;210103;001;2023-12-01_11h22.53.067;REPSWITCH1_version1_list3;2022.2.4;143.88199375664644;
REPSWITCH1/PICTURE_338.png;regalo;speak;gold;nontarget;2;NT;4;2;3;1;Stim6_Set4;1;repeat;97;96;97;0;96;96;96;;;;;;;;;;;;;;;;;;;;;;;461.41472929995507;462.52598850009963;462.52598850009963;462.52598850009963;462.52598850009963;462.52598850009963;462.52598850009963;462.52598850009963;462.52598850009963;None;0;;;C:\2023\REPSWITCH21092023\REPSWITCH_excgange\REPSWITCH_excgange\data/210103_REPSWITCH1_version1_list3_2023-12-01_11h22.53.067_micRespv1l3_recorded\recording_micRespv1l3_2023-12-01_11h30.31.379.wav;465.5471822998952;466.04728320008144;None;465.5471822998952;465.5471822998952;465.5471822998952;465.5471822998952;465.5471822998952;465.5471822998952;;;;;;210103;001;2023-12-01_11h22.53.067;REPSWITCH1_version1_list3;2022.2.4;143.88199375664644;
REPSWITCH1/PICTURE_338.png;regalo;type;darkblue;switch;1;T;4;2;3;1;Stim6_Set4;0;None;98;97;98;0;97;97;97;;;;;;;;;;;;;;;;;;;;;;;466.04728320008144;467.1863323999569;467.1863323999569;467.1863323999569;467.1863323999569;467.1863323999569;467.1863323999569;467.1863323999569;467.1863323999569;['r', 'e', 'g', 'a', 'l', 'o'];0;[0.7934480998665094, 0.9073677998967469, 1.1219341000542045, 1.212589900009334, 1.3382653999142349, 1.5577924000099301];regalo;C:\2023\REPSWITCH21092023\REPSWITCH_excgange\REPSWITCH_excgange\data/210103_REPSWITCH1_version1_list3_2023-12-01_11h22.53.067_micRespv1l3_recorded\recording_micRespv1l3_2023-12-01_11h30.36.039.wav;470.2075437998865;470.70760619989596;None;470.2075437998865;470.2075437998865;470.2075437998865;470.2075437998865;470.2075437998865;470.2075437998865;;;;;;210103;001;2023-12-01_11h22.53.067;REPSWITCH1_version1_list3;2022.2.4;143.88199375664644;
REPSWITCH1/PICTURE_687.png;camisa;type;darkblue;nontarget;1;NT;4;2;3;1;Stim5_Set4;0;None;99;98;99;0;98;98;98;;;;;;;;;;;;;;;;;;;;;;;470.70760619989596;471.8049719000701;471.8049719000701;471.8049719000701;471.8049719000701;471.8049719000701;471.8049719000701;471.8049719000701;471.8049719000701;['c', 'a', 'm', 'i', 's', 'a'];0;[0.7831478998996317, 0.8848059999290854, 1.073516699951142, 1.4988704998977482, 1.5880237000528723, 1.659369699889794];camisa;C:\2023\REPSWITCH21092023\REPSWITCH_excgange\REPSWITCH_excgange\data/210103_REPSWITCH1_version1_list3_2023-12-01_11h22.53.067_micRespv1l3_recorded\recording_micRespv1l3_2023-12-01_11h30.40.658.wav;474.8261881999206;475.32626309990883;None;474.8261881999206;474.8261881999206;474.8261881999206;474.8261881999206;474.8261881999206;474.8261881999206;;;;;;210103;001;2023-12-01_11h22.53.067;REPSWITCH1_version1_list3;2022.2.4;143.88199375664644;
REPSWITCH1/PICTURE_687.png;camisa;type;darkblue;repeat;1;T;4;2;3;1;Stim5_Set4;0;None;100;99;100;0;99;99;99;;;;;;;;;;;;;;;;;;;;;;;475.32626309990883;476.4097478000913;476.4097478000913;476.4097478000913;476.4097478000913;476.4097478000913;476.4097478000913;476.4097478000913;476.4097478000913;['c', 'a', 'm', 'i', 's', 'a'];0;[0.8009933000430465, 0.8757400000467896, 1.0641958999913186, 1.1673445000778884, 1.2470873000565916, 1.3128256001509726];camisa;C:\2023\REPSWITCH21092023\REPSWITCH_excgange\REPSWITCH_excgange\data/210103_REPSWITCH1_version1_list3_2023-12-01_11h22.53.067_micRespv1l3_recorded\recording_micRespv1l3_2023-12-01_11h30.45.263.wav;479.4379489000421;;None;479.4379489000421;479.4379489000421;479.4379489000421;479.4379489000421;479.4379489000421;479.4379489000421;;;;;;210103;001;2023-12-01_11h22.53.067;REPSWITCH1_version1_list3;2022.2.4;143.88199375664644;
REPSWITCH1/PICTURE_340.png;espejo;speak;gold;filler;2;F;4;2;3;1;Extra1;0;None;101;100;101;0;100;100;100;;;;;;;;;;;;;;;;;;;;;;;479.93795679998584;481.0771033000201;481.0771033000201;481.0771033000201;481.0771033000201;481.0771033000201;481.0771033000201;481.0771033000201;481.0771033000201;None;0;;;C:\2023\REPSWITCH21092023\REPSWITCH_excgange\REPSWITCH_excgange\data/210103_REPSWITCH1_version1_list3_2023-12-01_11h22.53.067_micRespv1l3_recorded\recording_micRespv1l3_2023-12-01_11h30.49.930.wav;484.10517029999755;;None;484.10517029999755;484.10517029999755;484.10517029999755;484.10517029999755;484.10517029999755;484.10517029999755;;;;;;210103;001;2023-12-01_11h22.53.067;REPSWITCH1_version1_list3;2022.2.4;143.88199375664644;
REPSWITCH1/PICTURE_610.png;miel;type;darkblue;filler;1;F;4;2;3;1;Stim2_Set3;0;None;102;101;102;0;101;101;101;;;;;;;;;;;;;;;;;;;;;;;484.60527889989316;485.6193512000609;485.6193512000609;485.6193512000609;485.6193512000609;485.6193512000609;485.6193512000609;485.6193512000609;485.6193512000609;['m', 'i', 'e', 'l'];0;[0.8305017000529915, 1.0136721001472324, 1.2091155999805778, 1.3347073001787066];miel;C:\2023\REPSWITCH21092023\REPSWITCH_excgange\REPSWITCH_excgange\data/210103_REPSWITCH1_version1_list3_2023-12-01_11h22.53.067_micRespv1l3_recorded\recording_micRespv1l3_2023-12-01_11h30.54.472.wav;488.6405034000054;489.14067040011287;space;488.6405034000054;488.6405034000054;488.6405034000054;488.6405034000054;488.6405034000054;488.6405034000054;489.14067040011287;489.14067040011287;1.135828899918124;;;210103;001;2023-12-01_11h22.53.067;REPSWITCH1_version1_list3;2022.2.4;143.88199375664644;
REPSWITCH1/PICTURE_8.png;pierna;type;darkblue;filler;1;F;1;4;3;1;Stim3_Set4;0;None;103;102;1;0;102;102;102;;;;;;;;;;;;;;;;;;;;;;;490.2865784999449;491.34923329995945;491.34923329995945;491.34923329995945;491.34923329995945;491.34923329995945;491.34923329995945;491.34923329995945;491.34923329995945;['p', 'i', 'e', 'r', 'n', 'a'];0;[0.7018858999945223, 0.9194865999743342, 1.0261140000075102, 1.1048851001542062, 1.2085023000836372, 1.3349752000067383];pierna;C:\2023\REPSWITCH21092023\REPSWITCH_excgange\REPSWITCH_excgange\data/210103_REPSWITCH1_version1_list3_2023-12-01_11h22.53.067_micRespv1l3_recorded\recording_micRespv1l3_2023-12-01_11h31.00.203.wav;494.37736340006813;494.87746089999564;None;494.37736340006813;494.37736340006813;494.37736340006813;494.37736340006813;494.37736340006813;494.37736340006813;;;;;;210103;001;2023-12-01_11h22.53.067;REPSWITCH1_version1_list3;2022.2.4;143.88199375664644;
REPSWITCH1/PICTURE_498.png;taza;speak;gold;filler;2;F;1;4;3;1;Stim4_Set4;0;None;104;103;2;0;103;103;103;;;;;;;;;;;;;;;;;;;;;;;494.87746089999564;495.9817588001024;495.9817588001024;495.9817588001024;495.9817588001024;495.9817588001024;495.9817588001024;495.9817588001024;495.9817588001024;None;0;;;C:\2023\REPSWITCH21092023\REPSWITCH_excgange\REPSWITCH_excgange\data/210103_REPSWITCH1_version1_list3_2023-12-01_11h22.53.067_micRespv1l3_recorded\recording_micRespv1l3_2023-12-01_11h31.04.835.wav;499.0029641999863;499.5030425998848;None;499.0029641999863;499.0029641999863;499.0029641999863;499.0029641999863;499.0029641999863;499.0029641999863;;;;;;210103;001;2023-12-01_11h22.53.067;REPSWITCH1_version1_list3;2022.2.4;143.88199375664644;
REPSWITCH1/PICTURE_19.png;pavo;speak;gold;nontarget;2;NT;1;4;3;1;Stim5_Set1;1;repeat;105;104;3;0;104;104;104;;;;;;;;;;;;;;;;;;;;;;;499.5030425998848;500.524026399944;500.524026399944;500.524026399944;500.524026399944;500.524026399944;500.524026399944;500.524026399944;500.524026399944;None;0;;;C:\2023\REPSWITCH21092023\REPSWITCH_excgange\REPSWITCH_excgange\data/210103_REPSWITCH1_version1_list3_2023-12-01_11h22.53.067_micRespv1l3_recorded\recording_micRespv1l3_2023-12-01_11h31.09.377.wav;503.55220069992356;;None;503.55220069992356;503.55220069992356;503.55220069992356;503.55220069992356;503.55220069992356;503.55220069992356;;;;;;210103;001;2023-12-01_11h22.53.067;REPSWITCH1_version1_list3;2022.2.4;143.88199375664644;
REPSWITCH1/PICTURE_19.png;pavo;speak;gold;repeat;2;T;1;4;3;1;Stim5_Set1;0;None;106;105;4;0;105;105;105;;;;;;;;;;;;;;;;;;;;;;;504.0522737998981;505.1566351999063;505.1566351999063;505.1566351999063;505.1566351999063;505.1566351999063;505.1566351999063;505.1566351999063;505.1566351999063;None;0;;;C:\2023\REPSWITCH21092023\REPSWITCH_excgange\REPSWITCH_excgange\data/210103_REPSWITCH1_version1_list3_2023-12-01_11h22.53.067_micRespv1l3_recorded\recording_micRespv1l3_2023-12-01_11h31.14.010.wav;508.1847584999632;;None;508.1847584999632;508.1847584999632;508.1847584999632;508.1847584999632;508.1847584999632;508.1847584999632;;;;;;210103;001;2023-12-01_11h22.53.067;REPSWITCH1_version1_list3;2022.2.4;143.88199375664644;
REPSWITCH1/PICTURE_319.png;vaca;type;darkblue;filler;1;F;1;4;3;1;Stim1_Set4;1;repeat;107;106;5;0;106;106;106;;;;;;;;;;;;;;;;;;;;;;;508.68489919998683;509.76835049991496;509.76835049991496;509.76835049991496;509.76835049991496;509.76835049991496;509.76835049991496;509.76835049991496;509.76835049991496;['v', 'a', 'c', 'a'];0;[1.281084300018847, 1.3956893000286072, 1.5604642999824136, 1.6653708000667393];vaca;C:\2023\REPSWITCH21092023\REPSWITCH_excgange\REPSWITCH_excgange\data/210103_REPSWITCH1_version1_list3_2023-12-01_11h22.53.067_micRespv1l3_recorded\recording_micRespv1l3_2023-12-01_11h31.18.621.wav;512.7895412999205;513.2896006999072;None;512.7895412999205;512.7895412999205;512.7895412999205;512.7895412999205;512.7895412999205;512.7895412999205;;;;;;210103;001;2023-12-01_11h22.53.067;REPSWITCH1_version1_list3;2022.2.4;143.88199375664644;
REPSWITCH1/PICTURE_169.png;espalda;speak;gold;nontarget;2;NT;1;4;3;1;Stim8_Set1;1;switch;108;107;6;0;107;107;107;;;;;;;;;;;;;;;;;;;;;;;513.2896006999072;514.4078214999754;514.4078214999754;514.4078214999754;514.4078214999754;514.4078214999754;514.4078214999754;514.4078214999754;514.4078214999754;None;0;;;C:\2023\REPSWITCH21092023\REPSWITCH_excgange\REPSWITCH_excgange\data/210103_REPSWITCH1_version1_list3_2023-12-01_11h22.53.067_micRespv1l3_recorded\recording_micRespv1l3_2023-12-01_11h31.23.261.wav;517.4289969999809;517.9290722000878;None;517.4289969999809;517.4289969999809;517.4289969999809;517.4289969999809;517.4289969999809;517.4289969999809;;;;;;210103;001;2023-12-01_11h22.53.067;REPSWITCH1_version1_list3;2022.2.4;143.88199375664644;
REPSWITCH1/PICTURE_169.png;espalda;speak;gold;repeat;2;T;1;4;3;1;Stim8_Set1;0;None;109;108;7;0;108;108;108;;;;;;;;;;;;;;;;;;;;;;;517.9290722000878;519.0404435999226;519.0404435999226;519.0404435999226;519.0404435999226;519.0404435999226;519.0404435999226;519.0404435999226;519.0404435999226;None;0;;;C:\2023\REPSWITCH21092023\REPSWITCH_excgange\REPSWITCH_excgange\data/210103_REPSWITCH1_version1_list3_2023-12-01_11h22.53.067_micRespv1l3_recorded\recording_micRespv1l3_2023-12-01_11h31.27.893.wav;522.061592800077;522.5617162999697;None;522.061592800077;522.061592800077;522.061592800077;522.061592800077;522.061592800077;522.061592800077;;;;;;210103;001;2023-12-01_11h22.53.067;REPSWITCH1_version1_list3;2022.2.4;143.88199375664644;
REPSWITCH1/PICTURE_728.png;pulpo;type;darkblue;filler;1;F;1;4;3;1;Stim8_Set4;0;None;110;109;8;0;109;109;109;;;;;;;;;;;;;;;;;;;;;;;522.5617162999697;523.7145994000603;523.7145994000603;523.7145994000603;523.7145994000603;523.7145994000603;523.7145994000603;523.7145994000603;523.7145994000603;['p', 'u', 'l', 'p', 'o'];0;[0.8380133998580277, 1.1782205998897552, 1.4233516999520361, 1.8370947998482734, 1.9480252000503242];pulpo;C:\2023\REPSWITCH21092023\REPSWITCH_excgange\REPSWITCH_excgange\data/210103_REPSWITCH1_version1_list3_2023-12-01_11h22.53.067_micRespv1l3_recorded\recording_micRespv1l3_2023-12-01_11h31.32.567.wav;526.735810500104;527.2359565000515;None;526.735810500104;526.735810500104;526.735810500104;526.735810500104;526.735810500104;526.735810500104;;;;;;210103;001;2023-12-01_11h22.53.067;REPSWITCH1_version1_list3;2022.2.4;143.88199375664644;
REPSWITCH1/PICTURE_142.png;vaso;speak;gold;nontarget;2;NT;1;4;3;1;Stim7_Set1;1;switch;111;110;9;0;110;110;110;;;;;;;;;;;;;;;;;;;;;;;527.2359565000515;528.2916534000542;528.2916534000542;528.2916534000542;528.2916534000542;528.2916534000542;528.2916534000542;528.2916534000542;528.2916534000542;None;0;;;C:\2023\REPSWITCH21092023\REPSWITCH_excgange\REPSWITCH_excgange\data/210103_REPSWITCH1_version1_list3_2023-12-01_11h22.53.067_micRespv1l3_recorded\recording_micRespv1l3_2023-12-01_11h31.37.144.wav;531.3128780000843;531.8129422001075;None;531.3128780000843;531.3128780000843;531.3128780000843;531.3128780000843;531.3128780000843;531.3128780000843;;;;;;210103;001;2023-12-01_11h22.53.067;REPSWITCH1_version1_list3;2022.2.4;143.88199375664644;
REPSWITCH1/PICTURE_142.png;vaso;type;darkblue;switch;1;T;1;4;3;1;Stim7_Set1;0;None;112;111;10;0;111;111;111;;;;;;;;;;;;;;;;;;;;;;;531.8129422001075;532.8546539999079;532.8546539999079;532.8546539999079;532.8546539999079;532.8546539999079;532.8546539999079;532.8546539999079;532.8546539999079;['v', 'a', 's', 'o'];0;[0.7492814001161605, 0.8448679000139236, 1.0083118001930416, 1.1438504001125693];vaso;C:\2023\REPSWITCH21092023\REPSWITCH_excgange\REPSWITCH_excgange\data/210103_REPSWITCH1_version1_list3_2023-12-01_11h22.53.067_micRespv1l3_recorded\recording_micRespv1l3_2023-12-01_11h31.41.707.wav;535.8759047999047;536.3759409000631;None;535.8759047999047;535.8759047999047;535.8759047999047;535.8759047999047;535.8759047999047;535.8759047999047;;;;;;210103;001;2023-12-01_11h22.53.067;REPSWITCH1_version1_list3;2022.2.4;143.88199375664644;
REPSWITCH1/PICTURE_338.png;regalo;type;darkblue;filler;1;F;1;4;3;1;Stim6_Set4;1;repeat;113;112;11;0;112;112;112;;;;;;;;;;;;;;;;;;;;;;;536.3759409000631;537.4385915999301;537.4385915999301;537.4385915999301;537.4385915999301;537.4385915999301;537.4385915999301;537.4385915999301;537.4385915999301;['r', 'e', 'g', 'a', 'l', 'o'];0;[0.8844056001398712, 0.9990515999961644, 1.2522707001771778, 1.3420963999815285, 1.467656700173393, 1.687891700072214];regalo;C:\2023\REPSWITCH21092023\REPSWITCH_excgange\REPSWITCH_excgange\data/210103_REPSWITCH1_version1_list3_2023-12-01_11h22.53.067_micRespv1l3_recorded\recording_micRespv1l3_2023-12-01_11h31.46.292.wav;540.4598276999313;540.9599053000566;None;540.4598276999313;540.4598276999313;540.4598276999313;540.4598276999313;540.4598276999313;540.4598276999313;;;;;;210103;001;2023-12-01_11h22.53.067;REPSWITCH1_version1_list3;2022.2.4;143.88199375664644;
REPSWITCH1/PICTURE_135.png;traje;type;darkblue;nontarget;1;NT;1;4;3;1;Stim3_Set1;1;repeat;114;113;12;0;113;113;113;;;;;;;;;;;;;;;;;;;;;;;540.9599053000566;542.0642448998988;542.0642448998988;542.0642448998988;542.0642448998988;542.0642448998988;542.0642448998988;542.0642448998988;542.0642448998988;['t', 'r', 'a', 'j', 'e'];0;[0.985346200177446, 1.4258299001958221, 1.4956339001655579, 1.6362269001547247, 1.746908500092104];traje;C:\2023\REPSWITCH21092023\REPSWITCH_excgange\REPSWITCH_excgange\data/210103_REPSWITCH1_version1_list3_2023-12-01_11h22.53.067_micRespv1l3_recorded\recording_micRespv1l3_2023-12-01_11h31.50.918.wav;545.0923925000243;;None;545.0923925000243;545.0923925000243;545.0923925000243;545.0923925000243;545.0923925000243;545.0923925000243;;;;;;210103;001;2023-12-01_11h22.53.067;REPSWITCH1_version1_list3;2022.2.4;143.88199375664644;
REPSWITCH1/PICTURE_135.png;traje;speak;gold;switch;2;T;1;4;3;1;Stim3_Set1;0;None;115;114;13;0;114;114;114;;;;;;;;;;;;;;;;;;;;;;;545.5924422999378;546.7106387000531;546.7106387000531;546.7106387000531;546.7106387000531;546.7106387000531;546.7106387000531;546.7106387000531;546.7106387000531;None;0;;;C:\2023\REPSWITCH21092023\REPSWITCH_excgange\REPSWITCH_excgange\data/210103_REPSWITCH1_version1_list3_2023-12-01_11h22.53.067_micRespv1l3_recorded\recording_micRespv1l3_2023-12-01_11h31.55.564.wav;549.7318911000621;550.2319336999208;None;549.7318911000621;549.7318911000621;549.7318911000621;549.7318911000621;549.7318911000621;549.7318911000621;;;;;;210103;001;2023-12-01_11h22.53.067;REPSWITCH1_version1_list3;2022.2.4;143.88199375664644;
REPSWITCH1/PICTURE_381.png;fresa;speak;gold;nontarget;2;NT;1;4;3;1;Stim2_Set1;1;repeat;116;115;14;0;115;115;115;;;;;;;;;;;;;;;;;;;;;;;550.2319336999208;551.2876705001108;551.2876705001108;551.2876705001108;551.2876705001108;551.2876705001108;551.2876705001108;551.2876705001108;551.2876705001108;None;0;;;C:\2023\REPSWITCH21092023\REPSWITCH_excgange\REPSWITCH_excgange\data/210103_REPSWITCH1_version1_list3_2023-12-01_11h22.53.067_micRespv1l3_recorded\recording_micRespv1l3_2023-12-01_11h32.00.141.wav;554.3088785000145;554.8089298999403;None;554.3088785000145;554.3088785000145;554.3088785000145;554.3088785000145;554.3088785000145;554.3088785000145;;;;;;210103;001;2023-12-01_11h22.53.067;REPSWITCH1_version1_list3;2022.2.4;143.88199375664644;
REPSWITCH1/PICTURE_381.png;fresa;type;darkblue;switch;1;T;1;4;3;1;Stim2_Set1;0;None;117;116;15;0;116;116;116;;;;;;;;;;;;;;;;;;;;;;;554.8089298999403;555.9549412000924;555.9549412000924;555.9549412000924;555.9549412000924;555.9549412000924;555.9549412000924;555.9549412000924;555.9549412000924;['f', 'r', 'e', 's', 'a'];0;[0.7433503998909146, 1.0993818999268115, 1.190069600008428, 1.5448765000328422, 1.632554299896583];fresa;C:\2023\REPSWITCH21092023\REPSWITCH_excgange\REPSWITCH_excgange\data/210103_REPSWITCH1_version1_list3_2023-12-01_11h22.53.067_micRespv1l3_recorded\recording_micRespv1l3_2023-12-01_11h32.04.808.wav;558.9761353000067;559.4762283000164;None;558.9761353000067;558.9761353000067;558.9761353000067;558.9761353000067;558.9761353000067;558.9761353000067;;;;;;210103;001;2023-12-01_11h22.53.067;REPSWITCH1_version1_list3;2022.2.4;143.88199375664644;
REPSWITCH1/PICTURE_48.png;bombero;type;darkblue;filler;1;F;1;4;3;1;Stim7_Set4;0;None;118;117;16;0;117;117;117;;;;;;;;;;;;;;;;;;;;;;;559.4762283000164;560.5527351000346;560.5527351000346;560.5527351000346;560.5527351000346;560.5527351000346;560.5527351000346;560.5527351000346;560.5527351000346;['b', 'o', 'm', 'b', 'e', 'r', 'o'];0;[0.9071706000249833, 1.1616296998690814, 1.6446549000684172, 1.9047538999002427, 2.0542562000919133, 2.1081395000219345, 2.167842200025916];bombero;C:\2023\REPSWITCH21092023\REPSWITCH_excgange\REPSWITCH_excgange\data/210103_REPSWITCH1_version1_list3_2023-12-01_11h22.53.067_micRespv1l3_recorded\recording_micRespv1l3_2023-12-01_11h32.09.406.wav;563.5809160000645;;None;563.5809160000645;563.5809160000645;563.5809160000645;563.5809160000645;563.5809160000645;563.5809160000645;;;;;;210103;001;2023-12-01_11h22.53.067;REPSWITCH1_version1_list3;2022.2.4;143.88199375664644;
REPSWITCH1/PICTURE_687.png;camisa;speak;gold;filler;2;F;1;4;3;1;Stim5_Set4;0;None;119;118;17;0;118;118;118;;;;;;;;;;;;;;;;;;;;;;;564.0809589000419;565.1089625998866;565.1089625998866;565.1089625998866;565.1089625998866;565.1089625998866;565.1089625998866;565.1089625998866;565.1089625998866;None;0;;;C:\2023\REPSWITCH21092023\REPSWITCH_excgange\REPSWITCH_excgange\data/210103_REPSWITCH1_version1_list3_2023-12-01_11h22.53.067_micRespv1l3_recorded\recording_micRespv1l3_2023-12-01_11h32.13.962.wav;568.1371271000244;;None;568.1371271000244;568.1371271000244;568.1371271000244;568.1371271000244;568.1371271000244;568.1371271000244;;;;;;210103;001;2023-12-01_11h22.53.067;REPSWITCH1_version1_list3;2022.2.4;143.88199375664644;
REPSWITCH1/PICTURE_128.png;muñeca;type;darkblue;nontarget;1;NT;1;4;3;1;Stim4_Set1;0;None;120;119;18;0;119;119;119;;;;;;;;;;;;;;;;;;;;;;;568.6371243998874;569.8317613999825;569.8317613999825;569.8317613999825;569.8317613999825;569.8317613999825;569.8317613999825;569.8317613999825;569.8317613999825;['m', 'u', 'ñ', 'e', 'c', 'a'];0;[1.0874401999171823, 1.405702699907124, 1.7063674998935312, 1.8427648998331279, 1.979306799825281, 2.0869525999296457];muñeca;C:\2023\REPSWITCH21092023\REPSWITCH_excgange\REPSWITCH_excgange\data/210103_REPSWITCH1_version1_list3_2023-12-01_11h22.53.067_micRespv1l3_recorded\recording_micRespv1l3_2023-12-01_11h32.18.685.wav;572.8530194999184;573.3530250999611;None;572.8530194999184;572.8530194999184;572.8530194999184;572.8530194999184;572.8530194999184;572.8530194999184;;;;;;210103;001;2023-12-01_11h22.53.067;REPSWITCH1_version1_list3;2022.2.4;143.88199375664644;
REPSWITCH1/PICTURE_128.png;muñeca;type;darkblue;repeat;1;T;1;4;3;1;Stim4_Set1;0;None;121;120;19;0;120;120;120;;;;;;;;;;;;;;;;;;;;;;;573.3530250999611;574.4713200000115;574.4713200000115;574.4713200000115;574.4713200000115;574.4713200000115;574.4713200000115;574.4713200000115;574.4713200000115;['m', 'u', 'ñ', 'e', 'c', 'a'];0;[1.0910807000473142, 1.3432372999377549, 1.5784517000429332, 1.7249640000518411, 1.8624978000298142, 1.9342749000061303];muñeca;C:\2023\REPSWITCH21092023\REPSWITCH_excgange\REPSWITCH_excgange\data/210103_REPSWITCH1_version1_list3_2023-12-01_11h22.53.067_micRespv1l3_recorded\recording_micRespv1l3_2023-12-01_11h32.23.324.wav;577.4924596000928;577.9925476000644;None;577.4924596000928;577.4924596000928;577.4924596000928;577.4924596000928;577.4924596000928;577.4924596000928;;;;;;210103;001;2023-12-01_11h22.53.067;REPSWITCH1_version1_list3;2022.2.4;143.88199375664644;
